LabVIEW Measurement	
Writer_Version	2
Reader_Version	2
Separator	Tab
Decimal_Separator	.
Multi_Headings	No
X_Columns	One
Time_Pref	Absolute
Operator	admin
Description	Clolumns are: time, Current, Voltage, Power, Battery Temp, and Chamber Temp
Date	2024/05/20
Time	16:37:47.9793305397033691407
***End_of_Header***	
	
Channels	6						
Samples	1	1	1	1	1	1	
Date	2024/06/05	2024/06/05	2024/06/05	2024/06/05	2024/06/05	2024/06/05	
Time	08:46:00.9135079383850097656	08:46:00.9195008277893066406	08:46:00.9244999885559082032	08:46:00.89751434326171875	08:46:00.89751434326171875	08:46:00.89751434326171875	
X_Dimension	Time	Time	Time	Time	Time	Time	
X0	0.0000000000000000E+0	0.0000000000000000E+0	0.0000000000000000E+0	0.0000000000000000E+0	0.0000000000000000E+0	0.0000000000000000E+0	
Delta_X	1.000000	1.000000	1.000000	1.000000	1.000000	1.000000	
***End_of_Header***							
X_Value	Untitled	Untitled 1	Untitled 2	Untitled 3	Untitled 4	Untitled 5	Comment
0.000000	0.028273	3.948500	0.111690	20.782751	-8.286681E-5	20.821157
1.004162	-3.001600	3.859600	-11.584000	20.772945	-8.220691E-5	20.811826
2.005730	-3.002100	3.854700	-11.571000	20.783080	-8.105209E-5	20.803469
3.004282	-3.000500	3.848700	-11.548000	20.782327	-8.223991E-5	20.792285
4.005340	-2.968500	3.847500	-11.420000	20.806788	-8.342772E-5	20.788296
5.004260	-2.988000	3.843500	-11.483000	20.787467	-8.481351E-5	20.803588
6.001126	-3.007500	3.840700	-11.549000	20.795256	-8.194295E-5	20.815170
7.005414	-3.008500	3.838200	-11.547000	20.795654	-8.517646E-5	20.792809
8.005911	-2.981300	3.835800	-11.435000	20.793012	-8.428559E-5	20.792538
9.003353	-3.018600	3.833200	-11.569000	20.795875	-8.392265E-5	20.796823
10.005795	-3.017700	3.830200	-11.557000	20.796255	-8.583636E-5	20.813325
11.006590	-2.996100	3.828800	-11.470000	20.801572	-8.699118E-5	20.818167
12.005847	-2.997700	3.827800	-11.474000	20.816441	-8.662824E-5	20.802216
13.007863	-3.001100	3.826600	-11.482000	20.811453	-8.524245E-5	20.808134
14.010460	-3.004000	3.824000	-11.486000	20.809133	-8.672722E-5	20.808185
15.006463	-2.997600	3.821000	-11.453000	20.807305	-8.751910E-5	20.820107
16.009254	-2.993500	3.818900	-11.431000	20.810871	-8.860793E-5	20.821302
17.013799	-2.979800	3.818900	-11.379000	20.808710	-8.666123E-5	20.808236
18.009603	-2.995700	3.817600	-11.436000	20.816068	-8.939981E-5	20.835982
19.009530	-3.009400	3.816500	-11.484000	20.819742	-8.850895E-5	20.840130
20.008779	-3.023600	3.813900	-11.531000	20.819159	-8.949880E-5	20.813944
21.009067	-2.993200	3.813400	-11.414000	20.815619	-9.091758E-5	20.788593
22.010489	-3.016700	3.812200	-11.500000	20.819394	-8.979575E-5	20.816549
23.011196	-2.975300	3.811900	-11.341000	20.838809	-9.048865E-5	20.821740
24.007815	-2.992700	3.809100	-11.398000	20.827929	-9.019169E-5	20.819394
25.012217	-2.983600	3.807900	-11.360000	20.816397	-8.982875E-5	20.804544
26.012035	-2.979900	3.807600	-11.345000	20.831874	-8.930083E-5	20.809589
27.012135	-3.008200	3.805000	-11.446000	20.828454	-8.939981E-5	20.823238
28.011093	-3.010700	3.805300	-11.457000	20.849392	-9.062063E-5	20.830900
29.008633	-3.009800	3.804000	-11.448000	20.838878	-8.959778E-5	20.793360
30.013764	-2.998300	3.803000	-11.401000	20.841009	-9.055464E-5	20.828208
31.012135	-3.009700	3.800700	-11.438000	20.855487	-9.101656E-5	20.820401
32.008945	-2.996900	3.801200	-11.390000	20.863294	-9.352418E-5	20.825363
33.009772	-3.012100	3.798900	-11.442000	20.852110	-9.098357E-5	20.811334
34.009813	-2.992100	3.800400	-11.370000	20.851075	-8.989474E-5	20.837325
35.012877	-3.015400	3.796700	-11.447000	20.857383	-8.913585E-5	20.816133
36.011532	-2.982700	3.797400	-11.325000	20.876203	-9.081860E-5	20.833058
37.014375	-2.995800	3.796500	-11.372000	20.860474	-9.190743E-5	20.817802
38.012094	-3.010500	3.795600	-11.425000	20.858465	-9.167646E-5	20.812948
39.015598	-3.007200	3.794500	-11.410000	20.866323	-9.174245E-5	20.813220
40.013842	-3.006100	3.793900	-11.403000	20.843836	-9.210540E-5	20.831034
41.014970	-3.002300	3.793800	-11.389000	20.875729	-9.187443E-5	20.838747
42.011334	-3.009500	3.793100	-11.414000	20.872910	-9.345819E-5	20.810324
43.022407	-3.012300	3.790400	-11.416000	20.864546	-9.203941E-5	20.819503
44.016483	-2.989600	3.791600	-11.334000	20.873207	-9.124753E-5	20.833380
45.016636	-3.017200	3.790000	-11.435000	20.884738	-9.161047E-5	20.814092
46.017349	-2.997000	3.789900	-11.357000	20.893619	-9.118154E-5	20.812069
47.014479	-3.017900	3.788000	-11.431000	20.884694	-9.210540E-5	20.842497
48.019359	-2.999400	3.788600	-11.362000	20.896818	-9.167646E-5	20.829967
49.017763	-3.005300	3.787400	-11.381000	20.895175	-9.157748E-5	20.837332
50.017058	-3.012400	3.785900	-11.404000	20.902211	-9.151149E-5	20.820661
51.015167	-3.010300	3.786700	-11.398000	20.904361	-9.322723E-5	20.825182
52.019434	-2.999200	3.786300	-11.355000	20.899840	-9.273230E-5	20.814497
53.023623	-2.988000	3.785300	-11.310000	20.888531	-9.233636E-5	20.819308
54.018386	-3.003600	3.784300	-11.365000	20.921107	-9.236936E-5	20.827705
55.020553	-2.973500	3.784200	-11.251000	20.895530	-9.124753E-5	20.835316
56.021628	-2.973000	3.784500	-11.249000	20.914773	-9.408510E-5	20.852190
57.021283	-2.991400	3.782700	-11.315000	20.935406	-9.368916E-5	20.832996
58.021074	-2.972200	3.782400	-11.240000	20.910177	-9.339220E-5	20.839059
59.021315	-2.992300	3.781700	-11.314000	20.923611	-9.326022E-5	20.835425
60.017434	-3.016600	3.781000	-11.405000	20.945199	-9.263332E-5	20.833782
61.022175	-2.991500	3.781900	-11.312000	20.926532	-9.405210E-5	20.819854
62.023191	-2.997300	3.779600	-11.328000	20.924186	-9.362317E-5	20.836948
63.024453	-2.973600	3.781400	-11.242000	20.927607	-9.203941E-5	20.843214
64.023189	-3.024400	3.778300	-11.425000	20.942133	-9.293027E-5	20.838302
65.024679	-2.997700	3.779100	-11.328000	20.925294	-9.332621E-5	20.854651
66.025811	-2.993400	3.778300	-11.309000	20.942260	-9.461302E-5	20.837006
67.021513	-2.989000	3.778000	-11.291000	20.966370	-9.256733E-5	20.850213
68.027262	-2.987500	3.776800	-11.283000	20.946907	-9.250134E-5	20.842602
69.024314	-3.010100	3.777500	-11.370000	20.963873	-9.263332E-5	20.851983
70.024699	-2.986600	3.777200	-11.280000	20.940863	-9.415109E-5	20.851256
71.027658	-2.994600	3.775700	-11.305000	20.962646	-9.243535E-5	20.860713
72.024302	-2.999400	3.775700	-11.324000	20.957786	-9.385413E-5	20.849689
73.027615	-3.005700	3.774300	-11.343000	20.983582	-9.401911E-5	20.855100
74.031109	-3.008900	3.773900	-11.355000	20.960384	-9.293027E-5	20.880735
75.029087	-2.997600	3.775500	-11.317000	20.964322	-9.438205E-5	20.859070
76.025965	-2.994100	3.772900	-11.295000	20.976521	-9.240235E-5	20.867477
77.028906	-2.984300	3.773500	-11.261000	20.963069	-9.276530E-5	20.858766
78.029057	-2.976400	3.774700	-11.233000	20.971730	-9.375515E-5	20.854625
79.029840	-2.984600	3.772700	-11.259000	20.995452	-9.451403E-5	20.854169
80.029197	-2.987800	3.772700	-11.270000	20.986527	-9.411809E-5	20.869899
81.033876	-3.012500	3.772400	-11.363000	20.988297	-9.316124E-5	20.847014
82.030256	-3.004600	3.771300	-11.329000	20.982481	-9.405210E-5	20.872016
83.030341	-2.999800	3.770900	-11.311000	20.993208	-9.368916E-5	20.862830
84.035607	-2.977800	3.771400	-11.229000	20.997974	-9.487697E-5	20.844839
85.026841	-2.987700	3.771300	-11.266000	21.002114	-9.434906E-5	20.860832
86.027755	-2.981800	3.769200	-11.238000	21.014396	-9.497596E-5	20.858893
87.029999	-2.977600	3.770400	-11.225000	20.998625	-9.177545E-5	20.865404
88.030818	-2.958800	3.771000	-11.156000	21.028441	-9.497596E-5	20.857293
89.036500	-3.010200	3.768000	-11.341000	20.996374	-9.438205E-5	20.862678
90.034842	-3.015300	3.768000	-11.360000	21.003348	-9.411809E-5	20.867282
91.033092	-3.014000	3.767700	-11.355000	21.022752	-9.250134E-5	20.872939
92.037376	-3.003600	3.768100	-11.318000	21.013253	-9.210540E-5	20.852059
93.036935	-3.005300	3.767200	-11.321000	21.042044	-9.266631E-5	20.858570
94.032631	-3.002600	3.766300	-11.307000	21.032461	-9.547088E-5	20.880279
95.041779	-3.010500	3.765500	-11.336000	21.030565	-9.484398E-5	20.869374
96.034307	-3.008400	3.765500	-11.327000	21.034763	-9.431606E-5	20.870254
97.037428	-3.036000	3.763300	-11.423000	21.045116	-9.283129E-5	20.874919
98.036720	-3.027500	3.764100	-11.395000	21.040806	-9.329322E-5	20.866815
99.032532	-3.000600	3.765100	-11.297000	21.040155	-9.276530E-5	20.866164
100.040973	-3.016700	3.763800	-11.353000	21.059403	-9.355718E-5	20.876880
101.038062	-3.012900	3.763100	-11.337000	21.048333	-9.151149E-5	20.874817
102.038910	-3.007600	3.762100	-11.315000	21.057619	-9.207240E-5	20.847123
103.036062	-2.993200	3.764100	-11.265000	21.077612	-9.349119E-5	20.870912
104.038169	-2.992000	3.762400	-11.257000	21.062942	-9.276530E-5	20.873308
105.040737	-3.007100	3.762500	-11.314000	21.064585	-9.474500E-5	20.883960
106.037106	-3.005700	3.763600	-11.311000	21.076613	-9.527291E-5	20.871810
107.038017	-3.002100	3.762800	-11.296000	21.085721	-9.345819E-5	20.887557
108.041785	-2.997000	3.761900	-11.273000	21.078010	-9.276530E-5	20.861354
109.039120	-2.999600	3.761000	-11.281000	21.063542	-9.365616E-5	20.874857
110.038305	-2.991700	3.760900	-11.251000	21.069130	-9.207240E-5	20.886609
111.038090	-3.018200	3.760800	-11.350000	21.086000	-9.273230E-5	20.884043
112.039246	-2.993000	3.760600	-11.254000	21.085772	-9.276530E-5	20.880022
113.038251	-2.996900	3.759600	-11.266000	21.075596	-9.279829E-5	20.888335
114.039823	-2.994200	3.759600	-11.255000	21.076848	-9.246834E-5	20.883424
115.038485	-2.984100	3.758600	-11.215000	21.101972	-9.421708E-5	20.877260
116.038606	-2.978400	3.758700	-11.194000	21.098951	-9.388713E-5	20.879454
117.039791	-2.999100	3.758700	-11.271000	21.083857	-9.269931E-5	20.887590
118.038783	-3.006600	3.758700	-11.300000	21.102327	-9.547088E-5	20.907959
119.043900	-2.997600	3.758500	-11.266000	21.110012	-9.411809E-5	20.881984
120.037517	-2.988700	3.758100	-11.231000	21.104552	-9.266631E-5	20.886005
121.039086	-3.012400	3.756900	-11.316000	21.100159	-9.250134E-5	20.869758
122.041455	-2.996800	3.757300	-11.259000	21.106770	-9.372215E-5	20.883482
123.041016	-2.999600	3.757500	-11.270000	21.107472	-9.398611E-5	20.893192
124.042583	-2.992700	3.756300	-11.240000	21.115480	-9.441505E-5	20.895512
125.042624	-3.026300	3.753500	-11.359000	21.140679	-9.260032E-5	20.919294
126.045235	-2.997000	3.755800	-11.255000	21.137632	-9.563586E-5	20.886852
127.040853	-3.014300	3.754700	-11.316000	21.133102	-9.316124E-5	20.915034
128.046123	-2.998500	3.754800	-11.258000	21.135074	-9.299626E-5	20.889034
129.044877	-2.999700	3.754900	-11.263000	21.136261	-9.401911E-5	20.889747
130.043729	-2.975600	3.755100	-11.172000	21.124696	-9.507494E-5	20.881025
131.047454	-2.994400	3.754600	-11.241000	21.130055	-9.454703E-5	20.909142
132.046681	-2.974800	3.754300	-11.167000	21.141330	-9.332621E-5	20.882016
133.050662	-2.974300	3.755300	-11.168000	21.153611	-9.269931E-5	20.879128
134.046513	-3.005400	3.753600	-11.280000	21.141186	-9.322723E-5	20.902733
135.046431	-3.031800	3.750700	-11.370000	21.152215	-9.372215E-5	20.900489
136.049442	-2.983300	3.752700	-11.195000	21.154288	-9.326022E-5	20.908726
137.048366	-2.994100	3.753400	-11.237000	21.160797	-9.128052E-5	20.912392
138.054240	-2.996200	3.751300	-11.239000	21.153069	-9.286428E-5	20.912247
139.048835	-2.987400	3.751900	-11.207000	21.164647	-9.378814E-5	20.911028
140.049739	-3.011600	3.750800	-11.295000	21.175220	-9.339220E-5	20.909750
141.047831	-2.989100	3.750500	-11.210000	21.154118	-9.517393E-5	20.902392
142.049152	-3.013800	3.750300	-11.301000	21.180315	-9.438205E-5	20.921483
143.049274	-3.021800	3.749900	-11.330000	21.181306	-9.431606E-5	20.915838
144.050235	-3.002500	3.750500	-11.260000	21.179765	-9.355718E-5	20.907658
145.050014	-3.016600	3.749500	-11.310000	21.183709	-9.355718E-5	20.909707
146.050298	-3.008100	3.748400	-11.274000	21.187519	-9.547088E-5	20.907354
147.051774	-3.027200	3.748100	-11.344000	21.176617	-9.349119E-5	20.921103
148.047988	-2.991200	3.749000	-11.213000	21.208476	-9.566885E-5	20.917886
149.054083	-3.006300	3.748000	-11.267000	21.176921	-9.464601E-5	20.915718
150.048773	-2.998100	3.747800	-11.235000	21.196228	-9.487697E-5	20.914643
151.054113	-2.991400	3.746900	-11.208000	21.204278	-9.481098E-5	20.938815
152.054126	-2.986500	3.748400	-11.194000	21.211015	-9.431606E-5	20.919004
153.049956	-2.992500	3.748000	-11.215000	21.211565	-9.312824E-5	20.928088
154.054389	-2.994200	3.747400	-11.220000	21.209170	-9.451403E-5	20.927589
155.056424	-2.987000	3.746300	-11.189000	21.220021	-9.494296E-5	20.920427
156.055803	-3.003400	3.744900	-11.246000	21.215958	-9.306225E-5	20.913094
157.056557	-2.992500	3.745300	-11.206000	21.228705	-9.517393E-5	20.908726
158.054184	-2.995500	3.746300	-11.221000	21.240453	-9.649373E-5	20.927589
159.052604	-2.997800	3.746100	-11.229000	21.238980	-9.510794E-5	20.910944
160.052793	-3.016100	3.745100	-11.295000	21.222586	-9.500895E-5	20.911614
161.054512	-3.011700	3.743900	-11.275000	21.230702	-9.527291E-5	20.912620
162.055145	-3.005800	3.744200	-11.253000	21.234588	-9.652672E-5	20.934997
163.057257	-3.027500	3.743300	-11.332000	21.258786	-9.583383E-5	20.902783
164.056436	-3.023500	3.743700	-11.318000	21.235366	-9.448104E-5	20.908751
165.058565	-3.003800	3.743200	-11.242000	21.253225	-9.523992E-5	20.918555
166.056172	-2.993400	3.743000	-11.203000	21.244295	-9.540489E-5	20.909149
167.054294	-2.981400	3.744200	-11.162000	21.261984	-9.547088E-5	20.913094
168.052650	-3.044200	3.741300	-11.388000	21.264252	-9.599880E-5	20.910148
169.056532	-2.981100	3.742900	-11.157000	21.252573	-9.613078E-5	20.917430
170.057698	-3.003900	3.742700	-11.242000	21.261459	-9.580083E-5	20.907354
171.058525	-2.986200	3.741400	-11.172000	21.268341	-9.679068E-5	20.907600
172.060349	-3.015800	3.740400	-11.279000	21.270465	-9.665870E-5	20.911147
173.059288	-3.016100	3.740800	-11.282000	21.275533	-9.725261E-5	20.897727
174.059888	-3.020900	3.741300	-11.301000	21.273359	-0.000100	20.904560
175.059590	-2.990500	3.742500	-11.191000	21.285020	-9.712063E-5	20.916699
176.061385	-3.015300	3.739600	-11.275000	21.309589	-9.679068E-5	20.899555
177.060071	-3.012200	3.741000	-11.267000	21.274137	-9.675769E-5	20.911502
178.061604	-3.016100	3.740000	-11.280000	21.278877	-9.553687E-5	20.902968
179.061752	-3.040700	3.738600	-11.366000	21.291952	-9.877038E-5	20.900402
180.063346	-2.998800	3.739400	-11.213000	21.309969	-9.758256E-5	20.903728
181.057798	-2.996200	3.739400	-11.203000	21.305671	-9.636175E-5	20.904644
182.062433	-3.013200	3.739600	-11.267000	21.277089	-9.566885E-5	20.924885
183.063614	-2.998200	3.738600	-11.208000	21.294506	-9.497596E-5	20.894423
184.064579	-3.006300	3.736900	-11.233000	21.303815	-9.642774E-5	20.920803
185.070930	-2.984200	3.736900	-11.151000	21.288421	-9.873739E-5	20.915360
186.066689	-2.990200	3.737600	-11.175000	21.320023	-9.520692E-5	20.892925
187.066515	-2.986100	3.736600	-11.157000	21.297665	-9.807749E-5	20.895212
188.065493	-2.999300	3.736400	-11.206000	21.313294	-9.619677E-5	20.883349
189.067091	-2.978200	3.736000	-11.126000	21.350601	-9.778053E-5	20.907868
190.068337	-2.987900	3.736300	-11.163000	21.317925	-9.837444E-5	20.905049
191.066314	-3.019400	3.735300	-11.278000	21.342392	-9.738459E-5	20.883062
192.066813	-3.023800	3.734500	-11.291000	21.329241	-9.870439E-5	20.904043
193.067545	-3.005200	3.735700	-11.226000	21.317071	-9.850642E-5	20.908462
194.064394	-3.035000	3.734000	-11.331000	21.321058	-9.787952E-5	20.898701
195.069458	-3.012900	3.734500	-11.251000	21.341242	-9.844043E-5	20.877170
196.066880	-2.982700	3.734900	-11.139000	21.341404	-9.877038E-5	20.899142
197.069085	-2.990600	3.734000	-11.165000	21.330428	-9.847343E-5	20.884369
198.071667	-2.980400	3.734100	-11.129000	21.356867	-9.985921E-5	20.889009
199.067080	-2.993500	3.734000	-11.176000	21.341972	-9.807749E-5	20.885013
200.072255	-3.004700	3.733400	-11.217000	21.364272	-9.933129E-5	20.903529
201.073432	-2.993800	3.732300	-11.173000	21.338029	-9.731860E-5	20.882490
202.070287	-2.986400	3.734000	-11.151000	21.356411	-9.910033E-5	20.891397
203.070967	-2.986900	3.731400	-11.145000	21.345138	-9.847343E-5	20.895292
204.073452	-3.004100	3.732000	-11.210000	21.364323	-9.890236E-5	20.870391
205.069718	-2.996200	3.731800	-11.180000	21.364399	-9.903434E-5	20.897492
206.070922	-2.975600	3.732400	-11.106000	21.377093	-9.659271E-5	20.879374
207.071908	-2.984800	3.731800	-11.138000	21.367597	-9.910033E-5	20.893580
208.070337	-2.994500	3.731200	-11.172000	21.367818	-9.883637E-5	20.873413
209.075180	-2.980900	3.730000	-11.118000	21.383848	-9.811048E-5	20.879020
210.069991	-3.027100	3.729800	-11.289000	21.369308	-9.751657E-5	20.880120
211.073938	-2.995200	3.729000	-11.169000	21.366541	-0.000100	20.874032
212.071095	-2.992000	3.729200	-11.157000	21.383804	-0.000101	20.883717
213.071731	-3.000900	3.728100	-11.187000	21.407778	-9.962825E-5	20.880677
214.073983	-3.013500	3.727600	-11.233000	21.382476	-9.771454E-5	20.882863
215.071555	-3.014400	3.728400	-11.238000	21.368418	-0.000100	20.869747
216.075290	-3.006700	3.728500	-11.209000	21.372633	-0.000102	20.880601
217.071938	-3.009300	3.727500	-11.217000	21.399425	-0.000101	20.886070
218.073044	-3.000300	3.729200	-11.188000	21.395710	-9.929830E-5	20.868129
219.072664	-2.997000	3.727600	-11.171000	21.399975	-0.000101	20.869078
220.071865	-3.006100	3.727200	-11.204000	21.407464	-9.995820E-5	20.849544
221.074848	-3.007600	3.726900	-11.207000	21.440332	-9.976023E-5	20.877214
222.073562	-3.009000	3.727700	-11.216000	21.410079	-0.000101	20.885350
223.073786	-3.025000	3.726200	-11.271000	21.413049	-9.900134E-5	20.875994
224.076012	-2.997900	3.727100	-11.172000	21.422173	-0.000103	20.867105
225.075407	-2.996800	3.726000	-11.165000	21.409005	-0.000100	20.886645
226.075614	-3.014600	3.725400	-11.229000	21.405745	-0.000102	20.864894
227.082165	-2.987200	3.726200	-11.130000	21.440806	-0.000102	20.882429
228.075674	-3.005500	3.724100	-11.192000	21.434172	-0.000103	20.861568
229.077102	-3.014200	3.724200	-11.225000	21.439663	-0.000101	20.874648
230.080745	-2.976200	3.724800	-11.084000	21.443852	-0.000104	20.867460
231.077124	-3.012500	3.724100	-11.218000	21.425743	-0.000103	20.865462
232.083324	-2.956000	3.726100	-11.013000	21.444503	-0.000102	20.857681
233.083477	-2.980700	3.725300	-11.104000	21.464399	-0.000100	20.883750
234.082918	-3.003600	3.723700	-11.182000	21.433647	-0.000102	20.857250
235.083797	-3.006200	3.723000	-11.191000	21.448895	-0.000102	20.857807
236.081913	-3.004600	3.723600	-11.187000	21.446873	-0.000102	20.872853
237.086776	-3.008500	3.723900	-11.202000	21.452426	-0.000101	20.868926
238.086243	-3.018300	3.722300	-11.235000	21.481162	-0.000102	20.864488
239.084083	-3.023100	3.721100	-11.249000	21.464204	-0.000102	20.856530
240.089571	-3.010800	3.722600	-11.207000	21.474655	-0.000102	20.858451
241.086732	-3.016700	3.721200	-11.224000	21.475273	-0.000104	20.858122
242.087481	-2.999200	3.722700	-11.164000	21.478395	-0.000102	20.859823
243.089527	-3.006100	3.722100	-11.188000	21.475045	-0.000105	20.862161
244.085863	-3.003800	3.720900	-11.176000	21.481206	-0.000103	20.848411
245.087018	-2.999300	3.721000	-11.159000	21.506194	-0.000106	20.864405
246.088219	-2.997400	3.721200	-11.152000	21.483966	-0.000104	20.842638
247.088692	-3.016600	3.720300	-11.222000	21.487156	-0.000102	20.865270
248.090952	-3.004800	3.720100	-11.177000	21.504436	-0.000104	20.858853
249.089702	-2.980400	3.719800	-11.085000	21.472907	-0.000105	20.826358
250.086513	-3.026000	3.719800	-11.255000	21.492911	-0.000103	20.856330
251.091682	-3.019000	3.718500	-11.225000	21.503846	-0.000106	20.865849
252.089214	-2.999500	3.719100	-11.155000	21.498514	-0.000106	20.842023
253.089608	-3.013100	3.717700	-11.200000	21.510860	-0.000106	20.848212
254.088633	-3.004600	3.719800	-11.176000	21.520297	-0.000106	20.844853
255.089810	-3.006000	3.719300	-11.179000	21.522301	-0.000106	20.812720
256.090095	-2.990400	3.718800	-11.119000	21.518673	-0.000107	20.857926
257.089980	-3.005700	3.718000	-11.174000	21.531077	-0.000107	20.850898
258.091919	-3.035400	3.717700	-11.284000	21.534513	-0.000107	20.849120
259.090581	-3.003800	3.718200	-11.168000	21.508216	-0.000106	20.846989
260.091743	-3.007800	3.717100	-11.178000	21.535030	-0.000108	20.853431
261.090043	-3.029800	3.717300	-11.260000	21.533804	-0.000106	20.838454
262.091174	-3.006800	3.715900	-11.172000	21.531131	-0.000106	20.835779
263.089316	-3.030000	3.715600	-11.258000	21.542250	-0.000106	20.829836
264.094194	-2.999600	3.715300	-11.144000	21.538781	-0.000107	20.820202
265.091964	-2.970700	3.717800	-11.044000	21.538807	-0.000110	20.838244
266.093132	-3.013200	3.715100	-11.194000	21.548808	-0.000110	20.841140
267.093292	-2.997500	3.714900	-11.135000	21.556805	-0.000107	20.834918
268.094402	-2.998000	3.715300	-11.137000	21.553015	-0.000109	20.836815
269.096066	-2.981300	3.716000	-11.077000	21.556831	-0.000109	20.850116
270.090811	-2.999000	3.715300	-11.142000	21.556925	-0.000109	20.822236
271.092946	-3.011200	3.714300	-11.184000	21.568196	-0.000110	20.810755
272.094323	-3.008600	3.714100	-11.173000	21.556899	-0.000111	20.832641
273.095103	-3.000200	3.713800	-11.141000	21.587344	-0.000110	20.823752
274.097911	-3.027600	3.712500	-11.239000	21.555066	-0.000109	20.827962
275.098118	-3.004400	3.712600	-11.154000	21.576641	-0.000110	20.811620
276.096395	-2.985700	3.714100	-11.088000	21.588961	-0.000109	20.826318
277.097818	-3.001000	3.712600	-11.141000	21.577531	-0.000111	20.821519
278.097210	-2.990300	3.712400	-11.101000	21.592423	-0.000110	20.815558
279.097603	-2.987900	3.713600	-11.095000	21.596629	-0.000110	20.838733
280.099913	-3.013000	3.712200	-11.184000	21.591001	-0.000110	20.816980
281.094719	-2.998400	3.712800	-11.131000	21.601747	-0.000110	20.807345
282.095324	-2.994800	3.710600	-11.112000	21.609252	-0.000111	20.814381
283.094007	-3.003200	3.710700	-11.143000	21.615911	-0.000111	20.819148
284.096068	-2.987600	3.710700	-11.085000	21.619897	-0.000110	20.822663
285.101359	-3.000800	3.711900	-11.137000	21.622816	-0.000110	20.808988
286.097627	-2.988300	3.709700	-11.085000	21.621724	-0.000113	20.815482
287.098870	-3.001200	3.709900	-11.133000	21.624971	-0.000110	20.827741
288.097867	-3.008700	3.711200	-11.165000	21.625565	-0.000111	20.816481
289.099176	-3.014600	3.711000	-11.186000	21.607010	-0.000110	20.819250
290.100750	-3.016800	3.709800	-11.191000	21.613050	-0.000112	20.830510
291.098870	-2.992200	3.711000	-11.103000	21.616739	-0.000110	20.828038
292.099502	-2.997800	3.708900	-11.118000	21.639066	-0.000112	20.813397
293.098837	-2.998000	3.708800	-11.117000	21.641935	-0.000110	20.812000
294.098831	-3.001300	3.707900	-11.127000	21.647747	-0.000111	20.799799
295.100714	-2.986900	3.709300	-11.079000	21.648720	-0.000111	20.805040
296.100898	-2.989800	3.708700	-11.087000	21.640463	-0.000110	20.801992
297.103495	-2.988400	3.708000	-11.081000	21.663914	-0.000112	20.810288
298.100796	-3.007900	3.707400	-11.150000	21.639396	-0.000112	20.800450
299.098645	-2.997100	3.707900	-11.112000	21.667628	-0.000111	20.812583
300.103041	-2.991900	3.706900	-11.090000	21.694117	-0.000111	20.800685
301.100335	-2.994900	3.706900	-11.101000	21.661943	-0.000110	20.804522
302.101205	-2.983300	3.706700	-11.057000	21.680851	-0.000112	20.819651
303.100948	-3.009800	3.707200	-11.157000	21.674262	-0.000112	20.818272
304.099146	-3.018000	3.706100	-11.184000	21.662847	-0.000114	20.791677
305.106305	-2.993100	3.705700	-11.091000	21.678052	-0.000113	20.801677
306.101189	-2.996200	3.706600	-11.105000	21.664666	-0.000115	20.812463
307.102113	-2.972000	3.705700	-11.013000	21.660427	-0.000112	20.816282
308.099681	-2.998400	3.705800	-11.111000	21.656612	-0.000113	20.803929
309.101806	-2.966800	3.705800	-10.993000	21.681792	-0.000112	20.803049
310.104249	-2.995300	3.703800	-11.093000	21.685539	-0.000114	20.785462
311.101199	-3.000800	3.705800	-11.120000	21.676131	-0.000110	20.784582
312.100949	-2.967800	3.705800	-10.997000	21.691072	-0.000115	20.789577
313.098689	-3.001400	3.704600	-11.118000	21.697061	-0.000115	20.794623
314.100081	-2.997800	3.705000	-11.106000	21.695235	-0.000114	20.811287
315.101968	-3.011000	3.702900	-11.149000	21.712334	-0.000114	20.790468
316.100770	-3.001100	3.703600	-11.114000	21.713517	-0.000115	20.806824
317.100690	-3.010800	3.702100	-11.146000	21.726454	-0.000115	20.805072
318.101744	-2.996600	3.704200	-11.099000	21.714837	-0.000116	20.801033
319.101526	-2.974000	3.704200	-11.016000	21.709474	-0.000116	20.819373
320.100068	-2.997000	3.702500	-11.095000	21.713011	-0.000117	20.821016
321.101720	-2.988300	3.702400	-11.062000	21.750041	-0.000116	20.800229
322.100866	-3.004800	3.701800	-11.122000	21.726548	-0.000116	20.800899
323.100477	-3.030900	3.700100	-11.214000	21.720598	-0.000116	20.795893
324.102631	-3.011400	3.701600	-11.145000	21.719890	-0.000117	20.784752
325.102962	-2.989500	3.702300	-11.066000	21.725846	-0.000117	20.798300
326.103894	-2.972400	3.701600	-11.002000	21.729510	-0.000115	20.780630
327.105119	-3.000300	3.700900	-11.103000	21.735151	-0.000116	20.782009
328.106401	-2.996700	3.700300	-11.088000	21.750753	-0.000117	20.792408
329.109823	-3.014900	3.699800	-11.153000	21.737835	-0.000117	20.815514
330.105476	-2.993100	3.701000	-11.076000	21.749509	-0.000117	20.790688
331.109017	-2.990300	3.698700	-11.060000	21.746735	-0.000118	20.775584
332.108858	-2.998500	3.699500	-11.092000	21.765313	-0.000117	20.769995
333.107343	-3.023200	3.699600	-11.184000	21.769595	-0.000117	20.784238
334.107393	-2.995300	3.699100	-11.079000	21.773208	-0.000118	20.785484
335.104398	-3.016600	3.698600	-11.157000	21.750815	-0.000116	20.780615
336.106772	-2.995600	3.699100	-11.080000	21.767516	-0.000118	20.770777
337.110739	-3.007000	3.698500	-11.120000	21.785992	-0.000119	20.777416
338.106296	-2.992600	3.698900	-11.069000	21.767736	-0.000118	20.786171
339.107342	-3.001000	3.697200	-11.094000	21.772101	-0.000119	20.778212
340.107786	-2.976800	3.700100	-11.013000	21.758102	-0.000119	20.765623
341.107651	-3.018800	3.696900	-11.158000	21.776105	-0.000119	20.794073
342.107069	-3.009200	3.697800	-11.126000	21.764152	-0.000119	20.769308
343.106608	-3.005900	3.696800	-11.112000	21.799792	-0.000119	20.769890
344.106038	-3.001700	3.697400	-11.098000	21.780614	-0.000119	20.772033
345.107422	-3.008700	3.696700	-11.121000	21.783898	-0.000118	20.769156
346.105943	-2.997200	3.697300	-11.080000	21.787984	-0.000119	20.775143
347.110196	-3.020500	3.696800	-11.165000	21.789948	-0.000119	20.763357
348.106011	-3.001900	3.696000	-11.094000	21.811317	-0.000121	20.765779
349.106362	-2.969000	3.696800	-10.974000	21.823161	-0.000119	20.771469
350.109072	-3.003600	3.694500	-11.096000	21.822484	-0.000118	20.756567
351.107859	-3.033800	3.694800	-11.209000	21.810717	-0.000119	20.775609
352.109381	-3.002700	3.695000	-11.094000	21.820014	-0.000120	20.768320
353.107429	-2.990000	3.695100	-11.047000	21.796700	-0.000121	20.753993
354.107270	-3.005100	3.693700	-11.099000	21.811013	-0.000121	20.765949
355.109863	-2.986200	3.694800	-11.032000	21.809372	-0.000121	20.756719
356.109310	-3.010700	3.694400	-11.122000	21.812511	-0.000121	20.768870
357.109379	-2.995900	3.694600	-11.068000	21.829995	-0.000120	20.752230
358.110595	-2.992100	3.693200	-11.049000	21.821631	-0.000121	20.753816
359.108888	-3.005600	3.693800	-11.102000	21.820564	-0.000122	20.772663
360.112117	-3.009700	3.692900	-11.114000	21.832787	-0.000121	20.762137
361.108413	-3.008600	3.692800	-11.110000	21.831883	-0.000120	20.758387
362.109927	-2.984700	3.691300	-11.016000	21.839936	-0.000121	20.757913
363.113678	-2.991400	3.692500	-11.045000	21.833557	-0.000122	20.753899
364.112080	-2.995400	3.692100	-11.058000	21.848641	-0.000122	20.773264
365.111103	-2.991600	3.691200	-11.042000	21.854976	-0.000122	20.761587
366.111210	-3.001400	3.691200	-11.077000	21.855898	-0.000122	20.753501
367.112707	-3.004600	3.690100	-11.085000	21.868291	-0.000123	20.755948
368.114812	-3.010100	3.690100	-11.106000	21.852159	-0.000122	20.747387
369.112967	-2.997000	3.689500	-11.056000	21.873136	-0.000121	20.758901
370.112842	-2.990600	3.691800	-11.039000	21.862216	-0.000123	20.750815
371.114677	-3.003500	3.690800	-11.085000	21.869582	-0.000124	20.774310
372.115020	-3.005000	3.690100	-11.087000	21.883211	-0.000122	20.757606
373.115966	-3.007900	3.688900	-11.094000	21.862103	-0.000124	20.756393
374.119231	-2.999900	3.688100	-11.063000	21.881949	-0.000120	20.758713
375.113482	-3.011200	3.688500	-11.106000	21.884046	-0.000123	20.739949
376.117632	-2.998900	3.689300	-11.063000	21.886881	-0.000123	20.771711
377.113801	-2.988000	3.688900	-11.022000	21.898257	-0.000125	20.765080
378.112730	-2.974400	3.689800	-10.974000	21.880358	-0.000123	20.764233
379.118286	-3.010800	3.687200	-11.101000	21.892370	-0.000126	20.753497
380.114919	-2.984500	3.687900	-11.006000	21.877136	-0.000125	20.745835
381.114403	-3.015100	3.686600	-11.114000	21.906791	-0.000123	20.740905
382.114655	-2.995000	3.686900	-11.041000	21.905659	-0.000124	20.764903
383.112859	-2.994900	3.687500	-11.043000	21.913719	-0.000128	20.763487
384.115519	-3.001000	3.686300	-11.061000	21.910320	-0.000125	20.758188
385.113992	-3.010800	3.686500	-11.098000	21.911792	-0.000124	20.758713
386.118141	-2.979300	3.686300	-10.981000	21.897910	-0.000127	20.745292
387.116570	-3.002100	3.684000	-11.059000	21.910440	-0.000126	20.750247
388.115724	-2.997100	3.685600	-11.045000	21.910100	-0.000124	20.730465
389.117850	-3.002000	3.684900	-11.061000	21.918170	-0.000126	20.736174
390.118273	-2.989000	3.685800	-11.015000	21.941457	-0.000128	20.755217
391.120853	-2.980000	3.685100	-10.981000	21.938937	-0.000126	20.747004
392.123805	-3.015900	3.684300	-11.110000	21.924347	-0.000125	20.722441
393.119094	-2.997400	3.685100	-11.045000	21.922003	-0.000127	20.766090
394.121435	-2.994400	3.682800	-11.026000	21.945713	-0.000126	20.743829
395.119081	-3.022600	3.684400	-11.135000	21.952175	-0.000125	20.734650
396.119712	-2.996000	3.683200	-11.033000	21.946111	-0.000126	20.730002
397.119821	-2.981000	3.684100	-10.982000	21.928187	-0.000125	20.743355
398.118399	-2.997100	3.684100	-11.040000	21.934482	-0.000126	20.749657
399.123250	-2.975700	3.683200	-10.958000	21.925287	-0.000128	20.752781
400.122475	-3.005500	3.682900	-11.067000	21.957515	-0.000126	20.743315
401.120082	-2.983100	3.683000	-10.986000	21.952659	-0.000127	20.743196
402.121627	-2.989300	3.683000	-11.009000	21.957363	-0.000125	20.731309
403.119986	-2.990300	3.682200	-11.010000	21.960780	-0.000124	20.731884
404.122005	-3.000600	3.681900	-11.048000	21.959757	-0.000126	20.754095
405.122427	-3.021600	3.679900	-11.118000	21.970923	-0.000128	20.740141
406.123427	-2.991800	3.681600	-11.013000	21.965018	-0.000127	20.732333
407.122009	-2.997300	3.680600	-11.031000	21.958210	-0.000128	20.737372
408.122962	-2.998300	3.681400	-11.037000	21.969129	-0.000128	20.742613
409.121556	-3.007900	3.681400	-11.073000	21.958810	-0.000126	20.746034
410.125786	-2.994100	3.679700	-11.016000	21.985057	-0.000129	20.760454
411.122639	-2.989800	3.680500	-11.003000	21.993380	-0.000128	20.759777
412.122336	-3.010700	3.679200	-11.076000	21.978451	-0.000127	20.753367
413.127184	-2.963500	3.680700	-10.907000	21.976524	-0.000127	20.752860
414.124523	-2.974600	3.679600	-10.945000	22.003403	-0.000128	20.740887
415.126695	-2.991800	3.678100	-11.004000	22.019185	-0.000128	20.744832
416.126599	-2.990500	3.679400	-11.001000	21.985852	-0.000130	20.730903
417.124304	-2.981500	3.678800	-10.967000	22.005171	-0.000127	20.737441
418.125995	-3.004000	3.678900	-11.051000	22.007243	-0.000128	20.743782
419.122244	-3.003300	3.677500	-11.044000	22.006162	-0.000126	20.745545
420.123522	-3.009200	3.676400	-11.062000	22.002702	-0.000131	20.741133
421.130976	-2.994600	3.676300	-11.008000	22.014442	-0.000128	20.737238
422.123185	-3.006500	3.678000	-11.056000	22.020762	-0.000128	20.736927
423.124200	-3.016300	3.677000	-11.089000	22.027078	-0.000130	20.739931
424.125079	-3.019300	3.675600	-11.097000	22.016007	-0.000129	20.762514
425.125039	-2.999000	3.676800	-11.025000	22.023832	-0.000129	20.737155
426.130522	-2.980800	3.676500	-10.957000	22.035951	-0.000129	20.720837
427.128532	-2.981200	3.675300	-10.955000	22.031005	-0.000128	20.743388
428.125746	-3.004600	3.676000	-11.044000	22.031352	-0.000130	20.753693
429.127508	-3.011100	3.676000	-11.068000	22.037669	-0.000131	20.742946
430.129286	-3.010800	3.674900	-11.063000	22.039379	-0.000128	20.739442
431.129638	-3.022900	3.674800	-11.107000	22.038735	-0.000132	20.752549
432.131745	-2.998700	3.674900	-11.020000	22.049622	-0.000132	20.740213
433.126255	-3.003500	3.674300	-11.035000	22.044860	-0.000131	20.748249
434.127096	-3.017700	3.673400	-11.084000	22.066597	-0.000134	20.755311
435.126783	-3.003500	3.672900	-11.031000	22.038406	-0.000133	20.756013
436.129618	-3.000800	3.673100	-11.022000	22.050367	-0.000132	20.740959
437.129308	-3.006800	3.673700	-11.045000	22.058968	-0.000131	20.750044
438.129873	-3.000500	3.674200	-11.024000	22.068940	-0.000132	20.764769
439.129932	-2.988900	3.672600	-10.976000	22.071460	-0.000133	20.747377
440.126756	-2.972600	3.672800	-10.916000	22.074674	-0.000135	20.754388
441.126723	-2.999700	3.672100	-11.014000	22.087259	-0.000132	20.749918
442.129747	-3.038100	3.671300	-11.152000	22.057912	-0.000133	20.734288
443.127924	-2.988500	3.671500	-10.971000	22.072873	-0.000134	20.741205
444.128271	-2.990200	3.671400	-10.978000	22.085433	-0.000133	20.756151
445.127714	-2.992500	3.671600	-10.986000	22.112650	-0.000132	20.745940
446.131629	-3.000500	3.670300	-11.012000	22.083065	-0.000136	20.766583
447.134094	-2.993800	3.671100	-10.990000	22.075234	-0.000135	20.748785
448.130570	-2.987400	3.671800	-10.967000	22.080824	-0.000135	20.748691
449.129201	-2.993900	3.669700	-10.985000	22.097021	-0.000134	20.758742
450.133503	-3.002800	3.669700	-11.019000	22.097097	-0.000136	20.764509
451.130476	-2.992000	3.668500	-10.975000	22.106247	-0.000134	20.749487
452.129447	-2.978700	3.668600	-10.927000	22.099085	-0.000136	20.741368
453.132074	-2.973700	3.669800	-10.912000	22.111797	-0.000132	20.761682
454.130759	-2.974800	3.669700	-10.916000	22.102571	-0.000137	20.753393
455.132818	-2.981500	3.669100	-10.938000	22.120069	-0.000136	20.749100
456.131820	-2.978600	3.667400	-10.923000	22.119432	-0.000135	20.760791
457.132822	-2.987500	3.667900	-10.957000	22.115984	-0.000135	20.756864
458.134951	-2.977900	3.668700	-10.923000	22.113344	-0.000135	20.763231
459.131622	-2.983700	3.667000	-10.940000	22.119451	-0.000134	20.758438
460.135066	-2.972600	3.668000	-10.902000	22.137972	-0.000134	20.746635
461.130890	-2.989800	3.665800	-10.959000	22.137245	-0.000136	20.761555
462.131205	-2.983700	3.667600	-10.942000	22.138539	-0.000136	20.752893
463.133618	-2.996800	3.666900	-10.988000	22.150658	-0.000135	20.745585
464.128619	-2.995200	3.665900	-10.979000	22.164670	-0.000137	20.769098
465.132161	-3.009400	3.666000	-11.032000	22.139714	-0.000137	20.747905
466.131458	-3.010000	3.664600	-11.029000	22.152653	-0.000136	20.752325
467.133695	-3.008400	3.664300	-11.023000	22.145542	-0.000138	20.754214
468.134926	-3.006600	3.664600	-11.017000	22.179362	-0.000136	20.758203
469.131595	-2.988000	3.664900	-10.949000	22.179793	-0.000139	20.746780
470.132943	-3.022400	3.663400	-11.071000	22.165643	-0.000137	20.749208
471.136006	-2.990000	3.665300	-10.958000	22.164884	-0.000137	20.774528
472.137164	-2.973700	3.664200	-10.896000	22.175031	-0.000138	20.748177
473.136281	-2.966500	3.664600	-10.869000	22.175082	-0.000139	20.757711
474.141670	-2.990000	3.663100	-10.951000	22.168976	-0.000136	20.757762
475.138296	-3.001800	3.662800	-10.994000	22.180910	-0.000137	20.761649
476.137875	-2.973600	3.662800	-10.890000	22.199057	-0.000137	20.765120
477.135279	-2.995200	3.662300	-10.969000	22.171818	-0.000139	20.730734
478.139248	-3.007500	3.661700	-11.012000	22.171969	-0.000138	20.745585
479.138908	-2.967800	3.663300	-10.871000	22.188993	-0.000136	20.753147
480.138587	-2.994600	3.660600	-10.960000	22.167732	-0.000139	20.769319
481.138545	-2.994900	3.661300	-10.964000	22.199683	-0.000137	20.760056
482.137913	-2.985200	3.660800	-10.927000	22.209237	-0.000136	20.765356
483.138865	-2.997400	3.660400	-10.971000	22.209060	-0.000139	20.739099
484.142271	-2.990600	3.660200	-10.945000	22.210904	-0.000139	20.753747
485.138495	-3.011600	3.660300	-11.022000	22.204249	-0.000137	20.767473
486.140508	-2.996100	3.660300	-10.966000	22.215835	-0.000140	20.772910
487.139275	-3.012000	3.657800	-11.017000	22.201653	-0.000139	20.774832
488.140068	-2.994700	3.660200	-10.959000	22.228401	-0.000137	20.779327
489.147124	-2.972500	3.659600	-10.877000	22.237322	-0.000139	20.784467
490.141098	-3.007400	3.657500	-10.999000	22.223293	-0.000139	20.750030
491.141892	-2.990000	3.659800	-10.942000	22.229398	-0.000139	20.767998
492.148895	-3.002900	3.658900	-10.986000	22.245897	-0.000139	20.751800
493.141010	-2.998200	3.658000	-10.967000	22.246819	-0.000139	20.766948
494.143269	-3.007800	3.656700	-10.998000	22.243081	-0.000139	20.781224
495.144067	-3.004500	3.657600	-10.989000	22.247267	-0.000140	20.775458
496.141548	-3.005800	3.657700	-10.993000	22.257389	-0.000141	20.744814
497.140421	-2.988200	3.657000	-10.927000	22.250058	-0.000139	20.770665
498.142995	-2.980600	3.657900	-10.902000	22.258701	-0.000139	20.757034
499.143130	-3.009600	3.656100	-11.002000	22.268114	-0.000140	20.786374
500.145633	-3.001800	3.655300	-10.972000	22.253366	-0.000138	20.773977
501.143083	-2.964300	3.656800	-10.839000	22.258322	-0.000141	20.760922
502.145893	-3.017200	3.654200	-11.025000	22.253196	-0.000141	20.782816
503.144292	-3.012900	3.655000	-11.011000	22.237561	-0.000140	20.761946
504.146647	-2.999600	3.655500	-10.963000	22.263082	-0.000139	20.774224
505.146344	-3.014800	3.654300	-11.016000	22.274795	-0.000140	20.775994
506.143878	-2.973300	3.654200	-10.863000	22.291520	-0.000139	20.772352
507.145267	-2.986100	3.654300	-10.911000	22.290877	-0.000142	20.784984
508.145657	-3.009800	3.652400	-10.992000	22.276974	-0.000141	20.764899
509.148254	-3.001500	3.652200	-10.961000	22.267648	-0.000139	20.781166
510.152100	-2.992700	3.652900	-10.931000	22.293346	-0.000141	20.781293
511.149542	-3.003200	3.652700	-10.969000	22.283806	-0.000141	20.765102
512.148306	-2.980200	3.652300	-10.884000	22.300600	-0.000138	20.800885
513.149671	-3.010500	3.651400	-10.992000	22.297217	-0.000141	20.766202
514.148642	-2.997700	3.652200	-10.947000	22.291282	-0.000142	20.767846
515.148327	-2.997700	3.650600	-10.943000	22.296100	-0.000143	20.783102
516.150748	-3.015900	3.650900	-11.009000	22.299718	-0.000141	20.769181
517.146767	-3.017400	3.651000	-11.015000	22.331257	-0.000142	20.777054
518.152656	-3.018800	3.650500	-11.019000	22.298399	-0.000141	20.787775
519.149576	-3.021700	3.650100	-11.028000	22.297857	-0.000142	20.782965
520.151955	-3.012400	3.649400	-10.993000	22.306355	-0.000143	20.790052
521.157645	-2.998500	3.650400	-10.945000	22.332178	-0.000143	20.774658
522.150201	-2.979200	3.650100	-10.873000	22.336321	-0.000142	20.790660
523.150149	-3.016700	3.647600	-11.002000	22.340683	-0.000142	20.781278
524.149239	-3.005700	3.648900	-10.967000	22.321547	-0.000142	20.797204
525.147781	-3.013200	3.648700	-10.992000	22.346044	-0.000143	20.774317
526.149606	-3.002000	3.648700	-10.952000	22.342111	-0.000144	20.793139
527.149446	-3.031600	3.648100	-11.059000	22.344088	-0.000141	20.811240
528.149360	-3.004800	3.649200	-10.964000	22.369727	-0.000141	20.782385
529.152662	-2.994100	3.648100	-10.922000	22.341544	-0.000143	20.793045
530.149456	-3.001300	3.648000	-10.948000	22.354506	-0.000144	20.803179
531.149483	-2.972300	3.648100	-10.842000	22.374740	-0.000143	20.807794
532.150307	-3.005700	3.646900	-10.960000	22.383787	-0.000145	20.796939
533.148883	-2.991800	3.646700	-10.909000	22.359147	-0.000145	20.800714
534.150845	-2.986200	3.646200	-10.887000	22.364778	-0.000144	20.806354
535.153250	-3.035500	3.645000	-11.064000	22.370681	-0.000147	20.816531
536.158176	-3.013800	3.646200	-10.987000	22.373258	-0.000145	20.785922
537.151396	-3.021400	3.644700	-11.011000	22.357607	-0.000146	20.803440
538.154581	-2.994500	3.645000	-10.914000	22.382128	-0.000145	20.799071
539.153922	-3.017000	3.643400	-10.990000	22.381705	-0.000146	20.801018
540.154603	-2.999800	3.643100	-10.927000	22.386939	-0.000143	20.796302
541.154955	-2.997200	3.642700	-10.916000	22.390853	-0.000146	20.809231
542.159667	-3.003300	3.644000	-10.943000	22.411271	-0.000146	20.796961
543.155106	-3.004100	3.642700	-10.942000	22.409945	-0.000147	20.795159
544.154569	-3.015400	3.642100	-10.980000	22.376099	-0.000147	20.810577
545.155353	-2.989100	3.643000	-10.887000	22.393474	-0.000146	20.806165
546.155719	-3.000300	3.642400	-10.928000	22.395216	-0.000147	20.807910
547.162321	-3.016600	3.641600	-10.984000	22.397041	-0.000145	20.807841
548.156918	-2.997900	3.643200	-10.921000	22.419964	-0.000146	20.793812
549.157632	-3.011300	3.642200	-10.967000	22.426441	-0.000148	20.797453
550.157460	-2.965300	3.643000	-10.801000	22.431132	-0.000147	20.806893
551.160568	-2.976500	3.641500	-10.838000	22.415778	-0.000147	20.827078
552.163741	-2.988600	3.642200	-10.885000	22.408575	-0.000151	20.796157
553.158764	-2.997400	3.639900	-10.909000	22.433044	-0.000146	20.817816
554.161609	-2.990100	3.641500	-10.887000	22.444881	-0.000148	20.804540
555.163847	-2.995300	3.640600	-10.904000	22.430229	-0.000150	20.804091
556.162893	-2.996200	3.639700	-10.905000	22.449482	-0.000149	20.800613
557.160923	-3.007400	3.638900	-10.943000	22.461470	-0.000148	20.817834
558.164392	-2.996500	3.638200	-10.900000	22.441408	-0.000148	20.792527
559.161842	-3.014200	3.639000	-10.967000	22.448586	-0.000148	20.826268
560.163300	-2.985200	3.640300	-10.864000	22.461995	-0.000147	20.815040
561.164588	-3.018700	3.637900	-10.980000	22.455359	-0.000149	20.800334
562.164738	-2.996900	3.639200	-10.905000	22.458344	-0.000148	20.800005
563.166188	-2.982000	3.638400	-10.849000	22.471879	-0.000149	20.824465
564.166407	-2.996500	3.637900	-10.900000	22.455478	-0.000149	20.804247
565.165112	-3.024200	3.637700	-11.000000	22.462681	-0.000148	20.807667
566.164505	-3.005700	3.636000	-10.927000	22.469740	-0.000149	20.803831
567.167299	-2.988000	3.635600	-10.862000	22.489415	-0.000147	20.819742
568.170373	-2.968000	3.636300	-10.792000	22.488841	-0.000149	20.814899
569.168147	-2.998500	3.636700	-10.903000	22.462851	-0.000151	20.817321
570.165727	-3.009800	3.634400	-10.938000	22.485205	-0.000150	20.825482
571.174094	-2.985700	3.635100	-10.852000	22.469436	-0.000149	20.831027
572.171462	-2.989800	3.635700	-10.869000	22.466993	-0.000149	20.834744
573.167475	-3.001200	3.634500	-10.906000	22.485281	-0.000149	20.833619
574.172088	-3.000500	3.634500	-10.904000	22.489126	-0.000151	20.833677
575.171500	-3.002500	3.633600	-10.909000	22.488223	-0.000150	20.811909
576.171221	-2.998900	3.635000	-10.900000	22.503474	-0.000150	20.817226
577.172199	-2.986200	3.633500	-10.850000	22.486184	-0.000150	20.839265
578.172141	-2.996900	3.633200	-10.887000	22.485982	-0.000149	20.823416
579.174775	-2.983000	3.634300	-10.839000	22.503272	-0.000151	20.832196
580.171971	-2.985800	3.633000	-10.847000	22.507602	-0.000151	20.832265
581.172118	-2.986500	3.632700	-10.849000	22.522109	-0.000150	20.832095
582.175012	-2.997000	3.631600	-10.883000	22.516377	-0.000151	20.812130
583.170303	-2.964000	3.633400	-10.768000	22.538281	-0.000151	20.823636
584.170585	-2.996500	3.631300	-10.880000	22.527884	-0.000151	20.821758
585.179818	-2.987700	3.630100	-10.844000	22.524956	-0.000152	20.834947
586.169887	-3.004800	3.631100	-10.910000	22.531028	-0.000151	20.827278
587.172131	-2.997100	3.631000	-10.881000	22.535661	-0.000150	20.829073
588.173254	-3.020600	3.629900	-10.963000	22.523157	-0.000151	20.846420
589.175596	-3.013800	3.629400	-10.937000	22.537757	-0.000151	20.836388
590.172238	-3.000800	3.628900	-10.888000	22.529759	-0.000151	20.833593
591.174010	-2.985500	3.630700	-10.838000	22.554284	-0.000152	20.836344
592.180190	-2.970500	3.630800	-10.785000	22.556145	-0.000150	20.846268
593.176123	-2.999800	3.628600	-10.883000	22.524779	-0.000151	20.847097
594.178485	-2.988900	3.628900	-10.846000	22.541071	-0.000151	20.834017
595.180823	-3.006600	3.628000	-10.907000	22.552864	-0.000152	20.842508
596.174904	-2.999200	3.627900	-10.880000	22.568859	-0.000150	20.858527
597.176078	-2.985800	3.627900	-10.831000	22.564472	-0.000150	20.832797
598.179851	-3.000200	3.626400	-10.880000	22.565494	-0.000151	20.829554
599.174462	-3.020600	3.627100	-10.954000	22.560312	-0.000151	20.853286
600.182934	-2.967200	3.627300	-10.762000	22.552163	-0.000151	20.833745
601.177555	-2.995100	3.626600	-10.860000	22.572874	-0.000151	20.831729
602.180177	-2.975900	3.626700	-10.791000	22.567370	-0.000152	20.840441
603.177730	-3.005500	3.624600	-10.893000	22.569679	-0.000151	20.856504
604.179875	-2.991500	3.625100	-10.843000	22.577836	-0.000151	20.877000
605.183959	-2.991300	3.625600	-10.844000	22.569213	-0.000152	20.850821
606.182568	-2.985400	3.626100	-10.824000	22.600017	-0.000150	20.856544
607.182334	-2.994500	3.625000	-10.855000	22.574269	-0.000152	20.845454
608.181087	-2.989600	3.623600	-10.832000	22.596873	-0.000153	20.861929
609.183213	-2.993100	3.623300	-10.844000	22.587026	-0.000153	20.846377
610.180021	-2.984400	3.624300	-10.815000	22.611921	-0.000153	20.845233
611.180455	-3.000700	3.621500	-10.866000	22.588175	-0.000154	20.838519
612.182438	-3.007200	3.622600	-10.892000	22.598091	-0.000155	20.865045
613.181847	-3.008000	3.624200	-10.901000	22.592663	-0.000153	20.862928
614.182931	-3.007800	3.621800	-10.893000	22.614212	-0.000153	20.866967
615.184255	-2.991200	3.621500	-10.831000	22.624576	-0.000154	20.844158
616.181300	-2.999400	3.623000	-10.866000	22.616908	-0.000155	20.854021
617.182241	-3.015600	3.620800	-10.917000	22.610349	-0.000154	20.846504
618.187507	-3.013500	3.619900	-10.908000	22.600737	-0.000152	20.857264
619.180859	-2.990600	3.621000	-10.827000	22.617678	-0.000155	20.862852
620.185957	-2.995600	3.621600	-10.847000	22.631464	-0.000153	20.855798
621.188193	-2.991800	3.619800	-10.828000	22.624425	-0.000154	20.858230
622.184441	-3.010000	3.621300	-10.899000	22.627746	-0.000155	20.876728
623.184155	-2.997700	3.619700	-10.849000	22.640704	-0.000155	20.855096
624.184189	-3.014400	3.618300	-10.906000	22.628168	-0.000155	20.865773
625.186948	-2.990100	3.618800	-10.820000	22.628472	-0.000154	20.860861
626.191479	-3.000400	3.619700	-10.860000	22.641127	-0.000154	20.866424
627.187533	-2.990100	3.618300	-10.818000	22.636361	-0.000155	20.863547
628.183483	-3.000200	3.617200	-10.851000	22.661830	-0.000155	20.877677
629.188201	-2.990100	3.618200	-10.818000	22.661382	-0.000153	20.850677
630.188986	-2.996100	3.617000	-10.836000	22.668746	-0.000155	20.866113
631.191316	-3.011600	3.615900	-10.889000	22.664291	-0.000155	20.875874
632.190915	-2.971100	3.617300	-10.746000	22.665093	-0.000156	20.888531
633.187769	-3.000100	3.616500	-10.849000	22.657063	-0.000154	20.882385
634.191666	-2.992000	3.615500	-10.816000	22.679236	-0.000154	20.884206
635.189826	-3.021500	3.615100	-10.922000	22.667434	-0.000155	20.857687
636.191345	-2.977100	3.615100	-10.761000	22.689347	-0.000154	20.885798
637.190042	-3.030900	3.614600	-10.955000	22.673512	-0.000157	20.879895
638.191486	-3.013100	3.614400	-10.890000	22.690319	-0.000156	20.858798
639.194331	-2.982400	3.613800	-10.777000	22.676913	-0.000156	20.865758
640.194262	-3.004700	3.612200	-10.852000	22.681831	-0.000156	20.891545
641.195308	-3.004900	3.614100	-10.858000	22.694612	-0.000154	20.888701
642.199858	-2.984900	3.613300	-10.785000	22.665711	-0.000156	20.873978
643.193144	-2.999200	3.614300	-10.839000	22.693495	-0.000155	20.889005
644.193882	-3.022100	3.610900	-10.912000	22.699176	-0.000154	20.897539
645.193187	-3.003500	3.612100	-10.848000	22.697755	-0.000156	20.880471
646.193310	-2.996200	3.611300	-10.820000	22.700646	-0.000157	20.898064
647.193306	-3.017700	3.611900	-10.898000	22.709767	-0.000155	20.892975
648.195056	-3.010500	3.612200	-10.874000	22.713138	-0.000156	20.886395
649.194334	-2.991300	3.611400	-10.802000	22.680400	-0.000153	20.894853
650.195832	-2.995700	3.610300	-10.814000	22.709723	-0.000156	20.888190
651.197341	-3.008800	3.610000	-10.861000	22.715411	-0.000156	20.863069
652.201038	-3.002300	3.610600	-10.839000	22.716325	-0.000155	20.909974
653.197052	-2.982900	3.610200	-10.767000	22.722909	-0.000157	20.902345
654.199266	-2.985000	3.610800	-10.777000	22.723263	-0.000157	20.874727
655.200119	-3.024200	3.609200	-10.914000	22.721937	-0.000158	20.889519
656.201068	-2.998900	3.608900	-10.822000	22.727693	-0.000157	20.876793
657.206867	-2.976200	3.607800	-10.738000	22.716610	-0.000157	20.907890
658.201670	-2.993100	3.607900	-10.798000	22.753835	-0.000156	20.876902
659.196753	-2.994300	3.609000	-10.804000	22.749626	-0.000158	20.912511
660.200427	-3.010400	3.606300	-10.855000	22.734663	-0.000155	20.899421
661.198806	-3.012300	3.607400	-10.865000	22.737597	-0.000158	20.906626
662.203191	-2.976400	3.606100	-10.732000	22.740242	-0.000155	20.908802
663.197523	-3.009100	3.606000	-10.850000	22.741340	-0.000157	20.909428
664.198828	-2.994200	3.606100	-10.796000	22.763385	-0.000156	20.885993
665.205350	-3.011600	3.605500	-10.857000	22.728408	-0.000155	20.912120
666.201172	-3.008400	3.605600	-10.847000	22.753376	-0.000157	20.894933
667.201617	-2.982200	3.605800	-10.753000	22.769047	-0.000156	20.894509
668.203418	-2.969500	3.606100	-10.707000	22.769072	-0.000155	20.904017
669.203391	-2.978100	3.604900	-10.734000	22.772006	-0.000157	20.910749
670.203346	-2.992300	3.604200	-10.785000	22.772006	-0.000156	20.913593
671.202259	-2.985100	3.604100	-10.759000	22.769318	-0.000156	20.911849
672.202148	-3.009300	3.602400	-10.840000	22.761795	-0.000157	20.914744
673.201857	-2.969900	3.604200	-10.703000	22.766326	-0.000155	20.896999
674.199388	-2.979700	3.604300	-10.739000	22.786484	-0.000158	20.909131
675.202189	-3.002100	3.602800	-10.816000	22.774550	-0.000158	20.902392
676.207101	-3.018500	3.601400	-10.869000	22.795326	-0.000158	20.916565
677.204059	-3.016800	3.601200	-10.863000	22.770113	-0.000158	20.912171
678.202349	-2.988200	3.602900	-10.765000	22.778615	-0.000156	20.907412
679.207500	-3.013400	3.601200	-10.851000	22.774940	-0.000157	20.905153
680.205139	-2.999000	3.600400	-10.797000	22.787348	-0.000156	20.902884
681.205422	-3.019700	3.599700	-10.869000	22.797649	-0.000158	20.911780
682.200482	-3.005400	3.600700	-10.821000	22.808030	-0.000157	20.897050
683.205333	-2.996900	3.599100	-10.785000	22.806028	-0.000156	20.903105
684.206466	-2.985900	3.601300	-10.752000	22.794094	-0.000158	20.892573
685.202409	-2.968100	3.599400	-10.682000	22.794101	-0.000157	20.900166
686.206790	-3.010300	3.598900	-10.833000	22.806729	-0.000156	20.905229
687.206787	-2.991700	3.597800	-10.762000	22.804167	-0.000156	20.905508
688.204363	-2.997900	3.598500	-10.787000	22.816763	-0.000158	20.893471
689.207529	-2.989100	3.597700	-10.753000	22.813084	-0.000158	20.900217
690.206013	-3.012600	3.596500	-10.834000	22.807101	-0.000155	20.894698
691.203547	-2.977500	3.598900	-10.714000	22.794668	-0.000157	20.884615
692.206544	-2.992700	3.598200	-10.768000	22.824733	-0.000155	20.894343
693.203943	-3.000700	3.596700	-10.792000	22.812308	-0.000156	20.897542
694.205187	-2.997900	3.595700	-10.778000	22.822052	-0.000156	20.887390
695.206625	-3.010900	3.595800	-10.826000	22.817066	-0.000157	20.886189
696.207197	-3.002200	3.595400	-10.793000	22.818656	-0.000156	20.872135
697.207637	-3.011700	3.595300	-10.827000	22.829423	-0.000157	20.906626
698.204391	-3.014800	3.595400	-10.838000	22.828975	-0.000157	20.902385
699.208567	-2.991400	3.593900	-10.750000	22.816466	-0.000154	20.889381
700.208623	-3.018100	3.594500	-10.848000	22.833657	-0.000156	20.889533
701.209131	-2.983100	3.595500	-10.725000	22.832111	-0.000155	20.892725
702.210175	-2.984500	3.594300	-10.726000	22.854457	-0.000155	20.870543
703.212704	-2.994400	3.593700	-10.759000	22.835897	-0.000156	20.891303
704.210223	-2.980700	3.594200	-10.712000	22.856849	-0.000156	20.862982
705.212024	-2.984900	3.591700	-10.720000	22.862579	-0.000155	20.876783
706.209865	-2.994200	3.592200	-10.755000	22.856249	-0.000156	20.884191
707.210203	-3.009300	3.592000	-10.809000	22.854475	-0.000154	20.884311
708.207592	-2.998100	3.591500	-10.767000	22.844695	-0.000156	20.884944
709.208252	-3.003300	3.590800	-10.784000	22.866044	-0.000155	20.873142
710.214246	-2.992300	3.591900	-10.747000	22.888180	-0.000154	20.859757
711.211525	-3.008500	3.591300	-10.803000	22.851170	-0.000156	20.864879
712.210912	-3.007200	3.590300	-10.796000	22.866991	-0.000153	20.882150
713.210111	-2.992900	3.590200	-10.745000	22.851997	-0.000156	20.884198
714.211257	-3.011200	3.591000	-10.812000	22.865791	-0.000155	20.880948
715.214237	-3.014800	3.589200	-10.820000	22.870354	-0.000154	20.861813
716.208806	-3.020700	3.588400	-10.838000	22.866138	-0.000154	20.860434
717.207694	-3.027600	3.589700	-10.866000	22.888863	-0.000153	20.868028
718.209909	-2.984100	3.589200	-10.710000	22.882602	-0.000153	20.860333
719.206591	-2.996400	3.589200	-10.753000	22.884300	-0.000154	20.855870
720.208504	-3.021500	3.587500	-10.839000	22.893311	-0.000156	20.855414
721.210831	-2.994600	3.587900	-10.743000	22.882974	-0.000155	20.873507
722.207886	-3.002700	3.587400	-10.771000	22.882230	-0.000152	20.877503
723.208798	-3.015100	3.585800	-10.811000	22.885492	-0.000154	20.835255
724.209359	-3.006500	3.587800	-10.786000	22.885095	-0.000154	20.884640
725.211060	-2.995400	3.586400	-10.742000	22.910728	-0.000154	20.884242
726.216044	-3.016300	3.586400	-10.817000	22.902184	-0.000153	20.865726
727.209311	-3.011200	3.585400	-10.795000	22.906917	-0.000155	20.879475
728.210667	-3.021200	3.584900	-10.830000	22.906140	-0.000156	20.873008
729.213329	-2.994300	3.585600	-10.736000	22.903477	-0.000155	20.865125
730.213030	-2.992500	3.584900	-10.727000	22.915208	-0.000154	20.855541
731.216903	-2.993700	3.584500	-10.730000	22.910425	-0.000154	20.846482
732.214561	-3.001100	3.584200	-10.756000	22.894333	-0.000155	20.845059
733.216137	-3.008500	3.583300	-10.778000	22.909308	-0.000154	20.850105
734.219136	-3.006100	3.583600	-10.772000	22.909680	-0.000155	20.846684
735.217175	-2.989200	3.583100	-10.710000	22.912191	-0.000154	20.866743
736.213866	-3.008600	3.581900	-10.775000	22.903950	-0.000153	20.867970
737.214734	-3.007200	3.583300	-10.775000	22.913094	-0.000157	20.835407
738.213001	-2.989300	3.582600	-10.708000	22.898864	-0.000155	20.842960
739.216313	-3.000800	3.582300	-10.749000	22.935331	-0.000155	20.871433
740.216534	-3.018500	3.582000	-10.812000	22.911794	-0.000155	20.863974
741.217069	-3.008400	3.581500	-10.774000	22.893860	-0.000155	20.855490
742.218625	-3.012000	3.581200	-10.785000	22.917719	-0.000157	20.840514
743.216060	-3.012600	3.581000	-10.787000	22.939623	-0.000155	20.846337
744.216555	-3.010700	3.580000	-10.777000	22.909944	-0.000156	20.847423
745.218104	-2.998900	3.580000	-10.735000	22.928004	-0.000154	20.843706
746.215263	-3.000000	3.580400	-10.739000	22.952336	-0.000155	20.845324
747.217951	-3.022900	3.578500	-10.816000	22.922325	-0.000157	20.838490
748.222991	-3.003300	3.579000	-10.748000	22.940833	-0.000156	20.834274
749.220205	-3.019500	3.580300	-10.810000	22.952083	-0.000156	20.852182
750.219191	-2.996500	3.578500	-10.722000	22.925454	-0.000156	20.832142
751.219278	-2.997200	3.578700	-10.726000	22.931335	-0.000155	20.840405
752.216470	-2.991900	3.577400	-10.702000	22.937462	-0.000156	20.858871
753.220008	-3.013800	3.576800	-10.778000	22.937589	-0.000155	20.834817
754.216103	-2.992100	3.576800	-10.701000	22.942195	-0.000156	20.838957
755.219916	-2.999800	3.577000	-10.729000	22.949496	-0.000156	20.854806
756.217866	-2.983300	3.576900	-10.670000	22.970446	-0.000155	20.856355
757.220196	-2.980000	3.575700	-10.654000	22.947029	-0.000154	20.817248
758.218335	-2.996500	3.576000	-10.714000	22.955750	-0.000156	20.842580
759.219473	-3.013900	3.574300	-10.772000	22.959334	-0.000154	20.828628
760.218085	-2.973600	3.576200	-10.633000	22.966288	-0.000156	20.828483
761.221894	-2.998200	3.575500	-10.719000	22.959164	-0.000154	20.844104
762.221729	-2.964400	3.576400	-10.601000	22.953781	-0.000155	20.850564
763.222586	-2.994300	3.574300	-10.702000	22.966533	-0.000155	20.830151
764.222198	-3.007100	3.572900	-10.744000	22.949225	-0.000154	20.858802
765.222634	-2.992000	3.573900	-10.692000	22.982075	-0.000155	20.815851
766.223759	-2.995900	3.574100	-10.707000	22.985987	-0.000156	20.842530
767.225210	-3.010400	3.573400	-10.756000	22.942202	-0.000155	20.836594
768.227048	-3.012800	3.572000	-10.761000	22.972989	-0.000154	20.814334
769.221862	-2.989300	3.574000	-10.682000	22.978618	-0.000155	20.804801
770.224894	-3.040500	3.571600	-10.859000	22.978321	-0.000155	20.827737
771.225292	-3.023100	3.570900	-10.793000	22.986941	-0.000154	20.823571
772.221883	-3.008500	3.569400	-10.737000	22.989806	-0.000155	20.841140
773.227006	-3.012500	3.569800	-10.753000	22.965323	-0.000155	20.826568
774.226072	-2.988800	3.571800	-10.674000	22.970511	-0.000156	20.828447
775.225092	-3.001100	3.570500	-10.715000	22.972422	-0.000154	20.827516
776.228166	-3.025900	3.569600	-10.800000	22.981345	-0.000156	20.820335
777.226697	-3.010200	3.569000	-10.743000	22.979131	-0.000155	20.829022
778.226961	-3.011100	3.569300	-10.747000	22.982418	-0.000155	20.835160
779.226144	-3.012900	3.568800	-10.750000	22.988122	-0.000153	20.823806
780.228126	-2.995300	3.568600	-10.688000	22.989795	-0.000154	20.835439
781.228837	-3.009300	3.568200	-10.737000	22.987750	-0.000153	20.811580
782.228911	-3.006400	3.567600	-10.725000	22.992819	-0.000156	20.824244
783.226825	-3.013000	3.567700	-10.748000	22.977844	-0.000154	20.825837
784.233337	-3.013300	3.567100	-10.747000	22.961711	-0.000155	20.817259
785.226454	-2.999900	3.567300	-10.701000	23.013446	-0.000154	20.820730
786.229501	-3.001000	3.567000	-10.703000	22.993476	-0.000153	20.810205
787.231601	-3.006300	3.565000	-10.717000	22.998266	-0.000152	20.815952
788.230098	-3.009700	3.565900	-10.731000	23.010935	-0.000153	20.837654
789.233090	-2.991100	3.566600	-10.667000	23.004191	-0.000153	20.822362
790.232842	-2.989000	3.565400	-10.656000	22.987331	-0.000155	20.832971
791.230356	-2.999400	3.565100	-10.692000	23.002059	-0.000152	20.808373
792.233106	-3.009400	3.564400	-10.726000	22.997031	-0.000153	20.835577
793.232740	-2.992900	3.564000	-10.666000	22.988216	-0.000153	20.825797
794.231703	-2.990000	3.565100	-10.659000	22.994513	-0.000153	20.806502
795.231019	-2.983300	3.564600	-10.633000	23.005751	-0.000155	20.818710
796.231102	-3.006700	3.564000	-10.714000	23.008237	-0.000153	20.820252
797.230922	-3.000700	3.563500	-10.692000	23.015285	-0.000155	20.807874
798.232707	-3.018000	3.561900	-10.748000	23.029362	-0.000153	20.817711
799.240075	-3.010800	3.561200	-10.721000	23.022155	-0.000153	20.810965
800.233987	-2.993500	3.561500	-10.661000	23.038252	-0.000153	20.809550
801.235127	-2.985400	3.562400	-10.634000	23.016004	-0.000155	20.807172
802.238775	-2.994600	3.561500	-10.665000	23.031985	-0.000153	20.799477
803.239233	-2.991800	3.560600	-10.652000	23.022249	-0.000155	20.830499
804.241537	-3.003100	3.560400	-10.690000	23.008753	-0.000154	20.805597
805.239213	-2.986600	3.559900	-10.631000	23.021184	-0.000153	20.800982
806.236263	-2.986500	3.560200	-10.631000	23.032068	-0.000156	20.789603
807.241579	-2.986200	3.560700	-10.632000	23.044422	-0.000155	20.809093
808.239287	-2.990800	3.559000	-10.643000	23.053547	-0.000155	20.794055
809.239450	-3.002700	3.559100	-10.686000	23.037747	-0.000156	20.792447
810.243163	-3.008100	3.558900	-10.705000	23.045343	-0.000155	20.804327
811.238945	-2.981300	3.559900	-10.612000	23.037122	-0.000154	20.798934
812.238950	-2.960400	3.559500	-10.537000	23.044177	-0.000155	20.788459
813.238035	-3.018000	3.558100	-10.737000	23.050480	-0.000153	20.802835
814.237502	-2.999100	3.556900	-10.667000	23.048815	-0.000154	20.794529
815.246658	-2.989900	3.558900	-10.640000	23.052821	-0.000154	20.813241
816.239859	-2.996600	3.557200	-10.658000	23.046810	-0.000153	20.794417
817.243383	-3.019100	3.556900	-10.737000	23.049794	-0.000153	20.795510
818.246001	-3.019900	3.555500	-10.736000	23.055599	-0.000155	20.806542
819.244290	-3.004800	3.554900	-10.681000	23.059493	-0.000152	20.790529
820.243086	-2.995700	3.555100	-10.649000	23.060956	-0.000154	20.803375
821.242753	-2.987500	3.554900	-10.619000	23.071381	-0.000155	20.803389
822.244349	-2.990700	3.554900	-10.631000	23.069040	-0.000152	20.790138
823.245531	-3.014700	3.553600	-10.713000	23.086802	-0.000153	20.793711
824.244808	-2.996300	3.553900	-10.647000	23.072241	-0.000155	20.802828
825.241184	-3.004800	3.553900	-10.678000	23.068379	-0.000152	20.789950
826.244961	-3.003300	3.552600	-10.669000	23.087011	-0.000153	20.794395
827.246859	-2.995200	3.553400	-10.642000	23.076879	-0.000154	20.799889
828.248935	-2.996700	3.554300	-10.650000	23.088016	-0.000153	20.791608
829.242553	-2.985800	3.552800	-10.607000	23.083985	-0.000154	20.789940
830.247734	-2.997700	3.552600	-10.649000	23.073574	-0.000157	20.781879
831.246047	-3.006600	3.552600	-10.681000	23.069340	-0.000155	20.779059
832.245931	-3.009200	3.550900	-10.685000	23.081998	-0.000154	20.769931
833.250180	-2.997000	3.551000	-10.641000	23.084855	-0.000153	20.787493
834.243865	-3.010700	3.551100	-10.690000	23.084281	-0.000151	20.789288
835.247199	-2.979400	3.551200	-10.579000	23.095399	-0.000154	20.774824
836.246547	-3.015300	3.550400	-10.705000	23.072881	-0.000153	20.768382
837.248555	-2.975700	3.551600	-10.567000	23.095341	-0.000154	20.794207
838.247919	-3.008100	3.548400	-10.673000	23.098112	-0.000155	20.788923
839.243430	-3.015500	3.549600	-10.703000	23.090895	-0.000151	20.773630
840.249210	-2.997200	3.549500	-10.638000	23.080611	-0.000153	20.794620
841.253767	-3.004100	3.549600	-10.663000	23.087185	-0.000151	20.789827
842.250206	-2.991800	3.548900	-10.617000	23.084548	-0.000152	20.782918
843.250289	-3.015200	3.547500	-10.696000	23.099091	-0.000155	20.795593
844.248183	-3.001600	3.547500	-10.647000	23.102107	-0.000154	20.781072
845.248047	-2.987600	3.547200	-10.597000	23.082182	-0.000153	20.763003
846.253353	-3.015700	3.548700	-10.701000	23.097805	-0.000151	20.802840
847.247730	-3.029600	3.546000	-10.742000	23.093337	-0.000152	20.774654
848.250282	-2.985100	3.546300	-10.585000	23.109306	-0.000151	20.787811
849.252287	-3.001000	3.547500	-10.646000	23.128013	-0.000154	20.769573
850.249298	-2.987200	3.546400	-10.592000	23.107413	-0.000152	20.779751
851.249671	-2.988100	3.545500	-10.593000	23.122776	-0.000152	20.756263
852.248575	-2.979000	3.546200	-10.563000	23.116216	-0.000153	20.788572
853.248326	-2.995900	3.545100	-10.619000	23.122462	-0.000151	20.782976
854.253271	-3.007100	3.544300	-10.657000	23.119850	-0.000153	20.768979
855.251933	-2.999600	3.543600	-10.628000	23.093799	-0.000153	20.760419
856.249639	-3.006900	3.543200	-10.653000	23.111459	-0.000149	20.783805
857.257222	-3.004100	3.543800	-10.645000	23.121244	-0.000151	20.777014
858.250106	-3.009400	3.542300	-10.658000	23.117257	-0.000151	20.794356
859.252814	-2.999900	3.542800	-10.627000	23.125857	-0.000152	20.759351
860.251973	-3.016300	3.542300	-10.683000	23.147826	-0.000153	20.761450
861.253926	-3.004800	3.543600	-10.647000	23.158235	-0.000154	20.789426
862.256843	-3.006900	3.541900	-10.649000	23.126236	-0.000154	20.784862
863.252064	-3.004300	3.541600	-10.639000	23.143820	-0.000154	20.768816
864.255938	-2.991100	3.541900	-10.593000	23.138243	-0.000154	20.779823
865.252162	-3.003800	3.541000	-10.635000	23.123498	-0.000151	20.776902
866.257451	-2.990300	3.541900	-10.590000	23.129220	-0.000154	20.765566
867.260555	-3.029000	3.539600	-10.721000	23.133612	-0.000151	20.756691
868.256255	-3.008600	3.540100	-10.650000	23.153071	-0.000152	20.757697
869.257992	-3.026900	3.540500	-10.716000	23.138749	-0.000152	20.764209
870.258395	-2.998400	3.539400	-10.612000	23.143607	-0.000153	20.764810
871.256515	-2.993300	3.540400	-10.597000	23.120605	-0.000153	20.748398
872.258192	-2.991100	3.538000	-10.582000	23.148718	-0.000151	20.748594
873.260199	-3.004900	3.538100	-10.631000	23.141841	-0.000152	20.771575
874.255555	-3.016600	3.537800	-10.671000	23.143513	-0.000153	20.756181
875.256410	-2.993400	3.538000	-10.589000	23.163563	-0.000151	20.756358
876.256529	-3.019900	3.538000	-10.683000	23.128194	-0.000153	20.765961
877.257832	-2.995000	3.537000	-10.592000	23.142119	-0.000153	20.753361
878.263079	-3.005300	3.536300	-10.626000	23.167255	-0.000153	20.765273
879.260268	-3.006300	3.536000	-10.629000	23.150940	-0.000154	20.766942
880.260063	-3.022000	3.535500	-10.684000	23.140750	-0.000152	20.775223
881.261153	-3.000700	3.535500	-10.607000	23.161273	-0.000152	20.759279
882.261534	-2.982100	3.535300	-10.541000	23.163032	-0.000152	20.763412
883.260966	-3.002100	3.534400	-10.610000	23.166572	-0.000152	20.755105
884.262567	-2.993400	3.533800	-10.577000	23.146479	-0.000151	20.745401
885.262348	-2.988300	3.533900	-10.560000	23.179145	-0.000151	20.762964
886.262283	-2.976400	3.534500	-10.519000	23.169758	-0.000152	20.764462
887.262588	-3.022200	3.533600	-10.678000	23.175132	-0.000153	20.785969
888.261490	-2.975100	3.535100	-10.516000	23.182298	-0.000153	20.745734
889.264133	-2.995600	3.533800	-10.585000	23.172514	-0.000150	20.754421
890.259820	-2.996200	3.532700	-10.584000	23.177314	-0.000152	20.756387
891.264400	-3.000300	3.533500	-10.600000	23.178278	-0.000153	20.744550
892.260594	-3.002400	3.531100	-10.600000	23.178524	-0.000151	20.759970
893.261429	-2.976900	3.533300	-10.517000	23.175703	-0.000152	20.751453
894.266690	-2.998800	3.532000	-10.590000	23.179546	-0.000152	20.747717
895.264498	-3.000500	3.531500	-10.595000	23.172542	-0.000152	20.750657
896.261845	-2.964100	3.532100	-10.469000	23.169797	-0.000152	20.742690
897.262971	-2.993800	3.530900	-10.569000	23.173973	-0.000152	20.743555
898.265039	-3.010800	3.529500	-10.626000	23.171979	-0.000153	20.766213
899.262944	-2.984400	3.531100	-10.537000	23.158376	-0.000152	20.754953
900.265525	-3.017500	3.529000	-10.648000	23.191270	-0.000154	20.713471
901.262394	-2.994300	3.529500	-10.567000	23.169580	-0.000151	20.740101
902.266522	-3.007900	3.528500	-10.613000	23.179686	-0.000152	20.747858
903.266287	-2.990000	3.529800	-10.554000	23.179466	-0.000151	20.761863
904.267300	-2.982000	3.528800	-10.522000	23.184368	-0.000152	20.740695
905.269727	-3.017900	3.527900	-10.645000	23.182298	-0.000151	20.741466
906.265970	-3.009600	3.528000	-10.617000	23.195572	-0.000150	20.740069
907.268749	-2.998400	3.527800	-10.577000	23.196316	-0.000151	20.747927
908.265364	-3.011700	3.527100	-10.622000	23.173156	-0.000149	20.742736
909.266246	-2.996000	3.527900	-10.569000	23.194997	-0.000149	20.739967
910.267459	-2.995700	3.528100	-10.568000	23.179350	-0.000153	20.740409
911.266305	-2.993700	3.527500	-10.559000	23.182222	-0.000150	20.739019
912.266797	-2.972700	3.527600	-10.485000	23.199476	-0.000149	20.750146
913.267023	-2.998700	3.527100	-10.575000	23.219399	-0.000152	20.732178
914.270111	-3.001700	3.527800	-10.588000	23.202517	-0.000152	20.735649
915.272665	-2.995500	3.525200	-10.559000	23.213450	-0.000152	20.742338
916.270998	-2.999700	3.525100	-10.574000	23.205103	-0.000152	20.758630
917.270234	-3.017300	3.526100	-10.638000	23.193061	-0.000149	20.725224
918.271364	-3.000800	3.524200	-10.574000	23.208069	-0.000152	20.730781
919.267753	-2.986700	3.524600	-10.525000	23.211507	-0.000152	20.760780
920.272983	-2.991200	3.524900	-10.542000	23.213129	-0.000152	20.744387
921.270479	-2.979700	3.524000	-10.499000	23.229833	-0.000151	20.751170
922.273974	-3.012200	3.523500	-10.613000	23.221916	-0.000151	20.742762
923.274451	-3.002700	3.522400	-10.576000	23.237208	-0.000151	20.748604
924.273757	-3.000400	3.522900	-10.570000	23.220750	-0.000151	20.749179
925.273221	-3.009100	3.523400	-10.601000	23.237190	-0.000151	20.733886
926.274866	-2.990900	3.521400	-10.532000	23.235088	-0.000151	20.743160
927.273785	-3.017600	3.522100	-10.627000	23.225286	-0.000152	20.744716
928.271706	-3.001600	3.521700	-10.570000	23.229620	-0.000150	20.748586
929.276516	-3.010600	3.521000	-10.599000	23.202413	-0.000150	20.748821
930.281394	-3.003000	3.520200	-10.570000	23.211496	-0.000149	20.750812
931.277804	-2.989500	3.520500	-10.523000	23.229974	-0.000150	20.743725
932.277328	-2.996000	3.519700	-10.543000	23.215433	-0.000149	20.753809
933.280241	-3.002600	3.519700	-10.567000	23.223509	-0.000150	20.745307
934.275324	-2.991200	3.519300	-10.526000	23.227887	-0.000152	20.762022
935.281410	-3.004900	3.519700	-10.576000	23.236833	-0.000150	20.737796
936.279038	-3.007500	3.517800	-10.578000	23.238000	-0.000150	20.759829
937.277233	-2.999100	3.519200	-10.554000	23.243110	-0.000147	20.748829
938.281768	-2.996400	3.517400	-10.539000	23.248019	-0.000151	20.747109
939.278942	-2.995400	3.518700	-10.539000	23.244775	-0.000150	20.747652
940.285301	-2.980400	3.517100	-10.481000	23.241167	-0.000150	20.745459
941.283478	-3.021100	3.517100	-10.624000	23.261385	-0.000148	20.755290
942.284151	-3.004600	3.518000	-10.569000	23.239376	-0.000147	20.752198
943.283821	-3.020400	3.516600	-10.621000	23.248076	-0.000148	20.755228
944.281833	-2.996500	3.516400	-10.536000	23.236266	-0.000148	20.756669
945.283771	-2.978000	3.517600	-10.474000	23.232835	-0.000148	20.728099
946.280852	-2.991400	3.517100	-10.519000	23.258164	-0.000148	20.745423
947.285310	-3.002200	3.515900	-10.553000	23.258832	-0.000150	20.760317
948.291486	-3.013300	3.515600	-10.592000	23.254751	-0.000148	20.745795
949.284608	-2.989100	3.515600	-10.508000	23.268945	-0.000148	20.756701
950.285154	-3.022700	3.514100	-10.621000	23.252089	-0.000150	20.757827
951.284493	-3.004100	3.513600	-10.554000	23.262776	-0.000149	20.770434
952.285686	-3.023300	3.513100	-10.620000	23.255130	-0.000146	20.727683
953.284637	-2.991700	3.514000	-10.512000	23.261974	-0.000148	20.760621
954.286641	-3.007100	3.514000	-10.566000	23.268547	-0.000150	20.749191
955.286980	-2.988700	3.513000	-10.499000	23.268132	-0.000149	20.775328
956.292539	-3.010700	3.512800	-10.575000	23.269129	-0.000149	20.764473
957.288855	-3.007800	3.512200	-10.563000	23.266214	-0.000148	20.753017
958.286395	-3.007000	3.512000	-10.559000	23.286255	-0.000148	20.766463
959.285278	-3.005000	3.511300	-10.550000	23.288798	-0.000148	20.774227
960.286968	-2.988100	3.512700	-10.495000	23.283720	-0.000149	20.742585
961.292441	-3.021900	3.510800	-10.608000	23.285562	-0.000148	20.748224
962.290654	-3.028100	3.510800	-10.630000	23.300449	-0.000148	20.780688
963.291946	-2.984400	3.510800	-10.475000	23.289339	-0.000148	20.761020
964.291043	-3.020200	3.508900	-10.596000	23.272798	-0.000149	20.763408
965.292946	-3.001800	3.510300	-10.536000	23.257134	-0.000148	20.776160
966.293038	-3.022200	3.508800	-10.604000	23.266005	-0.000147	20.760393
967.293102	-2.998200	3.509700	-10.522000	23.306559	-0.000148	20.784916
968.293594	-3.012800	3.510100	-10.574000	23.279263	-0.000148	20.741911
969.293621	-2.992500	3.508100	-10.498000	23.304912	-0.000149	20.756238
970.296070	-3.015900	3.508700	-10.582000	23.283496	-0.000149	20.769388
971.295699	-3.013700	3.507300	-10.569000	23.282947	-0.000148	20.780692
972.295169	-3.005500	3.508000	-10.543000	23.285684	-0.000148	20.754511
973.293152	-2.979000	3.507600	-10.449000	23.298155	-0.000150	20.754681
974.295224	-3.007000	3.507500	-10.546000	23.295883	-0.000149	20.756672
975.296185	-2.987600	3.508000	-10.480000	23.307382	-0.000148	20.781473
976.296059	-2.981500	3.506900	-10.455000	23.265047	-0.000149	20.778875
977.297990	-2.995400	3.506500	-10.503000	23.296959	-0.000148	20.763915
978.295115	-2.984400	3.507100	-10.466000	23.303482	-0.000149	20.761443
979.298527	-2.988300	3.504800	-10.473000	23.296529	-0.000149	20.794304
980.296137	-2.997000	3.506500	-10.509000	23.299859	-0.000149	20.771563
981.298382	-2.985200	3.506000	-10.465000	23.311232	-0.000151	20.747873
982.299108	-2.983400	3.505600	-10.458000	23.326667	-0.000149	20.778990
983.293858	-3.006400	3.504600	-10.535000	23.306840	-0.000150	20.777611
984.300698	-2.958000	3.504300	-10.365000	23.291430	-0.000150	20.757899
985.300558	-2.986000	3.503900	-10.462000	23.308422	-0.000149	20.748376
986.300112	-2.986900	3.504200	-10.466000	23.338347	-0.000149	20.766988
987.298900	-3.016800	3.502800	-10.567000	23.309953	-0.000149	20.765558
988.300961	-3.007200	3.503400	-10.535000	23.314627	-0.000150	20.769767
989.297617	-3.018300	3.502300	-10.570000	23.310910	-0.000150	20.763198
990.301601	-2.991600	3.502600	-10.477000	23.333121	-0.000148	20.742783
991.300992	-2.992500	3.502200	-10.479000	23.312568	-0.000149	20.758221
992.299829	-2.991600	3.502200	-10.477000	23.311293	-0.000150	20.779703
993.307038	-3.015600	3.503100	-10.563000	23.313651	-0.000149	20.762626
994.300580	-2.992100	3.502000	-10.478000	23.313998	-0.000147	20.753964
995.303457	-2.981700	3.501000	-10.438000	23.319220	-0.000149	20.782432
996.305878	-3.030400	3.499300	-10.603000	23.349484	-0.000148	20.765822
997.303387	-2.994200	3.500200	-10.479000	23.340199	-0.000150	20.775009
998.303550	-2.997800	3.499500	-10.490000	23.313099	-0.000149	20.755908
999.304795	-2.998500	3.499100	-10.490000	23.347483	-0.000150	20.778042
1000.303297	-2.998200	3.499500	-10.490000	23.335472	-0.000150	20.786866
1001.306975	-3.015700	3.498700	-10.550000	23.337906	-0.000149	20.782194
1002.304153	-2.983500	3.499700	-10.440000	23.337281	-0.000150	20.776352
1003.303883	-2.986500	3.498400	-10.446000	23.336581	-0.000149	20.778969
1004.306040	-2.996700	3.498000	-10.482000	23.340799	-0.000149	20.762333
1005.303943	-3.033600	3.496700	-10.607000	23.332832	-0.000147	20.765728
1006.303791	-2.996300	3.498300	-10.481000	23.350702	-0.000149	20.780319
1007.302754	-3.006700	3.498400	-10.518000	23.326169	-0.000148	20.768534
1008.303961	-3.029200	3.496500	-10.590000	23.347357	-0.000148	20.776019
1009.301855	-3.013000	3.497500	-10.537000	23.352587	-0.000150	20.762293
1010.302168	-2.999100	3.496400	-10.486000	23.329499	-0.000148	20.767603
1011.305414	-3.003500	3.495800	-10.499000	23.339958	-0.000149	20.760542
1012.303557	-2.991300	3.494600	-10.453000	23.351583	-0.000150	20.778357
1013.304412	-2.985200	3.495900	-10.436000	23.354819	-0.000149	20.780652
1014.308100	-2.986600	3.496500	-10.441000	23.342966	-0.000149	20.779204
1015.310719	-2.984100	3.496500	-10.433000	23.337643	-0.000151	20.798051
1016.307475	-3.013600	3.494200	-10.529000	23.368664	-0.000149	20.760864
1017.307489	-3.008200	3.494400	-10.511000	23.340727	-0.000149	20.772218
1018.305003	-3.012900	3.493500	-10.525000	23.346184	-0.000148	20.772472
1019.304937	-3.022600	3.494300	-10.561000	23.363385	-0.000147	20.800143
1020.306438	-2.997500	3.493700	-10.472000	23.358231	-0.000148	20.782176
1021.308300	-3.022200	3.493400	-10.556000	23.358907	-0.000148	20.780008
1022.309348	-3.011900	3.492700	-10.517000	23.361146	-0.000146	20.797899
1023.307287	-3.011300	3.493200	-10.518000	23.384857	-0.000148	20.781361
1024.310091	-2.987800	3.493500	-10.436000	23.378234	-0.000146	20.794164
1025.310438	-3.000300	3.492300	-10.476000	23.388396	-0.000146	20.792021
1026.312015	-2.996700	3.491300	-10.461000	23.374533	-0.000147	20.784289
1027.307781	-2.977500	3.491600	-10.396000	23.387457	-0.000147	20.777329
1028.309691	-3.002600	3.492400	-10.485000	23.388479	-0.000147	20.807751
1029.307746	-2.997800	3.491400	-10.466000	23.397255	-0.000149	20.789994
1030.310348	-3.008100	3.492400	-10.505000	23.383958	-0.000147	20.792788
1031.307182	-2.984300	3.491200	-10.418000	23.404520	-0.000149	20.803914
1032.309119	-3.006200	3.490800	-10.493000	23.387995	-0.000149	20.776446
1033.309449	-3.024200	3.489600	-10.552000	23.392675	-0.000149	20.802948
1034.308773	-3.016100	3.489300	-10.524000	23.384742	-0.000147	20.784090
1035.309074	-2.999000	3.489800	-10.465000	23.383474	-0.000148	20.798941
1036.313009	-2.980500	3.489300	-10.399000	23.401306	-0.000147	20.790736
1037.313544	-3.005900	3.489800	-10.489000	23.376446	-0.000146	20.796165
1038.313414	-3.001800	3.489400	-10.473000	23.392621	-0.000147	20.787721
1039.310003	-3.001300	3.487700	-10.467000	23.403848	-0.000146	20.785697
1040.309856	-2.994600	3.488400	-10.445000	23.405300	-0.000147	20.803748
1041.315979	-2.982000	3.489200	-10.404000	23.413664	-0.000149	20.817346
1042.313283	-2.990400	3.487400	-10.428000	23.425288	-0.000148	20.791065
1043.313388	-2.996400	3.488200	-10.451000	23.416036	-0.000148	20.798861
1044.313354	-2.994600	3.488300	-10.445000	23.406701	-0.000147	20.801359
1045.311535	-3.008500	3.487000	-10.490000	23.415892	-0.000146	20.821476
1046.312390	-2.984500	3.487000	-10.406000	23.410164	-0.000146	20.819054
1047.314642	-3.000100	3.486700	-10.460000	23.429094	-0.000145	20.804837
1048.314022	-3.010700	3.487000	-10.497000	23.414472	-0.000147	20.805829
1049.320244	-3.002300	3.484700	-10.462000	23.421872	-0.000145	20.790960
1050.317955	-3.006000	3.484800	-10.474000	23.439797	-0.000146	20.798970
1051.321195	-2.997000	3.484500	-10.442000	23.431687	-0.000146	20.818341
1052.317767	-2.958000	3.485200	-10.308000	23.438916	-0.000145	20.807096
1053.314814	-2.976800	3.483800	-10.370000	23.436677	-0.000146	20.803903
1054.315138	-3.002500	3.484100	-10.461000	23.430553	-0.000148	20.821946
1055.318006	-3.001100	3.483600	-10.454000	23.428289	-0.000145	20.802607
1056.317590	-2.992600	3.484500	-10.427000	23.431853	-0.000146	20.797171
1057.317059	-2.982100	3.484700	-10.391000	23.433922	-0.000143	20.815840
1058.319055	-2.977700	3.483100	-10.370000	23.426411	-0.000147	20.821114
1059.317647	-3.004400	3.482400	-10.462000	23.430820	-0.000145	20.804196
1060.317668	-2.996400	3.484400	-10.439000	23.438432	-0.000147	20.808033
1061.318097	-3.014600	3.481400	-10.493000	23.438768	-0.000146	20.814059
1062.319343	-3.012800	3.480900	-10.487000	23.441632	-0.000148	20.830206
1063.319799	-3.012700	3.481800	-10.489000	23.457748	-0.000145	20.803212
1064.320200	-2.999500	3.483000	-10.447000	23.451573	-0.000146	20.821204
1065.320646	-3.010800	3.480300	-10.478000	23.447221	-0.000149	20.819213
1066.318159	-2.996000	3.480400	-10.427000	23.460593	-0.000148	20.817918
1067.320885	-3.005300	3.480300	-10.458000	23.460600	-0.000144	20.827408
1068.321911	-3.000800	3.479600	-10.440000	23.448056	-0.000148	20.812463
1069.323234	-3.003200	3.480700	-10.453000	23.472874	-0.000149	20.819796
1070.323910	-3.008100	3.479700	-10.467000	23.475153	-0.000147	20.821606
1071.323647	-3.005600	3.479100	-10.456000	23.455076	-0.000148	20.822818
1072.326018	-2.977400	3.479700	-10.359000	23.489033	-0.000149	20.802803
1073.319747	-2.988200	3.479300	-10.395000	23.458885	-0.000147	20.844180
1074.324001	-3.041500	3.477700	-10.576000	23.470390	-0.000147	20.840065
1075.325716	-2.988400	3.478900	-10.395000	23.480721	-0.000147	20.822446
1076.324894	-3.024500	3.477900	-10.517000	23.467046	-0.000147	20.817748
1077.325108	-3.004400	3.477600	-10.447000	23.468263	-0.000148	20.844097
1078.331368	-2.983700	3.479000	-10.379000	23.477460	-0.000149	20.829134
1079.323803	-3.010100	3.478200	-10.469000	23.490647	-0.000149	20.838559
1080.325847	-2.990100	3.477200	-10.396000	23.473795	-0.000146	20.842530
1081.328255	-2.990500	3.477600	-10.399000	23.491712	-0.000148	20.829670
1082.327349	-3.006000	3.476900	-10.451000	23.485065	-0.000148	20.841972
1083.330599	-3.000400	3.477000	-10.432000	23.486830	-0.000147	20.833785
1084.328097	-3.007600	3.476700	-10.455000	23.485209	-0.000147	20.830738
1085.323991	-3.002500	3.476600	-10.438000	23.493478	-0.000149	20.837129
1086.325964	-2.989700	3.475700	-10.390000	23.514291	-0.000147	20.832862
1087.326001	-3.015700	3.475600	-10.480000	23.489315	-0.000149	20.836749
1088.329041	-2.995900	3.475700	-10.412000	23.503404	-0.000147	20.835226
1089.329337	-3.007900	3.475500	-10.453000	23.510500	-0.000148	20.824320
1090.329216	-2.970600	3.475400	-10.324000	23.498454	-0.000149	20.858237
1091.328011	-3.015600	3.474400	-10.476000	23.491976	-0.000149	20.834201
1092.329512	-2.989000	3.475600	-10.387000	23.504282	-0.000148	20.846536
1093.328977	-3.003300	3.475600	-10.437000	23.497551	-0.000148	20.820350
1094.329207	-2.996600	3.474600	-10.411000	23.505650	-0.000145	20.867821
1095.327581	-3.024700	3.472100	-10.501000	23.517122	-0.000147	20.862725
1096.330959	-3.006100	3.472400	-10.436000	23.481941	-0.000146	20.846428
1097.328679	-2.989800	3.472300	-10.380000	23.500837	-0.000147	20.850669
1098.332369	-3.016800	3.472700	-10.476000	23.506159	-0.000148	20.845573
1099.333731	-3.001000	3.472000	-10.419000	23.510417	-0.000147	20.851737
1100.333171	-3.003800	3.471500	-10.427000	23.521025	-0.000148	20.864741
1101.330683	-2.996900	3.470700	-10.400000	23.505239	-0.000147	20.861245
1102.333766	-2.985100	3.471000	-10.360000	23.512580	-0.000148	20.869077
1103.331277	-3.006100	3.470600	-10.432000	23.511962	-0.000148	20.831950
1104.334654	-3.002900	3.469900	-10.419000	23.513999	-0.000147	20.848215
1105.335475	-2.991900	3.470200	-10.381000	23.524362	-0.000147	20.836319
1106.330077	-2.983000	3.470800	-10.353000	23.517487	-0.000147	20.847445
1107.330463	-2.968900	3.471300	-10.305000	23.545301	-0.000147	20.867738
1108.332660	-2.997200	3.469900	-10.399000	23.543163	-0.000149	20.858483
1109.333981	-3.017500	3.469100	-10.467000	23.516050	-0.000146	20.869236
1110.339601	-2.990200	3.469300	-10.372000	23.538534	-0.000149	20.853369
1111.334698	-2.988500	3.470100	-10.370000	23.537530	-0.000146	20.865639
1112.335629	-3.003800	3.469100	-10.420000	23.533237	-0.000149	20.839525
1113.335682	-3.014700	3.468500	-10.456000	23.536288	-0.000149	20.858704
1114.334616	-3.002600	3.468100	-10.413000	23.532334	-0.000148	20.868491
1115.338401	-2.968200	3.468700	-10.295000	23.562614	-0.000147	20.863283
1116.335809	-2.985800	3.467000	-10.350000	23.537646	-0.000148	20.861013
1117.331679	-3.000100	3.466100	-10.398000	23.535544	-0.000145	20.862700
1118.332918	-2.981800	3.468400	-10.341000	23.547333	-0.000147	20.860293
1119.336514	-3.005400	3.467600	-10.421000	23.561921	-0.000147	20.862588
1120.339780	-2.997800	3.467400	-10.393000	23.564311	-0.000146	20.862139
1121.337335	-2.991900	3.465700	-10.368000	23.566986	-0.000147	20.866717
1122.336843	-3.023600	3.466600	-10.481000	23.563524	-0.000147	20.856609
1123.341222	-2.999000	3.466200	-10.394000	23.549012	-0.000148	20.883312
1124.339229	-3.007300	3.465300	-10.419000	23.579385	-0.000145	20.878198
1125.340658	-3.016300	3.465600	-10.452000	23.566243	-0.000146	20.873084
1126.336420	-2.973600	3.466600	-10.307000	23.576555	-0.000148	20.870619
1127.338283	-3.010600	3.464100	-10.427000	23.580136	-0.000148	20.871839
1128.343725	-3.014500	3.464200	-10.442000	23.574973	-0.000146	20.877568
1129.337846	-2.997700	3.464800	-10.386000	23.565015	-0.000148	20.868060
1130.340668	-2.992200	3.463100	-10.362000	23.579754	-0.000147	20.871455
1131.342049	-3.005400	3.465100	-10.412000	23.590640	-0.000146	20.879048
1132.340678	-2.982700	3.463400	-10.330000	23.572843	-0.000146	20.876855
1133.338795	-3.015900	3.463100	-10.443000	23.569514	-0.000147	20.874466
1134.336900	-3.024000	3.462300	-10.469000	23.588831	-0.000145	20.895252
1135.337816	-2.997800	3.462100	-10.378000	23.586542	-0.000145	20.854079
1136.344595	-2.987700	3.464000	-10.348000	23.597547	-0.000147	20.864637
1137.339779	-3.008800	3.463400	-10.420000	23.599674	-0.000147	20.893793
1138.339554	-2.993200	3.462900	-10.364000	23.594521	-0.000146	20.886258
1139.339767	-3.020300	3.461200	-10.453000	23.592055	-0.000145	20.882364
1140.340129	-2.993500	3.461900	-10.363000	23.595626	-0.000144	20.899693
1141.341479	-3.021900	3.460900	-10.457000	23.588354	-0.000144	20.877706
1142.340928	-3.030100	3.461000	-10.486000	23.596926	-0.000144	20.861169
1143.340030	-3.008800	3.460300	-10.410000	23.606815	-0.000145	20.893840
1144.342732	-3.011900	3.460700	-10.422000	23.601183	-0.000147	20.890565
1145.342329	-3.004100	3.459400	-10.391000	23.607754	-0.000146	20.904738
1146.345454	-3.002700	3.459600	-10.388000	23.606173	-0.000145	20.898886
1147.343401	-2.989600	3.460200	-10.344000	23.628157	-0.000144	20.904329
1148.340234	-2.997300	3.459200	-10.368000	23.618477	-0.000147	20.889411
1149.346569	-3.016900	3.458700	-10.433000	23.630833	-0.000144	20.877616
1150.345736	-3.015500	3.459100	-10.430000	23.595605	-0.000146	20.900619
1151.347406	-3.026400	3.458700	-10.467000	23.604043	-0.000147	20.885372
1152.348567	-3.022700	3.457900	-10.451000	23.612766	-0.000146	20.899331
1153.345442	-3.005600	3.458400	-10.394000	23.624659	-0.000144	20.891340
1154.347157	-3.001600	3.457200	-10.376000	23.629970	-0.000145	20.901405
1155.345330	-3.001700	3.457400	-10.377000	23.618449	-0.000144	20.907872
1156.345315	-3.008800	3.458100	-10.404000	23.643549	-0.000145	20.897000
1157.345639	-3.029100	3.456300	-10.469000	23.622146	-0.000145	20.912527
1158.345459	-3.005500	3.457200	-10.389000	23.635238	-0.000147	20.898626
1159.344419	-2.999200	3.457600	-10.370000	23.618879	-0.000146	20.913044
1160.345790	-3.002000	3.456500	-10.376000	23.646766	-0.000148	20.888372
1161.346394	-3.016500	3.456400	-10.425000	23.627103	-0.000145	20.892842
1162.349610	-3.007000	3.455400	-10.389000	23.653091	-0.000147	20.897558
1163.345803	-2.998200	3.456700	-10.363000	23.651181	-0.000147	20.911289
1164.346251	-2.986300	3.456200	-10.320000	23.636097	-0.000146	20.917029
1165.349948	-2.985500	3.455900	-10.316000	23.648344	-0.000146	20.911289
1166.344512	-2.985500	3.455900	-10.317000	23.642820	-0.000144	20.903855
1167.349139	-2.998900	3.455200	-10.360000	23.650810	-0.000146	20.926088
1168.353531	-2.996400	3.452900	-10.345000	23.638487	-0.000145	20.906624
1169.349258	-2.968700	3.456100	-10.259000	23.639339	-0.000146	20.899418
1170.349831	-3.014900	3.454100	-10.412000	23.651788	-0.000147	20.892459
1171.349901	-3.002100	3.453500	-10.367000	23.645640	-0.000148	20.893407
1172.350730	-2.990300	3.453400	-10.326000	23.658485	-0.000145	20.913870
1173.354697	-3.003100	3.451500	-10.364000	23.659973	-0.000146	20.896870
1174.348542	-3.001200	3.455000	-10.368000	23.659034	-0.000146	20.903041
1175.349863	-2.988000	3.451200	-10.312000	23.678526	-0.000145	20.889393
1176.353015	-2.984000	3.453000	-10.303000	23.676974	-0.000147	20.906327
1177.352507	-3.031100	3.451200	-10.460000	23.680443	-0.000145	20.899849
1178.352538	-2.998300	3.451700	-10.348000	23.683830	-0.000145	20.885702
1179.353449	-2.996400	3.453000	-10.345000	23.663020	-0.000144	20.892339
1180.349460	-2.979400	3.452100	-10.284000	23.671591	-0.000146	20.900457
1181.354256	-3.000300	3.451100	-10.353000	23.680011	-0.000146	20.887562
1182.353223	-2.970800	3.451400	-10.252000	23.702965	-0.000145	20.903461
1183.359810	-3.010800	3.450900	-10.388000	23.672476	-0.000144	20.903241
1184.351013	-2.983600	3.450100	-10.293000	23.689621	-0.000146	20.900041
1185.353208	-3.005100	3.451100	-10.369000	23.692939	-0.000146	20.894359
1186.357847	-2.998800	3.450000	-10.345000	23.676808	-0.000146	20.899050
1187.354325	-3.045000	3.448200	-10.499000	23.671758	-0.000146	20.892090
1188.356471	-3.012300	3.449900	-10.391000	23.689982	-0.000145	20.884758
1189.362811	-3.001400	3.448700	-10.350000	23.683664	-0.000145	20.909716
1190.358082	-3.002700	3.447600	-10.352000	23.690058	-0.000145	20.881515
1191.358327	-3.008600	3.447900	-10.373000	23.691156	-0.000146	20.884038
1192.360005	-3.016200	3.448300	-10.399000	23.690412	-0.000147	20.883766
1193.357129	-3.013300	3.447800	-10.388000	23.672220	-0.000147	20.896821
1194.365801	-2.972900	3.449100	-10.253000	23.668148	-0.000145	20.889894
1195.357371	-2.996300	3.448200	-10.331000	23.681163	-0.000149	20.885873
1196.361526	-3.010900	3.447300	-10.379000	23.676181	-0.000145	20.877085
1197.361770	-3.006200	3.447600	-10.363000	23.692243	-0.000147	20.878964
1198.362625	-3.009700	3.447000	-10.373000	23.682614	-0.000145	20.887328
1199.360790	-3.020100	3.446200	-10.407000	23.682210	-0.000146	20.877914
1200.365679	-2.971600	3.446600	-10.241000	23.712453	-0.000148	20.878837
1201.363770	-3.005800	3.446500	-10.358000	23.689539	-0.000147	20.882891
1202.362055	-2.998200	3.445200	-10.329000	23.721496	-0.000146	20.899282
1203.363560	-3.006500	3.444100	-10.353000	23.695088	-0.000146	20.883712
1204.364326	-3.019800	3.445900	-10.405000	23.688745	-0.000147	20.873560
1205.364410	-3.024200	3.443600	-10.413000	23.707807	-0.000149	20.866593
1206.365950	-3.017600	3.444900	-10.393000	23.705594	-0.000146	20.875280
1207.370655	-2.998800	3.443800	-10.326000	23.699370	-0.000146	20.864299
1208.365986	-3.024900	3.442800	-10.414000	23.690940	-0.000146	20.883347
1209.367455	-3.017300	3.444100	-10.391000	23.720229	-0.000145	20.882840
1210.371409	-2.991800	3.443400	-10.301000	23.710060	-0.000147	20.870749
1211.368066	-2.995300	3.443500	-10.314000	23.711226	-0.000146	20.864331
1212.371126	-2.989700	3.444200	-10.296000	23.711006	-0.000147	20.891610
1213.367051	-3.000200	3.443600	-10.331000	23.717298	-0.000146	20.870893
1214.369950	-3.007700	3.444100	-10.357000	23.722154	-0.000145	20.863434
1215.371462	-2.981800	3.443900	-10.267000	23.733699	-0.000147	20.875008
1216.368927	-3.004400	3.442900	-10.343000	23.698406	-0.000147	20.843419
1217.369558	-2.995000	3.442300	-10.308000	23.727305	-0.000144	20.891356
1218.371230	-2.987400	3.441400	-10.280000	23.715287	-0.000148	20.862240
1219.373087	-2.993900	3.441000	-10.301000	23.721959	-0.000147	20.876988
1220.378211	-3.001700	3.440400	-10.327000	23.719840	-0.000148	20.878657
1221.373503	-3.007600	3.441000	-10.348000	23.715785	-0.000147	20.853257
1222.371171	-3.002000	3.440700	-10.328000	23.736089	-0.000147	20.850379
1223.373905	-2.990700	3.440600	-10.289000	23.716529	-0.000148	20.864433
1224.374229	-3.002600	3.440000	-10.328000	23.737674	-0.000148	20.861451
1225.374103	-3.010900	3.439300	-10.354000	23.720970	-0.000148	20.852764
1226.379493	-2.999500	3.440200	-10.318000	23.733595	-0.000148	20.848827
1227.375748	-2.994600	3.439700	-10.300000	23.747562	-0.000148	20.859985
1228.375048	-3.009100	3.438500	-10.346000	23.716241	-0.000147	20.861299
1229.375551	-2.993600	3.438100	-10.292000	23.731938	-0.000146	20.858545
1230.376983	-3.015100	3.439300	-10.369000	23.740122	-0.000146	20.841621
1231.375133	-3.014600	3.438100	-10.364000	23.741320	-0.000145	20.859417
1232.376853	-2.989000	3.438000	-10.275000	23.707100	-0.000147	20.857825
1233.373260	-3.007400	3.438300	-10.339000	23.741497	-0.000147	20.834940
1234.377577	-2.984200	3.436900	-10.256000	23.738000	-0.000146	20.858458
1235.375029	-3.011600	3.436200	-10.348000	23.745837	-0.000148	20.834549
1236.380825	-2.993900	3.435700	-10.285000	23.748599	-0.000145	20.854861
1237.376991	-2.999400	3.437000	-10.307000	23.747433	-0.000148	20.858907
1238.378937	-3.012500	3.436000	-10.350000	23.722934	-0.000148	20.860423
1239.379935	-3.000900	3.436300	-10.311000	23.747433	-0.000149	20.874079
1240.376516	-3.005500	3.435500	-10.324000	23.762573	-0.000147	20.855596
1241.378458	-2.986800	3.435500	-10.260000	23.744545	-0.000144	20.852693
1242.379255	-2.980800	3.435300	-10.239000	23.753115	-0.000145	20.838053
1243.379679	-3.012500	3.434800	-10.346000	23.749458	-0.000146	20.872317
1244.377564	-3.020900	3.433600	-10.372000	23.781591	-0.000145	20.860438
1245.378815	-3.012700	3.434700	-10.347000	23.766584	-0.000146	20.846341
1246.378881	-2.992900	3.434300	-10.278000	23.770191	-0.000147	20.849957
1247.381291	-2.992000	3.434400	-10.274000	23.763646	-0.000145	20.841973
1248.378281	-2.998800	3.434200	-10.298000	23.765064	-0.000145	20.844343
1249.378528	-3.007600	3.432900	-10.323000	23.769321	-0.000146	20.841973
1250.380326	-3.013800	3.434000	-10.348000	23.773999	-0.000146	20.835284
1251.380040	-2.982600	3.433700	-10.240000	23.773804	-0.000147	20.844571
1252.382013	-2.995900	3.432500	-10.283000	23.763350	-0.000147	20.855426
1253.386976	-3.015400	3.433400	-10.352000	23.761703	-0.000147	20.839551
1254.383640	-3.009700	3.432700	-10.330000	23.764989	-0.000146	20.851853
1255.385776	-3.006900	3.432600	-10.320000	23.761010	-0.000146	20.848339
1256.384655	-2.986200	3.433300	-10.251000	23.749205	-0.000146	20.843616
1257.381861	-2.994400	3.431800	-10.276000	23.768577	-0.000145	20.859718
1258.385813	-3.008900	3.431300	-10.324000	23.772580	-0.000145	20.844293
1259.382893	-3.001800	3.430200	-10.296000	23.761137	-0.000147	20.858897
1260.386224	-3.027400	3.430700	-10.385000	23.767631	-0.000146	20.853080
1261.387729	-2.998100	3.430000	-10.283000	23.775620	-0.000146	20.842599
1262.384605	-3.003800	3.431200	-10.306000	23.772436	-0.000146	20.838932
1263.387834	-3.009200	3.430200	-10.322000	23.782833	-0.000146	20.839873
1264.389419	-3.013900	3.429200	-10.334000	23.766187	-0.000145	20.838831
1265.390393	-2.990100	3.430000	-10.255000	23.774201	-0.000145	20.843547
1266.391696	-3.010800	3.429700	-10.325000	23.772960	-0.000144	20.825233
1267.388433	-2.982000	3.429100	-10.224000	23.764675	-0.000146	20.835892
1268.393248	-3.032700	3.427400	-10.393000	23.790067	-0.000144	20.840489
1269.391279	-2.996700	3.428100	-10.271000	23.778270	-0.000145	20.833876
1270.390718	-3.028400	3.427700	-10.380000	23.785591	-0.000148	20.825096
1271.390880	-3.003000	3.427700	-10.293000	23.785440	-0.000146	20.833952
1272.392327	-3.022100	3.426500	-10.354000	23.792735	-0.000147	20.834629
1273.396228	-2.991400	3.427100	-10.252000	23.799786	-0.000148	20.827474
1274.389870	-3.024400	3.426400	-10.362000	23.808002	-0.000145	20.850884
1275.393342	-2.976500	3.426500	-10.198000	23.809810	-0.000147	20.844163
1276.389839	-2.973400	3.426900	-10.189000	23.802724	-0.000146	20.814299
1277.394511	-3.001600	3.425600	-10.281000	23.800858	-0.000146	20.843247
1278.394964	-2.996300	3.425700	-10.264000	23.786180	-0.000144	20.825212
1279.396787	-3.008300	3.426300	-10.306000	23.789035	-0.000145	20.850833
1280.397427	-2.997700	3.426400	-10.270000	23.818734	-0.000143	20.855007
1281.399224	-2.975900	3.426400	-10.195000	23.815214	-0.000143	20.829667
1282.398190	-2.983400	3.426200	-10.221000	23.800071	-0.000145	20.832976
1283.398081	-2.984100	3.425600	-10.221000	23.814561	-0.000143	20.833754
1284.401148	-2.974600	3.425100	-10.187000	23.810323	-0.000144	20.835669
1285.395059	-2.985200	3.425200	-10.223000	23.819536	-0.000146	20.832578
1286.397217	-2.985300	3.425100	-10.224000	23.805096	-0.000146	20.845600
1287.398585	-2.980200	3.424100	-10.204000	23.833596	-0.000146	20.822968
1288.401302	-2.991300	3.424400	-10.242000	23.787472	-0.000147	20.831249
1289.402208	-3.000900	3.424500	-10.275000	23.805435	-0.000146	20.844044
1290.399921	-3.011500	3.423000	-10.307000	23.828235	-0.000145	20.841774
1291.396265	-2.952600	3.423700	-10.108000	23.798941	-0.000145	20.811929
1292.401338	-2.978500	3.422800	-10.194000	23.816962	-0.000145	20.803919
1293.402555	-3.022800	3.422500	-10.345000	23.793739	-0.000145	20.805291
1294.401054	-2.980100	3.423000	-10.200000	23.814445	-0.000145	20.814672
1295.405624	-3.015400	3.421700	-10.317000	23.836823	-0.000144	20.792539
1296.404685	-3.002800	3.420400	-10.270000	23.825939	-0.000145	20.825722
1297.408491	-2.987000	3.421300	-10.219000	23.829376	-0.000144	20.827271
1298.405062	-2.998600	3.421000	-10.257000	23.806897	-0.000146	20.822751
1299.406981	-3.000100	3.421200	-10.264000	23.822098	-0.000147	20.805750
1300.408554	-3.000700	3.420400	-10.262000	23.819185	-0.000146	20.811364
1301.405896	-2.988500	3.420700	-10.222000	23.831920	-0.000145	20.816072
1302.407327	-2.995300	3.420400	-10.244000	23.828567	-0.000147	20.806546
1303.402882	-2.989900	3.419700	-10.223000	23.833220	-0.000147	20.791771
1304.410995	-2.999100	3.419500	-10.255000	23.821516	-0.000146	20.802796
1305.406910	-2.987800	3.419100	-10.215000	23.835432	-0.000146	20.813430
1306.407469	-2.990600	3.420000	-10.227000	23.844063	-0.000146	20.815446
1307.412238	-2.999900	3.418600	-10.254000	23.820993	-0.000146	20.808435
1308.407810	-2.995300	3.419300	-10.241000	23.834631	-0.000147	20.811204
1309.406626	-3.008900	3.419500	-10.288000	23.836295	-0.000145	20.810502
1310.410946	-3.005200	3.416800	-10.267000	23.850431	-0.000145	20.806184
1311.407434	-2.996000	3.418100	-10.240000	23.850059	-0.000145	20.799647
1312.406252	-2.992200	3.418400	-10.227000	23.833382	-0.000146	20.803314
1313.409210	-3.021800	3.416000	-10.321000	23.846792	-0.000146	20.822924
1314.409571	-3.006000	3.416400	-10.268000	23.857820	-0.000146	20.820705
1315.413304	-2.984900	3.418000	-10.201000	23.840230	-0.000146	20.796904
1316.404736	-2.999400	3.415600	-10.243000	23.828787	-0.000146	20.794439
1317.405948	-2.995700	3.416200	-10.233000	23.847239	-0.000146	20.796820
1318.406405	-3.022600	3.415300	-10.321000	23.855658	-0.000147	20.802890
1319.407947	-2.997200	3.415200	-10.235000	23.856401	-0.000147	20.797946
1320.408092	-2.993300	3.415100	-10.222000	23.863664	-0.000143	20.796219
1321.405674	-2.997600	3.415600	-10.238000	23.861332	-0.000144	20.811899
1322.408524	-2.993500	3.413300	-10.217000	23.845550	-0.000148	20.778057
1323.410102	-2.978000	3.415100	-10.169000	23.848532	-0.000146	20.793374
1324.409385	-2.998000	3.413900	-10.234000	23.844698	-0.000147	20.825566
1325.409450	-3.004600	3.413800	-10.256000	23.867176	-0.000145	20.826767
1326.406450	-2.989900	3.413100	-10.204000	23.833035	-0.000146	20.799173
1327.409122	-3.002900	3.413600	-10.250000	23.840475	-0.000144	20.800943
1328.410542	-3.027500	3.413100	-10.333000	23.858469	-0.000145	20.815193
1329.408467	-2.983800	3.414400	-10.188000	23.857878	-0.000147	20.801797
1330.409439	-3.010500	3.411700	-10.270000	23.879622	-0.000145	20.808428
1331.411957	-3.002100	3.413600	-10.247000	23.871230	-0.000146	20.797167
1332.412438	-3.008400	3.412000	-10.263000	23.874049	-0.000146	20.800943
1333.409447	-3.010200	3.411300	-10.268000	23.876489	-0.000145	20.804812
1334.412113	-3.001600	3.411800	-10.240000	23.876388	-0.000147	20.789064
1335.411190	-2.985000	3.412600	-10.186000	23.882788	-0.000145	20.803542
1336.413955	-3.012700	3.411300	-10.276000	23.895006	-0.000145	20.796353
1337.412698	-3.021000	3.411500	-10.304000	23.877341	-0.000147	20.776743
1338.413012	-3.025200	3.411300	-10.318000	23.869320	-0.000144	20.778183
1339.410543	-2.989200	3.410900	-10.195000	23.880644	-0.000144	20.787641
1340.412457	-3.018200	3.409200	-10.289000	23.892667	-0.000144	20.764610
1341.415644	-3.004800	3.410900	-10.248000	23.893148	-0.000144	20.790696
1342.415210	-3.015900	3.409200	-10.281000	23.911379	-0.000146	20.772468
1343.412626	-2.986600	3.409400	-10.182000	23.896577	-0.000148	20.767108
1344.414085	-3.008100	3.408500	-10.252000	23.881918	-0.000146	20.777539
1345.412842	-3.000700	3.407700	-10.225000	23.876117	-0.000145	20.782628
1346.414641	-3.019900	3.407400	-10.289000	23.898291	-0.000144	20.782103
1347.412728	-2.976700	3.408200	-10.144000	23.881774	-0.000146	20.779765
1348.411574	-2.995900	3.408500	-10.211000	23.869353	-0.000145	20.787699
1349.415891	-2.994900	3.408600	-10.208000	23.894989	-0.000146	20.772628
1350.413665	-3.004300	3.407300	-10.235000	23.884864	-0.000144	20.779545
1351.416297	-2.992600	3.407500	-10.197000	23.888874	-0.000145	20.765548
1352.416548	-2.992500	3.406500	-10.193000	23.892151	-0.000145	20.793965
1353.413758	-2.998700	3.405500	-10.211000	23.886874	-0.000144	20.794363
1354.414767	-3.004300	3.406000	-10.232000	23.896989	-0.000144	20.775581
1355.414640	-3.028400	3.406000	-10.314000	23.896321	-0.000144	20.780128
1356.414227	-3.017000	3.405300	-10.273000	23.886080	-0.000143	20.770807
1357.417516	-3.003600	3.405700	-10.228000	23.901446	-0.000143	20.789061
1358.414538	-2.986800	3.405700	-10.171000	23.890690	-0.000143	20.776378
1359.416055	-2.998300	3.405800	-10.211000	23.905525	-0.000144	20.795995
1360.417145	-3.015700	3.404300	-10.266000	23.907889	-0.000144	20.777029
1361.417966	-3.007000	3.405100	-10.238000	23.898212	-0.000144	20.789137
1362.422366	-2.996700	3.405000	-10.203000	23.887286	-0.000144	20.785293
1363.416811	-3.005100	3.403200	-10.227000	23.901024	-0.000143	20.781525
1364.419236	-3.026800	3.402500	-10.297000	23.900779	-0.000144	20.774640
1365.421377	-2.980100	3.403900	-10.143000	23.926684	-0.000144	20.784022
1366.417815	-2.991200	3.402500	-10.177000	23.917946	-0.000143	20.791381
1367.421390	-2.980500	3.403700	-10.144000	23.911629	-0.000144	20.782202
1368.423414	-2.991800	3.403700	-10.183000	23.916256	-0.000144	20.791109
1369.422241	-3.003100	3.403100	-10.219000	23.917101	-0.000145	20.771093
1370.422771	-2.998900	3.402700	-10.204000	23.919617	-0.000144	20.773616
1371.424290	-2.994800	3.402200	-10.188000	23.895079	-0.000145	20.758019
1372.424142	-2.983800	3.402500	-10.152000	23.903100	-0.000144	20.781710
1373.425668	-2.991300	3.401600	-10.175000	23.941646	-0.000145	20.789068
1374.425724	-3.000300	3.402400	-10.207000	23.924750	-0.000143	20.780660
1375.422724	-2.996400	3.402100	-10.193000	23.940202	-0.000145	20.800422
1376.425057	-3.004000	3.401100	-10.216000	23.920765	-0.000143	20.776664
1377.424358	-2.999000	3.400800	-10.198000	23.911813	-0.000145	20.779542
1378.426621	-3.014100	3.398700	-10.242000	23.940902	-0.000144	20.786426
1379.426852	-2.986500	3.400000	-10.151000	23.925526	-0.000144	20.770533
1380.431346	-3.004900	3.398800	-10.212000	23.936004	-0.000143	20.764444
1381.428101	-2.992200	3.398900	-10.169000	23.924775	-0.000144	20.768831
1382.429599	-2.980100	3.399900	-10.132000	23.940902	-0.000147	20.763666
1383.431612	-3.007900	3.399100	-10.224000	23.936477	-0.000146	20.759703
1384.427797	-2.997200	3.398700	-10.185000	23.934723	-0.000146	20.775013
1385.427174	-2.986300	3.398500	-10.148000	23.936199	-0.000146	20.773175
1386.431833	-3.000300	3.398200	-10.194000	23.958177	-0.000145	20.775774
1387.429769	-3.005300	3.398900	-10.214000	23.971831	-0.000146	20.778560
1388.434028	-2.996400	3.397600	-10.180000	23.962645	-0.000145	20.770297
1389.433695	-2.999900	3.397300	-10.191000	23.963320	-0.000145	20.790414
1390.434694	-3.009200	3.395900	-10.219000	23.955527	-0.000146	20.793980
1391.433002	-2.993100	3.397200	-10.167000	23.967189	-0.000146	20.775328
1392.435141	-2.997400	3.396700	-10.181000	23.962410	-0.000145	20.779070
1393.433857	-3.000000	3.395700	-10.186000	23.980825	-0.000144	20.777148
1394.434724	-2.995500	3.395300	-10.170000	23.978714	-0.000146	20.774557
1395.434546	-3.002700	3.395300	-10.193000	23.978656	-0.000144	20.759326
1396.432284	-2.996500	3.395300	-10.173000	23.969503	-0.000145	20.786657
1397.433979	-2.978700	3.395300	-10.113000	23.975422	-0.000146	20.769833
1398.442020	-3.012000	3.395900	-10.227000	23.988213	-0.000145	20.746624
1399.437465	-3.010700	3.394100	-10.218000	24.005480	-0.000145	20.776269
1400.437945	-3.008900	3.395100	-10.215000	23.995568	-0.000144	20.776761
1401.439559	-3.001100	3.395500	-10.189000	23.999402	-0.000146	20.770173
1402.435573	-3.000100	3.394400	-10.183000	23.984964	-0.000146	20.772765
1403.442230	-3.020700	3.394100	-10.252000	23.970610	-0.000144	20.778285
1404.438969	-3.023900	3.393700	-10.261000	23.988671	-0.000146	20.782646
1405.438076	-2.990100	3.393100	-10.145000	23.987574	-0.000146	20.774907
1406.437781	-2.994700	3.392600	-10.159000	24.003667	-0.000144	20.750743
1407.438998	-3.027600	3.392200	-10.270000	23.996348	-0.000145	20.770430
1408.440153	-3.024700	3.392300	-10.259000	24.001397	-0.000146	20.770278
1409.439503	-2.989500	3.392300	-10.140000	24.010077	-0.000144	20.768077
1410.440400	-3.011600	3.391600	-10.213000	23.994204	-0.000144	20.788194
1411.437216	-2.999600	3.391200	-10.171000	23.991890	-0.000144	20.768804
1412.437057	-3.045000	3.390800	-10.323000	24.006489	-0.000145	20.771117
1413.436544	-2.996200	3.390600	-10.158000	24.006532	-0.000147	20.790127
1414.442799	-3.011500	3.391600	-10.213000	24.008889	-0.000145	20.780636
1415.440619	-2.996700	3.391400	-10.162000	24.023362	-0.000144	20.766701
1416.445089	-3.006800	3.391700	-10.198000	24.020702	-0.000143	20.785370
1417.441575	-2.972300	3.390600	-10.077000	24.008882	-0.000144	20.800543
1418.440963	-3.013400	3.389500	-10.213000	24.008925	-0.000144	20.792526
1419.448144	-3.024500	3.389000	-10.249000	24.002796	-0.000143	20.782113
1420.438921	-3.013000	3.388400	-10.208000	24.018103	-0.000143	20.752418
1421.441602	-2.999300	3.389200	-10.164000	24.011502	-0.000145	20.783256
1422.441227	-2.998500	3.388500	-10.159000	24.004225	-0.000144	20.753673
1423.439241	-3.007700	3.387200	-10.187000	23.999133	-0.000144	20.779387
1424.445153	-2.991900	3.388800	-10.138000	24.018012	-0.000143	20.780777
1425.442160	-3.004800	3.388200	-10.180000	24.017034	-0.000144	20.773632
1426.439951	-3.020300	3.387500	-10.231000	24.034925	-0.000145	20.779720
1427.442182	-3.008700	3.387600	-10.191000	24.021365	-0.000145	20.773708
1428.440128	-3.008400	3.386100	-10.186000	24.030662	-0.000145	20.788721
1429.444194	-3.005900	3.387700	-10.182000	24.034286	-0.000144	20.776234
1430.443830	-2.993400	3.386900	-10.137000	24.030081	-0.000146	20.780552
1431.442880	-3.023200	3.385300	-10.233000	24.042864	-0.000144	20.770612
1432.440290	-2.951500	3.388500	-10.000000	24.049660	-0.000146	20.770316
1433.442889	-2.994800	3.386700	-10.142000	24.054930	-0.000146	20.774652
1434.444149	-2.998200	3.386700	-10.152000	24.035393	-0.000146	20.764068
1435.443242	-3.011900	3.384900	-10.194000	24.041947	-0.000145	20.788185
1436.441808	-3.009300	3.385300	-10.186000	24.056131	-0.000145	20.780598
1437.447024	-2.997900	3.385700	-10.149000	24.050400	-0.000145	20.794765
1438.441617	-2.996000	3.384600	-10.139000	24.051995	-0.000145	20.784511
1439.449593	-2.996100	3.383600	-10.137000	24.050317	-0.000144	20.760068
1440.450728	-2.991900	3.383900	-10.124000	24.076929	-0.000146	20.797664
1441.447941	-2.997200	3.382900	-10.139000	24.048158	-0.000145	20.776870
1442.449594	-2.979600	3.384500	-10.084000	24.064446	-0.000144	20.786566
1443.448055	-2.981300	3.384500	-10.089000	24.072450	-0.000145	20.791275
1444.448190	-2.982000	3.383600	-10.090000	24.063587	-0.000144	20.785705
1445.448732	-3.003300	3.381900	-10.156000	24.061479	-0.000144	20.776478
1446.447866	-2.972700	3.382500	-10.054000	24.070555	-0.000143	20.783211
1447.448183	-3.000700	3.381400	-10.145000	24.070801	-0.000144	20.793414
1448.448967	-2.993600	3.382600	-10.126000	24.082285	-0.000145	20.781223
1449.451087	-3.003000	3.382200	-10.155000	24.074453	-0.000145	20.783801
1450.458639	-3.027100	3.381700	-10.235000	24.078235	-0.000142	20.779533
1451.452898	-2.991900	3.382200	-10.119000	24.086157	-0.000144	20.769934
1452.454583	-3.014400	3.381400	-10.192000	24.076441	-0.000145	20.781527
1453.458082	-3.002000	3.381100	-10.149000	24.068170	-0.000144	20.769438
1454.450905	-2.998700	3.380700	-10.137000	24.082674	-0.000143	20.778295
1455.453927	-3.017000	3.381000	-10.199000	24.088358	-0.000145	20.789212
1456.453847	-2.995900	3.379500	-10.124000	24.079336	-0.000143	20.792017
1457.452065	-2.998400	3.379700	-10.132000	24.102729	-0.000145	20.796512
1458.452488	-3.029000	3.379300	-10.235000	24.074991	-0.000143	20.771063
1459.455801	-3.002200	3.380000	-10.147000	24.088026	-0.000144	20.761377
1460.455755	-2.998300	3.380000	-10.133000	24.085800	-0.000144	20.780956
1461.457415	-3.000000	3.379400	-10.138000	24.109211	-0.000143	20.758442
1462.452248	-2.999100	3.379100	-10.133000	24.079412	-0.000143	20.783084
1463.451856	-2.977200	3.379600	-10.061000	24.089163	-0.000144	20.779113
1464.455034	-3.031700	3.377100	-10.237000	24.079567	-0.000144	20.798887
1465.453413	-2.983400	3.378500	-10.078000	24.115617	-0.000144	20.766289
1466.456169	-2.993700	3.377600	-10.111000	24.103520	-0.000144	20.772649
1467.457780	-3.000200	3.377400	-10.131000	24.114902	-0.000144	20.781220
1468.455489	-3.006000	3.378200	-10.154000	24.115715	-0.000144	20.762120
1469.456473	-3.001700	3.376700	-10.134000	24.115487	-0.000145	20.775643
1470.453266	-2.993100	3.377600	-10.109000	24.096959	-0.000142	20.778397
1471.455566	-2.984800	3.377200	-10.079000	24.115787	-0.000144	20.780685
1472.456520	-2.989100	3.377000	-10.093000	24.118718	-0.000142	20.786943
1473.455049	-2.994200	3.375400	-10.106000	24.120179	-0.000143	20.771340
1474.454280	-2.992200	3.375200	-10.098000	24.137444	-0.000143	20.770163
1475.455542	-2.990400	3.375800	-10.093000	24.123229	-0.000142	20.783882
1476.455036	-2.990100	3.373800	-10.087000	24.123543	-0.000144	20.782300
1477.459635	-2.984400	3.374900	-10.071000	24.144734	-0.000143	20.777001
1478.460228	-3.004200	3.373900	-10.135000	24.140693	-0.000144	20.779112
1479.460277	-3.010800	3.374400	-10.158000	24.147531	-0.000144	20.781703
1480.460369	-2.988400	3.374200	-10.083000	24.151609	-0.000143	20.810923
1481.457087	-3.009000	3.374200	-10.153000	24.139437	-0.000143	20.777852
1482.462428	-2.995600	3.374400	-10.106000	24.149805	-0.000145	20.761698
1483.457861	-2.990800	3.373200	-10.088000	24.157463	-0.000144	20.793561
1484.459030	-3.002400	3.373900	-10.128000	24.162057	-0.000144	20.788686
1485.459831	-2.972300	3.373000	-10.024000	24.160570	-0.000143	20.798100
1486.458786	-3.010300	3.371500	-10.148000	24.160917	-0.000144	20.789913
1487.459443	-3.005100	3.372200	-10.133000	24.161754	-0.000143	20.778425
1488.461204	-3.010800	3.371500	-10.150000	24.151303	-0.000144	20.791651
1489.464689	-3.003300	3.371400	-10.124000	24.154284	-0.000143	20.801753
1490.460147	-3.001800	3.371900	-10.121000	24.167489	-0.000144	20.787021
1491.462923	-3.002300	3.370000	-10.117000	24.181147	-0.000144	20.795031
1492.462995	-3.019700	3.370900	-10.178000	24.188332	-0.000143	20.753399
1493.463699	-2.988600	3.371000	-10.073000	24.177081	-0.000144	20.780521
1494.459790	-3.022300	3.369400	-10.182000	24.175259	-0.000142	20.789599
1495.463689	-3.000500	3.370100	-10.111000	24.187384	-0.000141	20.786588
1496.463263	-2.985100	3.369600	-10.057000	24.182714	-0.000142	20.796603
1497.462283	-3.011700	3.368700	-10.144000	24.169723	-0.000142	20.782625
1498.463027	-2.993000	3.370000	-10.086000	24.186955	-0.000143	20.775726
1499.459073	-3.025500	3.368500	-10.191000	24.177569	-0.000144	20.759673
1500.464602	-2.994400	3.368500	-10.085000	24.199289	-0.000144	20.775295
1501.460721	-3.016100	3.368400	-10.158000	24.198842	-0.000143	20.791916
1502.463694	-3.016100	3.367200	-10.154000	24.187320	-0.000144	20.788420
1503.466821	-3.009200	3.367700	-10.133000	24.204728	-0.000144	20.795449
1504.464194	-2.984800	3.367600	-10.050000	24.211793	-0.000143	20.801588
1505.466243	-3.002900	3.366300	-10.108000	24.202483	-0.000144	20.801733
1506.464071	-3.009700	3.367000	-10.132000	24.200246	-0.000144	20.813713
1507.459843	-3.003900	3.367800	-10.116000	24.224178	-0.000144	20.786984
1508.464862	-2.972400	3.366000	-10.004000	24.217629	-0.000144	20.801277
1509.466572	-3.015200	3.365300	-10.146000	24.226163	-0.000144	20.799406
1510.463308	-2.988900	3.365500	-10.058000	24.223893	-0.000142	20.805664
1511.466927	-3.005800	3.364600	-10.112000	24.205710	-0.000143	20.806866
1512.468067	-2.995500	3.365400	-10.080000	24.217975	-0.000142	20.808263
1513.471726	-3.004400	3.366200	-10.112000	24.227581	-0.000142	20.816475
1514.468075	-3.000500	3.364400	-10.094000	24.225842	-0.000144	20.795290
1515.468535	-3.000600	3.363100	-10.091000	24.253869	-0.000143	20.808705
1516.471558	-3.012400	3.364600	-10.134000	24.262504	-0.000143	20.814995
1517.466287	-2.993600	3.364500	-10.071000	24.235718	-0.000143	20.804249
1518.467262	-3.005800	3.363600	-10.108000	24.263305	-0.000144	20.809635
1519.470010	-3.001500	3.363000	-10.093000	24.250415	-0.000142	20.790542
1520.472433	-2.990900	3.364200	-10.061000	24.264672	-0.000145	20.802946
1521.472587	-3.016900	3.362200	-10.143000	24.262586	-0.000144	20.810811
1522.473490	-3.009000	3.361700	-10.115000	24.271939	-0.000144	20.802175
1523.474636	-2.991300	3.364400	-10.063000	24.264553	-0.000143	20.808990
1524.479524	-2.970000	3.362000	-9.984400	24.281627	-0.000144	20.814738
1525.476890	-3.002300	3.361500	-10.092000	24.269753	-0.000143	20.806619
1526.472433	-2.999100	3.360600	-10.078000	24.290847	-0.000144	20.820667
1527.476017	-2.981200	3.361800	-10.021000	24.285055	-0.000144	20.819599
1528.475959	-3.010300	3.360500	-10.115000	24.273068	-0.000143	20.817058
1529.477650	-3.004700	3.360500	-10.097000	24.285503	-0.000144	20.804875
1530.478180	-3.010200	3.361200	-10.117000	24.295032	-0.000145	20.804002
1531.477227	-3.024700	3.359100	-10.160000	24.291944	-0.000145	20.788576
1532.475030	-3.027800	3.359200	-10.171000	24.282421	-0.000143	20.822172
1533.477522	-2.995900	3.360300	-10.065000	24.318616	-0.000141	20.803478
1534.480639	-3.000400	3.360100	-10.082000	24.279711	-0.000145	20.814238
1535.478786	-3.012900	3.357700	-10.116000	24.298789	-0.000143	20.830529
1536.478758	-2.994000	3.359000	-10.056000	24.317728	-0.000142	20.809699
1537.480934	-3.004700	3.358900	-10.092000	24.305558	-0.000143	20.819302
1538.477095	-3.011900	3.357800	-10.113000	24.311305	-0.000143	20.820800
1539.476644	-2.982200	3.359300	-10.017000	24.333023	-0.000143	20.829309
1540.482063	-3.016700	3.358300	-10.130000	24.307246	-0.000144	20.820047
1541.479241	-3.011000	3.357500	-10.108000	24.310284	-0.000143	20.812190
1542.478313	-3.015600	3.357700	-10.125000	24.321654	-0.000142	20.825491
1543.475863	-3.003700	3.356300	-10.081000	24.308967	-0.000141	20.818929
1544.478302	-3.005400	3.356300	-10.085000	24.317248	-0.000141	20.827236
1545.479241	-3.014400	3.355000	-10.112000	24.342098	-0.000143	20.821343
1546.476505	-3.014000	3.355000	-10.111000	24.333023	-0.000142	20.821723
1547.482699	-3.014700	3.354600	-10.112000	24.322776	-0.000141	20.809073
1548.481533	-2.978200	3.354800	-9.990500	24.348672	-0.000140	20.822722
1549.479868	-2.988300	3.354400	-10.023000	24.326853	-0.000143	20.842086
1550.480361	-3.004300	3.355700	-10.081000	24.367459	-0.000141	20.816913
1551.479081	-2.980100	3.354900	-9.997000	24.351313	-0.000141	20.811147
1552.479229	-2.994700	3.354900	-10.045000	24.351035	-0.000142	20.829360
1553.480699	-2.986600	3.353600	-10.015000	24.359279	-0.000142	20.829095
1554.480641	-2.985500	3.354400	-10.014000	24.355346	-0.000142	20.832263
1555.479209	-2.987600	3.354200	-10.020000	24.360351	-0.000144	20.812627
1556.479185	-2.996100	3.352600	-10.044000	24.357590	-0.000142	20.843048
1557.479746	-2.996900	3.352700	-10.047000	24.379949	-0.000142	20.831814
1558.484738	-3.017800	3.351200	-10.112000	24.370031	-0.000143	20.858846
1559.481987	-2.992900	3.353000	-10.034000	24.381645	-0.000144	20.821187
1560.478123	-2.988600	3.352800	-10.019000	24.375652	-0.000142	20.855951
1561.486714	-3.005900	3.351200	-10.072000	24.372394	-0.000142	20.834666
1562.483651	-3.015900	3.350500	-10.104000	24.383662	-0.000142	20.857348
1563.483850	-2.993200	3.351700	-10.031000	24.384185	-0.000143	20.842226
1564.481301	-3.001800	3.350500	-10.057000	24.383517	-0.000142	20.852462
1565.479796	-2.988000	3.350900	-10.012000	24.396008	-0.000143	20.841759
1566.488972	-2.990300	3.349500	-10.015000	24.392101	-0.000143	20.855857
1567.480965	-3.014100	3.348600	-10.093000	24.408650	-0.000143	20.826467
1568.480426	-3.021800	3.349200	-10.120000	24.410104	-0.000143	20.846892
1569.484981	-3.019700	3.348600	-10.110000	24.402455	-0.000142	20.824994
1570.483314	-3.008200	3.349000	-10.074000	24.414289	-0.000143	20.839237
1571.484919	-3.003300	3.348300	-10.055000	24.428670	-0.000142	20.861249
1572.486626	-3.021800	3.347600	-10.115000	24.415336	-0.000144	20.822269
1573.484987	-2.976900	3.348200	-9.966600	24.422973	-0.000141	20.855060
1574.483662	-3.010000	3.347100	-10.074000	24.420737	-0.000142	20.859928
1575.486942	-3.002600	3.347300	-10.050000	24.430038	-0.000143	20.871629
1576.487933	-3.006800	3.346600	-10.062000	24.416382	-0.000142	20.847500
1577.489139	-2.972700	3.347000	-9.948900	24.444815	-0.000140	20.868911
1578.486375	-3.000300	3.345300	-10.037000	24.422533	-0.000141	20.860782
1579.488595	-2.985400	3.346200	-9.989200	24.430485	-0.000142	20.851691
1580.489615	-3.003800	3.345600	-10.048000	24.438949	-0.000142	20.845483
1581.486431	-2.973900	3.345200	-9.946600	24.438797	-0.000140	20.862400
1582.487281	-2.991400	3.344200	-10.004000	24.442950	-0.000140	20.858980
1583.490631	-2.989600	3.344800	-9.998900	24.463525	-0.000142	20.858285
1584.490601	-3.026700	3.344500	-10.122000	24.437795	-0.000141	20.866610
1585.490403	-2.991000	3.344200	-10.002000	24.463727	-0.000141	20.875082
1586.488241	-2.999600	3.345000	-10.032000	24.458773	-0.000143	20.861104
1587.492162	-3.019900	3.343600	-10.096000	24.474849	-0.000141	20.861586
1588.490181	-3.009300	3.343000	-10.059000	24.453235	-0.000142	20.878781
1589.490156	-3.014800	3.343600	-10.079000	24.480849	-0.000142	20.867130
1590.491590	-3.003300	3.342600	-10.038000	24.458315	-0.000141	20.874394
1591.489549	-2.996700	3.341900	-10.014000	24.474730	-0.000142	20.864311
1592.488754	-3.008400	3.343200	-10.056000	24.471851	-0.000141	20.869483
1593.491510	-3.004300	3.341300	-10.037000	24.493017	-0.000140	20.866536
1594.490596	-3.008600	3.341300	-10.051000	24.479167	-0.000140	20.876822
1595.492229	-3.021000	3.341300	-10.093000	24.506300	-0.000140	20.854734
1596.490555	-3.018200	3.341100	-10.083000	24.491430	-0.000142	20.875849
1597.490399	-3.011300	3.341000	-10.059000	24.505413	-0.000142	20.893196
1598.491599	-3.001600	3.341300	-10.028000	24.503345	-0.000142	20.881165
1599.491893	-3.008200	3.340100	-10.046000	24.509049	-0.000142	20.900162
1600.491683	-3.020900	3.340600	-10.090000	24.506170	-0.000142	20.880680
1601.491542	-2.981800	3.341600	-9.962800	24.520939	-0.000142	20.878903
1602.492857	-3.008400	3.338700	-10.043000	24.520921	-0.000141	20.877462
1603.497612	-2.953100	3.339500	-9.860500	24.510196	-0.000142	20.878556
1604.493806	-2.967800	3.339800	-9.911100	24.511437	-0.000138	20.875059
1605.493810	-3.001400	3.338800	-10.020000	24.542018	-0.000142	20.875396
1606.498588	-3.005100	3.337700	-10.029000	24.530845	-0.000141	20.899746
1607.496283	-3.017600	3.337500	-10.070000	24.546025	-0.000140	20.885580
1608.494432	-2.976000	3.339800	-9.937900	24.538904	-0.000142	20.892660
1609.497422	-2.970000	3.337000	-9.910100	24.547562	-0.000140	20.902768
1610.494512	-2.987400	3.337600	-9.969900	24.549579	-0.000142	20.901946
1611.496673	-3.011000	3.336400	-10.046000	24.558338	-0.000143	20.905992
1612.497100	-3.015100	3.334700	-10.053000	24.553990	-0.000141	20.887408
1613.498738	-2.991700	3.335700	-9.977900	24.568961	-0.000140	20.899109
1614.498559	-2.990100	3.335900	-9.973600	24.550903	-0.000141	20.897111
1615.499104	-3.000300	3.335900	-10.008000	24.547721	-0.000141	20.901505
1616.501626	-2.981800	3.335400	-9.944600	24.562565	-0.000140	20.894114
1617.498655	-3.032100	3.334100	-10.108000	24.579628	-0.000141	20.899380
1618.498437	-2.974000	3.335400	-9.918700	24.561097	-0.000140	20.880314
1619.499987	-3.030200	3.334100	-10.103000	24.560801	-0.000139	20.882862
1620.501052	-3.009200	3.333700	-10.031000	24.593466	-0.000140	20.903781
1621.498408	-2.989000	3.335000	-9.967000	24.573611	-0.000139	20.905196
1622.504596	-3.008000	3.331800	-10.021000	24.593257	-0.000140	20.913053
1623.504339	-3.008300	3.333700	-10.028000	24.587662	-0.000140	20.908388
1624.506683	-3.004800	3.332100	-10.011000	24.600792	-0.000140	20.877944
1625.505774	-2.979200	3.334200	-9.932700	24.604295	-0.000141	20.899949
1626.502181	-3.002300	3.332000	-10.003000	24.606715	-0.000139	20.901903
1627.507712	-2.973400	3.332700	-9.908300	24.602008	-0.000139	20.910455
1628.501148	-3.014400	3.330200	-10.038000	24.608706	-0.000140	20.882565
1629.505464	-3.008900	3.329900	-10.018000	24.628427	-0.000141	20.906618
1630.507679	-2.996500	3.331300	-9.981800	24.604050	-0.000140	20.902547
1631.504050	-2.994300	3.330300	-9.971200	24.618453	-0.000141	20.875276
1632.503918	-2.987300	3.329900	-9.946200	24.628099	-0.000139	20.907712
1633.506341	-2.977200	3.328600	-9.908300	24.624766	-0.000142	20.912901
1634.506936	-2.986700	3.329100	-9.942500	24.631457	-0.000138	20.901125
1635.503808	-3.001900	3.329900	-9.995600	24.617425	-0.000139	20.884676
1636.507478	-2.988800	3.328100	-9.945600	24.635685	-0.000139	20.877394
1637.509355	-3.029000	3.328300	-10.080000	24.634689	-0.000139	20.889670
1638.506561	-2.989000	3.329300	-9.950300	24.623890	-0.000138	20.894954
1639.507960	-2.987300	3.326500	-9.936500	24.625123	-0.000142	20.894770
1640.508677	-2.988900	3.327000	-9.942900	24.634051	-0.000139	20.896142
1641.508922	-2.993400	3.327700	-9.960000	24.644050	-0.000139	20.883416
1642.507910	-3.009100	3.327100	-10.010000	24.647030	-0.000139	20.881665
1643.505061	-3.000500	3.326600	-9.981000	24.636703	-0.000138	20.890742
1644.505544	-2.981400	3.327600	-9.920100	24.639286	-0.000138	20.886222
1645.511908	-3.000200	3.325800	-9.977000	24.646323	-0.000139	20.886171
1646.508355	-2.991500	3.325000	-9.945700	24.654407	-0.000138	20.897600
1647.507102	-2.997000	3.324800	-9.962300	24.654248	-0.000139	20.872313
1648.508814	-3.011000	3.325100	-10.010000	24.641508	-0.000139	20.883236
1649.505731	-2.988300	3.324300	-9.932900	24.654941	-0.000139	20.869689
1650.509327	-2.986500	3.324800	-9.928200	24.655684	-0.000139	20.875176
1651.509787	-2.995000	3.324600	-9.956300	24.630192	-0.000139	20.883736
1652.508100	-2.984100	3.323500	-9.916000	24.666595	-0.000138	20.886125
1653.511118	-3.012900	3.324000	-10.014000	24.649931	-0.000139	20.881731
1654.511190	-3.016000	3.323200	-10.022000	24.652110	-0.000138	20.865426
1655.511898	-3.010800	3.322400	-10.001000	24.657484	-0.000141	20.858492
1656.513025	-2.998400	3.321000	-9.957000	24.666437	-0.000136	20.867475
1657.511952	-2.992700	3.322200	-9.941200	24.662581	-0.000139	20.874985
1658.514335	-2.969700	3.321100	-9.861500	24.663173	-0.000138	20.862303
1659.512262	-2.992300	3.321000	-9.936800	24.678697	-0.000138	20.873613
1660.510771	-2.995500	3.320900	-9.946400	24.669215	-0.000137	20.884011
1661.517654	-3.002200	3.321100	-9.970000	24.675484	-0.000137	20.875604
1662.510775	-2.971700	3.321300	-9.869000	24.656954	-0.000135	20.862227
1663.512196	-3.032100	3.319100	-10.062000	24.686023	-0.000135	20.862948
1664.513616	-3.009700	3.318600	-9.986000	24.681695	-0.000137	20.860975
1665.511449	-2.999700	3.320600	-9.959700	24.698926	-0.000136	20.869730
1666.514106	-2.999200	3.319500	-9.954800	24.691102	-0.000138	20.855242
1667.515941	-2.988800	3.319800	-9.921300	24.704639	-0.000137	20.870248
1668.516971	-2.995400	3.318800	-9.940200	24.693602	-0.000137	20.860121
1669.513334	-2.998300	3.318500	-9.949200	24.700268	-0.000136	20.857801
1670.517848	-2.986300	3.318100	-9.907800	24.703330	-0.000136	20.862296
1671.517675	-3.002300	3.317700	-9.959500	24.702132	-0.000136	20.862991
1672.522606	-3.003100	3.318100	-9.963900	24.734728	-0.000136	20.860139
1673.519475	-3.015600	3.316400	-9.999200	24.740347	-0.000136	20.854399
1674.520998	-3.000800	3.316500	-9.950300	24.720546	-0.000134	20.859658
1675.520743	-2.991900	3.317100	-9.923400	24.722808	-0.000136	20.887056
1676.521846	-3.045000	3.314900	-10.092000	24.717585	-0.000135	20.836773
1677.522796	-2.990400	3.315700	-9.914700	24.726562	-0.000136	20.847678
1678.521717	-2.997900	3.315500	-9.938700	24.730884	-0.000136	20.852489
1679.519146	-2.978300	3.315300	-9.872900	24.740315	-0.000136	20.842039
1680.521126	-3.019100	3.314600	-10.006000	24.727796	-0.000134	20.848442
1681.518293	-3.000200	3.314300	-9.942300	24.728489	-0.000136	20.857672
1682.517774	-3.013600	3.313400	-9.984500	24.748100	-0.000137	20.872609
1683.521848	-2.991700	3.314100	-9.913600	24.737131	-0.000136	20.854965
1684.519303	-2.998500	3.312800	-9.931900	24.736457	-0.000137	20.845280
1685.520775	-2.992300	3.311800	-9.909200	24.752118	-0.000134	20.832547
1686.520457	-2.977900	3.312800	-9.863700	24.739480	-0.000137	20.867278
1687.525843	-2.989100	3.311800	-9.899000	24.754567	-0.000134	20.871987
1688.522154	-2.994400	3.311700	-9.915300	24.755632	-0.000135	20.850771
1689.520880	-2.970300	3.311400	-9.834300	24.751650	-0.000135	20.839664
1690.526550	-2.987400	3.311400	-9.890600	24.756191	-0.000134	20.839954
1691.525531	-2.999100	3.311000	-9.928400	24.743849	-0.000134	20.841318
1692.524090	-3.012000	3.310800	-9.970900	24.770189	-0.000133	20.825078
1693.525497	-3.001000	3.309800	-9.931400	24.755673	-0.000136	20.834218
1694.526984	-2.995700	3.308900	-9.911600	24.754324	-0.000134	20.834761
1695.528696	-3.001400	3.309200	-9.931400	24.779654	-0.000136	20.829361
1696.528187	-3.004200	3.309500	-9.941700	24.764409	-0.000134	20.819752
1697.530015	-2.998600	3.307900	-9.917700	24.750606	-0.000135	20.843357
1698.534740	-2.972200	3.309100	-9.835100	24.752533	-0.000134	20.827274
1699.530018	-2.993700	3.308100	-9.902800	24.755858	-0.000134	20.818757
1700.529947	-2.996400	3.308300	-9.911700	24.775400	-0.000135	20.832678
1701.529902	-3.002300	3.307300	-9.928700	24.764602	-0.000133	20.838437
1702.526868	-3.006900	3.306800	-9.942500	24.766365	-0.000134	20.831672
1703.533030	-2.998100	3.305700	-9.910000	24.789062	-0.000134	20.826475
1704.527794	-3.012900	3.305100	-9.956700	24.782762	-0.000133	20.832480
1705.528131	-3.006600	3.305200	-9.937200	24.788602	-0.000135	20.832650
1706.531706	-3.001100	3.306600	-9.922700	24.787556	-0.000134	20.832549
1707.530651	-3.002900	3.304700	-9.922700	24.769872	-0.000134	20.847045
1708.532561	-2.993200	3.304200	-9.888600	24.769216	-0.000135	20.825524
1709.534186	-3.010400	3.304500	-9.947500	24.784430	-0.000133	20.820877
1710.532511	-2.996900	3.305300	-9.904900	24.800209	-0.000133	20.800204
1711.533751	-3.000900	3.304100	-9.914700	24.788769	-0.000133	20.820491
1712.532267	-3.001100	3.303800	-9.914500	24.795251	-0.000132	20.817987
1713.530039	-3.009500	3.302600	-9.938000	24.789675	-0.000133	20.835150
1714.537181	-2.983900	3.302500	-9.853400	24.809783	-0.000133	20.823087
1715.533923	-3.000700	3.303100	-9.909900	24.817713	-0.000135	20.832943
1716.532670	-3.012300	3.300900	-9.942000	24.810512	-0.000134	20.810069
1717.533799	-3.012600	3.301400	-9.944900	24.796111	-0.000135	20.831178
1718.533775	-3.011000	3.301600	-9.940100	24.796577	-0.000133	20.810783
1719.535230	-3.015500	3.300300	-9.950600	24.813553	-0.000133	20.822604
1720.533367	-3.012000	3.300100	-9.939000	24.797180	-0.000133	20.824665
1721.530925	-3.011600	3.298300	-9.932900	24.814528	-0.000135	20.807936
1722.531045	-2.989900	3.299600	-9.864100	24.812134	-0.000136	20.833508
1723.531229	-2.999800	3.299200	-9.896600	24.811875	-0.000134	20.810963
1724.537348	-3.027600	3.297800	-9.983500	24.839970	-0.000135	20.807391
1725.535561	-2.992800	3.298000	-9.868800	24.816189	-0.000134	20.812448
1726.535677	-2.998700	3.298200	-9.889200	24.839906	-0.000134	20.799266
1727.539877	-3.023200	3.296800	-9.965900	24.822570	-0.000134	20.821696
1728.535652	-2.992500	3.298300	-9.869300	24.842198	-0.000135	20.804885
1729.537985	-3.004500	3.298200	-9.907900	24.827029	-0.000134	20.803886
1730.540158	-3.012000	3.296100	-9.926600	24.801755	-0.000134	20.800333
1731.536567	-2.990400	3.297900	-9.861400	24.802769	-0.000135	20.791867
1732.537122	-3.018900	3.295700	-9.949000	24.820186	-0.000133	20.794648
1733.538001	-3.014000	3.296000	-9.932800	24.833094	-0.000134	20.802386
1734.540787	-3.010600	3.294900	-9.918300	24.831965	-0.000133	20.799831
1735.541151	-2.997800	3.295800	-9.878500	24.845231	-0.000131	20.811248
1736.539267	-3.009100	3.294500	-9.912700	24.829968	-0.000134	20.809206
1737.541371	-3.034200	3.293300	-9.991800	24.837539	-0.000133	20.813486
1738.542966	-3.008300	3.294800	-9.911200	24.845142	-0.000132	20.786029
1739.539130	-2.994700	3.294500	-9.864900	24.857394	-0.000134	20.791212
1740.541450	-3.013100	3.293300	-9.921800	24.859756	-0.000133	20.812075
1741.541933	-2.994000	3.293000	-9.858400	24.849601	-0.000131	20.797142
1742.538775	-2.985400	3.293800	-9.832200	24.860316	-0.000133	20.792249
1743.540644	-2.986500	3.291900	-9.830300	24.864316	-0.000132	20.795789
1744.538972	-2.994300	3.292200	-9.856900	24.851459	-0.000133	20.808964
1745.543142	-3.022300	3.290800	-9.944300	24.870382	-0.000133	20.787178
1746.547635	-3.010700	3.290200	-9.905300	24.852051	-0.000130	20.798178
1747.542548	-2.989400	3.291200	-9.837900	24.869625	-0.000130	20.809178
1748.543313	-3.008200	3.290700	-9.898900	24.852063	-0.000132	20.790130
1749.537698	-2.970200	3.290200	-9.770700	24.830727	-0.000132	20.793373
1750.542517	-3.010700	3.288400	-9.899800	24.847061	-0.000132	20.775152
1751.545945	-3.019700	3.287300	-9.925600	24.844194	-0.000134	20.785552
1752.545875	-2.992900	3.289000	-9.843200	24.842669	-0.000131	20.779754
1753.542782	-3.020800	3.288600	-9.933100	24.866764	-0.000133	20.793030
1754.548722	-3.007400	3.288100	-9.887700	24.860446	-0.000132	20.786215
1755.542831	-2.992600	3.288800	-9.841500	24.855469	-0.000133	20.796393
1756.545579	-3.003100	3.286400	-9.869000	24.881075	-0.000132	20.783686
1757.547180	-3.012200	3.287400	-9.901600	24.863343	-0.000133	20.770156
1758.545628	-2.994400	3.287000	-9.841900	24.881616	-0.000133	20.771901
1759.543068	-2.986400	3.287100	-9.815500	24.878851	-0.000132	20.780031
1760.543002	-3.028400	3.284300	-9.945300	24.878032	-0.000134	20.765458
1761.545706	-3.002600	3.284800	-9.861700	24.885710	-0.000132	20.781700
1762.545570	-2.995300	3.284500	-9.837100	24.882107	-0.000134	20.778558
1763.545746	-2.991400	3.284600	-9.824400	24.892097	-0.000134	20.775782
1764.545932	-3.003900	3.284600	-9.865900	24.908279	-0.000132	20.778747
1765.547556	-3.024300	3.282800	-9.927200	24.904493	-0.000131	20.779689
1766.551023	-3.000400	3.282700	-9.848300	24.901583	-0.000131	20.766336
1767.547270	-2.978300	3.283100	-9.777200	24.902182	-0.000135	20.766463
1768.548920	-2.995200	3.284300	-9.836000	24.921072	-0.000132	20.786371
1769.547568	-3.011700	3.282500	-9.884900	24.928662	-0.000135	20.782610
1770.548581	-2.999700	3.282400	-9.845600	24.897356	-0.000132	20.745498
1771.544937	-2.987900	3.281800	-9.804900	24.923156	-0.000133	20.769971
1772.553783	-2.993400	3.282800	-9.825200	24.930942	-0.000134	20.764983
1773.551529	-3.013400	3.281100	-9.885500	24.915446	-0.000132	20.754646
1774.547631	-2.994400	3.281300	-9.824500	24.920524	-0.000134	20.767803
1775.553887	-3.028900	3.279000	-9.931200	24.919944	-0.000132	20.771488
1776.548580	-3.007700	3.278900	-9.861600	24.937593	-0.000131	20.775452
1777.549972	-2.988700	3.279800	-9.801700	24.933662	-0.000131	20.762972
1778.551193	-2.978700	3.280500	-9.770100	24.955368	-0.000132	20.764369
1779.547891	-2.992500	3.278500	-9.810600	24.942021	-0.000133	20.764723
1780.552622	-2.992100	3.279600	-9.811900	24.936201	-0.000133	20.768839
1781.555489	-3.007800	3.278200	-9.859400	24.951733	-0.000132	20.755979
1782.552808	-3.006000	3.276500	-9.848800	24.954001	-0.000133	20.758256
1783.551375	-2.983200	3.276600	-9.773600	24.933908	-0.000131	20.755632
1784.557679	-2.998100	3.276900	-9.823700	24.935992	-0.000132	20.753931
1785.552465	-2.995400	3.276500	-9.813500	24.944427	-0.000134	20.754810
1786.550171	-2.992300	3.276600	-9.803300	24.941416	-0.000132	20.769332
1787.553799	-2.994800	3.275100	-9.807300	24.947607	-0.000130	20.764641
1788.552641	-2.994200	3.276200	-9.809200	24.960438	-0.000133	20.764717
1789.550891	-3.004800	3.275100	-9.840100	24.966258	-0.000132	20.773404
1790.556800	-2.994300	3.275700	-9.807600	24.959140	-0.000133	20.754405
1791.556967	-2.998300	3.275500	-9.820600	24.958447	-0.000133	20.758926
1792.555329	-2.960400	3.274900	-9.693900	24.964488	-0.000133	20.750763
1793.560655	-2.996100	3.273600	-9.805700	24.951387	-0.000131	20.763218
1794.554778	-2.986300	3.271800	-9.769600	24.955815	-0.000130	20.750593
1795.552890	-2.996400	3.272400	-9.804800	24.970604	-0.000132	20.754057
1796.554731	-2.991600	3.272100	-9.787800	24.971379	-0.000132	20.761948
1797.552915	-2.994600	3.271600	-9.797200	24.990299	-0.000131	20.748696
1798.553572	-3.017300	3.272000	-9.871400	24.979611	-0.000134	20.753615
1799.558949	-3.024200	3.271000	-9.890800	24.970484	-0.000131	20.743506
1800.556674	-3.048000	3.268400	-9.960600	24.965616	-0.000131	20.756163
1801.557063	-2.994900	3.270000	-9.792500	24.967808	-0.000131	20.754096
1802.559123	-3.019200	3.270100	-9.872000	25.003753	-0.000133	20.738966
1803.553034	-2.993600	3.269600	-9.786900	24.968626	-0.000134	20.761556
1804.556063	-3.016500	3.269200	-9.860000	24.962561	-0.000132	20.736501
1805.557222	-3.018100	3.267900	-9.861700	24.980115	-0.000133	20.746534
1806.557950	-3.003600	3.267400	-9.813400	24.965773	-0.000133	20.741622
1807.560205	-2.981900	3.268900	-9.746600	24.977778	-0.000132	20.759362
1808.564806	-2.992600	3.267900	-9.779000	24.969553	-0.000132	20.744467
1809.562868	-2.977200	3.267200	-9.726400	25.008364	-0.000132	20.743595
1810.562258	-2.982300	3.265800	-9.739000	25.000315	-0.000130	20.745473
1811.566932	-3.000400	3.266000	-9.799000	24.990124	-0.000129	20.744727
1812.561767	-3.006400	3.265600	-9.817100	25.000466	-0.000132	20.719545
1813.565698	-3.003500	3.265900	-9.808700	24.992883	-0.000131	20.745125
1814.562766	-2.989700	3.265400	-9.761600	25.003508	-0.000127	20.739669
1815.564716	-2.980800	3.264000	-9.728000	25.021232	-0.000129	20.739442
1816.565562	-3.017100	3.262900	-9.842700	25.014694	-0.000131	20.725292
1817.566091	-2.983400	3.264100	-9.736900	25.016313	-0.000129	20.759635
1818.565411	-3.001500	3.264000	-9.795800	25.019771	-0.000129	20.747459
1819.564830	-2.985900	3.262800	-9.741000	25.013435	-0.000130	20.746315
1820.568142	-2.960900	3.262500	-9.658800	25.002772	-0.000129	20.740353
1821.563973	-3.005300	3.261000	-9.799300	25.005411	-0.000129	20.723086
1822.561944	-3.005100	3.262400	-9.803100	25.004297	-0.000130	20.739986
1823.564112	-2.994200	3.260700	-9.761900	25.000738	-0.000131	20.734043
1824.567099	-3.020800	3.259900	-9.845800	25.011602	-0.000130	20.748268
1825.567734	-2.994700	3.259600	-9.760600	25.010091	-0.000129	20.743432
1826.570860	-3.028300	3.259700	-9.870200	25.018096	-0.000130	20.713059
1827.567831	-2.995000	3.258800	-9.759300	25.011861	-0.000130	20.737622
1828.568476	-2.998300	3.258800	-9.770700	25.016087	-0.000130	20.738071
1829.570467	-3.007000	3.258900	-9.798500	25.041281	-0.000129	20.744868
1830.567839	-3.024500	3.258000	-9.852800	25.028123	-0.000128	20.733557
1831.570734	-2.987400	3.258400	-9.733100	25.026341	-0.000128	20.719439
1832.567206	-3.014700	3.257300	-9.819800	25.021845	-0.000129	20.736264
1833.571000	-2.992200	3.258200	-9.748200	25.032312	-0.000129	20.739185
1834.571287	-3.028700	3.254900	-9.857100	25.021007	-0.000128	20.745855
1835.572090	-3.008900	3.255800	-9.795900	25.036570	-0.000125	20.726863
1836.569207	-3.047900	3.254700	-9.919400	25.036753	-0.000128	20.722779
1837.570820	-2.976000	3.256900	-9.691100	25.022456	-0.000126	20.709849
1838.572166	-3.013600	3.253700	-9.803900	25.037402	-0.000129	20.738604
1839.568038	-3.000800	3.253900	-9.763300	25.048670	-0.000128	20.739957
1840.573356	-2.983700	3.253700	-9.707000	25.031715	-0.000127	20.716773
1841.574679	-3.026500	3.252500	-9.842900	25.036269	-0.000127	20.719922
1842.574342	-3.006900	3.252500	-9.779100	25.053721	-0.000128	20.734596
1843.575383	-2.988200	3.252600	-9.718300	25.040924	-0.000126	20.744510
1844.579080	-3.010600	3.252100	-9.789500	25.056310	-0.000125	20.733401
1845.572322	-3.005300	3.250900	-9.768300	25.059529	-0.000128	20.719088
1846.574551	-2.990000	3.251100	-9.720200	25.069524	-0.000124	20.740976
1847.579696	-2.977500	3.250400	-9.677300	25.071665	-0.000127	20.726530
1848.572495	-2.983000	3.249300	-9.691700	25.047651	-0.000126	20.720915
1849.571575	-2.996800	3.249300	-9.736000	25.076478	-0.000127	20.744164
1850.578834	-3.029800	3.247600	-9.838500	25.067125	-0.000127	20.739991
1851.571929	-2.993900	3.248500	-9.725000	25.083909	-0.000125	20.726493
1852.575190	-3.018900	3.247800	-9.803600	25.082770	-0.000125	20.728668
1853.578012	-3.009800	3.247700	-9.774400	25.072403	-0.000128	20.735332
1854.574762	-3.014400	3.247200	-9.786700	25.081258	-0.000126	20.736634
1855.578178	-2.974000	3.247500	-9.657200	25.073877	-0.000128	20.720689
1856.584334	-3.006300	3.246400	-9.758300	25.069085	-0.000127	20.723465
1857.575383	-2.998300	3.246700	-9.733800	25.087437	-0.000126	20.739992
1858.578550	-2.999300	3.244900	-9.731200	25.083035	-0.000126	20.726563
1859.582726	-2.999200	3.246100	-9.734800	25.081795	-0.000127	20.739543
1860.580813	-3.014900	3.245300	-9.783000	25.098824	-0.000124	20.733404
1861.580974	-3.005000	3.245100	-9.750200	25.073608	-0.000124	20.743180
1862.579904	-2.994300	3.245300	-9.716700	25.109298	-0.000126	20.733013
1863.581688	-3.006400	3.242400	-9.746900	25.104210	-0.000127	20.737388
1864.577182	-3.006900	3.241800	-9.746100	25.091324	-0.000126	20.731565
1865.582107	-3.018800	3.241100	-9.783500	25.092546	-0.000126	20.721886
1866.578495	-3.000400	3.241200	-9.723000	25.096400	-0.000125	20.712004
1867.578718	-3.008600	3.241200	-9.750700	25.112812	-0.000127	20.746973
1868.581750	-2.996900	3.240700	-9.710800	25.112938	-0.000128	20.731452
1869.580858	-2.997700	3.240700	-9.713000	25.105306	-0.000126	20.742756
1870.582335	-3.015700	3.240000	-9.770200	25.105457	-0.000125	20.751443
1871.582137	-3.011600	3.239000	-9.753600	25.120276	-0.000128	20.751146
1872.580918	-3.014900	3.239600	-9.765900	25.104248	-0.000127	20.734108
1873.580962	-3.008300	3.238300	-9.739300	25.099474	-0.000125	20.735954
1874.580501	-2.996300	3.239400	-9.705200	25.131146	-0.000125	20.731712
1875.580242	-2.980700	3.238000	-9.650000	25.120207	-0.000128	20.754396
1876.581085	-2.992100	3.237200	-9.685400	25.129300	-0.000126	20.727488
1877.585225	-2.974700	3.237300	-9.629500	25.120849	-0.000126	20.759783
1878.582266	-3.015200	3.235300	-9.754000	25.110854	-0.000125	20.739317
1879.581317	-3.007900	3.235900	-9.732300	25.104317	-0.000126	20.743187
1880.584437	-3.003200	3.235600	-9.716400	25.141076	-0.000123	20.737888
1881.583207	-3.021700	3.235000	-9.774400	25.127530	-0.000125	20.741359
1882.580171	-3.004800	3.235600	-9.721200	25.113033	-0.000124	20.720166
1883.585900	-2.989600	3.235000	-9.670500	25.129413	-0.000125	20.730920
1884.580007	-2.996400	3.234000	-9.689900	25.109178	-0.000125	20.727203
1885.580982	-2.992000	3.233100	-9.672100	25.116105	-0.000126	20.750279
1886.584835	-2.980500	3.232400	-9.633200	25.114090	-0.000125	20.735453
1887.583005	-2.993200	3.233600	-9.677600	25.113567	-0.000126	20.740618
1888.580420	-3.016900	3.231700	-9.748700	25.126043	-0.000126	20.707147
1889.583706	-2.986500	3.231900	-9.651300	25.117371	-0.000126	20.730212
1890.581867	-3.004300	3.231000	-9.705300	25.117786	-0.000125	20.742483
1891.581912	-3.021700	3.229600	-9.757100	25.135666	-0.000125	20.728663
1892.583752	-3.009500	3.229600	-9.718500	25.117383	-0.000125	20.744923
1893.581026	-2.981300	3.229400	-9.626400	25.116268	-0.000125	20.741433
1894.582060	-3.010700	3.228300	-9.717200	25.122913	-0.000124	20.729611
1895.586883	-3.014400	3.227400	-9.727200	25.123800	-0.000122	20.735244
1896.583183	-2.976200	3.228700	-9.608300	25.138669	-0.000127	20.734997
1897.583303	-2.999700	3.227100	-9.679400	25.136326	-0.000124	20.742603
1898.590153	-2.988500	3.226100	-9.639800	25.180755	-0.000126	20.732677
1899.585983	-3.006100	3.226200	-9.697900	25.150729	-0.000126	20.726715
1900.584179	-2.994600	3.225100	-9.657100	25.141106	-0.000127	20.725590
1901.590579	-3.000300	3.224500	-9.672900	25.148267	-0.000128	20.722346
1902.584281	-3.009100	3.223900	-9.700300	25.166662	-0.000126	20.735124
1903.586102	-3.007900	3.223800	-9.695900	25.164036	-0.000125	20.750033
1904.591897	-2.990100	3.224000	-9.638700	25.161303	-0.000125	20.744444
1905.587091	-3.010200	3.222400	-9.699600	25.162468	-0.000125	20.742768
1906.586946	-2.986500	3.223100	-9.624400	25.163564	-0.000125	20.754300
1907.590155	-3.007400	3.222600	-9.690800	25.182128	-0.000125	20.738797
1908.588194	-3.053200	3.219400	-9.827500	25.163967	-0.000125	20.752808
1909.586078	-2.982800	3.220800	-9.606000	25.183772	-0.000125	20.749457
1910.588842	-3.006800	3.220800	-9.683100	25.193369	-0.000124	20.749135
1911.586545	-2.988100	3.220200	-9.621700	25.191556	-0.000123	20.751107
1912.587096	-3.005400	3.219100	-9.673400	25.170025	-0.000126	20.745139
1913.589002	-2.995100	3.218600	-9.638500	25.193174	-0.000124	20.759371
1914.586709	-2.989600	3.218200	-9.620700	25.196430	-0.000124	20.737508
1915.588250	-3.016900	3.217600	-9.705500	25.187261	-0.000124	20.746322
1916.595277	-3.014900	3.216400	-9.696100	25.203961	-0.000123	20.765933
1917.587956	-2.989300	3.216800	-9.614400	25.203886	-0.000127	20.734088
1918.586769	-2.993500	3.215900	-9.625700	25.216688	-0.000123	20.752631
1919.593684	-3.019600	3.214800	-9.706400	25.195284	-0.000125	20.733987
1920.589959	-3.000200	3.214300	-9.642900	25.208515	-0.000125	20.750589
1921.588882	-2.992000	3.214600	-9.617000	25.219893	-0.000123	20.753952
1922.593801	-3.006400	3.214000	-9.662100	25.210674	-0.000123	20.768879
1923.588245	-2.999700	3.212400	-9.635400	25.222651	-0.000125	20.755299
1924.588052	-2.980300	3.212100	-9.572100	25.204553	-0.000123	20.749931
1925.591064	-3.000200	3.211300	-9.633700	25.222431	-0.000122	20.759820
1926.591674	-2.990900	3.211900	-9.605400	25.212091	-0.000124	20.772199
1927.588692	-3.000100	3.209600	-9.628300	25.219345	-0.000122	20.754351
1928.597196	-3.004400	3.210400	-9.643900	25.218822	-0.000122	20.737704
1929.593233	-3.006200	3.209300	-9.646900	25.226505	-0.000124	20.776238
1930.589039	-3.002900	3.209600	-9.636700	25.223992	-0.000120	20.771819
1931.599011	-2.996600	3.208300	-9.612500	25.237789	-0.000122	20.759118
1932.593535	-3.024400	3.207200	-9.699100	25.216631	-0.000123	20.764428
1933.594370	-2.974800	3.207300	-9.540000	25.212084	-0.000122	20.757493
1934.598759	-2.992900	3.207400	-9.598400	25.238904	-0.000121	20.748856
1935.594937	-3.017100	3.204800	-9.668000	25.229181	-0.000123	20.754268
1936.591874	-3.009800	3.206100	-9.649200	25.244709	-0.000121	20.748995
1937.599574	-3.005300	3.204800	-9.630200	25.265527	-0.000120	20.759940
1938.594403	-2.980300	3.205000	-9.550900	25.226574	-0.000122	20.759712
1939.595066	-3.000500	3.203300	-9.610100	25.246561	-0.000122	20.743742
1940.596812	-3.005800	3.202600	-9.625300	25.246290	-0.000122	20.740151
1941.596165	-2.983800	3.202500	-9.554800	25.265520	-0.000122	20.760881
1942.594657	-3.001900	3.201700	-9.610000	25.281490	-0.000121	20.774070
1943.596612	-3.005300	3.200300	-9.616800	25.274280	-0.000121	20.763512
1944.596185	-3.005600	3.199200	-9.614600	25.273833	-0.000122	20.781555
1945.595834	-3.000300	3.200300	-9.600700	25.279500	-0.000123	20.764011
1946.597602	-2.979400	3.201400	-9.537200	25.242638	-0.000122	20.776314
1947.597634	-3.006600	3.198900	-9.616600	25.267221	-0.000123	20.759744
1948.600222	-3.001100	3.198900	-9.598900	25.281389	-0.000122	20.773020
1949.595043	-3.004800	3.198300	-9.608600	25.264431	-0.000123	20.761210
1950.595426	-2.984100	3.197500	-9.541000	25.274727	-0.000120	20.762538
1951.600149	-2.998400	3.196600	-9.584400	25.267989	-0.000120	20.765731
1952.596894	-3.019200	3.195400	-9.646700	25.286886	-0.000120	20.761470
1953.597256	-3.009100	3.195500	-9.614600	25.286295	-0.000121	20.770359
1954.597293	-3.008500	3.194800	-9.611100	25.301425	-0.000120	20.769430
1955.597292	-2.970500	3.195400	-9.490800	25.286533	-0.000121	20.768228
1956.597603	-3.020600	3.194200	-9.647700	25.299965	-0.000121	20.776498
1957.601978	-2.984200	3.193800	-9.529600	25.296615	-0.000121	20.781196
1958.596825	-2.971900	3.194400	-9.492900	25.312073	-0.000120	20.766370
1959.597892	-2.989000	3.192300	-9.541000	25.313761	-0.000120	20.783712
1960.602700	-3.002000	3.191300	-9.578900	25.307294	-0.000120	20.782909
1961.596519	-3.012700	3.190800	-9.611600	25.298353	-0.000121	20.753068
1962.599767	-2.992800	3.189300	-9.543000	25.323061	-0.000120	20.765074
1963.601242	-3.007100	3.189600	-9.590100	25.329924	-0.000121	20.771966
1964.600387	-2.975800	3.189500	-9.490300	25.317376	-0.000119	20.783074
1965.601004	-2.975100	3.187900	-9.483200	25.327267	-0.000119	20.780204
1966.603081	-3.007200	3.186400	-9.581400	25.333010	-0.000120	20.785970
1967.600813	-3.013300	3.186800	-9.602300	25.320342	-0.000119	20.776095
1968.597726	-3.000800	3.185800	-9.559200	25.330807	-0.000120	20.779490
1969.604098	-3.015700	3.185100	-9.604100	25.314235	-0.000120	20.789403
1970.598669	-2.997400	3.186500	-9.551300	25.332753	-0.000119	20.787608
1971.601493	-3.004500	3.183400	-9.563900	25.358555	-0.000118	20.788860
1972.603931	-3.024100	3.182500	-9.623800	25.366414	-0.000120	20.783000
1973.601506	-3.005100	3.182800	-9.563400	25.345258	-0.000119	20.787836
1974.601139	-2.952300	3.183500	-9.397400	25.362088	-0.000119	20.783872
1975.604026	-2.991500	3.182600	-9.519800	25.368605	-0.000118	20.788045
1976.601976	-2.979800	3.181400	-9.479000	25.354633	-0.000117	20.779706
1977.602158	-3.004500	3.179900	-9.552800	25.365872	-0.000117	20.790043
1978.608118	-3.015400	3.180300	-9.588500	25.362617	-0.000118	20.781085
1979.598855	-2.998500	3.180600	-9.535800	25.370054	-0.000119	20.807517
1980.602098	-2.999200	3.178800	-9.532900	25.363915	-0.000120	20.792819
1981.604526	-3.004700	3.178400	-9.549400	25.365930	-0.000118	20.794368
1982.604405	-3.002500	3.177400	-9.539700	25.370576	-0.000119	20.794292
1983.605999	-3.013300	3.175900	-9.568800	25.399954	-0.000118	20.794867
1984.608938	-2.993200	3.175900	-9.504700	25.361409	-0.000118	20.775130
1985.607122	-2.953500	3.176700	-9.381600	25.380229	-0.000119	20.803510
1986.601573	-3.021800	3.174500	-9.591500	25.393941	-0.000118	20.783614
1987.607521	-3.012400	3.174200	-9.561100	25.376949	-0.000118	20.802587
1988.603038	-3.033400	3.172100	-9.620500	25.380506	-0.000119	20.791935
1989.605255	-3.024400	3.173000	-9.595400	25.378044	-0.000117	20.786618
1990.608698	-2.962500	3.173800	-9.401800	25.398778	-0.000116	20.809333
1991.607906	-2.992600	3.173100	-9.494800	25.407970	-0.000120	20.805287
1992.608487	-2.998400	3.171100	-9.507100	25.396770	-0.000119	20.800679
1993.610299	-3.010500	3.169900	-9.542400	25.411037	-0.000116	20.795564
1994.609715	-2.983400	3.169300	-9.454200	25.403110	-0.000117	20.808468
1995.610281	-2.980000	3.169700	-9.444800	25.401574	-0.000116	20.788908
1996.608747	-2.994400	3.169100	-9.488800	25.415866	-0.000116	20.808949
1997.607667	-2.978900	3.169100	-9.439500	25.426702	-0.000118	20.807027
1998.607770	-3.008000	3.166400	-9.524000	25.426312	-0.000117	20.808058
1999.608788	-2.998200	3.165200	-9.489700	25.408047	-0.000115	20.822908
2000.610101	-2.992100	3.165000	-9.468500	25.418014	-0.000117	20.826752
2001.610123	-3.035400	3.164100	-9.602300	25.420583	-0.000117	20.808470
2002.608827	-2.971100	3.165300	-9.402800	25.438873	-0.000118	20.810714
2003.614029	-2.975600	3.164100	-9.413700	25.439597	-0.000118	20.809544
2004.612618	-2.996600	3.162400	-9.475400	25.457572	-0.000117	20.819060
2005.613188	-3.021100	3.162000	-9.551700	25.459032	-0.000117	20.805353
2006.609823	-3.028400	3.160900	-9.571600	25.447512	-0.000118	20.830768
2007.611882	-3.010300	3.161100	-9.515100	25.441121	-0.000115	20.821506
2008.615955	-3.009600	3.160500	-9.510700	25.456036	-0.000117	20.817991
2009.614019	-3.015800	3.159600	-9.527600	25.458253	-0.000119	20.826855
2010.615303	-3.000300	3.160500	-9.481600	25.472216	-0.000117	20.793462
2011.618584	-3.010300	3.158800	-9.508400	25.474155	-0.000117	20.821962
2012.615526	-3.012600	3.157100	-9.510200	25.477197	-0.000116	20.825490
2013.615950	-3.011000	3.156800	-9.504400	25.475485	-0.000117	20.814288
2014.620553	-3.017200	3.155900	-9.520800	25.489240	-0.000117	20.826204
2015.614289	-2.990800	3.156100	-9.438700	25.489826	-0.000117	20.832483
2016.614697	-3.015200	3.154300	-9.509300	25.476876	-0.000117	20.826116
2017.621370	-3.021800	3.154300	-9.530800	25.477694	-0.000116	20.831205
2018.618517	-3.007100	3.153400	-9.481900	25.488705	-0.000117	20.826142
2019.619652	-3.031400	3.153000	-9.557200	25.490172	-0.000117	20.825244
2020.619790	-2.972600	3.153100	-9.371500	25.492187	-0.000117	20.815413
2021.615867	-3.012300	3.152800	-9.496200	25.480617	-0.000116	20.846941
2022.621124	-2.995200	3.152800	-9.442900	25.503342	-0.000119	20.822348
2023.618910	-2.986100	3.150300	-9.405800	25.508039	-0.000117	20.822797
2024.616713	-2.974800	3.150900	-9.372200	25.491690	-0.000116	20.822974
2025.621505	-2.999200	3.148200	-9.440800	25.522361	-0.000117	20.833861
2026.619558	-3.000600	3.146900	-9.442400	25.522084	-0.000117	20.832160
2027.620237	-2.995000	3.146800	-9.423800	25.517615	-0.000116	20.830043
2028.624386	-3.009600	3.147200	-9.471500	25.506503	-0.000116	20.833109
2029.621109	-3.006300	3.145900	-9.456300	25.522884	-0.000116	20.856196
2030.618679	-3.016300	3.146200	-9.489200	25.534580	-0.000118	20.841864
2031.618589	-3.020800	3.144600	-9.498600	25.551093	-0.000114	20.824783
2032.621770	-3.031500	3.144000	-9.529900	25.557250	-0.000116	20.839026
2033.622618	-3.008000	3.144200	-9.457400	25.543489	-0.000116	20.840379
2034.624192	-2.992100	3.143100	-9.404300	25.530615	-0.000116	20.846891
2035.620528	-2.997900	3.141200	-9.416200	25.553184	-0.000116	20.856279
2036.619739	-2.983700	3.141400	-9.372400	25.554625	-0.000117	20.843029
2037.627744	-2.966100	3.141500	-9.316800	25.549734	-0.000114	20.858030
2038.624277	-2.988000	3.141000	-9.384800	25.538302	-0.000115	20.873101
2039.621114	-3.004800	3.140300	-9.435100	25.537591	-0.000113	20.846785
2040.623859	-3.002000	3.139000	-9.422500	25.570912	-0.000117	20.840893
2041.624994	-3.023300	3.137100	-9.483600	25.554488	-0.000114	20.853321
2042.625830	-3.021600	3.136600	-9.476400	25.579190	-0.000115	20.831663
2043.632697	-3.002800	3.134800	-9.412400	25.576433	-0.000117	20.837429
2044.626769	-2.977100	3.136500	-9.336500	25.569974	-0.000116	20.840899
2045.626915	-2.962000	3.135900	-9.287500	25.577384	-0.000115	20.836961
2046.630250	-2.995800	3.135100	-9.391200	25.583899	-0.000115	20.840660
2047.621517	-3.008700	3.134600	-9.429000	25.569509	-0.000116	20.854656
2048.626544	-2.989400	3.134700	-9.370200	25.601739	-0.000116	20.847671
2049.627558	-2.999100	3.132800	-9.395000	25.579877	-0.000117	20.833776
2050.626117	-2.992100	3.131300	-9.368600	25.560942	-0.000118	20.850320
2051.628520	-2.989700	3.130400	-9.357600	25.578965	-0.000115	20.852773
2052.632212	-3.007400	3.130300	-9.413500	25.569793	-0.000114	20.863476
2053.629885	-2.990900	3.129900	-9.361100	25.591612	-0.000114	20.859784
2054.629157	-2.991900	3.128000	-9.358000	25.583838	-0.000115	20.863356
2055.630989	-3.007800	3.128600	-9.409700	25.587935	-0.000114	20.854670
2056.629159	-2.994800	3.126000	-9.361300	25.587759	-0.000115	20.881044
2057.631130	-2.981500	3.125800	-9.318300	25.579884	-0.000116	20.879773
2058.631982	-2.985400	3.125200	-9.329200	25.623621	-0.000115	20.865379
2059.632386	-2.978500	3.126200	-9.310300	25.602553	-0.000114	20.870298
2060.631250	-2.977900	3.124800	-9.304200	25.606348	-0.000115	20.854670
2061.634672	-2.983000	3.124800	-9.320600	25.622035	-0.000116	20.892234
2062.628685	-3.004300	3.123400	-9.382500	25.636872	-0.000115	20.876790
2063.632004	-2.991300	3.122800	-9.340800	25.640642	-0.000114	20.871094
2064.632860	-3.011800	3.120900	-9.399000	25.641990	-0.000113	20.864387
2065.630964	-3.015700	3.120200	-9.408300	25.620424	-0.000115	20.869280
2066.631782	-3.011300	3.120000	-9.394600	25.645691	-0.000116	20.870001
2067.635246	-3.000200	3.119800	-9.358300	25.653100	-0.000113	20.865115
2068.632534	-3.011700	3.120000	-9.395700	25.628753	-0.000115	20.882385
2069.634130	-3.034200	3.120200	-9.466600	25.667936	-0.000115	20.879067
2070.639896	-2.978600	3.118400	-9.286900	25.656556	-0.000115	20.880438
2071.635065	-2.988300	3.118500	-9.318200	25.659269	-0.000115	20.868466
2072.634116	-2.977000	3.116700	-9.276700	25.654448	-0.000114	20.859830
2073.638956	-2.978000	3.115100	-9.275600	25.669007	-0.000115	20.877771
2074.635179	-3.031700	3.113300	-9.437800	25.665929	-0.000116	20.895541
2075.635931	-2.981000	3.113200	-9.278800	25.659388	-0.000116	20.881520
2076.638319	-3.002900	3.111400	-9.342300	25.660711	-0.000117	20.868491
2077.637671	-3.008500	3.111900	-9.360900	25.661756	-0.000115	20.873808
2078.638463	-3.008600	3.110300	-9.357300	25.686380	-0.000115	20.889055
2079.640404	-3.016800	3.108800	-9.377300	25.681879	-0.000115	20.865570
2080.638141	-2.999600	3.110400	-9.328800	25.668642	-0.000117	20.892577
2081.638487	-2.991400	3.108300	-9.297100	25.696539	-0.000115	20.873656
2082.645975	-2.996200	3.108000	-9.310800	25.692964	-0.000115	20.883815
2083.637550	-2.983200	3.106900	-9.268000	25.696539	-0.000115	20.878397
2084.641618	-2.985100	3.107200	-9.274400	25.691944	-0.000114	20.895118
2085.643485	-2.972500	3.106200	-9.232100	25.701800	-0.000114	20.892689
2086.639506	-2.971100	3.105900	-9.227100	25.697364	-0.000116	20.878751
2087.638565	-3.016300	3.103300	-9.359700	25.710600	-0.000116	20.891571
2088.647686	-2.977000	3.104400	-9.240800	25.727173	-0.000117	20.876450
2089.640310	-3.021600	3.102200	-9.372600	25.708881	-0.000114	20.890793
2090.641284	-2.998100	3.102700	-9.300900	25.702197	-0.000116	20.877916
2091.643571	-3.035400	3.100400	-9.409200	25.708384	-0.000114	20.905465
2092.640182	-2.989700	3.101900	-9.272600	25.701278	-0.000114	20.898802
2093.641189	-3.008800	3.099800	-9.326300	25.738892	-0.000112	20.905762
2094.640650	-2.989300	3.097900	-9.258800	25.716957	-0.000113	20.888473
2095.642679	-3.004900	3.097100	-9.305100	25.732736	-0.000114	20.896736
2096.641253	-2.988300	3.096800	-9.252700	25.734593	-0.000115	20.889117
2097.641565	-3.005300	3.097600	-9.308500	25.712651	-0.000113	20.890786
2098.640938	-3.007600	3.095000	-9.307700	25.736279	-0.000114	20.895078
2099.640767	-2.985200	3.096900	-9.243600	25.742246	-0.000112	20.900123
2100.642605	-2.971000	3.096000	-9.197700	25.730589	-0.000112	20.891260
2101.641879	-3.022100	3.092700	-9.344500	25.721822	-0.000113	20.909005
2102.642377	-3.024900	3.092100	-9.352900	25.741919	-0.000113	20.886993
2103.647491	-2.998100	3.092800	-9.271300	25.744203	-0.000113	20.915364
2104.643162	-3.018900	3.090600	-9.329300	25.738142	-0.000112	20.898372
2105.641904	-2.981900	3.090800	-9.216200	25.740200	-0.000112	20.902335
2106.650578	-3.014200	3.089700	-9.311800	25.774068	-0.000113	20.898897
2107.645440	-3.024000	3.088000	-9.337300	25.735706	-0.000111	20.906356
2108.640841	-3.002100	3.088800	-9.271600	25.754934	-0.000111	20.905281
2109.646966	-2.953900	3.088000	-9.120400	25.766390	-0.000112	20.902089
2110.646667	-2.991500	3.087500	-9.235100	25.765640	-0.000113	20.913663
2111.647877	-3.005200	3.085600	-9.272200	25.760102	-0.000114	20.907152
2112.647913	-2.989800	3.083900	-9.218800	25.775730	-0.000112	20.927115
2113.646395	-2.999000	3.083800	-9.248000	25.770342	-0.000114	20.907007
2114.644050	-2.984100	3.083900	-9.201400	25.766440	-0.000113	20.898347
2115.650981	-3.023600	3.081500	-9.316700	25.772797	-0.000112	20.905205
2116.644602	-2.981600	3.082300	-9.189600	25.770090	-0.000113	20.911495
2117.644274	-2.994000	3.081400	-9.224500	25.784730	-0.000114	20.911976
2118.654279	-3.014800	3.079400	-9.282100	25.794895	-0.000113	20.912703
2119.650930	-3.024900	3.078100	-9.310100	25.813027	-0.000111	20.909106
2120.649588	-3.008800	3.077800	-9.259600	25.791937	-0.000113	20.894086
2121.653666	-3.012900	3.076300	-9.267400	25.799861	-0.000115	20.925276
2122.650123	-3.019200	3.076600	-9.287500	25.806350	-0.000113	20.909037
2123.652539	-3.014800	3.074200	-9.267000	25.808779	-0.000113	20.923803
2124.654956	-3.004800	3.074000	-9.235900	25.810818	-0.000111	20.900250
2125.647696	-2.979300	3.074400	-9.158700	25.812000	-0.000113	20.907127
2126.652218	-2.982300	3.073000	-9.164100	25.808779	-0.000113	20.884926
2127.653694	-3.004500	3.071700	-9.227200	25.817974	-0.000115	20.903171
2128.650523	-2.974600	3.072100	-9.137700	25.802416	-0.000113	20.910775
2129.649385	-3.014400	3.072000	-9.259000	25.791515	-0.000114	20.905990
2130.654046	-2.980500	3.071100	-9.153300	25.812259	-0.000114	20.892215
2131.649187	-3.014600	3.067400	-9.246100	25.797998	-0.000114	20.879313
2132.654075	-2.983900	3.068400	-9.154300	25.796582	-0.000113	20.883580
2133.658879	-2.969900	3.068700	-9.112900	25.800610	-0.000113	20.902324
2134.654294	-3.005000	3.067200	-9.215400	25.807326	-0.000115	20.894846
2135.656849	-3.016400	3.064000	-9.241300	25.831669	-0.000113	20.898436
2136.655467	-2.986800	3.064500	-9.152200	25.812857	-0.000114	20.903247
2137.656733	-2.999600	3.063100	-9.186100	25.826823	-0.000114	20.888353
2138.655066	-2.998800	3.062100	-9.181900	25.820197	-0.000113	20.902084
2139.660954	-3.000300	3.061600	-9.184600	25.833337	-0.000115	20.909594
2140.654285	-3.004900	3.062200	-9.199500	25.833835	-0.000111	20.900137
2141.657397	-3.017700	3.059000	-9.229700	25.835943	-0.000113	20.888031
2142.659597	-2.992100	3.058300	-9.149300	25.858184	-0.000115	20.906579
2143.659564	-2.962400	3.058800	-9.060500	25.850186	-0.000115	20.883847
2144.656079	-3.017300	3.056800	-9.222700	25.862357	-0.000113	20.906029
2145.655869	-3.001300	3.055900	-9.169900	25.855435	-0.000112	20.871103
2146.660078	-2.974900	3.056000	-9.090200	25.847184	-0.000112	20.893159
2147.658748	-2.996200	3.054500	-9.149700	25.873169	-0.000112	20.883228
2148.661643	-2.985500	3.053900	-9.116500	25.878758	-0.000112	20.871299
2149.661753	-3.015900	3.051500	-9.201800	25.880293	-0.000111	20.895124
2150.658089	-3.000600	3.050800	-9.153200	25.887877	-0.000113	20.872873
2151.661383	-3.006400	3.050200	-9.169500	25.871105	-0.000112	20.867405
2152.658836	-3.030300	3.049000	-9.237400	25.873213	-0.000112	20.895599
2153.662222	-2.983400	3.048400	-9.092900	25.882137	-0.000111	20.894607
2154.662251	-3.006000	3.047800	-9.160800	25.870298	-0.000111	20.887930
2155.661116	-3.011700	3.044900	-9.169200	25.893433	-0.000111	20.879403
2156.658483	-3.004300	3.045400	-9.148400	25.900059	-0.000111	20.906920
2157.657465	-2.985800	3.043500	-9.085900	25.896553	-0.000111	20.884434
2158.662412	-2.999200	3.042600	-9.124200	25.896013	-0.000111	20.880572
2159.663696	-2.999500	3.042900	-9.126200	25.890046	-0.000110	20.871260
2160.661222	-3.010800	3.040100	-9.151900	25.912972	-0.000111	20.871057
2161.665604	-3.002900	3.040400	-9.128900	25.910411	-0.000110	20.874648
2162.664556	-2.983800	3.039200	-9.067800	25.904293	-0.000111	20.877511
2163.665622	-3.002500	3.037600	-9.119500	25.901429	-0.000110	20.886487
2164.664711	-2.998500	3.036200	-9.103300	25.900856	-0.000110	20.867421
2165.662921	-2.994200	3.035800	-9.087800	25.909263	-0.000111	20.871598
2166.665779	-2.998400	3.034600	-9.097900	25.912718	-0.000109	20.863216
2167.666893	-2.984900	3.034000	-9.054400	25.914674	-0.000111	20.877983
2168.665466	-2.996700	3.033000	-9.087500	25.933918	-0.000112	20.843263
2169.665569	-3.004900	3.032500	-9.110500	25.929090	-0.000111	20.859276
2170.668201	-2.983300	3.031000	-9.041600	25.908273	-0.000110	20.864440
2171.663530	-2.997800	3.030800	-9.085000	25.920066	-0.000110	20.874390
2172.666819	-2.974500	3.028100	-9.005800	25.929120	-0.000111	20.878271
2173.669656	-2.987200	3.027800	-9.043800	25.924721	-0.000110	20.862947
2174.668377	-2.992400	3.027000	-9.057200	25.949358	-0.000109	20.850714
2175.671940	-3.002200	3.025200	-9.081200	25.951308	-0.000111	20.861681
2176.667759	-2.977500	3.024800	-9.004600	25.952151	-0.000112	20.843563
2177.678841	-3.023800	3.021700	-9.136500	25.916545	-0.000110	20.849043
2178.674140	-3.002200	3.021600	-9.070200	25.947631	-0.000111	20.857039
2179.675164	-2.982400	3.021200	-9.009100	25.946863	-0.000109	20.850104
2180.679523	-3.002100	3.019800	-9.064400	25.948153	-0.000110	20.848081
2181.673944	-3.021200	3.017300	-9.114600	25.958397	-0.000109	20.838458
2182.673844	-2.985900	3.017800	-9.010300	25.951909	-0.000109	20.874138
2183.676462	-3.023000	3.016000	-9.116500	25.937869	-0.000108	20.851025
2184.676184	-3.010600	3.014000	-9.073100	25.963618	-0.000109	20.863143
2185.672614	-3.006700	3.014900	-9.063000	25.969999	-0.000110	20.826407
2186.679283	-3.000200	3.012800	-9.037600	25.967009	-0.000110	20.829568
2187.673513	-3.003000	3.012300	-9.045900	25.964618	-0.000109	20.861777
2188.676337	-2.992100	3.011600	-9.009600	25.969356	-0.000109	20.855157
2189.678478	-2.991500	3.009700	-9.002100	25.996761	-0.000108	20.831483
2190.678424	-3.001400	3.008000	-9.027300	25.970682	-0.000110	20.846534
2191.679690	-2.998800	3.006200	-9.014300	26.007865	-0.000112	20.831260
2192.677150	-3.017500	3.004700	-9.065000	25.975420	-0.000110	20.824268
2193.677913	-2.988200	3.005100	-8.979100	25.975043	-0.000110	20.840483
2194.678358	-2.973200	3.004200	-8.931200	25.989125	-0.000110	20.820019
2195.677445	-2.987200	3.002300	-8.967500	25.999753	-0.000111	20.833067
2196.675786	-3.013700	3.001900	-9.046000	26.008418	-0.000110	20.851255
2197.681206	-3.006600	2.999000	-9.015400	26.008487	-0.000110	20.831884
2198.678093	-2.996700	2.999700	-8.988200	26.006693	-0.000112	20.820125
2199.677870	-2.992000	2.998400	-8.970200	26.013539	-0.000110	20.816572
2200.682095	-2.959800	2.996800	-8.868900	26.019926	-0.000112	20.828678
2201.679715	-2.982900	2.995700	-8.934500	26.012419	-0.000111	20.810705
2202.679128	-3.003100	2.994200	-8.990800	25.988419	-0.000113	20.828317
2203.682459	-2.985600	2.993900	-8.937200	26.009260	-0.000110	20.835031
2204.679054	-3.010500	2.991200	-9.002700	26.024556	-0.000111	20.821477
2205.679260	-3.021800	2.989700	-9.032300	26.023235	-0.000111	20.822046
2206.680830	-2.985900	2.990300	-8.928300	26.030886	-0.000112	20.839690
2207.681323	-2.985000	2.987800	-8.917600	26.050808	-0.000111	20.822248
2208.684669	-2.999000	2.987700	-8.958500	26.029212	-0.000111	20.828999
2209.688384	-2.986100	2.985500	-8.914600	26.037656	-0.000111	20.831793
2210.684268	-2.996300	2.984400	-8.941400	26.020408	-0.000111	20.832956
2211.685133	-2.965000	2.983900	-8.846400	26.020106	-0.000111	20.814635
2212.689107	-3.000000	2.982900	-8.947000	26.047968	-0.000110	20.826033
2213.685022	-3.005400	2.982400	-8.962200	26.030859	-0.000111	20.824017
2214.683081	-3.000200	2.980400	-8.940600	26.046369	-0.000111	20.814944
2215.689327	-2.999300	2.979000	-8.933400	26.063635	-0.000112	20.814274
2216.686576	-2.998300	2.977200	-8.925700	26.045620	-0.000109	20.848804
2217.687508	-2.955200	2.977800	-8.799200	26.063572	-0.000111	20.799511
2218.689271	-2.987800	2.975200	-8.888500	26.066000	-0.000112	20.802426
2219.687444	-3.012300	2.973800	-8.956900	26.074960	-0.000110	20.815221
2220.684861	-3.014800	2.972900	-8.961200	26.067183	-0.000111	20.842493
2221.688014	-2.991000	2.972700	-8.889700	26.084096	-0.000112	20.808279
2222.687037	-3.023400	2.971100	-8.982000	26.099517	-0.000111	20.809076
2223.683878	-3.026100	2.969000	-8.983300	26.101921	-0.000110	20.798688
2224.690623	-3.003000	2.966700	-8.908200	26.097447	-0.000112	20.804150
2225.687596	-2.996000	2.968300	-8.892300	26.094458	-0.000111	20.818690
2226.687070	-3.005400	2.966500	-8.914600	26.089858	-0.000112	20.808853
2227.694939	-2.989400	2.964400	-8.860700	26.093294	-0.000110	20.821314
2228.689934	-2.968200	2.964800	-8.799500	26.120726	-0.000111	20.791505
2229.687058	-3.003400	2.963600	-8.899900	26.112496	-0.000114	20.793193
2230.695689	-3.014900	2.960500	-8.924800	26.132290	-0.000111	20.798383
2231.691970	-3.011800	2.958900	-8.910200	26.121757	-0.000111	20.811508
2232.688430	-3.021300	2.958200	-8.936100	26.126048	-0.000110	20.814397
2233.695554	-3.024100	2.956200	-8.939200	26.111929	-0.000110	20.822494
2234.687816	-2.978400	2.957000	-8.805500	26.123078	-0.000109	20.795765
2235.692638	-3.014900	2.953900	-8.905200	26.104667	-0.000110	20.798603
2236.699245	-3.000200	2.954700	-8.863600	26.109757	-0.000108	20.787596
2237.691939	-2.982600	2.952100	-8.803500	26.116955	-0.000111	20.808105
2238.693774	-2.983400	2.951300	-8.803800	26.116452	-0.000111	20.790529
2239.699542	-3.001900	2.949000	-8.852100	26.130721	-0.000111	20.782108
2240.691012	-2.996700	2.947000	-8.829100	26.121082	-0.000114	20.784276
2241.691669	-2.991400	2.946400	-8.813400	26.140919	-0.000115	20.799942
2242.699643	-2.964600	2.946300	-8.733000	26.146727	-0.000113	20.766422
2243.692657	-3.001400	2.944400	-8.836800	26.145877	-0.000113	20.788328
2244.695922	-2.973200	2.943300	-8.749600	26.141793	-0.000111	20.795130
2245.698873	-3.034700	2.940900	-8.924300	26.138559	-0.000114	20.798993
2246.696770	-3.005700	2.941300	-8.839500	26.155364	-0.000113	20.810663
2247.701760	-2.983600	2.939000	-8.768100	26.159881	-0.000113	20.783908
2248.697248	-3.000900	2.937200	-8.814100	26.155880	-0.000113	20.781784
2249.698170	-2.992800	2.936600	-8.787400	26.159875	-0.000115	20.782479
2250.700095	-2.983100	2.935000	-8.754700	26.144239	-0.000113	20.777674
2251.701238	-2.976000	2.934000	-8.730200	26.147863	-0.000111	20.789376
2252.700315	-2.969800	2.932400	-8.707800	26.177339	-0.000113	20.775372
2253.702207	-2.984900	2.931600	-8.749900	26.182171	-0.000113	20.786391
2254.701248	-3.018800	2.928400	-8.839000	26.187015	-0.000112	20.783673
2255.700579	-2.989000	2.927800	-8.750100	26.193294	-0.000112	20.782396
2256.704532	-2.982100	2.927000	-8.728100	26.201662	-0.000112	20.780373
2257.697643	-3.003000	2.924900	-8.782300	26.182403	-0.000111	20.782357
2258.700305	-2.991500	2.923200	-8.743900	26.180119	-0.000113	20.776743
2259.702210	-3.008200	2.922200	-8.789900	26.215030	-0.000110	20.788591
2260.700911	-2.983300	2.920700	-8.711900	26.201887	-0.000111	20.766375
2261.700827	-2.961000	2.920400	-8.646500	26.243907	-0.000111	20.767348
2262.701603	-2.971800	2.918000	-8.670800	26.204178	-0.000112	20.759667
2263.702209	-3.002500	2.915700	-8.753900	26.231117	-0.000112	20.792902
2264.702218	-2.979000	2.915000	-8.682800	26.206971	-0.000110	20.778595
2265.704740	-2.996800	2.912200	-8.726000	26.225096	-0.000112	20.774524
2266.697577	-2.997900	2.911400	-8.726400	26.241459	-0.000113	20.771053
2267.703550	-3.027400	2.910200	-8.809300	26.223580	-0.000112	20.770629
2268.710041	-2.991200	2.909600	-8.702300	26.250983	-0.000113	20.758812
2269.705538	-3.004800	2.906800	-8.733200	26.260942	-0.000113	20.750802
2270.705595	-2.987800	2.906800	-8.684000	26.261785	-0.000114	20.766823
2271.707953	-3.006000	2.903400	-8.726700	26.263641	-0.000114	20.775326
2272.706347	-3.011900	2.902400	-8.741300	26.255966	-0.000113	20.784683
2273.705719	-3.003300	2.901900	-8.714100	26.268384	-0.000113	20.745953
2274.709641	-2.981000	2.899500	-8.642500	26.273662	-0.000110	20.755050
2275.705811	-3.003700	2.896900	-8.700700	26.246001	-0.000112	20.770401
2276.709110	-2.989800	2.897000	-8.660700	26.274191	-0.000113	20.771229
2277.710629	-2.998200	2.895600	-8.680900	26.257771	-0.000112	20.751409
2278.707943	-3.007900	2.892100	-8.697600	26.256475	-0.000112	20.765280
2279.711183	-2.980800	2.892000	-8.619500	26.260294	-0.000115	20.770065
2280.713692	-3.008700	2.889600	-8.693200	26.261608	-0.000115	20.753368
2281.712690	-3.026800	2.888100	-8.739800	26.270894	-0.000112	20.734724
2282.714586	-3.002600	2.886400	-8.666200	26.272504	-0.000114	20.742507
2283.713156	-3.016600	2.885300	-8.702200	26.272800	-0.000110	20.750865
2284.710550	-3.004300	2.883200	-8.660800	26.264263	-0.000114	20.741811
2285.715443	-2.978400	2.881500	-8.581100	26.285665	-0.000113	20.745775
2286.714502	-2.996100	2.879400	-8.625400	26.308054	-0.000112	20.731765
2287.715036	-3.028700	2.877800	-8.715200	26.319729	-0.000111	20.731645
2288.716255	-3.004000	2.876200	-8.639100	26.330279	-0.000114	20.721383
2289.717833	-3.013100	2.874800	-8.661100	26.303732	-0.000111	20.742121
2290.712661	-3.016500	2.872400	-8.663600	26.331373	-0.000110	20.749037
2291.716252	-3.013500	2.871600	-8.652700	26.344061	-0.000112	20.760841
2292.718304	-3.011500	2.869500	-8.640800	26.320295	-0.000111	20.747861
2293.713907	-3.025400	2.867300	-8.674200	26.329285	-0.000109	20.743145
2294.720417	-3.009700	2.866700	-8.627200	26.328435	-0.000111	20.742291
2295.719311	-2.985300	2.864400	-8.550100	26.343533	-0.000112	20.723324
2296.721684	-3.017000	2.862300	-8.634700	26.355749	-0.000113	20.726119
2297.719992	-3.048600	2.860100	-8.718300	26.359127	-0.000113	20.742317
2298.717544	-3.005900	2.858700	-8.591500	26.362530	-0.000109	20.724399
2299.720992	-2.998800	2.856200	-8.564100	26.360442	-0.000110	20.737948
2300.721604	-2.999600	2.854900	-8.562900	26.364165	-0.000110	20.729362
2301.717743	-2.990100	2.853800	-8.532300	26.366543	-0.000111	20.731752
2302.717423	-3.014200	2.850700	-8.592000	26.383559	-0.000112	20.723722
2303.718160	-3.019300	2.850200	-8.605100	26.405983	-0.000112	20.721130
2304.723629	-3.023900	2.846900	-8.608100	26.378243	-0.000111	20.725967
2305.721037	-2.983400	2.846800	-8.492200	26.386163	-0.000113	20.726814
2306.720963	-3.014700	2.843200	-8.570100	26.398737	-0.000112	20.730443
2307.725012	-3.037800	2.841800	-8.631900	26.393296	-0.000112	20.749632
2308.722541	-3.006100	2.841500	-8.540700	26.408669	-0.000111	20.738055
2309.721934	-3.000600	2.838000	-8.514800	26.392629	-0.000112	20.733788
2310.729177	-3.008700	2.836900	-8.534500	26.425628	-0.000110	20.718114
2311.719945	-2.995400	2.834100	-8.488200	26.432603	-0.000110	20.727023
2312.724283	-2.980500	2.834100	-8.446300	26.426697	-0.000112	20.717293
2313.729293	-2.967900	2.831700	-8.403300	26.450240	-0.000110	20.720094
2314.721919	-3.017400	2.827400	-8.530400	26.429163	-0.000111	20.731152
2315.723982	-2.996300	2.826700	-8.468800	26.444724	-0.000112	20.731619
2316.729087	-2.984000	2.824700	-8.428200	26.460619	-0.000110	20.727680
2317.726256	-2.988400	2.822100	-8.432800	26.465040	-0.000113	20.735444
2318.722146	-2.992200	2.821600	-8.442200	26.478174	-0.000111	20.726359
2319.728581	-2.999200	2.819900	-8.456700	26.466632	-0.000114	20.746528
2320.726744	-2.974100	2.817200	-8.378200	26.515515	-0.000112	20.711735
2321.726882	-3.014900	2.814400	-8.484200	26.496156	-0.000109	20.718829
2322.727470	-3.005000	2.813300	-8.452400	26.502955	-0.000110	20.719025
2323.727481	-3.010000	2.809700	-8.456000	26.506584	-0.000112	20.707974
2324.727527	-2.997100	2.808000	-8.414800	26.510804	-0.000112	20.735451
2325.729811	-2.991100	2.806400	-8.393100	26.519616	-0.000111	20.732928
2326.728591	-3.016700	2.804800	-8.460200	26.515597	-0.000111	20.726992
2327.724618	-2.981800	2.802400	-8.355200	26.519572	-0.000110	20.723400
2328.727239	-3.005800	2.800500	-8.417400	26.553805	-0.000112	20.717982
2329.724247	-3.013800	2.797100	-8.429100	26.528138	-0.000113	20.724425
2330.728902	-2.986800	2.796200	-8.351000	26.554805	-0.000110	20.726100
2331.729502	-3.012300	2.793600	-8.414500	26.569032	-0.000111	20.722857
2332.729497	-3.025500	2.790500	-8.442000	26.569579	-0.000113	20.714397
2333.731146	-2.992800	2.790100	-8.349700	26.572409	-0.000112	20.751383
2334.730091	-3.027400	2.785500	-8.431500	26.550938	-0.000110	20.736912
2335.727886	-2.988400	2.784900	-8.321400	26.578541	-0.000112	20.730045
2336.728439	-2.979500	2.783400	-8.292400	26.598779	-0.000112	20.722414
2337.726217	-3.022600	2.779800	-8.401900	26.599943	-0.000111	20.733542
2338.728333	-3.009700	2.778300	-8.360700	26.623577	-0.000112	20.721264
2339.730813	-2.997000	2.776400	-8.320300	26.613370	-0.000111	20.718589
2340.730381	-2.991000	2.772900	-8.293100	26.621571	-0.000111	20.727782
2341.731832	-3.029500	2.769600	-8.389000	26.647839	-0.000111	20.728111
2342.735803	-3.013700	2.768200	-8.341600	26.627501	-0.000112	20.726632
2343.729806	-2.983300	2.767000	-8.253500	26.630381	-0.000112	20.726208
2344.732738	-2.999400	2.764100	-8.290100	26.656354	-0.000111	20.685934
2345.729726	-2.990700	2.761200	-8.256800	26.657939	-0.000111	20.718349
2346.728045	-2.999000	2.758600	-8.271700	26.658209	-0.000111	20.720992
2347.727740	-3.001300	2.755900	-8.270900	26.674604	-0.000112	20.712817
2348.734461	-3.026800	2.753200	-8.333200	26.684678	-0.000110	20.724842
2349.732016	-2.978500	2.751900	-8.194300	26.677534	-0.000111	20.709125
2350.733201	-2.976800	2.749400	-8.183600	26.692086	-0.000112	20.710952
2351.729862	-2.995000	2.746200	-8.224200	26.666070	-0.000111	20.726999
2352.734583	-3.035600	2.743400	-8.327500	26.703110	-0.000110	20.715871
2353.732129	-3.017600	2.741200	-8.271300	26.696010	-0.000111	20.710630
2354.734145	-3.020000	2.738100	-8.267900	26.697400	-0.000110	20.714872
2355.734089	-3.008800	2.735400	-8.229600	26.719120	-0.000111	20.718691
2356.735106	-2.981300	2.733700	-8.149100	26.723868	-0.000112	20.726784
2357.738500	-2.996100	2.731200	-8.181500	26.722151	-0.000112	20.696607
2358.735322	-2.978700	2.727100	-8.122900	26.721384	-0.000112	20.707690
2359.736273	-3.009100	2.723500	-8.194700	26.735860	-0.000110	20.698535
2360.743066	-3.006800	2.721100	-8.181100	26.728811	-0.000111	20.714683
2361.737713	-3.020600	2.717200	-8.206700	26.757403	-0.000113	20.732999
2362.738081	-3.024600	2.714000	-8.208100	26.768030	-0.000110	20.716655
2363.736840	-3.029800	2.712500	-8.217700	26.759660	-0.000111	20.709663
2364.738931	-2.968100	2.710200	-8.042800	26.767338	-0.000111	20.734453
2365.739213	-2.983000	2.706100	-8.071500	26.768131	-0.000110	20.721499
2366.742056	-2.990300	2.703200	-8.082400	26.785115	-0.000110	20.699218
2367.741601	-2.986700	2.699100	-8.060600	26.801023	-0.000108	20.723749
2368.737288	-2.984300	2.696100	-8.044800	26.789636	-0.000111	20.721309
2369.741584	-2.993600	2.694300	-8.064500	26.793848	-0.000111	20.717958
2370.742561	-2.991600	2.690600	-8.048200	26.797829	-0.000111	20.712951
2371.741719	-2.986600	2.687000	-8.024100	26.804324	-0.000110	20.730862
2372.739466	-3.021200	2.682500	-8.103400	26.814058	-0.000111	20.724527
2373.739279	-2.991200	2.679700	-8.014100	26.829846	-0.000109	20.736609
2374.741624	-2.986800	2.675900	-7.991600	26.841786	-0.000111	20.735813
2375.744117	-3.017600	2.671700	-8.060900	26.837171	-0.000110	20.707937
2376.742262	-3.003400	2.668600	-8.013800	26.834072	-0.000112	20.698656
2377.742888	-2.999900	2.666900	-7.999700	26.842667	-0.000109	20.714886
2378.740712	-3.009600	2.661200	-8.008300	26.883661	-0.000111	20.717699
2379.739843	-2.998300	2.657500	-7.966900	26.891483	-0.000110	20.737893
2380.743289	-2.980700	2.654600	-7.912000	26.882926	-0.000109	20.721227
2381.742004	-2.987100	2.651500	-7.919300	26.873602	-0.000111	20.735086
2382.743571	-2.970700	2.648100	-7.865400	26.899411	-0.000108	20.734960
2383.739933	-3.009900	2.642500	-7.952900	26.900807	-0.000110	20.724035
2384.744859	-3.021700	2.638200	-7.970700	26.910401	-0.000110	20.731312
2385.743323	-3.024300	2.634400	-7.966800	26.931973	-0.000112	20.737356
2386.741483	-3.006000	2.631400	-7.908900	26.934607	-0.000110	20.720564
2387.745791	-3.010200	2.626300	-7.905000	26.938882	-0.000111	20.722967
2388.746554	-2.955300	2.624500	-7.755500	26.927836	-0.000109	20.729877
2389.747659	-3.032100	2.618600	-7.938200	26.950897	-0.000110	20.737420
2390.748592	-2.992800	2.614400	-7.823400	26.948741	-0.000111	20.737148
2391.747730	-3.022100	2.612000	-7.892600	26.951840	-0.000109	20.712288
2392.744498	-3.010800	2.607300	-7.849100	26.965741	-0.000110	20.733380
2393.749161	-3.007900	2.603100	-7.828100	26.984331	-0.000109	20.733582
2394.748961	-2.994200	2.600200	-7.784600	26.995157	-0.000109	20.745892
2395.745441	-2.998600	2.594400	-7.777700	26.978874	-0.000110	20.740423
2396.746881	-3.021800	2.589300	-7.823200	27.001387	-0.000111	20.713749
2397.747729	-3.008600	2.586700	-7.781100	27.029186	-0.000109	20.731275
2398.748702	-3.029300	2.580400	-7.815800	27.020743	-0.000110	20.741277
2399.749320	-3.014200	2.577000	-7.766400	27.057123	-0.000111	20.712902
2400.749151	-2.996900	2.573300	-7.711200	27.050177	-0.000110	20.745747
2401.749314	-3.021300	2.567000	-7.754800	27.037252	-0.000109	20.756457
2402.750824	-2.985200	2.563900	-7.652800	27.071192	-0.000110	20.726577
2403.746416	-3.012200	2.559200	-7.707600	27.073354	-0.000110	20.755306
2404.749267	-2.991700	2.554100	-7.640200	27.071695	-0.000109	20.715229
2405.748815	-2.974400	2.551100	-7.587200	27.094375	-0.000110	20.750369
2406.749403	-2.987800	2.545300	-7.604500	27.117175	-0.000111	20.723985
2407.749157	-3.004800	2.540700	-7.633600	27.093376	-0.000110	20.728974
2408.748187	-2.996000	2.534900	-7.594100	27.118532	-0.000112	20.723454
2409.750882	-2.990800	2.529800	-7.565600	27.093646	-0.000111	20.733513
2410.755746	-2.990200	2.523500	-7.544700	27.119255	-0.000109	20.739829
2411.749788	-2.955300	2.519800	-7.446300	27.145172	-0.000109	20.741239
2412.746929	-2.990700	2.513700	-7.517300	27.146398	-0.000109	20.747213
2413.756010	-3.008800	2.508000	-7.545600	27.176336	-0.000109	20.739392
2414.748772	-3.023000	2.503000	-7.566200	27.184200	-0.000108	20.736396
2415.753627	-2.994500	2.498500	-7.480000	27.167851	-0.000109	20.746505
