LabVIEW Measurement	
Writer_Version	2
Reader_Version	2
Separator	Tab
Decimal_Separator	.
Multi_Headings	No
X_Columns	One
Time_Pref	Absolute
Operator	admin
Description	Clolumns are: time, Current, Voltage, Power, Battery Temp, and Chamber Temp
Date	2024/08/16
Time	13:59:35.9411449432373046875
***End_of_Header***	
	
Channels	6						
Samples	1	1	1	1	1	1	
Date	2024/09/20	2024/09/20	2024/09/20	2024/09/20	2024/09/20	2024/09/20	
Time	00:30:13.232391357421875	00:30:13.2383399009704589844	00:30:13.2433400154113769531	00:30:13.216716766357421875	00:30:13.216716766357421875	00:30:13.216716766357421875	
X_Dimension	Time	Time	Time	Time	Time	Time	
X0	0.0000000000000000E+0	0.0000000000000000E+0	0.0000000000000000E+0	0.0000000000000000E+0	0.0000000000000000E+0	0.0000000000000000E+0	
Delta_X	1.000000	1.000000	1.000000	1.000000	1.000000	1.000000	
***End_of_Header***							
X_Value	Untitled	Untitled 1	Untitled 2	Untitled 3	Untitled 4	Untitled 5	Comment
0.000000	0.004701	4.096800	0.019357	20.924894	0.000398	20.850457
1.003083	-3.004400	3.935300	-11.822000	20.933976	0.000398	20.859066
2.000216	-2.982000	3.928100	-11.713000	20.938767	0.000395	20.842047
3.000286	-2.989500	3.922100	-11.724000	20.933727	0.000397	20.862610
4.002927	-3.011600	3.917300	-11.796000	20.936720	0.000396	20.859440
5.000210	-2.991800	3.914100	-11.710000	20.934475	0.000395	20.860514
6.000473	-3.003000	3.911700	-11.746000	20.958726	0.000395	20.858689
7.002390	-3.022300	3.907900	-11.809000	20.926739	0.000393	20.851829
8.002393	-3.025700	3.904800	-11.813000	20.943831	0.000391	20.874612
9.002591	-2.997200	3.903700	-11.699000	20.943256	0.000389	20.868821
10.003007	-2.980400	3.902500	-11.630000	20.960398	0.000391	20.854672
11.004455	-2.982100	3.901700	-11.635000	20.963716	0.000391	20.870317
12.003629	-2.991300	3.898500	-11.660000	20.963866	0.000390	20.852925
13.003895	-2.983300	3.898200	-11.628000	20.962766	0.000388	20.844239
14.005299	-3.007400	3.895700	-11.714000	20.958300	0.000389	20.879125
15.004167	-3.002000	3.894700	-11.692000	20.971225	0.000387	20.874508
16.004785	-2.997900	3.894400	-11.674000	20.997199	0.000389	20.876304
17.006228	-2.984300	3.894000	-11.620000	20.985296	0.000388	20.862029
18.004910	-2.996500	3.891900	-11.660000	20.983998	0.000386	20.852197
19.004886	-2.979500	3.892000	-11.595000	21.004109	0.000386	20.884164
20.006889	-3.001000	3.890100	-11.673000	20.989561	0.000384	20.873881
21.004858	-3.024900	3.888600	-11.762000	21.012018	0.000383	20.874056
22.005888	-3.003900	3.888400	-11.680000	21.016757	0.000381	20.877848
23.005749	-2.985700	3.888900	-11.610000	21.017480	0.000382	20.879519
24.009005	-3.000100	3.887000	-11.660000	21.033848	0.000381	20.852744
25.005817	-3.001700	3.885800	-11.663000	21.038189	0.000382	20.875103
26.012471	-3.015800	3.884000	-11.712000	21.029955	0.000382	20.875402
27.006378	-3.002000	3.884400	-11.661000	21.028656	0.000382	20.879318
28.006640	-2.975800	3.884000	-11.556000	21.045074	0.000380	20.885781
29.012476	-2.983300	3.883000	-11.583000	21.057573	0.000380	20.881688
30.008320	-2.972200	3.882000	-11.537000	21.061540	0.000378	20.862898
31.011610	-2.989200	3.882200	-11.604000	21.063659	0.000380	20.884930
32.008625	-3.003800	3.881100	-11.658000	21.077756	0.000378	20.876272
33.009011	-2.993900	3.880100	-11.616000	21.090778	0.000377	20.894512
34.017841	-3.001900	3.879600	-11.645000	21.092350	0.000379	20.880438
35.009440	-3.006900	3.880800	-11.668000	21.102629	0.000375	20.891667
36.012870	-3.032900	3.878900	-11.762000	21.111285	0.000375	20.903643
37.014104	-3.008900	3.878700	-11.670000	21.109238	0.000376	20.881209
38.008996	-2.996500	3.878400	-11.621000	21.119542	0.000375	20.899101
39.011413	-3.011200	3.877000	-11.674000	21.121636	0.000375	20.886024
40.014471	-2.984900	3.877800	-11.574000	21.132015	0.000374	20.892138
41.013196	-2.991600	3.876800	-11.597000	21.146609	0.000375	20.893933
42.012836	-2.992000	3.876200	-11.597000	21.145586	0.000374	20.895755
43.014441	-2.999800	3.875600	-11.626000	21.151473	0.000374	20.896428
44.014194	-3.004800	3.876800	-11.648000	21.168886	0.000375	20.891088
45.010277	-3.004900	3.876100	-11.646000	21.154616	0.000372	20.895305
46.017009	-2.996900	3.875300	-11.613000	21.176569	0.000372	20.895928
47.024683	-3.021800	3.874900	-11.708000	21.190839	0.000372	20.912098
48.013328	-3.012300	3.874200	-11.670000	21.187519	0.000374	20.890760
49.019154	-2.998400	3.873700	-11.613000	21.186098	0.000371	20.886494
50.016070	-2.979200	3.874300	-11.541000	21.220997	0.000373	20.883474
51.017118	-2.994000	3.874000	-11.597000	21.199494	0.000372	20.914117
52.021073	-2.983500	3.873900	-11.556000	21.227109	0.000371	20.882950
53.015436	-3.009700	3.872700	-11.655000	21.244496	0.000370	20.913143
54.016740	-3.003500	3.872800	-11.631000	21.240679	0.000371	20.901265
55.019839	-2.999400	3.873500	-11.617000	21.256271	0.000370	20.895526
56.016891	-3.000100	3.872800	-11.618000	21.252952	0.000371	20.886517
57.016408	-3.014400	3.872100	-11.671000	21.255446	0.000372	20.929785
58.019476	-3.022900	3.871900	-11.703000	21.253923	0.000369	20.923521
59.025443	-3.003800	3.871100	-11.626000	21.264675	0.000368	20.906778
60.019434	-2.974400	3.871700	-11.515000	21.275551	0.000368	20.909124
61.021643	-2.997300	3.871000	-11.601000	21.291615	0.000370	20.917607
62.020541	-3.014000	3.869100	-11.660000	21.314987	0.000367	20.913489
63.022739	-3.013200	3.869700	-11.659000	21.307131	0.000369	20.916534
64.020830	-2.983300	3.870400	-11.545000	21.323717	0.000369	20.903258
65.022318	-2.993100	3.870400	-11.584000	21.319427	0.000369	20.912715
66.023368	-2.999900	3.869500	-11.607000	21.347364	0.000367	20.916957
67.021471	-3.005400	3.869700	-11.629000	21.314163	0.000366	20.925939
68.027549	-2.989500	3.870100	-11.568000	21.320499	0.000367	20.910469
69.028707	-2.989800	3.869600	-11.568000	21.349608	0.000368	20.893600
70.024345	-3.014300	3.868500	-11.660000	21.352376	0.000369	20.929082
71.026491	-3.022700	3.867500	-11.690000	21.368813	0.000369	20.914709
72.025426	-3.012900	3.867100	-11.651000	21.358686	0.000368	20.909794
73.026022	-2.991300	3.869000	-11.572000	21.390363	0.000368	20.932001
74.024773	-3.006700	3.868000	-11.628000	21.365945	0.000367	20.926062
75.029055	-2.980500	3.867200	-11.525000	21.379413	0.000369	20.922943
76.025528	-3.003200	3.867400	-11.613000	21.388417	0.000368	20.929579
77.026251	-2.995700	3.868200	-11.587000	21.413109	0.000369	20.906398
78.027743	-3.002000	3.866900	-11.607000	21.408819	0.000368	20.924863
79.031562	-3.008100	3.866700	-11.630000	21.422786	0.000369	20.927458
80.032829	-2.997500	3.867400	-11.591000	21.401686	0.000366	20.926734
81.029113	-3.000100	3.866500	-11.599000	21.417024	0.000365	20.898935
82.031938	-3.011600	3.866200	-11.642000	21.454761	0.000368	20.908717
83.033831	-3.012800	3.867400	-11.651000	21.439846	0.000367	20.920819
84.029207	-3.003200	3.866000	-11.609000	21.461619	0.000367	20.915579
85.032130	-3.010400	3.865500	-11.635000	21.483017	0.000366	20.899533
86.029895	-3.024100	3.864700	-11.686000	21.461245	0.000367	20.908567
87.030918	-2.987900	3.864200	-11.545000	21.466781	0.000365	20.900356
88.027907	-2.980900	3.865200	-11.520000	21.497059	0.000366	20.916900
89.029827	-3.004500	3.864600	-11.610000	21.482244	0.000367	20.903974
90.032208	-3.002700	3.864300	-11.601000	21.497332	0.000365	20.891571
91.030787	-2.965300	3.866300	-11.464000	21.498854	0.000366	20.878871
92.032037	-2.980400	3.864700	-11.518000	21.493640	0.000368	20.893093
93.031112	-2.995100	3.865000	-11.575000	21.513693	0.000366	20.884710
94.031224	-2.982300	3.864400	-11.524000	21.505363	0.000366	20.896287
95.031562	-2.997900	3.863100	-11.580000	21.503741	0.000365	20.899880
96.030284	-2.993400	3.863900	-11.566000	21.530426	0.000367	20.885806
97.031322	-2.991300	3.863300	-11.556000	21.521945	0.000366	20.882062
98.032639	-2.988700	3.862900	-11.544000	21.541300	0.000367	20.890996
99.032388	-3.001600	3.862300	-11.592000	21.554244	0.000367	20.894940
100.032219	-3.002600	3.862300	-11.596000	21.562324	0.000368	20.901128
101.033621	-3.000600	3.862100	-11.588000	21.564344	0.000365	20.885607
102.034642	-2.991500	3.862900	-11.555000	21.578359	0.000368	20.897734
103.033633	-3.024600	3.861100	-11.677000	21.571850	0.000366	20.890746
104.032983	-3.014900	3.862000	-11.643000	21.577860	0.000367	20.879692
105.035517	-2.994800	3.862200	-11.566000	21.587985	0.000367	20.884134
106.034589	-2.989700	3.861500	-11.544000	21.598410	0.000367	20.894565
107.034105	-3.026600	3.860600	-11.684000	21.592375	0.000365	20.884733
108.034926	-2.989500	3.862000	-11.544000	21.579731	0.000366	20.886779
109.036392	-3.007100	3.861500	-11.611000	21.620705	0.000366	20.875625
110.037432	-2.993600	3.860900	-11.557000	21.627711	0.000367	20.868887
111.038107	-2.998600	3.862100	-11.580000	21.613796	0.000366	20.885307
112.038345	-2.995700	3.860400	-11.564000	21.636115	0.000367	20.863547
113.042656	-3.013200	3.859800	-11.629000	21.641652	0.000367	20.867191
114.037708	-2.989600	3.860100	-11.540000	21.642525	0.000365	20.879917
115.039644	-2.999600	3.860100	-11.578000	21.627686	0.000368	20.886405
116.038425	-3.011700	3.860100	-11.624000	21.657412	0.000366	20.857833
117.037721	-3.014900	3.859700	-11.636000	21.668483	0.000367	20.882661
118.037851	-3.003800	3.859400	-11.592000	21.669630	0.000368	20.874801
119.045032	-3.005900	3.859100	-11.599000	21.680952	0.000369	20.870011
120.037410	-3.004600	3.858600	-11.592000	21.688681	0.000369	20.885805
121.037496	-2.988100	3.857900	-11.527000	21.677385	0.000368	20.851743
122.041985	-2.963500	3.860200	-11.438000	21.704167	0.000369	20.860527
123.038404	-2.997200	3.858300	-11.563000	21.688781	0.000367	20.872629
124.039806	-2.998800	3.858400	-11.570000	21.704864	0.000371	20.872604
125.043197	-2.987100	3.858200	-11.524000	21.712294	0.000368	20.850644
126.039246	-3.022400	3.857600	-11.658000	21.735236	0.000370	20.854163
127.038938	-3.002400	3.857800	-11.581000	21.740172	0.000369	20.870957
128.042023	-2.980400	3.858200	-11.498000	21.741569	0.000369	20.861923
129.040172	-3.009600	3.856400	-11.605000	21.761217	0.000370	20.861673
130.046652	-3.001700	3.858400	-11.581000	21.763387	0.000368	20.852466
131.044704	-2.988700	3.856800	-11.526000	21.760793	0.000370	20.847025
132.040652	-3.009100	3.856800	-11.604000	21.747727	0.000369	20.860500
133.040937	-2.993700	3.857900	-11.549000	21.759771	0.000372	20.858329
134.045827	-3.010400	3.856100	-11.608000	21.768946	0.000370	20.872728
135.041190	-2.994900	3.857100	-11.550000	21.773408	0.000369	20.856331
136.043150	-3.007700	3.856200	-11.597000	21.789640	0.000370	20.847921
137.047449	-3.001200	3.855900	-11.572000	21.784329	0.000370	20.852563
138.043597	-2.997400	3.855300	-11.555000	21.806369	0.000372	20.859449
139.053486	-2.992800	3.857000	-11.542000	21.794426	0.000371	20.835642
140.047211	-2.986700	3.855900	-11.515000	21.822850	0.000371	20.865039
141.044201	-2.984200	3.856000	-11.506000	21.811456	0.000373	20.862169
142.044250	-3.005200	3.855900	-11.587000	21.819932	0.000372	20.850265
143.047450	-3.005400	3.854400	-11.582000	21.830031	0.000370	20.863217
144.045869	-3.017200	3.854800	-11.630000	21.826962	0.000371	20.837387
145.044547	-3.001100	3.854800	-11.567000	21.846186	0.000373	20.840981
146.047890	-2.995300	3.854900	-11.546000	21.851719	0.000373	20.861217
147.044231	-3.008700	3.853200	-11.592000	21.844015	0.000373	20.838335
148.044499	-2.979600	3.854200	-11.483000	21.860870	0.000374	20.852359
149.049866	-3.006000	3.853500	-11.582000	21.865432	0.000374	20.852658
150.046711	-3.022200	3.852600	-11.643000	21.865757	0.000371	20.853931
151.046201	-2.997500	3.853900	-11.551000	21.862590	0.000372	20.851236
152.050743	-3.011400	3.852800	-11.601000	21.876128	0.000373	20.844873
153.046893	-2.976600	3.854500	-11.472000	21.909709	0.000374	20.847666
154.052011	-3.002700	3.852400	-11.567000	21.899414	0.000375	20.848265
155.046639	-2.996900	3.852900	-11.546000	21.887895	0.000374	20.832470
156.046352	-3.019500	3.852000	-11.631000	21.900311	0.000373	20.825931
157.048825	-3.006400	3.852100	-11.580000	21.926339	0.000374	20.850087
158.046777	-3.006300	3.851400	-11.578000	21.924793	0.000375	20.840005
159.050017	-3.016300	3.851900	-11.618000	21.928734	0.000376	20.853906
160.057068	-2.995600	3.851700	-11.537000	21.925766	0.000376	20.848565
161.048141	-3.001800	3.851800	-11.562000	21.934117	0.000376	20.840330
162.047803	-3.027200	3.850200	-11.654000	21.927487	0.000376	20.849339
163.049889	-2.990800	3.851300	-11.517000	21.945586	0.000376	20.837111
164.048947	-2.989700	3.849900	-11.508000	21.964159	0.000376	20.828676
165.048353	-2.990100	3.850800	-11.513000	21.970041	0.000376	20.843099
166.051245	-3.001200	3.850200	-11.555000	21.951395	0.000377	20.826805
167.049812	-3.011900	3.850400	-11.596000	21.969944	0.000377	20.848217
168.048593	-3.013600	3.849100	-11.599000	21.975628	0.000378	20.832570
169.061959	-3.022700	3.850700	-11.638000	21.988192	0.000376	20.829026
170.049686	-3.011900	3.850400	-11.596000	21.997441	0.000379	20.837811
171.049620	-3.000900	3.849400	-11.551000	21.986050	0.000377	20.835416
172.051550	-2.994800	3.848900	-11.526000	21.979293	0.000379	20.852359
173.050468	-2.986500	3.850500	-11.498000	22.008634	0.000379	20.835265
174.051586	-3.023800	3.849000	-11.638000	22.011227	0.000378	20.836912
175.053710	-3.008700	3.849000	-11.579000	22.007189	0.000381	20.842353
176.050697	-3.039000	3.847800	-11.692000	22.033065	0.000382	20.831272
177.050622	-3.013300	3.849000	-11.597000	22.048123	0.000382	20.831648
178.051783	-2.995100	3.848600	-11.526000	22.031669	0.000380	20.836513
179.054263	-2.982800	3.849100	-11.480000	22.044757	0.000382	20.835390
180.056239	-2.982000	3.848200	-11.475000	22.056374	0.000381	20.826157
181.057184	-3.000000	3.849200	-11.546000	22.041991	0.000382	20.834044
182.055020	-3.007600	3.848200	-11.573000	22.072403	0.000382	20.836514
183.058024	-3.003800	3.846900	-11.555000	22.074721	0.000383	20.849266
184.055294	-2.997400	3.848100	-11.532000	22.070683	0.000382	20.837637
185.056480	-3.008700	3.847200	-11.574000	22.055801	0.000380	20.843127
186.059824	-3.017100	3.846400	-11.604000	22.078859	0.000384	20.815477
187.057553	-2.994900	3.847400	-11.522000	22.098902	0.000383	20.843602
188.057709	-2.995400	3.846900	-11.523000	22.115502	0.000386	20.834143
189.059559	-2.997600	3.847100	-11.531000	22.105059	0.000386	20.826059
190.058174	-3.005800	3.846900	-11.562000	22.100895	0.000383	20.841804
191.057679	-2.995500	3.846900	-11.523000	22.127567	0.000382	20.830575
192.060247	-3.014300	3.845300	-11.591000	22.110419	0.000384	20.828580
193.059578	-2.982400	3.845300	-11.467000	22.116176	0.000384	20.827231
194.058442	-3.018800	3.844700	-11.605000	22.141500	0.000385	20.839309
195.063826	-2.996900	3.845800	-11.523000	22.142648	0.000385	20.814380
196.059815	-3.002000	3.846500	-11.546000	22.141575	0.000384	20.827056
197.059042	-3.015500	3.844400	-11.592000	22.140579	0.000385	20.821792
198.059674	-3.002500	3.844800	-11.542000	22.150000	0.000386	20.819844
199.058744	-2.979300	3.846000	-11.457000	22.145140	0.000388	20.826832
200.060292	-3.012800	3.844700	-11.582000	22.167698	0.000385	20.818123
201.061780	-3.021700	3.844100	-11.615000	22.156357	0.000387	20.808665
202.061752	-3.022900	3.842500	-11.615000	22.161816	0.000387	20.818872
203.063802	-2.993400	3.844800	-11.508000	22.168495	0.000388	20.808015
204.061787	-3.015100	3.843700	-11.588000	22.189434	0.000387	20.826134
205.062338	-3.007100	3.842800	-11.555000	22.189982	0.000388	20.816725
206.062546	-3.006300	3.842800	-11.552000	22.191927	0.000388	20.821518
207.066644	-3.014200	3.843400	-11.583000	22.202444	0.000386	20.822090
208.064383	-2.993200	3.842600	-11.501000	22.194618	0.000389	20.813307
209.064305	-2.962400	3.844400	-11.388000	22.228691	0.000389	20.810912
210.067055	-3.024200	3.842100	-11.618000	22.226921	0.000388	20.821942
211.065352	-3.002900	3.842400	-11.537000	22.211718	0.000389	20.838013
212.063441	-2.993500	3.842500	-11.502000	22.223732	0.000390	20.808792
213.066150	-2.997900	3.841900	-11.517000	22.232530	0.000390	20.810488
214.064438	-2.990900	3.842000	-11.490000	22.225476	0.000392	20.819072
215.063845	-3.011300	3.842500	-11.570000	22.237191	0.000391	20.830327
216.065130	-3.016400	3.841400	-11.587000	22.244743	0.000392	20.808492
217.065444	-3.016400	3.841100	-11.586000	22.264608	0.000392	20.798511
218.065580	-3.009000	3.841600	-11.558000	22.237964	0.000392	20.831575
219.065961	-3.019300	3.841500	-11.598000	22.258152	0.000392	20.802952
220.064344	-3.005900	3.841600	-11.547000	22.271064	0.000392	20.820147
221.067757	-2.996700	3.841500	-11.511000	22.271985	0.000393	20.790724
222.067553	-2.980600	3.841000	-11.448000	22.280310	0.000394	20.803801
223.067471	-2.982500	3.841100	-11.455000	22.273133	0.000394	20.785236
224.068770	-2.969800	3.842100	-11.410000	22.296037	0.000393	20.826661
225.068783	-2.993100	3.839900	-11.492000	22.290157	0.000396	20.808445
226.065383	-2.998000	3.839700	-11.511000	22.303241	0.000395	20.811115
227.065239	-2.975000	3.841200	-11.427000	22.317770	0.000397	20.804326
228.064774	-2.979400	3.840400	-11.441000	22.335465	0.000397	20.801657
229.068456	-3.010100	3.839700	-11.557000	22.321136	0.000393	20.797266
230.068754	-3.007100	3.838800	-11.542000	22.329086	0.000396	20.791475
231.069719	-3.012200	3.839000	-11.563000	22.319416	0.000396	20.798863
232.069401	-2.994400	3.839100	-11.495000	22.330333	0.000396	20.797466
233.069165	-3.001600	3.839500	-11.523000	22.334022	0.000397	20.807324
234.070486	-3.002300	3.837400	-11.521000	22.351493	0.000397	20.787361
235.068642	-2.982500	3.839600	-11.450000	22.346907	0.000398	20.793200
236.070582	-3.015500	3.838100	-11.573000	22.349125	0.000398	20.798739
237.074282	-3.008300	3.837700	-11.544000	22.354085	0.000397	20.798965
238.069560	-2.994400	3.837700	-11.491000	22.354858	0.000398	20.798790
239.069495	-2.997800	3.839000	-11.507000	22.359618	0.000398	20.790755
240.072889	-2.998100	3.838400	-11.507000	22.375967	0.000400	20.791479
241.070890	-2.991300	3.838500	-11.481000	22.363457	0.000401	20.786538
242.071860	-2.992900	3.838900	-11.489000	22.384216	0.000400	20.791205
243.072962	-3.011600	3.836200	-11.552000	22.390522	0.000401	20.798468
244.072042	-3.005700	3.836400	-11.531000	22.387033	0.000403	20.788336
245.072248	-2.994000	3.836600	-11.486000	22.401662	0.000403	20.806779
246.074687	-2.976100	3.835900	-11.414000	22.423293	0.000406	20.787663
247.072107	-2.979500	3.837200	-11.432000	22.424564	0.000402	20.786091
248.072231	-2.997100	3.836400	-11.497000	22.400292	0.000403	20.795450
249.075513	-2.990200	3.836500	-11.471000	22.422122	0.000404	20.778430
250.072765	-3.004600	3.835500	-11.523000	22.430173	0.000404	20.783647
251.074078	-3.010000	3.834600	-11.541000	22.441038	0.000403	20.790734
252.077775	-2.970600	3.836200	-11.395000	22.427058	0.000404	20.763932
253.074983	-3.019800	3.835000	-11.580000	22.432192	0.000405	20.788514
254.074573	-3.031100	3.834800	-11.621000	22.452950	0.000405	20.770421
255.083805	-2.989700	3.835400	-11.466000	22.460302	0.000406	20.772094
256.074720	-3.012100	3.837600	-11.559000	22.447045	0.000406	20.779681
257.076352	-3.005900	3.834200	-11.524000	22.470121	0.000406	20.790462
258.078431	-2.989700	3.834800	-11.464000	22.457835	0.000406	20.776736
259.077600	-2.984900	3.833900	-11.443000	22.480113	0.000408	20.767278
260.075449	-2.994300	3.835100	-11.482000	22.463667	0.000407	20.772619
261.077813	-2.980400	3.834700	-11.428000	22.460254	0.000406	20.785796
262.076499	-3.002700	3.833800	-11.510000	22.469349	0.000408	20.790637
263.075616	-3.000500	3.834100	-11.503000	22.476850	0.000408	20.764958
264.076160	-2.997400	3.833300	-11.489000	22.488461	0.000408	20.784173
265.076753	-2.997800	3.832800	-11.488000	22.494267	0.000411	20.778608
266.076141	-3.015700	3.833300	-11.558000	22.498504	0.000409	20.771946
267.078555	-3.024300	3.831600	-11.587000	22.512084	0.000409	20.777011
268.076581	-3.000900	3.832100	-11.498000	22.509193	0.000411	20.767478
269.079209	-3.016400	3.832200	-11.558000	22.513156	0.000411	20.769550
270.080506	-3.000800	3.833600	-11.503000	22.534534	0.000410	20.753502
271.077140	-3.017800	3.832200	-11.564000	22.535383	0.000411	20.778060
272.078262	-3.010200	3.830300	-11.529000	22.530673	0.000413	20.775714
273.084048	-3.006500	3.831600	-11.519000	22.542708	0.000413	20.749834
274.078349	-2.991100	3.831800	-11.460000	22.528930	0.000413	20.772546
275.091169	-2.973100	3.831500	-11.390000	22.537351	0.000413	20.774341
276.081779	-2.997100	3.831200	-11.481000	22.568597	0.000415	20.776712
277.081542	-3.004000	3.830400	-11.505000	22.581130	0.000413	20.762711
278.079330	-2.991900	3.832000	-11.464000	22.568673	0.000413	20.748338
279.080517	-3.007000	3.829800	-11.515000	22.588282	0.000414	20.772246
280.080964	-2.999800	3.830000	-11.488000	22.571588	0.000413	20.761215
281.084570	-3.008700	3.829500	-11.521000	22.597676	0.000413	20.764110
282.080936	-3.006900	3.829000	-11.512000	22.577519	0.000414	20.770000
283.082825	-3.009900	3.828300	-11.522000	22.602110	0.000415	20.762388
284.083305	-2.984500	3.829500	-11.428000	22.606247	0.000416	20.753254
285.084755	-3.010000	3.828800	-11.523000	22.600167	0.000415	20.778460
286.089399	-3.011800	3.828900	-11.530000	22.609410	0.000416	20.766380
287.085871	-2.991100	3.830100	-11.454000	22.616536	0.000418	20.759293
288.088066	-2.994300	3.828300	-11.462000	22.631859	0.000419	20.761364
289.084763	-2.997500	3.828400	-11.475000	22.629069	0.000417	20.751457
290.087996	-2.991900	3.829000	-11.455000	22.609884	0.000416	20.749784
291.088774	-2.965700	3.829200	-11.355000	22.636967	0.000419	20.747039
292.088690	-2.997000	3.826900	-11.468000	22.641253	0.000417	20.754178
293.090376	-2.995500	3.827800	-11.465000	22.636844	0.000419	20.758296
294.088634	-2.972700	3.828800	-11.381000	22.638860	0.000417	20.747039
295.091762	-2.980000	3.828100	-11.407000	22.641204	0.000417	20.767879
296.090984	-2.993800	3.826800	-11.456000	22.651767	0.000418	20.763286
297.088962	-2.985600	3.826900	-11.424000	22.661609	0.000418	20.759393
298.089128	-3.001100	3.826800	-11.483000	22.667665	0.000419	20.734164
299.093424	-3.016000	3.826800	-11.541000	22.668037	0.000420	20.736908
300.088502	-3.017500	3.824100	-11.539000	22.686499	0.000421	20.742598
301.088817	-3.011600	3.825700	-11.520000	22.670205	0.000420	20.733390
302.092088	-3.007600	3.825900	-11.506000	22.692603	0.000422	20.741600
303.088867	-2.994700	3.826100	-11.457000	22.676783	0.000422	20.752307
304.089138	-2.990100	3.826000	-11.439000	22.685802	0.000422	20.752332
305.094391	-3.018900	3.824600	-11.544000	22.680370	0.000423	20.739304
306.090153	-3.004400	3.824500	-11.490000	22.711588	0.000425	20.753980
307.093213	-3.007900	3.824600	-11.503000	22.693177	0.000423	20.736011
308.095210	-3.005800	3.824900	-11.496000	22.711888	0.000425	20.768030
309.096404	-2.991200	3.824700	-11.439000	22.717793	0.000422	20.729373
310.092248	-2.993100	3.824800	-11.448000	22.720382	0.000424	20.753779
311.095034	-3.005600	3.823900	-11.492000	22.740787	0.000424	20.752408
312.094262	-3.009100	3.824300	-11.506000	22.710668	0.000427	20.749738
313.094727	-3.003100	3.823000	-11.481000	22.743304	0.000426	20.742601
314.096668	-3.020200	3.822500	-11.543000	22.721430	0.000427	20.740603
315.095398	-2.991300	3.822800	-11.434000	22.761664	0.000426	20.733490
316.095454	-2.997300	3.822200	-11.455000	22.751475	0.000427	20.738457
317.098764	-2.992200	3.823500	-11.440000	22.763782	0.000426	20.735138
318.094999	-2.985600	3.821900	-11.409000	22.754017	0.000427	20.742426
319.099454	-3.006500	3.822300	-11.491000	22.750156	0.000428	20.732394
320.094739	-3.001500	3.823500	-11.475000	22.763260	0.000427	20.729874
321.096742	-3.015800	3.820300	-11.521000	22.761068	0.000429	20.722935
322.097620	-2.996800	3.821800	-11.452000	22.756359	0.000427	20.733866
323.095646	-3.004900	3.821500	-11.482000	22.767570	0.000428	20.732768
324.095318	-3.001200	3.821700	-11.469000	22.766250	0.000430	20.737610
325.098446	-2.979800	3.821900	-11.387000	22.788620	0.000431	20.721138
326.098149	-2.981800	3.822000	-11.396000	22.787202	0.000429	20.742003
327.098141	-3.004300	3.821100	-11.479000	22.781821	0.000430	20.720491
328.102026	-3.000000	3.820400	-11.461000	22.808875	0.000428	20.735265
329.097319	-3.008600	3.820300	-11.493000	22.785085	0.000431	20.723760
330.098861	-2.992400	3.820000	-11.430000	22.795198	0.000431	20.730099
331.108490	-2.991600	3.820400	-11.428000	22.800680	0.000433	20.716623
332.101100	-3.015200	3.818700	-11.514000	22.813608	0.000432	20.737162
333.099767	-2.982000	3.821200	-11.394000	22.801550	0.000432	20.736937
334.103591	-3.016800	3.819400	-11.521000	22.821978	0.000431	20.734166
335.103786	-3.005100	3.819400	-11.477000	22.810520	0.000433	20.752086
336.101521	-3.009100	3.819000	-11.491000	22.830274	0.000433	20.738684
337.104189	-2.998200	3.819800	-11.451000	22.834584	0.000432	20.722139
338.101378	-2.998200	3.818700	-11.448000	22.849380	0.000436	20.743126
339.101737	-2.997400	3.818500	-11.445000	22.837922	0.000435	20.721215
340.111034	-3.007200	3.818700	-11.483000	22.830697	0.000436	20.730099
341.103439	-2.993500	3.817200	-11.426000	22.853615	0.000433	20.745946
342.105073	-3.001600	3.819300	-11.463000	22.849605	0.000436	20.735290
343.106270	-3.023900	3.817100	-11.542000	22.848034	0.000435	20.728501
344.105165	-3.016000	3.817600	-11.513000	22.837049	0.000436	20.733143
345.103911	-3.018700	3.817400	-11.523000	22.865349	0.000434	20.728303
346.107535	-2.981800	3.817800	-11.383000	22.896634	0.000437	20.735938
347.105910	-3.012100	3.815300	-11.491000	22.868560	0.000437	20.733417
348.104664	-2.990100	3.816700	-11.411000	22.892400	0.000436	20.728376
349.107634	-3.011400	3.816400	-11.492000	22.876857	0.000437	20.723236
350.105976	-3.011200	3.815900	-11.490000	22.891603	0.000438	20.741804
351.105542	-3.010000	3.815800	-11.484000	22.876508	0.000439	20.741854
352.108597	-3.019700	3.815800	-11.521000	22.892550	0.000438	20.753658
353.107523	-2.991300	3.816800	-11.416000	22.885276	0.000441	20.739732
354.106764	-2.984800	3.815800	-11.388000	22.905701	0.000439	20.737910
355.110354	-3.007600	3.814700	-11.473000	22.910459	0.000441	20.730348
356.106778	-2.992900	3.817300	-11.424000	22.915839	0.000440	20.738583
357.108305	-3.003200	3.815800	-11.459000	22.911579	0.000439	20.722935
358.110946	-3.034100	3.812800	-11.567000	22.925205	0.000441	20.742751
359.108055	-3.005700	3.813700	-11.462000	22.927272	0.000441	20.727277
360.107701	-2.984500	3.814300	-11.383000	22.927497	0.000440	20.734141
361.111081	-2.996100	3.814200	-11.426000	22.938009	0.000441	20.725707
362.107731	-2.997200	3.813400	-11.429000	22.933524	0.000440	20.735912
363.108483	-3.017900	3.811800	-11.502000	22.946801	0.000440	20.722187
364.113080	-3.006200	3.811900	-11.457000	22.951933	0.000441	20.742502
365.109780	-2.993700	3.813100	-11.414000	22.962343	0.000442	20.737759
366.109481	-2.996200	3.813400	-11.424000	22.946875	0.000443	20.754979
367.113390	-3.022500	3.812500	-11.522000	22.967772	0.000442	20.748889
368.108678	-3.001800	3.812600	-11.442000	22.964684	0.000441	20.728251
369.107466	-2.981700	3.812100	-11.366000	22.962092	0.000445	20.734663
370.113928	-2.988800	3.812500	-11.394000	23.006752	0.000442	20.715397
371.106850	-3.003300	3.812300	-11.448000	22.982518	0.000443	20.723358
372.109406	-2.976200	3.812700	-11.347000	22.988744	0.000445	20.748564
373.108953	-2.987800	3.811700	-11.388000	23.003165	0.000445	20.742150
374.107986	-3.006800	3.810100	-11.455000	23.008669	0.000444	20.744346
375.109487	-3.010600	3.811200	-11.473000	23.008720	0.000444	20.733016
376.114504	-3.011200	3.809700	-11.471000	22.999579	0.000444	20.721487
377.115043	-3.003300	3.810200	-11.442000	23.009517	0.000445	20.738083
378.112062	-2.978100	3.810000	-11.345000	23.019305	0.000444	20.755003
379.113673	-2.984800	3.811100	-11.375000	23.016414	0.000448	20.758745
380.109964	-2.999000	3.809600	-11.424000	23.023714	0.000447	20.749937
381.111720	-2.958800	3.810800	-11.274000	23.039080	0.000446	20.720761
382.113342	-2.998000	3.809100	-11.418000	23.030837	0.000448	20.735737
383.111357	-2.977800	3.808600	-11.340000	23.055942	0.000447	20.755676
384.112056	-3.012800	3.809000	-11.475000	23.051534	0.000447	20.737034
385.115054	-3.003700	3.807300	-11.436000	23.055593	0.000448	20.759120
386.113312	-2.988400	3.808200	-11.380000	23.043936	0.000448	20.742698
387.115192	-2.985300	3.808100	-11.367000	23.059602	0.000448	20.762663
388.117411	-3.013100	3.808800	-11.475000	23.058407	0.000449	20.743447
389.120157	-3.019900	3.807000	-11.496000	23.063113	0.000449	20.757646
390.115202	-3.038300	3.805600	-11.561000	23.062864	0.000449	20.737006
391.118292	-3.001700	3.807900	-11.429000	23.074968	0.000450	20.741549
392.118179	-3.020000	3.806000	-11.493000	23.090533	0.000450	20.755249
393.115722	-3.032100	3.805800	-11.539000	23.096086	0.000450	20.733786
394.119061	-3.020600	3.806300	-11.496000	23.092800	0.000450	20.743295
395.115786	-3.011100	3.805100	-11.456000	23.109062	0.000450	20.747263
396.116334	-3.007300	3.805400	-11.443000	23.105426	0.000452	20.737455
397.118520	-2.976900	3.804900	-11.325000	23.087869	0.000451	20.742622
398.118179	-3.012100	3.805300	-11.461000	23.089013	0.000452	20.742346
399.117124	-3.003400	3.805500	-11.429000	23.123208	0.000453	20.738204
400.119013	-2.993900	3.805800	-11.393000	23.092200	0.000453	20.749807
401.120440	-2.995600	3.804200	-11.395000	23.118350	0.000454	20.734284
402.124622	-2.994100	3.805400	-11.393000	23.131002	0.000453	20.773515
403.118929	-2.990200	3.804400	-11.375000	23.137949	0.000455	20.742070
404.118915	-2.990900	3.805500	-11.381000	23.144873	0.000455	20.749956
405.119959	-2.988800	3.804800	-11.371000	23.151797	0.000454	20.764481
406.122462	-2.999700	3.803000	-11.407000	23.155258	0.000454	20.729068
407.118427	-3.012300	3.802900	-11.454000	23.161060	0.000454	20.755746
408.119706	-2.997300	3.802800	-11.397000	23.165418	0.000454	20.769122
409.121465	-2.998200	3.803100	-11.401000	23.169925	0.000455	20.760362
410.120895	-3.001300	3.802700	-11.411000	23.167309	0.000454	20.765802
411.120265	-3.002800	3.803000	-11.418000	23.166514	0.000456	20.750780
412.123398	-2.998300	3.802300	-11.398000	23.177769	0.000455	20.769645
413.121662	-2.996600	3.801800	-11.392000	23.192735	0.000456	20.771840
414.121621	-2.984800	3.801600	-11.346000	23.194978	0.000455	20.749431
415.124598	-2.977500	3.802100	-11.320000	23.205286	0.000456	20.759762
416.123518	-2.991400	3.801200	-11.369000	23.200705	0.000456	20.756119
417.121830	-3.009700	3.800800	-11.438000	23.201127	0.000456	20.752275
418.126201	-3.021500	3.799400	-11.479000	23.192984	0.000457	20.758340
419.122330	-3.006400	3.800100	-11.424000	23.205411	0.000456	20.768896
420.124670	-2.999900	3.799600	-11.398000	23.225182	0.000457	20.765476
421.121944	-3.013200	3.798900	-11.446000	23.224237	0.000456	20.754571
422.124070	-3.013700	3.799400	-11.450000	23.217686	0.000456	20.774086
423.127682	-2.989100	3.799200	-11.355000	23.206232	0.000458	20.766399
424.124647	-3.011500	3.800700	-11.445000	23.247120	0.000458	20.780823
425.126229	-2.990500	3.799600	-11.362000	23.223938	0.000458	20.758065
426.122741	-2.987700	3.799100	-11.350000	23.260244	0.000459	20.765051
427.123019	-3.008700	3.799200	-11.430000	23.254940	0.000459	20.773487
428.127135	-3.008300	3.799600	-11.428000	23.257703	0.000458	20.762505
429.129586	-3.009600	3.799000	-11.433000	23.266993	0.000459	20.755220
430.126709	-3.015500	3.798400	-11.452000	23.278421	0.000459	20.767621
431.133336	-3.000700	3.797800	-11.395000	23.268661	0.000460	20.765900
432.132456	-2.994200	3.797600	-11.370000	23.279990	0.000461	20.756391
433.130278	-3.009000	3.796100	-11.422000	23.270304	0.000461	20.759960
434.128833	-2.996600	3.797300	-11.378000	23.268959	0.000461	20.769518
435.132064	-3.014100	3.796300	-11.442000	23.280115	0.000462	20.786863
436.129328	-2.999700	3.796000	-11.385000	23.286589	0.000461	20.768694
437.127820	-3.008000	3.798100	-11.424000	23.293884	0.000461	20.790231
438.133102	-3.012800	3.795300	-11.434000	23.284994	0.000460	20.772312
439.130808	-3.000300	3.794800	-11.385000	23.309174	0.000462	20.791804
440.130759	-2.999700	3.796400	-11.387000	23.308326	0.000462	20.782893
441.134072	-2.999100	3.794800	-11.380000	23.312061	0.000460	20.798016
442.132614	-3.005100	3.795200	-11.403000	23.307254	0.000462	20.771388
443.136998	-2.979300	3.795000	-11.305000	23.310616	0.000461	20.768592
444.134645	-3.009200	3.794200	-11.416000	23.316716	0.000463	20.769491
445.135510	-2.991800	3.794500	-11.351000	23.323788	0.000463	20.781794
446.135644	-2.963000	3.795700	-11.245000	23.330460	0.000467	20.767618
447.136288	-2.972500	3.794800	-11.279000	23.322442	0.000463	20.781394
448.146418	-2.984200	3.793900	-11.321000	23.320675	0.000466	20.788632
449.137249	-2.988700	3.793700	-11.337000	23.317412	0.000462	20.808121
450.136647	-2.989900	3.793100	-11.340000	23.345349	0.000464	20.794395
451.135977	-2.999300	3.792000	-11.371000	23.338602	0.000466	20.786684
452.139753	-2.994200	3.792200	-11.354000	23.356654	0.000466	20.805251
453.137939	-3.004700	3.791700	-11.391000	23.377668	0.000466	20.792648
454.138422	-2.999000	3.792200	-11.372000	23.366463	0.000466	20.802280
455.139243	-3.007700	3.790600	-11.399000	23.364047	0.000466	20.790850
456.137298	-3.012300	3.790700	-11.418000	23.379410	0.000465	20.791075
457.142075	-2.984400	3.791500	-11.313000	23.385809	0.000467	20.778522
458.142485	-2.999000	3.791300	-11.369000	23.380903	0.000464	20.800632
459.142523	-2.979100	3.791600	-11.294000	23.392356	0.000466	20.814481
460.141198	-3.008200	3.789700	-11.399000	23.395068	0.000468	20.775948
461.141753	-3.015700	3.789700	-11.428000	23.384835	0.000467	20.806470
462.142509	-2.997200	3.790400	-11.360000	23.392379	0.000466	20.790322
463.143214	-2.992500	3.790400	-11.341000	23.401689	0.000468	20.807240
464.147393	-2.985100	3.791200	-11.316000	23.418545	0.000466	20.806118
465.144703	-2.991800	3.789300	-11.336000	23.414188	0.000468	20.792742
466.143518	-3.005100	3.788100	-11.383000	23.419714	0.000468	20.794487
467.147100	-3.013300	3.788300	-11.414000	23.413788	0.000466	20.790918
468.143895	-3.006300	3.788800	-11.389000	23.423522	0.000469	20.796407
469.144262	-3.001600	3.787500	-11.368000	23.433780	0.000468	20.805267
470.148672	-3.020100	3.788000	-11.439000	23.434576	0.000469	20.804642
471.145478	-3.001100	3.788000	-11.367000	23.434550	0.000469	20.803668
472.146693	-2.998800	3.787200	-11.356000	23.443265	0.000469	20.810506
473.151988	-3.001500	3.788400	-11.370000	23.439828	0.000469	20.817967
474.148761	-2.994600	3.787800	-11.342000	23.439729	0.000468	20.811229
475.152820	-3.019700	3.785200	-11.430000	23.460143	0.000470	20.821734
476.149405	-2.995400	3.785900	-11.340000	23.482426	0.000468	20.792861
477.148533	-3.024800	3.785400	-11.449000	23.461364	0.000469	20.827225
478.154824	-2.981200	3.786100	-11.286000	23.456632	0.000468	20.817741
479.150357	-3.018400	3.784900	-11.423000	23.472491	0.000469	20.824154
480.165603	-2.998100	3.784700	-11.346000	23.497138	0.000468	20.827522
481.154669	-3.002800	3.784200	-11.362000	23.478565	0.000468	20.794681
482.150573	-2.987600	3.785400	-11.308000	23.491337	0.000471	20.817440
483.155497	-2.974100	3.785100	-11.256000	23.503735	0.000470	20.821333
484.155664	-2.986100	3.783600	-11.297000	23.497934	0.000469	20.825475
485.152224	-2.988100	3.782900	-11.302000	23.514315	0.000470	20.824826
486.155302	-2.993900	3.784200	-11.329000	23.508763	0.000469	20.819261
487.151157	-2.985800	3.783900	-11.298000	23.514514	0.000470	20.829292
488.150838	-2.985600	3.783500	-11.295000	23.510282	0.000469	20.833584
489.154398	-3.000600	3.782800	-11.349000	23.512597	0.000471	20.804612
490.151221	-3.009600	3.782800	-11.384000	23.533884	0.000472	20.824527
491.150284	-2.992900	3.782200	-11.319000	23.511352	0.000472	20.819959
492.155750	-3.023200	3.781900	-11.431000	23.557158	0.000471	20.826995
493.152117	-3.008700	3.781100	-11.375000	23.543989	0.000472	20.840820
494.151074	-2.979300	3.782000	-11.267000	23.524744	0.000472	20.840969
495.156130	-3.006600	3.780500	-11.366000	23.526562	0.000472	20.823826
496.153148	-2.992900	3.780500	-11.314000	23.539756	0.000473	20.821879
497.150712	-2.994700	3.781200	-11.322000	23.557706	0.000472	20.818061
498.154875	-2.994600	3.779900	-11.319000	23.556485	0.000470	20.842916
499.151278	-3.031100	3.779500	-11.454000	23.571646	0.000471	20.829191
500.150743	-2.990800	3.780500	-11.306000	23.570302	0.000471	20.839696
501.155631	-3.025800	3.779700	-11.435000	23.571098	0.000470	20.831011
502.152813	-2.982700	3.780100	-11.274000	23.569704	0.000474	20.828191
503.151691	-3.021600	3.778400	-11.417000	23.564502	0.000471	20.831986
504.158459	-2.990400	3.779400	-11.302000	23.574385	0.000473	20.834781
505.153288	-3.000100	3.779900	-11.338000	23.598581	0.000473	20.835328
506.154078	-3.030400	3.777700	-11.447000	23.591909	0.000473	20.845710
507.155498	-2.996100	3.778600	-11.320000	23.576301	0.000473	20.838598
508.151993	-3.031300	3.776900	-11.447000	23.594447	0.000474	20.841616
509.151756	-3.007500	3.776600	-11.358000	23.605127	0.000472	20.832408
510.157236	-2.989900	3.778300	-11.295000	23.588697	0.000474	20.844386
511.153214	-3.017200	3.777300	-11.396000	23.608463	0.000472	20.825795
512.154878	-2.994400	3.777400	-11.309000	23.611126	0.000475	20.827990
513.160019	-2.982600	3.776800	-11.263000	23.616676	0.000474	20.843037
514.154739	-3.000400	3.776000	-11.328000	23.629098	0.000474	20.827515
515.155997	-2.997000	3.775500	-11.314000	23.618966	0.000472	20.840118
516.161144	-2.991100	3.775700	-11.293000	23.631810	0.000472	20.859631
517.157077	-2.972600	3.776800	-11.226000	23.645551	0.000473	20.835001
518.156328	-2.996600	3.774500	-11.309000	23.633005	0.000476	20.850398
519.158666	-3.002800	3.775300	-11.335000	23.643882	0.000475	20.849448
520.155735	-2.992100	3.775100	-11.295000	23.645475	0.000475	20.836347
521.157495	-3.010100	3.774100	-11.358000	23.646620	0.000474	20.824693
522.157728	-3.013400	3.774600	-11.373000	23.667181	0.000475	20.840090
523.157406	-3.016800	3.773400	-11.383000	23.657896	0.000475	20.875823
524.158193	-3.018600	3.773100	-11.389000	23.660933	0.000475	20.845680
525.159969	-3.002900	3.773500	-11.331000	23.665438	0.000476	20.840239
526.157915	-3.005200	3.773400	-11.339000	23.667951	0.000474	20.865516
527.158935	-2.996900	3.773200	-11.307000	23.655953	0.000475	20.857282
528.158266	-3.036700	3.772700	-11.455000	23.681617	0.000475	20.855036
529.157571	-2.987600	3.772900	-11.271000	23.678803	0.000476	20.864542
530.160192	-2.998900	3.772500	-11.312000	23.693986	0.000475	20.869806
531.160839	-2.984100	3.772600	-11.257000	23.695381	0.000477	20.870256
532.158695	-2.998600	3.771600	-11.308000	23.705784	0.000476	20.864092
533.163481	-2.979700	3.771100	-11.236000	23.708498	0.000475	20.859700
534.161712	-2.995100	3.769900	-11.290000	23.701279	0.000475	20.868583
535.160525	-3.004600	3.771000	-11.330000	23.725049	0.000475	20.864440
536.163558	-2.992600	3.770200	-11.282000	23.725622	0.000476	20.873074
537.161580	-2.982300	3.770600	-11.244000	23.709541	0.000476	20.872125
538.159969	-2.995600	3.769700	-11.292000	23.715466	0.000475	20.868108
539.161718	-2.995300	3.769700	-11.290000	23.738564	0.000477	20.866610
540.160172	-2.995900	3.769600	-11.292000	23.732166	0.000475	20.862567
541.161766	-3.019200	3.769000	-11.378000	23.727860	0.000477	20.862991
542.165204	-2.997100	3.769600	-11.297000	23.736945	0.000475	20.866410
543.163489	-2.983600	3.769700	-11.246000	23.743217	0.000476	20.866060
544.162842	-2.990200	3.769500	-11.270000	23.746827	0.000476	20.863989
545.163420	-3.019600	3.767300	-11.375000	23.735799	0.000477	20.884699
546.164353	-3.021800	3.767300	-11.383000	23.757827	0.000477	20.880707
547.166015	-2.999700	3.766500	-11.297000	23.751356	0.000476	20.886547
548.169301	-2.981800	3.768600	-11.236000	23.768132	0.000476	20.862117
549.165519	-2.987800	3.767700	-11.257000	23.754591	0.000478	20.891686
550.167158	-3.004900	3.767200	-11.319000	23.761885	0.000477	20.868181
551.168327	-3.010500	3.765600	-11.336000	23.768679	0.000475	20.876415
552.169064	-2.998600	3.765300	-11.290000	23.782592	0.000478	20.873770
553.172401	-3.012200	3.765800	-11.342000	23.788168	0.000479	20.880782
554.169814	-2.996400	3.765500	-11.281000	23.792300	0.000477	20.892510
555.170273	-3.023300	3.765000	-11.381000	23.784732	0.000476	20.876863
556.174590	-2.996200	3.764500	-11.277000	23.807058	0.000480	20.897824
557.171261	-3.007900	3.763800	-11.320000	23.804519	0.000477	20.877736
558.170335	-2.988500	3.763600	-11.246000	23.811562	0.000477	20.874367
559.175455	-2.997400	3.764000	-11.281000	23.805191	0.000479	20.873195
560.170154	-2.986800	3.764400	-11.243000	23.815918	0.000479	20.902914
561.171913	-2.991600	3.762800	-11.255000	23.811462	0.000477	20.900343
562.174165	-2.994700	3.763600	-11.270000	23.815892	0.000478	20.901466
563.171554	-2.989500	3.762100	-11.245000	23.807479	0.000477	20.880230
564.172380	-3.010200	3.763600	-11.328000	23.815667	0.000478	20.873268
565.176271	-2.994900	3.762100	-11.266000	23.833462	0.000478	20.857446
566.174196	-2.990200	3.763300	-11.252000	23.845806	0.000476	20.890684
567.171004	-3.002100	3.762100	-11.293000	23.805337	0.000477	20.892306
568.176732	-3.006100	3.760100	-11.303000	23.839360	0.000479	20.892755
569.172867	-3.009000	3.760900	-11.316000	23.822908	0.000477	20.898543
570.171802	-3.014100	3.760000	-11.332000	23.847870	0.000478	20.896546
571.175135	-2.993100	3.760900	-11.256000	23.852250	0.000478	20.925117
572.171734	-2.976700	3.760800	-11.194000	23.863027	0.000478	20.907476
573.173884	-2.985200	3.760900	-11.226000	23.841249	0.000479	20.898442
574.174612	-2.980100	3.761000	-11.208000	23.865590	0.000477	20.890133
575.176839	-3.011500	3.758100	-11.317000	23.855932	0.000478	20.920275
576.174295	-2.990600	3.760200	-11.244000	23.866335	0.000478	20.915534
577.175220	-3.004300	3.758500	-11.291000	23.873751	0.000478	20.896419
578.175009	-3.004000	3.759400	-11.292000	23.883284	0.000480	20.889383
579.176127	-2.989000	3.759000	-11.234000	23.887289	0.000478	20.903355
580.182762	-2.987600	3.758500	-11.228000	23.885497	0.000478	20.905351
581.175372	-3.002100	3.757200	-11.278000	23.906973	0.000477	20.916454
582.183544	-2.997500	3.758000	-11.263000	23.915312	0.000479	20.927185
583.178957	-2.995400	3.757100	-11.253000	23.905405	0.000477	20.925312
584.178763	-3.013800	3.756600	-11.320000	23.904310	0.000479	20.901931
585.177575	-3.000700	3.756100	-11.270000	23.924668	0.000477	20.895793
586.178448	-3.006400	3.756900	-11.293000	23.906177	0.000477	20.924189
587.177166	-2.988400	3.757200	-11.226000	23.883156	0.000478	20.912960
588.179184	-2.990900	3.756800	-11.235000	23.894354	0.000479	20.911387
589.177226	-2.998300	3.756600	-11.263000	23.921257	0.000476	20.917975
590.178342	-2.990900	3.755700	-11.232000	23.914089	0.000478	20.924063
591.178694	-2.995200	3.756500	-11.250000	23.902318	0.000477	20.932646
592.184001	-3.000200	3.756100	-11.269000	23.907270	0.000479	20.909639
593.179164	-3.009000	3.754500	-11.297000	23.934445	0.000479	20.913182
594.179122	-2.986800	3.754400	-11.212000	23.922325	0.000476	20.910512
595.184841	-2.995600	3.754800	-11.247000	23.946639	0.000478	20.919719
596.180568	-2.998700	3.753100	-11.253000	23.942731	0.000477	20.924335
597.178549	-2.989300	3.754600	-11.223000	23.949451	0.000477	20.908316
598.182791	-2.994500	3.754400	-11.242000	23.947907	0.000480	20.914828
599.182327	-2.997800	3.753700	-11.250000	23.956668	0.000478	20.914604
600.184968	-3.017400	3.751600	-11.318000	23.965974	0.000478	20.920617
601.183764	-3.010400	3.752600	-11.296000	23.964206	0.000479	20.899880
602.187541	-3.003700	3.751800	-11.268000	23.976101	0.000479	20.908488
603.184007	-2.974100	3.752100	-11.159000	23.976176	0.000476	20.912356
604.186934	-3.000400	3.752200	-11.257000	23.994093	0.000477	20.911358
605.185809	-3.009300	3.751300	-11.288000	23.986975	0.000478	20.896635
606.186642	-2.987200	3.752000	-11.207000	23.965872	0.000479	20.895387
607.194818	-3.009900	3.749900	-11.286000	23.978017	0.000477	20.906142
608.185936	-3.018900	3.749700	-11.320000	23.986651	0.000478	20.907688
609.185544	-2.983700	3.750700	-11.190000	23.983391	0.000479	20.890196
610.187138	-2.986800	3.750400	-11.200000	23.982445	0.000479	20.910108
611.187735	-2.979100	3.749700	-11.170000	24.001980	0.000479	20.898406
612.185840	-2.980800	3.749500	-11.176000	23.992648	0.000477	20.886203
613.187563	-2.983300	3.749000	-11.184000	24.009594	0.000478	20.876645
614.186656	-2.974600	3.749000	-11.150000	24.014945	0.000478	20.885330
615.187525	-2.995600	3.748900	-11.229000	24.007602	0.000476	20.895984
616.189231	-3.001600	3.747600	-11.247000	24.023430	0.000476	20.889098
617.188143	-3.020200	3.746700	-11.314000	24.007952	0.000479	20.876895
618.185401	-2.994000	3.748400	-11.222000	23.998794	0.000476	20.895211
619.190168	-2.997300	3.747700	-11.232000	24.035474	0.000476	20.869409
620.188791	-3.003300	3.748200	-11.256000	24.022658	0.000476	20.901124
621.188103	-2.997900	3.747800	-11.234000	24.029576	0.000475	20.871080
622.191498	-2.983000	3.746500	-11.175000	24.032960	0.000476	20.883956
623.188650	-2.982500	3.747200	-11.175000	24.024624	0.000476	20.896459
624.188377	-2.986600	3.746000	-11.187000	24.035623	0.000475	20.887101
625.188128	-2.968900	3.747500	-11.125000	24.047641	0.000475	20.870706
626.189227	-3.004200	3.746200	-11.253000	24.052221	0.000476	20.884307
627.188902	-3.023200	3.744900	-11.320000	24.048314	0.000476	20.884656
628.191062	-2.993000	3.744500	-11.206000	24.044507	0.000476	20.869933
629.190515	-2.996900	3.744100	-11.220000	24.044059	0.000476	20.900301
630.190824	-3.006500	3.743800	-11.254000	24.067698	0.000474	20.849570
631.195756	-2.994100	3.744500	-11.211000	24.063170	0.000476	20.880589
632.190251	-2.999400	3.743600	-11.227000	24.051524	0.000476	20.857057
633.193141	-3.011800	3.742400	-11.271000	24.048862	0.000476	20.883783
634.193135	-2.987200	3.744500	-11.185000	24.072153	0.000475	20.874425
635.192296	-2.992000	3.743300	-11.199000	24.076930	0.000478	20.872104
636.191742	-2.990000	3.743400	-11.192000	24.080215	0.000476	20.875872
637.190619	-3.014100	3.742600	-11.279000	24.074964	0.000474	20.886727
638.189649	-2.989600	3.742400	-11.187000	24.079046	0.000477	20.873752
639.191918	-2.990600	3.741800	-11.189000	24.061279	0.000476	20.873477
640.193746	-2.987300	3.742800	-11.179000	24.063618	0.000475	20.860176
641.192228	-2.992300	3.741500	-11.194000	24.094722	0.000475	20.876671
642.192862	-3.010200	3.740500	-11.259000	24.107362	0.000475	20.869909
643.191783	-2.993600	3.741700	-11.199000	24.076059	0.000474	20.864593
644.192744	-3.022600	3.740200	-11.304000	24.103406	0.000476	20.850295
645.192817	-3.007400	3.740000	-11.246000	24.092009	0.000475	20.859727
646.198267	-2.979300	3.740300	-11.142000	24.077178	0.000474	20.852440
647.192101	-2.997900	3.740500	-11.212000	24.072177	0.000475	20.863545
648.191107	-2.997400	3.740700	-11.212000	24.075785	0.000477	20.875697
649.195322	-3.003200	3.739700	-11.230000	24.086336	0.000476	20.889123
650.192888	-2.984400	3.739300	-11.159000	24.097334	0.000476	20.874550
651.195740	-2.997700	3.739600	-11.209000	24.101713	0.000475	20.870881
652.196166	-2.986100	3.738500	-11.162000	24.113259	0.000475	20.855435
653.193321	-2.994700	3.739100	-11.196000	24.103082	0.000475	20.857082
654.195344	-2.994300	3.739600	-11.197000	24.117139	0.000473	20.871654
655.195295	-3.001900	3.737000	-11.217000	24.106988	0.000473	20.844879
656.196356	-3.007200	3.737800	-11.240000	24.106763	0.000475	20.862197
657.199807	-2.998500	3.737700	-11.207000	24.118981	0.000473	20.855010
658.197986	-2.990300	3.737600	-11.176000	24.108953	0.000475	20.838316
659.197745	-3.004200	3.736300	-11.224000	24.109103	0.000475	20.856009
660.198255	-3.010100	3.736600	-11.247000	24.127143	0.000476	20.847075
661.199738	-2.988300	3.736100	-11.164000	24.130451	0.000474	20.861298
662.199570	-2.969900	3.735400	-11.093000	24.142792	0.000475	20.858029
663.200707	-2.987400	3.736600	-11.160000	24.144410	0.000472	20.871505
664.202542	-3.004300	3.735600	-11.222000	24.135203	0.000474	20.861323
665.198805	-3.029400	3.733700	-11.310000	24.154064	0.000473	20.854635
666.204918	-3.000300	3.734800	-11.205000	24.153492	0.000473	20.848846
667.202767	-2.991600	3.735300	-11.174000	24.144908	0.000475	20.851616
668.200294	-2.985700	3.734300	-11.149000	24.137418	0.000473	20.854062
669.201118	-2.983400	3.735400	-11.143000	24.169017	0.000475	20.844503
670.204272	-3.022900	3.733300	-11.284000	24.160980	0.000474	20.844503
671.201978	-3.001800	3.733500	-11.206000	24.176879	0.000474	20.856656
672.202553	-3.004500	3.733000	-11.214000	24.172923	0.000473	20.828507
673.204333	-2.993300	3.732900	-11.173000	24.163618	0.000474	20.841459
674.202670	-3.027600	3.731600	-11.297000	24.184444	0.000474	20.830580
675.204447	-3.019600	3.732200	-11.269000	24.180537	0.000474	20.838989
676.204786	-3.001300	3.731600	-11.199000	24.187330	0.000473	20.851492
677.203692	-2.999800	3.732000	-11.194000	24.185763	0.000473	20.842334
678.208649	-3.012300	3.731300	-11.238000	24.179145	0.000474	20.857032
679.205173	-3.003200	3.732000	-11.207000	24.174715	0.000473	20.854960
680.204927	-3.022900	3.730000	-11.273000	24.178597	0.000472	20.836094
681.206163	-2.989800	3.731600	-11.156000	24.188325	0.000474	20.853438
682.208663	-2.998600	3.730500	-11.186000	24.194919	0.000473	20.856733
683.206545	-3.009300	3.728800	-11.220000	24.193974	0.000473	20.855785
684.206373	-2.999500	3.730200	-11.187000	24.196162	0.000473	20.859876
685.212639	-3.008000	3.729600	-11.218000	24.182603	0.000472	20.842009
686.205808	-3.004900	3.730200	-11.208000	24.186734	0.000471	20.823394
687.206313	-3.022300	3.728500	-11.268000	24.213207	0.000472	20.834299
688.208499	-2.981000	3.730100	-11.119000	24.202682	0.000471	20.842234
689.210282	-2.994600	3.729700	-11.168000	24.204847	0.000471	20.842035
690.209409	-2.987100	3.729200	-11.138000	24.206140	0.000470	20.832427
691.213565	-2.993800	3.728200	-11.160000	24.222163	0.000471	20.823843
692.209904	-3.012800	3.728800	-11.233000	24.227165	0.000471	20.832178
693.212230	-2.996000	3.728100	-11.169000	24.222363	0.000471	20.833526
694.208830	-3.002900	3.727100	-11.190000	24.218481	0.000471	20.848598
695.211383	-3.009100	3.727100	-11.214000	24.228707	0.000469	20.825191
696.210633	-2.997900	3.726700	-11.171000	24.233410	0.000469	20.835124
697.210546	-2.976000	3.727200	-11.091000	24.230125	0.000470	20.823768
698.212822	-2.984100	3.726200	-11.119000	24.224801	0.000470	20.826489
699.214198	-3.014800	3.725500	-11.230000	24.232165	0.000471	20.817754
700.213363	-3.022900	3.726000	-11.262000	24.233335	0.000469	20.823195
701.214860	-3.020900	3.725400	-11.253000	24.245749	0.000470	20.838018
702.214367	-3.004800	3.726400	-11.196000	24.225797	0.000470	20.826065
703.213455	-3.011400	3.724300	-11.215000	24.240501	0.000470	20.820425
704.216246	-2.991800	3.725700	-11.145000	24.235749	0.000469	20.830358
705.221146	-2.986400	3.724600	-11.122000	24.233734	0.000468	20.814112
706.222362	-2.994600	3.724100	-11.151000	24.238311	0.000468	20.825815
707.214672	-2.992400	3.724300	-11.144000	24.248512	0.000468	20.838418
708.217615	-2.980200	3.724900	-11.099000	24.239407	0.000468	20.837820
709.219295	-3.005800	3.724300	-11.192000	24.255454	0.000466	20.835424
710.216899	-2.992800	3.723600	-11.143000	24.251274	0.000468	20.824593
711.220786	-3.005500	3.723500	-11.190000	24.246895	0.000468	20.822572
712.218097	-3.004700	3.722800	-11.185000	24.235601	0.000468	20.831631
713.217991	-2.994100	3.723400	-11.147000	24.241671	0.000469	20.824918
714.220480	-3.009700	3.722700	-11.202000	24.243487	0.000466	20.806826
715.217605	-2.985400	3.722700	-11.113000	24.250229	0.000466	20.820226
716.221276	-3.005900	3.722300	-11.187000	24.275407	0.000466	20.831257
717.223441	-2.979400	3.722100	-11.089000	24.266674	0.000467	20.802583
718.220750	-2.992400	3.721700	-11.136000	24.278119	0.000466	20.828288
719.222167	-3.020100	3.719300	-11.231000	24.279164	0.000467	20.812266
720.220734	-2.990100	3.721200	-11.126000	24.269361	0.000468	20.808598
721.220589	-2.995400	3.720800	-11.145000	24.260082	0.000466	20.810669
722.224319	-2.971600	3.722200	-11.059000	24.271551	0.000465	20.823122
723.220578	-2.987400	3.718800	-11.109000	24.271327	0.000464	20.817681
724.222366	-2.997200	3.720000	-11.149000	24.277596	0.000468	20.825392
725.225577	-2.994100	3.719100	-11.134000	24.288095	0.000465	20.802259
726.221806	-3.011400	3.718900	-11.197000	24.285059	0.000466	20.831930
727.223925	-3.001600	3.718500	-11.160000	24.308893	0.000466	20.822174
728.222196	-2.968300	3.720600	-11.042000	24.285583	0.000465	20.804006
729.222121	-2.976900	3.719900	-11.072000	24.273890	0.000466	20.827364
730.224094	-3.002500	3.718500	-11.163000	24.291055	0.000464	20.808548
731.221721	-2.986800	3.717200	-11.101000	24.284264	0.000465	20.807899
732.223398	-2.979900	3.718000	-11.078000	24.304266	0.000465	20.820851
733.221486	-2.984700	3.718500	-11.098000	24.301678	0.000464	20.812091
734.226184	-2.987400	3.718300	-11.106000	24.292822	0.000465	20.830234
735.223191	-2.993200	3.717800	-11.127000	24.312152	0.000466	20.815012
736.222978	-3.010400	3.717600	-11.191000	24.313396	0.000464	20.825267
737.225442	-3.003900	3.716700	-11.163000	24.305411	0.000463	20.795447
738.223316	-2.985400	3.717300	-11.095000	24.304315	0.000464	20.810469
739.221894	-3.015000	3.715900	-11.203000	24.300335	0.000464	20.836348
740.227669	-3.010600	3.715600	-11.185000	24.311157	0.000462	20.810220
741.226001	-3.017800	3.714600	-11.208000	24.305485	0.000465	20.819703
742.224026	-2.990600	3.716400	-11.114000	24.319043	0.000464	20.814337
743.226883	-3.004700	3.714400	-11.159000	24.318770	0.000464	20.796520
744.224042	-3.026200	3.712100	-11.232000	24.312526	0.000463	20.797368
745.223404	-3.018400	3.714400	-11.210000	24.323272	0.000462	20.799614
746.225827	-2.981600	3.714800	-11.074000	24.335039	0.000460	20.795771
747.224815	-3.005400	3.714700	-11.164000	24.338074	0.000462	20.813988
748.223093	-3.015600	3.712600	-11.194000	24.333297	0.000462	20.820576
749.226151	-3.002400	3.714200	-11.151000	24.325809	0.000461	20.798840
750.223561	-2.992900	3.712000	-11.108000	24.347453	0.000462	20.802059
751.224659	-3.002300	3.713000	-11.146000	24.337452	0.000463	20.813364
752.224696	-3.013900	3.712000	-11.187000	24.333223	0.000460	20.790630
753.225446	-2.996300	3.711300	-11.119000	24.339839	0.000461	20.804853
754.227006	-2.984900	3.710800	-11.076000	24.337527	0.000462	20.802533
755.226222	-3.004900	3.712000	-11.153000	24.345959	0.000459	20.802458
756.227883	-3.013100	3.710600	-11.180000	24.335934	0.000460	20.779599
757.225755	-3.000000	3.710300	-11.130000	24.339640	0.000462	20.810343
758.225264	-3.001200	3.711400	-11.137000	24.334266	0.000460	20.777451
759.227729	-3.003000	3.709800	-11.140000	24.353347	0.000460	20.798963
760.228796	-3.018500	3.709200	-11.196000	24.376257	0.000460	20.793497
761.227097	-2.986900	3.711000	-11.083000	24.353372	0.000459	20.800411
762.228715	-2.972300	3.710200	-11.027000	24.335634	0.000460	20.778350
763.230561	-3.011600	3.708900	-11.168000	24.369267	0.000461	20.796442
764.231521	-2.965900	3.710200	-11.003000	24.365759	0.000460	20.798613
765.229115	-2.995900	3.709300	-11.112000	24.350907	0.000458	20.799835
766.229556	-3.005900	3.708200	-11.145000	24.346878	0.000459	20.798638
767.228851	-2.991500	3.709200	-11.095000	24.350236	0.000458	20.795369
768.235226	-3.025300	3.707000	-11.214000	24.354838	0.000460	20.798562
769.230004	-2.997000	3.709200	-11.115000	24.363644	0.000457	20.815457
770.230627	-3.020100	3.707600	-11.196000	24.352698	0.000457	20.787881
771.234892	-3.017800	3.708300	-11.190000	24.365136	0.000460	20.802729
772.229838	-3.006300	3.706600	-11.142000	24.351504	0.000457	20.790951
773.230745	-2.987200	3.707300	-11.074000	24.355309	0.000456	20.792871
774.230887	-3.034000	3.705400	-11.242000	24.369713	0.000457	20.793571
775.231057	-2.998100	3.707600	-11.115000	24.370310	0.000458	20.789428
776.227442	-3.021600	3.705200	-11.195000	24.399240	0.000458	20.807544
777.228943	-3.009300	3.706900	-11.154000	24.387698	0.000457	20.797862
778.228983	-3.016200	3.705700	-11.177000	24.387822	0.000456	20.806521
779.231453	-3.006700	3.705800	-11.141000	24.382797	0.000455	20.782040
780.231349	-3.016600	3.704800	-11.175000	24.388470	0.000456	20.776351
781.232270	-2.991700	3.705000	-11.084000	24.390957	0.000457	20.780268
782.233570	-2.976800	3.705100	-11.029000	24.400161	0.000456	20.771010
783.232670	-2.992700	3.704000	-11.084000	24.387797	0.000456	20.776625
784.231896	-2.988400	3.704800	-11.070000	24.390982	0.000453	20.769388
785.233041	-2.989800	3.703300	-11.071000	24.417226	0.000454	20.781966
786.234554	-2.985500	3.703300	-11.054000	24.411206	0.000454	20.797263
787.234147	-2.984400	3.704400	-11.054000	24.395335	0.000454	20.796988
788.242461	-3.013700	3.702600	-11.158000	24.414390	0.000455	20.784811
789.236922	-2.992200	3.703000	-11.079000	24.407699	0.000456	20.784262
790.245715	-2.995700	3.702600	-11.091000	24.399515	0.000452	20.778897
791.236995	-3.018500	3.701800	-11.173000	24.405236	0.000453	20.778472
792.240249	-2.990700	3.703000	-11.073000	24.415609	0.000454	20.785086
793.243682	-3.010200	3.701000	-11.140000	24.396927	0.000453	20.775352
794.239181	-3.005000	3.700400	-11.119000	24.411529	0.000454	20.779570
795.236941	-3.004200	3.701400	-11.119000	24.416057	0.000454	20.799760
796.242332	-2.986900	3.700600	-11.052000	24.409141	0.000453	20.782390
797.238472	-3.008100	3.700600	-11.131000	24.425162	0.000452	20.781867
798.237847	-3.009300	3.699200	-11.132000	24.431281	0.000453	20.766668
799.240279	-3.011400	3.699000	-11.138000	24.420933	0.000452	20.746329
800.238768	-2.998300	3.700200	-11.094000	24.414142	0.000452	20.780294
801.240365	-3.003700	3.698400	-11.108000	24.418022	0.000451	20.769488
802.243484	-3.011000	3.698500	-11.136000	24.411928	0.000452	20.782340
803.239599	-3.009600	3.698600	-11.130000	24.421529	0.000453	20.777748
804.239393	-2.991800	3.698300	-11.063000	24.429042	0.000451	20.774853
805.242657	-2.989400	3.698100	-11.054000	24.433468	0.000449	20.757957
806.238279	-3.028300	3.697300	-11.195000	24.443393	0.000450	20.774079
807.240355	-3.011900	3.696900	-11.133000	24.449016	0.000452	20.769288
808.243776	-2.979300	3.699000	-11.019000	24.426777	0.000452	20.746502
809.241662	-2.992400	3.698500	-11.066000	24.439141	0.000450	20.766019
810.244375	-2.990900	3.698700	-11.062000	24.419762	0.000451	20.757009
811.246434	-3.008200	3.696300	-11.118000	24.436553	0.000451	20.741611
812.242221	-2.978400	3.696900	-11.009000	24.418717	0.000449	20.748374
813.243446	-3.013800	3.697000	-11.141000	24.442671	0.000449	20.747275
814.247736	-3.032300	3.697500	-11.209000	24.444064	0.000450	20.769062
815.244844	-2.995400	3.697600	-11.075000	24.438194	0.000449	20.771707
816.245554	-3.012200	3.696600	-11.132000	24.465183	0.000449	20.747101
817.245398	-3.016700	3.695300	-11.147000	24.462471	0.000450	20.754811
818.246532	-3.010400	3.694300	-11.121000	24.461501	0.000448	20.770434
819.254051	-2.994400	3.696200	-11.066000	24.461475	0.000448	20.749070
820.246923	-2.974600	3.695700	-10.992000	24.477320	0.000449	20.748372
821.242947	-3.006500	3.695300	-11.109000	24.448516	0.000448	20.758355
822.245830	-2.986800	3.695800	-11.038000	24.455779	0.000447	20.767538
823.250477	-2.992700	3.694900	-11.057000	24.467245	0.000448	20.747273
824.245593	-2.990200	3.694100	-11.045000	24.460853	0.000447	20.777371
825.248158	-2.991100	3.693800	-11.047000	24.454485	0.000445	20.766714
826.249696	-2.995400	3.694000	-11.064000	24.447122	0.000447	20.744153
827.246026	-2.991900	3.693800	-11.051000	24.470180	0.000446	20.771555
828.245790	-3.013700	3.692200	-11.126000	24.467741	0.000446	20.761048
829.248764	-3.011600	3.692500	-11.119000	24.461250	0.000446	20.764018
830.246998	-2.993800	3.693400	-11.056000	24.458737	0.000446	20.736366
831.246576	-2.992700	3.693100	-11.050000	24.469383	0.000446	20.748469
832.247958	-2.987300	3.693400	-11.032000	24.472019	0.000446	20.753485
833.248990	-3.030300	3.692000	-11.186000	24.480650	0.000444	20.743178
834.248192	-3.000200	3.692100	-11.076000	24.482590	0.000444	20.751763
835.254429	-2.992400	3.691500	-11.045000	24.495972	0.000444	20.763292
836.252316	-3.019200	3.689600	-11.138000	24.478262	0.000446	20.761171
837.255641	-2.994300	3.690600	-11.050000	24.470302	0.000444	20.737537
838.250900	-2.984800	3.690900	-11.015000	24.511965	0.000444	20.760372
839.251603	-2.991900	3.690000	-11.039000	24.501369	0.000443	20.771078
840.249854	-2.968400	3.692000	-10.958000	24.471346	0.000443	20.753284
841.250987	-3.004300	3.689300	-11.084000	24.496195	0.000444	20.738385
842.257506	-3.008600	3.689400	-11.099000	24.496344	0.000442	20.749915
843.249869	-3.011300	3.688900	-11.107000	24.495548	0.000442	20.754332
844.251612	-2.986000	3.689600	-11.016000	24.501468	0.000442	20.742253
845.250934	-2.998200	3.689100	-11.060000	24.507139	0.000441	20.753634
846.252210	-3.004300	3.687700	-11.078000	24.500622	0.000442	20.749939
847.250206	-3.012900	3.688000	-11.111000	24.499527	0.000442	20.735090
848.254552	-3.013900	3.687100	-11.111000	24.503432	0.000443	20.737585
849.250544	-3.001300	3.687400	-11.066000	24.517934	0.000440	20.763990
850.253898	-2.998600	3.686500	-11.054000	24.507786	0.000441	20.747169
851.256860	-2.979500	3.687900	-10.987000	24.504651	0.000441	20.745921
852.254390	-2.999100	3.687100	-11.057000	24.497985	0.000441	20.724533
853.254689	-3.014800	3.686900	-11.114000	24.483682	0.000443	20.747643
854.255085	-3.013700	3.686700	-11.110000	24.494228	0.000439	20.761542
855.256773	-2.999800	3.686400	-11.057000	24.495846	0.000440	20.739457
856.254287	-3.006900	3.685300	-11.080000	24.496293	0.000438	20.748915
857.253695	-3.019800	3.686500	-11.132000	24.533205	0.000439	20.738534
858.254061	-3.006500	3.684300	-11.074000	24.517336	0.000439	20.735414
859.256111	-3.017000	3.685200	-11.117000	24.513630	0.000439	20.736911
860.253744	-3.022500	3.683900	-11.134000	24.516192	0.000439	20.752759
861.257405	-2.993900	3.684600	-11.030000	24.508905	0.000438	20.739283
862.261149	-2.994200	3.684400	-11.031000	24.512983	0.000437	20.735788
863.259322	-2.984900	3.683800	-10.996000	24.504451	0.000439	20.759471
864.256293	-2.983900	3.684200	-10.993000	24.525221	0.000437	20.749016
865.261560	-2.991900	3.683700	-11.020000	24.500795	0.000435	20.742052
866.255992	-3.004000	3.684700	-11.068000	24.507412	0.000437	20.756752
867.258222	-2.987300	3.685100	-11.008000	24.529125	0.000436	20.753407
868.260592	-3.013100	3.683200	-11.097000	24.515445	0.000435	20.729723
869.256385	-3.017000	3.683600	-11.113000	24.511739	0.000434	20.736437
870.257452	-3.012700	3.683100	-11.096000	24.508579	0.000434	20.743224
871.259989	-3.014700	3.682500	-11.100000	24.529822	0.000436	20.737036
872.258439	-3.027200	3.682900	-11.147000	24.521912	0.000436	20.749489
873.259914	-2.997600	3.681600	-11.035000	24.526315	0.000436	20.743001
874.265544	-3.004200	3.681700	-11.060000	24.543503	0.000436	20.733692
875.265021	-3.000600	3.681900	-11.048000	24.553650	0.000434	20.742926
876.259314	-2.984600	3.682000	-10.988000	24.563649	0.000434	20.752484
877.261238	-3.002200	3.681700	-11.052000	24.562206	0.000433	20.732070
878.259767	-3.002800	3.679700	-11.048000	24.541463	0.000431	20.765312
879.259132	-3.010700	3.679700	-11.078000	24.565464	0.000434	20.731545
880.262130	-3.008200	3.680300	-11.070000	24.547333	0.000433	20.739432
881.260330	-3.017600	3.679000	-11.100000	24.544944	0.000434	20.735613
882.262290	-3.010900	3.680200	-11.079000	24.544000	0.000433	20.728027
883.264607	-3.016900	3.680100	-11.102000	24.563774	0.000432	20.744549
884.259444	-3.023500	3.678300	-11.120000	24.551163	0.000432	20.737111
885.260196	-3.046900	3.678500	-11.207000	24.554347	0.000431	20.722761
886.264602	-2.988400	3.680200	-10.997000	24.564544	0.000430	20.746744
887.260701	-3.000600	3.678500	-11.037000	24.555018	0.000430	20.739083
888.261467	-2.987700	3.678700	-10.990000	24.566957	0.000432	20.722612
889.261055	-2.990700	3.678600	-11.000000	24.567380	0.000433	20.742478
890.260652	-2.978700	3.679000	-10.957000	24.555565	0.000429	20.750538
891.261241	-3.017100	3.676700	-11.091000	24.557630	0.000430	20.736488
892.263834	-3.001000	3.677500	-11.036000	24.576359	0.000431	20.754806
893.260460	-3.013500	3.676600	-11.079000	24.576483	0.000429	20.753508
894.262144	-2.989400	3.678000	-10.994000	24.577826	0.000431	20.743476
895.261014	-2.991700	3.677700	-11.001000	24.565762	0.000429	20.754605
896.263998	-3.000000	3.676600	-11.029000	24.565589	0.000429	20.772449
897.263002	-3.025200	3.674700	-11.115000	24.563500	0.000427	20.735264
898.262365	-3.011800	3.676600	-11.073000	24.562082	0.000428	20.736213
899.262356	-2.997500	3.676000	-11.017000	24.571881	0.000428	20.766909
900.265124	-3.015000	3.674400	-11.077000	24.568672	0.000429	20.737135
901.264472	-2.996900	3.675700	-11.014000	24.592449	0.000429	20.769054
902.262650	-2.993800	3.675700	-11.004000	24.583471	0.000427	20.723059
903.268034	-3.003500	3.674300	-11.034000	24.596578	0.000427	20.746644
904.262976	-2.987600	3.674700	-10.977000	24.582276	0.000428	20.772598
905.266162	-2.976800	3.675900	-10.941000	24.592101	0.000427	20.764911
906.281948	-3.024900	3.673800	-11.112000	24.596726	0.000427	20.775717
907.265204	-2.975200	3.673400	-10.928000	24.588917	0.000426	20.781632
908.265373	-2.986200	3.673400	-10.969000	24.614409	0.000426	20.755053
909.273890	-3.002200	3.673100	-11.027000	24.582674	0.000426	20.751185
910.266112	-3.024300	3.672200	-11.104000	24.591925	0.000426	20.755726
911.267236	-2.994000	3.673100	-10.996000	24.600754	0.000424	20.762214
912.268359	-3.006000	3.673000	-11.041000	24.626719	0.000427	20.766457
913.266984	-2.997000	3.671900	-11.004000	24.597421	0.000424	20.744170
914.267873	-2.991400	3.672000	-10.984000	24.601202	0.000424	20.735636
915.269708	-2.995300	3.672700	-10.999000	24.626271	0.000424	20.755101
916.268140	-3.017500	3.671500	-11.077000	24.623808	0.000425	20.779183
917.270536	-2.988900	3.671600	-10.973000	24.615949	0.000425	20.757546
918.269558	-2.966400	3.670900	-10.888000	24.613088	0.000422	20.758943
919.268252	-3.009400	3.669900	-11.043000	24.609158	0.000424	20.773018
920.270300	-3.003000	3.670200	-11.020000	24.614680	0.000422	20.744892
921.272694	-2.994500	3.670500	-10.991000	24.592122	0.000423	20.768251
922.269586	-2.980600	3.670700	-10.939000	24.607591	0.000424	20.756272
923.268569	-2.993400	3.669500	-10.984000	24.605800	0.000422	20.776761
924.271681	-2.995700	3.669600	-10.991000	24.595130	0.000423	20.773167
925.272756	-3.001600	3.669000	-11.012000	24.610202	0.000423	20.751779
926.270733	-2.985000	3.669400	-10.953000	24.627064	0.000422	20.751629
927.271043	-3.014000	3.668900	-11.057000	24.622090	0.000422	20.766553
928.271940	-2.997500	3.668400	-10.995000	24.641587	0.000423	20.778057
929.271750	-2.995700	3.668800	-10.990000	24.622462	0.000421	20.767875
930.273889	-2.985700	3.669400	-10.954000	24.629824	0.000419	20.765779
931.271894	-2.990400	3.668300	-10.968000	24.631092	0.000420	20.770844
932.272025	-3.017000	3.666800	-11.061000	24.615473	0.000421	20.774612
933.275521	-2.989100	3.667200	-10.960000	24.619228	0.000421	20.775062
934.270529	-2.999400	3.667200	-10.999000	24.644546	0.000419	20.789086
935.271001	-2.994700	3.667900	-10.984000	24.634101	0.000418	20.776708
936.275708	-2.992900	3.667600	-10.976000	24.624799	0.000419	20.771642
937.271902	-3.013600	3.666000	-11.047000	24.638526	0.000418	20.772140
938.269946	-3.015100	3.666300	-11.053000	24.636562	0.000419	20.763057
939.276887	-3.015300	3.666500	-11.055000	24.645440	0.000417	20.764853
940.271566	-2.993600	3.666200	-10.973000	24.651384	0.000417	20.759438
941.274347	-3.014400	3.665800	-11.049000	24.639819	0.000416	20.765377
942.274772	-2.983200	3.666500	-10.937000	24.664664	0.000417	20.761383
943.277589	-2.997600	3.664900	-10.986000	24.655537	0.000417	20.765501
944.274096	-3.001200	3.665300	-10.999000	24.675183	0.000416	20.780474
945.277410	-3.002100	3.665400	-11.003000	24.665534	0.000416	20.797818
946.274937	-2.998800	3.664800	-10.989000	24.672223	0.000419	20.774185
947.274873	-3.007300	3.663600	-11.017000	24.679609	0.000417	20.768320
948.280980	-3.020400	3.663500	-11.063000	24.683936	0.000414	20.773136
949.276436	-3.007900	3.663900	-11.020000	24.681076	0.000415	20.772637
950.277761	-2.992600	3.663800	-10.963000	24.660757	0.000415	20.786387
951.280622	-2.987600	3.663600	-10.945000	24.684259	0.000417	20.791478
952.278612	-2.995400	3.662700	-10.970000	24.694977	0.000413	20.769991
953.277351	-3.001300	3.662700	-10.992000	24.696196	0.000417	20.792551
954.282888	-2.988800	3.662700	-10.945000	24.680478	0.000413	20.783891
955.277653	-3.004100	3.662700	-11.002000	24.702488	0.000413	20.782743
956.280232	-2.995600	3.662100	-10.970000	24.668440	0.000414	20.781769
957.280955	-3.015300	3.660300	-11.036000	24.684555	0.000414	20.790827
958.277233	-3.024300	3.660100	-11.068000	24.683934	0.000414	20.793997
959.280334	-2.989900	3.661200	-10.946000	24.687391	0.000414	20.778973
960.282593	-2.999400	3.660500	-10.978000	24.689231	0.000413	20.793622
961.281912	-2.985400	3.661200	-10.929000	24.689056	0.000412	20.792025
962.279709	-2.983700	3.660500	-10.921000	24.690051	0.000413	20.805825
963.284426	-2.995200	3.660000	-10.962000	24.690523	0.000412	20.806298
964.280466	-2.983200	3.660800	-10.920000	24.693059	0.000413	20.793671
965.281606	-3.006600	3.658700	-10.999000	24.700395	0.000411	20.807670
966.280153	-2.983100	3.659500	-10.916000	24.692935	0.000412	20.796391
967.280965	-3.027600	3.658400	-11.075000	24.709149	0.000410	20.799859
968.280989	-2.994500	3.659900	-10.958000	24.692561	0.000410	20.788904
969.281484	-3.008200	3.658200	-11.003000	24.727576	0.000410	20.808394
970.280484	-2.997000	3.658000	-10.962000	24.711686	0.000409	20.796715
971.280091	-2.994700	3.657700	-10.953000	24.725387	0.000410	20.795292
972.283973	-2.982600	3.657900	-10.909000	24.723870	0.000409	20.815106
973.280787	-3.004900	3.657900	-10.991000	24.726855	0.000408	20.786333
974.281794	-2.976500	3.656800	-10.884000	24.732699	0.000408	20.781766
975.283071	-2.993300	3.658200	-10.949000	24.727004	0.000408	20.817776
976.283432	-2.999200	3.656000	-10.964000	24.738916	0.000407	20.801756
977.281174	-3.013900	3.656200	-11.018000	24.734613	0.000409	20.790799
978.285420	-3.002200	3.656300	-10.975000	24.739761	0.000406	20.807819
979.283526	-2.999100	3.655200	-10.961000	24.728271	0.000407	20.793444
980.282392	-3.009500	3.656200	-11.002000	24.728819	0.000408	20.813434
981.292113	-2.997500	3.657100	-10.961000	24.721657	0.000407	20.793919
982.285506	-3.005400	3.654200	-10.981000	24.715614	0.000407	20.820097
983.285537	-2.999800	3.655000	-10.964000	24.709521	0.000405	20.820147
984.283785	-2.992800	3.654600	-10.936000	24.733743	0.000405	20.806047
985.284684	-3.019700	3.654100	-11.033000	24.717204	0.000404	20.803676
986.285452	-3.003200	3.654800	-10.975000	24.732076	0.000403	20.804375
987.286182	-2.996700	3.654600	-10.951000	24.730336	0.000403	20.816379
988.287038	-2.997900	3.654200	-10.954000	24.728445	0.000404	20.814481
989.286246	-2.994500	3.653300	-10.939000	24.721707	0.000404	20.822418
990.287217	-2.999300	3.654000	-10.958000	24.737696	0.000404	20.809540
991.288252	-2.985100	3.654000	-10.907000	24.737298	0.000403	20.807718
992.292082	-2.992600	3.653100	-10.931000	24.760176	0.000403	20.834469
993.290097	-2.998800	3.651900	-10.951000	24.742793	0.000403	20.829828
994.291393	-2.999800	3.653000	-10.957000	24.753860	0.000402	20.822441
995.290212	-2.997300	3.652200	-10.946000	24.753411	0.000403	20.826259
996.291309	-3.005600	3.651800	-10.975000	24.757937	0.000401	20.831275
997.291093	-3.002400	3.651000	-10.961000	24.762115	0.000401	20.820295
998.290575	-3.018600	3.651400	-11.021000	24.761692	0.000402	20.827930
999.295970	-3.007400	3.649400	-10.973000	24.748811	0.000401	20.813581
1000.291601	-2.990200	3.651500	-10.918000	24.770943	0.000399	20.817774
1001.293417	-3.004700	3.649800	-10.966000	24.763010	0.000401	20.847744
1002.294207	-2.983600	3.650300	-10.891000	24.775617	0.000401	20.819620
1003.293425	-2.969800	3.650300	-10.839000	24.772186	0.000399	20.819970
1004.292198	-3.004400	3.649300	-10.962000	24.777606	0.000400	20.817349
1005.292417	-2.991400	3.648900	-10.914000	24.786881	0.000398	20.835665
1006.290384	-2.983600	3.650100	-10.888000	24.774647	0.000400	20.826707
1007.292125	-2.998400	3.649700	-10.943000	24.788970	0.000399	20.811684
1008.295604	-2.988900	3.650500	-10.910000	24.773154	0.000399	20.822838
1009.294605	-3.022600	3.648100	-11.025000	24.770543	0.000397	20.819744
1010.292540	-3.016200	3.648600	-11.004000	24.795534	0.000398	20.827754
1011.292140	-3.017700	3.648100	-11.008000	24.801427	0.000398	20.820392
1012.295114	-3.018000	3.648300	-11.010000	24.782901	0.000397	20.847792
1013.294397	-3.023400	3.645900	-11.022000	24.807270	0.000396	20.852808
1014.294092	-2.978400	3.648100	-10.865000	24.808862	0.000397	20.844448
1015.295763	-3.000700	3.647100	-10.944000	24.785189	0.000396	20.841553
1016.293447	-2.995500	3.647000	-10.924000	24.814183	0.000396	20.849788
1017.293398	-2.995200	3.647100	-10.923000	24.811622	0.000394	20.827304
1018.297837	-2.978600	3.646900	-10.862000	24.784865	0.000396	20.842651
1019.292866	-3.003700	3.646900	-10.953000	24.801502	0.000394	20.837536
1020.293389	-3.016700	3.645500	-10.995000	24.806921	0.000394	20.851035
1021.301932	-3.005100	3.645600	-10.954000	24.815624	0.000395	20.833217
1022.296396	-3.005900	3.646100	-10.959000	24.821145	0.000395	20.828326
1023.299865	-3.001600	3.645600	-10.942000	24.813883	0.000392	20.857073
1024.300137	-2.990300	3.643200	-10.893000	24.804360	0.000393	20.827603
1025.296691	-2.989400	3.644800	-10.895000	24.795905	0.000391	20.835238
1026.293768	-2.993600	3.644300	-10.909000	24.812839	0.000392	20.839905
1027.299493	-3.012100	3.643100	-10.973000	24.809333	0.000392	20.856774
1028.298194	-2.990700	3.644200	-10.898000	24.823208	0.000393	20.827078
1029.296906	-3.015800	3.643100	-10.986000	24.846483	0.000389	20.831944
1030.301178	-3.009100	3.642400	-10.960000	24.832335	0.000391	20.840504
1031.297652	-3.011800	3.642100	-10.969000	24.811894	0.000390	20.845595
1032.301033	-3.011800	3.642600	-10.969000	24.831886	0.000390	20.846692
1033.304381	-3.012400	3.642200	-10.971000	24.827710	0.000389	20.848190
1034.298650	-3.013300	3.642100	-10.974000	24.832682	0.000389	20.861715
1035.299342	-2.986700	3.641700	-10.876000	24.834000	0.000389	20.847866
1036.301146	-2.973100	3.642900	-10.829000	24.834076	0.000390	20.852208
1037.298935	-2.993700	3.640200	-10.897000	24.824054	0.000388	20.852582
1038.299697	-2.997700	3.640600	-10.913000	24.835865	0.000389	20.859694
1039.306757	-2.995500	3.640900	-10.905000	24.872840	0.000388	20.860767
1040.299071	-2.994900	3.641100	-10.904000	24.838999	0.000388	20.864735
1041.304364	-2.985800	3.640100	-10.868000	24.836014	0.000386	20.848464
1042.306329	-2.989100	3.640600	-10.881000	24.855186	0.000388	20.868652
1043.303140	-3.005300	3.640000	-10.939000	24.838601	0.000386	20.868603
1044.307076	-2.999500	3.639200	-10.915000	24.849441	0.000386	20.868103
1045.306190	-2.993100	3.638900	-10.890000	24.837108	0.000387	20.865208
1046.303244	-3.009100	3.639900	-10.952000	24.816071	0.000384	20.863536
1047.301606	-3.004800	3.638600	-10.933000	24.833602	0.000385	20.862163
1048.308537	-2.996400	3.639500	-10.904000	24.863366	0.000385	20.860267
1049.301207	-3.030500	3.637100	-11.022000	24.833179	0.000385	20.865058
1050.305374	-3.006600	3.637000	-10.934000	24.862644	0.000385	20.878508
1051.307628	-2.998900	3.637000	-10.906000	24.838475	0.000386	20.882700
1052.311305	-3.024900	3.636400	-10.999000	24.866847	0.000385	20.885096
1053.307868	-2.985100	3.638000	-10.858000	24.845039	0.000384	20.870323
1054.308398	-3.014100	3.636400	-10.959000	24.857174	0.000385	20.873018
1055.305995	-3.020100	3.635000	-10.977000	24.867567	0.000384	20.866380
1056.305994	-3.010700	3.636700	-10.947000	24.879254	0.000383	20.875264
1057.308454	-2.990300	3.636200	-10.872000	24.865429	0.000382	20.855225
1058.307569	-2.992500	3.636400	-10.881000	24.856079	0.000383	20.861015
1059.305940	-2.974600	3.636300	-10.816000	24.873957	0.000384	20.865681
1060.309395	-2.999500	3.635200	-10.902000	24.872366	0.000382	20.881627
1061.311270	-2.990800	3.635900	-10.873000	24.888876	0.000382	20.882549
1062.313892	-3.000000	3.634700	-10.903000	24.868288	0.000381	20.857147
1063.311141	-3.011500	3.633900	-10.943000	24.882659	0.000381	20.885319
1064.313691	-3.019000	3.633500	-10.968000	24.875597	0.000379	20.869698
1065.309749	-2.998500	3.633600	-10.895000	24.895738	0.000378	20.879006
1066.312278	-3.003900	3.634000	-10.914000	24.885693	0.000380	20.882200
1067.313088	-2.985700	3.633700	-10.849000	24.903346	0.000378	20.877632
1068.309572	-2.974100	3.633900	-10.806000	24.913988	0.000378	20.873141
1069.312245	-3.004500	3.633300	-10.916000	24.899069	0.000377	20.891357
1070.315143	-3.010000	3.632000	-10.931000	24.893077	0.000376	20.876809
1071.312541	-3.005000	3.632500	-10.915000	24.916548	0.000377	20.883296
1072.315750	-2.998200	3.630600	-10.885000	24.905509	0.000376	20.879803
1073.317142	-3.004600	3.630900	-10.909000	24.893847	0.000376	20.876160
1074.313288	-3.007400	3.630500	-10.917000	24.879077	0.000376	20.906852
1075.315457	-2.981100	3.631600	-10.825000	24.893026	0.000376	20.879603
1076.317158	-3.011700	3.630500	-10.933000	24.897079	0.000375	20.871343
1077.314402	-3.012600	3.630500	-10.936000	24.905110	0.000375	20.883196
1078.319690	-2.998100	3.630100	-10.883000	24.903891	0.000375	20.890507
1079.314315	-2.993600	3.630800	-10.868000	24.892877	0.000374	20.903159
1080.315779	-3.030400	3.628600	-10.996000	24.896805	0.000374	20.884818
1081.322217	-2.970300	3.630500	-10.783000	24.924156	0.000375	20.905155
1082.317366	-2.988200	3.628700	-10.842000	24.914632	0.000373	20.904131
1083.317501	-2.998900	3.629000	-10.882000	24.916571	0.000373	20.908921
1084.325700	-3.005300	3.627400	-10.900000	24.907396	0.000371	20.909670
1085.318050	-2.993100	3.627800	-10.857000	24.928480	0.000373	20.887212
1086.318831	-2.999100	3.629200	-10.884000	24.915725	0.000373	20.901435
1087.323468	-2.999800	3.627300	-10.880000	24.920623	0.000371	20.911565
1088.331342	-2.997200	3.626800	-10.867000	24.928753	0.000370	20.884167
1089.318883	-3.009400	3.627700	-10.916000	24.921791	0.000370	20.896144
1090.328226	-2.996500	3.626800	-10.865000	24.906351	0.000371	20.910517
1091.321824	-3.010300	3.625400	-10.912000	24.957917	0.000371	20.891153
1092.328783	-3.013900	3.625600	-10.926000	24.939493	0.000371	20.906799
1093.328598	-2.985800	3.625100	-10.822000	24.948270	0.000369	20.911340
1094.323765	-2.982400	3.626400	-10.814000	24.931959	0.000370	20.888807
1095.323494	-2.989000	3.626000	-10.837000	24.954162	0.000370	20.921046
1096.325905	-2.993500	3.624800	-10.850000	24.947026	0.000370	20.922418
1097.325346	-3.018700	3.623100	-10.936000	24.949065	0.000369	20.906449
1098.323709	-2.995100	3.624000	-10.853000	24.964579	0.000369	20.913011
1099.327465	-2.978400	3.625700	-10.798000	24.954634	0.000369	20.908245
1100.327119	-3.004100	3.623600	-10.884000	24.958736	0.000366	20.916154
1101.329508	-2.994600	3.623000	-10.848000	24.963161	0.000368	20.904950
1102.329347	-3.003600	3.623100	-10.882000	24.977930	0.000367	20.906023
1103.329453	-3.008000	3.621800	-10.894000	24.972535	0.000367	20.920521
1104.327672	-3.014400	3.623600	-10.921000	24.964702	0.000366	20.921668
1105.328117	-2.984400	3.622800	-10.810000	24.984741	0.000365	20.916178
1106.326835	-2.985600	3.623200	-10.816000	24.977630	0.000366	20.926109
1107.327715	-2.972900	3.621800	-10.766000	24.954508	0.000365	20.911437
1108.325970	-2.994100	3.621100	-10.840000	24.971091	0.000366	20.944199
1109.330301	-2.989100	3.621900	-10.825000	24.985536	0.000364	20.915079
1110.328797	-2.993000	3.620900	-10.837000	24.960051	0.000361	20.921741
1111.328457	-3.018500	3.620900	-10.929000	24.978225	0.000363	20.900156
1112.331483	-2.992000	3.621600	-10.834000	24.981258	0.000362	20.926431
1113.329011	-3.009900	3.621700	-10.899000	24.995728	0.000362	20.933368
1114.330230	-2.999300	3.621400	-10.860000	24.985609	0.000363	20.925583
1115.334010	-2.995900	3.620600	-10.846000	24.991551	0.000362	20.909263
1116.331962	-3.004900	3.620400	-10.878000	24.979070	0.000362	20.920917
1117.330910	-3.017900	3.618000	-10.918000	24.990505	0.000363	20.931445
1118.333609	-2.981400	3.620400	-10.793000	24.976607	0.000361	20.939780
1119.327972	-3.020500	3.618200	-10.928000	24.975861	0.000361	20.915800
1120.331344	-3.010900	3.617200	-10.890000	24.987447	0.000361	20.927428
1121.330954	-2.999400	3.617300	-10.849000	25.009798	0.000360	20.906243
1122.332165	-2.998000	3.617900	-10.846000	24.998784	0.000360	20.891870
1123.332406	-2.993000	3.618200	-10.829000	25.016411	0.000359	20.926629
1124.334924	-2.983700	3.618500	-10.795000	25.007635	0.000359	20.931095
1125.333108	-2.992200	3.617500	-10.824000	25.006640	0.000357	20.926779
1126.332552	-2.985400	3.616200	-10.795000	25.019369	0.000359	20.898307
1127.335442	-3.028000	3.614600	-10.943000	25.016410	0.000357	20.903397
1128.333370	-2.983200	3.616800	-10.788000	25.010095	0.000357	20.916971
1129.336343	-2.992200	3.616000	-10.819000	24.997763	0.000359	20.901275
1130.342026	-3.007900	3.613800	-10.869000	25.005669	0.000357	20.909685
1131.335833	-2.981000	3.615100	-10.776000	24.996147	0.000357	20.915773
1132.345558	-3.004300	3.615500	-10.861000	25.033539	0.000357	20.906366
1133.337554	-3.009300	3.614500	-10.876000	25.001667	0.000354	20.888125
1134.336794	-3.011700	3.613400	-10.882000	25.016932	0.000354	20.906765
1135.339653	-2.995800	3.614200	-10.825000	25.010940	0.000354	20.899329
1136.335992	-3.003800	3.614400	-10.855000	25.041992	0.000354	20.896834
1137.338934	-3.008300	3.613500	-10.869000	25.037118	0.000354	20.883882
1138.339173	-3.019400	3.612400	-10.906000	25.014718	0.000354	20.899803
1139.337313	-2.975400	3.614700	-10.753000	25.018374	0.000354	20.895412
1140.338222	-3.018200	3.610800	-10.896000	25.047959	0.000356	20.889548
1141.337792	-2.994900	3.611400	-10.815000	25.026703	0.000353	20.907564
1142.338282	-3.014500	3.611400	-10.886000	25.028840	0.000353	20.893116
1143.347445	-2.986700	3.611500	-10.785000	25.023296	0.000354	20.896085
1144.345943	-2.985600	3.611900	-10.783000	25.045796	0.000353	20.887851
1145.342965	-3.014500	3.611000	-10.884000	25.036125	0.000352	20.893315
1146.339992	-2.979000	3.611700	-10.758000	25.051538	0.000350	20.886503
1147.343450	-2.995600	3.610700	-10.816000	25.038785	0.000350	20.909261
1148.340301	-3.017800	3.608800	-10.890000	25.058648	0.000350	20.901699
1149.340443	-2.979600	3.609300	-10.753000	25.029711	0.000351	20.889248
1150.343107	-3.008500	3.610300	-10.860000	25.038710	0.000350	20.895910
1151.345811	-3.002900	3.609700	-10.839000	25.038039	0.000349	20.863471
1152.346415	-3.000100	3.607400	-10.821000	25.054099	0.000348	20.875798
1153.348089	-3.018700	3.608300	-10.891000	25.058897	0.000347	20.895311
1154.345829	-2.989900	3.609200	-10.789000	25.025186	0.000347	20.881388
1155.346295	-3.007700	3.607600	-10.850000	25.046392	0.000348	20.863795
1156.346031	-3.012700	3.606500	-10.864000	25.050072	0.000346	20.894513
1157.342631	-2.998900	3.607200	-10.816000	25.037293	0.000347	20.884057
1158.344600	-2.994300	3.608300	-10.803000	25.067872	0.000345	20.881563
1159.346811	-2.985700	3.605700	-10.764000	25.030704	0.000346	20.883608
1160.342459	-3.008700	3.605800	-10.848000	25.057530	0.000345	20.878768
1161.343211	-3.006600	3.606400	-10.842000	25.051961	0.000345	20.879341
1162.350681	-3.005400	3.605800	-10.835000	25.048904	0.000343	20.864893
1163.345002	-3.002900	3.605800	-10.825000	25.033092	0.000345	20.873677
1164.344937	-3.010300	3.605500	-10.852000	25.037344	0.000345	20.877471
1165.347410	-3.003100	3.605000	-10.825000	25.037394	0.000343	20.875150
1166.344972	-3.000100	3.605100	-10.815000	25.042291	0.000343	20.872480
1167.345513	-3.020300	3.603000	-10.881000	25.072174	0.000342	20.868338
1168.347420	-2.989600	3.604300	-10.775000	25.058153	0.000343	20.861376
1169.348408	-2.987000	3.603800	-10.764000	25.057755	0.000342	20.860028
1170.348233	-2.978700	3.604300	-10.735000	25.058924	0.000342	20.869261
1171.346942	-2.982200	3.603900	-10.746000	25.053454	0.000341	20.869461
1172.345253	-2.985600	3.603000	-10.757000	25.052733	0.000341	20.863522
1173.348732	-2.990400	3.602900	-10.773000	25.068346	0.000338	20.887253
1174.351433	-3.018600	3.600900	-10.868000	25.069863	0.000336	20.860803
1175.349861	-3.002000	3.603500	-10.816000	25.056165	0.000338	20.839941
1176.347366	-2.988500	3.600700	-10.759000	25.050571	0.000339	20.862300
1177.349110	-3.002200	3.600700	-10.809000	25.053131	0.000339	20.877197
1178.347744	-3.009700	3.600200	-10.834000	25.048333	0.000338	20.861002
1179.349572	-3.003300	3.600200	-10.811000	25.042441	0.000337	20.870734
1180.347898	-3.003100	3.601800	-10.815000	25.048930	0.000336	20.868713
1181.347489	-2.992000	3.601000	-10.773000	25.057234	0.000336	20.862824
1182.348836	-3.027500	3.599900	-10.897000	25.071926	0.000337	20.851495
1183.350407	-2.989000	3.599200	-10.757000	25.061411	0.000335	20.865121
1184.350484	-3.004600	3.598600	-10.812000	25.082169	0.000336	20.841389
1185.350595	-3.004800	3.599200	-10.814000	25.048732	0.000335	20.859506
1186.350473	-2.993500	3.599000	-10.773000	25.080554	0.000334	20.845931
1187.351161	-3.002900	3.598400	-10.804000	25.078465	0.000334	20.856162
1188.350744	-2.996800	3.598300	-10.782000	25.097881	0.000333	20.846255
1189.349473	-2.992400	3.598400	-10.766000	25.076452	0.000333	20.846081
1190.350145	-3.000500	3.597200	-10.791000	25.098329	0.000335	20.850972
1191.350753	-2.999800	3.597000	-10.789000	25.083587	0.000334	20.851821
1192.353632	-2.991100	3.597100	-10.757000	25.080380	0.000332	20.848602
1193.353827	-3.014400	3.595800	-10.838000	25.104445	0.000332	20.868965
1194.353404	-3.017100	3.595300	-10.846000	25.084880	0.000332	20.837946
1195.354561	-3.029700	3.595100	-10.892000	25.098628	0.000332	20.839893
1196.354769	-3.021600	3.595300	-10.862000	25.096838	0.000331	20.850424
1197.353978	-3.008200	3.593500	-10.809000	25.096838	0.000330	20.816760
1198.354753	-2.994100	3.595800	-10.765000	25.095198	0.000331	20.845458
1199.354799	-3.002600	3.594800	-10.793000	25.090225	0.000331	20.843312
1200.354456	-3.012800	3.595000	-10.830000	25.073122	0.000329	20.846532
1201.354569	-2.983500	3.595400	-10.726000	25.094999	0.000329	20.852845
1202.352125	-2.986000	3.594200	-10.731000	25.098753	0.000328	20.813467
1203.360411	-3.043100	3.592900	-10.933000	25.097460	0.000329	20.842514
1204.357334	-3.009400	3.593100	-10.811000	25.082967	0.000326	20.846457
1205.357094	-3.006400	3.592700	-10.800000	25.087640	0.000327	20.828389
1206.356995	-2.995800	3.592500	-10.762000	25.089530	0.000326	20.841666
1207.358277	-3.021300	3.592500	-10.852000	25.121550	0.000327	20.844412
1208.358356	-3.010400	3.592200	-10.812000	25.109145	0.000329	20.848079
1209.364018	-2.989500	3.592500	-10.738000	25.102805	0.000327	20.837448
1210.359244	-3.009400	3.590600	-10.804000	25.105068	0.000326	20.834978
1211.359945	-3.014300	3.589800	-10.820000	25.111656	0.000326	20.835902
1212.360362	-3.015900	3.589900	-10.826000	25.097038	0.000324	20.830237
1213.361227	-2.982800	3.590900	-10.710000	25.104148	0.000326	20.829313
1214.365217	-3.003100	3.590600	-10.781000	25.103576	0.000323	20.836799
1215.361089	-3.000500	3.589800	-10.769000	25.101588	0.000326	20.837648
1216.375449	-3.009800	3.588300	-10.799000	25.114638	0.000325	20.834629
1217.366591	-2.992900	3.589300	-10.741000	25.107528	0.000323	20.824646
1218.361541	-2.998000	3.588300	-10.757000	25.126720	0.000323	20.842489
1219.361826	-3.014500	3.588500	-10.817000	25.096839	0.000321	20.835252
1220.363920	-3.004500	3.587800	-10.778000	25.119387	0.000323	20.835128
1221.360684	-3.002500	3.588400	-10.772000	25.117572	0.000319	20.826194
1222.364882	-3.014800	3.587100	-10.813000	25.112525	0.000322	20.830136
1223.364773	-3.022300	3.587200	-10.840000	25.091096	0.000320	20.839918
1224.365530	-3.007400	3.586100	-10.784000	25.123811	0.000321	20.837673
1225.363455	-2.945100	3.587800	-10.565000	25.127565	0.000319	20.826743
1226.365527	-2.982800	3.586400	-10.696000	25.112973	0.000317	20.833905
1227.362864	-2.991300	3.586000	-10.725000	25.128982	0.000320	20.835277
1228.361944	-2.994200	3.586500	-10.738000	25.111133	0.000319	20.815463
1229.364230	-2.989800	3.586600	-10.722000	25.123190	0.000319	20.827566
1230.363850	-2.992900	3.585300	-10.729000	25.118094	0.000318	20.834304
1231.362249	-3.005900	3.584800	-10.774000	25.103675	0.000315	20.838321
1232.364675	-2.985400	3.585000	-10.701000	25.123190	0.000318	20.834678
1233.363317	-3.009500	3.585300	-10.789000	25.105117	0.000317	20.841192
1234.364565	-3.011900	3.582900	-10.791000	25.133283	0.000317	20.847180
1235.369455	-2.998100	3.584000	-10.744000	25.132462	0.000316	20.847305
1236.366128	-2.993700	3.583100	-10.726000	25.142953	0.000316	20.823698
1237.367637	-2.990800	3.583400	-10.717000	25.141064	0.000314	20.846457
1238.367448	-3.006300	3.582500	-10.769000	25.137385	0.000314	20.815738
1239.367572	-2.983600	3.583300	-10.691000	25.133109	0.000315	20.830412
1240.365097	-3.026900	3.581800	-10.841000	25.135272	0.000314	20.821203
1241.367717	-3.013600	3.581400	-10.792000	25.127640	0.000313	20.819706
1242.369798	-3.001000	3.581800	-10.746000	25.137982	0.000312	20.811596
1243.379117	-3.022700	3.580700	-10.823000	25.145837	0.000313	20.828964
1244.373346	-2.995100	3.580500	-10.723000	25.126273	0.000311	20.838247
1245.368845	-2.946100	3.581900	-10.551000	25.122817	0.000311	20.815338
1246.373540	-2.996000	3.579800	-10.724000	25.145588	0.000309	20.818283
1247.374173	-2.999100	3.580300	-10.737000	25.119462	0.000308	20.823349
1248.370708	-3.018800	3.579200	-10.804000	25.128908	0.000312	20.824771
1249.367697	-3.015300	3.578300	-10.789000	25.138975	0.000309	20.818757
1250.372912	-3.001000	3.579100	-10.739000	25.118392	0.000308	20.799517
1251.369461	-2.984200	3.578200	-10.678000	25.118616	0.000309	20.820130
1252.367060	-2.994700	3.578200	-10.715000	25.131443	0.000308	20.814040
1253.372434	-2.985200	3.579000	-10.684000	25.135222	0.000308	20.822576
1254.372186	-3.003400	3.577700	-10.744000	25.131543	0.000307	20.815089
1255.369227	-2.997800	3.578200	-10.726000	25.140864	0.000306	20.813541
1256.373163	-3.009100	3.576400	-10.761000	25.140691	0.000306	20.803410
1257.373013	-2.996100	3.576700	-10.715000	25.142431	0.000305	20.815114
1258.367760	-3.036500	3.575200	-10.854000	25.151678	0.000306	20.813492
1259.372395	-2.996900	3.577600	-10.721000	25.167364	0.000307	20.841092
1260.370066	-3.007700	3.576100	-10.755000	25.159558	0.000306	20.831834
1261.370702	-3.015300	3.575500	-10.780000	25.142057	0.000304	20.830860
1262.371354	-3.001000	3.574000	-10.724000	25.167711	0.000303	20.813940
1263.367951	-2.999300	3.575500	-10.723000	25.163362	0.000303	20.808625
1264.369921	-3.005200	3.573500	-10.738000	25.167488	0.000303	20.825095
1265.371545	-3.005500	3.574100	-10.740000	25.149242	0.000304	20.805830
1266.369366	-2.997700	3.573900	-10.713000	25.156003	0.000303	20.809298
1267.368864	-2.996000	3.572600	-10.702000	25.121922	0.000301	20.817759
1268.371535	-2.965600	3.574100	-10.598000	25.138279	0.000302	20.800040
1269.368834	-3.015600	3.573200	-10.774000	25.134898	0.000301	20.817983
1270.369593	-2.999400	3.572900	-10.716000	25.153194	0.000301	20.805530
1271.374063	-2.990400	3.572600	-10.682000	25.141858	0.000299	20.804582
1272.367803	-3.011900	3.571400	-10.755000	25.182650	0.000301	20.803808
1273.370917	-2.979600	3.573000	-10.645000	25.146259	0.000300	20.794775
1274.375992	-2.999700	3.571900	-10.714000	25.158563	0.000300	20.804756
1275.371588	-2.993300	3.571300	-10.689000	25.168059	0.000298	20.810971
1276.373049	-2.989600	3.570600	-10.673000	25.146680	0.000299	20.830285
1277.387943	-2.992800	3.570900	-10.686000	25.167437	0.000297	20.805130
1278.370994	-2.991400	3.570100	-10.678000	25.153740	0.000300	20.809872
1279.373703	-2.986000	3.570500	-10.660000	25.167039	0.000296	20.799041
1280.381250	-2.977900	3.570500	-10.631000	25.159980	0.000297	20.798592
1281.374709	-2.987800	3.569600	-10.664000	25.173254	0.000297	20.794849
1282.374256	-2.988600	3.569000	-10.665000	25.160899	0.000296	20.795722
1283.378362	-2.976800	3.569100	-10.623000	25.157121	0.000297	20.783868
1284.374841	-2.990100	3.567900	-10.667000	25.168257	0.000296	20.814488
1285.374129	-3.004600	3.569100	-10.722000	25.171141	0.000295	20.815961
1286.380157	-2.995100	3.566700	-10.682000	25.175590	0.000294	20.806203
1287.376438	-2.979800	3.567300	-10.629000	25.169078	0.000293	20.790182
1288.375494	-3.008700	3.567300	-10.732000	25.184564	0.000293	20.809522
1289.381389	-2.996300	3.566200	-10.685000	25.170892	0.000292	20.815237
1290.377181	-3.031100	3.566100	-10.808000	25.173154	0.000293	20.800438
1291.377848	-3.006900	3.564700	-10.718000	25.195526	0.000294	20.806777
1292.380986	-3.014900	3.566400	-10.751000	25.207657	0.000292	20.801412
1293.377954	-3.016600	3.564600	-10.752000	25.185409	0.000291	20.790930
1294.384728	-2.988600	3.565700	-10.655000	25.186552	0.000291	20.778328
1295.381477	-3.012000	3.565000	-10.736000	25.176137	0.000290	20.785889
1296.376873	-2.996600	3.565200	-10.681000	25.179269	0.000290	20.772438
1297.378845	-3.009600	3.565500	-10.730000	25.194731	0.000289	20.784168
1298.384654	-3.007900	3.563700	-10.718000	25.193835	0.000290	20.797493
1299.378041	-2.984200	3.565200	-10.638000	25.181854	0.000287	20.790206
1300.380613	-3.013100	3.563100	-10.736000	25.184365	0.000290	20.799839
1301.380767	-3.003900	3.562600	-10.701000	25.191623	0.000288	20.808548
1302.378150	-2.983700	3.563800	-10.632000	25.185410	0.000287	20.790457
1303.379533	-2.999400	3.562800	-10.686000	25.169624	0.000288	20.793101
1304.383988	-3.004200	3.561600	-10.699000	25.197962	0.000286	20.778402
1305.377082	-2.993000	3.563200	-10.664000	25.193811	0.000285	20.793201
1306.377863	-3.016400	3.561700	-10.743000	25.183843	0.000285	20.766125
1307.380047	-2.998900	3.561200	-10.679000	25.187050	0.000283	20.777879
1308.379656	-3.002800	3.561900	-10.694000	25.177107	0.000284	20.795398
1309.381396	-2.979400	3.563000	-10.614000	25.175392	0.000283	20.780400
1310.382467	-3.001500	3.561100	-10.688000	25.204624	0.000283	20.774659
1311.381576	-2.991100	3.560600	-10.648000	25.185683	0.000283	20.764179
1312.383699	-2.985900	3.559000	-10.626000	25.165299	0.000283	20.771216
1313.386521	-3.009200	3.558800	-10.709000	25.166443	0.000282	20.768097
1314.383638	-2.986600	3.559600	-10.631000	25.184118	0.000281	20.776832
1315.387159	-3.001400	3.558900	-10.681000	25.184042	0.000281	20.781498
1316.383885	-2.989900	3.558900	-10.640000	25.178251	0.000283	20.760036
1317.382359	-2.998400	3.557700	-10.667000	25.192594	0.000281	20.768272
1318.383322	-2.983100	3.558600	-10.615000	25.202140	0.000279	20.772165
1319.389328	-3.000000	3.557800	-10.673000	25.181384	0.000280	20.774087
1320.391657	-2.979400	3.557400	-10.598000	25.195627	0.000278	20.770842
1321.383440	-2.997200	3.557800	-10.663000	25.200051	0.000279	20.768172
1322.387511	-2.997800	3.555600	-10.658000	25.185858	0.000279	20.793277
1323.386448	-3.021900	3.556100	-10.745000	25.193316	0.000279	20.765203
1324.387799	-2.990300	3.556200	-10.633000	25.175791	0.000278	20.748082
1325.389983	-3.000000	3.556300	-10.668000	25.189537	0.000278	20.764254
1326.386754	-2.992700	3.554600	-10.638000	25.206390	0.000277	20.748457
1327.385309	-3.009600	3.554900	-10.697000	25.189960	0.000275	20.779377
1328.388699	-2.998600	3.554300	-10.657000	25.191203	0.000277	20.756917
1329.387141	-3.007200	3.554600	-10.688000	25.198288	0.000274	20.764504
1330.388129	-3.004600	3.553600	-10.675000	25.202563	0.000275	20.773064
1331.388669	-3.019900	3.554100	-10.732000	25.194956	0.000275	20.780600
1332.383755	-2.996400	3.553000	-10.645000	25.181235	0.000275	20.755919
1333.384069	-2.995000	3.553500	-10.642000	25.206788	0.000273	20.755969
1334.387068	-2.996900	3.553500	-10.649000	25.173181	0.000277	20.777706
1335.384068	-3.004600	3.552400	-10.673000	25.183795	0.000275	20.778879
1336.391068	-2.995600	3.552300	-10.639000	25.214048	0.000274	20.762783
1337.390317	-3.015100	3.551200	-10.707000	25.189264	0.000271	20.779153
1338.385910	-3.001500	3.552100	-10.660000	25.172261	0.000274	20.767773
1339.387196	-3.005900	3.552400	-10.677000	25.178923	0.000272	20.747434
1340.390073	-2.994700	3.551200	-10.633000	25.214121	0.000269	20.764279
1341.384159	-3.011300	3.550600	-10.691000	25.188393	0.000272	20.753622
1342.388361	-3.021300	3.549900	-10.724000	25.183372	0.000269	20.759487
1343.392003	-3.021400	3.549200	-10.722000	25.169302	0.000268	20.740146
1344.390654	-2.990800	3.550500	-10.618000	25.194856	0.000271	20.742566
1345.388699	-3.012700	3.548600	-10.689000	25.207060	0.000269	20.759561
1346.390188	-3.003200	3.548700	-10.656000	25.189561	0.000269	20.751001
1347.390332	-3.005200	3.548200	-10.662000	25.196918	0.000270	20.773561
1348.393527	-2.994900	3.548800	-10.628000	25.203232	0.000267	20.748130
1349.392251	-2.974600	3.550000	-10.559000	25.206016	0.000269	20.756141
1350.389566	-2.987600	3.547900	-10.598000	25.193960	0.000266	20.766797
1351.391167	-3.007100	3.547000	-10.665000	25.192890	0.000267	20.773311
1352.397831	-3.012700	3.546900	-10.684000	25.173302	0.000268	20.751748
1353.392245	-2.986700	3.546400	-10.591000	25.208501	0.000267	20.753420
1354.390790	-3.002000	3.546100	-10.645000	25.189459	0.000266	20.750425
1355.393886	-3.021700	3.546400	-10.715000	25.196072	0.000268	20.759909
1356.392045	-2.987600	3.546700	-10.596000	25.194779	0.000266	20.750550
1357.390137	-2.978300	3.545500	-10.558000	25.203777	0.000265	20.755790
1358.393106	-2.991800	3.544800	-10.604000	25.215012	0.000262	20.765173
1359.393488	-2.986200	3.544400	-10.583000	25.208449	0.000262	20.732979
1360.396920	-3.018000	3.544500	-10.696000	25.200446	0.000263	20.732531
1361.396559	-3.006300	3.544000	-10.654000	25.208424	0.000263	20.756663
1362.394136	-3.016800	3.542700	-10.685000	25.208498	0.000262	20.731132
1363.396664	-3.007500	3.543100	-10.655000	25.217969	0.000261	20.746331
1364.393285	-3.005400	3.542000	-10.643000	25.202707	0.000262	20.745233
1365.394149	-2.995300	3.543000	-10.611000	25.201091	0.000260	20.737446
1366.398753	-3.016100	3.541700	-10.681000	25.212599	0.000262	20.733827
1367.393026	-2.991700	3.541800	-10.595000	25.225301	0.000261	20.758434
1368.394064	-2.990900	3.541400	-10.591000	25.240016	0.000258	20.736696
1369.393315	-3.002400	3.541300	-10.632000	25.195348	0.000258	20.739741
1370.396181	-2.997000	3.541700	-10.613000	25.191992	0.000260	20.730682
1371.394862	-3.008000	3.540500	-10.649000	25.207254	0.000261	20.743160
1372.396885	-3.007800	3.540300	-10.648000	25.208099	0.000257	20.753965
1373.402770	-3.017000	3.540500	-10.679000	25.208795	0.000257	20.754190
1374.395561	-2.986000	3.541600	-10.575000	25.198653	0.000257	20.737369
1375.397504	-3.034000	3.539600	-10.738000	25.202232	0.000257	20.750920
1376.395693	-3.028900	3.540300	-10.721000	25.205439	0.000256	20.735647
1377.395038	-3.034300	3.538700	-10.736000	25.186671	0.000255	20.755687
1378.394924	-3.016000	3.538500	-10.671000	25.183116	0.000255	20.738841
1379.398397	-3.017100	3.537700	-10.673000	25.207278	0.000256	20.743184
1380.396767	-2.991100	3.538100	-10.582000	25.216848	0.000256	20.728135
1381.396924	-2.976600	3.538400	-10.532000	25.225100	0.000254	20.727885
1382.396723	-2.977300	3.539200	-10.536000	25.208371	0.000253	20.747600
1383.399546	-2.987600	3.536800	-10.566000	25.211006	0.000254	20.733650
1384.399477	-3.005300	3.536900	-10.629000	25.203772	0.000255	20.741086
1385.395713	-2.999600	3.535400	-10.603000	25.208172	0.000253	20.743133
1386.400700	-2.998800	3.535500	-10.601000	25.208693	0.000254	20.746975
1387.400575	-2.987600	3.537100	-10.566000	25.236633	0.000253	20.721446
1388.398766	-3.002800	3.535600	-10.616000	25.225323	0.000251	20.731428
1389.413920	-2.995100	3.536400	-10.591000	25.223956	0.000253	20.740013
1390.401916	-2.989100	3.535900	-10.568000	25.223384	0.000250	20.751293
1391.399850	-2.988800	3.534600	-10.563000	25.240411	0.000250	20.757957
1392.401584	-3.010000	3.533800	-10.636000	25.223632	0.000251	20.745378
1393.401410	-2.992800	3.534200	-10.576000	25.214933	0.000250	20.725738
1394.398819	-2.988600	3.534200	-10.562000	25.221694	0.000251	20.738216
1395.408829	-2.996400	3.532700	-10.584000	25.223359	0.000250	20.736569
1396.401914	-2.997500	3.533700	-10.592000	25.231487	0.000247	20.745204
1397.402972	-3.022600	3.532600	-10.676000	25.224304	0.000247	20.755062
1398.406267	-2.980300	3.533300	-10.529000	25.223782	0.000249	20.754064
1399.406764	-2.995400	3.533100	-10.582000	25.223906	0.000248	20.729531
1400.407705	-3.006400	3.532000	-10.618000	25.226317	0.000247	20.753290
1401.410292	-3.007400	3.531400	-10.619000	25.209191	0.000245	20.753165
1402.404906	-3.016500	3.531600	-10.652000	25.208893	0.000245	20.743382
1403.402562	-3.012700	3.530600	-10.636000	25.189677	0.000244	20.750644
1404.410387	-2.991800	3.530900	-10.563000	25.200515	0.000245	20.733075
1405.402268	-3.020000	3.529800	-10.659000	25.199396	0.000244	20.771308
1406.404004	-2.985100	3.530900	-10.540000	25.214783	0.000245	20.735545
1407.412317	-3.012000	3.530800	-10.634000	25.224204	0.000244	20.749746
1408.403899	-2.972200	3.530600	-10.493000	25.224279	0.000242	20.738440
1409.404744	-2.998800	3.529100	-10.582000	25.208768	0.000244	20.739938
1410.411186	-3.006100	3.530300	-10.611000	25.211477	0.000244	20.746925
1411.406024	-3.013500	3.527900	-10.631000	25.215032	0.000244	20.742907
1412.406603	-3.007300	3.528800	-10.611000	25.221072	0.000241	20.758929
1413.408090	-3.021100	3.527400	-10.656000	25.231835	0.000241	20.746975
1414.417397	-2.995900	3.526800	-10.565000	25.222737	0.000241	20.743531
1415.408253	-3.003400	3.527900	-10.595000	25.236905	0.000241	20.740685
1416.413290	-3.003400	3.527400	-10.593000	25.216398	0.000240	20.749021
1417.408197	-3.000100	3.527300	-10.581000	25.206083	0.000239	20.752416
1418.409690	-3.011600	3.526700	-10.620000	25.233028	0.000241	20.750544
1419.412762	-2.995700	3.525900	-10.562000	25.223955	0.000239	20.762298
1420.409887	-3.027900	3.525100	-10.672000	25.228454	0.000238	20.752590
1421.407862	-3.011100	3.525500	-10.615000	25.235961	0.000239	20.771507
1422.417078	-3.007100	3.523700	-10.595000	25.227610	0.000238	20.759803
1423.408684	-3.010600	3.524900	-10.611000	25.209886	0.000237	20.770459
1424.410315	-2.995100	3.525400	-10.557000	25.225820	0.000236	20.760851
1425.416716	-3.002900	3.524700	-10.583000	25.201087	0.000236	20.756409
1426.411324	-3.002200	3.524400	-10.579000	25.219680	0.000234	20.771283
1427.411709	-3.001300	3.524400	-10.577000	25.210260	0.000238	20.746177
1428.415641	-3.040300	3.520700	-10.703000	25.242200	0.000236	20.762598
1429.416818	-3.008500	3.523300	-10.598000	25.226367	0.000234	20.773255
1430.410393	-3.004800	3.522400	-10.583000	25.234992	0.000235	20.755835
1431.414854	-2.998100	3.523000	-10.560000	25.227237	0.000234	20.767016
1432.411986	-2.988300	3.521700	-10.522000	25.232060	0.000233	20.760003
1433.414776	-2.982700	3.522000	-10.504000	25.241629	0.000233	20.750644
1434.415823	-3.012900	3.521500	-10.609000	25.244314	0.000233	20.766143
1435.417515	-3.012300	3.521700	-10.607000	25.237055	0.000233	20.772132
1436.417870	-3.011800	3.520600	-10.603000	25.262682	0.000232	20.766566
1437.420510	-2.995900	3.521700	-10.549000	25.254330	0.000230	20.751068
1438.416049	-3.021200	3.519200	-10.631000	25.265292	0.000231	20.769661
1439.415513	-2.978200	3.520000	-10.482000	25.258506	0.000230	20.721120
1440.421138	-2.995400	3.519800	-10.542000	25.254305	0.000231	20.748198
1441.415493	-2.986300	3.519100	-10.507000	25.248266	0.000231	20.764895
1442.418040	-2.987500	3.519200	-10.512000	25.245556	0.000229	20.757433
1443.423230	-3.011100	3.517900	-10.592000	25.252989	0.000229	20.764895
1444.418956	-3.007100	3.517900	-10.578000	25.259426	0.000227	20.758556
1445.420434	-2.995100	3.517200	-10.534000	25.241157	0.000229	20.760128
1446.418205	-3.001000	3.517500	-10.556000	25.247247	0.000226	20.742534
1447.417944	-3.002000	3.517500	-10.558000	25.267156	0.000228	20.772007
1448.420100	-2.997900	3.516800	-10.542000	25.256618	0.000228	20.757158
1449.421817	-3.018900	3.516800	-10.616000	25.239715	0.000226	20.763422
1450.417040	-2.985300	3.515700	-10.495000	25.250852	0.000227	20.767017
1451.419914	-2.985500	3.516100	-10.496000	25.249608	0.000226	20.771458
1452.427298	-3.008900	3.516700	-10.580000	25.262086	0.000224	20.747475
1453.421160	-3.003100	3.515400	-10.556000	25.260570	0.000225	20.768713
1454.420985	-2.980800	3.516500	-10.482000	25.247620	0.000225	20.778946
1455.429017	-2.984000	3.515000	-10.488000	25.262882	0.000224	20.771035
1456.422869	-3.018300	3.512300	-10.600000	25.273122	0.000223	20.766617
1457.420556	-2.998400	3.515200	-10.539000	25.269121	0.000224	20.774928
1458.425826	-3.005200	3.513300	-10.557000	25.274092	0.000225	20.765695
1459.425482	-2.995800	3.515800	-10.531000	25.270413	0.000224	20.780967
1460.426583	-3.007900	3.514000	-10.569000	25.259626	0.000223	20.778197
1461.430906	-2.958800	3.514000	-10.396000	25.269568	0.000223	20.791498
1462.428608	-2.997800	3.511600	-10.527000	25.254033	0.000222	20.758357
1463.426101	-2.987400	3.512800	-10.492000	25.241058	0.000220	20.761925
1464.430045	-2.991700	3.512600	-10.508000	25.255424	0.000220	20.781091
1465.426897	-3.001800	3.513300	-10.545000	25.251174	0.000220	20.783462
1466.427183	-3.010700	3.511200	-10.570000	25.278118	0.000219	20.782064
1467.434354	-3.009800	3.510600	-10.565000	25.268175	0.000219	20.774452
1468.431730	-2.989700	3.510900	-10.495000	25.263577	0.000220	20.763197
1469.427844	-3.006200	3.510100	-10.551000	25.249210	0.000219	20.778645
1470.430606	-3.008200	3.511400	-10.562000	25.257611	0.000219	20.766217
1471.427546	-3.001500	3.509000	-10.532000	25.273891	0.000218	20.777346
1472.435206	-3.014600	3.509000	-10.578000	25.276128	0.000217	20.801404
1473.433434	-2.980800	3.509200	-10.460000	25.280428	0.000217	20.763047
1474.429137	-2.998500	3.509100	-10.521000	25.277644	0.000217	20.811461
1475.428082	-3.023400	3.506700	-10.601000	25.261712	0.000217	20.779817
1476.433312	-3.001900	3.508300	-10.531000	25.260443	0.000215	20.788027
1477.428354	-3.014800	3.508400	-10.576000	25.277818	0.000214	20.803100
1478.429746	-3.009100	3.507700	-10.554000	25.289252	0.000216	20.783286
1479.432556	-3.006900	3.507500	-10.545000	25.280800	0.000215	20.780016
1480.430533	-2.978000	3.507600	-10.445000	25.266135	0.000214	20.792793
1481.429698	-2.996600	3.506600	-10.507000	25.254229	0.000213	20.799331
1482.432610	-2.997000	3.507600	-10.510000	25.285921	0.000213	20.793218
1483.431376	-3.016500	3.506100	-10.574000	25.288381	0.000214	20.784308
1484.431988	-3.012400	3.505000	-10.558000	25.265141	0.000211	20.774251
1485.438379	-2.989100	3.505300	-10.477000	25.285995	0.000211	20.803724
1486.431815	-2.985500	3.505500	-10.465000	25.293128	0.000211	20.791446
1487.432348	-2.998500	3.504300	-10.506000	25.279632	0.000215	20.784533
1488.438220	-2.992800	3.504900	-10.489000	25.293451	0.000211	20.810736
1489.435127	-3.001100	3.504600	-10.517000	25.264519	0.000212	20.801128
1490.434272	-2.989500	3.504900	-10.476000	25.268496	0.000210	20.801327
1491.439685	-3.000500	3.503800	-10.512000	25.283111	0.000211	20.793242
1492.434531	-3.005200	3.503300	-10.527000	25.280725	0.000210	20.784682
1493.436202	-2.990900	3.502900	-10.476000	25.291761	0.000210	20.797659
1494.438042	-3.015200	3.502900	-10.559000	25.287162	0.000207	20.790671
1495.435346	-2.991800	3.502200	-10.477000	25.276450	0.000210	20.788451
1496.437122	-3.024500	3.501900	-10.591000	25.268521	0.000208	20.792818
1497.438322	-3.003400	3.502100	-10.517000	25.289225	0.000209	20.793217
1498.445918	-3.006700	3.501200	-10.527000	25.309681	0.000208	20.800479
1499.438022	-3.018500	3.500200	-10.564000	25.296011	0.000208	20.784382
1500.441793	-2.998700	3.500000	-10.495000	25.284503	0.000208	20.794165
1501.435920	-3.011100	3.500800	-10.541000	25.294719	0.000208	20.807267
1502.441836	-2.995800	3.500000	-10.484000	25.296110	0.000205	20.797759
1503.445394	-3.001700	3.500200	-10.505000	25.288952	0.000204	20.828029
1504.439994	-2.987900	3.499500	-10.455000	25.277146	0.000205	20.808115
1505.439623	-2.980100	3.499900	-10.429000	25.303791	0.000204	20.801676
1506.442527	-2.997900	3.498500	-10.487000	25.306724	0.000202	20.779017
1507.439658	-3.000600	3.499700	-10.500000	25.290618	0.000202	20.809313
1508.437887	-3.014100	3.497900	-10.543000	25.286914	0.000203	20.811284
1509.442410	-2.987300	3.498200	-10.449000	25.281943	0.000205	20.822414
1510.437462	-3.015000	3.497400	-10.544000	25.296309	0.000201	20.821191
1511.441097	-2.997200	3.496900	-10.480000	25.303741	0.000202	20.824386
1512.441981	-2.988900	3.497200	-10.452000	25.312117	0.000200	20.806244
1513.441060	-3.008200	3.496200	-10.516000	25.303418	0.000202	20.837338
1514.446049	-3.001600	3.496700	-10.495000	25.316840	0.000201	20.811933
1515.441082	-2.987300	3.496300	-10.443000	25.301703	0.000203	20.819969
1516.440282	-3.016000	3.494800	-10.540000	25.295936	0.000202	20.834567
1517.442049	-3.003900	3.494300	-10.496000	25.297626	0.000200	20.849540
1518.442214	-2.989900	3.495800	-10.451000	25.301255	0.000199	20.836589
1519.443681	-3.002200	3.494700	-10.491000	25.322804	0.000199	20.799904
1520.446645	-2.998800	3.493900	-10.477000	25.338090	0.000199	20.829476
1521.442585	-2.996400	3.494000	-10.468000	25.314230	0.000200	20.824011
1522.441805	-2.994900	3.494900	-10.466000	25.299142	0.000197	20.820243
1523.445858	-2.985700	3.493600	-10.430000	25.304784	0.000197	20.820692
1524.445078	-2.993800	3.494000	-10.459000	25.322878	0.000196	20.831272
1525.446808	-3.013300	3.492000	-10.521000	25.320790	0.000197	20.832021
1526.449474	-3.013500	3.493200	-10.526000	25.286068	0.000195	20.811383
1527.451233	-2.994900	3.490800	-10.454000	25.305679	0.000195	20.820167
1528.444228	-3.005200	3.491700	-10.492000	25.322654	0.000195	20.824883
1529.450900	-3.008200	3.491900	-10.503000	25.305628	0.000197	20.837660
1530.448929	-2.996500	3.492100	-10.463000	25.302646	0.000195	20.824709
1531.446833	-2.991400	3.490300	-10.440000	25.316788	0.000194	20.845071
1532.448560	-2.978400	3.491500	-10.398000	25.330582	0.000193	20.832369
1533.448851	-2.994200	3.489400	-10.447000	25.318055	0.000194	20.834964
1534.448274	-2.988200	3.490300	-10.429000	25.342686	0.000194	20.817496
1535.453188	-3.010300	3.490600	-10.506000	25.327798	0.000191	20.820565
1536.449442	-2.998200	3.488700	-10.459000	25.337964	0.000191	20.822711
1537.448378	-2.991600	3.489800	-10.439000	25.351235	0.000192	20.836985
1538.453413	-3.010700	3.488400	-10.501000	25.330258	0.000190	20.820665
1539.450091	-3.002600	3.488400	-10.473000	25.320789	0.000190	20.839131
1540.450632	-2.995500	3.488800	-10.450000	25.308411	0.000190	20.844247
1541.455650	-3.000300	3.486400	-10.459000	25.321061	0.000191	20.846043
1542.454491	-2.997900	3.486500	-10.451000	25.311865	0.000190	20.844870
1543.454050	-3.016100	3.485600	-10.511000	25.315445	0.000192	20.847516
1544.453081	-2.995600	3.487100	-10.445000	25.311120	0.000189	20.841751
1545.452871	-2.988100	3.487200	-10.419000	25.329736	0.000189	20.838632
1546.451413	-3.006300	3.484300	-10.474000	25.307416	0.000190	20.843722
1547.455428	-2.999300	3.485900	-10.454000	25.308957	0.000189	20.852855
1548.453914	-3.009700	3.484700	-10.487000	25.325684	0.000187	20.845943
1549.457493	-2.979200	3.486000	-10.384000	25.310796	0.000188	20.831469
1550.455914	-2.989500	3.485200	-10.418000	25.354217	0.000188	20.840927
1551.455071	-2.995800	3.485700	-10.442000	25.357050	0.000187	20.851832
1552.452850	-3.000000	3.483600	-10.450000	25.336595	0.000187	20.838407
1553.457504	-2.994800	3.483600	-10.431000	25.324640	0.000186	20.846317
1554.452188	-3.007100	3.484800	-10.478000	25.348748	0.000185	20.843497
1555.454374	-2.999900	3.482900	-10.447000	25.332444	0.000186	20.878333
1556.459239	-3.012900	3.482100	-10.490000	25.352328	0.000184	20.867953
1557.453819	-2.998800	3.482900	-10.444000	25.321707	0.000185	20.847165
1558.456759	-3.004100	3.481500	-10.458000	25.338584	0.000184	20.874541
1559.455477	-2.976000	3.482400	-10.363000	25.333016	0.000186	20.852830
1560.457148	-2.988100	3.481900	-10.404000	25.366644	0.000183	20.868576
1561.462698	-2.995700	3.481000	-10.427000	25.340423	0.000183	20.879706
1562.461418	-2.984000	3.481500	-10.387000	25.351209	0.000182	20.864459
1563.455864	-2.979900	3.481500	-10.374000	25.342337	0.000182	20.860766
1564.458767	-2.996100	3.480200	-10.427000	25.339801	0.000183	20.864384
1565.455844	-2.987600	3.479800	-10.396000	25.348823	0.000182	20.852581
1566.457201	-3.001000	3.479800	-10.442000	25.341442	0.000183	20.868402
1567.466670	-2.995700	3.479000	-10.421000	25.347730	0.000180	20.862388
1568.456859	-2.970200	3.480000	-10.335000	25.364556	0.000179	20.878333
1569.456744	-2.992700	3.479400	-10.412000	25.342461	0.000180	20.869425
1570.461364	-2.998900	3.478600	-10.431000	25.350463	0.000179	20.844745
1571.458642	-3.015800	3.477800	-10.487000	25.345816	0.000178	20.857622
1572.459041	-3.010000	3.476700	-10.464000	25.355932	0.000179	20.873467
1573.462193	-2.980600	3.477800	-10.365000	25.353794	0.000178	20.856149
1574.458571	-3.013500	3.477900	-10.480000	25.373479	0.000177	20.877810
1575.457806	-2.995200	3.478500	-10.418000	25.360927	0.000178	20.872794
1576.461092	-2.994500	3.477100	-10.411000	25.348078	0.000178	20.887391
1577.459362	-3.003400	3.477100	-10.442000	25.357050	0.000177	20.857996
1578.458507	-2.982900	3.476600	-10.369000	25.367687	0.000176	20.847340
1579.464447	-3.002200	3.475400	-10.432000	25.389285	0.000176	20.842474
1580.460831	-2.999200	3.476800	-10.427000	25.391223	0.000175	20.873342
1581.460577	-2.986600	3.474900	-10.377000	25.352328	0.000175	20.880279
1582.463689	-3.004700	3.475100	-10.440000	25.384239	0.000175	20.870123
1583.461451	-2.963800	3.475800	-10.300000	25.358988	0.000174	20.885070
1584.461258	-2.999200	3.473500	-10.417000	25.368407	0.000174	20.878881
1585.462671	-3.005500	3.473900	-10.440000	25.378896	0.000174	20.891308
1586.462917	-2.993700	3.474300	-10.399000	25.373503	0.000175	20.882575
1587.464483	-3.026800	3.471300	-10.506000	25.384463	0.000174	20.889786
1588.466725	-2.995800	3.473900	-10.406000	25.378672	0.000172	20.878756
1589.464304	-2.985000	3.473500	-10.367000	25.392192	0.000172	20.882375
1590.464711	-2.992400	3.471600	-10.388000	25.407948	0.000171	20.882075
1591.468236	-2.988800	3.472400	-10.378000	25.369451	0.000171	20.879455
1592.466901	-2.991000	3.471700	-10.382000	25.376385	0.000172	20.875038
1593.464212	-3.008700	3.471000	-10.443000	25.377081	0.000170	20.890908
1594.464174	-2.993600	3.470600	-10.389000	25.390551	0.000166	20.889261
1595.466077	-3.006900	3.470500	-10.434000	25.375067	0.000169	20.886990
1596.465233	-3.005400	3.469400	-10.426000	25.377901	0.000167	20.890310
1597.466738	-3.006300	3.469700	-10.429000	25.377876	0.000170	20.891707
1598.478370	-2.987400	3.469500	-10.362000	25.386699	0.000169	20.881126
1599.467764	-2.987300	3.469600	-10.364000	25.383766	0.000168	20.896198
1600.471478	-3.009600	3.468100	-10.436000	25.378075	0.000168	20.895699
1601.469329	-2.986300	3.469500	-10.361000	25.398081	0.000168	20.870746
1602.468044	-2.999500	3.468800	-10.403000	25.390700	0.000167	20.921650
1603.472037	-3.010600	3.467000	-10.437000	25.399597	0.000167	20.891707
1604.471184	-3.009600	3.466600	-10.433000	25.398727	0.000167	20.898893
1605.468505	-3.029800	3.466700	-10.502000	25.387991	0.000165	20.913241
1606.471138	-3.013700	3.466200	-10.444000	25.384834	0.000166	20.886840
1607.472526	-3.013600	3.467500	-10.449000	25.390923	0.000166	20.899592
1608.471585	-3.007100	3.465400	-10.419000	25.402082	0.000164	20.892780
1609.477369	-3.017700	3.466700	-10.460000	25.394924	0.000166	20.907402
1610.473336	-2.976000	3.467100	-10.318000	25.385655	0.000164	20.912318
1611.473390	-3.006700	3.464800	-10.416000	25.389482	0.000165	20.918531
1612.475869	-2.983000	3.466400	-10.339000	25.413912	0.000165	20.905131
1613.473868	-3.010000	3.465000	-10.428000	25.396341	0.000163	20.890808
1614.473411	-3.023500	3.465300	-10.476000	25.385555	0.000162	20.917433
1615.475032	-3.024800	3.464400	-10.478000	25.398479	0.000163	20.909074
1616.473149	-3.018700	3.464300	-10.457000	25.405636	0.000162	20.903933
1617.473097	-3.028100	3.464200	-10.489000	25.393831	0.000160	20.916260
1618.480303	-3.017500	3.462500	-10.448000	25.400168	0.000160	20.901762
1619.475328	-3.010600	3.463700	-10.427000	25.407450	0.000161	20.896273
1620.473560	-2.998600	3.463500	-10.384000	25.409314	0.000161	20.902411
1621.479880	-3.021700	3.461200	-10.458000	25.414583	0.000160	20.901064
1622.474906	-2.998800	3.461300	-10.379000	25.399224	0.000160	20.897970
1623.477475	-3.011700	3.461700	-10.425000	25.405512	0.000157	20.897645
1624.477427	-3.019200	3.460900	-10.448000	25.405885	0.000158	20.903235
1625.474725	-2.998600	3.462500	-10.382000	25.396988	0.000156	20.903784
1626.481140	-2.982100	3.460700	-10.319000	25.407823	0.000157	20.876260
1627.475713	-2.994500	3.460300	-10.361000	25.420573	0.000157	20.892380
1628.482538	-2.982000	3.460400	-10.318000	25.426736	0.000156	20.882922
1629.480680	-2.988500	3.460300	-10.340000	25.409264	0.000157	20.889560
1630.479037	-3.007400	3.459800	-10.404000	25.427580	0.000155	20.888037
1631.481366	-3.004600	3.458700	-10.391000	25.436328	0.000154	20.892080
1632.479588	-3.011700	3.459500	-10.419000	25.412818	0.000157	20.890757
1633.477228	-2.980400	3.460200	-10.311000	25.396564	0.000157	20.890558
1634.477552	-3.009100	3.457200	-10.401000	25.408195	0.000156	20.884693
1635.482903	-2.960500	3.459900	-10.242000	25.424448	0.000155	20.889160
1636.477064	-3.015700	3.457100	-10.424000	25.436327	0.000155	20.903458
1637.479904	-3.018200	3.456100	-10.430000	25.431854	0.000153	20.881424
1638.481281	-2.994600	3.456200	-10.348000	25.430363	0.000154	20.875660
1639.478599	-3.020500	3.456300	-10.439000	25.449449	0.000154	20.865428
1640.481430	-2.984300	3.457300	-10.317000	25.436302	0.000154	20.878304
1641.484474	-2.997200	3.456200	-10.358000	25.427106	0.000155	20.872390
1642.480068	-2.984000	3.455700	-10.310000	25.421713	0.000153	20.881672
1643.479875	-3.028200	3.454100	-10.459000	25.434835	0.000151	20.875883
1644.481273	-2.993800	3.456600	-10.346000	25.414630	0.000151	20.873612
1645.479766	-2.990200	3.456300	-10.334000	25.456456	0.000150	20.879102
1646.478750	-3.012300	3.453800	-10.403000	25.435903	0.000150	20.858939
1647.480154	-3.008300	3.453900	-10.389000	25.436897	0.000151	20.882221
1648.478543	-2.989300	3.455000	-10.327000	25.418606	0.000150	20.871441
1649.481483	-3.000100	3.453200	-10.359000	25.435207	0.000151	20.854921
1650.483175	-2.989400	3.454400	-10.325000	25.445421	0.000151	20.874659
1651.478661	-3.021800	3.452700	-10.432000	25.444849	0.000147	20.873137
1652.482006	-3.027500	3.451200	-10.448000	25.431554	0.000148	20.871166
1653.482708	-3.019000	3.451600	-10.419000	25.432324	0.000147	20.878103
1654.481447	-3.012200	3.451400	-10.395000	25.446490	0.000148	20.872888
1655.481432	-3.010100	3.450400	-10.386000	25.438561	0.000146	20.860660
1656.480492	-2.996800	3.450900	-10.341000	25.443085	0.000146	20.862357
1657.480715	-3.025400	3.449500	-10.435000	25.435778	0.000146	20.859761
1658.483068	-2.978600	3.450800	-10.277000	25.448502	0.000146	20.864478
1659.488783	-2.987300	3.450600	-10.308000	25.453050	0.000142	20.841070
1660.486516	-2.986700	3.450100	-10.304000	25.451235	0.000144	20.873860
1661.483485	-2.996500	3.448100	-10.332000	25.440773	0.000144	20.878526
1662.488343	-2.997300	3.449400	-10.338000	25.476409	0.000143	20.855518
1663.484863	-2.995800	3.447500	-10.327000	25.466096	0.000144	20.868869
1664.484802	-3.002900	3.447900	-10.353000	25.457100	0.000141	20.857939
1665.484962	-2.990900	3.448400	-10.313000	25.435702	0.000142	20.848780
1666.484676	-2.984700	3.448900	-10.292000	25.441120	0.000141	20.850901
1667.484931	-3.011400	3.448400	-10.384000	25.438361	0.000144	20.842916
1668.486639	-2.998200	3.447700	-10.336000	25.448948	0.000143	20.863503
1669.487675	-3.012300	3.446400	-10.380000	25.438137	0.000144	20.861182
1670.486370	-2.986700	3.447700	-10.296000	25.427029	0.000142	20.850976
1671.486382	-3.004300	3.446300	-10.353000	25.427376	0.000142	20.872660
1672.488642	-2.991200	3.445400	-10.305000	25.464281	0.000142	20.842865
1673.489795	-2.992700	3.444200	-10.307000	25.449320	0.000142	20.847756
1674.491149	-3.009500	3.445100	-10.367000	25.442759	0.000140	20.850650
1675.485985	-2.992000	3.444400	-10.304000	25.456576	0.000142	20.851249
1676.486727	-3.014400	3.443200	-10.378000	25.451507	0.000141	20.842840
1677.488489	-3.031300	3.443700	-10.437000	25.454961	0.000138	20.845360
1678.492045	-3.024200	3.442700	-10.411000	25.444896	0.000141	20.838572
1679.490824	-3.011100	3.443100	-10.366000	25.456899	0.000139	20.853470
1680.489202	-3.016700	3.443000	-10.385000	25.447754	0.000139	20.832908
1681.499567	-3.008500	3.443300	-10.358000	25.471586	0.000140	20.830761
1682.491872	-3.015400	3.442800	-10.381000	25.443504	0.000138	20.832907
1683.492655	-2.991500	3.442700	-10.298000	25.464155	0.000138	20.843688
1684.494262	-2.992400	3.441400	-10.297000	25.455681	0.000137	20.844186
1685.490292	-2.978600	3.441200	-10.249000	25.446013	0.000137	20.831160
1686.498844	-3.001600	3.440900	-10.328000	25.458389	0.000136	20.824147
1687.490706	-2.985200	3.440600	-10.270000	25.470889	0.000138	20.841441
1688.492270	-2.989000	3.443200	-10.290000	25.443727	0.000136	20.850200
1689.495292	-3.004000	3.439700	-10.332000	25.440943	0.000134	20.834603
1690.494277	-3.020200	3.439100	-10.386000	25.450287	0.000135	20.841615
1691.492455	-3.016700	3.440800	-10.379000	25.468305	0.000134	20.830785
1692.494687	-2.982900	3.441100	-10.263000	25.450163	0.000134	20.831534
1693.493283	-2.969700	3.439200	-10.212000	25.467857	0.000133	20.838396
1694.494654	-2.994300	3.438500	-10.294000	25.476232	0.000134	20.831159
1695.498866	-3.017600	3.438700	-10.376000	25.461445	0.000132	20.835277
1696.493956	-2.983800	3.438800	-10.260000	25.482271	0.000133	20.838646
1697.495517	-3.008300	3.437300	-10.340000	25.467435	0.000133	20.828963
1698.497093	-3.031000	3.436900	-10.415000	25.475958	0.000132	20.825195
1699.499318	-2.982100	3.438000	-10.251000	25.476008	0.000130	20.840892
1700.497849	-3.000800	3.437200	-10.313000	25.474368	0.000131	20.823597
1701.503726	-2.999000	3.437300	-10.307000	25.472529	0.000129	20.836924
1702.496324	-3.019000	3.434700	-10.367000	25.483091	0.000128	20.846107
1703.497482	-3.013700	3.434400	-10.350000	25.470193	0.000129	20.810871
1704.501368	-2.997300	3.436100	-10.298000	25.475710	0.000130	20.818782
1705.498858	-3.011400	3.433900	-10.340000	25.475213	0.000129	20.833929
1706.499329	-3.009100	3.433800	-10.332000	25.494000	0.000128	20.822924
1707.500060	-2.988200	3.435300	-10.263000	25.472355	0.000127	20.831059
1708.500777	-2.977500	3.435700	-10.229000	25.477872	0.000126	20.822849
1709.498544	-3.012700	3.432900	-10.341000	25.483488	0.000127	20.838446
1710.499939	-3.017800	3.433500	-10.361000	25.453940	0.000128	20.819680
1711.502274	-2.997000	3.433100	-10.288000	25.466241	0.000128	20.817808
1712.502678	-2.994000	3.433200	-10.278000	25.474666	0.000126	20.827216
1713.501143	-3.001300	3.431300	-10.297000	25.453567	0.000126	20.839219
1714.501616	-3.002800	3.432600	-10.306000	25.475238	0.000124	20.832531
1715.504346	-3.006200	3.432200	-10.317000	25.474169	0.000122	20.806803
1716.507142	-3.004900	3.431600	-10.311000	25.461172	0.000125	20.817459
1717.506555	-3.007400	3.429700	-10.313000	25.476778	0.000124	20.819854
1718.502378	-2.993000	3.430600	-10.266000	25.477971	0.000123	20.806353
1719.508370	-2.998400	3.429800	-10.283000	25.453219	0.000122	20.799041
1720.505089	-3.006400	3.430700	-10.313000	25.470690	0.000121	20.818482
1721.504364	-3.009800	3.430000	-10.323000	25.468329	0.000122	20.808050
1722.505270	-3.022200	3.427900	-10.359000	25.478965	0.000123	20.800240
1723.507642	-2.994400	3.428400	-10.265000	25.492807	0.000121	20.822200
1724.507738	-2.968100	3.430000	-10.179000	25.495242	0.000120	20.825594
1725.508205	-2.986800	3.427400	-10.236000	25.452871	0.000121	20.815287
1726.507677	-2.992200	3.428100	-10.257000	25.484954	0.000120	20.819056
1727.507454	-3.000600	3.428200	-10.285000	25.481177	0.000120	20.838495
1728.510117	-3.017400	3.427600	-10.342000	25.514352	0.000117	20.808749
1729.510180	-3.013800	3.427200	-10.328000	25.474914	0.000118	20.824146
1730.510900	-2.997700	3.425400	-10.266000	25.483935	0.000118	20.831782
1731.512318	-2.989900	3.426900	-10.245000	25.482096	0.000117	20.812392
1732.515649	-3.015300	3.425000	-10.327000	25.487364	0.000117	20.799665
1733.509876	-2.992900	3.425300	-10.251000	25.496162	0.000116	20.815138
1734.512581	-2.990500	3.426000	-10.244000	25.478418	0.000116	20.811070
1735.514791	-3.002300	3.425200	-10.282000	25.503393	0.000117	20.817658
1736.517302	-3.023000	3.423900	-10.348000	25.494844	0.000115	20.825194
1737.514013	-2.999800	3.423300	-10.268000	25.488656	0.000114	20.820877
1738.511049	-3.007100	3.424100	-10.295000	25.511693	0.000115	20.809872
1739.512748	-2.985800	3.425100	-10.226000	25.491117	0.000116	20.828089
1740.513666	-3.012000	3.422300	-10.307000	25.500485	0.000113	20.798617
1741.512114	-3.006300	3.422000	-10.286000	25.491514	0.000114	20.801462
1742.516920	-3.023700	3.423300	-10.350000	25.500088	0.000116	20.802959
1743.514617	-2.978400	3.422800	-10.193000	25.493552	0.000113	20.794973
1744.511982	-2.991400	3.422200	-10.236000	25.498746	0.000112	20.821052
1745.516205	-3.005400	3.420200	-10.278000	25.490347	0.000112	20.804082
1746.511015	-2.965600	3.422400	-10.149000	25.498224	0.000112	20.791604
1747.512797	-2.990100	3.420100	-10.225000	25.492185	0.000112	20.783643
1748.519167	-3.004900	3.419900	-10.275000	25.498050	0.000111	20.815137
1749.511759	-2.987500	3.419700	-10.215000	25.502498	0.000113	20.789733
1750.509833	-2.991900	3.418900	-10.228000	25.507319	0.000110	20.799316
1751.519578	-3.000000	3.419200	-10.256000	25.502598	0.000110	20.806902
1752.518226	-2.999900	3.420200	-10.259000	25.501380	0.000109	20.799041
1753.512127	-3.008100	3.418500	-10.282000	25.494869	0.000110	20.796770
1754.520435	-2.996500	3.418200	-10.242000	25.496037	0.000111	20.804581
1755.519598	-2.984600	3.418400	-10.202000	25.492409	0.000109	20.808524
1756.516037	-2.983700	3.418000	-10.198000	25.510028	0.000109	20.809622
1757.521716	-2.987600	3.418400	-10.211000	25.506748	0.000107	20.811544
1758.515932	-3.012500	3.416200	-10.290000	25.504760	0.000108	20.790107
1759.518410	-3.024900	3.415800	-10.332000	25.500659	0.000107	20.775558
1760.518409	-2.991700	3.416300	-10.219000	25.509332	0.000106	20.803708
1761.517472	-3.017300	3.415900	-10.305000	25.500013	0.000106	20.809048
1762.514641	-3.001500	3.416100	-10.252000	25.506251	0.000104	20.797294
1763.522166	-3.012500	3.415300	-10.288000	25.510923	0.000105	20.795822
1764.516446	-3.011500	3.414800	-10.283000	25.487762	0.000104	20.789159
1765.519715	-3.021700	3.414500	-10.317000	25.526876	0.000103	20.802834
1766.521710	-2.996100	3.414200	-10.229000	25.500287	0.000103	20.781822
1767.518776	-2.984100	3.413800	-10.186000	25.524590	0.000106	20.796745
1768.517955	-2.988400	3.413800	-10.201000	25.519297	0.000104	20.789533
1769.519769	-2.992700	3.413900	-10.215000	25.530579	0.000103	20.795173
1770.520484	-3.026800	3.413100	-10.329000	25.513780	0.000103	20.776881
1771.528625	-3.022400	3.412900	-10.314000	25.532965	0.000105	20.790457
1772.523687	-2.991900	3.412300	-10.208000	25.523497	0.000102	20.780474
1773.519535	-3.014300	3.411700	-10.282000	25.512215	0.000103	20.781947
1774.519999	-3.003200	3.411900	-10.245000	25.536269	0.000102	20.774335
1775.524369	-2.998000	3.411500	-10.226000	25.533337	0.000100	20.784667
1776.523412	-3.023300	3.411200	-10.312000	25.531747	0.000102	20.786863
1777.521774	-3.010600	3.410500	-10.267000	25.537413	0.000100	20.775483
1778.522905	-3.002300	3.410500	-10.239000	25.524441	9.883631E-5	20.789957
1779.523542	-3.017400	3.409500	-10.287000	25.534754	9.873732E-5	20.769020
1780.523854	-2.990200	3.410700	-10.198000	25.529336	9.758250E-5	20.793451
1781.522960	-3.018300	3.409200	-10.288000	25.510898	9.791245E-5	20.772089
1782.523606	-3.011600	3.408300	-10.263000	25.519073	9.834138E-5	20.800214
1783.522977	-3.000300	3.410300	-10.231000	25.514153	9.560280E-5	20.787212
1784.528407	-2.980900	3.409300	-10.162000	25.509432	9.632869E-5	20.783893
1785.523006	-2.993700	3.407500	-10.199000	25.510873	9.672463E-5	20.772538
1786.524644	-3.031400	3.407500	-10.328000	25.520092	9.646067E-5	20.780375
1787.524582	-2.981700	3.408000	-10.160000	25.515992	9.490991E-5	20.781473
1788.522704	-3.035000	3.405800	-10.336000	25.516763	9.685661E-5	20.783669
1789.523453	-3.027900	3.407200	-10.316000	25.521559	9.639468E-5	20.798917
1790.524372	-3.005300	3.407500	-10.240000	25.514576	9.481093E-5	20.792378
1791.521735	-2.982700	3.406300	-10.159000	25.503045	9.481093E-5	20.773686
1792.522681	-3.007100	3.405000	-10.237000	25.526032	9.481093E-5	20.798667
1793.524428	-2.982800	3.406900	-10.161000	25.541165	9.665864E-5	20.781622
1794.525952	-3.022800	3.405200	-10.292000	25.529014	9.415103E-5	20.771316
1795.524970	-3.001000	3.404500	-10.215000	25.532667	9.250128E-5	20.751750
1796.528404	-3.008500	3.404200	-10.241000	25.513483	9.078555E-5	20.772788
1797.526667	-3.021900	3.403800	-10.286000	25.527150	9.260027E-5	20.791256
1798.526269	-2.995300	3.403800	-10.195000	25.518627	9.098352E-5	20.791705
1799.527946	-2.980800	3.404900	-10.148000	25.526604	9.332616E-5	20.780750
1800.523886	-2.949500	3.404300	-10.040000	25.538954	9.029062E-5	20.752374
1801.524958	-2.994100	3.401900	-10.184000	25.534108	9.111550E-5	20.757465
1802.526406	-2.965200	3.402600	-10.089000	25.528418	8.992768E-5	20.784468
1803.526299	-2.993700	3.402200	-10.184000	25.531474	8.903682E-5	20.762881
1804.526546	-2.997600	3.401900	-10.197000	25.515993	9.029062E-5	20.743066
1805.528650	-2.993300	3.401900	-10.182000	25.514477	8.953174E-5	20.768571
1806.526350	-2.993100	3.401200	-10.179000	25.533636	8.920179E-5	20.771217
1807.527298	-2.984400	3.401700	-10.151000	25.540942	8.735408E-5	20.747733
1808.530135	-3.022000	3.398900	-10.270000	25.539948	8.712311E-5	20.765701
1809.528306	-3.006800	3.401200	-10.225000	25.544595	8.784900E-5	20.773213
1810.529860	-2.998500	3.400100	-10.194000	25.532344	8.656220E-5	20.757590
1811.529181	-3.001300	3.400800	-10.206000	25.549689	8.610027E-5	20.753672
1812.531113	-3.014000	3.399000	-10.244000	25.538656	8.679316E-5	20.762032
1813.531127	-3.009600	3.400000	-10.232000	25.533860	8.408758E-5	20.761958
1814.537375	-3.010100	3.398300	-10.229000	25.533984	8.398859E-5	20.741693
1815.532892	-3.002400	3.398800	-10.204000	25.531723	8.398859E-5	20.749380
1816.532503	-3.021700	3.397800	-10.266000	25.538805	8.461550E-5	20.750802
1817.537128	-3.035100	3.396700	-10.308000	25.549242	8.352666E-5	20.768396
1818.535323	-3.020900	3.396000	-10.257000	25.543129	8.520941E-5	20.768895
1819.536685	-2.996200	3.398300	-10.181000	25.529387	8.303174E-5	20.749405
1820.541558	-3.018100	3.396400	-10.250000	25.543029	8.392260E-5	20.750303
1821.534424	-3.000300	3.395900	-10.187000	25.547005	8.342768E-5	20.755719
1822.541488	-2.996800	3.397400	-10.180000	25.553913	8.217387E-5	20.772140
1823.538976	-3.000000	3.396800	-10.189000	25.555529	8.026017E-5	20.752899
1824.542158	-3.000200	3.396100	-10.188000	25.546384	8.068910E-5	20.748456
1825.541039	-2.989200	3.395300	-10.148000	25.534233	8.002920E-5	20.746684
1826.537228	-3.002700	3.394400	-10.191000	25.579533	7.659773E-5	20.742392
1827.536128	-3.019700	3.394200	-10.248000	25.567381	8.115103E-5	20.764328
1828.540900	-3.007300	3.393500	-10.204000	25.542682	8.134900E-5	20.739996
1829.539413	-3.005000	3.393700	-10.197000	25.541638	7.890738E-5	20.747957
1830.537655	-2.981800	3.393300	-10.117000	25.556871	8.049113E-5	20.724848
1831.538635	-2.980900	3.393600	-10.116000	25.581123	7.834646E-5	20.741618
1832.539122	-3.000700	3.392300	-10.178000	25.543775	7.884139E-5	20.761958
1833.539107	-2.995200	3.391400	-10.156000	25.548894	7.837946E-5	20.752874
1834.544575	-2.977100	3.393200	-10.100000	25.567034	7.722463E-5	20.726045
1835.538077	-2.993500	3.392200	-10.153000	25.554187	7.828047E-5	20.733058
1836.540689	-2.983500	3.393100	-10.123000	25.570513	7.814849E-5	20.744713
1837.543140	-2.967200	3.392800	-10.066000	25.576452	7.702666E-5	20.737875
1838.537829	-2.997300	3.390000	-10.160000	25.563357	7.656474E-5	20.745587
1839.538097	-2.976100	3.391800	-10.093000	25.550609	7.554189E-5	20.742268
1840.543596	-3.001500	3.390900	-10.176000	25.549093	7.557489E-5	20.748332
1841.537602	-3.007400	3.390700	-10.196000	25.593001	7.471702E-5	20.756867
1842.544713	-3.020700	3.390100	-10.240000	25.575806	7.260535E-5	20.743864
1843.542420	-2.998200	3.390600	-10.165000	25.572725	7.300128E-5	20.735554
1844.540335	-2.984600	3.391100	-10.120000	25.571656	7.428809E-5	20.735429
1845.546321	-3.015500	3.389500	-10.220000	25.568923	7.395814E-5	20.735529
1846.543532	-3.003800	3.388500	-10.178000	25.560995	7.244037E-5	20.745112
1847.539340	-3.020300	3.387700	-10.231000	25.576998	7.458504E-5	20.721353
1848.540419	-3.003000	3.388100	-10.174000	25.592628	7.273732E-5	20.735155
1849.543581	-3.023000	3.388300	-10.242000	25.590640	7.065864E-5	20.745486
1850.540702	-2.980200	3.388300	-10.097000	25.585248	7.270433E-5	20.754770
1851.541922	-3.020100	3.386300	-10.225000	25.578216	7.131854E-5	20.724473
1852.543213	-3.001800	3.386700	-10.164000	25.563157	7.019672E-5	20.727842
1853.540353	-3.018500	3.384900	-10.216000	25.591982	6.884392E-5	20.739247
1854.545248	-3.049100	3.385800	-10.322000	25.563207	7.131854E-5	20.739272
1855.540757	-2.979700	3.386100	-10.088000	25.560622	6.815103E-5	20.737150
1856.542101	-2.999100	3.386700	-10.156000	25.590217	6.983377E-5	20.735578
1857.543272	-3.002500	3.385700	-10.165000	25.576551	6.887692E-5	20.735129
1858.543265	-2.992900	3.384700	-10.129000	25.564722	6.752413E-5	20.722775
1859.544355	-2.995500	3.385300	-10.139000	25.561865	6.775509E-5	20.727492
1860.546872	-3.002600	3.383600	-10.158000	25.574563	6.683123E-5	20.739771
1861.546070	-2.990000	3.384100	-10.117000	25.591137	6.699621E-5	20.728441
1862.544466	-3.004200	3.383700	-10.164000	25.562884	6.590738E-5	20.729464
1863.543234	-2.990200	3.383900	-10.118000	25.576625	6.636930E-5	20.744213
1864.542801	-3.024500	3.381400	-10.226000	25.594441	6.422463E-5	20.727492
1865.544924	-3.007700	3.383000	-10.175000	25.576575	6.508250E-5	20.746060
1866.544581	-3.022000	3.380900	-10.215000	25.600504	6.471956E-5	20.743539
1867.546680	-2.999800	3.382700	-10.145000	25.594839	6.465357E-5	20.736901
1868.544110	-2.999400	3.382100	-10.143000	25.590465	6.382870E-5	20.746733
1869.546278	-2.974900	3.381100	-10.057000	25.591732	6.366372E-5	20.727142
1870.548545	-3.001000	3.379400	-10.141000	25.606964	6.138707E-5	20.745760
1871.546885	-3.004400	3.379400	-10.152000	25.591981	6.287184E-5	20.748256
1872.545716	-2.986500	3.379800	-10.093000	25.584253	6.138707E-5	20.745236
1873.544242	-2.987600	3.379000	-10.094000	25.583060	6.095814E-5	20.741192
1874.545534	-2.990200	3.378900	-10.102000	25.600628	6.072717E-5	20.734180
1875.547981	-2.989400	3.379600	-10.102000	25.598540	6.102413E-5	20.733980
1876.547988	-2.973700	3.378800	-10.046000	25.602392	6.085915E-5	20.748754
1877.546467	-3.019300	3.376700	-10.195000	25.604852	6.010027E-5	20.734629
1878.547706	-2.995000	3.377400	-10.113000	25.599733	5.920941E-5	20.760309
1879.547487	-2.984100	3.377500	-10.078000	25.592726	5.838453E-5	20.720553
1880.550374	-3.018000	3.375700	-10.186000	25.609721	5.891245E-5	20.745684
1881.548213	-2.980200	3.377800	-10.066000	25.618915	5.835154E-5	20.748280
1882.546264	-3.001500	3.376900	-10.135000	25.627214	5.901144E-5	20.721525
1883.547442	-2.989400	3.377600	-10.096000	25.607883	5.831854E-5	20.744311
1884.553428	-2.990300	3.377100	-10.098000	25.613448	5.960535E-5	20.741840
1885.547716	-3.002600	3.376800	-10.138000	25.610516	5.940738E-5	20.746482
1886.550847	-2.983400	3.375700	-10.069000	25.598415	5.594291E-5	20.728638
1887.551843	-3.011400	3.373800	-10.159000	25.611461	5.554697E-5	20.728464
1888.550522	-2.980900	3.376400	-10.063000	25.630891	5.402920E-5	20.746557
1889.551851	-2.987700	3.374900	-10.082000	25.607236	5.752666E-5	20.744611
1890.551074	-3.010400	3.374300	-10.157000	25.623984	5.739469E-5	20.752896
1891.557229	-2.979900	3.374400	-10.053000	25.621797	5.525001E-5	20.749751
1892.548654	-2.987500	3.375000	-10.081000	25.626891	5.416118E-5	20.740642
1893.550774	-3.022400	3.373500	-10.195000	25.623760	5.353428E-5	20.741765
1894.550760	-3.015800	3.374000	-10.175000	25.652160	5.363326E-5	20.727140
1895.548386	-3.001200	3.373900	-10.125000	25.636308	5.366626E-5	20.746782
1896.552486	-3.004500	3.373400	-10.134000	25.621499	5.221448E-5	20.736649
1897.548914	-3.023700	3.371200	-10.191000	25.624257	5.086169E-5	20.728987
1898.548974	-3.018000	3.372600	-10.178000	25.649005	5.092768E-5	20.758586
1899.553697	-2.995300	3.372100	-10.101000	25.627313	5.224748E-5	20.746756
1900.549158	-2.995400	3.372500	-10.101000	25.636904	5.171956E-5	20.745958
1901.551687	-3.015400	3.369800	-10.160000	25.637873	5.069671E-5	20.773958
1902.560301	-2.988500	3.371100	-10.074000	25.653452	4.904697E-5	20.751673
1903.552731	-2.984600	3.370700	-10.060000	25.619163	5.056474E-5	20.754692
1904.554849	-2.999900	3.370600	-10.111000	25.615311	4.921194E-5	20.751772
1905.550276	-2.997600	3.370000	-10.100000	25.638668	5.033377E-5	20.742987
1906.558858	-3.008200	3.370000	-10.137000	25.656856	4.842006E-5	20.754143
1907.555006	-3.009100	3.369000	-10.136000	25.614764	4.627539E-5	20.752171
1908.552309	-3.007800	3.368600	-10.131000	25.642593	4.673732E-5	20.739343
1909.558404	-3.004400	3.368000	-10.118000	25.643711	4.858504E-5	20.756588
1910.557756	-3.003000	3.367800	-10.112000	25.632803	4.660534E-5	20.748951
1911.558109	-3.000200	3.368300	-10.105000	25.661626	4.799113E-5	20.758934
1912.556017	-2.957500	3.368600	-9.961700	25.658147	4.663834E-5	20.737895
1913.552392	-3.010100	3.367000	-10.133000	25.655464	4.746321E-5	20.760331
1914.554070	-3.017600	3.367300	-10.160000	25.668806	4.403174E-5	20.746705
1915.555004	-2.984000	3.367300	-10.047000	25.643288	4.597844E-5	20.750947
1916.551690	-2.996300	3.365300	-10.083000	25.639015	4.485661E-5	20.772734
1917.552746	-2.998600	3.366300	-10.093000	25.650171	4.370179E-5	20.730833
1918.557465	-3.036900	3.363600	-10.214000	25.684335	4.376778E-5	20.761354
1919.556267	-3.011700	3.365600	-10.135000	25.691963	4.297590E-5	20.754791
1920.554995	-2.999100	3.365000	-10.091000	25.661923	4.195306E-5	20.759707
1921.556380	-3.022900	3.364100	-10.168000	25.674421	4.310788E-5	20.755664
1922.554603	-2.993100	3.364300	-10.069000	25.654047	4.228301E-5	20.742312
1923.553914	-3.004400	3.363500	-10.104000	25.680310	4.244798E-5	20.747353
1924.563383	-2.991000	3.364600	-10.062000	25.677080	4.228301E-5	20.768291
1925.553323	-2.989900	3.363000	-10.055000	25.678272	4.172209E-5	20.748626
1926.554737	-3.006200	3.361900	-10.105000	25.681279	4.003935E-5	20.776777
1927.561534	-3.003400	3.362900	-10.099000	25.685155	4.168910E-5	20.771186
1928.554730	-3.021400	3.362400	-10.157000	25.655985	3.980839E-5	20.759906
1929.558212	-2.992400	3.362000	-10.058000	25.678943	3.822463E-5	20.763051
1930.556940	-3.015400	3.361400	-10.135000	25.685651	3.815864E-5	20.760305
1931.553655	-3.002200	3.361900	-10.091000	25.668880	3.753174E-5	20.765272
1932.554911	-3.007200	3.361100	-10.107000	25.666147	3.937945E-5	20.764897
1933.553805	-3.006100	3.361400	-10.104000	25.673253	3.802666E-5	20.752119
1934.554147	-3.002000	3.360900	-10.088000	25.687167	3.822463E-5	20.748077
1935.554582	-3.003500	3.360800	-10.093000	25.710423	3.792768E-5	20.780445
1936.555021	-2.985800	3.359500	-10.029000	25.682744	3.617895E-5	20.761653
1937.559795	-3.005200	3.358400	-10.092000	25.701031	3.512311E-5	20.759631
1938.555566	-3.020400	3.359400	-10.146000	25.677700	3.545306E-5	20.759906
1939.559050	-3.016400	3.357100	-10.126000	25.696434	3.469417E-5	20.748850
1940.554876	-3.004200	3.359100	-10.090000	25.681924	3.495813E-5	20.764623
1941.556266	-2.973600	3.358600	-9.985700	25.703366	3.449620E-5	20.770038
1942.561803	-3.011700	3.358400	-10.113000	25.693999	3.446321E-5	20.760155
1943.557348	-3.007900	3.356500	-10.095000	25.696509	3.271448E-5	20.772159
1944.557958	-2.975800	3.358600	-9.992800	25.692583	3.377032E-5	20.781018
1945.560365	-2.988800	3.356200	-10.030000	25.702869	3.126270E-5	20.788979
1946.558514	-2.998200	3.356700	-10.063000	25.687937	3.327539E-5	20.768765
1947.564028	-2.983800	3.357100	-10.016000	25.703739	3.010788E-5	20.769464
1948.561485	-3.004000	3.355700	-10.080000	25.705304	3.122971E-5	20.750647
1949.559469	-3.006700	3.354800	-10.086000	25.701825	2.802920E-5	20.792198
1950.560760	-2.991400	3.355500	-10.037000	25.711739	3.268148E-5	20.796466
1951.561644	-3.001000	3.355900	-10.069000	25.708658	3.185661E-5	20.782940
1952.558077	-2.983600	3.354800	-10.008000	25.707838	2.987691E-5	20.767891
1953.557005	-2.985700	3.355100	-10.016000	25.721056	2.984392E-5	20.769788
1954.560165	-2.988500	3.353800	-10.021000	25.713776	3.179062E-5	20.778123
1955.559666	-2.996000	3.353500	-10.046000	25.723764	3.089976E-5	20.778198
1956.565298	-3.008100	3.352400	-10.084000	25.709478	3.010788E-5	20.770486
1957.562327	-2.998500	3.353900	-10.056000	25.721552	2.736930E-5	20.788779
1958.561732	-2.991800	3.353500	-10.032000	25.732087	2.842514E-5	20.776127
1959.560761	-2.981600	3.354000	-9.999300	25.737900	2.631346E-5	20.773431
1960.564059	-3.013800	3.351600	-10.100000	25.747342	2.766625E-5	20.787182
1961.561828	-2.998300	3.351500	-10.048000	25.728782	2.565356E-5	20.771384
1962.561533	-2.974100	3.351900	-9.967100	25.756435	2.647844E-5	20.790151
1963.564212	-2.980000	3.352200	-9.988300	25.743590	2.601651E-5	20.768240
1964.561402	-2.989300	3.350800	-10.016000	25.741527	2.393783E-5	20.780393
1965.561105	-2.993200	3.349700	-10.026000	25.735987	2.476270E-5	20.780518
1966.566645	-2.988700	3.350000	-10.011000	25.757205	2.538960E-5	20.772907
1967.561937	-3.001600	3.350000	-10.054000	25.754298	2.278300E-5	20.804126
1968.563757	-2.989900	3.351100	-10.019000	25.737776	2.294798E-5	20.784211
1969.566287	-2.986500	3.350000	-10.004000	25.750273	2.288199E-5	20.775427
1970.563459	-2.981600	3.349600	-9.986000	25.753478	2.344290E-5	20.781017
1971.561913	-3.002400	3.349200	-10.055000	25.756633	2.228808E-5	20.787031
1972.567278	-3.014200	3.348600	-10.093000	25.739888	2.103427E-5	20.784436
1973.564028	-3.025300	3.346800	-10.124000	25.750844	2.011041E-5	20.779320
1974.563765	-2.990600	3.347400	-10.010000	25.768434	2.123224E-5	20.793195
1975.565865	-3.002800	3.349000	-10.056000	25.736832	2.146321E-5	20.798910
1976.564151	-2.994300	3.347000	-10.021000	25.763043	2.080331E-5	20.792047
1977.564538	-3.036600	3.345100	-10.156000	25.744782	1.951650E-5	20.791249
1978.569642	-3.033200	3.347300	-10.151000	25.749378	1.852666E-5	20.794443
1979.564886	-3.009700	3.346300	-10.070000	25.770769	2.034138E-5	20.802653
1980.566460	-3.012200	3.345900	-10.078000	25.780483	1.819671E-5	20.811936
1981.568436	-2.996200	3.345500	-10.023000	25.782943	1.974747E-5	20.800182
1982.567079	-3.017900	3.343600	-10.090000	25.788582	1.770178E-5	20.818175
1983.568904	-2.998100	3.344000	-10.024000	25.790247	1.895559E-5	20.804200
1984.566340	-3.014500	3.344400	-10.080000	25.780309	1.542513E-5	20.795167
1985.566883	-3.020900	3.342500	-10.096000	25.801973	1.737183E-5	20.800332
1986.568485	-3.030000	3.343900	-10.131000	25.803588	1.697589E-5	20.813808
1987.565861	-3.016400	3.343500	-10.085000	25.776781	1.509518E-5	20.796838
1988.567349	-2.983200	3.342700	-9.970900	25.789601	1.502919E-5	20.787430
1989.576232	-3.001000	3.342100	-10.029000	25.805525	1.466625E-5	20.797736
1990.569153	-3.019700	3.342700	-10.093000	25.800780	1.394036E-5	20.785383
1991.569404	-3.006000	3.341400	-10.043000	25.813400	1.318148E-5	20.799957
1992.569601	-3.014300	3.343000	-10.076000	25.805177	1.354442E-5	20.817301
1993.569689	-2.994100	3.342000	-10.005000	25.819338	1.489721E-5	20.794068
1994.568938	-2.997300	3.341600	-10.015000	25.809624	1.304950E-5	20.814182
1995.572337	-3.025200	3.340500	-10.105000	25.808332	1.202665E-5	20.810987
1996.567711	-3.000700	3.341300	-10.025000	25.803264	1.163072E-5	20.796887
1997.568407	-2.995800	3.340100	-10.005000	25.830517	1.189467E-5	20.810513
1998.570814	-3.025900	3.339500	-10.104000	25.829026	1.337945E-5	20.796688
1999.570558	-2.999900	3.338900	-10.015000	25.844031	1.123478E-5	20.795639
2000.570045	-2.987500	3.340400	-9.978700	25.840081	1.186168E-5	20.826758
2001.571484	-3.016200	3.338200	-10.068000	25.834964	9.090105E-6	20.825411
2002.569961	-3.026600	3.337700	-10.101000	25.830417	9.585029E-6	20.836965
2003.570103	-3.010300	3.337900	-10.047000	25.865296	8.463202E-6	20.818423
2004.572630	-3.005100	3.338200	-10.031000	25.831659	1.120178E-5	20.824462
2005.572710	-3.012200	3.337500	-10.053000	25.848006	6.120561E-6	20.814805
2006.571895	-3.002300	3.336800	-10.017000	25.848825	7.242389E-6	20.819421
2007.577271	-2.986200	3.338500	-9.968400	25.859930	7.539343E-6	20.794541
2008.576345	-2.982200	3.336900	-9.949800	25.848279	7.242389E-6	20.823140
2009.576805	-2.983900	3.336600	-9.955500	25.849198	6.285536E-6	20.819321
2010.579014	-2.989400	3.336300	-9.972800	25.842515	8.760156E-6	20.818772
2011.579065	-3.016600	3.334300	-10.057000	25.856303	6.747465E-6	20.818398
2012.579844	-2.992000	3.335700	-9.979300	25.880623	4.536804E-6	20.823863
2013.583950	-3.032800	3.333600	-10.109000	25.876177	2.788072E-6	20.805646
2014.579538	-2.983800	3.334500	-9.948300	25.898310	5.955586E-6	20.813656
2015.583558	-3.019400	3.333200	-10.063000	25.884921	2.722082E-6	20.822965
2016.579918	-3.006300	3.333400	-10.020000	25.878213	3.217006E-6	20.828554
2017.580419	-3.008300	3.332800	-10.025000	25.883703	1.237310E-6	20.815578
2018.584625	-3.003900	3.333300	-10.012000	25.871804	8.413709E-7	20.818323
2019.582413	-2.999900	3.332700	-9.996700	25.891156	2.062184E-6	20.819745
2020.585448	-3.003700	3.333100	-10.011000	25.870189	1.864214E-6	20.850365
2021.586092	-2.992100	3.331700	-9.967500	25.873791	1.270305E-6	20.836440
2022.580258	-2.991500	3.331900	-9.966500	25.904992	3.250001E-6	20.845972
2023.581610	-3.006200	3.330600	-10.012000	25.865171	1.270305E-6	20.830625
2024.587490	-2.991400	3.331400	-9.963800	25.901862	5.444165E-7	20.829078
2025.585858	-3.012900	3.330900	-10.034000	25.883479	4.124367E-7	20.826732
2026.587584	-2.995100	3.331000	-9.976100	25.900545	1.649747E-8	20.848143
2027.589077	-3.020200	3.330600	-10.058000	25.914382	-1.600255E-6	20.815577
2028.584122	-3.002100	3.329900	-9.995200	25.917338	-1.814722E-7	20.827081
2029.584038	-3.001700	3.330400	-9.995300	25.913065	-1.072336E-6	20.851237
2030.586362	-3.015300	3.327500	-10.033000	25.938552	-3.134519E-7	20.853608
2031.585978	-2.989500	3.329800	-9.953600	25.936465	-2.755077E-6	20.846770
2032.590918	-2.996400	3.328700	-9.973100	25.933882	-3.975890E-6	20.827580
2033.587723	-2.997300	3.328800	-9.975900	25.937483	-3.217007E-6	20.851587
2034.588942	-3.017800	3.327800	-10.042000	25.928094	-5.163708E-6	20.848792
2035.585857	-2.991900	3.328200	-9.957000	25.964460	-4.338834E-6	20.854980
2036.592600	-2.988500	3.328900	-9.946900	25.954052	-5.328683E-6	20.835042
2037.583583	-3.003300	3.327200	-9.991800	25.947792	-5.163708E-6	20.860046
2038.588676	-3.020200	3.327800	-10.049000	25.955840	-8.265232E-6	20.842528
2039.587972	-2.991100	3.327100	-9.950800	25.940414	-5.361678E-6	20.850264
2040.587009	-3.047800	3.325200	-10.134000	25.936043	-6.879445E-6	20.854406
2041.586469	-3.013600	3.325400	-10.021000	25.963739	-7.176399E-6	20.860420
2042.590810	-3.019700	3.326500	-10.044000	25.947320	-8.001273E-6	20.873796
2043.584684	-3.036000	3.325200	-10.094000	25.951419	-7.308379E-6	20.854207
2044.585402	-3.015900	3.323600	-10.023000	25.948140	-7.473354E-6	20.867507
2045.589994	-3.002600	3.325600	-9.984300	25.981003	-8.331222E-6	20.871125
2046.585696	-2.973100	3.324800	-9.884800	25.985250	-7.143404E-6	20.863539
2047.589694	-3.008200	3.325100	-10.001000	25.964460	-9.651020E-6	20.865411
2048.597881	-2.991400	3.323800	-9.941900	25.965254	-1.192767E-5	20.848667
2049.589118	-3.002500	3.323700	-9.978800	25.973924	-1.347843E-5	20.849316
2050.586948	-2.997200	3.323500	-9.960000	25.972209	-9.585030E-6	20.849490
2051.592275	-3.005900	3.322600	-9.986500	25.970843	-1.080584E-5	20.875617
2052.588186	-3.025100	3.322200	-10.049000	25.972309	-1.100381E-5	20.853857
2053.590759	-2.991800	3.322300	-9.938700	25.964137	-1.248858E-5	20.876466
2054.591736	-2.992800	3.322100	-9.940800	25.989647	-1.271955E-5	20.860844
2055.587104	-2.991100	3.322900	-9.938300	25.985400	-1.225762E-5	20.850414
2056.590359	-3.001200	3.321000	-9.966300	25.997720	-1.331346E-5	20.850938
2057.591506	-2.984100	3.321800	-9.911100	25.970198	-1.235660E-5	20.856003
2058.592706	-3.009700	3.321200	-9.995000	25.987685	-1.456727E-5	20.865511
2059.589358	-3.006900	3.320400	-9.982900	25.981773	-1.357742E-5	20.859098
2060.593132	-2.974400	3.319800	-9.873900	25.997173	-1.512818E-5	20.869828
2061.591313	-2.977000	3.320100	-9.883600	26.009394	-1.611803E-5	20.864563
2062.592915	-3.019200	3.318600	-10.019000	26.012896	-1.601904E-5	20.861918
2063.593358	-3.002000	3.319500	-9.963100	26.009643	-1.846067E-5	20.867657
2064.593216	-3.015400	3.317500	-10.002000	26.004501	-1.568909E-5	20.874819
2065.593790	-3.027700	3.318100	-10.045000	26.012375	-1.733884E-5	20.899797
2066.595455	-2.985900	3.319600	-9.910500	26.017516	-1.799874E-5	20.844749
2067.595037	-3.006400	3.318000	-9.974200	26.024099	-2.113326E-5	20.864638
2068.595706	-3.005700	3.317100	-9.969300	26.006563	-2.044037E-5	20.877364
2069.597010	-3.009500	3.317700	-9.983900	26.016150	-1.981346E-5	20.881781
2070.596601	-2.989600	3.317000	-9.915500	26.036071	-1.964849E-5	20.887096
2071.595129	-3.013000	3.316600	-9.991800	26.017691	-1.968148E-5	20.865786
2072.596883	-3.002600	3.315700	-9.954800	26.014114	-2.222209E-5	20.883528
2073.596057	-3.020100	3.314900	-10.010000	26.029141	-2.100128E-5	20.882031
2074.595249	-2.992900	3.316200	-9.924000	26.025887	-2.159519E-5	20.886348
2075.598244	-3.011200	3.315200	-9.982200	26.033388	-2.017641E-5	20.883453
2076.595100	-3.003200	3.314800	-9.954500	26.028421	-2.271702E-5	20.874669
2077.594810	-3.010200	3.314500	-9.976300	26.041113	-2.251905E-5	20.887895
2078.598007	-3.010100	3.314000	-9.975200	26.049806	-2.340991E-5	20.885724
2079.593604	-3.005200	3.313900	-9.957800	26.058251	-2.242006E-5	20.886148
2080.599812	-2.983600	3.313400	-9.884200	26.068285	-2.476270E-5	20.904763
2081.596941	-3.015800	3.314100	-9.993900	26.084653	-2.364088E-5	20.880434
2082.596111	-2.990800	3.313600	-9.909400	26.066845	-2.548859E-5	20.908531
2083.595453	-3.000300	3.312500	-9.937500	26.061853	-2.634646E-5	20.888818
2084.598192	-2.992300	3.312500	-9.911100	26.055892	-2.769925E-5	20.872398
2085.596440	-3.023300	3.311000	-10.008000	26.078717	-2.905205E-5	20.890116
2086.598252	-2.968600	3.312300	-9.831900	26.068037	-2.720433E-5	20.882704
2087.600967	-2.996000	3.311400	-9.919000	26.096724	-2.796321E-5	20.899673
2088.596907	-2.982000	3.311700	-9.875300	26.096923	-2.760027E-5	20.875692
2089.596803	-3.006200	3.310800	-9.951200	26.088403	-2.776524E-5	20.894632
2090.602576	-2.999000	3.309300	-9.923400	26.102387	-3.037184E-5	20.886871
2091.597662	-2.998600	3.310300	-9.925300	26.095904	-3.139469E-5	20.897427
2092.598543	-2.971900	3.309900	-9.835900	26.086044	-2.911804E-5	20.907433
2093.598998	-3.005100	3.309400	-9.944600	26.107155	-3.047083E-5	20.889766
2094.597418	-2.975800	3.309000	-9.845900	26.107354	-3.175763E-5	20.903241
2095.600124	-3.013300	3.309100	-9.969300	26.124615	-3.043783E-5	20.895455
2096.602014	-3.005100	3.308400	-9.940500	26.112371	-2.938200E-5	20.899747
2097.598978	-3.009900	3.306900	-9.952500	26.103951	-3.254951E-5	20.903141
2098.598649	-2.995800	3.307000	-9.905800	26.134699	-3.136169E-5	20.906535
2099.603517	-2.991600	3.307600	-9.894500	26.127173	-3.202159E-5	20.901819
2100.600082	-3.010900	3.306400	-9.954200	26.123572	-3.344037E-5	20.910053
2101.598780	-2.987200	3.307000	-9.878200	26.139567	-3.429824E-5	20.880608
2102.603772	-3.018800	3.307100	-9.982700	26.146918	-3.545307E-5	20.920708
2103.600569	-3.005300	3.306300	-9.935000	26.168351	-3.505713E-5	20.898625
2104.610403	-2.976300	3.306300	-9.839500	26.149228	-3.532109E-5	20.914495
2105.602426	-3.002900	3.305100	-9.923900	26.144856	-3.429824E-5	20.891139
2106.602226	-3.003700	3.305200	-9.926300	26.150842	-3.690484E-5	20.909479
2107.605830	-3.001300	3.303500	-9.914500	26.145304	-3.673987E-5	20.903441
2108.604960	-3.024700	3.302300	-9.987800	26.177540	-3.809266E-5	20.902168
2109.606758	-3.011800	3.302900	-9.946300	26.144757	-3.657489E-5	20.890565
2110.603593	-3.005200	3.303500	-9.926600	26.174833	-3.802667E-5	20.912249
2111.610086	-3.003200	3.303500	-9.920300	26.174460	-3.941246E-5	20.894807
2112.605728	-2.996400	3.301600	-9.892000	26.160354	-3.931347E-5	20.900546
2113.606003	-3.016900	3.300800	-9.958100	26.165495	-4.023733E-5	20.891962
2114.607342	-3.005300	3.302300	-9.923800	26.173070	-3.871957E-5	20.913322
2115.604774	-2.994500	3.301900	-9.885800	26.159336	-4.093023E-5	20.898575
2116.603789	-3.004600	3.302100	-9.920500	26.180619	-3.984139E-5	20.913796
2117.608590	-2.968100	3.302500	-9.800700	26.189659	-3.964342E-5	20.865985
2118.606587	-3.003500	3.301700	-9.916100	26.202697	-4.241500E-5	20.898999
2119.604136	-3.021500	3.300500	-9.971200	26.181787	-4.254698E-5	20.875144
2120.609898	-3.014200	3.299600	-9.944200	26.203045	-4.340485E-5	20.880858
2121.602978	-2.986500	3.300400	-9.855400	26.214543	-4.238200E-5	20.887670
2122.605798	-2.979300	3.300400	-9.832000	26.208608	-4.508759E-5	20.867957
2123.606671	-3.003000	3.299700	-9.908300	26.183823	-4.545053E-5	20.869604
2124.605350	-2.988300	3.299900	-9.859800	26.197681	-4.706729E-5	20.882580
2125.604540	-2.976600	3.298000	-9.815900	26.224676	-4.594546E-5	20.895007
2126.614023	-2.997100	3.298500	-9.885300	26.193285	-4.485663E-5	20.871525
2127.606985	-3.001900	3.298300	-9.900200	26.215661	-4.630840E-5	20.869354
2128.606329	-2.990400	3.297300	-9.859500	26.198649	-4.723226E-5	20.870752
2129.612556	-2.992000	3.298000	-9.866300	26.221994	-4.696830E-5	20.873821
2130.604980	-2.976800	3.297800	-9.816500	26.217747	-4.693531E-5	20.864339
2131.605811	-3.012000	3.297600	-9.930800	26.228227	-4.838708E-5	20.886722
2132.608280	-3.000900	3.296300	-9.891000	26.242953	-5.023480E-5	20.875443
2133.609965	-2.996900	3.296300	-9.878100	26.213451	-5.237947E-5	20.851013
2134.608065	-3.011400	3.295900	-9.923700	26.225843	-4.947592E-5	20.864888
2135.612810	-2.995300	3.295600	-9.870300	26.232995	-5.102668E-5	20.882979
2136.611370	-3.003500	3.295400	-9.897200	26.233169	-5.188455E-5	20.869404
2137.609022	-3.006900	3.294000	-9.904000	26.225520	-5.191754E-5	20.851288
2138.618770	-2.997200	3.293700	-9.871100	26.217251	-5.254445E-5	20.870952
2139.613271	-2.979200	3.294500	-9.813300	26.220703	-5.261044E-5	20.842180
2140.613899	-2.996100	3.294200	-9.868700	26.245934	-5.264343E-5	20.863740
2141.610844	-3.006200	3.293300	-9.899300	26.227308	-5.379826E-5	20.842654
2142.611691	-3.016400	3.292900	-9.931600	26.224030	-5.620689E-5	20.846946
2143.609789	-3.005200	3.292000	-9.892100	26.235752	-5.515105E-5	20.860621
2144.615847	-3.007500	3.290300	-9.893800	26.221920	-5.333633E-5	20.865212
2145.613428	-3.002500	3.292200	-9.884100	26.254898	-5.607491E-5	20.859473
2146.610949	-3.009100	3.290100	-9.899300	26.257407	-5.825257E-5	20.851088
2147.614054	-2.989600	3.291100	-9.838500	26.259021	-5.825257E-5	20.839909
2148.611450	-3.022000	3.290600	-9.942300	26.267141	-5.798862E-5	20.842853
2149.612823	-2.982500	3.291100	-9.814100	26.271288	-5.815359E-5	20.869305
2150.614787	-3.026800	3.289500	-9.955900	26.266197	-5.891247E-5	20.852810
2151.612569	-3.023100	3.289300	-9.942700	26.273002	-5.854953E-5	20.865337
2152.611020	-3.016200	3.288400	-9.917300	26.284797	-5.924242E-5	20.864389
2153.615544	-2.984100	3.289600	-9.815400	26.275857	-5.934141E-5	20.845923
2154.614310	-2.968800	3.289700	-9.764300	26.281817	-5.957237E-5	20.832472
2155.615116	-3.019600	3.287200	-9.925600	26.280451	-6.158507E-5	20.851962
2156.620384	-2.985700	3.288000	-9.815400	26.283357	-5.993532E-5	20.849192
2157.614078	-2.995000	3.288900	-9.848500	26.282587	-6.221197E-5	20.851737
2158.614983	-2.994600	3.286500	-9.841200	26.294929	-6.118913E-5	20.850390
2159.621510	-3.016100	3.286300	-9.910100	26.300044	-6.244293E-5	20.865487
2160.616860	-3.005000	3.286600	-9.875400	26.295053	-6.458761E-5	20.839609
2161.614524	-3.002300	3.286700	-9.866700	26.296766	-6.336679E-5	20.814305
2162.620304	-3.005700	3.286800	-9.878200	26.300243	-6.270689E-5	20.836765
2163.615585	-2.986300	3.286300	-9.812500	26.306352	-6.475258E-5	20.839585
2164.616376	-3.041500	3.283400	-9.984900	26.314620	-6.646832E-5	20.858799
2165.621347	-3.015100	3.283500	-9.899300	26.297834	-6.623735E-5	20.828654
2166.615973	-2.985300	3.285400	-9.807000	26.322914	-6.607238E-5	20.845798
2167.624004	-3.019000	3.282200	-9.908500	26.315514	-6.600639E-5	20.834568
2168.624781	-3.005900	3.283000	-9.867600	26.350949	-6.828304E-5	20.864015
2169.621151	-2.971700	3.284000	-9.758400	26.323014	-6.838203E-5	20.840208
2170.620175	-3.003700	3.283800	-9.862500	26.314918	-6.930588E-5	20.837289
2171.621181	-2.987300	3.282700	-9.805500	26.327583	-6.874497E-5	20.831998
2172.618136	-2.996600	3.282500	-9.835600	26.350824	-7.019675E-5	20.837813
2173.616477	-2.979500	3.281600	-9.776800	26.345784	-7.029573E-5	20.841755
2174.634607	-2.999000	3.280900	-9.837800	26.335280	-7.145056E-5	20.833570
2175.617901	-3.015000	3.280000	-9.888600	26.366220	-7.082365E-5	20.835742
2176.627176	-2.993500	3.280700	-9.820000	26.331133	-7.145056E-5	20.839360
2177.623618	-3.011800	3.279800	-9.877300	26.351991	-6.970182E-5	20.833770
2178.621897	-2.990700	3.280400	-9.809700	26.339054	-6.825005E-5	20.839734
2179.623250	-2.997900	3.279500	-9.830600	26.347447	-7.257238E-5	20.825884
2180.627158	-3.008300	3.279000	-9.863700	26.344145	-7.329827E-5	20.834893
2181.621042	-3.017100	3.278400	-9.890400	26.365946	-7.316629E-5	20.824088
2182.620871	-3.004000	3.278400	-9.847100	26.379007	-7.326528E-5	20.839584
2183.627156	-3.035700	3.277600	-9.948500	26.374736	-7.359523E-5	20.824387
2184.621767	-3.018700	3.278000	-9.894300	26.340743	-7.402416E-5	20.819146
2185.628870	-2.997800	3.276800	-9.822600	26.371558	-7.366122E-5	20.848693
2186.630311	-2.997200	3.277300	-9.822100	26.388641	-7.547594E-5	20.804223
2187.624854	-3.012300	3.277100	-9.870200	26.379529	-7.804955E-5	20.833945
2188.628746	-2.996800	3.276200	-9.817900	26.382334	-7.653178E-5	20.840083
2189.628636	-3.003800	3.276100	-9.840100	26.387499	-7.478305E-5	20.822989
2190.626733	-2.985700	3.275400	-9.777300	26.368330	-7.755462E-5	20.844500
2191.639006	-3.026800	3.274300	-9.909000	26.368057	-7.771960E-5	20.829053
2192.632182	-2.989900	3.275700	-9.793500	26.386754	-7.768660E-5	20.817499
2193.628817	-3.000300	3.275600	-9.826800	26.377641	-7.801655E-5	20.834419
2194.629475	-3.004800	3.273300	-9.834500	26.388765	-7.778559E-5	20.828529
2195.629931	-2.990600	3.274800	-9.792300	26.387772	-7.999625E-5	20.811410
2196.631670	-2.990600	3.273500	-9.789200	26.415010	-7.847848E-5	20.828829
2197.628332	-3.001700	3.272200	-9.821400	26.394650	-8.045818E-5	20.819745
2198.635007	-2.982600	3.272800	-9.760800	26.429759	-8.006224E-5	20.817100
2199.633832	-2.986900	3.271500	-9.770700	26.443713	-8.118407E-5	20.811211
2200.627115	-2.995100	3.272300	-9.799300	26.439939	-8.184397E-5	20.818323
2201.632745	-3.024200	3.271500	-9.892600	26.415755	-8.154701E-5	20.810611
2202.631241	-2.993900	3.269600	-9.787600	26.420944	-8.243788E-5	20.804447
2203.630584	-2.990200	3.270400	-9.778600	26.443489	-8.207493E-5	20.828055
2204.634585	-2.988200	3.271200	-9.774100	26.452527	-8.573737E-5	20.819595
2205.636605	-2.999000	3.269500	-9.804500	26.450813	-8.461554E-5	20.815503
2206.634310	-3.012400	3.270300	-9.850500	26.430727	-8.600133E-5	20.836564
2207.632044	-2.997400	3.269500	-9.799000	26.449497	-8.418661E-5	20.830301
2208.637471	-2.982200	3.269100	-9.747800	26.455854	-8.652925E-5	20.808715
2209.632936	-2.983300	3.268900	-9.751600	26.444010	-8.695819E-5	20.811036
2210.636049	-3.024300	3.267100	-9.879900	26.452030	-8.712316E-5	20.811510
2211.633234	-2.998600	3.268500	-9.800300	26.481451	-8.544042E-5	20.824012
2212.635130	-3.004800	3.267300	-9.816900	26.469435	-8.798103E-5	20.818098
2213.633071	-3.028500	3.266900	-9.893000	26.477404	-8.788204E-5	20.812358
2214.636158	-3.027500	3.265200	-9.884600	26.468491	-9.009271E-5	20.811460
2215.637178	-3.012600	3.266100	-9.838900	26.463923	-9.075261E-5	20.807342
2216.632641	-2.993300	3.265900	-9.774900	26.464742	-9.151149E-5	20.810062
2217.637959	-2.981200	3.266200	-9.735900	26.480657	-9.022469E-5	20.824162
2218.636352	-2.989300	3.265400	-9.760100	26.465785	-9.114854E-5	20.821067
2219.637030	-2.984900	3.265300	-9.745500	26.473779	-9.273230E-5	20.803973
2220.637402	-3.000700	3.263800	-9.793200	26.473655	-9.286428E-5	20.806693
2221.642053	-2.985200	3.264300	-9.743400	26.489769	-9.329322E-5	20.807242
2222.639389	-3.013300	3.263300	-9.832000	26.491159	-9.352418E-5	20.796312
2223.638176	-3.001500	3.262800	-9.792100	26.484604	-9.273230E-5	20.810586
2224.637178	-2.983200	3.263500	-9.735300	26.488130	-9.220438E-5	20.799431
2225.642446	-2.994400	3.262300	-9.767600	26.507843	-9.580083E-5	20.816401
2226.637397	-2.987200	3.261700	-9.742200	26.485945	-9.560286E-5	20.793916
2227.639031	-2.992800	3.261700	-9.760700	26.514497	-9.609779E-5	20.796062
2228.642398	-2.988800	3.260400	-9.743900	26.521597	-9.543789E-5	20.812208
2229.640544	-2.996100	3.259200	-9.763200	26.520356	-9.487697E-5	20.827081
2230.640282	-3.022300	3.259200	-9.849400	26.546176	-9.665870E-5	20.800405
2231.647157	-3.008200	3.259600	-9.804500	26.527779	-9.543789E-5	20.807991
2232.645594	-2.998400	3.259000	-9.770200	26.522565	-9.764855E-5	20.841630
2233.644049	-3.016000	3.257400	-9.823600	26.530038	-9.820947E-5	20.815003
2234.644873	-2.984800	3.259200	-9.727300	26.541632	-9.900134E-5	20.812433
2235.642475	-2.987500	3.259400	-9.736500	26.538107	-9.731860E-5	20.810786
2236.644327	-3.014300	3.257200	-9.817000	26.571299	-0.000101	20.807642
2237.648156	-3.000000	3.256900	-9.770100	26.562511	-9.853942E-5	20.817299
2238.643236	-3.001100	3.256800	-9.773200	26.554095	-9.794551E-5	20.804098
2239.642860	-2.995600	3.256300	-9.753100	26.561021	-0.000100	20.799681
2240.649392	-2.986300	3.255800	-9.722400	26.552804	-9.893535E-5	20.803748
2241.646867	-2.988300	3.255700	-9.728500	26.556900	-0.000100	20.816875
2242.647052	-2.999900	3.254600	-9.761700	26.543171	-0.000101	20.804023
2243.647870	-2.990700	3.255400	-9.735400	26.570703	-0.000104	20.793292
2244.645752	-2.999200	3.254700	-9.760300	26.555435	-0.000102	20.785531
2245.645802	-3.017000	3.252800	-9.813500	26.554467	-0.000103	20.788825
2246.647410	-2.987700	3.252900	-9.717400	26.565291	-0.000101	20.784058
2247.646799	-2.995600	3.253700	-9.745900	26.575942	-0.000103	20.817049
2248.646040	-3.007400	3.253500	-9.783200	26.557918	-0.000104	20.808415
2249.650933	-3.015100	3.251300	-9.801800	26.583737	-0.000103	20.786005
2250.645570	-2.985500	3.252600	-9.710600	26.598160	-0.000103	20.804297
2251.647309	-3.016300	3.252000	-9.807800	26.582073	-0.000104	20.804247
2252.648884	-2.991800	3.250700	-9.724100	26.585772	-0.000104	20.793267
2253.648365	-3.008700	3.251800	-9.782900	26.608289	-0.000104	20.802151
2254.648102	-2.981900	3.251400	-9.694100	26.581676	-0.000105	20.787252
2255.647996	-2.996500	3.249400	-9.736100	26.598259	-0.000104	20.785905
2256.645772	-2.998000	3.248700	-9.738500	26.585822	-0.000106	20.795687
2257.648573	-2.998800	3.248200	-9.739500	26.610895	-0.000107	20.802400
2258.651412	-2.992200	3.248800	-9.719500	26.601114	-0.000107	20.780240
2259.647049	-3.012900	3.249200	-9.788500	26.602008	-0.000105	20.791570
2260.650415	-2.992500	3.247200	-9.716400	26.609381	-0.000106	20.807042
2261.650913	-2.989500	3.247900	-9.708800	26.602033	-0.000107	20.789698
2262.651814	-2.998500	3.246200	-9.733000	26.619236	-0.000108	20.783759
2263.650744	-3.014900	3.245500	-9.783500	26.615165	-0.000108	20.798632
2264.650160	-3.001200	3.245800	-9.740800	26.626038	-0.000107	20.793441
2265.650191	-3.008000	3.244600	-9.758900	26.617524	-0.000110	20.797210
2266.648374	-3.011100	3.244400	-9.768200	26.634032	-0.000109	20.782985
2267.653076	-2.993900	3.245100	-9.715000	26.627751	-0.000108	20.797534
2268.650092	-3.010600	3.244000	-9.765600	26.651781	-0.000109	20.778543
2269.650082	-2.973300	3.244500	-9.645900	26.639419	-0.000111	20.798832
2270.650440	-3.007000	3.243700	-9.753100	26.637606	-0.000110	20.788001
2271.650889	-3.002300	3.242900	-9.734800	26.635248	-0.000108	20.785630
2272.654649	-3.003800	3.243700	-9.742900	26.628521	-0.000111	20.799730
2273.657754	-3.000000	3.242700	-9.727300	26.629290	-0.000110	20.791020
2274.651302	-2.991500	3.242800	-9.700700	26.633907	-0.000110	20.789498
2275.650339	-3.017100	3.240700	-9.776700	26.645128	-0.000110	20.771854
2276.656108	-2.993100	3.241100	-9.700100	26.648876	-0.000111	20.797434
2277.654054	-2.986500	3.241200	-9.679200	26.649497	-0.000112	20.793316
2278.652687	-3.007800	3.241100	-9.746900	26.661065	-0.000113	20.793092
2279.656120	-2.987800	3.239300	-9.677400	26.670051	-0.000114	20.775573
2280.652812	-2.985800	3.239100	-9.671000	26.648131	-0.000115	20.778667
2281.654809	-2.997900	3.239200	-9.709200	26.668884	-0.000114	20.787676
2282.657362	-2.981300	3.239800	-9.658000	26.669629	-0.000115	20.768984
2283.658302	-3.006200	3.235600	-9.726200	26.668412	-0.000115	20.786254
2284.657596	-2.994200	3.237100	-9.690800	26.672608	-0.000116	20.769608
2285.659646	-3.020300	3.235600	-9.771800	26.699615	-0.000118	20.780639
2286.654968	-2.994800	3.236200	-9.691100	26.674395	-0.000116	20.768560
2287.656448	-2.999900	3.235200	-9.704400	26.699491	-0.000117	20.783833
2288.662968	-2.990000	3.235100	-9.671800	26.678664	-0.000116	20.770007
2289.660748	-3.015800	3.234700	-9.753600	26.707658	-0.000116	20.773551
2290.656464	-3.012600	3.234300	-9.742700	26.688867	-0.000117	20.781687
2291.659524	-2.986600	3.233900	-9.657900	26.704282	-0.000117	20.784382
2292.659086	-3.009700	3.234000	-9.733000	26.710065	-0.000118	20.780239
2293.658176	-2.991300	3.233000	-9.669500	26.715179	-0.000119	20.783958
2294.661530	-2.995800	3.233000	-9.684800	26.708502	-0.000118	20.774874
2295.656399	-2.997900	3.231000	-9.685200	26.710611	-0.000120	20.776521
2296.660680	-2.994300	3.230200	-9.671000	26.699615	-0.000118	20.767836
2297.664626	-3.000500	3.230800	-9.693500	26.693508	-0.000119	20.773077
2298.655798	-2.993000	3.229900	-9.666000	26.716842	-0.000120	20.776620
2299.656749	-2.996200	3.230200	-9.677000	26.733274	-0.000119	20.754734
2300.663595	-2.991900	3.229800	-9.661600	26.715476	-0.000119	20.771929
2301.664465	-2.986100	3.229500	-9.642600	26.722576	-0.000119	20.773850
2302.661905	-2.985800	3.229600	-9.640600	26.716668	-0.000118	20.790196
2303.666065	-3.010000	3.228100	-9.715600	26.739355	-0.000119	20.770805
2304.660147	-3.000600	3.227900	-9.684600	26.723171	-0.000122	20.754060
2305.662934	-3.028700	3.227000	-9.772300	26.753305	-0.000119	20.777718
2306.662802	-3.006000	3.226500	-9.697500	26.733745	-0.000120	20.781287
2307.667160	-2.999100	3.226000	-9.673800	26.726894	-0.000121	20.784830
2308.666125	-3.011200	3.225900	-9.712500	26.759709	-0.000120	20.768035
2309.668622	-2.996800	3.226600	-9.668300	26.737841	-0.000121	20.767860
2310.665058	-3.003700	3.225800	-9.688500	26.745933	-0.000121	20.764142
2311.666282	-3.014800	3.224900	-9.720600	26.762935	-0.000122	20.758951
2312.668932	-3.016500	3.224500	-9.725300	26.749681	-0.000124	20.769807
2313.665532	-3.003900	3.223100	-9.681100	26.738933	-0.000123	20.764691
2314.668257	-3.046100	3.221900	-9.813200	26.769612	-0.000122	20.773251
2315.669196	-3.000500	3.222800	-9.669300	26.743798	-0.000123	20.767211
2316.669302	-2.993100	3.224200	-9.649000	26.761421	-0.000123	20.756480
2317.670530	-3.016900	3.220500	-9.715300	26.766857	-0.000123	20.781860
2318.674505	-3.037100	3.219900	-9.778000	26.765864	-0.000123	20.773750
2319.671100	-3.017700	3.220700	-9.718100	26.790189	-0.000125	20.762170
2320.672994	-2.975000	3.221600	-9.584100	26.770059	-0.000124	20.752836
2321.672276	-3.032500	3.220000	-9.763600	26.770406	-0.000124	20.765514
2322.669866	-3.020000	3.219400	-9.721900	26.777307	-0.000124	20.758227
2323.669344	-2.985700	3.219300	-9.610700	26.780583	-0.000125	20.766737
2324.672465	-2.999600	3.218200	-9.652300	26.788848	-0.000125	20.766038
2325.675160	-3.017300	3.218200	-9.709000	26.781526	-0.000124	20.750615
2326.673168	-2.993200	3.219400	-9.635700	26.799372	-0.000125	20.764291
2327.676827	-3.007800	3.216300	-9.673100	26.790660	-0.000125	20.768334
2328.674446	-3.011700	3.217300	-9.688200	26.779168	-0.000126	20.762470
2329.672963	-3.006400	3.217900	-9.673400	26.788054	-0.000128	20.752911
2330.674745	-3.013700	3.214700	-9.686600	26.806967	-0.000125	20.764341
2331.674976	-2.991600	3.214200	-9.614800	26.809251	-0.000128	20.752412
2332.674735	-3.015500	3.214700	-9.692900	26.808283	-0.000126	20.772302
2333.677811	-3.015900	3.213500	-9.690700	26.820817	-0.000128	20.733220
2334.677489	-3.004900	3.213400	-9.654800	26.812204	-0.000124	20.752063
2335.675972	-3.012000	3.213900	-9.679500	26.801184	-0.000127	20.767061
2336.678214	-3.014500	3.211600	-9.680300	26.796294	-0.000125	20.746023
2337.679644	-2.967200	3.213700	-9.534000	26.837297	-0.000126	20.771129
2338.677176	-3.042900	3.211200	-9.770700	26.819973	-0.000127	20.747071
2339.680825	-2.994700	3.212200	-9.618400	26.825905	-0.000126	20.740707
2340.676795	-3.007000	3.209800	-9.651200	26.812279	-0.000127	20.755931
2341.679628	-3.002600	3.210700	-9.639100	26.822579	-0.000128	20.736889
2342.680485	-3.005600	3.209100	-9.644700	26.840573	-0.000126	20.755931
2343.678638	-3.021000	3.208700	-9.692700	26.852685	-0.000128	20.740608
2344.685520	-2.986000	3.208200	-9.578300	26.844669	-0.000126	20.749617
2345.684865	-3.000200	3.207900	-9.622300	26.851047	-0.000127	20.750815
2346.681583	-2.981300	3.208000	-9.563800	26.841665	-0.000128	20.753710
2347.681146	-2.967200	3.207900	-9.517400	26.845463	-0.000129	20.769382
2348.688694	-2.994600	3.206900	-9.602200	26.864052	-0.000129	20.742554
2349.682170	-2.975600	3.206400	-9.540200	26.874824	-0.000131	20.752437
2350.681345	-2.989700	3.206500	-9.585300	26.878944	-0.000130	20.763692
2351.686301	-2.997500	3.205600	-9.607800	26.862365	-0.000130	20.739909
2352.683166	-3.019100	3.205700	-9.677200	26.869910	-0.000130	20.728054
2353.681338	-2.981700	3.204900	-9.555000	26.903613	-0.000130	20.743453
2354.689227	-3.014500	3.204100	-9.657700	26.865095	-0.000130	20.751189
2355.683855	-3.016300	3.203400	-9.661400	26.866360	-0.000129	20.779489
2356.683535	-2.994400	3.203700	-9.591900	26.872739	-0.000131	20.737538
2357.688612	-3.010900	3.201300	-9.638300	26.895646	-0.000131	20.756305
2358.685576	-2.999700	3.203200	-9.608200	26.900238	-0.000132	20.744326
2359.681859	-3.002300	3.201100	-9.608700	26.888945	-0.000129	20.750990
2360.684030	-2.957000	3.202300	-9.467200	26.902769	-0.000129	20.763942
2361.683179	-2.970300	3.201000	-9.505700	26.911679	-0.000129	20.755831
2362.685318	-2.988000	3.200200	-9.561100	26.904358	-0.000130	20.738511
2363.689007	-2.978400	3.199700	-9.528400	26.897086	-0.000130	20.736889
2364.683867	-2.999400	3.200100	-9.596200	26.889367	-0.000132	20.749043
2365.685344	-3.026200	3.198100	-9.676900	26.894753	-0.000129	20.742130
2366.686962	-2.990500	3.198800	-9.565200	26.913193	-0.000132	20.739809
2367.685835	-2.971700	3.199000	-9.504900	26.923145	-0.000132	20.733220
2368.685444	-2.990000	3.196800	-9.557400	26.919298	-0.000132	20.759699
2369.687196	-3.017100	3.197100	-9.644500	26.916841	-0.000134	20.761022
2370.683617	-3.000800	3.196100	-9.589900	26.931856	-0.000132	20.743403
2371.685724	-2.996100	3.196400	-9.576600	26.928878	-0.000132	20.760323
2372.685547	-3.012500	3.194500	-9.622000	26.949352	-0.000132	20.760997
2373.684509	-2.997600	3.195000	-9.576500	26.910413	-0.000133	20.737962
2374.686393	-2.986300	3.195000	-9.540400	26.915302	-0.000133	20.769432
2375.683429	-2.973600	3.193900	-9.496500	26.929225	-0.000131	20.740757
2376.687472	-3.018200	3.193300	-9.637000	26.939251	-0.000134	20.745624
2377.686152	-2.996200	3.192200	-9.563300	26.952032	-0.000131	20.751364
2378.685995	-2.986800	3.192300	-9.533800	26.924162	-0.000132	20.748469
2379.684034	-2.985000	3.191400	-9.525500	26.941385	-0.000132	20.749667
2380.683729	-2.991600	3.190900	-9.545200	26.940318	-0.000131	20.746697
2381.685159	-2.975100	3.190800	-9.492000	26.949476	-0.000134	20.766338
2382.687245	-3.012700	3.189800	-9.609000	26.934610	-0.000134	20.760398
2383.686044	-2.995700	3.189400	-9.553400	26.946175	-0.000134	20.769183
2384.685493	-2.991100	3.188900	-9.537000	26.952652	-0.000136	20.738711
2385.695647	-3.000600	3.188900	-9.567700	26.958038	-0.000132	20.747446
2386.689873	-2.995600	3.187800	-9.548700	26.963646	-0.000134	20.765888
2387.684587	-3.003300	3.187200	-9.571100	26.951486	-0.000135	20.752712
2388.688977	-2.998200	3.185800	-9.550600	26.947366	-0.000134	20.754733
2389.687140	-2.995400	3.186400	-9.543600	26.957541	-0.000133	20.736515
2390.685256	-2.990800	3.185300	-9.525600	26.941534	-0.000135	20.762145
2391.689722	-2.987200	3.186700	-9.518000	26.957194	-0.000133	20.759874
2392.685374	-3.006600	3.183000	-9.569100	26.954266	-0.000134	20.754558
2393.686241	-2.992800	3.184400	-9.529600	26.943296	-0.000135	20.761546
2394.689980	-2.990900	3.183800	-9.522000	26.972580	-0.000135	20.764441
2395.689357	-3.005800	3.183000	-9.566300	26.965309	-0.000135	20.760448
2396.688328	-2.989100	3.183300	-9.514500	26.960792	-0.000135	20.766812
2397.695162	-3.021900	3.181900	-9.614400	26.965061	-0.000136	20.755931
2398.688513	-2.968300	3.182500	-9.445600	26.969826	-0.000133	20.769732
2399.686008	-2.996300	3.180500	-9.528000	26.968758	-0.000133	20.761072
2400.689285	-2.979500	3.180100	-9.473500	26.975111	-0.000135	20.762719
2401.690969	-2.980800	3.180400	-9.478900	26.975236	-0.000133	20.782759
2402.690404	-3.010700	3.180300	-9.574400	26.992210	-0.000134	20.769482
2403.692324	-2.978100	3.179500	-9.467500	26.997372	-0.000136	20.779889
2404.690356	-2.983900	3.178400	-9.483000	26.952305	-0.000135	20.779614
2405.690191	-2.973700	3.177000	-9.446800	26.987544	-0.000135	20.737288
2406.693763	-2.999300	3.176100	-9.525600	26.991316	-0.000136	20.777593
2407.695536	-2.985200	3.177700	-9.484800	26.973300	-0.000136	20.778915
2408.693232	-3.008800	3.174100	-9.548800	26.982953	-0.000134	20.770131
2409.689972	-2.983700	3.176100	-9.475900	26.994468	-0.000135	20.756580
2410.688602	-3.003400	3.174500	-9.533000	26.994443	-0.000136	20.766512
2411.688315	-3.018500	3.172900	-9.577000	27.004891	-0.000135	20.768484
2412.695237	-3.005300	3.173600	-9.536700	27.009283	-0.000136	20.756305
2413.692241	-3.007400	3.172400	-9.539600	27.013874	-0.000136	20.782260
2414.695514	-3.005600	3.172000	-9.532500	27.036952	-0.000134	20.755681
2415.700026	-2.971700	3.172700	-9.426900	27.026108	-0.000135	20.749991
2416.693691	-2.986600	3.170300	-9.467400	27.053628	-0.000137	20.777193
2417.695252	-2.989300	3.171400	-9.479200	27.048466	-0.000136	20.774848
2418.697044	-2.996700	3.169600	-9.497900	27.065886	-0.000137	20.769133
2419.697853	-2.996400	3.169200	-9.495100	27.062189	-0.000137	20.749767
2420.692701	-2.993900	3.169200	-9.487800	27.055985	-0.000138	20.768659
2421.695002	-3.011700	3.168200	-9.540900	27.075166	-0.000134	20.770880
2422.697069	-2.955100	3.169600	-9.365900	27.075861	-0.000137	20.775372
2423.699856	-3.004000	3.167500	-9.513500	27.074199	-0.000137	20.794563
2424.700779	-2.965000	3.167100	-9.389500	27.079707	-0.000137	20.787301
2425.695641	-2.988200	3.165800	-9.458900	27.077176	-0.000137	20.769108
2426.694898	-2.988500	3.166500	-9.462200	27.082015	-0.000137	20.766388
2427.699999	-2.993400	3.165700	-9.475400	27.069881	-0.000136	20.777418
2428.700191	-3.004100	3.163700	-9.502200	27.070328	-0.000136	20.769332
2429.695426	-2.977300	3.164300	-9.419800	27.066258	-0.000137	20.796060
2430.702186	-2.989300	3.163800	-9.456900	27.070452	-0.000137	20.789372
2431.698260	-2.972400	3.163600	-9.402800	27.077102	-0.000137	20.777094
2432.696271	-2.996200	3.161800	-9.472200	27.088814	-0.000137	20.783183
2433.701319	-3.002800	3.161200	-9.492000	27.068541	-0.000137	20.796459
2434.699798	-2.991100	3.160700	-9.452200	27.089832	-0.000138	20.770455
2435.698800	-3.015500	3.159400	-9.525300	27.093802	-0.000139	20.768284
2436.703418	-2.986400	3.161600	-9.441100	27.104248	-0.000139	20.775946
2437.699920	-2.998100	3.158600	-9.469500	27.100923	-0.000138	20.790620
2438.698124	-3.002700	3.157400	-9.479800	27.105390	-0.000138	20.803646
2439.700993	-2.980100	3.158900	-9.413000	27.105737	-0.000137	20.783133
2440.700243	-3.004700	3.157400	-9.485600	27.110700	-0.000137	20.774848
2441.698167	-2.986200	3.157500	-9.428500	27.099931	-0.000137	20.782035
2442.706772	-2.962600	3.156500	-9.350500	27.114546	-0.000137	20.788673
2443.698819	-3.000100	3.154600	-9.463200	27.097226	-0.000137	20.779315
2444.704625	-3.021800	3.153100	-9.526700	27.103256	-0.000137	20.784905
2445.702657	-3.013300	3.153700	-9.501600	27.111146	-0.000137	20.793789
2446.700337	-2.985100	3.153800	-9.413600	27.136331	-0.000136	20.802998
2447.700244	-3.005800	3.152300	-9.474500	27.126530	-0.000136	20.796933
2448.707658	-3.008000	3.151000	-9.477200	27.130897	-0.000136	20.792791
2449.700136	-3.016900	3.148900	-9.499000	27.133676	-0.000137	20.804121
2450.703330	-2.976400	3.151200	-9.378600	27.150003	-0.000136	20.791618
2451.709060	-2.991700	3.150800	-9.424700	27.139979	-0.000138	20.799080
2452.702443	-2.990600	3.148800	-9.416000	27.138738	-0.000137	20.784555
2453.706577	-3.005000	3.147900	-9.458700	27.153601	-0.000139	20.814677
2454.705709	-2.963000	3.149400	-9.330900	27.151293	-0.000137	20.772527
2455.702293	-2.991800	3.146500	-9.412800	27.167396	-0.000138	20.786352
2456.704633	-3.046800	3.144800	-9.580600	27.152708	-0.000139	20.802873
2457.707458	-2.982700	3.146900	-9.385100	27.156454	-0.000139	20.792891
2458.704189	-2.967100	3.144500	-9.328600	27.177371	-0.000137	20.800178
2459.707462	-2.996800	3.145000	-9.423600	27.190521	-0.000137	20.793015
2460.705971	-3.010600	3.142500	-9.459600	27.175956	-0.000138	20.800652
2461.703440	-2.975500	3.143700	-9.352800	27.183474	-0.000137	20.805842
2462.707955	-2.997400	3.141900	-9.417100	27.177594	-0.000138	20.804195
2463.708464	-3.008900	3.140800	-9.449200	27.169704	-0.000139	20.812855
2464.707770	-3.016200	3.141000	-9.472200	27.164915	-0.000138	20.792392
2465.705994	-2.997900	3.139800	-9.412000	27.187965	-0.000138	20.780962
2466.713416	-3.004600	3.140100	-9.434100	27.166032	-0.000137	20.807265
2467.706336	-3.018000	3.138800	-9.471600	27.195533	-0.000136	20.816074
2468.708155	-2.996500	3.138400	-9.403800	27.193573	-0.000137	20.805094
2469.709607	-3.005100	3.137100	-9.426800	27.225405	-0.000138	20.807240
2470.707767	-3.005600	3.135900	-9.423600	27.214216	-0.000137	20.787450
2471.713134	-3.001000	3.135200	-9.408000	27.217491	-0.000137	20.808288
2472.714046	-3.014600	3.134300	-9.447600	27.226571	-0.000139	20.802249
2473.711458	-3.013000	3.134200	-9.442900	27.246817	-0.000139	20.815026
2474.708736	-3.019500	3.134500	-9.464200	27.231112	-0.000138	20.798755
2475.712112	-3.004000	3.132300	-9.408600	27.228010	-0.000137	20.811283
2476.709251	-3.014900	3.131500	-9.440300	27.242673	-0.000136	20.803272
2477.710875	-2.990900	3.131900	-9.366800	27.247710	-0.000137	20.801700
2478.714805	-3.005400	3.131700	-9.411200	27.230913	-0.000138	20.805668
2479.712622	-2.974500	3.130700	-9.310700	27.248156	-0.000140	20.808313
2480.714894	-3.019300	3.128600	-9.445100	27.232327	-0.000140	20.820367
2481.713063	-3.001400	3.129600	-9.392000	27.229028	-0.000137	20.799978
2482.714170	-2.995300	3.127300	-9.365800	27.215878	-0.000137	20.828477
2483.713988	-2.976600	3.128100	-9.310200	27.244906	-0.000137	20.826381
2484.717071	-3.000000	3.126100	-9.377500	27.251307	-0.000140	20.815276
2485.716495	-2.992100	3.124700	-9.348800	27.226447	-0.000139	20.815875
2486.716027	-2.993100	3.125200	-9.353200	27.248653	-0.000139	20.823511
2487.716933	-2.980700	3.124500	-9.312400	27.230467	-0.000138	20.807590
2488.714717	-3.007300	3.124100	-9.393900	27.240961	-0.000138	20.824784
2489.716073	-3.031100	3.120800	-9.458300	27.252771	-0.000137	20.817696
2490.722745	-2.999300	3.121500	-9.361200	27.257783	-0.000138	20.836013
2491.715276	-3.015100	3.119900	-9.406200	27.281525	-0.000137	20.815326
2492.720653	-2.990800	3.122100	-9.335000	27.269021	-0.000138	20.829300
2493.721724	-3.014400	3.119100	-9.400500	27.264928	-0.000137	20.822338
2494.715069	-2.984000	3.119700	-9.307400	27.279565	-0.000139	20.827104
2495.715870	-3.002300	3.117800	-9.359200	27.285693	-0.000138	20.815725
2496.719052	-2.989000	3.118600	-9.321000	27.278821	-0.000138	20.830623
2497.716647	-2.999500	3.118200	-9.352600	27.308592	-0.000138	20.817896
2498.716214	-2.999000	3.115400	-9.342800	27.289787	-0.000140	20.809885
2499.720284	-3.012500	3.114100	-9.380800	27.312363	-0.000140	20.818370
2500.716514	-3.008600	3.113800	-9.367300	27.294823	-0.000139	20.825382
2501.717988	-3.009400	3.111200	-9.361300	27.321840	-0.000138	20.836437
2502.723781	-3.014500	3.112200	-9.380800	27.320103	-0.000136	20.829001
2503.718758	-2.992900	3.111300	-9.311100	27.317672	-0.000138	20.846469
2504.719155	-2.993900	3.110500	-9.312100	27.340247	-0.000139	20.817497
2505.718701	-2.996000	3.109800	-9.315900	27.336452	-0.000137	20.830274
2506.716750	-2.997000	3.109400	-9.318300	27.336303	-0.000137	20.827753
2507.720590	-2.986400	3.108400	-9.282100	27.375375	-0.000138	20.837660
2508.716679	-3.011600	3.106900	-9.355900	27.367585	-0.000136	20.815600
2509.718822	-2.988700	3.105800	-9.281600	27.366394	-0.000137	20.843325
2510.723407	-3.004500	3.105000	-9.328400	27.367709	-0.000140	20.834216
2511.717060	-3.018000	3.103000	-9.362700	27.367114	-0.000138	20.854005
2512.716771	-2.995200	3.102600	-9.292000	27.344365	-0.000137	20.834915
2513.720445	-2.985100	3.104500	-9.266200	27.371157	-0.000138	20.822987
2514.717142	-2.994300	3.101400	-9.285600	27.382717	-0.000139	20.831771
2515.717737	-3.005600	3.099300	-9.314300	27.378351	-0.000138	20.834017
2516.718876	-3.000000	3.100300	-9.299700	27.372075	-0.000140	20.853306
2517.722350	-2.983400	3.102100	-9.253700	27.387034	-0.000139	20.838484
2518.718589	-3.004300	3.097600	-9.305400	27.387083	-0.000140	20.850387
2519.722168	-2.986900	3.098300	-9.253000	27.390308	-0.000139	20.851734
2520.718002	-2.999300	3.095900	-9.284400	27.404150	-0.000137	20.844797
2521.717871	-2.996200	3.095500	-9.273600	27.413403	-0.000140	20.832295
2522.724480	-2.993600	3.094100	-9.261600	27.410129	-0.000136	20.828527
2523.717708	-2.987900	3.093800	-9.243200	27.436745	-0.000138	20.851984
2524.718490	-2.980300	3.092000	-9.213500	27.432578	-0.000138	20.860593
2525.721069	-2.989800	3.092100	-9.244200	27.407201	-0.000139	20.861142
2526.721943	-3.026300	3.090300	-9.352000	27.427989	-0.000139	20.858821
2527.722546	-2.993600	3.090300	-9.250400	27.460410	-0.000137	20.850187
2528.723831	-3.008200	3.087100	-9.286300	27.461179	-0.000139	20.848590
2529.720623	-3.029200	3.086500	-9.348700	27.444956	-0.000139	20.860244
2530.721959	-3.000400	3.087300	-9.262300	27.441706	-0.000138	20.847018
2531.725651	-3.008400	3.085400	-9.281400	27.447461	-0.000140	20.863712
2532.722725	-2.982500	3.083100	-9.194400	27.448578	-0.000139	20.866732
2533.723958	-3.003300	3.084100	-9.261700	27.448057	-0.000139	20.842027
2534.721557	-3.031000	3.080200	-9.335300	27.462022	-0.000141	20.863662
2535.722659	-3.006500	3.080800	-9.261400	27.461327	-0.000137	20.850636
2536.723120	-2.995100	3.080300	-9.223900	27.463237	-0.000138	20.871997
2537.723217	-2.977900	3.081400	-9.174200	27.490101	-0.000138	20.854454
2538.725378	-2.986200	3.078900	-9.193300	27.469389	-0.000138	20.872970
2539.723707	-3.006000	3.076200	-9.245900	27.494367	-0.000138	20.855428
2540.724974	-2.990800	3.075600	-9.196700	27.508605	-0.000137	20.859320
2541.725367	-2.985800	3.074900	-9.179600	27.497369	-0.000140	20.875990
2542.723511	-2.986600	3.074200	-9.180800	27.520139	-0.000139	20.872346
2543.726253	-3.011900	3.072100	-9.251500	27.506472	-0.000137	20.855278
2544.725276	-3.007900	3.071300	-9.236500	27.519767	-0.000138	20.860119
2545.726334	-2.970800	3.071800	-9.125200	27.516443	-0.000138	20.866732
2546.728354	-3.010900	3.068400	-9.237800	27.518427	-0.000137	20.856875
2547.727581	-2.981900	3.067300	-9.145400	27.497716	-0.000137	20.879184
2548.726772	-2.995800	3.067200	-9.187900	27.535492	-0.000138	20.872147
2549.727650	-2.978300	3.065400	-9.128900	27.532590	-0.000137	20.858322
2550.729656	-2.995700	3.063600	-9.176900	27.532292	-0.000139	20.890263
2551.728243	-2.999500	3.062200	-9.184900	27.529911	-0.000139	20.894031
2552.729340	-3.024600	3.061200	-9.257200	27.536757	-0.000137	20.890488
2553.730354	-3.002400	3.061400	-9.190600	27.540800	-0.000136	20.870375
2554.728845	-2.993600	3.059700	-9.158400	27.554194	-0.000138	20.867730
2555.731548	-2.974200	3.059400	-9.098400	27.556525	-0.000137	20.860593
2556.731782	-2.981100	3.057500	-9.114000	27.551118	-0.000136	20.874592
2557.731569	-2.985500	3.057300	-9.125600	27.558633	-0.000138	20.878834
2558.732121	-2.994500	3.054400	-9.145300	27.551217	-0.000136	20.912621
2559.736582	-3.002200	3.053000	-9.165100	27.563073	-0.000136	20.879034
2560.731986	-2.986500	3.052500	-9.115600	27.557145	-0.000136	20.880182
2561.732891	-3.010000	3.051100	-9.182700	27.586610	-0.000140	20.870475
2562.735836	-2.977500	3.051200	-9.083300	27.576814	-0.000139	20.881005
2563.731741	-2.991000	3.048300	-9.116900	27.573168	-0.000137	20.874492
2564.736964	-2.994500	3.048300	-9.127600	27.569646	-0.000136	20.887069
2565.737957	-2.987200	3.045900	-9.097900	27.588272	-0.000139	20.889689
2566.736322	-2.985100	3.045400	-9.089800	27.582890	-0.000137	20.879533
2567.736496	-3.005600	3.043600	-9.146000	27.582022	-0.000140	20.884823
2568.732812	-3.014300	3.042200	-9.169500	27.586114	-0.000138	20.889889
2569.735557	-2.981800	3.042100	-9.069000	27.608932	-0.000140	20.888192
2570.735632	-2.994700	3.040900	-9.106200	27.589934	-0.000139	20.897525
2571.742104	-3.014000	3.038500	-9.156900	27.599384	-0.000140	20.904187
2572.735183	-3.005000	3.037400	-9.126400	27.627335	-0.000137	20.887269
2573.737402	-2.996400	3.037300	-9.099900	27.604914	-0.000138	20.899321
2574.736329	-3.010100	3.034500	-9.133500	27.614562	-0.000140	20.895753
2575.738904	-3.006900	3.033900	-9.121500	27.610991	-0.000137	20.906383
2576.734357	-2.982000	3.033900	-9.045900	27.603029	-0.000138	20.906907
2577.734498	-3.012000	3.031700	-9.130400	27.617960	-0.000139	20.894904
2578.739241	-3.032100	3.029800	-9.185500	27.627632	-0.000139	20.911274
2579.738591	-3.022200	3.028000	-9.150300	27.622672	-0.000139	20.910076
2580.743474	-3.008900	3.027700	-9.108600	27.649085	-0.000137	20.905360
2581.738841	-2.995400	3.027000	-9.066700	27.617836	-0.000140	20.897624
2582.739534	-3.003900	3.024200	-9.084100	27.642538	-0.000140	20.909677
2583.745464	-3.015500	3.024100	-9.118200	27.644199	-0.000138	20.913245
2584.736244	-2.981800	3.022200	-9.010300	27.641719	-0.000138	20.906483
2585.741244	-2.995100	3.020600	-9.045800	27.635470	-0.000139	20.912521
2586.741928	-2.989700	3.019800	-9.027000	27.649482	-0.000138	20.905285
2587.739484	-3.005900	3.017700	-9.069900	27.662378	-0.000139	20.907356
2588.740898	-3.015100	3.016400	-9.094000	27.663643	-0.000139	20.919059
2589.739565	-2.976500	3.017600	-8.981100	27.672819	-0.000139	20.915965
2590.739818	-3.018800	3.013600	-9.096800	27.670215	-0.000140	20.902914
2591.745902	-3.004300	3.013400	-9.052600	27.645514	-0.000138	20.876638
2592.740499	-2.984500	3.011000	-8.984600	27.675597	-0.000137	20.892209
2593.742610	-2.978400	3.010400	-8.965200	27.683409	-0.000138	20.904337
2594.741449	-2.979600	3.008600	-8.963500	27.678647	-0.000137	20.902864
2595.739349	-2.989700	3.007700	-8.991200	27.694097	-0.000138	20.894705
2596.743650	-2.971100	3.006300	-8.931100	27.686509	-0.000137	20.900344
2597.742424	-2.947500	3.004700	-8.856100	27.686310	-0.000137	20.902041
2598.744929	-2.996300	3.004400	-9.001100	27.704786	-0.000140	20.898822
2599.747447	-3.007500	3.003100	-9.030600	27.703571	-0.000137	20.890962
2600.743402	-2.992600	3.000500	-8.978500	27.708382	-0.000138	20.896277
2601.745234	-3.004600	2.998200	-9.007300	27.716218	-0.000138	20.884723
2602.750948	-2.988600	2.998000	-8.958600	27.719343	-0.000136	20.882652
2603.742414	-3.000000	2.996000	-8.986800	27.721749	-0.000140	20.870375
2604.745355	-3.007900	2.994900	-9.007200	27.731395	-0.000139	20.905210
2605.746773	-3.003200	2.993700	-8.990300	27.727254	-0.000137	20.883026
2606.745304	-2.977100	2.992100	-8.907500	27.742282	-0.000139	20.888192
2607.751256	-3.002900	2.990200	-8.978000	27.734322	-0.000138	20.893931
2608.749929	-3.015500	2.989200	-9.012900	27.746994	-0.000136	20.897200
2609.748644	-3.002200	2.986400	-8.964700	27.760955	-0.000138	20.886121
2610.755736	-2.993000	2.987600	-8.941200	27.743547	-0.000138	20.879982
2611.749612	-3.044000	2.983700	-9.081700	27.762939	-0.000136	20.888591
2612.751361	-3.005800	2.982500	-8.964000	27.760261	-0.000140	20.863612
2613.750695	-2.991900	2.982500	-8.922600	27.745109	-0.000139	20.878235
2614.750963	-3.019000	2.980400	-8.997000	27.750515	-0.000138	20.859021
2615.749682	-3.010300	2.978000	-8.962800	27.763881	-0.000141	20.869626
2616.754448	-2.983600	2.977900	-8.883400	27.773379	-0.000141	20.873020
2617.752334	-2.989100	2.976800	-8.897100	27.792473	-0.000139	20.863313
2618.755723	-2.977800	2.974900	-8.858100	27.784811	-0.000139	20.870774
2619.752650	-2.999700	2.972700	-8.916400	27.781885	-0.000139	20.876364
2620.753816	-3.019000	2.970400	-8.966400	27.799267	-0.000140	20.864935
2621.751529	-2.985600	2.971100	-8.869800	27.790092	-0.000138	20.851909
2622.750967	-3.019200	2.969100	-8.963500	27.784662	-0.000139	20.842177
2623.760396	-3.018700	2.966600	-8.954500	27.780273	-0.000140	20.868578
2624.751541	-3.014900	2.964800	-8.937500	27.773776	-0.000138	20.864411
2625.758790	-2.999200	2.964800	-8.891100	27.791928	-0.000137	20.875091
2626.758937	-2.986800	2.962500	-8.847900	27.795126	-0.000138	20.865983
2627.756345	-3.014200	2.960100	-8.921400	27.773329	-0.000136	20.853531
2628.755671	-3.003800	2.958800	-8.886700	27.811939	-0.000138	20.863937
2629.756305	-2.982200	2.957900	-8.819900	27.803706	-0.000138	20.848540
2630.758574	-3.025800	2.955300	-8.940900	27.790911	-0.000138	20.854155
2631.758881	-3.011200	2.953800	-8.893700	27.799317	-0.000138	20.847442
2632.755332	-2.987600	2.954300	-8.824800	27.829991	-0.000138	20.839432
2633.752122	-3.005600	2.952300	-8.872300	27.814865	-0.000139	20.858347
2634.755042	-2.985200	2.950300	-8.806100	27.833586	-0.000138	20.871972
2635.752866	-2.978500	2.949600	-8.784100	27.835421	-0.000139	20.850586
2636.755608	-3.006300	2.947700	-8.860300	27.822998	-0.000137	20.886919
2637.764246	-2.974300	2.946400	-8.762700	27.821783	-0.000137	20.854405
2638.757432	-3.009300	2.944100	-8.858400	27.853597	-0.000138	20.861292
2639.758949	-3.007900	2.941800	-8.847200	27.836165	-0.000139	20.853706
2640.760616	-3.018100	2.940700	-8.874300	27.864606	-0.000138	20.875690
2641.766590	-2.997600	2.939300	-8.810200	27.858556	-0.000138	20.853481
2642.758015	-3.015500	2.937200	-8.855700	27.859350	-0.000138	20.841478
2643.760619	-2.997400	2.935000	-8.795800	27.847398	-0.000137	20.839407
2644.758949	-2.979100	2.935700	-8.744300	27.853374	-0.000137	20.856800
2645.756606	-2.990200	2.932200	-8.767600	27.863937	-0.000136	20.867431
2646.757666	-2.982900	2.932100	-8.745200	27.870929	-0.000137	20.860718
2647.758289	-2.962900	2.930700	-8.682900	27.878368	-0.000136	20.850187
2648.759417	-2.995100	2.927700	-8.767300	27.857763	-0.000136	20.846993
2649.759966	-3.009800	2.926900	-8.808000	27.880773	-0.000137	20.856875
2650.760398	-2.975700	2.924500	-8.701600	27.880748	-0.000139	20.855902
2651.759604	-2.987200	2.922800	-8.730000	27.880971	-0.000138	20.853756
2652.760633	-2.972800	2.921400	-8.683500	27.881219	-0.000138	20.857324
2653.759018	-3.007200	2.919000	-8.777400	27.901278	-0.000138	20.850487
2654.759638	-2.996900	2.917500	-8.742800	27.889079	-0.000138	20.846744
2655.770242	-3.014500	2.916500	-8.791300	27.888211	-0.000136	20.860568
2656.761063	-3.001000	2.912700	-8.740200	27.901973	-0.000139	20.847392
2657.762134	-3.008900	2.912200	-8.761200	27.897534	-0.000139	20.839607
2658.764110	-2.991000	2.910700	-8.704200	27.939710	-0.000139	20.838908
2659.761048	-2.990900	2.908100	-8.697000	27.928726	-0.000138	20.828801
2660.766844	-2.990700	2.907300	-8.694000	27.933908	-0.000136	20.832595
2661.763879	-2.999100	2.906200	-8.714900	27.919924	-0.000137	20.847442
2662.761834	-2.998100	2.904400	-8.706400	27.918635	-0.000135	20.835240
2663.767554	-3.016100	2.901400	-8.750500	27.933338	-0.000139	20.829176
2664.763437	-3.030200	2.898400	-8.781400	27.931528	-0.000137	20.859121
2665.762221	-2.992600	2.898800	-8.673100	27.927263	-0.000137	20.830174
2666.764910	-2.989400	2.896100	-8.656600	27.945759	-0.000139	20.827928
2667.764019	-2.988900	2.895200	-8.652900	27.946974	-0.000139	20.832470
2668.768380	-3.010900	2.892800	-8.708400	27.952008	-0.000138	20.825682
2669.766554	-3.007000	2.891000	-8.691600	27.978338	-0.000137	20.860718
2670.766634	-2.996400	2.889500	-8.657700	27.968098	-0.000138	20.837610
2671.768942	-3.000900	2.886600	-8.660300	27.956941	-0.000139	20.814053
2672.767012	-3.049400	2.884200	-8.793700	27.952578	-0.000138	20.835265
2673.764411	-2.979600	2.883200	-8.589600	27.949330	-0.000136	20.824884
2674.772479	-3.003900	2.880600	-8.651900	27.973231	-0.000138	20.834716
2675.764180	-3.020900	2.878400	-8.694200	27.952082	-0.000138	20.821490
2676.766373	-2.993500	2.877100	-8.611500	27.969338	-0.000137	20.838858
2677.772161	-2.990100	2.875700	-8.596900	27.970975	-0.000136	20.831023
2678.766198	-2.988200	2.873900	-8.587400	27.981760	-0.000139	20.852309
2679.766949	-3.011400	2.871400	-8.645400	27.976925	-0.000139	20.832744
2680.765163	-2.980600	2.870200	-8.553200	27.998767	-0.000138	20.839557
2681.770298	-2.975100	2.866800	-8.527600	27.972834	-0.000138	20.833843
2682.769089	-3.032700	2.863800	-8.683800	28.008759	-0.000138	20.834916
2683.768829	-2.983600	2.863700	-8.543200	27.996784	-0.000139	20.832345
2684.771605	-3.019300	2.860100	-8.634400	28.024601	-0.000139	20.837586
2685.771481	-3.013600	2.858600	-8.614400	28.021725	-0.000139	20.830898
2686.784405	-2.988600	2.856200	-8.535200	28.022692	-0.000140	20.829501
2687.771485	-3.000500	2.855600	-8.567500	28.037146	-0.000138	20.831722
2688.773372	-3.012700	2.852200	-8.592000	28.056136	-0.000139	20.816699
2689.772017	-2.982800	2.852000	-8.505700	28.053880	-0.000139	20.835290
2690.772328	-3.007000	2.848800	-8.565300	28.065334	-0.000139	20.846345
2691.768006	-2.999100	2.845500	-8.533800	28.057053	-0.000139	20.830898
2692.776215	-3.007600	2.844400	-8.554300	28.068829	-0.000139	20.842752
2693.774579	-3.015600	2.841100	-8.566400	28.067193	-0.000140	20.811234
2694.771353	-3.014300	2.839000	-8.556800	28.079489	-0.000140	20.819818
2695.771949	-3.002500	2.838000	-8.520600	28.083530	-0.000138	20.846171
2696.775168	-3.011100	2.835200	-8.535900	28.092133	-0.000141	20.816899
2697.784020	-3.009000	2.833200	-8.523900	28.092455	-0.000140	20.824810
2698.783443	-2.984900	2.831200	-8.449900	28.100388	-0.000139	20.825209
2699.776381	-3.004500	2.828900	-8.498700	28.096917	-0.000137	20.823138
2700.774313	-3.017200	2.826200	-8.525700	28.091761	-0.000139	20.842602
2701.778220	-2.960300	2.825200	-8.362800	28.093025	-0.000139	20.828703
2702.781753	-2.998300	2.821700	-8.459700	28.121410	-0.000139	20.850638
2703.782659	-3.000200	2.818100	-8.454400	28.117344	-0.000139	20.824261
2704.774969	-3.027200	2.814500	-8.519000	28.116080	-0.000139	20.802125
2705.772873	-2.996100	2.814200	-8.431100	28.130508	-0.000139	20.830874
2706.784391	-2.998500	2.812700	-8.433000	28.135540	-0.000139	20.812707
2707.775146	-3.019300	2.808100	-8.477900	28.141911	-0.000138	20.831448
2708.787348	-2.963600	2.809100	-8.324000	28.133829	-0.000137	20.839907
2709.775493	-3.012300	2.805000	-8.448800	28.123219	-0.000137	20.822589
2710.778695	-2.996800	2.802600	-8.397900	28.164196	-0.000136	20.824011
2711.774861	-3.005000	2.799600	-8.412100	28.157404	-0.000139	20.831872
2712.788967	-3.030700	2.796900	-8.475600	28.136730	-0.000138	20.830500
2713.776221	-2.987100	2.795800	-8.350800	28.169154	-0.000139	20.826158
2714.779447	-2.987800	2.793500	-8.345900	28.148331	-0.000138	20.816101
2715.780712	-3.003300	2.789600	-8.377500	28.150760	-0.000139	20.810486
2716.779979	-3.019000	2.788200	-8.417500	28.165882	-0.000137	20.809113
2717.776886	-3.016300	2.783400	-8.394000	28.172823	-0.000138	20.829377
2718.779215	-3.002200	2.781400	-8.349900	28.180433	-0.000140	20.826607
2719.779676	-3.014000	2.778500	-8.373300	28.181895	-0.000140	20.820019
2720.788195	-2.968000	2.778000	-8.244300	28.180284	-0.000140	20.809388
2721.778701	-3.007800	2.772900	-8.338700	28.189902	-0.000139	20.820493
2722.778425	-2.990600	2.770700	-8.285200	28.192480	-0.000139	20.805545
2723.784669	-3.010200	2.766800	-8.327900	28.216003	-0.000140	20.828753
2724.789208	-2.996800	2.764400	-8.283800	28.243443	-0.000139	20.819869
2725.782934	-3.008300	2.761900	-8.307300	28.239774	-0.000137	20.814753
2726.784419	-2.968200	2.759400	-8.189600	28.239427	-0.000139	20.814878
2727.784988	-3.029700	2.755100	-8.346100	28.250829	-0.000138	20.828728
2728.783052	-2.997800	2.753500	-8.253900	28.248003	-0.000138	20.799805
2729.786606	-3.001900	2.749500	-8.252400	28.256109	-0.000138	20.814130
2730.787180	-2.998900	2.747100	-8.237500	28.273211	-0.000138	20.810486
2731.785933	-2.991500	2.743700	-8.207100	28.249590	-0.000139	20.804247
2732.791076	-2.980600	2.741300	-8.169100	28.259430	-0.000137	20.834069
2733.787629	-2.997900	2.737700	-8.206400	28.261239	-0.000137	20.821666
2734.787398	-2.970100	2.734400	-8.120600	28.275839	-0.000138	20.820244
2735.789942	-2.981800	2.731300	-8.143100	28.286100	-0.000139	20.799755
2736.787950	-3.005300	2.727100	-8.195000	28.291801	-0.000136	20.806918
2737.789854	-2.985700	2.724700	-8.134300	28.281911	-0.000140	20.817349
2738.791887	-2.962200	2.722400	-8.062800	28.288579	-0.000139	20.818846
2739.791303	-2.993100	2.718200	-8.134900	28.305606	-0.000136	20.827930
2740.796038	-2.987000	2.713700	-8.105100	28.296609	-0.000138	20.810811
2741.790523	-3.028900	2.709000	-8.203600	28.307564	-0.000138	20.808565
2742.794091	-3.000400	2.705900	-8.118700	28.329053	-0.000138	20.807916
2743.795409	-2.974900	2.702500	-8.039600	28.337306	-0.000139	20.808640
2744.790989	-2.985400	2.699300	-8.057400	28.339165	-0.000139	20.822365
2745.791677	-2.990900	2.693800	-8.056100	28.336340	-0.000139	20.808140
2746.803522	-2.999600	2.690600	-8.069800	28.346328	-0.000139	20.794964
2747.790714	-3.001800	2.686300	-8.063300	28.343676	-0.000138	20.798932
2748.792105	-3.006800	2.681600	-8.062100	28.369996	-0.000137	20.798408
2749.791830	-3.026100	2.677500	-8.101500	28.365684	-0.000136	20.809238
2750.793471	-2.987300	2.671700	-7.979700	28.365164	-0.000137	20.807292
2751.795126	-3.027100	2.667100	-8.072900	28.369972	-0.000139	20.796960
2752.795822	-2.992800	2.664900	-7.973900	28.385288	-0.000136	20.804322
2753.793774	-3.019500	2.659800	-8.029400	28.396663	-0.000137	20.814354
2754.797173	-3.008800	2.653900	-7.984400	28.417432	-0.000138	20.803025
2755.800589	-3.022300	2.649800	-8.007500	28.396837	-0.000140	20.796511
2756.794820	-2.986400	2.645400	-7.898600	28.427865	-0.000141	20.818746
2757.795203	-2.982700	2.640200	-7.874100	28.443751	-0.000141	20.782112
2758.795372	-2.986400	2.635600	-7.869500	28.429129	-0.000141	20.817648
2759.796794	-3.004400	2.630400	-7.901900	28.446625	-0.000138	20.786429
2760.794756	-2.996500	2.625600	-7.866800	28.452821	-0.000137	20.798832
2761.794477	-2.986700	2.621500	-7.828600	28.462981	-0.000140	20.800055
2762.795410	-2.979600	2.615500	-7.791800	28.474331	-0.000138	20.784458
2763.798374	-2.994500	2.609700	-7.813700	28.451928	-0.000140	20.797459
2764.795417	-2.996900	2.604300	-7.802400	28.471952	-0.000137	20.790597
2765.797148	-2.995800	2.598900	-7.785300	28.485161	-0.000141	20.801053
2766.796968	-2.991000	2.593800	-7.756600	28.474381	-0.000140	20.790197
2767.800133	-3.006900	2.587200	-7.778500	28.496882	-0.000140	20.783933
2768.800112	-3.036900	2.581000	-7.837100	28.510487	-0.000140	20.807591
2769.796886	-2.960900	2.578300	-7.632600	28.504068	-0.000141	20.794015
2770.802407	-3.000900	2.570700	-7.713100	28.533830	-0.000138	20.788425
2771.796415	-3.003100	2.563400	-7.697100	28.507463	-0.000139	20.791745
2772.798238	-2.972100	2.559300	-7.605900	28.511230	-0.000141	20.789848
2773.801192	-3.006100	2.552900	-7.673600	28.545129	-0.000139	20.752863
2774.799661	-3.006900	2.545900	-7.653800	28.523868	-0.000140	20.786454
2775.807583	-3.008800	2.540200	-7.642300	28.551151	-0.000140	20.785007
2776.798897	-2.995600	2.533300	-7.587400	28.564730	-0.000139	20.789199
2777.805783	-2.975500	2.528600	-7.522600	28.594836	-0.000139	20.801502
2778.800164	-3.005500	2.520100	-7.573600	28.591541	-0.000140	20.776372
2779.799858	-2.985400	2.514700	-7.506700	28.568670	-0.000137	20.779416
2780.802228	-3.033500	2.506400	-7.602300	28.598652	-0.000139	20.801552
2781.803094	-3.007400	2.501000	-7.520800	28.630814	-0.000137	20.788900
2782.801329	-3.023000	2.492000	-7.531900	28.623406	-0.000139	20.777171
