LabVIEW Measurement	
Writer_Version	2
Reader_Version	2
Separator	Tab
Decimal_Separator	.
Multi_Headings	No
X_Columns	One
Time_Pref	Absolute
Operator	admin
Description	Clolumns are: time, Current, Voltage, Power, Battery Temp, and Chamber Temp
Date	2024/08/16
Time	13:59:35.9411449432373046875
***End_of_Header***	
	
Channels	6						
Samples	1	1	1	1	1	1	
Date	2024/09/20	2024/09/20	2024/09/20	2024/09/20	2024/09/20	2024/09/20	
Time	04:18:04.0765671730041503906	04:18:04.0815639495849609375	04:18:04.0875744819641113281	04:18:04.0597782135009765625	04:18:04.0607786178588867188	04:18:04.0607786178588867188	
X_Dimension	Time	Time	Time	Time	Time	Time	
X0	0.0000000000000000E+0	0.0000000000000000E+0	0.0000000000000000E+0	0.0000000000000000E+0	0.0000000000000000E+0	0.0000000000000000E+0	
Delta_X	1.000000	1.000000	1.000000	1.000000	1.000000	1.000000	
***End_of_Header***							
X_Value	Untitled	Untitled 1	Untitled 2	Untitled 3	Untitled 4	Untitled 5	Comment
0.000000	0.074253	4.097000	0.308790	20.922060	0.000396	20.840512
1.003171	-3.014900	3.933000	-11.856000	20.915747	0.000399	20.860750
2.001702	-2.985800	3.927100	-11.724000	20.916172	0.000398	20.853588
3.002766	-2.984900	3.920700	-11.702000	20.921437	0.000394	20.844155
4.001341	-2.998700	3.916700	-11.744000	20.920588	0.000394	20.841410
5.002108	-2.996100	3.913600	-11.725000	20.923658	0.000395	20.836420
6.002050	-2.999100	3.910200	-11.726000	20.926926	0.000391	20.853913
7.002378	-3.019000	3.906700	-11.793000	20.916720	0.000394	20.844654
8.003276	-2.997700	3.905700	-11.707000	20.922759	0.000390	20.857805
9.002824	-2.964200	3.905300	-11.575000	20.915148	0.000390	20.846875
10.002777	-3.023600	3.900600	-11.793000	20.946015	0.000388	20.838391
11.002506	-3.027100	3.900300	-11.805000	20.932840	0.000389	20.847499
12.003188	-3.009300	3.898100	-11.729000	20.946513	0.000388	20.864492
13.004005	-2.981100	3.897700	-11.619000	20.977504	0.000389	20.849969
14.003724	-2.999400	3.895700	-11.684000	20.944618	0.000387	20.858329
15.004527	-2.991700	3.894700	-11.650000	20.964005	0.000386	20.846426
16.008097	-3.000900	3.893000	-11.681000	20.946863	0.000385	20.855360
17.004546	-2.996200	3.892100	-11.660000	20.958541	0.000385	20.858978
18.005653	-3.031400	3.891400	-11.795000	20.963331	0.000383	20.845752
19.004525	-3.011400	3.890200	-11.715000	20.975932	0.000383	20.829906
20.005435	-3.013700	3.889500	-11.721000	20.970293	0.000383	20.851292
21.005927	-3.002500	3.887300	-11.670000	21.007670	0.000383	20.851691
22.006191	-3.015700	3.887100	-11.721000	20.995693	0.000381	20.867686
23.005393	-3.008000	3.886300	-11.688000	21.000509	0.000381	20.871080
24.007036	-2.979300	3.886000	-11.576000	20.994296	0.000384	20.851117
25.007175	-2.992100	3.885400	-11.625000	21.013009	0.000379	20.861298
26.007300	-2.990400	3.885000	-11.617000	21.012161	0.000379	20.859976
27.010895	-3.007000	3.883600	-11.677000	21.020245	0.000378	20.867112
28.008665	-3.016900	3.882700	-11.713000	21.036513	0.000376	20.866314
29.007138	-2.993300	3.884700	-11.627000	21.032695	0.000378	20.884305
30.008657	-2.976200	3.884500	-11.559000	21.049861	0.000379	20.875397
31.008543	-3.004900	3.882300	-11.665000	21.061512	0.000377	20.856232
32.009018	-3.001700	3.882400	-11.653000	21.049362	0.000375	20.872054
33.010102	-3.006400	3.880600	-11.665000	21.041303	0.000375	20.849295
34.009343	-3.000200	3.881000	-11.644000	21.041927	0.000376	20.875522
35.009523	-3.006400	3.879400	-11.662000	21.084042	0.000376	20.873077
36.009986	-3.014800	3.878400	-11.691000	21.094321	0.000376	20.873875
37.010867	-3.005000	3.878800	-11.655000	21.100608	0.000376	20.892965
38.010514	-2.988600	3.878700	-11.591000	21.082096	0.000374	20.883931
39.013272	-2.983500	3.878000	-11.570000	21.101631	0.000372	20.881661
40.010506	-2.996400	3.876600	-11.615000	21.115927	0.000374	20.881262
41.010893	-3.000200	3.877000	-11.631000	21.129973	0.000373	20.871130
42.012090	-3.016900	3.876400	-11.693000	21.121664	0.000373	20.890319
43.012220	-3.007500	3.875500	-11.654000	21.129449	0.000374	20.884356
44.011499	-3.001100	3.876400	-11.632000	21.132467	0.000373	20.875048
45.013240	-3.012000	3.874600	-11.670000	21.146289	0.000370	20.893613
46.015385	-3.010000	3.875200	-11.664000	21.166871	0.000372	20.872952
47.012474	-3.014100	3.874300	-11.676000	21.155145	0.000371	20.890144
48.016173	-2.995500	3.875000	-11.607000	21.174853	0.000371	20.880463
49.014722	-3.002400	3.874900	-11.633000	21.185181	0.000372	20.887948
50.014122	-2.987400	3.875300	-11.576000	21.172833	0.000370	20.868485
51.019532	-2.993900	3.874100	-11.598000	21.209554	0.000372	20.887199
52.016549	-3.017900	3.872600	-11.686000	21.203991	0.000368	20.887798
53.018294	-3.015400	3.872800	-11.677000	21.196881	0.000371	20.890169
54.016732	-3.007100	3.873100	-11.647000	21.231706	0.000370	20.890867
55.017498	-3.006100	3.872000	-11.639000	21.212797	0.000368	20.886650
56.018947	-3.008200	3.872300	-11.647000	21.232879	0.000369	20.870705
57.017999	-2.989600	3.873300	-11.578000	21.237668	0.000370	20.899201
58.017747	-2.987900	3.872800	-11.569000	21.249242	0.000366	20.913150
59.019139	-3.009400	3.871700	-11.650000	21.246549	0.000370	20.898602
60.018035	-2.997500	3.870700	-11.601000	21.267003	0.000367	20.910529
61.020286	-3.007200	3.871900	-11.643000	21.272292	0.000368	20.878364
62.020584	-3.001800	3.871800	-11.621000	21.279426	0.000369	20.904466
63.020368	-2.999800	3.870300	-11.609000	21.288432	0.000368	20.906837
64.021647	-2.992100	3.870000	-11.579000	21.298085	0.000368	20.896107
65.020548	-3.006200	3.869000	-11.630000	21.287957	0.000366	20.894035
66.021233	-3.007400	3.870000	-11.637000	21.294443	0.000368	20.887248
67.022369	-2.974700	3.870100	-11.511000	21.298360	0.000367	20.918665
68.025730	-2.971200	3.870000	-11.498000	21.320859	0.000367	20.895658
69.021073	-3.000700	3.869400	-11.610000	21.319937	0.000364	20.900898
70.022359	-2.996000	3.869200	-11.591000	21.324053	0.000367	20.903593
71.023964	-2.992600	3.869100	-11.578000	21.350268	0.000366	20.897579
72.022535	-2.986300	3.868200	-11.551000	21.329640	0.000367	20.893063
73.022323	-2.979500	3.869200	-11.527000	21.331062	0.000367	20.895434
74.024562	-2.994900	3.868400	-11.585000	21.358774	0.000366	20.908459
75.023508	-3.000200	3.866200	-11.599000	21.373267	0.000368	20.920112
76.022567	-2.971500	3.867900	-11.493000	21.387708	0.000366	20.897105
77.025868	-2.999200	3.866400	-11.596000	21.387060	0.000368	20.926800
78.024737	-2.965700	3.866500	-11.466000	21.386461	0.000369	20.898229
79.025507	-2.996600	3.866700	-11.586000	21.390627	0.000366	20.902870
80.025547	-3.006700	3.865400	-11.620000	21.400579	0.000366	20.909033
81.030647	-3.007000	3.866400	-11.626000	21.405368	0.000366	20.871628
82.025090	-2.982200	3.867600	-11.533000	21.406041	0.000367	20.903119
83.028957	-3.017800	3.866100	-11.666000	21.397112	0.000364	20.879488
84.025895	-3.018400	3.865500	-11.667000	21.433852	0.000367	20.881635
85.026780	-3.007300	3.865700	-11.624000	21.446821	0.000367	20.886076
86.024961	-3.010800	3.865400	-11.637000	21.444127	0.000364	20.903294
87.026676	-3.010200	3.864500	-11.632000	21.431557	0.000365	20.878390
88.028763	-2.998100	3.864200	-11.585000	21.452258	0.000366	20.882507
89.030581	-2.994000	3.863800	-11.567000	21.455700	0.000367	20.875994
90.026868	-3.012200	3.862700	-11.634000	21.458444	0.000366	20.870680
91.030471	-3.043000	3.863200	-11.754000	21.490792	0.000365	20.887399
92.029045	-3.024400	3.863500	-11.684000	21.461910	0.000366	20.869881
93.027869	-2.991100	3.863700	-11.556000	21.488971	0.000367	20.869457
94.027144	-2.993400	3.864500	-11.567000	21.489694	0.000366	20.854060
95.032035	-3.004700	3.863500	-11.608000	21.493336	0.000367	20.872401
96.031185	-2.994200	3.863000	-11.566000	21.514335	0.000367	20.869706
97.031534	-2.995900	3.863000	-11.572000	21.516580	0.000366	20.869582
98.032484	-3.003200	3.862800	-11.599000	21.530970	0.000366	20.862644
99.029868	-2.987000	3.863300	-11.537000	21.532816	0.000366	20.864965
100.032490	-3.018400	3.862300	-11.657000	21.533963	0.000365	20.854260
101.034401	-3.002900	3.861500	-11.595000	21.531968	0.000367	20.867435
102.031121	-3.001900	3.862500	-11.593000	21.548628	0.000365	20.855657
103.033261	-3.004800	3.861600	-11.602000	21.549251	0.000368	20.862445
104.035601	-3.002200	3.860500	-11.589000	21.559177	0.000368	20.859575
105.032640	-3.020600	3.862600	-11.666000	21.549626	0.000365	20.859975
106.033493	-3.005900	3.861900	-11.607000	21.556408	0.000366	20.871503
107.035937	-2.985700	3.861600	-11.529000	21.580375	0.000367	20.867511
108.036069	-3.018000	3.860200	-11.650000	21.572170	0.000367	20.857879
109.033574	-3.012900	3.860000	-11.628000	21.593293	0.000367	20.840136
110.034542	-2.993800	3.861400	-11.560000	21.602371	0.000366	20.844478
111.033184	-2.991700	3.861400	-11.551000	21.586759	0.000366	20.854933
112.035171	-3.017200	3.860100	-11.645000	21.606709	0.000367	20.849768
113.035666	-2.998000	3.859200	-11.569000	21.611248	0.000368	20.846724
114.034649	-2.997800	3.860500	-11.572000	21.612695	0.000368	20.852438
115.033850	-2.994600	3.860400	-11.560000	21.627333	0.000366	20.852388
116.033838	-3.013200	3.859800	-11.629000	21.632145	0.000369	20.849618
117.036680	-3.013900	3.858500	-11.629000	21.666110	0.000370	20.862270
118.037251	-2.990500	3.859100	-11.539000	21.655786	0.000370	20.854309
119.034897	-2.993400	3.858300	-11.548000	21.652545	0.000367	20.842057
120.037247	-2.991900	3.859400	-11.546000	21.674713	0.000370	20.828681
121.036916	-3.002100	3.858400	-11.582000	21.675710	0.000369	20.856705
122.039562	-2.978900	3.860000	-11.497000	21.677180	0.000368	20.857228
123.039982	-2.998200	3.858300	-11.567000	21.688552	0.000369	20.840634
124.036582	-2.992800	3.857100	-11.542000	21.704087	0.000369	20.832947
125.039904	-3.010300	3.857900	-11.612000	21.682392	0.000370	20.829728
126.038380	-3.004500	3.856900	-11.587000	21.704985	0.000369	20.842381
127.038119	-3.006300	3.856300	-11.592000	21.695709	0.000371	20.844477
128.039625	-3.013600	3.855800	-11.618000	21.716580	0.000371	20.868208
129.040027	-2.994000	3.856700	-11.545000	21.724584	0.000370	20.854408
130.038857	-3.003000	3.856900	-11.581000	21.719647	0.000370	20.830028
131.040375	-3.022800	3.856900	-11.658000	21.744880	0.000370	20.822091
132.041493	-3.020000	3.856600	-11.646000	21.734882	0.000370	20.832947
133.040210	-2.989100	3.857200	-11.529000	21.727875	0.000372	20.857228
134.045670	-2.983400	3.856200	-11.504000	21.756900	0.000371	20.833172
135.042467	-3.023600	3.856500	-11.660000	21.755727	0.000371	20.824412
136.041337	-3.005300	3.856900	-11.590000	21.781360	0.000371	20.824937
137.043161	-3.007400	3.855800	-11.594000	21.768569	0.000370	20.853859
138.046084	-3.000300	3.855900	-11.568000	21.767896	0.000373	20.833272
139.043153	-2.998400	3.854900	-11.558000	21.753783	0.000371	20.840958
140.044919	-2.998600	3.855400	-11.560000	21.778991	0.000372	20.850066
141.041698	-3.018500	3.854100	-11.633000	21.784328	0.000371	20.828855
142.044959	-2.978900	3.855600	-11.485000	21.791484	0.000372	20.841232
143.047101	-2.978600	3.854400	-11.480000	21.809635	0.000373	20.845175
144.044446	-2.981700	3.855500	-11.495000	21.820257	0.000372	20.835892
145.045704	-2.984500	3.855300	-11.505000	21.824246	0.000373	20.818074
146.047333	-2.995600	3.854800	-11.547000	21.818661	0.000373	20.838562
147.045529	-2.993800	3.855200	-11.541000	21.822950	0.000373	20.829105
148.046933	-3.000900	3.854000	-11.565000	21.828660	0.000376	20.846199
149.046163	-2.998400	3.853000	-11.552000	21.845540	0.000376	20.839386
150.045335	-2.985500	3.854400	-11.507000	21.852496	0.000375	20.827383
151.047040	-2.987400	3.853900	-11.512000	21.858006	0.000375	20.819148
152.048491	-2.983200	3.852600	-11.493000	21.873339	0.000376	20.836865
153.050281	-2.974000	3.853800	-11.461000	21.858829	0.000375	20.839885
154.048561	-2.996600	3.853700	-11.547000	21.855762	0.000375	20.828282
155.052202	-3.009900	3.852600	-11.595000	21.868852	0.000377	20.829529
156.049505	-3.015400	3.851900	-11.613000	21.871769	0.000376	20.825811
157.050707	-3.007000	3.852200	-11.582000	21.893235	0.000374	20.814107
158.052839	-3.000200	3.852400	-11.558000	21.899892	0.000378	20.811761
159.048258	-2.986300	3.852500	-11.504000	21.910338	0.000375	20.814157
160.048985	-2.988200	3.853000	-11.512000	21.884310	0.000378	20.809441
161.049652	-3.001200	3.851600	-11.559000	21.927565	0.000374	20.821918
162.049556	-3.001600	3.851800	-11.560000	21.934795	0.000377	20.834844
163.050946	-3.002700	3.851800	-11.564000	21.935842	0.000378	20.838263
164.052166	-2.966200	3.852900	-11.427000	21.935070	0.000378	20.824214
165.050120	-3.004600	3.851300	-11.570000	21.934122	0.000376	20.784385
166.054276	-2.985500	3.852000	-11.499000	21.945242	0.000376	20.805947
167.052938	-2.991300	3.851000	-11.519000	21.955413	0.000378	20.819447
168.053648	-2.996800	3.850900	-11.540000	21.947460	0.000379	20.833771
169.051472	-3.004300	3.850400	-11.567000	21.966756	0.000378	20.836966
170.054619	-3.003100	3.851100	-11.565000	21.954615	0.000379	20.817700
171.051893	-3.006300	3.849700	-11.573000	21.986027	0.000379	20.821169
172.052555	-3.004200	3.850500	-11.566000	21.988570	0.000380	20.811861
173.052892	-3.008000	3.849400	-11.579000	21.968253	0.000379	20.814756
174.052556	-2.996600	3.850000	-11.536000	22.012752	0.000379	20.819472
175.052046	-2.989000	3.849100	-11.505000	21.993157	0.000381	20.804599
176.052596	-3.002800	3.848400	-11.555000	22.010084	0.000379	20.821070
177.053300	-3.012800	3.848400	-11.593000	21.994055	0.000381	20.820196
178.053353	-2.995600	3.848900	-11.528000	22.017264	0.000380	20.808817
179.055280	-3.028500	3.847400	-11.651000	22.006196	0.000382	20.811961
180.052700	-2.999600	3.848300	-11.542000	22.016940	0.000381	20.805174
181.054505	-2.996600	3.848900	-11.532000	22.022325	0.000384	20.819573
182.054938	-2.991600	3.848900	-11.512000	22.049148	0.000384	20.799010
183.053631	-3.003500	3.848300	-11.558000	22.043888	0.000382	20.804650
184.054564	-2.995500	3.848900	-11.529000	22.047105	0.000382	20.813085
185.053716	-3.004100	3.847800	-11.558000	22.053711	0.000383	20.805474
186.054729	-3.001400	3.848100	-11.548000	22.061463	0.000384	20.815606
187.056048	-2.998200	3.848500	-11.538000	22.067646	0.000383	20.799984
188.059812	-2.994900	3.847800	-11.523000	22.066125	0.000385	20.814583
189.055695	-3.008400	3.847300	-11.573000	22.062436	0.000385	20.804251
190.064947	-3.020300	3.847300	-11.619000	22.067920	0.000385	20.814957
191.055807	-2.982900	3.848000	-11.477000	22.098955	0.000385	20.817104
192.055898	-3.026000	3.846900	-11.640000	22.074527	0.000385	20.816830
193.054351	-3.008500	3.846100	-11.570000	22.098108	0.000387	20.804402
194.058490	-3.016400	3.845600	-11.599000	22.124256	0.000385	20.806873
195.055963	-3.003100	3.847000	-11.552000	22.115856	0.000386	20.812213
196.054484	-3.017100	3.846000	-11.603000	22.101523	0.000386	20.803079
197.056186	-3.007100	3.846100	-11.565000	22.129292	0.000387	20.814759
198.054311	-3.010400	3.846500	-11.577000	22.124182	0.000388	20.789729
199.055785	-3.031200	3.845000	-11.654000	22.141083	0.000387	20.784364
200.057711	-3.014000	3.844300	-11.586000	22.145345	0.000387	20.806175
201.055161	-3.001400	3.844500	-11.538000	22.157558	0.000388	20.793746
202.053536	-2.990700	3.844100	-11.496000	22.143375	0.000388	20.808944
203.056142	-3.019600	3.843900	-11.606000	22.162743	0.000390	20.823593
204.056988	-3.004700	3.844300	-11.550000	22.159453	0.000388	20.789479
205.056659	-2.999300	3.844200	-11.528000	22.160524	0.000390	20.800035
206.056472	-2.997200	3.843700	-11.519000	22.162344	0.000389	20.808495
207.057259	-3.007000	3.843500	-11.557000	22.176053	0.000392	20.823169
208.057202	-2.998400	3.843700	-11.524000	22.209528	0.000393	20.807846
209.058224	-3.012700	3.842900	-11.576000	22.206836	0.000391	20.799461
210.058484	-2.972500	3.843900	-11.424000	22.185524	0.000391	20.785236
211.058559	-2.998600	3.842400	-11.521000	22.202748	0.000392	20.787308
212.060971	-3.001100	3.843800	-11.534000	22.193451	0.000393	20.803129
213.059238	-2.998400	3.842200	-11.520000	22.217977	0.000393	20.798762
214.059393	-2.994400	3.843500	-11.508000	22.213391	0.000392	20.797489
215.059105	-2.985100	3.841900	-11.467000	22.227124	0.000393	20.797963
216.061080	-3.005800	3.841600	-11.546000	22.224258	0.000394	20.801258
217.059982	-2.985600	3.842800	-11.473000	22.239836	0.000395	20.805950
218.062498	-3.000200	3.841000	-11.523000	22.218225	0.000395	20.799010
219.059107	-2.987800	3.842000	-11.477000	22.249206	0.000393	20.802530
220.059935	-2.996700	3.840400	-11.507000	22.238115	0.000396	20.789054
221.060542	-3.008700	3.841000	-11.555000	22.256334	0.000394	20.795916
222.059699	-3.024900	3.839900	-11.614000	22.278566	0.000395	20.790201
223.060622	-3.023900	3.839900	-11.611000	22.276422	0.000396	20.784736
224.062258	-3.008500	3.841700	-11.557000	22.284547	0.000396	20.773431
225.060103	-2.997400	3.841600	-11.514000	22.295114	0.000397	20.806297
226.060257	-3.041600	3.839700	-11.677000	22.277394	0.000396	20.804675
227.062929	-3.008400	3.839400	-11.550000	22.274279	0.000395	20.794443
228.060959	-3.007200	3.839000	-11.543000	22.279886	0.000398	20.790101
229.060027	-3.025300	3.838400	-11.611000	22.289482	0.000398	20.776950
230.064143	-2.998700	3.838900	-11.510000	22.306803	0.000399	20.790975
231.059720	-3.003600	3.839000	-11.531000	22.321009	0.000397	20.778172
232.063581	-3.010500	3.837700	-11.552000	22.308373	0.000398	20.781167
233.062483	-3.019400	3.837100	-11.585000	22.301046	0.000398	20.786632
234.063537	-2.996200	3.839300	-11.502000	22.328386	0.000399	20.789352
235.059821	-2.989700	3.838300	-11.474000	22.312785	0.000400	20.762825
236.064155	-2.997400	3.838400	-11.504000	22.320860	0.000400	20.785609
237.064970	-3.008500	3.838200	-11.546000	22.334517	0.000401	20.799759
238.063055	-3.035700	3.836200	-11.645000	22.351140	0.000401	20.794593
239.065081	-2.973100	3.838100	-11.410000	22.357544	0.000403	20.791049
240.062609	-3.013000	3.837800	-11.563000	22.354703	0.000402	20.803377
241.064341	-2.992600	3.837500	-11.483000	22.368809	0.000402	20.786682
242.071574	-2.989100	3.838700	-11.473000	22.367886	0.000402	20.801880
243.065575	-3.009300	3.837400	-11.547000	22.370927	0.000401	20.770785
244.067304	-3.001200	3.836800	-11.515000	22.382167	0.000402	20.789153
245.064922	-3.008800	3.836300	-11.542000	22.392808	0.000402	20.770885
246.064986	-3.015300	3.836400	-11.567000	22.390640	0.000401	20.796215
247.066935	-2.989500	3.835900	-11.466000	22.399138	0.000403	20.762999
248.066797	-3.009400	3.836500	-11.545000	22.392783	0.000401	20.776076
249.064703	-2.993800	3.836500	-11.485000	22.411348	0.000404	20.788504
250.071040	-3.004000	3.835700	-11.522000	22.419522	0.000405	20.785309
251.064803	-2.984900	3.836900	-11.452000	22.411946	0.000404	20.780093
252.066222	-2.995800	3.835600	-11.490000	22.391985	0.000404	20.789976
253.070580	-3.012200	3.835100	-11.551000	22.442622	0.000404	20.779519
254.066490	-2.986200	3.836100	-11.455000	22.443495	0.000404	20.767590
255.068109	-2.998000	3.834600	-11.495000	22.398289	0.000403	20.765943
256.071684	-2.994900	3.834000	-11.481000	22.449127	0.000406	20.777023
257.066932	-3.000100	3.833900	-11.502000	22.440828	0.000407	20.789575
258.066612	-2.996800	3.835200	-11.493000	22.478779	0.000406	20.780167
259.071567	-2.994800	3.834600	-11.483000	22.437912	0.000408	20.787130
260.067700	-2.989900	3.833300	-11.459000	22.463455	0.000407	20.777148
261.071150	-3.014800	3.834000	-11.558000	22.461485	0.000408	20.763322
262.071866	-3.015400	3.833400	-11.559000	22.481869	0.000408	20.753863
263.067966	-3.005800	3.832300	-11.519000	22.490092	0.000406	20.767788
264.070511	-3.000200	3.833400	-11.500000	22.474344	0.000408	20.773354
265.074458	-2.985000	3.833600	-11.442000	22.504520	0.000408	20.774177
266.072521	-2.994700	3.833000	-11.478000	22.485432	0.000409	20.758854
267.071425	-2.994500	3.833700	-11.478000	22.497692	0.000408	20.770184
268.072347	-2.992100	3.832500	-11.467000	22.517203	0.000410	20.771232
269.072274	-2.989300	3.833000	-11.457000	22.507883	0.000409	20.778968
270.073225	-3.009600	3.832700	-11.534000	22.509054	0.000411	20.772554
271.074272	-2.997000	3.830600	-11.479000	22.511695	0.000411	20.766190
272.072707	-3.016000	3.831700	-11.556000	22.513838	0.000413	20.767862
273.075089	-3.023700	3.831900	-11.586000	22.533074	0.000411	20.768161
274.076447	-3.011600	3.829600	-11.532000	22.541945	0.000411	20.744328
275.073431	-3.006400	3.830400	-11.514000	22.534769	0.000414	20.770806
276.073879	-3.007500	3.831400	-11.523000	22.541497	0.000413	20.759527
277.075469	-3.013800	3.829300	-11.539000	22.557518	0.000415	20.766564
278.075618	-2.996700	3.830000	-11.476000	22.547203	0.000413	20.762871
279.074677	-3.001300	3.830800	-11.496000	22.558042	0.000416	20.784158
280.075072	-2.985200	3.831100	-11.436000	22.557269	0.000414	20.764892
281.074651	-3.020400	3.828800	-11.564000	22.584852	0.000415	20.757904
282.074677	-3.002900	3.828400	-11.495000	22.557667	0.000415	20.772878
283.081445	-3.019300	3.829200	-11.560000	22.571073	0.000415	20.746474
284.075180	-2.995700	3.830200	-11.472000	22.587992	0.000416	20.774800
285.076554	-2.983000	3.829700	-11.423000	22.591854	0.000416	20.774400
286.078704	-3.002200	3.829300	-11.496000	22.585300	0.000416	20.787277
287.075690	-2.996000	3.828400	-11.470000	22.589162	0.000418	20.753212
288.076228	-2.986700	3.828800	-11.436000	22.622724	0.000418	20.746524
289.079857	-3.005800	3.828300	-11.507000	22.609046	0.000417	20.755110
290.078413	-2.983000	3.829000	-11.421000	22.599602	0.000419	20.745176
291.075360	-3.007900	3.828200	-11.515000	22.626512	0.000417	20.746050
292.080750	-3.023500	3.826600	-11.569000	22.626412	0.000419	20.765391
293.080498	-3.021700	3.826600	-11.562000	22.628555	0.000417	20.766116
294.083101	-2.982500	3.828200	-11.417000	22.633513	0.000418	20.757331
295.078063	-2.993900	3.826800	-11.457000	22.629876	0.000419	20.744204
296.077920	-2.993400	3.827500	-11.456000	22.635656	0.000421	20.770383
297.079823	-2.977700	3.827700	-11.396000	22.643331	0.000420	20.758155
298.077707	-2.980400	3.828300	-11.409000	22.641412	0.000421	20.732525
299.081048	-2.996800	3.826500	-11.466000	22.646570	0.000424	20.740062
300.081208	-2.995400	3.827900	-11.465000	22.669466	0.000421	20.762048
301.078892	-2.996600	3.826100	-11.464000	22.652126	0.000422	20.756059
302.083701	-3.012400	3.827300	-11.528000	22.667549	0.000421	20.762498
303.082231	-2.984000	3.826300	-11.416000	22.660398	0.000423	20.743482
304.081322	-2.983900	3.825500	-11.414000	22.667724	0.000423	20.748448
305.079901	-3.006000	3.825800	-11.500000	22.689299	0.000422	20.751568
306.082685	-2.994900	3.824300	-11.453000	22.686161	0.000423	20.754588
307.082579	-2.962500	3.826900	-11.336000	22.685139	0.000424	20.756409
308.085062	-2.999300	3.825200	-11.472000	22.676320	0.000423	20.750894
309.081933	-2.996800	3.824400	-11.460000	22.698195	0.000423	20.740563
310.083441	-2.972900	3.825700	-11.372000	22.707562	0.000426	20.766543
311.086269	-3.019800	3.824700	-11.549000	22.729163	0.000425	20.748350
312.086262	-2.999800	3.823500	-11.468000	22.708958	0.000425	20.767467
313.084225	-3.014100	3.823200	-11.523000	22.715810	0.000426	20.762950
314.084971	-2.992900	3.824500	-11.446000	22.733448	0.000426	20.747901
315.083436	-3.019400	3.822100	-11.540000	22.726747	0.000427	20.755887
316.085758	-2.998800	3.823200	-11.464000	22.725078	0.000426	20.748051
317.086022	-3.009500	3.822600	-11.503000	22.729512	0.000425	20.760554
318.089127	-2.995400	3.822000	-11.448000	22.741445	0.000428	20.760654
319.086165	-3.023900	3.822000	-11.556000	22.730733	0.000426	20.752768
320.088964	-2.985300	3.823700	-11.414000	22.742542	0.000428	20.761752
321.090802	-3.004800	3.821900	-11.483000	22.737286	0.000428	20.741788
322.087431	-3.018000	3.821500	-11.532000	22.765188	0.000429	20.746978
323.091897	-3.002300	3.820800	-11.470000	22.759383	0.000428	20.744008
324.093383	-2.995200	3.821600	-11.446000	22.776323	0.000429	20.737270
325.089116	-3.000100	3.821300	-11.463000	22.749243	0.000431	20.747127
326.088173	-2.997500	3.821600	-11.455000	22.801683	0.000430	20.745131
327.091475	-3.005800	3.822100	-11.488000	22.787035	0.000431	20.755113
328.089725	-3.004300	3.819700	-11.474000	22.799890	0.000432	20.758982
329.094646	-3.005700	3.820300	-11.481000	22.789327	0.000433	20.737494
330.090921	-2.998200	3.820800	-11.455000	22.801858	0.000432	20.736771
331.089815	-3.002700	3.820400	-11.470000	22.827267	0.000432	20.748949
332.093892	-2.989100	3.819500	-11.416000	22.810801	0.000431	20.747626
333.090234	-2.989400	3.820200	-11.419000	22.809655	0.000432	20.752643
334.090488	-2.999900	3.819900	-11.458000	22.806317	0.000434	20.756411
335.095805	-2.990700	3.820000	-11.423000	22.827641	0.000433	20.744108
336.090698	-2.981000	3.819400	-11.384000	22.810253	0.000433	20.766045
337.090787	-3.003200	3.819400	-11.470000	22.832649	0.000435	20.756237
338.095288	-2.998700	3.818900	-11.451000	22.834641	0.000434	20.769139
339.092222	-3.006100	3.818200	-11.477000	22.826222	0.000433	20.768291
340.092831	-3.013100	3.817600	-11.502000	22.855442	0.000435	20.762001
341.094965	-2.997400	3.817800	-11.442000	22.852328	0.000435	20.735647
342.091589	-2.982700	3.816700	-11.383000	22.852004	0.000436	20.758558
343.092925	-2.999600	3.816900	-11.448000	22.858107	0.000437	20.757559
344.097348	-3.000300	3.816800	-11.450000	22.874050	0.000436	20.749823
345.093114	-3.011000	3.817500	-11.494000	22.857360	0.000437	20.757759
346.093774	-3.009400	3.816900	-11.485000	22.852702	0.000436	20.759257
347.097657	-3.001000	3.816000	-11.451000	22.871733	0.000436	20.747028
348.092580	-3.001300	3.816800	-11.454000	22.872755	0.000437	20.756586
349.093204	-3.014100	3.815200	-11.498000	22.885533	0.000437	20.758957
350.099195	-2.987400	3.815900	-11.398000	22.898686	0.000439	20.765970
351.094969	-2.975300	3.817000	-11.355000	22.907628	0.000439	20.764023
352.095726	-2.983700	3.815800	-11.384000	22.907130	0.000437	20.770636
353.099391	-2.997000	3.815100	-11.433000	22.913133	0.000441	20.753417
354.097178	-3.004900	3.815200	-11.463000	22.891263	0.000439	20.758533
355.096239	-3.018300	3.813800	-11.511000	22.922100	0.000440	20.756710
356.097254	-3.001000	3.814000	-11.445000	22.916471	0.000441	20.754390
357.094926	-2.984200	3.815700	-11.386000	22.919783	0.000439	20.753441
358.098203	-3.015700	3.813100	-11.498000	22.946684	0.000439	20.762375
359.098102	-2.996500	3.815900	-11.432000	22.924167	0.000439	20.754988
360.095583	-3.007300	3.813800	-11.469000	22.940407	0.000440	20.753241
361.097582	-2.984900	3.814400	-11.385000	22.936945	0.000442	20.770161
362.101506	-2.992900	3.814700	-11.416000	22.951218	0.000442	20.761701
363.097870	-2.989700	3.813800	-11.401000	22.963971	0.000443	20.783962
364.099610	-3.007400	3.812100	-11.464000	22.950196	0.000442	20.752142
365.101897	-2.990900	3.813300	-11.405000	22.962028	0.000442	20.764471
366.099651	-3.000000	3.813800	-11.440000	22.989401	0.000442	20.759180
367.100111	-3.025100	3.813400	-11.535000	22.980135	0.000443	20.762699
368.099977	-3.006600	3.811900	-11.461000	22.992440	0.000442	20.765070
369.100070	-2.984400	3.811800	-11.375000	22.963970	0.000444	20.743657
370.100341	-3.001100	3.812200	-11.440000	22.987757	0.000444	20.790724
371.101903	-3.031300	3.811200	-11.551000	22.993087	0.000444	20.762399
372.101603	-2.981900	3.811800	-11.366000	22.986487	0.000445	20.763847
373.100559	-2.972500	3.812100	-11.331000	22.997172	0.000444	20.753215
374.100589	-3.003800	3.810200	-11.444000	23.006038	0.000444	20.776798
375.103774	-3.011400	3.810100	-11.473000	23.001306	0.000446	20.762573
376.103615	-3.008300	3.809800	-11.460000	23.017944	0.000446	20.763596
377.101125	-3.020400	3.809400	-11.505000	23.040359	0.000445	20.770409
378.101494	-3.003900	3.809700	-11.443000	23.045017	0.000446	20.787404
379.102351	-2.988100	3.810800	-11.386000	23.026686	0.000446	20.769985
380.105505	-2.986800	3.811000	-11.381000	23.046486	0.000445	20.773229
381.102526	-3.010300	3.808800	-11.464000	23.040534	0.000446	20.769635
382.105796	-3.004500	3.809700	-11.445000	23.065315	0.000446	20.773129
383.102967	-2.997600	3.808900	-11.417000	23.039986	0.000447	20.790898
384.101998	-3.017900	3.808300	-11.492000	23.070322	0.000447	20.780517
385.101629	-3.034400	3.808100	-11.555000	23.053385	0.000448	20.791521
386.102870	-2.987100	3.808100	-11.374000	23.061530	0.000448	20.783561
387.101690	-2.988300	3.808800	-11.382000	23.080607	0.000447	20.793194
388.102070	-2.996300	3.808100	-11.409000	23.073634	0.000447	20.768188
389.105171	-2.996000	3.808100	-11.408000	23.073435	0.000448	20.799283
390.101383	-2.978600	3.807700	-11.341000	23.096099	0.000448	20.782163
391.104818	-2.987200	3.807500	-11.372000	23.100781	0.000449	20.781640
392.104362	-2.995800	3.808600	-11.409000	23.114056	0.000450	20.775501
393.103774	-2.991100	3.807100	-11.387000	23.100308	0.000450	20.787330
394.105516	-2.989500	3.807200	-11.381000	23.115449	0.000449	20.803924
395.105261	-2.999700	3.806800	-11.419000	23.114329	0.000450	20.774827
396.103944	-3.005200	3.805800	-11.436000	23.100557	0.000450	20.805597
397.105926	-2.994000	3.806700	-11.396000	23.135100	0.000452	20.791847
398.105197	-2.987400	3.806200	-11.370000	23.115475	0.000451	20.785458
399.105197	-3.000600	3.806100	-11.419000	23.126384	0.000451	20.780742
400.106241	-2.987500	3.805000	-11.366000	23.123993	0.000453	20.779295
401.106307	-2.973700	3.805600	-11.315000	23.121477	0.000452	20.774403
402.107316	-2.991600	3.805600	-11.384000	23.130095	0.000453	20.782090
403.105827	-2.992100	3.804500	-11.382000	23.136072	0.000453	20.800407
404.107911	-3.000100	3.804900	-11.414000	23.149595	0.000454	20.782190
405.106117	-3.017100	3.804900	-11.479000	23.151363	0.000453	20.776849
406.108260	-2.991700	3.803000	-11.376000	23.176591	0.000453	20.785060
407.106401	-2.989100	3.803400	-11.367000	23.160802	0.000453	20.776825
408.106418	-2.995900	3.803400	-11.393000	23.175769	0.000454	20.782340
409.106081	-3.005000	3.802900	-11.427000	23.188769	0.000452	20.788729
410.112392	-2.990100	3.802300	-11.368000	23.172956	0.000454	20.778098
411.109322	-3.008000	3.802300	-11.436000	23.178708	0.000457	20.789553
412.109306	-3.018500	3.801800	-11.475000	23.177762	0.000455	20.799985
413.109720	-3.023000	3.801300	-11.490000	23.181473	0.000454	20.798487
414.111082	-3.021600	3.800200	-11.481000	23.198382	0.000455	20.778922
415.111955	-2.982500	3.801300	-11.336000	23.212727	0.000456	20.798513
416.112041	-2.988800	3.800600	-11.358000	23.219724	0.000456	20.811689
417.111731	-2.976700	3.800500	-11.312000	23.205455	0.000455	20.797864
418.110214	-3.009000	3.800400	-11.435000	23.187674	0.000457	20.803279
419.116836	-2.985000	3.800500	-11.343000	23.238749	0.000456	20.800409
420.111993	-3.010800	3.800100	-11.440000	23.219500	0.000457	20.820000
421.112443	-2.988500	3.800500	-11.357000	23.239671	0.000455	20.804178
422.117045	-3.001700	3.799800	-11.405000	23.233595	0.000458	20.821797
423.111883	-2.976600	3.799400	-11.309000	23.245499	0.000456	20.781095
424.114802	-2.992900	3.799500	-11.371000	23.237181	0.000458	20.798838
425.115611	-2.998000	3.798300	-11.386000	23.229089	0.000459	20.803530
426.116423	-2.988400	3.799700	-11.354000	23.251699	0.000457	20.821922
427.113860	-3.016300	3.798200	-11.455000	23.257277	0.000459	20.796692
428.118714	-3.019100	3.797000	-11.463000	23.263329	0.000459	20.796118
429.114381	-3.009300	3.797500	-11.426000	23.246745	0.000459	20.802732
430.115689	-3.010200	3.796700	-11.427000	23.266118	0.000461	20.813613
431.120658	-2.979000	3.797700	-11.312000	23.261561	0.000460	20.802407
432.117881	-2.994200	3.796600	-11.367000	23.273489	0.000462	20.817206
433.118798	-3.001200	3.796700	-11.394000	23.288554	0.000459	20.832778
434.121405	-3.012400	3.795600	-11.431000	23.284371	0.000462	20.819577
435.121539	-2.985700	3.797400	-11.337000	23.282728	0.000460	20.821249
436.120137	-3.009900	3.796100	-11.425000	23.298166	0.000463	20.816333
437.122620	-3.002300	3.797200	-11.399000	23.280661	0.000462	20.815385
438.119759	-2.980300	3.797200	-11.315000	23.292539	0.000462	20.806900
439.123977	-2.986800	3.795500	-11.335000	23.284222	0.000462	20.824644
440.120702	-2.985500	3.795900	-11.333000	23.309571	0.000462	20.783667
441.123750	-3.004800	3.795400	-11.403000	23.319556	0.000463	20.824494
442.125067	-2.995000	3.795100	-11.366000	23.325457	0.000462	20.802908
443.120544	-3.003000	3.794700	-11.395000	23.332952	0.000463	20.823695
444.126666	-2.973700	3.794100	-11.281000	23.330786	0.000462	20.824369
445.120749	-3.020200	3.793400	-11.456000	23.324312	0.000463	20.820726
446.123298	-3.032000	3.792500	-11.496000	23.327250	0.000463	20.829834
447.126857	-3.006100	3.793100	-11.401000	23.343834	0.000463	20.833653
448.125665	-2.993800	3.795000	-11.360000	23.358848	0.000465	20.822148
449.124109	-2.982700	3.793300	-11.313000	23.359670	0.000465	20.813489
450.127445	-2.995200	3.793000	-11.360000	23.360217	0.000463	20.803607
451.125735	-3.003300	3.791600	-11.385000	23.351727	0.000466	20.827339
452.123851	-3.002200	3.792100	-11.384000	23.364675	0.000465	20.820876
453.127298	-2.982500	3.794000	-11.314000	23.373663	0.000464	20.822773
454.124665	-2.999100	3.791400	-11.370000	23.364575	0.000466	20.832155
455.128416	-3.002000	3.792800	-11.385000	23.373514	0.000465	20.840640
456.127348	-3.003700	3.790300	-11.384000	23.379141	0.000465	20.839642
457.124893	-3.018500	3.789200	-11.436000	23.399259	0.000466	20.826616
458.124967	-3.012200	3.791100	-11.419000	23.391640	0.000466	20.819928
459.127599	-2.993000	3.789400	-11.341000	23.396570	0.000466	20.830558
460.130408	-3.009200	3.791000	-11.407000	23.415866	0.000466	20.824295
461.126390	-2.996100	3.789900	-11.354000	23.408994	0.000466	20.835424
462.129824	-3.016200	3.788300	-11.424000	23.407325	0.000466	20.838493
463.128478	-3.012600	3.790300	-11.418000	23.421617	0.000467	20.820576
464.127667	-3.005800	3.788400	-11.386000	23.415765	0.000466	20.831306
465.128132	-2.985500	3.788800	-11.311000	23.414993	0.000467	20.828636
466.128799	-2.999400	3.787900	-11.360000	23.428637	0.000467	20.855587
467.127306	-2.998700	3.788500	-11.359000	23.420198	0.000467	20.847602
468.127964	-2.990300	3.788500	-11.328000	23.444796	0.000469	20.830058
469.130723	-3.005900	3.787500	-11.383000	23.428537	0.000469	20.829409
470.128705	-2.991800	3.787500	-11.331000	23.444173	0.000467	20.858357
471.132071	-3.041400	3.786400	-11.515000	23.449003	0.000467	20.835697
472.131937	-3.003600	3.786900	-11.373000	23.469269	0.000467	20.830881
473.128963	-3.028400	3.786000	-11.464000	23.464464	0.000467	20.864943
474.129760	-3.002300	3.787400	-11.371000	23.466953	0.000468	20.854637
475.131286	-3.010100	3.786000	-11.395000	23.484729	0.000467	20.831679
476.128333	-2.998000	3.786100	-11.350000	23.462746	0.000469	20.850420
477.129688	-2.961900	3.787200	-11.217000	23.475343	0.000469	20.844556
478.134441	-2.996700	3.784400	-11.339000	23.502580	0.000468	20.843882
479.130313	-3.002500	3.785000	-11.363000	23.491676	0.000469	20.841961
480.131897	-2.983500	3.784500	-11.290000	23.484680	0.000470	20.860077
481.134626	-2.966500	3.786400	-11.231000	23.491875	0.000470	20.840264
482.133475	-2.997000	3.785200	-11.343000	23.499991	0.000468	20.840813
483.132406	-2.976600	3.786700	-11.271000	23.504995	0.000470	20.835871
484.134852	-3.000300	3.783700	-11.351000	23.513285	0.000470	20.876422
485.130468	-3.007100	3.784100	-11.378000	23.494190	0.000470	20.867239
486.133648	-3.028500	3.783100	-11.456000	23.524463	0.000471	20.862024
487.137822	-2.998300	3.783400	-11.342000	23.520853	0.000470	20.879267
488.133622	-3.003700	3.783600	-11.363000	23.524836	0.000471	20.835846
489.133911	-2.996100	3.783200	-11.333000	23.512240	0.000472	20.868736
490.136866	-2.998200	3.783800	-11.344000	23.533948	0.000472	20.854462
491.134025	-2.988400	3.782900	-11.303000	23.529841	0.000472	20.852716
492.133946	-2.991100	3.781800	-11.311000	23.529990	0.000470	20.858555
493.136815	-3.017800	3.781000	-11.408000	23.550529	0.000468	20.878668
494.135124	-3.011900	3.780800	-11.386000	23.539998	0.000471	20.876172
495.136353	-3.014000	3.781100	-11.395000	23.543085	0.000472	20.856509
496.139036	-2.995500	3.780600	-11.324000	23.571540	0.000471	20.880764
497.140829	-3.004600	3.780700	-11.357000	23.554886	0.000472	20.874975
498.136613	-2.993100	3.779300	-11.311000	23.555111	0.000471	20.852443
499.138897	-2.987800	3.780800	-11.295000	23.571690	0.000469	20.851045
500.138108	-2.984200	3.779600	-11.278000	23.559068	0.000472	20.868737
501.153467	-2.987400	3.779300	-11.290000	23.575823	0.000472	20.886479
502.139090	-3.011600	3.778200	-11.378000	23.580726	0.000473	20.879542
503.137596	-3.006300	3.778500	-11.358000	23.590684	0.000472	20.877670
504.137563	-2.986100	3.779200	-11.284000	23.590137	0.000474	20.877596
505.141567	-3.008400	3.778800	-11.367000	23.587548	0.000471	20.872156
506.138125	-3.000900	3.777700	-11.336000	23.582793	0.000472	20.874028
507.145052	-2.981500	3.778300	-11.265000	23.584287	0.000472	20.879318
508.140775	-3.024600	3.776500	-11.422000	23.592925	0.000474	20.863323
509.141875	-2.992900	3.778300	-11.307000	23.610352	0.000473	20.879843
510.142807	-2.980200	3.778000	-11.259000	23.616525	0.000473	20.863748
511.147897	-2.996700	3.776800	-11.317000	23.585109	0.000472	20.872082
512.144851	-2.983900	3.777000	-11.268000	23.627977	0.000474	20.874279
513.145508	-3.012500	3.775800	-11.373000	23.612344	0.000473	20.876150
514.144978	-3.013200	3.776000	-11.377000	23.619314	0.000472	20.885034
515.143089	-2.999800	3.776200	-11.327000	23.635246	0.000474	20.877298
516.143392	-3.013400	3.776000	-11.378000	23.664495	0.000473	20.880068
517.144569	-3.030200	3.775800	-11.439000	23.645826	0.000472	20.886008
518.142880	-3.017600	3.775600	-11.392000	23.634276	0.000473	20.875378
519.143312	-3.005200	3.774800	-11.343000	23.632160	0.000474	20.884636
520.145989	-3.002400	3.774000	-11.330000	23.659119	0.000476	20.875154
521.145001	-2.988400	3.775400	-11.280000	23.653394	0.000474	20.880793
522.147179	-2.991000	3.774300	-11.289000	23.651079	0.000473	20.865671
523.146606	-2.999800	3.773400	-11.318000	23.691952	0.000475	20.900482
524.144793	-3.007500	3.773400	-11.348000	23.684012	0.000476	20.896315
525.147196	-3.010100	3.772100	-11.354000	23.685705	0.000473	20.898486
526.147630	-3.001100	3.771900	-11.319000	23.675972	0.000476	20.893471
527.144436	-2.991200	3.773100	-11.285000	23.679059	0.000475	20.888979
528.146172	-3.002500	3.772900	-11.328000	23.683789	0.000475	20.900358
529.148962	-2.990300	3.772300	-11.280000	23.692874	0.000474	20.894768
530.146841	-2.992700	3.772200	-11.287000	23.697430	0.000475	20.895069
531.147501	-2.977500	3.772000	-11.230000	23.702657	0.000474	20.892723
532.151064	-3.007000	3.770200	-11.336000	23.690336	0.000478	20.898862
533.147754	-3.038600	3.768500	-11.449000	23.717841	0.000476	20.902255
534.150671	-3.015000	3.770200	-11.366000	23.715476	0.000475	20.914108
535.152410	-3.022000	3.770400	-11.392000	23.722197	0.000476	20.893347
536.146356	-2.996500	3.769900	-11.296000	23.718165	0.000475	20.880297
537.149788	-3.008100	3.770600	-11.341000	23.717244	0.000475	20.880795
538.149816	-2.992900	3.769800	-11.281000	23.722994	0.000475	20.907421
539.147783	-2.990100	3.768700	-11.268000	23.733971	0.000476	20.902780
540.152649	-2.982900	3.770700	-11.247000	23.743205	0.000475	20.901607
541.149745	-2.987000	3.769700	-11.259000	23.736361	0.000477	20.898538
542.148836	-2.996600	3.767600	-11.289000	23.746914	0.000477	20.879249
543.151662	-2.982600	3.768000	-11.238000	23.741463	0.000477	20.894171
544.150412	-2.980700	3.767900	-11.230000	23.745594	0.000476	20.890727
545.150671	-2.999000	3.768300	-11.300000	23.770635	0.000476	20.888332
546.154993	-3.006100	3.767800	-11.325000	23.747860	0.000476	20.886360
547.151936	-2.984000	3.767200	-11.240000	23.773247	0.000476	20.887158
548.152893	-3.035000	3.766500	-11.430000	23.780714	0.000476	20.880421
549.155676	-3.021200	3.767700	-11.382000	23.796569	0.000476	20.886834
550.152468	-2.989900	3.767600	-11.264000	23.798585	0.000477	20.873683
551.151954	-3.004800	3.766000	-11.314000	23.788356	0.000478	20.873384
552.156806	-2.998800	3.766500	-11.294000	23.806575	0.000476	20.891176
553.153408	-2.979800	3.766800	-11.223000	23.796344	0.000475	20.871911
554.151882	-3.005000	3.765200	-11.313000	23.784572	0.000477	20.889030
555.157699	-2.988700	3.765300	-11.253000	23.817725	0.000478	20.877227
556.166093	-2.994900	3.766000	-11.278000	23.780290	0.000477	20.849178
557.153148	-2.996900	3.765200	-11.283000	23.799207	0.000476	20.854394
558.158518	-3.021400	3.763700	-11.371000	23.828003	0.000477	20.874731
559.153153	-3.000900	3.763900	-11.294000	23.806325	0.000478	20.871013
560.153841	-2.999600	3.764000	-11.290000	23.794552	0.000477	20.853994
561.158067	-2.985300	3.763100	-11.233000	23.809684	0.000479	20.867269
562.153556	-2.995200	3.763100	-11.270000	23.817948	0.000478	20.864175
563.154109	-3.019700	3.762200	-11.359000	23.810629	0.000477	20.859208
564.157120	-2.996400	3.762000	-11.271000	23.820934	0.000480	20.872385
565.155329	-3.005900	3.762300	-11.308000	23.825862	0.000478	20.849826
566.154646	-2.979500	3.763500	-11.211000	23.819092	0.000477	20.851573
567.155249	-3.010900	3.761100	-11.323000	23.826285	0.000477	20.865422
568.156653	-3.002500	3.762800	-11.297000	23.827754	0.000479	20.857412
569.155852	-3.003300	3.760300	-11.293000	23.809809	0.000477	20.862179
570.158006	-3.018100	3.760600	-11.348000	23.845026	0.000478	20.857662
571.156092	-3.013700	3.760700	-11.333000	23.852841	0.000479	20.857437
572.156435	-3.008300	3.760600	-11.312000	23.833031	0.000477	20.857014
573.157171	-3.007600	3.760500	-11.309000	23.833677	0.000477	20.849127
574.156068	-3.027000	3.758600	-11.375000	23.827207	0.000478	20.846907
575.155962	-2.990400	3.760600	-11.245000	23.855753	0.000478	20.838073
576.159954	-3.007200	3.758600	-11.303000	23.871706	0.000477	20.853594
577.154403	-3.002000	3.757800	-11.280000	23.856127	0.000476	20.864524
578.156634	-3.008900	3.758700	-11.309000	23.842090	0.000479	20.847606
579.160572	-2.986700	3.759200	-11.227000	23.854260	0.000480	20.844636
580.158121	-3.000600	3.758100	-11.276000	23.858218	0.000478	20.860457
581.159426	-2.979800	3.758400	-11.198000	23.861677	0.000478	20.846857
582.156365	-3.008000	3.757500	-11.301000	23.883703	0.000477	20.859933
583.157418	-3.019100	3.757000	-11.342000	23.872155	0.000479	20.831759
584.158581	-3.013900	3.757100	-11.323000	23.884872	0.000477	20.836925
585.157310	-3.003700	3.756800	-11.283000	23.868621	0.000480	20.845759
586.158905	-3.014500	3.756200	-11.322000	23.895276	0.000478	20.837874
587.159970	-2.996200	3.756200	-11.253000	23.906947	0.000478	20.838671
588.158123	-3.006900	3.755600	-11.291000	23.904932	0.000476	20.852772
589.159233	-3.029000	3.754900	-11.372000	23.902593	0.000477	20.848530
590.164479	-3.001000	3.755900	-11.271000	23.902717	0.000478	20.826370
591.157234	-2.993700	3.754800	-11.239000	23.907645	0.000478	20.844587
592.160251	-3.006100	3.755400	-11.288000	23.916306	0.000478	20.842367
593.158070	-3.002500	3.754600	-11.271000	23.915211	0.000477	20.829889
594.160017	-3.008900	3.753800	-11.294000	23.905829	0.000477	20.830913
595.158860	-3.006900	3.753600	-11.286000	23.923747	0.000477	20.848880
596.158667	-3.009700	3.754900	-11.300000	23.920936	0.000479	20.821880
597.158764	-3.023700	3.752900	-11.346000	23.922702	0.000476	20.838349
598.158453	-2.988200	3.753500	-11.216000	23.932283	0.000478	20.822353
599.163008	-2.997300	3.753400	-11.250000	23.926087	0.000478	20.849803
600.159423	-2.978200	3.752300	-11.174000	23.935245	0.000478	20.840496
601.160523	-2.989300	3.752500	-11.216000	23.930467	0.000477	20.824325
602.160226	-3.013400	3.750700	-11.301000	23.922653	0.000477	20.833559
603.160971	-3.005600	3.751400	-11.274000	23.942438	0.000477	20.821156
604.161490	-3.003200	3.751300	-11.264000	23.942412	0.000477	20.821131
605.162298	-2.987900	3.751400	-11.208000	23.957096	0.000476	20.810726
606.161770	-2.990600	3.751400	-11.218000	23.957942	0.000478	20.809677
607.162382	-2.995300	3.751400	-11.236000	23.959485	0.000477	20.814544
608.162197	-2.985900	3.751100	-11.199000	23.956002	0.000477	20.825749
609.163168	-2.991100	3.749800	-11.215000	23.961725	0.000476	20.821531
610.161383	-2.983200	3.750500	-11.188000	23.947888	0.000476	20.828044
611.162993	-2.993500	3.749000	-11.222000	23.968867	0.000476	20.843866
612.163721	-3.001100	3.749700	-11.252000	23.953215	0.000478	20.839549
613.162031	-2.987400	3.748500	-11.197000	23.955130	0.000479	20.822979
614.163367	-3.000300	3.748800	-11.247000	23.962970	0.000479	20.826098
615.162548	-2.999700	3.748900	-11.245000	23.960706	0.000479	20.825725
616.164006	-3.016200	3.748400	-11.306000	23.975513	0.000477	20.811650
617.162907	-3.008900	3.747600	-11.275000	23.982555	0.000477	20.798798
618.165589	-2.997700	3.748200	-11.235000	23.971034	0.000479	20.811900
619.164407	-3.000500	3.747300	-11.243000	23.983701	0.000478	20.825077
620.164844	-3.001500	3.748000	-11.249000	24.015703	0.000477	20.809280
621.163787	-3.003000	3.746600	-11.250000	23.987284	0.000476	20.834360
622.164173	-3.005300	3.745900	-11.257000	24.000722	0.000477	20.790464
623.163686	-3.011200	3.746200	-11.281000	24.012468	0.000480	20.829743
624.166568	-2.969700	3.747500	-11.128000	23.993630	0.000478	20.817965
625.164113	-2.988200	3.746400	-11.194000	24.021228	0.000477	20.816718
626.164467	-2.985700	3.745900	-11.183000	24.010552	0.000476	20.799374
627.167240	-2.970700	3.746500	-11.128000	24.004829	0.000477	20.816867
628.165386	-2.978000	3.745100	-11.152000	24.015355	0.000477	20.814147
629.168455	-2.993500	3.744700	-11.209000	24.014783	0.000477	20.815945
630.166391	-2.983800	3.745000	-11.174000	24.023691	0.000477	20.812550
631.167287	-3.004800	3.745300	-11.253000	24.020033	0.000478	20.801769
632.167935	-2.997400	3.744800	-11.224000	24.020407	0.000477	20.814472
633.167372	-3.010900	3.743300	-11.270000	24.017122	0.000476	20.823979
634.166205	-3.009900	3.743700	-11.267000	24.023766	0.000478	20.814048
635.165402	-3.007500	3.742500	-11.255000	24.030012	0.000476	20.832639
636.167528	-2.991500	3.744100	-11.200000	24.044495	0.000475	20.809706
637.169473	-3.017800	3.743000	-11.294000	24.050492	0.000476	20.801970
638.167658	-2.987900	3.741500	-11.178000	24.067263	0.000476	20.819264
639.168775	-2.983600	3.741400	-11.162000	24.041957	0.000477	20.819489
640.169710	-2.989200	3.743200	-11.187000	24.044844	0.000478	20.800572
641.171200	-3.007900	3.740000	-11.248000	24.052110	0.000475	20.805963
642.169631	-2.990300	3.741800	-11.189000	24.048776	0.000476	20.807835
643.172650	-2.995800	3.740400	-11.205000	24.056464	0.000476	20.798477
644.169063	-3.010000	3.740100	-11.256000	24.056266	0.000477	20.807760
645.168595	-2.998400	3.740100	-11.212000	24.075078	0.000474	20.797229
646.171921	-2.994000	3.740300	-11.196000	24.080353	0.000474	20.798726
647.171870	-2.989300	3.740300	-11.179000	24.057935	0.000475	20.798528
648.173643	-2.998300	3.738200	-11.207000	24.063756	0.000474	20.818117
649.177917	-3.024200	3.739400	-11.308000	24.068708	0.000474	20.815972
650.174167	-3.001500	3.738900	-11.220000	24.092795	0.000476	20.807886
651.174625	-3.000300	3.739800	-11.220000	24.058233	0.000476	20.810207
652.178168	-2.991400	3.738400	-11.182000	24.070525	0.000475	20.793612
653.177004	-2.989900	3.738400	-11.177000	24.089586	0.000476	20.806564
654.176882	-2.996400	3.737300	-11.197000	24.086924	0.000476	20.793463
655.178242	-2.997900	3.738100	-11.205000	24.096604	0.000475	20.809809
656.174456	-3.003100	3.736600	-11.221000	24.097698	0.000475	20.795734
657.174625	-3.001500	3.736900	-11.215000	24.109244	0.000476	20.795934
658.179051	-3.006100	3.737400	-11.234000	24.104466	0.000475	20.802522
659.176971	-2.990700	3.737000	-11.176000	24.087248	0.000475	20.797107
660.181046	-3.015400	3.736000	-11.265000	24.093594	0.000474	20.789247
661.180095	-3.017300	3.735000	-11.269000	24.092797	0.000475	20.799828
662.176784	-3.004700	3.735000	-11.221000	24.111086	0.000478	20.788773
663.178182	-3.021800	3.735600	-11.287000	24.107653	0.000475	20.791967
664.181454	-2.995700	3.734600	-11.186000	24.134550	0.000474	20.811357
665.178262	-3.007500	3.735100	-11.233000	24.119572	0.000474	20.802499
666.178072	-2.998000	3.734900	-11.196000	24.096281	0.000475	20.810908
667.183102	-2.991800	3.734300	-11.170000	24.107505	0.000472	20.787077
668.178230	-2.996500	3.734400	-11.189000	24.128007	0.000475	20.793416
669.179235	-2.996900	3.733400	-11.188000	24.119846	0.000473	20.791395
670.182840	-3.004300	3.734000	-11.217000	24.116064	0.000473	20.799455
671.179946	-3.014900	3.732400	-11.252000	24.133059	0.000474	20.800853
672.180362	-2.994600	3.733100	-11.178000	24.133855	0.000474	20.787427
673.183921	-2.986200	3.733000	-11.146000	24.141246	0.000473	20.786305
674.179533	-2.997700	3.732200	-11.187000	24.138161	0.000474	20.785107
675.179415	-3.003800	3.731400	-11.208000	24.125446	0.000475	20.784683
676.187716	-3.002000	3.732600	-11.204000	24.128034	0.000474	20.790598
677.179533	-3.018600	3.730500	-11.259000	24.142739	0.000473	20.786380
678.179905	-3.016800	3.730300	-11.252000	24.141272	0.000473	20.769261
679.183684	-2.984600	3.731600	-11.135000	24.161301	0.000472	20.768488
680.179371	-3.007000	3.731400	-11.219000	24.149309	0.000475	20.788228
681.179353	-2.998800	3.729800	-11.184000	24.151374	0.000473	20.782712
682.183527	-2.997100	3.731300	-11.182000	24.153638	0.000473	20.790673
683.179584	-2.992500	3.730900	-11.164000	24.149085	0.000471	20.783261
684.180738	-2.984800	3.729400	-11.131000	24.162422	0.000471	20.786207
685.183657	-3.009400	3.728400	-11.219000	24.145129	0.000473	20.780242
686.181509	-3.004200	3.729700	-11.203000	24.168991	0.000472	20.769562
687.181159	-2.983700	3.728700	-11.124000	24.169016	0.000470	20.791872
688.184443	-2.986300	3.728200	-11.132000	24.168070	0.000471	20.773854
689.180274	-3.019800	3.726500	-11.252000	24.170533	0.000472	20.784860
690.182223	-3.012400	3.728400	-11.230000	24.173669	0.000472	20.783737
691.186558	-3.004200	3.727300	-11.197000	24.168145	0.000471	20.772032
692.182221	-3.003400	3.727300	-11.194000	24.174738	0.000471	20.790026
693.184098	-2.985400	3.728900	-11.131000	24.170857	0.000472	20.779020
694.187152	-3.008500	3.727600	-11.214000	24.179391	0.000471	20.775726
695.184600	-3.010400	3.726400	-11.217000	24.176705	0.000472	20.765919
696.184860	-2.991600	3.727100	-11.149000	24.171255	0.000472	20.764721
697.188652	-3.009800	3.726400	-11.215000	24.191036	0.000469	20.774603
698.186146	-3.018300	3.726500	-11.247000	24.200714	0.000470	20.762025
699.187018	-3.030600	3.725000	-11.288000	24.189369	0.000467	20.779096
700.196601	-3.028600	3.725500	-11.282000	24.203924	0.000469	20.773780
701.189574	-3.017300	3.725300	-11.238000	24.191185	0.000468	20.757209
702.186448	-2.994900	3.725100	-11.155000	24.192902	0.000469	20.762725
703.189882	-3.000000	3.725700	-11.177000	24.199073	0.000470	20.764647
704.187406	-2.996300	3.724900	-11.160000	24.186210	0.000469	20.775453
705.188325	-3.003200	3.724400	-11.184000	24.204148	0.000469	20.768315
706.190534	-3.016300	3.723000	-11.229000	24.200466	0.000471	20.767941
707.188116	-3.001100	3.723000	-11.172000	24.211886	0.000471	20.769438
708.187354	-2.998400	3.723400	-11.163000	24.213404	0.000469	20.769538
709.192186	-2.997000	3.723600	-11.158000	24.203551	0.000469	20.757759
710.187468	-2.968500	3.723300	-11.052000	24.209598	0.000469	20.769988
711.190095	-3.003200	3.722400	-11.178000	24.214498	0.000469	20.763997
712.196187	-2.988000	3.722900	-11.123000	24.213877	0.000468	20.770013
713.188419	-2.981100	3.722600	-11.097000	24.205716	0.000468	20.749024
714.189552	-2.971500	3.722300	-11.060000	24.217285	0.000468	20.748301
715.192367	-2.996900	3.722700	-11.156000	24.233259	0.000469	20.742986
716.189622	-2.973600	3.721000	-11.064000	24.225571	0.000466	20.733852
717.189590	-2.988700	3.721000	-11.119000	24.214798	0.000468	20.753867
718.194588	-2.996200	3.720300	-11.146000	24.232438	0.000468	20.762077
719.189364	-3.014200	3.719900	-11.212000	24.225720	0.000467	20.761029
720.190198	-3.043000	3.719400	-11.317000	24.242365	0.000466	20.763025
721.193703	-3.025600	3.719500	-11.253000	24.257094	0.000466	20.748402
722.191195	-2.987800	3.719700	-11.113000	24.225148	0.000467	20.765671
723.192128	-3.005500	3.718400	-11.174000	24.242739	0.000465	20.752021
724.194767	-3.000700	3.718700	-11.157000	24.242191	0.000466	20.766645
725.193476	-2.992600	3.719600	-11.131000	24.266225	0.000465	20.793123
726.194233	-3.031000	3.717700	-11.267000	24.277669	0.000465	20.765423
727.194569	-3.007700	3.718200	-11.182000	24.267071	0.000465	20.747030
728.192731	-3.013100	3.717200	-11.200000	24.245899	0.000466	20.767993
729.193292	-2.995700	3.719000	-11.140000	24.259980	0.000464	20.749875
730.196214	-2.987800	3.717900	-11.107000	24.263986	0.000463	20.746306
731.193394	-3.010000	3.718500	-11.192000	24.251273	0.000465	20.741140
732.192819	-2.993500	3.718500	-11.130000	24.264012	0.000464	20.746332
733.195777	-2.995200	3.716500	-11.131000	24.265231	0.000463	20.737598
734.193851	-3.017600	3.715500	-11.210000	24.271451	0.000466	20.753320
735.195188	-2.993400	3.716400	-11.124000	24.279337	0.000464	20.756963
736.194953	-2.994300	3.717000	-11.129000	24.284985	0.000463	20.763103
737.192375	-3.001000	3.716400	-11.151000	24.282696	0.000461	20.753695
738.192999	-3.007400	3.716000	-11.175000	24.296205	0.000463	20.744960
739.195358	-2.993200	3.716000	-11.122000	24.264213	0.000462	20.748430
740.193249	-2.973400	3.715500	-11.046000	24.285956	0.000463	20.757439
741.193963	-2.992800	3.716200	-11.121000	24.284861	0.000463	20.734055
742.198981	-3.026400	3.714500	-11.240000	24.275856	0.000462	20.731660
743.194770	-2.984800	3.715400	-11.088000	24.290708	0.000463	20.738972
744.194730	-2.993000	3.713900	-11.115000	24.300535	0.000462	20.765900
745.197529	-3.017300	3.712500	-11.202000	24.295511	0.000460	20.743316
746.194391	-3.014900	3.713400	-11.195000	24.292476	0.000460	20.729364
747.195137	-3.002100	3.713600	-11.148000	24.299194	0.000459	20.754123
748.196216	-3.000500	3.712900	-11.139000	24.283695	0.000460	20.747584
749.195033	-3.005600	3.712400	-11.157000	24.293895	0.000461	20.743591
750.194219	-2.975700	3.713700	-11.050000	24.296358	0.000461	20.742268
751.196177	-3.002600	3.711900	-11.144000	24.311882	0.000458	20.727968
752.196360	-2.987100	3.712600	-11.088000	24.303076	0.000459	20.740472
753.197791	-3.029200	3.712000	-11.244000	24.307181	0.000460	20.727994
754.198988	-2.989800	3.712100	-11.098000	24.317779	0.000459	20.734359
755.197125	-2.985100	3.711600	-11.078000	24.316535	0.000460	20.725524
756.196714	-2.984500	3.712100	-11.077000	24.295837	0.000461	20.736530
757.197526	-2.984100	3.711000	-11.073000	24.315515	0.000459	20.728768
758.198163	-2.997800	3.710500	-11.122000	24.315639	0.000459	20.722254
759.196688	-3.003800	3.710000	-11.142000	24.289344	0.000458	20.752302
760.200490	-2.988800	3.709800	-11.087000	24.312057	0.000457	20.708703
761.198473	-2.993100	3.709200	-11.101000	24.328029	0.000457	20.731364
762.200365	-3.007800	3.709100	-11.154000	24.338304	0.000459	20.711324
763.200850	-2.986700	3.709900	-11.079000	24.305913	0.000458	20.721507
764.201631	-2.996300	3.709900	-11.115000	24.339896	0.000456	20.725724
765.200109	-2.997300	3.708300	-11.113000	24.334697	0.000458	20.742321
766.203289	-3.008700	3.707100	-11.152000	24.347906	0.000458	20.721432
767.202108	-3.000700	3.708500	-11.126000	24.320143	0.000457	20.732937
768.199297	-2.985400	3.708300	-11.070000	24.335717	0.000456	20.726748
769.206097	-3.012900	3.706800	-11.166000	24.343876	0.000457	20.717388
770.201657	-3.002500	3.707000	-11.128000	24.338180	0.000457	20.743918
771.202332	-3.015900	3.706300	-11.176000	24.356240	0.000456	20.726948
772.208211	-3.011500	3.705700	-11.158000	24.355071	0.000454	20.747112
773.204278	-2.986700	3.707000	-11.071000	24.341738	0.000455	20.737056
774.207410	-3.018400	3.706400	-11.187000	24.338404	0.000455	20.743669
775.208230	-3.000900	3.706000	-11.120000	24.332533	0.000456	20.706483
776.209671	-2.991600	3.705900	-11.086000	24.362186	0.000457	20.714894
777.206996	-2.990700	3.706900	-11.085000	24.350345	0.000456	20.722456
778.211507	-2.999500	3.703700	-11.109000	24.357360	0.000456	20.721907
779.206963	-3.000700	3.705700	-11.119000	24.350694	0.000455	20.722805
780.207859	-3.013100	3.705000	-11.163000	24.354947	0.000453	20.723753
781.210214	-3.011300	3.704000	-11.153000	24.376017	0.000454	20.713596
782.213108	-3.031700	3.702300	-11.223000	24.355071	0.000455	20.693529
783.208244	-2.992700	3.704300	-11.085000	24.374723	0.000452	20.697597
784.213756	-3.002800	3.703300	-11.118000	24.358230	0.000457	20.732737
785.208687	-3.004300	3.703300	-11.124000	24.376166	0.000453	20.722280
786.209498	-3.000700	3.702800	-11.110000	24.376464	0.000454	20.738702
787.212455	-2.987400	3.702900	-11.060000	24.372858	0.000453	20.734609
788.208896	-2.997200	3.702300	-11.096000	24.368031	0.000453	20.722654
789.207701	-3.002000	3.703200	-11.116000	24.379872	0.000452	20.698496
790.211545	-2.993200	3.702100	-11.080000	24.372981	0.000454	20.707705
791.209510	-2.992800	3.703100	-11.082000	24.371240	0.000452	20.710225
792.210922	-3.014500	3.701100	-11.156000	24.374747	0.000454	20.709476
793.212675	-2.984900	3.701500	-11.048000	24.375044	0.000452	20.731587
794.211505	-2.977900	3.701000	-11.021000	24.399199	0.000454	20.713618
795.214256	-3.011300	3.700500	-11.143000	24.379248	0.000452	20.737227
796.216191	-2.997800	3.700400	-11.092000	24.377632	0.000452	20.746511
797.212897	-2.991300	3.700500	-11.068000	24.368651	0.000451	20.704308
798.213900	-3.015800	3.698800	-11.153000	24.399397	0.000450	20.719980
799.218611	-3.018400	3.698400	-11.163000	24.399546	0.000451	20.712543
800.214306	-3.014600	3.698400	-11.148000	24.376212	0.000452	20.726594
801.215739	-3.006600	3.698700	-11.119000	24.403276	0.000451	20.728140
802.219015	-2.995800	3.699300	-11.081000	24.378475	0.000452	20.742615
803.217362	-2.999600	3.699200	-11.094000	24.401858	0.000451	20.716760
804.214919	-2.993200	3.697800	-11.068000	24.393475	0.000451	20.727791
805.219273	-2.999300	3.699700	-11.095000	24.374619	0.000450	20.715986
806.220951	-3.003300	3.698800	-11.108000	24.385340	0.000450	20.711094
807.217425	-3.012900	3.696900	-11.138000	24.412256	0.000448	20.695421
808.220601	-2.999500	3.698900	-11.094000	24.386733	0.000450	20.704905
809.218516	-3.025000	3.697600	-11.183000	24.406310	0.000450	20.725020
810.217066	-2.999700	3.697000	-11.089000	24.385489	0.000451	20.704605
811.221253	-3.014500	3.696200	-11.141000	24.420737	0.000449	20.721950
812.218991	-3.006400	3.695300	-11.108000	24.400066	0.000448	20.727291
813.218678	-2.996400	3.697000	-11.077000	24.403573	0.000449	20.729861
814.222455	-3.014100	3.695300	-11.137000	24.398922	0.000447	20.741790
815.219670	-3.016400	3.696000	-11.147000	24.418026	0.000449	20.747680
816.221147	-2.994900	3.696300	-11.069000	24.406086	0.000448	20.723846
817.226035	-3.018200	3.694000	-11.148000	24.393971	0.000447	20.747730
818.221736	-2.997100	3.695300	-11.073000	24.416782	0.000447	20.742638
819.221483	-3.028500	3.693300	-11.184000	24.416408	0.000448	20.719029
820.225923	-3.005700	3.694400	-11.104000	24.425264	0.000446	20.731233
821.223640	-2.982300	3.694700	-11.018000	24.431209	0.000449	20.713488
822.223033	-2.999900	3.693400	-11.078000	24.442005	0.000446	20.748029
823.228517	-2.982800	3.694600	-11.019000	24.433970	0.000446	20.740442
824.223502	-3.011800	3.692900	-11.121000	24.442527	0.000446	20.738595
825.225562	-3.023200	3.693400	-11.165000	24.438944	0.000445	20.723146
826.227337	-2.975200	3.693900	-10.989000	24.451506	0.000446	20.712514
827.224006	-3.022400	3.692000	-11.157000	24.459813	0.000446	20.720375
828.223284	-2.997200	3.692900	-11.068000	24.457451	0.000444	20.709943
829.227634	-3.013700	3.692600	-11.127000	24.468071	0.000443	20.718229
830.226508	-2.999600	3.692300	-11.074000	24.437476	0.000445	20.723569
831.225161	-2.997500	3.692700	-11.067000	24.452176	0.000446	20.737370
832.229158	-2.986300	3.692400	-11.026000	24.432700	0.000443	20.720200
833.223951	-3.010400	3.691200	-11.110000	24.466952	0.000445	20.716632
834.229178	-3.006800	3.691700	-11.100000	24.439690	0.000441	20.731007
835.230053	-2.979700	3.691300	-10.998000	24.459117	0.000442	20.715408
836.225939	-3.018000	3.691900	-11.141000	24.446953	0.000441	20.725017
837.227019	-2.994000	3.690700	-11.049000	24.441978	0.000443	20.746579
838.231519	-2.945700	3.692400	-10.876000	24.454117	0.000443	20.723195
839.228120	-2.996300	3.689500	-11.053000	24.464812	0.000442	20.724442
840.227083	-3.011400	3.689200	-11.109000	24.455485	0.000443	20.727413
841.231748	-2.985800	3.690700	-11.019000	24.449217	0.000441	20.729659
842.228991	-2.989000	3.689400	-11.026000	24.465136	0.000442	20.730932
843.229374	-3.020700	3.687500	-11.138000	24.439242	0.000440	20.755215
844.229936	-3.016700	3.688500	-11.126000	24.468369	0.000440	20.751246
845.229258	-2.998000	3.689100	-11.058000	24.477722	0.000440	20.752095
846.228444	-3.018800	3.686800	-11.129000	24.460460	0.000441	20.739517
847.233992	-2.998400	3.687200	-11.054000	24.453445	0.000440	20.735798
848.227604	-3.023800	3.686800	-11.147000	24.493542	0.000439	20.732878
849.229956	-3.006000	3.687200	-11.082000	24.479613	0.000439	20.730283
850.234323	-3.005200	3.686900	-11.079000	24.486801	0.000440	20.745556
851.231181	-3.012300	3.687300	-11.106000	24.491105	0.000439	20.729959
852.233125	-2.998600	3.686300	-11.053000	24.481304	0.000438	20.727712
853.238287	-3.018300	3.686000	-11.124000	24.476057	0.000439	20.736198
854.233789	-2.992800	3.685500	-11.029000	24.493593	0.000440	20.762328
855.233712	-2.985900	3.687400	-11.009000	24.500235	0.000438	20.750499
856.236823	-2.997100	3.685700	-11.045000	24.495110	0.000439	20.746306
857.233502	-3.011300	3.686700	-11.100000	24.513690	0.000437	20.744084
858.235210	-3.003600	3.685600	-11.069000	24.504910	0.000438	20.755665
859.239458	-3.034300	3.684200	-11.179000	24.490633	0.000438	20.739917
860.239315	-2.998500	3.684900	-11.049000	24.483917	0.000437	20.739343
861.234095	-3.024600	3.683600	-11.140000	24.495508	0.000438	20.745757
862.238741	-3.003800	3.684100	-11.066000	24.504090	0.000438	20.749626
863.240512	-3.011900	3.684000	-11.094000	24.526077	0.000437	20.745607
864.235801	-3.004900	3.683400	-11.067000	24.507324	0.000436	20.739593
865.238034	-3.001600	3.683200	-11.055000	24.504413	0.000437	20.754691
866.237179	-2.990600	3.684300	-11.018000	24.505905	0.000437	20.737696
867.238925	-3.014900	3.682300	-11.101000	24.515258	0.000436	20.749925
868.238851	-2.994800	3.683300	-11.030000	24.513765	0.000435	20.750324
869.237254	-2.984200	3.682500	-10.988000	24.530131	0.000436	20.749201
870.237341	-2.999700	3.683400	-11.048000	24.512298	0.000436	20.762603
871.240300	-3.017600	3.680800	-11.106000	24.508442	0.000435	20.765846
872.236612	-2.979600	3.682200	-10.971000	24.531127	0.000435	20.750199
873.239439	-3.009000	3.681400	-11.076000	24.521203	0.000434	20.755890
874.241214	-3.008800	3.681000	-11.074000	24.507846	0.000434	20.766671
875.239135	-3.015100	3.680400	-11.096000	24.530356	0.000434	20.741839
876.241105	-2.994000	3.681400	-11.021000	24.527321	0.000435	20.742588
877.241814	-3.014600	3.681800	-11.098000	24.529460	0.000434	20.762752
878.242142	-3.015300	3.679800	-11.095000	24.529361	0.000433	20.766446
879.240105	-2.992400	3.680000	-11.011000	24.517621	0.000433	20.755615
880.243927	-3.016900	3.680000	-11.101000	24.553935	0.000432	20.742737
881.241699	-3.002800	3.679200	-11.047000	24.548488	0.000431	20.764300
882.243311	-2.991200	3.679100	-11.003000	24.531599	0.000433	20.737871
883.242120	-2.991100	3.678600	-11.002000	24.557516	0.000432	20.755814
884.242780	-3.006300	3.678200	-11.057000	24.544756	0.000431	20.765297
885.243014	-3.009800	3.679200	-11.072000	24.546348	0.000432	20.770688
886.244809	-2.983900	3.678400	-10.975000	24.530803	0.000431	20.750349
887.244328	-2.981500	3.679100	-10.968000	24.555004	0.000432	20.769890
888.242929	-2.998500	3.677900	-11.027000	24.529659	0.000432	20.745881
889.255998	-3.000700	3.677100	-11.033000	24.560351	0.000429	20.772410
890.243832	-2.987400	3.677400	-10.984000	24.565501	0.000430	20.751497
891.244337	-3.024800	3.676300	-11.119000	24.564704	0.000430	20.769665
892.248045	-3.001300	3.676800	-11.035000	24.562813	0.000428	20.770613
893.246457	-2.999200	3.676900	-11.025000	24.553114	0.000430	20.751871
894.245563	-3.023800	3.675800	-11.114000	24.566717	0.000430	20.754615
895.245866	-2.980400	3.675700	-10.954000	24.556520	0.000429	20.743909
896.245626	-3.011800	3.674500	-11.065000	24.569603	0.000428	20.763201
897.244599	-3.004900	3.675000	-11.041000	24.571394	0.000428	20.765472
898.256643	-2.984300	3.675600	-10.967000	24.565848	0.000429	20.764174
899.247087	-3.017000	3.675500	-11.087000	24.566769	0.000428	20.767943
900.246649	-2.988200	3.676000	-10.984000	24.573260	0.000427	20.755964
901.250033	-3.000900	3.674200	-11.025000	24.585123	0.000429	20.761229
902.249962	-3.008700	3.674900	-11.055000	24.563858	0.000429	20.760755
903.249171	-3.001800	3.674100	-11.028000	24.561744	0.000427	20.794670
904.252665	-2.975600	3.674900	-10.934000	24.597086	0.000427	20.760905
905.249203	-3.003900	3.674000	-11.035000	24.570871	0.000426	20.794345
906.251049	-3.008800	3.673400	-11.051000	24.582910	0.000426	20.772285
907.251925	-3.000000	3.673500	-11.020000	24.583208	0.000426	20.769265
908.251219	-2.995200	3.672400	-10.999000	24.583158	0.000426	20.782017
909.252288	-3.001900	3.672700	-11.024000	24.580994	0.000425	20.777001
910.252727	-3.006400	3.672500	-11.040000	24.586317	0.000424	20.783764
911.251008	-2.995300	3.673300	-11.002000	24.594450	0.000426	20.763001
912.253691	-2.986300	3.671700	-10.963000	24.597136	0.000425	20.786559
913.253612	-2.999800	3.672300	-11.014000	24.614073	0.000423	20.785062
914.253246	-3.016400	3.671000	-11.072000	24.617630	0.000426	20.793847
915.254150	-2.992000	3.670900	-10.982000	24.591813	0.000423	20.767942
916.256351	-3.004100	3.671000	-11.027000	24.600320	0.000425	20.780271
917.257872	-3.016500	3.671100	-11.073000	24.614545	0.000424	20.795967
918.255910	-3.003400	3.669800	-11.021000	24.615317	0.000423	20.780146
919.257064	-3.011400	3.669900	-11.051000	24.623598	0.000423	20.787981
920.256210	-3.017200	3.668400	-11.068000	24.607532	0.000422	20.801258
921.257169	-2.996200	3.668800	-10.991000	24.615216	0.000419	20.802804
922.258761	-2.998200	3.669000	-11.000000	24.609670	0.000421	20.802930
923.257360	-3.006900	3.669300	-11.033000	24.603453	0.000420	20.804751
924.257123	-2.988700	3.669000	-10.965000	24.621583	0.000422	20.794495
925.259476	-2.988000	3.669400	-10.963000	24.615117	0.000421	20.802705
926.257588	-2.993100	3.668700	-10.980000	24.615888	0.000419	20.794944
927.258166	-2.994600	3.668100	-10.984000	24.619768	0.000419	20.790776
928.259007	-3.010900	3.668400	-11.044000	24.635561	0.000420	20.791924
929.259633	-2.997800	3.668100	-10.995000	24.640957	0.000419	20.789279
930.258569	-3.011500	3.667700	-11.044000	24.629641	0.000419	20.808270
931.260286	-3.012100	3.667400	-11.046000	24.614321	0.000418	20.777725
932.258245	-3.001400	3.666100	-11.003000	24.645633	0.000418	20.782117
933.258405	-3.022000	3.666800	-11.079000	24.642027	0.000417	20.787507
934.264357	-3.013400	3.665600	-11.046000	24.634417	0.000420	20.795044
935.260757	-3.024300	3.665700	-11.084000	24.623002	0.000419	20.797340
936.266986	-3.020500	3.666700	-11.075000	24.644067	0.000417	20.806624
937.261647	-2.994700	3.666800	-10.980000	24.642153	0.000417	20.804703
938.262897	-3.004000	3.665000	-11.010000	24.638720	0.000416	20.799836
939.263082	-3.016200	3.665300	-11.053000	24.667346	0.000417	20.810068
940.265600	-2.985500	3.666000	-10.943000	24.654663	0.000417	20.803032
941.263191	-2.991700	3.665600	-10.965000	24.663989	0.000416	20.801484
942.264040	-2.980400	3.665500	-10.923000	24.660159	0.000415	20.791003
943.266296	-2.992300	3.665100	-10.967000	24.662871	0.000416	20.787560
944.262890	-2.985500	3.664300	-10.939000	24.667049	0.000416	20.805977
945.261134	-3.030500	3.663600	-11.102000	24.692839	0.000416	20.792027
946.266715	-2.984200	3.663200	-10.931000	24.684780	0.000415	20.801010
947.265499	-2.983900	3.662700	-10.929000	24.669039	0.000414	20.800387
948.266422	-3.002800	3.664000	-11.001000	24.671924	0.000415	20.816558
949.268987	-2.998200	3.663000	-10.980000	24.664364	0.000416	20.804231
950.264416	-2.989900	3.662200	-10.948000	24.674586	0.000415	20.816385
951.265895	-2.986700	3.662800	-10.939000	24.696173	0.000414	20.804382
952.267952	-2.974800	3.662700	-10.895000	24.669314	0.000413	20.796870
953.266212	-2.985500	3.663000	-10.934000	24.676402	0.000415	20.815837
954.265855	-3.016400	3.661000	-11.042000	24.678666	0.000412	20.823323
955.272534	-3.008800	3.659800	-11.010000	24.687221	0.000413	20.802511
956.266385	-2.994100	3.662400	-10.964000	24.691548	0.000414	20.805431
957.269303	-3.003400	3.661500	-10.996000	24.694782	0.000412	20.810573
958.268835	-3.019800	3.661600	-11.056000	24.702267	0.000412	20.809075
959.268644	-3.017600	3.661800	-11.048000	24.693340	0.000411	20.811496
960.268149	-3.011900	3.661500	-11.028000	24.706048	0.000412	20.805756
961.272839	-3.005500	3.661600	-11.004000	24.706023	0.000410	20.823749
962.269939	-3.019600	3.658700	-11.046000	24.706919	0.000411	20.804733
963.270861	-2.995400	3.660100	-10.962000	24.721990	0.000409	20.813693
964.273219	-2.995400	3.659500	-10.960000	24.711396	0.000411	20.813968
965.270398	-3.021200	3.659400	-11.054000	24.704731	0.000413	20.823401
966.271042	-3.015200	3.657800	-11.028000	24.726342	0.000407	20.831811
967.276189	-2.988300	3.659900	-10.936000	24.706498	0.000410	20.825648
968.274645	-2.999400	3.660200	-10.977000	24.701252	0.000408	20.818487
969.274231	-2.995100	3.658800	-10.958000	24.718783	0.000408	20.832760
970.278527	-3.007900	3.657600	-11.000000	24.725598	0.000411	20.796451
971.276072	-2.996700	3.657800	-10.961000	24.716422	0.000409	20.834658
972.275658	-3.010000	3.658400	-11.011000	24.726195	0.000407	20.815068
973.278029	-3.005000	3.657900	-10.991000	24.724729	0.000407	20.827822
974.277623	-3.005000	3.658100	-10.991000	24.723709	0.000406	20.821582
975.277639	-2.993300	3.657300	-10.947000	24.730474	0.000406	20.812724
976.278996	-3.006200	3.656500	-10.991000	24.723386	0.000405	20.840224
977.277570	-2.995500	3.656900	-10.954000	24.734504	0.000405	20.824828
978.275784	-3.002800	3.656600	-10.979000	24.709908	0.000404	20.825277
979.281391	-2.992700	3.656300	-10.941000	24.728536	0.000406	20.858667
980.279373	-2.994700	3.656700	-10.949000	24.749550	0.000405	20.813375
981.278383	-3.012300	3.654300	-11.006000	24.751863	0.000403	20.826601
982.282378	-2.995100	3.655100	-10.946000	24.738185	0.000404	20.833738
983.279866	-3.014600	3.654800	-11.017000	24.754648	0.000405	20.842672
984.278159	-2.986100	3.655400	-10.913000	24.751192	0.000403	20.819765
985.280174	-3.036400	3.653800	-11.093000	24.762209	0.000403	20.831294
986.279861	-2.994200	3.654700	-10.941000	24.751690	0.000402	20.838281
987.279730	-2.994700	3.654700	-10.944000	24.757062	0.000404	20.837508
988.282823	-2.991800	3.653900	-10.931000	24.753282	0.000404	20.861689
989.282175	-3.003100	3.653800	-10.971000	24.748831	0.000402	20.844421
990.283247	-3.009200	3.652800	-10.992000	24.765715	0.000401	20.862312
991.284874	-3.015000	3.652500	-11.012000	24.750372	0.000400	20.845020
992.283729	-3.009200	3.652100	-10.989000	24.763378	0.000402	20.838157
993.290531	-3.002600	3.651900	-10.964000	24.773823	0.000400	20.827776
994.284804	-3.005200	3.650900	-10.971000	24.770018	0.000400	20.833915
995.284610	-3.001100	3.651900	-10.959000	24.749030	0.000401	20.849836
996.283876	-2.994200	3.651500	-10.932000	24.761042	0.000402	20.822062
997.287162	-3.011200	3.650600	-10.992000	24.763180	0.000401	20.847915
998.283868	-3.013700	3.651000	-11.003000	24.767606	0.000400	20.843348
999.284593	-3.004300	3.652200	-10.971000	24.760146	0.000398	20.844871
1000.286119	-2.991200	3.651200	-10.920000	24.774595	0.000397	20.839456
1001.288244	-2.984100	3.651400	-10.894000	24.778001	0.000399	20.866581
1002.285963	-3.013700	3.648600	-10.994000	24.773003	0.000398	20.850660
1003.287714	-3.000800	3.650500	-10.952000	24.785237	0.000402	20.854878
1004.287617	-3.001800	3.649800	-10.954000	24.788967	0.000399	20.860043
1005.288630	-3.005500	3.649300	-10.966000	24.758431	0.000396	20.845994
1006.291349	-2.994100	3.650100	-10.927000	24.776286	0.000396	20.867705
1007.290044	-2.991400	3.648400	-10.912000	24.797373	0.000396	20.842875
1008.289689	-2.997400	3.647900	-10.934000	24.788222	0.000397	20.851235
1009.290978	-2.994200	3.648200	-10.923000	24.791380	0.000395	20.853930
1010.290575	-2.980600	3.648000	-10.872000	24.783423	0.000395	20.844048
1011.289611	-3.014000	3.647100	-10.991000	24.788396	0.000396	20.859943
1012.291239	-3.014900	3.646300	-10.992000	24.776485	0.000395	20.859370
1013.289884	-2.981500	3.648200	-10.876000	24.809707	0.000394	20.889864
1014.290215	-3.020600	3.647000	-11.015000	24.813065	0.000395	20.851510
1015.292333	-3.001400	3.646200	-10.943000	24.807320	0.000394	20.873245
1016.289478	-3.012400	3.645000	-10.979000	24.792972	0.000397	20.868329
1017.291491	-3.004400	3.646000	-10.953000	24.816744	0.000395	20.862789
1018.293034	-2.996000	3.645400	-10.920000	24.803616	0.000392	20.870001
1019.293359	-2.987600	3.645900	-10.891000	24.814557	0.000392	20.869128
1020.292321	-2.978400	3.647100	-10.861000	24.808813	0.000393	20.874269
1021.300362	-2.996700	3.644300	-10.919000	24.794439	0.000391	20.880232
1022.294418	-2.980900	3.645400	-10.866000	24.830422	0.000391	20.877937
1023.293628	-2.980800	3.645100	-10.864000	24.829602	0.000390	20.866209
1024.298223	-3.011800	3.642700	-10.970000	24.816994	0.000391	20.872997
1025.297215	-3.006900	3.644300	-10.958000	24.815502	0.000389	20.866758
1026.296609	-2.978800	3.645200	-10.858000	24.803268	0.000391	20.872023
1027.301226	-3.009600	3.643700	-10.965000	24.833705	0.000391	20.877913
1028.300210	-3.005900	3.643600	-10.952000	24.815752	0.000391	20.881232
1029.301850	-2.996200	3.643200	-10.915000	24.810703	0.000389	20.884226
1030.302932	-3.004800	3.643100	-10.945000	24.815876	0.000390	20.870927
1031.298110	-3.012000	3.642000	-10.969000	24.829777	0.000389	20.858325
1032.300279	-3.010500	3.642000	-10.963000	24.833755	0.000389	20.876067
1033.301652	-2.992100	3.642300	-10.898000	24.834253	0.000388	20.872299
1034.299397	-3.009700	3.641000	-10.957000	24.821596	0.000387	20.866710
1035.300231	-2.988900	3.642300	-10.886000	24.838008	0.000387	20.885076
1036.299702	-3.003500	3.642600	-10.940000	24.833730	0.000388	20.870353
1037.300583	-2.995700	3.642100	-10.910000	24.846113	0.000387	20.887995
1038.303089	-2.973100	3.641300	-10.825000	24.870980	0.000386	20.875020
1039.302858	-2.994400	3.642100	-10.904000	24.850366	0.000388	20.876143
1040.299678	-3.008800	3.639200	-10.948000	24.868419	0.000385	20.877666
1041.304654	-3.009600	3.640700	-10.957000	24.865137	0.000386	20.890018
1042.302433	-3.015600	3.639500	-10.974000	24.868991	0.000386	20.881558
1043.302126	-2.994900	3.639500	-10.899000	24.846563	0.000383	20.877541
1044.305094	-2.988500	3.639400	-10.875000	24.871504	0.000385	20.887873
1045.301706	-3.013300	3.638100	-10.962000	24.875904	0.000383	20.876169
1046.302965	-2.984000	3.638200	-10.855000	24.888834	0.000384	20.895308
1047.304018	-2.998400	3.638300	-10.907000	24.880952	0.000382	20.879813
1048.302123	-3.005100	3.636600	-10.927000	24.876651	0.000383	20.872177
1049.299922	-2.983700	3.637900	-10.852000	24.873418	0.000385	20.876045
1050.305191	-3.013600	3.636300	-10.957000	24.858623	0.000383	20.873524
1051.302996	-2.969600	3.637000	-10.800000	24.864665	0.000381	20.879588
1052.302156	-3.003000	3.636200	-10.918000	24.857157	0.000382	20.873949
1053.306447	-3.004600	3.635900	-10.923000	24.862081	0.000383	20.881261
1054.300951	-3.002900	3.636700	-10.919000	24.866506	0.000382	20.882384
1055.303533	-3.011600	3.636000	-10.949000	24.847932	0.000381	20.862321
1056.306339	-3.009500	3.635900	-10.942000	24.856859	0.000379	20.876021
1057.307490	-3.004200	3.635900	-10.923000	24.870807	0.000381	20.862519
1058.305342	-2.988300	3.636300	-10.865000	24.879859	0.000380	20.862122
1059.308313	-2.983600	3.636900	-10.850000	24.862130	0.000379	20.874673
1060.305680	-3.010300	3.634300	-10.939000	24.869565	0.000380	20.857954
1061.309582	-3.011900	3.633600	-10.943000	24.857456	0.000379	20.865715
1062.306861	-2.990200	3.635000	-10.868000	24.874638	0.000381	20.852614
1063.306616	-2.991300	3.633300	-10.866000	24.867601	0.000380	20.849819
1064.310174	-2.988200	3.634900	-10.861000	24.889831	0.000377	20.861224
1065.306030	-3.001300	3.633000	-10.901000	24.890476	0.000376	20.856182
1066.306156	-3.004000	3.633400	-10.914000	24.913576	0.000376	20.846177
1067.310163	-3.000100	3.632700	-10.897000	24.903705	0.000376	20.844804
1068.308477	-3.019800	3.632000	-10.966000	24.874042	0.000378	20.848698
1069.310553	-3.011400	3.631100	-10.934000	24.883540	0.000377	20.867238
1070.313489	-3.028700	3.631400	-10.997000	24.890328	0.000377	20.831853
1071.314602	-3.006200	3.632500	-10.919000	24.895077	0.000378	20.848947
1072.310649	-3.012200	3.630700	-10.935000	24.884386	0.000376	20.838217
1073.312133	-3.030100	3.631200	-11.002000	24.904104	0.000377	20.844256
1074.309698	-3.015800	3.630000	-10.947000	24.904327	0.000375	20.839265
1075.310502	-2.975800	3.631600	-10.806000	24.913602	0.000375	20.856633
1076.312429	-3.000600	3.630200	-10.892000	24.881105	0.000374	20.829234
1077.310745	-3.009800	3.630000	-10.925000	24.915964	0.000374	20.838142
1078.310159	-3.010500	3.629500	-10.925000	24.903780	0.000373	20.837293
1079.314757	-3.023600	3.629500	-10.973000	24.908032	0.000373	20.835871
1080.310459	-3.014600	3.629900	-10.942000	24.898932	0.000373	20.832428
1081.312334	-2.990200	3.628800	-10.850000	24.902662	0.000373	20.836645
1082.314138	-3.002500	3.627900	-10.892000	24.900101	0.000371	20.839291
1083.315511	-2.999800	3.627500	-10.881000	24.891424	0.000373	20.838168
1084.315622	-3.004800	3.628300	-10.901000	24.899057	0.000372	20.851993
1085.324297	-3.000900	3.627400	-10.885000	24.918848	0.000372	20.828235
1086.315466	-2.999400	3.627100	-10.877000	24.914622	0.000369	20.833002
1087.314990	-3.001000	3.628200	-10.887000	24.916910	0.000372	20.828660
1088.319225	-3.014000	3.627100	-10.931000	24.905471	0.000370	20.829982
1089.315080	-3.026900	3.626500	-10.977000	24.905497	0.000368	20.842336
1090.316933	-2.987000	3.628400	-10.837000	24.918501	0.000368	20.842111
1091.317596	-3.002000	3.626700	-10.887000	24.932052	0.000368	20.836271
1092.316628	-3.015900	3.626000	-10.935000	24.914771	0.000370	20.827936
1093.317095	-3.014200	3.625300	-10.926000	24.943042	0.000368	20.855836
1094.319154	-2.979600	3.627000	-10.806000	24.910147	0.000368	20.822821
1095.322821	-2.987200	3.625800	-10.830000	24.934338	0.000367	20.815808
1096.319958	-2.981800	3.625700	-10.810000	24.941575	0.000368	20.814062
1097.320506	-2.979500	3.625100	-10.799000	24.937845	0.000367	20.823121
1098.320282	-2.993500	3.624500	-10.849000	24.937523	0.000366	20.840340
1099.321277	-2.993400	3.624400	-10.848000	24.947442	0.000366	20.814736
1100.327050	-2.983800	3.624900	-10.815000	24.948463	0.000367	20.828562
1101.321379	-2.995600	3.622500	-10.851000	24.929243	0.000364	20.825866
1102.322963	-3.016400	3.623000	-10.927000	24.936577	0.000365	20.809046
1103.324671	-3.012300	3.623200	-10.913000	24.961914	0.000366	20.830209
1104.324337	-3.007900	3.622800	-10.895000	24.970864	0.000364	20.833028
1105.323480	-3.003100	3.621400	-10.874000	24.945803	0.000362	20.815935
1106.324000	-3.005300	3.623200	-10.888000	24.964922	0.000362	20.805254
1107.327855	-3.007600	3.621800	-10.892000	24.944807	0.000363	20.814936
1108.325092	-2.991900	3.620900	-10.833000	24.953758	0.000362	20.832454
1109.328990	-3.004500	3.620800	-10.878000	24.961789	0.000363	20.820601
1110.330297	-3.004000	3.619300	-10.871000	24.950054	0.000361	20.825892
1111.333372	-3.021100	3.619500	-10.933000	24.983643	0.000363	20.830682
1112.332616	-2.988400	3.621000	-10.819000	24.954902	0.000361	20.808473
1113.329402	-3.007100	3.620200	-10.885000	24.939561	0.000363	20.807774
1114.328591	-3.006700	3.619000	-10.880000	24.952465	0.000360	20.820725
1115.330607	-3.018600	3.618000	-10.920000	24.961092	0.000361	20.813263
1116.328788	-2.987600	3.619700	-10.813000	24.961590	0.000360	20.821349
1117.330211	-2.999900	3.618600	-10.855000	24.943538	0.000362	20.824093
1118.335318	-3.008500	3.618500	-10.885000	24.942345	0.000361	20.829060
1119.331545	-2.990100	3.618900	-10.820000	24.946571	0.000360	20.802482
1120.331995	-2.991400	3.617800	-10.822000	24.963677	0.000361	20.816332
1121.335130	-3.008300	3.616400	-10.878000	24.951567	0.000359	20.811289
1122.336666	-3.016900	3.617400	-10.913000	24.971582	0.000360	20.811465
1123.332847	-2.981000	3.617500	-10.783000	24.989235	0.000359	20.816381
1124.333316	-2.999700	3.617300	-10.850000	24.961140	0.000357	20.822320
1125.335369	-2.980800	3.617100	-10.781000	24.972726	0.000359	20.812612
1126.332736	-3.009600	3.615700	-10.880000	24.983466	0.000358	20.809642
1127.330928	-2.985600	3.615600	-10.793000	24.974192	0.000358	20.805075
1128.335835	-2.997600	3.615700	-10.837000	24.969914	0.000357	20.813110
1129.336318	-2.998600	3.616900	-10.845000	24.986473	0.000355	20.793220
1130.334924	-3.003000	3.613100	-10.849000	24.961162	0.000357	20.828032
1131.338119	-3.026100	3.615000	-10.938000	24.983961	0.000356	20.794966
1132.337399	-3.006500	3.614500	-10.865000	24.987566	0.000355	20.817077
1133.336310	-3.002800	3.614500	-10.852000	24.988984	0.000356	20.812810
1134.336359	-3.014500	3.612800	-10.889000	25.005989	0.000354	20.813758
1135.338812	-3.019400	3.614100	-10.911000	24.995944	0.000355	20.806520
1136.336101	-2.989200	3.613200	-10.799000	24.984135	0.000353	20.821693
1137.345030	-2.971600	3.615000	-10.740000	24.993308	0.000356	20.804822
1138.338328	-3.000100	3.612300	-10.836000	24.981125	0.000354	20.811560
1139.336476	-2.990200	3.613300	-10.803000	24.977545	0.000352	20.828355
1140.338960	-2.999300	3.611900	-10.833000	25.003426	0.000354	20.834893
1141.339259	-3.001100	3.611100	-10.837000	24.995173	0.000352	20.814754
1142.336565	-3.013000	3.610500	-10.877000	24.989006	0.000352	20.811410
1143.338111	-3.011900	3.610800	-10.874000	25.001586	0.000350	20.790373
1144.340963	-3.009200	3.609900	-10.862000	25.000964	0.000351	20.810137
1145.337545	-3.009000	3.610500	-10.863000	25.001835	0.000349	20.804846
1146.338109	-2.997200	3.611500	-10.823000	25.024011	0.000350	20.809563
1147.342641	-3.015200	3.609500	-10.881000	25.001536	0.000350	20.810236
1148.337434	-3.013500	3.609300	-10.875000	25.025056	0.000349	20.798284
1149.346850	-2.995900	3.609600	-10.813000	25.015956	0.000349	20.816650
1150.341823	-3.028700	3.608700	-10.929000	25.025453	0.000349	20.809114
1151.339158	-3.037900	3.606900	-10.956000	25.016378	0.000347	20.795737
1152.339986	-3.005900	3.609000	-10.848000	25.028709	0.000348	20.826606
1153.343517	-2.994200	3.608100	-10.803000	25.032613	0.000346	20.808714
1154.339993	-3.009300	3.608500	-10.857000	25.000864	0.000347	20.819519
1155.340172	-3.005100	3.608100	-10.842000	25.024732	0.000347	20.804122
1156.344322	-3.000100	3.607400	-10.821000	25.028114	0.000345	20.801827
1157.340632	-3.012400	3.606700	-10.864000	25.031171	0.000345	20.806319
1158.339751	-2.996700	3.606000	-10.805000	25.019288	0.000345	20.801976
1159.343598	-3.002700	3.607500	-10.831000	25.030825	0.000344	20.805022
1160.341502	-3.006700	3.605000	-10.839000	25.019039	0.000344	20.804098
1161.340378	-2.994900	3.606000	-10.798000	25.011556	0.000345	20.811759
1162.342613	-3.007500	3.604300	-10.840000	25.027915	0.000343	20.801628
1163.339464	-2.999100	3.605400	-10.812000	25.036045	0.000344	20.792718
1164.341450	-3.011400	3.604200	-10.853000	25.033160	0.000344	20.790297
1165.341872	-2.990000	3.605700	-10.780000	25.020606	0.000340	20.798084
1166.339984	-3.010400	3.603200	-10.846000	25.027593	0.000341	20.800830
1167.341277	-3.025600	3.602900	-10.900000	25.028014	0.000340	20.797934
1168.344883	-2.975000	3.604100	-10.721000	25.008946	0.000341	20.800605
1169.340487	-2.987000	3.604300	-10.764000	25.018567	0.000339	20.820693
1170.342570	-3.009700	3.603000	-10.843000	25.043329	0.000341	20.787703
1171.344236	-3.000200	3.603200	-10.809000	25.030102	0.000337	20.800504
1172.340461	-3.013200	3.602200	-10.854000	25.031695	0.000339	20.806844
1173.343535	-3.015500	3.602000	-10.860000	25.034802	0.000340	20.785307
1174.342998	-3.004300	3.602000	-10.821000	25.022197	0.000341	20.802526
1175.341621	-3.009700	3.600900	-10.837000	25.031843	0.000338	20.797984
1176.342688	-3.006800	3.600900	-10.827000	25.019935	0.000339	20.774176
1177.346634	-2.983500	3.601500	-10.743000	25.037685	0.000337	20.804322
1178.344002	-3.002300	3.600000	-10.807000	25.023041	0.000337	20.790097
1179.345898	-2.977700	3.601700	-10.723000	25.039673	0.000335	20.789248
1180.348838	-3.010000	3.600900	-10.838000	25.042730	0.000337	20.796111
1181.345355	-2.988700	3.600300	-10.760000	25.054166	0.000336	20.791469
1182.346790	-2.974400	3.600200	-10.708000	25.038106	0.000334	20.798107
1183.346599	-2.991300	3.598800	-10.764000	25.031442	0.000334	20.775771
1184.346458	-3.014800	3.597600	-10.845000	25.035743	0.000334	20.773450
1185.346650	-2.999600	3.598500	-10.793000	25.032214	0.000335	20.798830
1186.348802	-3.010300	3.598200	-10.831000	25.043549	0.000334	20.786501
1187.347382	-3.021600	3.598400	-10.872000	25.016400	0.000335	20.789595
1188.348938	-2.991500	3.597300	-10.761000	25.042554	0.000334	20.779812
1189.348398	-2.992100	3.597700	-10.763000	25.046805	0.000332	20.783606
1190.346966	-3.015500	3.596400	-10.844000	25.050733	0.000333	20.794661
1191.348634	-3.001600	3.595800	-10.793000	25.050858	0.000332	20.779613
1192.352428	-3.010700	3.596100	-10.825000	25.038353	0.000331	20.804518
1193.350723	-2.990600	3.596600	-10.756000	25.054586	0.000331	20.792839
1194.353210	-3.002000	3.595600	-10.792000	25.043350	0.000331	20.813328
1195.351283	-3.015500	3.594800	-10.838000	25.059783	0.000330	20.782408
1196.350225	-3.005200	3.594800	-10.802000	25.042902	0.000332	20.779213
1197.349970	-2.990500	3.595500	-10.751000	25.060877	0.000330	20.813378
1198.350584	-2.988300	3.595600	-10.743000	25.069280	0.000331	20.796208
1199.350278	-3.004100	3.593000	-10.793000	25.053916	0.000329	20.784105
1200.351910	-3.005900	3.593600	-10.801000	25.055532	0.000329	20.785727
1201.352826	-2.999900	3.593300	-10.779000	25.062443	0.000329	20.784130
1202.351606	-2.983800	3.593400	-10.721000	25.058664	0.000329	20.766586
1203.352089	-3.001200	3.592200	-10.779000	25.061598	0.000327	20.775695
1204.354378	-2.983700	3.594600	-10.723000	25.071293	0.000327	20.770728
1205.352953	-3.015800	3.590500	-10.827000	25.062095	0.000326	20.789471
1206.352385	-3.030400	3.591100	-10.880000	25.065054	0.000325	20.778690
1207.354989	-3.012600	3.591300	-10.818000	25.061599	0.000327	20.781860
1208.355069	-3.005200	3.591100	-10.791000	25.062196	0.000326	20.769657
1209.355236	-3.021800	3.592000	-10.853000	25.051780	0.000324	20.785280
1210.358508	-3.009300	3.590900	-10.805000	25.058417	0.000325	20.789098
1211.354489	-3.001100	3.590900	-10.776000	25.059735	0.000324	20.779041
1212.354832	-2.977000	3.589800	-10.685000	25.061177	0.000325	20.765315
1213.356898	-3.039700	3.589000	-10.908000	25.057920	0.000325	20.782909
1214.354858	-3.014500	3.588700	-10.817000	25.083080	0.000324	20.756482
1215.355735	-3.011700	3.588300	-10.805000	25.057399	0.000322	20.770532
1216.355327	-3.007100	3.588500	-10.789000	25.064410	0.000323	20.762396
1217.354783	-2.996300	3.589100	-10.754000	25.086686	0.000322	20.773378
1218.354918	-3.030400	3.587100	-10.869000	25.093572	0.000321	20.768911
1219.356196	-3.000000	3.587500	-10.761000	25.092454	0.000322	20.757356
1220.355116	-3.010600	3.586800	-10.798000	25.056107	0.000320	20.770657
1221.355300	-2.994900	3.587800	-10.744000	25.079974	0.000320	20.774227
1222.359031	-2.995300	3.586500	-10.741000	25.083131	0.000319	20.772654
1223.356619	-3.045000	3.585300	-10.916000	25.094145	0.000318	20.774227
1224.356918	-2.996500	3.585900	-10.744000	25.088849	0.000318	20.778868
1225.358726	-3.012600	3.584500	-10.798000	25.079402	0.000317	20.771756
1226.357260	-3.004000	3.586200	-10.771000	25.081242	0.000318	20.788302
1227.357727	-3.002200	3.585700	-10.764000	25.095089	0.000316	20.764744
1228.359054	-2.997200	3.585100	-10.744000	25.085791	0.000317	20.768212
1229.356044	-3.020700	3.583800	-10.825000	25.077737	0.000315	20.764394
1230.359827	-2.979700	3.584600	-10.679000	25.086438	0.000317	20.766491
1231.358427	-2.986600	3.584100	-10.703000	25.088775	0.000314	20.755560
1232.356885	-2.997700	3.583500	-10.741000	25.088005	0.000316	20.751942
1233.359510	-3.005000	3.583700	-10.768000	25.097874	0.000315	20.770859
1234.359237	-3.009900	3.583000	-10.784000	25.079701	0.000312	20.764944
1235.359009	-3.023500	3.582500	-10.830000	25.107645	0.000313	20.765494
1236.359207	-3.003300	3.581300	-10.755000	25.099888	0.000312	20.752965
1237.360207	-3.008100	3.582400	-10.775000	25.087782	0.000311	20.762150
1238.360194	-3.014600	3.580500	-10.793000	25.111746	0.000309	20.773404
1239.359313	-3.013200	3.581000	-10.789000	25.105333	0.000310	20.764596
1240.361889	-3.001500	3.581000	-10.748000	25.097080	0.000312	20.755836
1241.360880	-3.001700	3.580900	-10.748000	25.117315	0.000310	20.757184
1242.366231	-2.993400	3.581000	-10.718000	25.115302	0.000310	20.770336
1243.361448	-3.002100	3.581500	-10.751000	25.095588	0.000311	20.761451
1244.360547	-2.991600	3.579400	-10.707000	25.114730	0.000307	20.757434
1245.365626	-3.006000	3.581200	-10.764000	25.104290	0.000310	20.755487
1246.362370	-3.017600	3.578300	-10.797000	25.102575	0.000309	20.756611
1247.362340	-2.987900	3.580500	-10.697000	25.122165	0.000309	20.770114
1248.365167	-3.005500	3.578500	-10.755000	25.099791	0.000309	20.754291
1249.362659	-3.007000	3.578700	-10.760000	25.092681	0.000307	20.745257
1250.363217	-3.007100	3.579300	-10.762000	25.097106	0.000306	20.743534
1251.365325	-3.005100	3.577100	-10.749000	25.102899	0.000306	20.747927
1252.367705	-3.028200	3.577200	-10.830000	25.125446	0.000307	20.738792
1253.363858	-3.003500	3.577900	-10.745000	25.110830	0.000305	20.752096
1254.367825	-3.000700	3.576200	-10.731000	25.105286	0.000305	20.756487
1255.364553	-3.013600	3.576600	-10.777000	25.112768	0.000305	20.739341
1256.364270	-3.001400	3.576900	-10.734000	25.112495	0.000306	20.741912
1257.367764	-2.997000	3.576700	-10.718000	25.101954	0.000304	20.738918
1258.365494	-3.015600	3.575600	-10.781000	25.104068	0.000304	20.760955
1259.363891	-2.996200	3.575200	-10.711000	25.122315	0.000302	20.742288
1260.364654	-3.006900	3.575700	-10.751000	25.115951	0.000303	20.729260
1261.363588	-3.006100	3.574900	-10.745000	25.133775	0.000301	20.761379
1262.364354	-2.998900	3.574400	-10.718000	25.109239	0.000301	20.742911
1263.367407	-3.031500	3.572900	-10.830000	25.116299	0.000300	20.755215
1264.364810	-3.007500	3.574100	-10.748000	25.111426	0.000301	20.750323
1265.366824	-2.982100	3.573100	-10.655000	25.127138	0.000299	20.751397
1266.366838	-2.978200	3.574100	-10.643000	25.117268	0.000299	20.739118
1267.368403	-2.996500	3.572900	-10.705000	25.107996	0.000300	20.741663
1268.368567	-2.994300	3.572500	-10.696000	25.101084	0.000299	20.730932
1269.369185	-3.025700	3.571700	-10.806000	25.099991	0.000299	20.737895
1270.366979	-2.996400	3.572000	-10.702000	25.110034	0.000298	20.741813
1271.365898	-2.989900	3.571300	-10.677000	25.117468	0.000298	20.754492
1272.369935	-3.004000	3.571800	-10.728000	25.103769	0.000296	20.730782
1273.368989	-3.003500	3.572500	-10.728000	25.103123	0.000298	20.723969
1274.368215	-2.991100	3.570600	-10.679000	25.127162	0.000296	20.735300
1275.370054	-2.975200	3.571000	-10.623000	25.094745	0.000295	20.744958
1276.369781	-2.979500	3.570200	-10.636000	25.117392	0.000297	20.731181
1277.370965	-2.980600	3.570800	-10.642000	25.108717	0.000296	20.721049
1278.371134	-2.988900	3.569400	-10.668000	25.124055	0.000296	20.735499
1279.369175	-2.988900	3.568500	-10.665000	25.114956	0.000293	20.750548
1280.373691	-2.992200	3.569300	-10.678000	25.103645	0.000295	20.729235
1281.374360	-3.010700	3.569000	-10.744000	25.111079	0.000291	20.716782
1282.373016	-3.005600	3.568200	-10.724000	25.121122	0.000291	20.709794
1283.373083	-3.008900	3.566900	-10.732000	25.138523	0.000294	20.720625
1284.373572	-3.032000	3.565800	-10.811000	25.108691	0.000293	20.706324
1285.373034	-3.003000	3.566800	-10.710000	25.104714	0.000289	20.723669
1286.371749	-2.990400	3.566800	-10.665000	25.124725	0.000290	20.748027
1287.374569	-3.009000	3.565800	-10.728000	25.112644	0.000291	20.715034
1288.372443	-3.000500	3.566100	-10.699000	25.133974	0.000291	20.738819
1289.372985	-2.991600	3.567300	-10.670000	25.147198	0.000291	20.724593
1290.374196	-2.981300	3.564700	-10.626000	25.116473	0.000290	20.713188
1291.373127	-3.014200	3.564800	-10.744000	25.129921	0.000290	20.727637
1292.373887	-3.000800	3.566600	-10.703000	25.139044	0.000290	20.714510
1293.380428	-3.025800	3.564800	-10.785000	25.139865	0.000288	20.709644
1294.376708	-2.981900	3.564800	-10.629000	25.129150	0.000287	20.722121
1295.374684	-2.973400	3.565000	-10.598000	25.129424	0.000287	20.719551
1296.376882	-3.008200	3.563500	-10.719000	25.139715	0.000287	20.729883
1297.376687	-2.990100	3.563200	-10.652000	25.147073	0.000287	20.729683
1298.374989	-2.984900	3.562900	-10.634000	25.130990	0.000286	20.726813
1299.375687	-2.987100	3.562900	-10.642000	25.143444	0.000284	20.722720
1300.377788	-2.984900	3.562300	-10.632000	25.155228	0.000287	20.724593
1301.376213	-2.996000	3.561600	-10.670000	25.151996	0.000284	20.709968
1302.380411	-2.993800	3.561800	-10.662000	25.156446	0.000283	20.691200
1303.378242	-2.991600	3.561200	-10.653000	25.145359	0.000285	20.730333
1304.376553	-2.991300	3.560900	-10.651000	25.127112	0.000283	20.730981
1305.383060	-3.012200	3.559900	-10.722000	25.146403	0.000283	20.721424
1306.376373	-2.988800	3.560200	-10.640000	25.134894	0.000283	20.718404
1307.378370	-3.003900	3.561300	-10.697000	25.122514	0.000283	20.713562
1308.380646	-3.019100	3.558500	-10.742000	25.154061	0.000282	20.704928
1309.380346	-3.001400	3.560100	-10.684000	25.132284	0.000282	20.714835
1310.378891	-3.010400	3.560100	-10.717000	25.129997	0.000281	20.714437
1311.382629	-3.015200	3.559000	-10.730000	25.130941	0.000281	20.711116
1312.379286	-3.021000	3.558700	-10.750000	25.128828	0.000281	20.706150
1313.377078	-2.986300	3.559100	-10.627000	25.153364	0.000280	20.721299
1314.382903	-3.008500	3.557000	-10.699000	25.108767	0.000278	20.728213
1315.380878	-3.004400	3.557300	-10.687000	25.139916	0.000280	20.708272
1316.379353	-3.002800	3.558200	-10.684000	25.149213	0.000279	20.702432
1317.382818	-3.018200	3.556800	-10.733000	25.144987	0.000281	20.701982
1318.381845	-2.993200	3.557500	-10.647000	25.137454	0.000277	20.719552
1319.380708	-2.983800	3.556500	-10.611000	25.150307	0.000277	20.711591
1320.384547	-2.979700	3.557500	-10.598000	25.150654	0.000277	20.732804
1321.382348	-2.983800	3.555300	-10.608000	25.162463	0.000277	20.716683
1322.383093	-3.018600	3.555000	-10.729000	25.151028	0.000276	20.724644
1323.381949	-3.004100	3.556000	-10.681000	25.149711	0.000276	20.731857
1324.380202	-2.976000	3.555400	-10.580000	25.139668	0.000274	20.709920
1325.381515	-2.952900	3.557100	-10.502000	25.131513	0.000276	20.721649
1326.383509	-2.979800	3.554200	-10.590000	25.160251	0.000275	20.718256
1327.381353	-3.002800	3.553400	-10.669000	25.154957	0.000275	20.724321
1328.381163	-2.999200	3.553500	-10.656000	25.173078	0.000275	20.708373
1329.384820	-2.999400	3.552700	-10.654000	25.146902	0.000274	20.734254
1330.382034	-2.996600	3.552700	-10.645000	25.151376	0.000275	20.724046
1331.382581	-2.990000	3.551600	-10.619000	25.154757	0.000274	20.720327
1332.384073	-2.991400	3.551700	-10.623000	25.150854	0.000273	20.711192
1333.382748	-2.976100	3.552600	-10.572000	25.160723	0.000274	20.728213
1334.382294	-3.036500	3.550000	-10.779000	25.155303	0.000272	20.729884
1335.383691	-2.987000	3.552200	-10.610000	25.137727	0.000272	20.740216
1336.382785	-2.988600	3.550400	-10.610000	25.154557	0.000271	20.698313
1337.381359	-2.975400	3.551400	-10.567000	25.138548	0.000272	20.725866
1338.384761	-2.991800	3.550800	-10.623000	25.152369	0.000271	20.723620
1339.381348	-3.004500	3.550100	-10.665000	25.157439	0.000269	20.729184
1340.381222	-2.981300	3.549700	-10.582000	25.141530	0.000271	20.732653
1341.385864	-2.974000	3.550900	-10.559000	25.149485	0.000270	20.734001
1342.382828	-2.988900	3.549500	-10.608000	25.149633	0.000268	20.723717
1343.382565	-2.995500	3.548800	-10.630000	25.154555	0.000268	20.710166
1344.383953	-3.004300	3.547300	-10.655000	25.155698	0.000267	20.736446
1345.382901	-3.017200	3.549200	-10.706000	25.149135	0.000267	20.713260
1346.381651	-2.982400	3.548700	-10.583000	25.182073	0.000267	20.722620
1347.385021	-2.992100	3.548500	-10.616000	25.164672	0.000266	20.738342
1348.382874	-2.982100	3.546600	-10.575000	25.168921	0.000265	20.732650
1349.383266	-2.996900	3.546900	-10.629000	25.151148	0.000266	20.723816
1350.383843	-3.002000	3.546800	-10.646000	25.152217	0.000262	20.717302
1351.387931	-2.993300	3.545500	-10.612000	25.156840	0.000264	20.719099
1352.383061	-3.018500	3.545000	-10.699000	25.162160	0.000262	20.719698
1353.382693	-2.996400	3.545000	-10.621000	25.159649	0.000264	20.723341
1354.385601	-2.989300	3.545600	-10.597000	25.173594	0.000264	20.725487
1355.392301	-2.989000	3.546000	-10.598000	25.180231	0.000262	20.714606
1356.383871	-3.011700	3.544000	-10.673000	25.157137	0.000262	20.717026
1357.386568	-3.007700	3.544600	-10.660000	25.157336	0.000264	20.736193
1358.384941	-3.005900	3.544300	-10.653000	25.173618	0.000260	20.736418
1359.382330	-3.005500	3.544300	-10.652000	25.152364	0.000263	20.744004
1360.386950	-3.000900	3.543200	-10.632000	25.161463	0.000260	20.743655
1361.385387	-3.025500	3.542400	-10.717000	25.148361	0.000260	20.713431
1362.384470	-3.025200	3.541500	-10.713000	25.166930	0.000262	20.720219
1363.386116	-3.020900	3.543500	-10.703000	25.153233	0.000260	20.734919
1364.386023	-3.007900	3.541700	-10.652000	25.177047	0.000260	20.740334
1365.386854	-2.980700	3.541900	-10.556000	25.168794	0.000261	20.742480
1366.384851	-3.005100	3.542200	-10.643000	25.181422	0.000258	20.738089
1367.385357	-3.017900	3.540600	-10.684000	25.175754	0.000259	20.750417
1368.383744	-2.986700	3.541000	-10.576000	25.167053	0.000258	20.744526
1369.387560	-3.004600	3.539800	-10.635000	25.186493	0.000258	20.722790
1370.383955	-2.998500	3.540700	-10.616000	25.167451	0.000258	20.737339
1371.383637	-3.004500	3.539600	-10.634000	25.170880	0.000257	20.745524
1372.388180	-3.019700	3.538600	-10.684000	25.190394	0.000257	20.738087
1373.383173	-3.001000	3.540300	-10.623000	25.185398	0.000258	20.736864
1374.385611	-3.007900	3.538100	-10.641000	25.179207	0.000254	20.733494
1375.388283	-3.009400	3.537600	-10.645000	25.207619	0.000253	20.743052
1376.385255	-2.985200	3.538600	-10.562000	25.202374	0.000255	20.733044
1377.387505	-3.016700	3.536500	-10.668000	25.171401	0.000254	20.748418
1378.388857	-3.013200	3.537400	-10.658000	25.201553	0.000254	20.757351
1379.386054	-3.012000	3.537600	-10.654000	25.181692	0.000254	20.754007
1380.384471	-2.991700	3.537400	-10.581000	25.182164	0.000253	20.744524
1381.390385	-2.981600	3.537600	-10.546000	25.201777	0.000252	20.769430
1382.385697	-3.003700	3.537000	-10.623000	25.191162	0.000251	20.766360
1383.386423	-2.999100	3.536800	-10.606000	25.193672	0.000251	20.743749
1384.390619	-2.998900	3.536000	-10.603000	25.180149	0.000250	20.737285
1385.390207	-3.031200	3.535000	-10.713000	25.192603	0.000251	20.737459
1386.389438	-2.987600	3.535300	-10.561000	25.214229	0.000250	20.747317
1387.393704	-3.003200	3.535500	-10.617000	25.201427	0.000250	20.770028
1388.388882	-2.976200	3.534800	-10.519000	25.202794	0.000249	20.755752
1389.388299	-2.988500	3.534700	-10.563000	25.186661	0.000247	20.764212
1390.392320	-3.004300	3.533000	-10.612000	25.206472	0.000248	20.770825
1391.388471	-2.968200	3.534000	-10.489000	25.195236	0.000249	20.730146
1392.390150	-2.993300	3.532800	-10.574000	25.195386	0.000245	20.756850
1393.396991	-3.004700	3.533000	-10.615000	25.222753	0.000246	20.757298
1394.390243	-3.018300	3.532000	-10.660000	25.192900	0.000246	20.762889
1395.393407	-3.000300	3.534000	-10.602000	25.173163	0.000244	20.763937
1396.393574	-3.019000	3.530900	-10.659000	25.189420	0.000246	20.756076
1397.391341	-2.996500	3.532800	-10.586000	25.188102	0.000244	20.751908
1398.390238	-3.010800	3.532400	-10.634000	25.188052	0.000246	20.751383
1399.393494	-2.993000	3.531500	-10.569000	25.190662	0.000244	20.766806
1400.391576	-3.013400	3.530700	-10.638000	25.203241	0.000245	20.759994
1401.388935	-3.007700	3.530700	-10.618000	25.199064	0.000244	20.764810
1402.391025	-3.021800	3.530300	-10.667000	25.224170	0.000244	20.744496
1403.391612	-2.980700	3.531000	-10.524000	25.194391	0.000243	20.741626
1404.391622	-3.002800	3.530300	-10.599000	25.214501	0.000242	20.767980
1405.392645	-2.973700	3.530200	-10.497000	25.187432	0.000242	20.776365
1406.389903	-2.994200	3.529600	-10.567000	25.206969	0.000242	20.757099
1407.390552	-3.006000	3.528300	-10.605000	25.201948	0.000242	20.756799
1408.397097	-3.003900	3.527500	-10.595000	25.212960	0.000240	20.758846
1409.396950	-2.997600	3.528300	-10.575000	25.202421	0.000241	20.775292
1410.393734	-2.993000	3.527500	-10.557000	25.183728	0.000241	20.760319
1411.395531	-3.012500	3.526700	-10.623000	25.212090	0.000241	20.759869
1412.392662	-3.012400	3.527100	-10.624000	25.205727	0.000242	20.754903
1413.393227	-2.993500	3.526900	-10.557000	25.209530	0.000239	20.762515
1414.397303	-3.012500	3.526300	-10.621000	25.209753	0.000238	20.764162
1415.393674	-3.003100	3.525800	-10.587000	25.216167	0.000238	20.750686
1416.393882	-2.991400	3.526300	-10.547000	25.210425	0.000236	20.785699
1417.398335	-2.979400	3.526400	-10.505000	25.207865	0.000237	20.781232
1418.394294	-2.984100	3.524600	-10.517000	25.205876	0.000235	20.778761
1419.395828	-3.003700	3.525600	-10.589000	25.206100	0.000235	20.770451
1420.398005	-3.022700	3.524600	-10.653000	25.231803	0.000236	20.786773
1421.398690	-2.999100	3.524700	-10.570000	25.219747	0.000236	20.766608
1422.398139	-3.001600	3.524400	-10.578000	25.240005	0.000235	20.772248
1423.403186	-3.008800	3.522900	-10.599000	25.216541	0.000236	20.757699
1424.398835	-3.012700	3.523100	-10.613000	25.225688	0.000236	20.779685
1425.398285	-2.997000	3.524300	-10.561000	25.214055	0.000235	20.765636
1426.399670	-2.986100	3.523700	-10.521000	25.227080	0.000234	20.784402
1427.399009	-2.985000	3.523700	-10.518000	25.228272	0.000234	20.774694
1428.400266	-2.982700	3.522600	-10.506000	25.210700	0.000233	20.773172
1429.408486	-2.996800	3.521300	-10.552000	25.228323	0.000233	20.791340
1430.401445	-2.998700	3.521700	-10.559000	25.218927	0.000233	20.778587
1431.400882	-2.984600	3.521300	-10.509000	25.216466	0.000232	20.763789
1432.403137	-2.974900	3.521800	-10.477000	25.203590	0.000233	20.789268
1433.402298	-3.008100	3.521300	-10.592000	25.248581	0.000231	20.780859
1434.403839	-2.997500	3.520900	-10.554000	25.220543	0.000232	20.787797
1435.407239	-3.013000	3.520100	-10.605000	25.222979	0.000230	20.770327
1436.402749	-3.008000	3.519200	-10.585000	25.229840	0.000227	20.775319
1437.403556	-3.002400	3.520300	-10.568000	25.226435	0.000229	20.795608
1438.410295	-2.995600	3.519200	-10.541000	25.224247	0.000230	20.793886
1439.404992	-3.010000	3.518600	-10.591000	25.220171	0.000231	20.796432
1440.403471	-2.989100	3.519900	-10.521000	25.206947	0.000230	20.793113
1441.408674	-3.001300	3.518200	-10.558000	25.214305	0.000228	20.800974
1442.404724	-3.004200	3.518300	-10.568000	25.200931	0.000229	20.789444
1443.404240	-2.998300	3.518000	-10.547000	25.210004	0.000229	20.792863
1444.407063	-3.010600	3.518100	-10.590000	25.207097	0.000228	20.779513
1445.403489	-3.005400	3.516600	-10.568000	25.204413	0.000226	20.796258
1446.404118	-2.999100	3.517600	-10.549000	25.220992	0.000226	20.783506
1447.408009	-2.969900	3.517100	-10.445000	25.237945	0.000227	20.771128
1448.405396	-3.012500	3.515100	-10.588000	25.226237	0.000225	20.775495
1449.404663	-2.994500	3.516400	-10.529000	25.248012	0.000226	20.795934
1450.408329	-2.994100	3.515900	-10.526000	25.219030	0.000222	20.784380
1451.404636	-3.017700	3.513600	-10.603000	25.233596	0.000225	20.764391
1452.404490	-2.993300	3.515400	-10.521000	25.229794	0.000223	20.779540
1453.408234	-3.012700	3.513900	-10.586000	25.243292	0.000223	20.797834
1454.404558	-2.993700	3.515200	-10.523000	25.235090	0.000221	20.793392
1455.405643	-2.993800	3.512800	-10.515000	25.239215	0.000221	20.784258
1456.409534	-3.003900	3.512700	-10.552000	25.222960	0.000221	20.798758
1457.407206	-3.022100	3.512600	-10.615000	25.231287	0.000222	20.787204
1458.408131	-3.001800	3.513800	-10.547000	25.262333	0.000219	20.807942
1459.411121	-2.994000	3.514400	-10.521000	25.249980	0.000221	20.774676
1460.408003	-2.982600	3.513700	-10.480000	25.236956	0.000220	20.780092
1461.408245	-3.026400	3.512500	-10.629000	25.264919	0.000218	20.783985
1462.411281	-3.004500	3.513100	-10.554000	25.271332	0.000220	20.786157
1463.407049	-3.006100	3.511100	-10.554000	25.259650	0.000218	20.803826
1464.413659	-3.024800	3.510200	-10.616000	25.264323	0.000221	20.786232
1465.413636	-3.018300	3.510500	-10.595000	25.262882	0.000217	20.776724
1466.409883	-3.005100	3.510800	-10.549000	25.255947	0.000219	20.795367
1467.411122	-3.009300	3.509400	-10.559000	25.265890	0.000219	20.801556
1468.412299	-3.002100	3.509000	-10.534000	25.260472	0.000217	20.815082
1469.410213	-2.998200	3.510500	-10.523000	25.281749	0.000217	20.784762
1470.409947	-2.983900	3.509200	-10.471000	25.260746	0.000216	20.794495
1471.413540	-3.011400	3.508400	-10.564000	25.241780	0.000216	20.805325
1472.411873	-2.981800	3.508100	-10.459000	25.271732	0.000217	20.798887
1473.410897	-2.994900	3.508500	-10.506000	25.278246	0.000216	20.810168
1474.412034	-3.022300	3.507500	-10.600000	25.269398	0.000214	20.809819
1475.413810	-3.016200	3.508000	-10.580000	25.268105	0.000215	20.806625
1476.412526	-3.011800	3.506800	-10.561000	25.292091	0.000214	20.794671
1477.413749	-3.004800	3.507100	-10.537000	25.282149	0.000213	20.794172
1478.412057	-2.998600	3.507200	-10.516000	25.271685	0.000215	20.807849
1479.417079	-3.022800	3.505900	-10.597000	25.271685	0.000213	20.808323
1480.414237	-3.030800	3.506400	-10.626000	25.273998	0.000212	20.802110
1481.415361	-2.999700	3.505700	-10.515000	25.264081	0.000214	20.816334
1482.413161	-3.014400	3.505300	-10.565000	25.273427	0.000212	20.813864
1483.416446	-2.999600	3.506000	-10.515000	25.286377	0.000210	20.808374
1484.412926	-3.000300	3.505200	-10.516000	25.283321	0.000209	20.825220
1485.415577	-2.974700	3.505500	-10.428000	25.296991	0.000210	20.816660
1486.416236	-2.994700	3.503900	-10.492000	25.295028	0.000210	20.807103
1487.414884	-2.999200	3.504300	-10.509000	25.267935	0.000209	20.816885
1488.413346	-2.996500	3.503100	-10.496000	25.269128	0.000210	20.821876
1489.420440	-3.002900	3.503500	-10.520000	25.271638	0.000210	20.820603
1490.417006	-3.007300	3.502500	-10.531000	25.274498	0.000207	20.826793
1491.413851	-3.003900	3.502100	-10.519000	25.280712	0.000208	20.820704
1492.419522	-2.992600	3.502600	-10.480000	25.273976	0.000208	20.805407
1493.415001	-3.005700	3.502200	-10.525000	25.266221	0.000207	20.824173
1494.415158	-2.990300	3.501500	-10.469000	25.261176	0.000207	20.821953
1495.417992	-3.002900	3.500900	-10.511000	25.283422	0.000206	20.829115
1496.415517	-3.014800	3.501000	-10.554000	25.293835	0.000206	20.823449
1497.414358	-2.989200	3.501600	-10.466000	25.290730	0.000205	20.819383
1498.420283	-3.010800	3.500400	-10.538000	25.294807	0.000206	20.824424
1499.416833	-3.029400	3.499100	-10.599000	25.288791	0.000205	20.823601
1500.415646	-3.008800	3.500800	-10.533000	25.280515	0.000205	20.835679
1501.420554	-2.992700	3.498900	-10.470000	25.290631	0.000204	20.823077
1502.416965	-3.000000	3.499500	-10.498000	25.319389	0.000204	20.831088
1503.419024	-2.999400	3.499200	-10.495000	25.283522	0.000203	20.841069
1504.422767	-3.003600	3.499200	-10.509000	25.313697	0.000204	20.835805
1505.419709	-3.005100	3.498900	-10.514000	25.305718	0.000203	20.832060
1506.419209	-2.991600	3.498700	-10.466000	25.317525	0.000201	20.838225
1507.422300	-3.001800	3.498600	-10.500000	25.291899	0.000201	20.852798
1508.420282	-3.005300	3.497700	-10.510000	25.265329	0.000202	20.812847
1509.419693	-3.000100	3.496900	-10.490000	25.290284	0.000200	20.839797
1510.425868	-2.998000	3.497000	-10.483000	25.311734	0.000201	20.840471
1511.422144	-2.996100	3.495800	-10.473000	25.293888	0.000200	20.838200
1512.421524	-2.990500	3.495800	-10.454000	25.296548	0.000200	20.845138
1513.424329	-3.000700	3.495100	-10.487000	25.294833	0.000199	20.857166
1514.422478	-2.989400	3.495100	-10.446000	25.298760	0.000200	20.846885
1515.421161	-3.001600	3.495000	-10.490000	25.291155	0.000197	20.825499
1516.423633	-3.014100	3.494900	-10.532000	25.293591	0.000198	20.827471
1517.423492	-3.007900	3.494100	-10.508000	25.287750	0.000198	20.854796
1518.424720	-2.990800	3.495300	-10.452000	25.303011	0.000197	20.839774
1519.424067	-3.015800	3.493200	-10.534000	25.298388	0.000198	20.857416
1520.427717	-2.989200	3.493800	-10.442000	25.313899	0.000197	20.828420
1521.426387	-2.981000	3.493300	-10.412000	25.307611	0.000196	20.849607
1522.426071	-2.977100	3.493700	-10.401000	25.284942	0.000194	20.851503
1523.424618	-2.985400	3.493200	-10.428000	25.298812	0.000196	20.834609
1524.425678	-2.996600	3.492000	-10.462000	25.323543	0.000194	20.859439
1525.425255	-2.994800	3.492500	-10.458000	25.314395	0.000196	20.840772
1526.424871	-3.006000	3.491400	-10.494000	25.321828	0.000192	20.845864
1527.426477	-3.002700	3.490700	-10.481000	25.309599	0.000194	20.843069
1528.428917	-2.998700	3.491600	-10.469000	25.314098	0.000193	20.854224
1529.428207	-3.002200	3.491100	-10.480000	25.342333	0.000194	20.856021
1530.426917	-2.991800	3.489500	-10.439000	25.316161	0.000191	20.832588
1531.429891	-2.983900	3.491400	-10.417000	25.304629	0.000192	20.847562
1532.427547	-2.985300	3.490500	-10.419000	25.323072	0.000191	20.855173
1533.429623	-2.983300	3.489600	-10.409000	25.301622	0.000192	20.863508
1534.434766	-2.998900	3.488800	-10.461000	25.316335	0.000191	20.850781
1535.432148	-3.011700	3.487600	-10.503000	25.315666	0.000190	20.839677
1536.432051	-2.999900	3.487800	-10.462000	25.317577	0.000191	20.864355
1537.436737	-3.019300	3.487100	-10.528000	25.320909	0.000191	20.835933
1538.432171	-3.010500	3.486900	-10.496000	25.320313	0.000190	20.888436
1539.432642	-3.008000	3.488100	-10.491000	25.315367	0.000188	20.871618
1540.436232	-3.008800	3.486900	-10.491000	25.315516	0.000190	20.869397
1541.433124	-2.988000	3.486500	-10.417000	25.321307	0.000188	20.871892
1542.433875	-2.994900	3.486300	-10.441000	25.334654	0.000188	20.874862
1543.435486	-3.022500	3.485000	-10.533000	25.325035	0.000189	20.856670
1544.432698	-2.994900	3.486000	-10.439000	25.340371	0.000188	20.873016
1545.433994	-3.025700	3.485400	-10.544000	25.339475	0.000188	20.888236
1546.436982	-3.007200	3.485700	-10.481000	25.343477	0.000188	20.874712
1547.435720	-3.001600	3.485800	-10.462000	25.347279	0.000184	20.859565
1548.436961	-2.986700	3.485400	-10.409000	25.357246	0.000185	20.863408
1549.435049	-2.970800	3.486200	-10.355000	25.358712	0.000185	20.871992
1550.438790	-2.996900	3.483800	-10.440000	25.327694	0.000186	20.858392
1551.437856	-2.995000	3.485100	-10.437000	25.352400	0.000184	20.881774
1552.437545	-3.001900	3.483400	-10.456000	25.348919	0.000185	20.880650
1553.439946	-3.025800	3.481700	-10.535000	25.344644	0.000184	20.878728
1554.441238	-2.980400	3.483000	-10.380000	25.337957	0.000183	20.872963
1555.437571	-2.997400	3.482900	-10.438000	25.334776	0.000182	20.893476
1556.442781	-3.001700	3.482600	-10.453000	25.346308	0.000182	20.880399
1557.442302	-3.005000	3.481000	-10.460000	25.350112	0.000183	20.867150
1558.439714	-3.011000	3.481400	-10.482000	25.360650	0.000182	20.875834
1559.440719	-3.003300	3.480700	-10.452000	25.357543	0.000181	20.859439
1560.442369	-2.988400	3.481100	-10.402000	25.359407	0.000183	20.881698
1561.441400	-3.001300	3.479900	-10.444000	25.362165	0.000179	20.876881
1562.442223	-3.001400	3.479300	-10.442000	25.346060	0.000179	20.876832
1563.441753	-2.988100	3.479600	-10.396000	25.365521	0.000180	20.853699
1564.440328	-2.989800	3.480400	-10.404000	25.357294	0.000179	20.895223
1565.442311	-3.010100	3.479000	-10.471000	25.350385	0.000180	20.892552
1566.446423	-2.963800	3.480000	-10.313000	25.363906	0.000178	20.898068
1567.441976	-2.992000	3.478500	-10.406000	25.347354	0.000178	20.871493
1568.442623	-3.008700	3.477600	-10.462000	25.365274	0.000176	20.881898
1569.444135	-3.026400	3.477400	-10.523000	25.349120	0.000177	20.896972
1570.442991	-3.022200	3.476900	-10.507000	25.378844	0.000177	20.886515
1571.444943	-3.008200	3.477100	-10.459000	25.360676	0.000177	20.910471
1572.441231	-2.999500	3.476400	-10.426000	25.374371	0.000175	20.898144
1573.441524	-2.991500	3.477500	-10.402000	25.368580	0.000176	20.901812
1574.447041	-3.007600	3.475400	-10.451000	25.378049	0.000175	20.880502
1575.452436	-2.967700	3.476200	-10.315000	25.357893	0.000175	20.894875
1576.443792	-2.997800	3.475500	-10.418000	25.378124	0.000175	20.902386
1577.445887	-3.009200	3.475700	-10.458000	25.372606	0.000175	20.875037
1578.444211	-2.997300	3.474400	-10.413000	25.385505	0.000174	20.911694
1579.442370	-2.969600	3.475700	-10.321000	25.387071	0.000173	20.890034
1580.458906	-3.022300	3.473400	-10.497000	25.387617	0.000173	20.882997
1581.446317	-3.021000	3.473600	-10.493000	25.384261	0.000174	20.900963
1582.444576	-3.010900	3.474100	-10.460000	25.380733	0.000173	20.886989
1583.449250	-2.994300	3.473600	-10.399000	25.373078	0.000170	20.899217
1584.446103	-3.042600	3.473100	-10.566000	25.373301	0.000171	20.898967
1585.445419	-3.013700	3.472200	-10.463000	25.392861	0.000173	20.906753
1586.450611	-3.004600	3.472800	-10.434000	25.389331	0.000172	20.907949
1587.448310	-2.988200	3.471500	-10.373000	25.380458	0.000173	20.896670
1588.447674	-2.987200	3.471700	-10.370000	25.389455	0.000171	20.908547
1589.451897	-2.990100	3.471200	-10.379000	25.386324	0.000171	20.890232
1590.449602	-2.998900	3.472100	-10.411000	25.384036	0.000170	20.886513
1591.450022	-2.982800	3.471400	-10.353000	25.366465	0.000167	20.904430
1592.451633	-2.988400	3.471800	-10.374000	25.390994	0.000168	20.884965
1593.449286	-2.998300	3.470500	-10.405000	25.372429	0.000169	20.901410
1594.448545	-2.999600	3.470500	-10.409000	25.395866	0.000168	20.878004
1595.453624	-3.000300	3.469800	-10.409000	25.384111	0.000168	20.886588
1596.449737	-2.987200	3.469400	-10.363000	25.396834	0.000170	20.891303
1597.448347	-2.998100	3.470200	-10.403000	25.384532	0.000169	20.874210
1598.450210	-3.034300	3.467600	-10.520000	25.408912	0.000165	20.886362
1599.449601	-3.011200	3.467200	-10.438000	25.408440	0.000166	20.881621
1600.451383	-3.003100	3.467600	-10.413000	25.381176	0.000167	20.875108
1601.451129	-3.005200	3.467800	-10.420000	25.383984	0.000166	20.872711
1602.449908	-2.972700	3.468800	-10.311000	25.392808	0.000167	20.872563
1603.451509	-3.005000	3.467200	-10.417000	25.387688	0.000167	20.865525
1604.451542	-3.003300	3.467400	-10.413000	25.382344	0.000166	20.873435
1605.450412	-2.996100	3.468000	-10.389000	25.401406	0.000164	20.843265
1606.454414	-2.997200	3.467400	-10.391000	25.411124	0.000165	20.864402
1607.452234	-3.014000	3.465800	-10.446000	25.402923	0.000166	20.845262
1608.453222	-2.999300	3.466100	-10.395000	25.404090	0.000163	20.863504
1609.455940	-3.027900	3.466500	-10.495000	25.386470	0.000162	20.863354
1610.453480	-3.031900	3.463700	-10.500000	25.416765	0.000165	20.861058
1611.451377	-3.013300	3.464100	-10.437000	25.402650	0.000162	20.859687
1612.455347	-3.016900	3.463000	-10.446000	25.394622	0.000162	20.845463
1613.452846	-3.007600	3.464600	-10.420000	25.397976	0.000163	20.848356
1614.452178	-2.991200	3.464600	-10.363000	25.397928	0.000162	20.846885
1615.456307	-3.003000	3.463400	-10.399000	25.390223	0.000163	20.852424
1616.451807	-3.038900	3.462700	-10.522000	25.413982	0.000161	20.837875
1617.453171	-3.000900	3.462700	-10.390000	25.400538	0.000162	20.849032
1618.453998	-3.004500	3.462700	-10.403000	25.390124	0.000160	20.839998
1619.452538	-2.951900	3.463900	-10.224000	25.414232	0.000160	20.853299
1620.455570	-2.980900	3.462000	-10.318000	25.415350	0.000158	20.859164
1621.454355	-3.010900	3.462400	-10.424000	25.392834	0.000158	20.847934
1622.456132	-3.009900	3.461000	-10.417000	25.394151	0.000161	20.861584
1623.454598	-2.997400	3.461200	-10.374000	25.395965	0.000159	20.838277
1624.455362	-2.962300	3.460900	-10.250000	25.391990	0.000159	20.863682
1625.452853	-3.026900	3.459600	-10.471000	25.410132	0.000159	20.850131
1626.459840	-3.017800	3.460900	-10.444000	25.400042	0.000158	20.839051
1627.454902	-2.987600	3.460200	-10.336000	25.404963	0.000157	20.845415
1628.454994	-2.996800	3.460200	-10.368000	25.409187	0.000155	20.848234
1629.455596	-3.008200	3.459100	-10.405000	25.401534	0.000157	20.837230
1630.453765	-3.005900	3.459700	-10.399000	25.399048	0.000157	20.856544
1631.454071	-3.017100	3.458600	-10.434000	25.386274	0.000156	20.820960
1632.457866	-3.023600	3.457900	-10.453000	25.404988	0.000155	20.840698
1633.454939	-3.009900	3.458100	-10.407000	25.410928	0.000155	20.838128
1634.453882	-3.011500	3.456300	-10.408000	25.410754	0.000154	20.847437
1635.457325	-2.998000	3.457700	-10.365000	25.417689	0.000153	20.845391
1636.455243	-3.017400	3.457700	-10.432000	25.412518	0.000154	20.831191
1637.453824	-3.016200	3.456300	-10.423000	25.420174	0.000154	20.842196
1638.456519	-3.012900	3.457100	-10.415000	25.407175	0.000153	20.845265
1639.453494	-2.988100	3.456200	-10.326000	25.418608	0.000153	20.845366
1640.452621	-2.989300	3.456000	-10.330000	25.408641	0.000152	20.828246
1641.454890	-2.995400	3.455800	-10.349000	25.413911	0.000152	20.838279
1642.454681	-2.999200	3.455800	-10.363000	25.414682	0.000151	20.819139
1643.455197	-3.020500	3.454100	-10.432000	25.412072	0.000151	20.835484
1644.458754	-2.984400	3.454200	-10.308000	25.426188	0.000151	20.829270
1645.457671	-2.977000	3.455200	-10.285000	25.409338	0.000150	20.840799
1646.457965	-2.982800	3.453600	-10.301000	25.394998	0.000148	20.839676
1647.460577	-3.025100	3.453600	-10.447000	25.404766	0.000149	20.820561
1648.458777	-2.977300	3.453900	-10.282000	25.392587	0.000148	20.837256
1649.457467	-2.971700	3.453700	-10.262000	25.409115	0.000148	20.823506
1650.459574	-3.007300	3.452100	-10.380000	25.406206	0.000150	20.834335
1651.459632	-2.998900	3.453200	-10.356000	25.424771	0.000148	20.822158
1652.458791	-2.979700	3.453400	-10.290000	25.416695	0.000147	20.822108
1653.459583	-2.981200	3.451600	-10.289000	25.400714	0.000147	20.833562
1654.458225	-2.989900	3.450900	-10.317000	25.422932	0.000145	20.833587
1655.459482	-3.004100	3.450200	-10.364000	25.434017	0.000145	20.811528
1656.459413	-3.009600	3.450300	-10.383000	25.435284	0.000146	20.825601
1657.460690	-3.000800	3.450200	-10.353000	25.452059	0.000144	20.830119
1658.458137	-3.003500	3.449600	-10.360000	25.444454	0.000143	20.812525
1659.461732	-2.982700	3.449600	-10.288000	25.446642	0.000146	20.826101
1660.464174	-3.008600	3.448600	-10.374000	25.438291	0.000145	20.812501
1661.459449	-2.991100	3.448300	-10.313000	25.439584	0.000144	20.825178
1662.460287	-2.991300	3.449200	-10.317000	25.432724	0.000143	20.806911
1663.457697	-2.991600	3.448000	-10.314000	25.437570	0.000143	20.813199
1664.460406	-3.003300	3.447900	-10.353000	25.446095	0.000142	20.817018
1665.461627	-3.005000	3.446000	-10.354000	25.405636	0.000142	20.815271
1666.460537	-3.009400	3.447400	-10.374000	25.421193	0.000141	20.812875
1667.459143	-3.017800	3.446500	-10.401000	25.441150	0.000141	20.829596
1668.463309	-2.995000	3.446900	-10.322000	25.443859	0.000142	20.814773
1669.465445	-3.010700	3.445600	-10.372000	25.426190	0.000139	20.815048
1670.464388	-2.965900	3.447400	-10.224000	25.425568	0.000139	20.827225
1671.466158	-2.991600	3.446100	-10.308000	25.423357	0.000141	20.814574
1672.462315	-2.987700	3.445100	-10.292000	25.420101	0.000140	20.827899
1673.464082	-3.014600	3.443000	-10.378000	25.406183	0.000139	20.820088
1674.471984	-3.005100	3.445000	-10.352000	25.406607	0.000138	20.806763
1675.465025	-3.021700	3.442600	-10.401000	25.413790	0.000137	20.830097
1676.465715	-3.004500	3.443600	-10.346000	25.419580	0.000139	20.804143
1677.464325	-2.980800	3.445100	-10.268000	25.416996	0.000137	20.805816
1678.463837	-2.995000	3.442600	-10.310000	25.429945	0.000137	20.808387
1679.470361	-2.969800	3.444900	-10.230000	25.426243	0.000136	20.813204
1680.465250	-3.008800	3.442900	-10.357000	25.436207	0.000136	20.808037
1681.464540	-3.007000	3.442100	-10.350000	25.423485	0.000139	20.817073
1682.465616	-2.993700	3.442800	-10.306000	25.431014	0.000135	20.782434
1683.467469	-3.012600	3.440500	-10.364000	25.423212	0.000134	20.806368
1684.467244	-3.005600	3.440900	-10.341000	25.436881	0.000133	20.817722
1685.466582	-3.014600	3.440900	-10.372000	25.417942	0.000136	20.796809
1686.471236	-2.997400	3.440400	-10.312000	25.425995	0.000134	20.818646
1687.469884	-3.017300	3.440100	-10.379000	25.418937	0.000134	20.819145
1688.469550	-2.973800	3.441200	-10.232000	25.408052	0.000133	20.801102
1689.470167	-2.975200	3.440800	-10.236000	25.460465	0.000134	20.802050
1690.469978	-2.983300	3.439900	-10.261000	25.439814	0.000132	20.815452
1691.474728	-3.006900	3.439000	-10.340000	25.426643	0.000131	20.802701
1692.469628	-3.006500	3.438400	-10.337000	25.423984	0.000132	20.827057
1693.472677	-3.014200	3.438000	-10.362000	25.431316	0.000133	20.814505
1694.473681	-3.022000	3.437800	-10.388000	25.429800	0.000132	20.817250
1695.471475	-2.988900	3.437700	-10.274000	25.447071	0.000131	20.804248
1696.474414	-2.999800	3.436700	-10.309000	25.425104	0.000129	20.800681
1697.472569	-2.992200	3.438000	-10.286000	25.439718	0.000132	20.794019
1698.472883	-3.012800	3.436900	-10.354000	25.438350	0.000130	20.802602
1699.472996	-2.989300	3.436300	-10.272000	25.455647	0.000130	20.821394
1700.475322	-3.012900	3.435300	-10.349000	25.432211	0.000128	20.802128
1701.477450	-3.003700	3.435100	-10.317000	25.432088	0.000129	20.790151
1702.475733	-2.986000	3.435900	-10.259000	25.454953	0.000128	20.795093
1703.476717	-2.996000	3.434400	-10.288000	25.464396	0.000127	20.795093
1704.474808	-3.011100	3.434400	-10.340000	25.443521	0.000127	20.794045
1705.476891	-3.001900	3.434600	-10.309000	25.442826	0.000129	20.818002
1706.477103	-3.003200	3.433200	-10.310000	25.442254	0.000127	20.795617
1707.480879	-2.998100	3.433500	-10.294000	25.443720	0.000124	20.803728
1708.475170	-3.007900	3.433200	-10.325000	25.474463	0.000125	20.787657
1709.479424	-2.993000	3.433600	-10.275000	25.455128	0.000125	20.793372
1710.476719	-2.995800	3.433200	-10.284000	25.444094	0.000124	20.806948
1711.479017	-3.005100	3.432600	-10.314000	25.437957	0.000124	20.789880
1712.476990	-3.021200	3.430700	-10.364000	25.436740	0.000123	20.796244
1713.477167	-2.991400	3.430900	-10.263000	25.444890	0.000124	20.800161
1714.480155	-3.002700	3.431000	-10.301000	25.429955	0.000125	20.775206
1715.478666	-2.985900	3.432100	-10.247000	25.438604	0.000123	20.800012
1716.480553	-3.026800	3.429900	-10.380000	25.447600	0.000121	20.797667
1717.478801	-3.006400	3.429800	-10.311000	25.461369	0.000122	20.789208
1718.488083	-2.996500	3.428900	-10.273000	25.424639	0.000122	20.794050
1719.486195	-2.994100	3.429300	-10.266000	25.441985	0.000122	20.804356
1720.480921	-3.020800	3.427200	-10.352000	25.437314	0.000120	20.793976
1721.480812	-3.000700	3.428900	-10.288000	25.448746	0.000121	20.790757
1722.479994	-2.977400	3.429100	-10.209000	25.429089	0.000122	20.791880
1723.480631	-2.990800	3.429300	-10.255000	25.438308	0.000120	20.796871
1724.479103	-3.004300	3.427500	-10.296000	25.439702	0.000119	20.785468
1725.479746	-3.006100	3.426700	-10.300000	25.443704	0.000119	20.799918
1726.484350	-3.013700	3.426200	-10.323000	25.465549	0.000118	20.797199
1727.480746	-2.995700	3.427700	-10.267000	25.435926	0.000120	20.772193
1728.480204	-3.028800	3.425900	-10.375000	25.440200	0.000118	20.788813
1729.484161	-3.018000	3.426200	-10.339000	25.451808	0.000118	20.794779
1730.482670	-2.980500	3.426200	-10.211000	25.439953	0.000118	20.764857
1731.482594	-3.003500	3.425500	-10.287000	25.428870	0.000116	20.777436
1732.486858	-2.992200	3.425200	-10.248000	25.429964	0.000116	20.771422
1733.483590	-2.979600	3.424800	-10.203000	25.417414	0.000116	20.771148
1734.483478	-3.004200	3.423400	-10.283000	25.433145	0.000118	20.744744
1735.487950	-2.993500	3.424100	-10.249000	25.446618	0.000115	20.763963
1736.484639	-2.969800	3.424100	-10.168000	25.448456	0.000115	20.805164
1737.484140	-3.025200	3.422800	-10.354000	25.457602	0.000114	20.778312
1738.487898	-2.993100	3.423500	-10.246000	25.450445	0.000114	20.787247
1739.486098	-2.979300	3.423500	-10.198000	25.464040	0.000113	20.780036
1740.485558	-3.018200	3.422400	-10.327000	25.449999	0.000112	20.793911
1741.490107	-3.008000	3.421200	-10.290000	25.466128	0.000113	20.773124
1742.488974	-2.990400	3.421700	-10.232000	25.464414	0.000111	20.769032
1743.489865	-2.986100	3.421400	-10.215000	25.458923	0.000113	20.773949
1744.492774	-2.982000	3.421400	-10.202000	25.453928	0.000112	20.788374
1745.489422	-3.010400	3.420300	-10.295000	25.465460	0.000112	20.780513
1746.488371	-2.999500	3.422400	-10.264000	25.455196	0.000111	20.790121
1747.495657	-2.995400	3.420600	-10.245000	25.461534	0.000110	20.765191
1748.491291	-3.013400	3.419100	-10.302000	25.461012	0.000111	20.771779
1749.491678	-3.010000	3.418700	-10.290000	25.466282	0.000108	20.764744
1750.494093	-3.006900	3.418200	-10.278000	25.446525	0.000109	20.769086
1751.492083	-2.986700	3.419500	-10.212000	25.492253	0.000109	20.747675
1752.493904	-2.997800	3.418300	-10.246000	25.463624	0.000107	20.769187
1753.494289	-3.008200	3.418000	-10.281000	25.474657	0.000106	20.770309
1754.492729	-3.011700	3.417600	-10.292000	25.476970	0.000106	20.757932
1755.491783	-2.976100	3.418500	-10.173000	25.466582	0.000105	20.760303
1756.492537	-2.979800	3.417600	-10.183000	25.460145	0.000106	20.760477
1757.493346	-2.992700	3.416500	-10.222000	25.479230	0.000106	20.767789
1758.493735	-3.012600	3.415700	-10.288000	25.484103	0.000103	20.756086
1759.494729	-3.000500	3.415700	-10.248000	25.466881	0.000104	20.759655
1760.493276	-3.023200	3.414200	-10.320000	25.481817	0.000104	20.766119
1761.494623	-3.005100	3.415200	-10.262000	25.491508	0.000103	20.758307
1762.496782	-2.994900	3.416300	-10.231000	25.475431	0.000103	20.749274
1763.494635	-3.019900	3.413900	-10.309000	25.493447	0.000103	20.761203
1764.493478	-2.978200	3.415700	-10.171000	25.470161	0.000104	20.776700
1765.494708	-2.995400	3.415400	-10.229000	25.475008	0.000103	20.766394
1766.493832	-3.012900	3.414100	-10.286000	25.482463	0.000103	20.759182
1767.496902	-3.004800	3.412800	-10.253000	25.458158	0.000101	20.751844
1768.499343	-2.998500	3.412200	-10.231000	25.490739	0.000101	20.730033
1769.498151	-3.011300	3.414100	-10.280000	25.481643	0.000100	20.765944
1770.499400	-3.007400	3.412700	-10.263000	25.483135	9.923225E-5	20.754166
1771.501615	-2.989800	3.412800	-10.203000	25.492875	9.745052E-5	20.758731
1772.499186	-3.022000	3.411500	-10.308000	25.468546	9.959519E-5	20.758482
1773.499505	-3.004600	3.410800	-10.247000	25.498987	0.000101	20.760602
1774.501364	-2.978500	3.412100	-10.162000	25.499832	9.847336E-5	20.742484
1775.498931	-3.013800	3.409700	-10.275000	25.488774	9.662565E-5	20.748449
1776.498738	-3.016900	3.410400	-10.288000	25.476472	9.712057E-5	20.757906
1777.500878	-3.005800	3.410600	-10.250000	25.498962	9.698859E-5	20.732601
1778.499589	-3.012800	3.409900	-10.272000	25.483678	9.682362E-5	20.755660
1779.500912	-2.996700	3.409500	-10.216000	25.488326	9.484392E-5	20.730928
1780.501693	-2.989200	3.408900	-10.189000	25.497048	9.477793E-5	20.760551
1781.501039	-2.974900	3.408800	-10.140000	25.490761	9.372209E-5	20.760401
1782.499593	-3.019800	3.408200	-10.291000	25.493766	9.405204E-5	20.761049
1783.502206	-3.002100	3.407300	-10.229000	25.483553	9.405204E-5	20.762173
1784.501165	-2.998900	3.407600	-10.218000	25.482708	9.187438E-5	20.731925
1785.499329	-2.978400	3.408500	-10.151000	25.492574	9.464595E-5	20.771231
1786.502211	-3.013200	3.406400	-10.263000	25.494736	9.246829E-5	20.723141
1787.500271	-2.995400	3.406700	-10.203000	25.493543	9.279824E-5	20.765566
1788.504268	-3.027400	3.406300	-10.310000	25.504302	9.312819E-5	20.744602
1789.505457	-3.006200	3.405900	-10.238000	25.490784	9.081854E-5	20.759477
1790.501961	-3.011300	3.405100	-10.253000	25.511484	9.246829E-5	20.765091
1791.502983	-2.997500	3.404100	-10.203000	25.519834	9.444798E-5	20.744552
1792.506686	-3.002000	3.406900	-10.226000	25.508776	9.352413E-5	20.731550
1793.502994	-3.010700	3.403300	-10.245000	25.501371	9.161042E-5	20.724114
1794.502285	-3.030900	3.404200	-10.317000	25.480496	9.104951E-5	20.751516
1795.502844	-2.987700	3.404300	-10.170000	25.489715	8.864088E-5	20.737065
1796.504036	-2.994400	3.403200	-10.189000	25.495232	9.032362E-5	20.752089
1797.503352	-3.011200	3.403100	-10.245000	25.497195	8.860788E-5	20.742681
1798.506542	-3.003100	3.403000	-10.219000	25.498685	9.078555E-5	20.750815
1799.505919	-3.004400	3.403300	-10.224000	25.498486	8.916880E-5	20.751563
1800.504281	-3.016800	3.401600	-10.261000	25.508476	8.761803E-5	20.750216
1801.508900	-2.992100	3.403700	-10.183000	25.503656	8.883885E-5	20.753910
1802.504718	-3.013100	3.400900	-10.246000	25.504053	8.926778E-5	20.747671
1803.504527	-2.976700	3.402100	-10.126000	25.486309	8.834392E-5	20.752611
1804.504711	-2.986300	3.401600	-10.158000	25.516528	8.666118E-5	20.752138
1805.507198	-3.006100	3.401600	-10.224000	25.512378	8.435154E-5	20.745125
1806.508158	-3.010200	3.400900	-10.237000	25.487875	8.606727E-5	20.764142
1807.505947	-3.009600	3.399200	-10.228000	25.502809	8.553935E-5	20.739784
1808.505902	-2.988600	3.400400	-10.160000	25.518440	8.534139E-5	20.751214
1809.508208	-2.991700	3.400000	-10.170000	25.513545	8.695814E-5	20.750565
1810.506455	-2.996300	3.399000	-10.183000	25.510290	8.593529E-5	20.736390
1811.512593	-3.007400	3.399800	-10.223000	25.510116	8.610027E-5	20.753760
1812.509277	-3.005100	3.398900	-10.212000	25.532505	8.451651E-5	20.737363
1813.506097	-2.983900	3.398600	-10.141000	25.535312	8.359265E-5	20.764839
1814.506783	-3.012300	3.397400	-10.234000	25.509593	8.494545E-5	20.754183
1815.509621	-2.992600	3.397700	-10.166000	25.517023	8.471448E-5	20.739358
1816.507001	-2.995900	3.397100	-10.175000	25.532504	8.184392E-5	20.754906
1817.506989	-2.980900	3.397200	-10.126000	25.529373	8.204189E-5	20.765986
1818.509286	-2.973300	3.397600	-10.102000	25.520253	8.157996E-5	20.738335
1819.507694	-3.008900	3.395800	-10.216000	25.519608	8.108504E-5	20.745273
1820.507434	-2.990600	3.396300	-10.155000	25.552906	8.197590E-5	20.760222
1821.510870	-3.012300	3.394500	-10.223000	25.515357	8.085408E-5	20.737685
1822.508990	-2.968700	3.397000	-10.082000	25.550620	7.907235E-5	20.755556
1823.508536	-2.996600	3.395700	-10.175000	25.514115	7.943529E-5	20.746870
1824.509728	-2.992000	3.396000	-10.160000	25.540058	7.979824E-5	20.755379
1825.508542	-2.992200	3.394600	-10.158000	25.512724	7.927032E-5	20.757801
1826.508851	-3.018000	3.393900	-10.242000	25.551986	7.742260E-5	20.734641
1827.512202	-2.979400	3.394300	-10.112000	25.542543	7.923732E-5	20.751237
1828.515929	-3.015300	3.393600	-10.231000	25.514985	7.610281E-5	20.751063
1829.512099	-3.004100	3.393700	-10.195000	25.547288	7.870941E-5	20.744149
1830.512354	-3.002600	3.393700	-10.189000	25.542517	7.762057E-5	20.762117
1831.512060	-3.003900	3.393000	-10.191000	25.535163	7.732362E-5	20.730548
1832.516810	-3.008100	3.392600	-10.205000	25.544603	7.580585E-5	20.763738
1833.510383	-2.988100	3.392500	-10.136000	25.571317	7.570687E-5	20.737933
1834.514385	-3.008400	3.391400	-10.201000	25.536924	7.590484E-5	20.742275
1835.520995	-2.996200	3.390800	-10.158000	25.557698	7.488199E-5	20.750336
1836.512902	-3.021200	3.391400	-10.245000	25.544950	7.448606E-5	20.764561
1837.514311	-3.009800	3.391200	-10.206000	25.549348	7.366118E-5	20.738156
1838.514168	-3.031100	3.389600	-10.273000	25.566917	7.296829E-5	20.756275
1839.514490	-3.035900	3.389600	-10.289000	25.549870	7.451905E-5	20.754802
1840.512742	-3.033000	3.389100	-10.278000	25.554168	7.310027E-5	20.765283
1841.514379	-3.006800	3.390900	-10.195000	25.572208	7.214342E-5	20.764908
1842.513242	-3.013500	3.390500	-10.217000	25.555708	7.300128E-5	20.737905
1843.514405	-3.004700	3.388900	-10.182000	25.561001	7.151651E-5	20.756972
1844.520369	-3.008500	3.389200	-10.196000	25.555534	7.131854E-5	20.759068
1845.517185	-3.008000	3.388000	-10.190000	25.558838	7.115357E-5	20.751954
1846.513944	-3.041400	3.386900	-10.300000	25.533044	6.821702E-5	20.750707
1847.518340	-2.993200	3.388000	-10.140000	25.553843	7.098859E-5	20.765905
1848.515703	-2.984700	3.387700	-10.111000	25.543331	7.022971E-5	20.775737
1849.516448	-3.010100	3.386800	-10.194000	25.580157	7.052667E-5	20.779055
1850.521977	-3.006000	3.385300	-10.175000	25.572728	7.042768E-5	20.754998
1851.534426	-2.982600	3.386300	-10.099000	25.573795	6.673225E-5	20.765079
1852.517589	-2.985900	3.386700	-10.111000	25.552574	6.851397E-5	20.783597
1853.523371	-3.002400	3.385200	-10.163000	25.577621	6.696321E-5	20.743317
1854.519280	-2.997300	3.385400	-10.147000	25.564154	6.702920E-5	20.762983
1855.520723	-2.990900	3.386100	-10.126000	25.559631	6.663326E-5	20.778830
1856.522597	-3.014800	3.385000	-10.204000	25.550362	6.620433E-5	20.759089
1857.520687	-3.011800	3.384400	-10.192000	25.568900	6.679824E-5	20.767276
1858.524043	-3.010800	3.383700	-10.187000	25.559730	6.732616E-5	20.770395
1859.522284	-3.015900	3.383000	-10.202000	25.565024	6.290484E-5	20.762909
1860.521686	-3.011700	3.382600	-10.186000	25.556252	6.481854E-5	20.777333
1861.523804	-2.999600	3.382700	-10.145000	25.568454	6.491753E-5	20.759241
1862.523239	-3.009300	3.383200	-10.179000	25.557570	6.359773E-5	20.759690
1863.524196	-2.980500	3.381800	-10.079000	25.602024	6.402667E-5	20.755497
1864.525426	-2.966100	3.382700	-10.032000	25.574989	6.323479E-5	20.783349
1865.526115	-2.999100	3.379300	-10.134000	25.588383	6.142007E-5	20.775463
1866.523422	-2.994600	3.380900	-10.124000	25.581748	6.306981E-5	20.780179
1867.524655	-2.986200	3.380600	-10.094000	25.578170	6.310281E-5	20.778008
1868.524777	-2.989400	3.380700	-10.106000	25.599665	5.957235E-5	20.773517
1869.524036	-2.980900	3.380800	-10.077000	25.590546	6.168403E-5	20.757720
1870.525815	-3.002900	3.381100	-10.152000	25.595416	6.039722E-5	20.758343
1871.526843	-3.012500	3.381300	-10.186000	25.594695	6.026524E-5	20.793182
1872.528715	-3.013500	3.379300	-10.182000	25.593204	5.967133E-5	20.757544
1873.528545	-3.001000	3.378900	-10.139000	25.603542	5.917641E-5	20.766505
1874.529232	-2.967800	3.379600	-10.029000	25.595267	5.854951E-5	20.782376
1875.528905	-2.992400	3.377500	-10.105000	25.599243	5.897844E-5	20.774516
1876.532002	-2.993400	3.377300	-10.108000	25.599070	5.858250E-5	20.772919
1877.531291	-2.993100	3.377200	-10.108000	25.597828	5.779062E-5	20.776888
1878.527846	-3.014400	3.376900	-10.178000	25.585452	5.835154E-5	20.769675
1879.528898	-2.981900	3.378300	-10.072000	25.598150	5.795560E-5	20.760142
1880.531256	-2.994000	3.376900	-10.109000	25.612338	5.802159E-5	20.780556
1881.528308	-2.976600	3.377200	-10.052000	25.605879	5.729570E-5	20.778335
1882.529163	-3.002200	3.375400	-10.133000	25.598224	5.650382E-5	20.782028
1883.533478	-2.988500	3.377600	-10.092000	25.598946	5.732870E-5	20.777062
1884.531599	-2.995900	3.375800	-10.112000	25.591814	5.442514E-5	20.779857
1885.528387	-2.982500	3.376000	-10.068000	25.611694	5.521702E-5	20.782279
1886.535486	-3.016200	3.374700	-10.178000	25.606623	5.597590E-5	20.777187
1887.538124	-3.014200	3.375300	-10.172000	25.605954	5.393022E-5	20.778885
1888.530107	-3.027200	3.374100	-10.213000	25.595344	5.548098E-5	20.769652
1889.533401	-3.035400	3.374000	-10.240000	25.622552	5.346829E-5	20.776115
1890.529931	-2.981700	3.373500	-10.058000	25.604935	5.442514E-5	20.791139
1891.529450	-3.019500	3.373600	-10.186000	25.609657	5.125763E-5	20.775017
1892.534141	-2.994000	3.373200	-10.098000	25.609556	5.234646E-5	20.782503
1893.531760	-3.000600	3.372300	-10.118000	25.594275	5.204951E-5	20.787070
1894.530059	-3.011500	3.372200	-10.154000	25.623298	5.046575E-5	20.808632
1895.534412	-3.008900	3.371600	-10.144000	25.618675	5.175255E-5	20.787868
1896.531103	-3.005900	3.372200	-10.135000	25.617658	5.178555E-5	20.785898
1897.534529	-3.000700	3.370700	-10.114000	25.626776	5.079570E-5	20.792211
1898.536494	-3.001200	3.371900	-10.119000	25.665190	4.861803E-5	20.797127
1899.534530	-2.985500	3.372200	-10.067000	25.616389	4.947590E-5	20.783201
1900.535440	-2.965700	3.370500	-9.994600	25.624265	4.802413E-5	20.796801
1901.537622	-3.013300	3.369100	-10.152000	25.635050	4.802413E-5	20.796728
1902.534022	-2.996600	3.370100	-10.098000	25.634205	4.693529E-5	20.792560
1903.534779	-3.002200	3.369100	-10.113000	25.636516	4.617641E-5	20.775915
1904.537788	-2.988300	3.369100	-10.067000	25.631620	4.901397E-5	20.782377
1905.545591	-2.976800	3.368700	-10.026000	25.630950	4.634138E-5	20.795929
1906.535150	-2.983400	3.368800	-10.050000	25.657363	4.710027E-5	20.805861
1907.535233	-2.987100	3.368800	-10.062000	25.650827	4.304189E-5	20.786020
1908.533438	-2.997000	3.368800	-10.095000	25.660641	4.716626E-5	20.806783
1909.533737	-3.006400	3.368100	-10.125000	25.659299	4.485661E-5	20.809229
1910.537250	-2.971000	3.369100	-10.008000	25.648119	4.479062E-5	20.807009
1911.534472	-3.008200	3.367400	-10.129000	25.642478	4.673732E-5	20.792334
1912.535141	-2.997700	3.365800	-10.088000	25.662479	4.356981E-5	20.810526
1913.535691	-2.993500	3.366600	-10.077000	25.655225	4.422971E-5	20.790438
1914.534654	-3.003800	3.365600	-10.109000	25.686680	4.406473E-5	20.797375
1915.532863	-3.019500	3.365300	-10.160000	25.669808	4.531854E-5	20.808878
1916.534491	-3.021800	3.364000	-10.164000	25.666429	4.231600E-5	20.819235
1917.534525	-3.002400	3.364500	-10.100000	25.659447	4.257996E-5	20.805584
1918.533808	-3.017700	3.364400	-10.152000	25.696071	4.337184E-5	20.816764
1919.535947	-3.008600	3.364100	-10.119000	25.662529	4.086423E-5	20.825748
1920.534046	-3.011600	3.363200	-10.127000	25.679671	3.984138E-5	20.842491
1921.534567	-3.016700	3.362700	-10.143000	25.688643	3.937945E-5	20.807407
1922.537989	-3.005900	3.364500	-10.113000	25.694158	3.848859E-5	20.803937
1923.534999	-2.989800	3.363300	-10.055000	25.668566	3.885154E-5	20.819958
1924.536877	-3.006900	3.361700	-10.107000	25.670256	3.835661E-5	20.812172
1925.535414	-2.999600	3.362500	-10.085000	25.679573	3.928047E-5	20.806832
1926.535499	-3.014500	3.361500	-10.132000	25.695152	3.746575E-5	20.820582
1927.537583	-3.004900	3.362600	-10.103000	25.686158	4.013834E-5	20.811075
1928.536415	-2.994400	3.362300	-10.067000	25.701116	3.763072E-5	20.825625
1929.537839	-2.977500	3.361300	-10.007000	25.698731	3.644291E-5	20.803315
1930.539465	-3.005500	3.361700	-10.102000	25.697139	3.713580E-5	20.805983
1931.540232	-3.001400	3.360600	-10.085000	25.704346	3.443021E-5	20.823179
1932.539040	-2.978900	3.360300	-10.009000	25.689810	3.548605E-5	20.812847
1933.556687	-2.997300	3.360500	-10.071000	25.694806	3.545306E-5	20.808381
1934.539326	-2.998200	3.358600	-10.069000	25.698160	3.476016E-5	20.823604
1935.540850	-3.002200	3.359400	-10.085000	25.698781	3.429823E-5	20.813796
1936.544847	-2.995000	3.359800	-10.062000	25.728745	3.248351E-5	20.830616
1937.543705	-2.998900	3.358300	-10.070000	25.707577	3.472717E-5	20.811251
1938.544860	-2.983900	3.360100	-10.024000	25.713192	3.353935E-5	20.820684
1939.544234	-2.995600	3.357900	-10.058000	25.719653	3.096575E-5	20.807734
1940.544394	-2.995800	3.358800	-10.061000	25.734410	3.317641E-5	20.813547
1941.547978	-2.988300	3.359000	-10.036000	25.707776	3.030585E-5	20.808606
1942.544430	-2.989200	3.356700	-10.033000	25.738908	3.136169E-5	20.823281
1943.546590	-2.973400	3.358300	-9.984700	25.742162	3.106473E-5	20.816592
1944.547956	-2.988700	3.356700	-10.031000	25.733267	3.129570E-5	20.844641
1945.544236	-3.002400	3.355800	-10.075000	25.723753	2.898605E-5	20.828921
1946.545727	-3.039700	3.354200	-10.194000	25.750710	2.987691E-5	20.830867
1947.547885	-3.007000	3.355700	-10.090000	25.733666	2.911803E-5	20.824654
1948.544148	-3.011000	3.354300	-10.099000	25.741641	2.703935E-5	20.837405
1949.543011	-2.984400	3.356400	-10.016000	25.734013	2.822717E-5	20.852502
1950.548019	-3.017300	3.353900	-10.119000	25.734586	2.802920E-5	20.854025
1951.545122	-2.985000	3.354400	-10.012000	25.755828	2.736930E-5	20.823681
1952.546402	-3.004300	3.353800	-10.075000	25.758063	2.756727E-5	20.817865
1953.550035	-3.020000	3.353600	-10.126000	25.741566	2.690737E-5	20.818364
1954.543499	-2.989900	3.352800	-10.024000	25.767902	2.905204E-5	20.822058
1955.546596	-3.005800	3.352500	-10.076000	25.752076	2.581854E-5	20.838404
1956.551095	-2.999500	3.352000	-10.053000	25.778039	2.614849E-5	20.851205
1957.544869	-2.997100	3.351200	-10.042000	25.760350	2.651143E-5	20.836757
1958.545177	-3.024200	3.349900	-10.130000	25.772275	2.601651E-5	20.844942
1959.550220	-3.001300	3.350700	-10.056000	25.767505	2.730331E-5	20.827349
1960.550171	-2.980700	3.351700	-9.989200	25.776598	2.522463E-5	20.844069
1961.550290	-3.008600	3.349700	-10.076000	25.774686	2.403681E-5	20.837407
1962.550557	-2.984100	3.350400	-9.996800	25.775977	2.383884E-5	20.838704
1963.548356	-3.030700	3.350000	-10.151000	25.769667	2.284899E-5	20.848012
1964.549081	-3.011600	3.350200	-10.087000	25.763953	2.324493E-5	20.807186
1965.554806	-2.989300	3.350800	-10.015000	25.791605	2.146321E-5	20.850134
1966.549256	-2.972800	3.349900	-9.956500	25.797045	2.096828E-5	20.848960
1967.548603	-3.014100	3.349300	-10.094000	25.788202	2.212310E-5	20.836284
1968.549870	-2.983500	3.348300	-9.988800	25.789841	2.093529E-5	20.848362
1969.548297	-3.005700	3.348000	-10.062000	25.795033	2.321194E-5	20.851206
1970.549885	-3.022800	3.346800	-10.115000	25.792301	1.991244E-5	20.861264
1971.550921	-2.989600	3.347400	-10.006000	25.817342	2.044036E-5	20.856072
1972.555970	-2.997200	3.347800	-10.033000	25.800772	2.050635E-5	20.847488
1973.551739	-3.005000	3.347100	-10.057000	25.802960	2.007742E-5	20.858694
1974.556662	-3.022800	3.347000	-10.117000	25.820199	1.938453E-5	20.861313
1975.553066	-2.991900	3.347900	-10.016000	25.815007	1.869163E-5	20.860838
1976.552289	-3.022800	3.346100	-10.113000	25.812424	1.651397E-5	20.866304
1977.555069	-3.014600	3.344900	-10.083000	25.797368	1.747082E-5	20.845018
1978.551098	-3.014300	3.346500	-10.086000	25.802735	1.733884E-5	20.875537
1979.551841	-3.010600	3.344500	-10.067000	25.805543	1.661295E-5	20.850384
1980.556978	-3.013600	3.345100	-10.080000	25.817964	1.737183E-5	20.854326
1981.553796	-2.989900	3.344800	-9.999800	25.803034	1.377539E-5	20.856398
1982.553185	-3.013900	3.344100	-10.078000	25.817865	1.611803E-5	20.855175
1983.556203	-3.022600	3.344100	-10.107000	25.834186	1.657996E-5	20.867776
1984.553915	-3.003000	3.344500	-10.042000	25.812176	1.453427E-5	20.867003
1985.555205	-2.998100	3.342700	-10.020000	25.821144	1.562310E-5	20.856098
1986.558828	-3.012200	3.343000	-10.068000	25.817938	1.380838E-5	20.878955
1987.556269	-2.980000	3.343100	-9.961400	25.818387	1.271955E-5	20.871819
1988.555804	-3.000600	3.343000	-10.031000	25.814164	1.436930E-5	20.871371
1989.559771	-3.003200	3.341100	-10.033000	25.819628	1.222462E-5	20.867851
1990.558713	-3.002800	3.342400	-10.035000	25.837392	1.308249E-5	20.869574
1991.556273	-3.013000	3.340100	-10.062000	25.829317	1.331346E-5	20.858618
1992.561514	-2.955200	3.341800	-9.874100	25.817716	1.011295E-5	20.863560
1993.556321	-2.994800	3.341000	-10.005000	25.834561	1.050889E-5	20.872420
1994.557236	-3.006100	3.340700	-10.042000	25.826438	1.103681E-5	20.866631
1995.566034	-2.988900	3.340300	-9.982500	25.851329	9.486045E-6	20.877884
1996.559278	-3.011800	3.340500	-10.061000	25.838684	1.120178E-5	20.868027
1997.558185	-3.011100	3.339000	-10.053000	25.847678	9.453050E-6	20.874217
1998.562983	-3.014900	3.338300	-10.064000	25.842461	9.189090E-6	20.870873
1999.559197	-3.005200	3.339700	-10.036000	25.861440	8.562186E-6	20.854851
2000.559904	-3.013800	3.337800	-10.058000	25.870632	6.648480E-6	20.877360
2001.562173	-2.984800	3.339000	-9.965400	25.863528	6.549495E-6	20.874966
2002.561252	-3.011800	3.337700	-10.052000	25.857442	8.694166E-6	20.866956
2003.562519	-2.990200	3.339100	-9.982800	25.878335	6.120561E-6	20.872771
2004.567354	-2.994600	3.337600	-9.993800	25.852548	7.077414E-6	20.877212
2005.562467	-2.990700	3.337400	-9.979900	25.867753	6.351526E-6	20.872097
2006.563265	-3.013500	3.336300	-10.053000	25.880049	6.648480E-6	20.875441
2007.567166	-3.017900	3.335100	-10.064000	25.861517	3.711931E-6	20.878161
2008.566202	-2.992100	3.336200	-9.981100	25.886285	4.866753E-6	20.878386
2009.570485	-3.010700	3.336400	-10.043000	25.887502	1.963199E-6	20.881505
2010.565890	-2.989500	3.334900	-9.968500	25.895080	3.480966E-6	20.878212
2011.565450	-3.003400	3.335000	-10.015000	25.876796	3.414976E-6	20.894931
2012.569812	-2.987600	3.334600	-9.961700	25.877467	1.699239E-6	20.871899
2013.565543	-2.987400	3.334900	-9.960900	25.892746	1.864214E-6	20.890091
2014.567685	-2.995000	3.334300	-9.985600	25.891876	2.128174E-6	20.883054
2015.573590	-2.984900	3.333100	-9.947700	25.879405	-3.794418E-7	20.905611
2016.569586	-3.018900	3.331800	-10.056000	25.879928	9.073608E-7	20.875793
2017.570010	-2.995700	3.332800	-9.982300	25.883033	-2.804570E-7	20.886973
2018.574918	-2.991100	3.332100	-9.966100	25.902758	-7.423861E-7	20.889718
2019.570091	-2.996100	3.331900	-9.981700	25.897963	-1.072336E-6	20.897703
2020.569417	-2.980800	3.333100	-9.933500	25.918630	-5.444165E-7	20.896180
2021.572536	-2.979500	3.332500	-9.928300	25.894138	-1.039341E-6	20.891964
2022.571557	-3.005900	3.331400	-10.013000	25.903057	-2.458123E-6	20.902346
2023.572588	-3.014300	3.330000	-10.036000	25.900300	-1.732234E-6	20.887723
2024.575362	-2.988900	3.331900	-9.957700	25.909366	-1.963199E-6	20.903942
2025.571500	-3.015300	3.330900	-10.044000	25.910958	-2.326143E-6	20.897007
2026.571695	-3.002400	3.330400	-9.997400	25.915652	-3.184012E-6	20.890818
2027.571343	-3.012600	3.330500	-10.032000	25.917689	-2.062184E-6	20.885752
2028.573714	-3.007200	3.328800	-10.010000	25.917665	-4.701779E-6	20.893788
2029.569678	-2.984100	3.331000	-9.937700	25.921467	-4.338834E-6	20.896659
2030.577750	-3.015100	3.328700	-10.036000	25.909989	-4.041880E-6	20.882759
2031.573075	-3.049100	3.325900	-10.140000	25.925391	-5.658632E-6	20.872154
2032.573171	-3.025800	3.328300	-10.069000	25.920772	-4.635789E-6	20.878418
2033.575330	-2.999800	3.327100	-9.979800	25.922958	-7.176399E-6	20.881563
2034.573031	-3.000400	3.327400	-9.982600	25.935677	-6.450511E-6	20.881064
2035.581864	-3.002800	3.326400	-9.987300	25.971174	-9.354065E-6	20.859355
2036.575003	-2.979500	3.328600	-9.916000	25.936374	-6.186551E-6	20.867540
2037.576649	-2.989100	3.327000	-9.943400	25.963748	-7.407364E-6	20.881290
2038.579775	-3.007900	3.326900	-10.006000	25.954929	-8.562187E-6	20.882388
2039.576959	-2.979500	3.326300	-9.909500	25.944199	-8.628177E-6	20.888677
2040.576626	-2.993600	3.325700	-9.954500	25.965437	-8.793151E-6	20.857859
2041.580134	-2.997700	3.324700	-9.966200	25.950063	-8.892136E-6	20.870862
2042.577899	-3.018700	3.325500	-10.038000	25.952596	-1.044290E-5	20.859657
2043.580880	-3.017800	3.324500	-10.032000	25.956274	-9.387060E-6	20.870937
2044.580786	-2.987200	3.324700	-9.931200	25.958286	-1.047589E-5	20.858735
2045.579327	-3.000600	3.323700	-9.972000	25.974184	-9.090106E-6	20.883714
2046.578497	-3.003100	3.323000	-9.977200	25.979401	-1.077285E-5	20.872361
2047.584975	-2.995300	3.323900	-9.954600	25.985437	-9.519040E-6	20.857089
2048.577160	-3.012600	3.322700	-10.008000	25.980097	-8.430207E-6	20.855992
2049.579627	-2.991000	3.322800	-9.937800	25.971975	-1.258757E-5	20.854470
2050.582895	-2.993700	3.322900	-9.946800	25.978261	-1.361041E-5	20.861733
2051.579520	-2.991600	3.322700	-9.939100	25.978732	-1.364341E-5	20.836603
2052.582745	-2.987700	3.322600	-9.926200	25.979032	-1.394036E-5	20.849706
2053.587379	-2.984700	3.321900	-9.913700	25.977243	-1.370940E-5	20.846012
2054.586061	-2.982000	3.321300	-9.903000	25.971407	-1.337945E-5	20.843469
2055.583901	-2.987400	3.321100	-9.920800	25.988893	-1.512818E-5	20.866725
2056.585679	-2.996200	3.321700	-9.951200	26.012739	-1.374239E-5	20.844217
2057.585279	-3.004700	3.321500	-9.979700	25.996744	-1.707488E-5	20.844742
2058.584135	-3.009100	3.319400	-9.987500	26.009984	-1.776778E-5	20.857569
2059.584858	-3.007900	3.320300	-9.985900	26.019050	-1.618402E-5	20.860040
2060.588014	-3.027700	3.319500	-10.049000	26.010530	-1.522716E-5	20.853851
2061.583898	-2.996600	3.320100	-9.947700	26.019698	-1.783377E-5	20.855475
2062.584994	-2.972100	3.319900	-9.866100	26.035197	-1.568909E-5	20.824107
2063.581582	-3.011900	3.317500	-9.991300	26.036290	-1.770179E-5	20.854601
2064.584184	-3.014200	3.317600	-9.999500	26.040487	-1.849366E-5	20.850759
2065.586516	-2.980400	3.318300	-9.888900	26.023796	-1.816371E-5	20.844895
2066.585426	-3.028200	3.316000	-10.041000	26.058346	-1.938453E-5	20.846891
2067.586404	-3.009500	3.318400	-9.985700	26.042799	-2.083631E-5	20.847865
2068.583088	-3.018000	3.316700	-10.009000	26.039695	-2.245306E-5	20.829574
2069.586025	-3.023800	3.315400	-10.024000	26.046773	-2.001143E-5	20.842376
2070.589025	-2.983200	3.317100	-9.893600	26.042428	-2.149620E-5	20.825683
2071.584023	-3.008700	3.316300	-9.976600	26.051146	-2.235407E-5	20.837760
2072.584025	-2.981000	3.315200	-9.881500	26.041757	-2.321194E-5	20.843025
2073.587025	-3.002200	3.315000	-9.951500	26.047296	-2.110026E-5	20.839582
2074.585209	-2.981800	3.314900	-9.883400	26.049284	-2.251905E-5	20.825459
2075.583522	-2.993700	3.315100	-9.923900	26.079735	-2.222209E-5	20.836614
2076.587524	-3.019200	3.313700	-10.004000	26.077673	-2.469671E-5	20.844973
2077.584234	-2.993700	3.313700	-9.919300	26.085870	-2.624748E-5	20.810536
2078.585686	-3.007700	3.313300	-9.964100	26.070744	-2.397082E-5	20.839908
2079.587766	-2.990000	3.314300	-9.908500	26.094366	-2.789722E-5	20.827132
2080.585733	-2.997000	3.313600	-9.929800	26.057482	-2.581854E-5	20.834170
2081.584731	-3.000700	3.312700	-9.939000	26.083960	-2.822717E-5	20.833747
2082.588733	-3.010300	3.312800	-9.972000	26.083388	-2.855712E-5	20.805197
2083.585742	-3.012300	3.311400	-9.974400	26.095707	-2.865611E-5	20.822790
2084.600734	-3.006700	3.311300	-9.955000	26.092405	-2.984392E-5	20.825637
2085.593734	-3.021800	3.310800	-10.004000	26.075515	-2.974494E-5	20.834271
2086.592734	-3.025100	3.310400	-10.014000	26.078596	-2.819418E-5	20.833098
2087.590734	-2.984400	3.310100	-9.877900	26.092655	-2.928301E-5	20.832526
2088.587246	-3.005100	3.310200	-9.946600	26.084286	-2.994291E-5	20.841186
2089.588247	-2.997100	3.309400	-9.918300	26.093127	-3.030585E-5	20.831103
2090.592473	-2.994600	3.310200	-9.911700	26.100529	-2.971195E-5	20.825264
2091.587255	-3.004100	3.309200	-9.939200	26.086820	-3.080078E-5	20.839939
2092.587219	-2.986000	3.309500	-9.881700	26.092581	-3.314342E-5	20.843830
2093.591283	-2.994800	3.308700	-9.906000	26.087267	-3.254951E-5	20.835647
2094.587203	-3.000000	3.306600	-9.918700	26.100331	-3.551906E-5	20.827436
2095.588929	-3.004200	3.307400	-9.935600	26.077085	-3.367134E-5	20.824942
2096.591660	-2.996300	3.307700	-9.908600	26.095365	-3.505713E-5	20.819602
2097.587821	-3.005300	3.307600	-9.939600	26.118712	-3.334139E-5	20.795172
2098.589176	-2.997800	3.307500	-9.914700	26.101252	-3.568403E-5	20.815086
2099.592983	-3.002400	3.306700	-9.926300	26.110765	-3.650890E-5	20.820852
2100.590806	-2.978600	3.307900	-9.852400	26.109599	-3.664088E-5	20.825843
2101.591945	-2.986400	3.305600	-9.870600	26.124526	-3.446322E-5	20.809074
2102.594913	-3.025600	3.304400	-9.996700	26.114542	-3.545307E-5	20.831758
2103.591298	-3.020000	3.304200	-9.978500	26.103665	-3.670687E-5	20.816562
2104.590723	-3.001400	3.305300	-9.919400	26.127457	-3.782870E-5	20.828615
2105.594170	-3.004000	3.304100	-9.924500	26.108212	-3.769672E-5	20.827768
2106.591301	-2.994700	3.304800	-9.895300	26.118518	-3.868657E-5	20.813942
2107.595999	-2.983900	3.305300	-9.861900	26.118767	-3.970941E-5	20.815615
2108.595079	-3.029600	3.302900	-10.005000	26.124406	-4.060028E-5	20.818910
2109.592525	-2.998500	3.303600	-9.904500	26.146162	-4.159013E-5	20.820382
2110.592182	-2.991500	3.304500	-9.883600	26.102799	-4.096322E-5	20.797674
2111.595435	-3.002600	3.302900	-9.916300	26.113478	-4.096322E-5	20.811249
2112.591888	-2.994600	3.302900	-9.889400	26.129947	-4.294292E-5	20.801245
2113.592579	-3.007300	3.302700	-9.931100	26.140229	-4.132617E-5	20.798300
2114.594776	-2.995900	3.301500	-9.889300	26.135909	-4.205205E-5	20.812451
2115.592750	-3.003100	3.300700	-9.911100	26.146093	-4.300891E-5	20.807511
2116.592847	-3.018800	3.299800	-9.960600	26.136878	-4.409774E-5	20.810106
2117.595612	-2.993600	3.300700	-9.879600	26.135960	-4.234901E-5	20.807761
2118.592985	-3.040400	3.298400	-10.027000	26.128735	-4.366881E-5	20.802872
2119.593421	-2.994200	3.300400	-9.880300	26.146940	-4.597845E-5	20.795560
2120.597479	-3.024600	3.298200	-9.974000	26.147760	-4.644038E-5	20.823410
2121.593667	-2.992000	3.299800	-9.872000	26.166437	-4.700130E-5	20.804246
2122.593029	-3.003400	3.298200	-9.905100	26.152406	-4.779318E-5	20.806268
2123.593134	-2.994100	3.298800	-9.876100	26.170884	-4.637439E-5	20.784533
2124.594519	-3.002400	3.298400	-9.901900	26.149302	-4.792516E-5	20.805046
2125.593910	-3.012900	3.296200	-9.930500	26.144485	-4.723226E-5	20.804948
2126.594013	-3.017200	3.296600	-9.945400	26.164874	-4.792516E-5	20.800304
2127.594146	-3.021400	3.296900	-9.959800	26.160206	-4.947592E-5	20.795140
2128.595370	-3.003300	3.296300	-9.898600	26.196739	-4.937693E-5	20.793443
2129.596496	-2.998900	3.295800	-9.882900	26.190060	-4.950891E-5	20.800008
2130.595496	-2.985400	3.296000	-9.838500	26.207245	-4.944292E-5	20.794518
2131.595757	-3.001800	3.294700	-9.888700	26.194232	-5.171957E-5	20.797563
2132.595685	-2.994300	3.295200	-9.865700	26.205235	-5.188455E-5	20.803403
2133.595938	-3.001300	3.294000	-9.885700	26.190756	-5.336932E-5	20.798337
2134.599288	-3.008800	3.293700	-9.908700	26.186310	-5.412821E-5	20.802404
2135.599975	-2.998300	3.294700	-9.876700	26.186261	-5.195054E-5	20.790502
2136.599076	-2.985800	3.294500	-9.835700	26.198753	-5.330333E-5	20.775553
2137.598938	-2.963600	3.293700	-9.759900	26.197436	-5.429318E-5	20.805524
2138.600101	-2.989700	3.293600	-9.845400	26.209532	-5.386425E-5	20.776902
2139.598306	-2.993600	3.293500	-9.858200	26.214399	-5.426019E-5	20.805500
2140.597519	-2.991000	3.294200	-9.852300	26.216337	-5.884648E-5	20.790853
2141.601794	-3.021700	3.292000	-9.946600	26.227586	-5.719674E-5	20.804053
2142.598962	-2.997400	3.291500	-9.865100	26.218794	-5.746070E-5	20.812288
2143.599864	-2.993400	3.291700	-9.852700	26.218944	-5.742770E-5	20.782093
2144.599633	-3.011100	3.290100	-9.906000	26.224633	-5.630587E-5	20.787335
2145.599879	-3.001000	3.291100	-9.875300	26.225873	-5.920943E-5	20.797116
2146.600503	-2.996500	3.290800	-9.859700	26.246809	-5.808760E-5	20.793973
2147.601077	-2.984600	3.290800	-9.820800	26.232977	-5.795562E-5	20.777228
2148.604161	-3.019700	3.289800	-9.933400	26.237098	-5.749369E-5	20.787534
2149.601759	-3.017900	3.288800	-9.924300	26.223515	-5.779065E-5	20.775306
2150.600779	-2.966800	3.290200	-9.761000	26.221105	-5.986933E-5	20.806550
2151.600623	-2.994400	3.289900	-9.850300	26.246586	-6.085918E-5	20.774782
2152.601644	-3.002100	3.288800	-9.872600	26.224858	-6.023227E-5	20.785190
2153.603246	-3.013100	3.288200	-9.906700	26.250684	-6.118913E-5	20.797393
2154.603221	-3.029300	3.286500	-9.955100	26.256098	-6.115613E-5	20.781022
2155.602391	-2.992800	3.287100	-9.836900	26.247233	-6.145309E-5	20.788709
2156.603122	-2.973300	3.287800	-9.774300	26.261859	-6.425766E-5	20.792976
2157.601844	-2.994300	3.287000	-9.842000	26.255354	-6.346578E-5	20.795448
2158.601844	-2.984400	3.288100	-9.811600	26.249369	-6.580842E-5	20.788959
2159.602584	-2.994800	3.286200	-9.840400	26.255702	-6.594040E-5	20.796271
2160.601692	-2.998900	3.286300	-9.853900	26.246514	-6.656730E-5	20.787513
2161.603644	-3.002000	3.285300	-9.862000	26.277729	-6.544547E-5	20.789958
2162.603966	-3.028500	3.284400	-9.946600	26.293573	-6.508253E-5	20.779328
2163.605460	-2.976000	3.285500	-9.776400	26.286148	-6.650131E-5	20.773762
2164.605028	-2.976400	3.285000	-9.776700	26.267002	-6.785411E-5	20.783446
2165.609188	-3.001000	3.284100	-9.854100	26.320416	-6.752416E-5	20.789709
2166.606190	-2.991300	3.284500	-9.823500	26.300874	-6.712822E-5	20.777656
2167.606153	-3.002300	3.283200	-9.855700	26.309416	-6.765614E-5	20.782448
2168.605587	-2.993300	3.283400	-9.827400	26.303631	-6.785411E-5	20.780901
2169.606946	-3.007800	3.282300	-9.871300	26.295386	-6.937187E-5	20.771192
2170.607945	-3.001400	3.281700	-9.848900	26.294343	-6.848101E-5	20.771093
2171.606942	-3.006300	3.281200	-9.862900	26.329184	-6.943786E-5	20.791408
2172.611409	-2.995900	3.282000	-9.831900	26.328042	-7.062568E-5	20.784097
2173.609428	-3.003300	3.281300	-9.853800	26.327372	-7.154954E-5	20.763509
2174.610437	-3.016600	3.279700	-9.892700	26.343685	-7.214345E-5	20.790810
2175.613439	-3.002600	3.280900	-9.849400	26.313415	-7.422213E-5	20.774138
2176.609574	-3.000200	3.279900	-9.838600	26.346119	-7.534396E-5	20.765754
2177.609571	-3.033400	3.278800	-9.944600	26.330576	-7.336426E-5	20.768625
2178.613518	-2.987000	3.279400	-9.794100	26.333232	-7.438711E-5	20.787416
2179.611521	-3.010500	3.278400	-9.867700	26.343164	-7.544295E-5	20.791234
2180.613556	-2.982300	3.278500	-9.776900	26.363104	-7.498102E-5	20.778558
2181.614542	-2.982500	3.277800	-9.775300	26.350985	-7.580589E-5	20.756420
2182.610542	-3.012300	3.278100	-9.873700	26.356823	-7.547594E-5	20.785521
2183.612602	-2.999400	3.276900	-9.827300	26.342867	-7.841249E-5	20.774340
2184.613604	-2.989500	3.276000	-9.792200	26.336163	-7.844549E-5	20.777085
2185.613141	-3.016600	3.275900	-9.881200	26.346542	-7.917138E-5	20.770921
2186.613138	-3.004000	3.277000	-9.843100	26.344680	-7.910539E-5	20.750557
2187.620454	-2.990600	3.277000	-9.799000	26.356052	-7.722467E-5	20.761513
2188.617455	-3.015400	3.274800	-9.873900	26.377805	-7.877544E-5	20.758244
2189.615517	-2.990000	3.274400	-9.789700	26.371027	-7.943533E-5	20.765657
2190.618516	-3.004200	3.275100	-9.837200	26.364472	-8.019422E-5	20.772345
2191.619516	-2.993900	3.275500	-9.805400	26.353521	-8.082112E-5	20.774142
2192.619365	-2.976600	3.274100	-9.745000	26.369537	-8.233889E-5	20.785971
2193.620387	-2.982200	3.274800	-9.764300	26.362113	-7.996325E-5	20.764284
2194.621994	-2.983800	3.273600	-9.767000	26.378475	-8.167899E-5	20.758444
2195.620401	-3.000800	3.272400	-9.819300	26.376167	-8.085412E-5	20.776987
2196.619165	-3.000200	3.272700	-9.818200	26.377109	-8.283382E-5	20.762287
2197.622549	-3.002500	3.271700	-9.822100	26.382995	-8.606732E-5	20.764409
2198.621460	-3.008700	3.271000	-9.840300	26.396552	-8.415361E-5	20.760491
2199.622458	-3.010000	3.270800	-9.843600	26.380264	-8.600133E-5	20.762139
2200.627393	-2.999300	3.270200	-9.807800	26.392728	-8.560539E-5	20.760915
2201.622397	-2.988200	3.271300	-9.774600	26.381455	-8.662824E-5	20.771871
2202.622393	-2.999200	3.269500	-9.805100	26.376812	-8.751910E-5	20.752979
2203.625753	-3.003500	3.269700	-9.819500	26.404745	-8.847595E-5	20.760191
2204.623497	-3.024200	3.268800	-9.883900	26.401666	-8.996073E-5	20.758518
2205.623497	-3.027300	3.267800	-9.891800	26.397745	-8.956479E-5	20.779233
2206.627529	-2.980700	3.268500	-9.741600	26.392380	-8.979575E-5	20.759143
2207.624494	-2.986600	3.268700	-9.761800	26.407703	-8.933382E-5	20.775017
2208.624529	-2.983900	3.268000	-9.750300	26.396653	-9.184144E-5	20.767230
2209.628497	-3.003500	3.268100	-9.814100	26.393748	-9.147849E-5	20.777587
2210.624494	-2.982300	3.267600	-9.744700	26.419844	-8.877291E-5	20.748339
2211.628495	-3.020200	3.266800	-9.864600	26.418627	-9.194042E-5	20.734787
2212.625494	-3.002800	3.266500	-9.808100	26.419744	-9.101656E-5	20.759144
2213.625883	-3.001500	3.264900	-9.797200	26.421111	-9.490997E-5	20.755303
2214.629745	-3.018400	3.265200	-9.854600	26.427094	-9.306225E-5	20.762264
2215.627099	-2.973200	3.265900	-9.709400	26.417784	-9.339220E-5	20.773770
2216.626909	-2.989500	3.265100	-9.760100	26.460268	-9.616378E-5	20.761468
2217.631404	-2.997500	3.264300	-9.783700	26.429231	-9.319423E-5	20.735488
2218.628412	-3.004700	3.263300	-9.805000	26.453489	-9.332621E-5	20.753706
2219.630414	-2.990300	3.265200	-9.762400	26.463619	-9.385413E-5	20.749190
2220.635422	-3.001500	3.261800	-9.788400	26.465409	-9.550388E-5	20.749091
2221.630854	-2.979700	3.262600	-9.720200	26.466649	-9.576784E-5	20.748916
2222.631195	-3.012700	3.261300	-9.824100	26.441721	-9.613078E-5	20.760845
2223.634210	-3.006800	3.261600	-9.806100	26.453095	-9.794551E-5	20.742405
2224.631208	-2.994300	3.261300	-9.764400	26.451654	-9.939728E-5	20.764190
2225.631207	-2.980700	3.261500	-9.719700	26.471516	-9.725261E-5	20.738635
2226.635211	-3.026500	3.259900	-9.864500	26.460221	-9.626276E-5	20.745774
2227.632043	-3.026800	3.258500	-9.862500	26.461636	-9.655972E-5	20.760947
2228.632045	-3.024500	3.257900	-9.852500	26.484429	-9.850642E-5	20.752563
2229.635040	-3.023800	3.259400	-9.854300	26.471394	-9.738459E-5	20.752263
2230.633187	-3.012000	3.258100	-9.812200	26.496969	-0.000101	20.751417
2231.632521	-2.984600	3.258100	-9.722400	26.478646	-0.000100	20.737740
2232.636557	-2.997100	3.257800	-9.762800	26.497441	-9.956226E-5	20.756158
2233.654523	-2.992300	3.258000	-9.747500	26.490761	-9.999119E-5	20.745176
2234.643559	-2.992600	3.256300	-9.744900	26.486169	-0.000101	20.749570
2235.644745	-2.972400	3.257900	-9.682400	26.507621	-0.000100	20.757382
2236.650330	-2.994100	3.256900	-9.751000	26.499898	-0.000101	20.739188
2237.645334	-3.024200	3.256100	-9.846400	26.513032	-0.000101	20.732475
2238.650331	-3.009100	3.254700	-9.792900	26.517848	-0.000102	20.736367
2239.656329	-2.989600	3.255600	-9.732500	26.502531	-0.000104	20.749420
2240.647739	-3.017400	3.255700	-9.822600	26.505609	-0.000101	20.744928
2241.649995	-2.980900	3.256100	-9.705100	26.495156	-0.000106	20.731576
2242.660963	-2.992800	3.254300	-9.738100	26.542727	-0.000106	20.740986
2243.653964	-2.991900	3.252300	-9.729400	26.530438	-0.000104	20.738590
2244.658966	-3.010200	3.252900	-9.790400	26.511320	-0.000102	20.732650
2245.656964	-2.999300	3.253400	-9.757400	26.509979	-0.000104	20.740312
2246.649966	-3.026000	3.252600	-9.840700	26.514124	-0.000106	20.744478
2247.649437	-2.982300	3.253300	-9.701400	26.523311	-0.000105	20.727159
2248.653572	-2.976900	3.252000	-9.679800	26.507570	-0.000106	20.735044
2249.649946	-3.006300	3.251100	-9.773600	26.545580	-0.000105	20.729629
2250.649951	-2.999100	3.251100	-9.748300	26.547815	-0.000105	20.743256
2251.649948	-2.987100	3.250300	-9.707900	26.533068	-0.000106	20.724165
2252.654611	-2.987600	3.250000	-9.709100	26.526911	-0.000107	20.736943
2253.651026	-3.017000	3.248700	-9.800200	26.554122	-0.000107	20.733000
2254.650222	-3.005500	3.249600	-9.765400	26.570357	-0.000105	20.745528
2255.653676	-3.000200	3.247300	-9.741700	26.557448	-0.000108	20.711212
2256.656836	-3.001800	3.248400	-9.750300	26.555636	-0.000110	20.725513
2257.649964	-3.015500	3.247900	-9.792500	26.571375	-0.000109	20.702452
2258.651979	-2.998500	3.247700	-9.737500	26.546698	-0.000110	20.728857
2259.659878	-3.017200	3.246900	-9.795400	26.562339	-0.000111	20.732251
2260.651746	-2.996800	3.245600	-9.725400	26.576316	-0.000112	20.731128
2261.651090	-3.009300	3.245800	-9.766500	26.551913	-0.000113	20.740263
2262.651819	-3.015100	3.243900	-9.779200	26.571301	-0.000112	20.726086
2263.661851	-3.019200	3.245400	-9.798300	26.568596	-0.000109	20.743757
2264.657872	-3.014300	3.243900	-9.777500	26.576045	-0.000110	20.739391
2265.655213	-2.991800	3.244000	-9.704000	26.558865	-0.000110	20.713110
2266.657598	-3.016300	3.242600	-9.779800	26.567405	-0.000112	20.721221
2267.653161	-3.022000	3.242800	-9.799200	26.584311	-0.000114	20.723992
2268.653671	-3.015900	3.241500	-9.775200	26.591858	-0.000111	20.728734
2269.656080	-3.000300	3.242200	-9.727000	26.570484	-0.000113	20.719575
2270.662881	-2.981200	3.243300	-9.667900	26.603774	-0.000111	20.747351
2271.659425	-3.001000	3.241600	-9.726800	26.599529	-0.000112	20.728384
2272.663268	-3.027200	3.239900	-9.807300	26.591437	-0.000112	20.725940
2273.656476	-3.024400	3.240100	-9.797900	26.596303	-0.000112	20.725141
2274.657130	-3.023100	3.238800	-9.789300	26.610156	-0.000117	20.720100
2275.659145	-3.023200	3.239000	-9.792000	26.605812	-0.000115	20.723794
2276.659172	-2.998800	3.240400	-9.716200	26.632745	-0.000115	20.729059
2277.656791	-2.986800	3.239900	-9.675900	26.628251	-0.000115	20.716954
2278.667695	-3.005500	3.239300	-9.735200	26.617503	-0.000115	20.738393
2279.658798	-2.997600	3.238100	-9.705800	26.628576	-0.000118	20.743360
2280.662230	-2.992000	3.237500	-9.685500	26.615219	-0.000116	20.726613
2281.669525	-3.004900	3.237200	-9.727000	26.636197	-0.000118	20.713087
2282.659464	-2.999000	3.236300	-9.704500	26.628848	-0.000116	20.723718
2283.663470	-3.008600	3.236100	-9.734500	26.618001	-0.000117	20.740790
2284.660517	-2.985600	3.235300	-9.658400	26.624778	-0.000117	20.740016
2285.665500	-3.024200	3.235300	-9.783200	26.632224	-0.000117	20.734225
2286.666748	-2.986500	3.235600	-9.662000	26.616088	-0.000118	20.725590
2287.666188	-2.972500	3.234300	-9.613900	26.641037	-0.000118	20.718427
2288.660419	-2.980500	3.234200	-9.638800	26.652604	-0.000120	20.713934
2289.661253	-3.038500	3.232600	-9.821000	26.635402	-0.000118	20.723194
2290.662179	-3.016000	3.232800	-9.749000	26.663478	-0.000118	20.736721
2291.663492	-2.997300	3.232400	-9.687100	26.644612	-0.000121	20.740989
2292.662107	-2.966500	3.233100	-9.590600	26.663876	-0.000121	20.707247
2293.662700	-3.003100	3.231600	-9.704200	26.663157	-0.000122	20.716482
2294.663827	-2.995000	3.232000	-9.679000	26.651339	-0.000118	20.703653
2295.667914	-3.017800	3.231600	-9.751900	26.645135	-0.000121	20.710218
2296.674206	-2.998500	3.230900	-9.687100	26.649799	-0.000122	20.726288
2297.665948	-3.020700	3.230300	-9.755700	26.650247	-0.000120	20.727687
2298.666355	-2.998100	3.228300	-9.677800	26.659283	-0.000122	20.734400
2299.665282	-3.016000	3.229300	-9.738600	26.689866	-0.000122	20.730532
2300.665433	-3.013200	3.228400	-9.727000	26.671470	-0.000122	20.729582
2301.666158	-3.017100	3.227200	-9.736100	26.670205	-0.000121	20.738743
2302.666834	-3.008400	3.227200	-9.707800	26.669013	-0.000122	20.733751
2303.669862	-3.023800	3.225400	-9.752500	26.685941	-0.000122	20.718526
2304.673546	-3.010900	3.225100	-9.708800	26.699173	-0.000122	20.756486
2305.670153	-3.014100	3.226500	-9.724600	26.715034	-0.000123	20.747301
2306.669070	-2.981100	3.226400	-9.617300	26.700687	-0.000122	20.708219
2307.670262	-3.009000	3.224100	-9.700200	26.675839	-0.000123	20.745355
2308.673833	-2.978900	3.226000	-9.609100	26.731193	-0.000123	20.730829
2309.677262	-2.992300	3.223600	-9.644800	26.718385	-0.000123	20.751144
2310.668603	-2.979700	3.225400	-9.609400	26.715605	-0.000124	20.723692
2311.671761	-3.013200	3.223100	-9.710600	26.723400	-0.000124	20.733426
2312.674383	-3.011800	3.222000	-9.703500	26.720222	-0.000125	20.728808
2313.669307	-3.002100	3.221800	-9.670200	26.730896	-0.000125	20.730057
2314.671382	-3.011800	3.221000	-9.700300	26.724143	-0.000126	20.761201
2315.670571	-2.994600	3.220200	-9.641900	26.738764	-0.000127	20.739390
2316.673074	-2.981600	3.221900	-9.605400	26.754028	-0.000126	20.740986
2317.684441	-2.988500	3.219700	-9.621300	26.752391	-0.000128	20.740288
2318.670350	-2.997500	3.220400	-9.652100	26.740353	-0.000124	20.746204
2319.677643	-2.995200	3.219700	-9.642400	26.740427	-0.000124	20.756236
2320.683565	-3.020700	3.217900	-9.719500	26.755717	-0.000125	20.728459
2321.678054	-2.987200	3.219400	-9.615800	26.749413	-0.000125	20.759106
2322.672066	-2.990400	3.219100	-9.624900	26.768724	-0.000126	20.746278
2323.677490	-3.003000	3.216600	-9.658300	26.752490	-0.000126	20.751768
2324.673217	-2.990700	3.218200	-9.622900	26.747724	-0.000127	20.730854
2325.672606	-2.995600	3.217000	-9.635500	26.770983	-0.000127	20.755662
2326.674236	-2.992900	3.216700	-9.626200	26.778429	-0.000127	20.737070
2327.675017	-3.009100	3.217100	-9.679100	26.748942	-0.000127	20.741089
2328.677809	-2.989400	3.215000	-9.609900	26.756562	-0.000128	20.741163
2329.673540	-3.005100	3.214100	-9.657700	26.780863	-0.000126	20.746155
2330.683260	-3.004700	3.214200	-9.656000	26.781285	-0.000126	20.744209
2331.678491	-2.973900	3.213300	-9.555500	26.768079	-0.000127	20.756062
2332.675353	-2.992700	3.213200	-9.614900	26.776345	-0.000127	20.729284
2333.674309	-2.994000	3.213900	-9.621500	26.792231	-0.000128	20.736247
2334.676023	-2.992500	3.212200	-9.610700	26.786969	-0.000128	20.763675
2335.682348	-2.998400	3.211100	-9.627400	26.804121	-0.000128	20.742987
2336.681363	-2.994900	3.211400	-9.616300	26.802731	-0.000129	20.742063
2337.677585	-2.993100	3.211500	-9.611200	26.788931	-0.000128	20.750474
2338.683244	-3.014600	3.208800	-9.672200	26.818839	-0.000129	20.734551
2339.684350	-2.984900	3.209900	-9.580800	26.805412	-0.000130	20.744285
2340.678031	-3.002400	3.209600	-9.634800	26.810576	-0.000128	20.743787
2341.675050	-3.023500	3.207100	-9.695500	26.849320	-0.000130	20.741965
2342.685851	-3.003600	3.207800	-9.634000	26.813232	-0.000130	20.746932
2343.676841	-3.002900	3.207800	-9.631600	26.802907	-0.000130	20.766897
2344.674819	-2.984600	3.207200	-9.572100	26.816410	-0.000130	20.756291
2345.678250	-2.971800	3.206900	-9.529100	26.854310	-0.000131	20.757889
2346.675982	-3.006100	3.205600	-9.635700	26.832245	-0.000131	20.749928
2347.691949	-3.000800	3.205900	-9.619300	26.826959	-0.000131	20.751251
2348.676965	-2.995700	3.205400	-9.601500	26.838948	-0.000129	20.753348
2349.678406	-3.040700	3.202600	-9.736800	26.834804	-0.000131	20.753449
2350.680017	-3.000300	3.202500	-9.607900	26.853741	-0.000129	20.772490
2351.676858	-3.013000	3.203200	-9.650100	26.871362	-0.000131	20.776932
2352.685969	-3.011500	3.203200	-9.645100	26.849001	-0.000131	20.762982
2353.687054	-3.016000	3.202000	-9.655900	26.861484	-0.000131	20.744714
2354.688410	-3.003100	3.204100	-9.620600	26.856520	-0.000133	20.750628
2355.685810	-3.019900	3.201500	-9.666700	26.868360	-0.000133	20.764904
2356.681300	-3.025300	3.200000	-9.679800	26.855577	-0.000131	20.761533
2357.682596	-3.003300	3.201000	-9.611900	26.861782	-0.000131	20.761135
2358.681039	-3.000800	3.200700	-9.603800	26.880272	-0.000130	20.737052
2359.681780	-2.995500	3.199600	-9.583400	26.874043	-0.000130	20.749281
2360.679721	-2.987500	3.200000	-9.558800	26.872330	-0.000132	20.756094
2361.682644	-3.009900	3.198100	-9.624100	26.887669	-0.000134	20.772940
2362.689643	-2.995600	3.199500	-9.582300	26.859773	-0.000131	20.772391
2363.679960	-2.991000	3.198400	-9.565500	26.869352	-0.000132	20.782023
2364.694966	-3.016300	3.198400	-9.646600	26.883301	-0.000132	20.757642
2365.693959	-3.003700	3.196000	-9.599100	26.880073	-0.000133	20.772414
2366.680959	-3.005700	3.195300	-9.603800	26.887941	-0.000135	20.763730
2367.681962	-3.007100	3.195900	-9.609600	26.868707	-0.000133	20.786117
2368.687613	-2.979200	3.194500	-9.516000	26.885782	-0.000132	20.769621
2369.683927	-2.994600	3.194500	-9.564600	26.897869	-0.000135	20.759489
2370.688926	-3.003100	3.195000	-9.593200	26.893104	-0.000133	20.760388
2371.682929	-2.981200	3.194600	-9.523300	26.895288	-0.000134	20.765428
2372.689889	-3.000300	3.192600	-9.576500	26.891739	-0.000136	20.785568
2373.689853	-2.995200	3.193000	-9.563000	26.888564	-0.000134	20.785694
2374.688854	-3.010500	3.191400	-9.606400	26.892956	-0.000133	20.772092
2375.685852	-3.000900	3.191500	-9.576800	26.885040	-0.000135	20.774090
2376.690888	-2.978100	3.190500	-9.500700	26.887769	-0.000135	20.765928
2377.683855	-3.001000	3.191000	-9.575600	26.906830	-0.000134	20.773715
2378.686852	-3.020200	3.189800	-9.633000	26.883599	-0.000133	20.773115
2379.684200	-3.007800	3.188900	-9.590400	26.906059	-0.000135	20.776733
2380.686200	-3.009000	3.188900	-9.594700	26.910651	-0.000134	20.775660
2381.689198	-2.987500	3.188400	-9.524700	26.922117	-0.000132	20.764431
2382.686211	-3.017100	3.187200	-9.615400	26.924973	-0.000132	20.768251
2383.692234	-2.993700	3.186700	-9.538600	26.921026	-0.000134	20.772343
2384.690196	-3.029000	3.185700	-9.647700	26.935940	-0.000133	20.771693
2385.691200	-2.999100	3.185300	-9.552000	26.927156	-0.000134	20.774239
2386.686213	-3.012300	3.184800	-9.592500	26.933409	-0.000133	20.777209
2387.703355	-2.981600	3.185600	-9.497700	26.938125	-0.000133	20.764880
2388.683574	-3.000800	3.183600	-9.551600	26.952220	-0.000135	20.786641
2389.691575	-2.987600	3.184600	-9.513600	26.960037	-0.000134	20.782174
2390.687797	-3.009800	3.183000	-9.578200	26.952690	-0.000137	20.771940
2391.688988	-3.001100	3.183800	-9.554300	26.961452	-0.000135	20.783122
2392.696346	-3.004800	3.181800	-9.559300	26.947431	-0.000134	20.787516
2393.690367	-3.014000	3.181000	-9.586600	26.976863	-0.000135	20.789137
2394.700584	-3.003800	3.181900	-9.557400	26.992821	-0.000136	20.792856
2395.693673	-3.001300	3.179800	-9.542400	26.986740	-0.000137	20.770620
2396.696672	-2.987500	3.180100	-9.499500	26.996096	-0.000137	20.789512
2397.697607	-2.970000	3.179900	-9.442900	26.984881	-0.000136	20.792932
2398.701861	-2.997200	3.178800	-9.526800	26.979396	-0.000134	20.794529
2399.693078	-2.999500	3.178900	-9.533600	26.992474	-0.000134	20.780654
2400.695224	-3.010400	3.177800	-9.564500	26.994385	-0.000136	20.801067
2401.698223	-3.003900	3.176500	-9.541200	26.985774	-0.000136	20.788615
2402.696226	-3.004800	3.177400	-9.545900	26.986791	-0.000137	20.799595
2403.680427	-2.991800	3.176500	-9.502800	26.999571	-0.000136	20.795377
2404.681427	-3.012800	3.176000	-9.567100	26.994907	-0.000136	20.794954
2405.683485	-3.009800	3.175000	-9.554900	26.999373	-0.000137	20.787592
2406.682076	-2.993800	3.175100	-9.504700	27.000615	-0.000138	20.786469
2407.682903	-3.004000	3.173900	-9.533400	26.991160	-0.000135	20.792609
2408.683903	-3.009000	3.173000	-9.546800	26.998679	-0.000138	20.803963
2409.682130	-3.016000	3.173300	-9.569600	27.012949	-0.000136	20.795554
2410.682100	-3.018900	3.171100	-9.572400	27.018507	-0.000136	20.798298
2411.701613	-3.003100	3.171300	-9.523100	27.017267	-0.000136	20.800371
2412.711890	-2.988500	3.170000	-9.472100	27.024885	-0.000139	20.822256
2413.698882	-3.012500	3.169400	-9.547200	27.042480	-0.000139	20.794432
2414.697881	-2.983800	3.170200	-9.458200	27.035432	-0.000137	20.806785
2415.697880	-3.018800	3.168200	-9.562700	27.053275	-0.000136	20.810029
2416.700881	-3.003200	3.169200	-9.516300	27.042529	-0.000137	20.805387
2417.699921	-2.968500	3.168300	-9.404600	27.068487	-0.000136	20.797353
2418.681921	-2.996700	3.167500	-9.491400	27.030122	-0.000137	20.802393
2419.683926	-2.999900	3.166700	-9.498200	27.029129	-0.000137	20.810877
2420.681980	-2.994000	3.166400	-9.479500	27.037790	-0.000139	20.819587
2421.682901	-2.971800	3.165800	-9.405900	27.053052	-0.000136	20.810754
2422.683903	-2.982000	3.164900	-9.436800	27.054740	-0.000137	20.792063
2423.683905	-2.988000	3.165700	-9.457900	27.065136	-0.000135	20.805362
2424.708903	-3.014200	3.163500	-9.533800	27.067816	-0.000137	20.781505
2425.703947	-2.984000	3.162900	-9.437000	27.076625	-0.000138	20.805538
2426.710949	-2.998300	3.163100	-9.483600	27.048857	-0.000139	20.814595
2427.710948	-3.002600	3.161000	-9.490400	27.070719	-0.000137	20.815719
2428.700957	-3.008800	3.160900	-9.508800	27.081240	-0.000139	20.813972
2429.708520	-2.966600	3.162000	-9.379300	27.064564	-0.000139	20.824701
2430.709537	-3.017400	3.160300	-9.534400	27.067890	-0.000139	20.791063
2431.703538	-2.993600	3.159100	-9.456100	27.066824	-0.000138	20.816069
2432.708538	-2.993100	3.157700	-9.450400	27.074936	-0.000137	20.826598
2433.703540	-2.986200	3.159300	-9.433400	27.070645	-0.000140	20.827024
2434.704538	-3.003700	3.157300	-9.482900	27.077097	-0.000138	20.817866
2435.701588	-2.985300	3.157400	-9.424900	27.081462	-0.000136	20.814670
2436.684600	-2.987500	3.155800	-9.426800	27.085781	-0.000137	20.829444
2437.710617	-3.007300	3.155100	-9.487600	27.064491	-0.000138	20.827473
2438.687620	-3.011000	3.154200	-9.495500	27.105657	-0.000139	20.827148
2439.687617	-2.999000	3.155100	-9.461100	27.125060	-0.000139	20.865153
2440.685094	-3.020000	3.152600	-9.520200	27.122578	-0.000139	20.827097
2441.685095	-2.997200	3.151700	-9.444400	27.123399	-0.000138	20.837879
2442.708099	-3.001400	3.151400	-9.457800	27.096551	-0.000139	20.826051
2443.703094	-3.014100	3.150700	-9.495200	27.126127	-0.000138	20.851528
2444.703097	-3.000500	3.151200	-9.454000	27.132974	-0.000136	20.828544
2445.705142	-2.990800	3.150900	-9.422900	27.146374	-0.000139	20.821633
2446.713141	-3.012800	3.148800	-9.485800	27.151141	-0.000138	20.833539
2447.702203	-2.987500	3.149800	-9.409500	27.154960	-0.000140	20.819363
2448.710202	-2.987900	3.148400	-9.405300	27.142876	-0.000139	20.858890
2449.704203	-2.987600	3.147800	-9.403800	27.160665	-0.000139	20.843118
2450.687206	-2.981000	3.148000	-9.383000	27.141734	-0.000137	20.826449
2451.704268	-3.029600	3.144700	-9.525300	27.176422	-0.000139	20.836681
2452.705265	-3.018100	3.144700	-9.490700	27.179224	-0.000137	20.844715
2453.687265	-2.994300	3.146100	-9.419900	27.199172	-0.000139	20.849131
2454.689264	-3.003500	3.144700	-9.443900	27.169969	-0.000138	20.845837
2455.688313	-2.997100	3.143400	-9.419500	27.189968	-0.000138	20.819960
2456.688318	-2.992100	3.142900	-9.402500	27.192970	-0.000137	20.831513
2457.690316	-3.018700	3.141700	-9.482800	27.201504	-0.000138	20.835356
2458.711315	-2.988400	3.142900	-9.391600	27.206913	-0.000138	20.839373
2459.704374	-2.979200	3.141600	-9.358900	27.201976	-0.000139	20.872813
2460.716375	-2.986000	3.141200	-9.378900	27.181779	-0.000138	20.846336
2461.712375	-3.039000	3.138300	-9.536100	27.227903	-0.000138	20.845787
2462.707376	-3.004800	3.138200	-9.429200	27.217185	-0.000139	20.864877
2463.691374	-3.026100	3.137500	-9.493600	27.216687	-0.000138	20.861058
2464.692374	-2.989800	3.137800	-9.380600	27.235767	-0.000139	20.852749
2465.694377	-2.999100	3.138000	-9.410600	27.243608	-0.000140	20.834083
2466.720375	-3.014700	3.134600	-9.449000	27.252266	-0.000139	20.845162
2467.714371	-3.018000	3.135400	-9.460700	27.254796	-0.000138	20.845811
2468.690373	-3.015400	3.135700	-9.453800	27.231052	-0.000140	20.855592
2469.719375	-3.020700	3.133000	-9.462600	27.253629	-0.000139	20.848430
2470.694373	-3.002300	3.134100	-9.408500	27.260527	-0.000136	20.844937
2471.690163	-2.990200	3.134000	-9.370300	27.262188	-0.000136	20.886909
2472.716161	-3.006600	3.132000	-9.416100	27.273749	-0.000138	20.846857
2473.707162	-2.999100	3.130800	-9.388600	27.263973	-0.000139	20.865473
2474.690163	-2.988500	3.130400	-9.354500	27.243829	-0.000138	20.847581
2475.708162	-2.977100	3.130200	-9.318300	27.250750	-0.000139	20.865448
2476.720163	-3.001500	3.129000	-9.391100	27.277469	-0.000137	20.851073
2477.708160	-2.982600	3.127400	-9.327400	27.268836	-0.000139	20.864674
2478.708161	-2.976000	3.127500	-9.306400	27.278684	-0.000139	20.850398
2479.710163	-2.981400	3.126800	-9.321600	27.260748	-0.000137	20.865547
2480.707163	-2.966200	3.126400	-9.272000	27.253999	-0.000138	20.886258
2481.713161	-2.994200	3.125200	-9.356100	27.276079	-0.000139	20.869115
2482.723163	-2.996200	3.124800	-9.361000	27.296001	-0.000139	20.852645
2483.709160	-3.011300	3.122700	-9.402700	27.280395	-0.000138	20.852594
2484.692159	-3.000800	3.121700	-9.366700	27.287416	-0.000136	20.886681
2485.710166	-2.996500	3.121800	-9.353900	27.275210	-0.000140	20.868714
2486.711159	-3.005300	3.120200	-9.376200	27.301606	-0.000136	20.876300
2487.712162	-3.016200	3.120200	-9.410900	27.298406	-0.000137	20.861702
2488.711159	-2.982900	3.120200	-9.306700	27.306791	-0.000138	20.871085
2489.718161	-2.979200	3.118900	-9.290500	27.323635	-0.000139	20.888501
2490.718160	-3.009200	3.119200	-9.386200	27.309321	-0.000136	20.861302
2491.712160	-2.992900	3.118600	-9.333100	27.309743	-0.000139	20.868364
2492.695161	-2.999000	3.116000	-9.344000	27.322371	-0.000137	20.873006
2493.718479	-2.992800	3.116900	-9.327400	27.326490	-0.000139	20.872407
2494.720498	-2.994100	3.115700	-9.327600	27.350057	-0.000136	20.894691
2495.696495	-3.012100	3.113100	-9.376300	27.352117	-0.000139	20.879221
2496.712701	-3.010900	3.114400	-9.376100	27.341448	-0.000139	20.876075
2497.716703	-3.001600	3.113100	-9.343200	27.336387	-0.000140	20.879992
2498.694716	-3.017300	3.111700	-9.387800	27.334354	-0.000140	20.886956
2499.712718	-2.990400	3.110100	-9.299700	27.347575	-0.000138	20.898832
2500.713778	-3.012100	3.110500	-9.366800	27.354349	-0.000138	20.891896
2501.716779	-3.003000	3.108100	-9.332200	27.334651	-0.000140	20.895788
2502.698779	-3.019300	3.109000	-9.385500	27.351247	-0.000140	20.873130
2503.717778	-2.988300	3.107900	-9.287100	27.352735	-0.000137	20.901178
2504.722780	-2.996800	3.105400	-9.304700	27.340952	-0.000139	20.902126
2505.698843	-3.005400	3.104300	-9.328900	27.372009	-0.000139	20.873154
2506.698848	-2.989900	3.104300	-9.281000	27.387142	-0.000140	20.902125
2507.722845	-3.027500	3.102700	-9.392700	27.368312	-0.000136	20.896933
2508.717843	-3.007200	3.102600	-9.329300	27.373793	-0.000139	20.903869
2509.722847	-3.041700	3.101200	-9.432200	27.370569	-0.000139	20.894937
2510.715843	-3.011600	3.100600	-9.336900	27.378533	-0.000139	20.890620
2511.720843	-3.006700	3.099100	-9.317000	27.370966	-0.000140	20.880639
2512.716843	-3.035400	3.098400	-9.403000	27.409365	-0.000139	20.886077
2513.724846	-2.989000	3.100400	-9.265800	27.407654	-0.000137	20.888623
2514.699842	-3.001700	3.097800	-9.297000	27.404800	-0.000138	20.881485
2515.721844	-2.997400	3.097200	-9.282400	27.397508	-0.000139	20.899277
2516.718421	-3.016900	3.097000	-9.342700	27.408546	-0.000139	20.889520
2517.727422	-3.002900	3.095200	-9.293700	27.421471	-0.000138	20.893039
2518.704935	-2.965800	3.093900	-9.174500	27.422561	-0.000138	20.872800
2519.717934	-3.011200	3.092000	-9.309200	27.432409	-0.000139	20.888396
2520.723006	-3.010100	3.093200	-9.309900	27.421766	-0.000139	20.888121
2521.732141	-3.000800	3.092000	-9.277000	27.432954	-0.000138	20.892738
2522.701147	-3.024600	3.089000	-9.342000	27.427968	-0.000137	20.896730
2523.705141	-3.019700	3.088600	-9.326000	27.451335	-0.000136	20.886100
2524.702145	-2.998100	3.088200	-9.257400	27.454263	-0.000137	20.888097
2525.704232	-3.008000	3.086100	-9.282100	27.440546	-0.000138	20.902271
2526.702073	-3.026900	3.084500	-9.335100	27.466392	-0.000139	20.872326
2527.719068	-2.998700	3.084600	-9.249100	27.458902	-0.000141	20.865265
2528.730071	-3.012300	3.082900	-9.285700	27.465301	-0.000139	20.867435
2529.732067	-3.011100	3.081100	-9.276500	27.481275	-0.000138	20.865963
2530.721067	-3.016500	3.081100	-9.292400	27.455479	-0.000137	20.867511
2531.726287	-3.023700	3.080000	-9.311200	27.472868	-0.000138	20.883107
2532.735804	-3.015100	3.079600	-9.284700	27.480135	-0.000138	20.879039
2533.731813	-3.051200	3.077300	-9.388300	27.464830	-0.000136	20.843729
2534.706330	-2.982200	3.078400	-9.179300	27.468824	-0.000138	20.877143
2535.727332	-3.001900	3.075600	-9.231600	27.472223	-0.000140	20.876296
2536.724844	-2.968300	3.075100	-9.127500	27.488644	-0.000139	20.869583
2537.733392	-3.028400	3.073200	-9.306100	27.463196	-0.000139	20.862947
2538.739393	-2.979900	3.071900	-9.153200	27.488918	-0.000140	20.868910
2539.728393	-2.996000	3.071300	-9.200800	27.479096	-0.000139	20.854762
2540.708220	-2.986500	3.071600	-9.171000	27.493978	-0.000138	20.864519
2541.708221	-2.954700	3.069700	-9.069000	27.493657	-0.000139	20.867514
2542.710222	-2.997000	3.068500	-9.195700	27.494697	-0.000140	20.835845
2543.709223	-2.992600	3.067200	-9.178000	27.512655	-0.000138	20.864817
2544.709219	-3.011500	3.066100	-9.232800	27.507471	-0.000139	20.854386
2545.708221	-3.009000	3.064500	-9.219900	27.501469	-0.000140	20.863521
2546.737225	-3.018400	3.061700	-9.239700	27.507645	-0.000138	20.864993
2547.726223	-2.970900	3.063000	-9.098900	27.530017	-0.000138	20.844355
2548.729224	-3.009400	3.060900	-9.209900	27.536243	-0.000138	20.858204
2549.739220	-3.008200	3.058800	-9.200400	27.543163	-0.000137	20.842883
2550.711222	-3.007300	3.058400	-9.197000	27.533713	-0.000139	20.848547
2551.744222	-2.980200	3.058400	-9.113700	27.547429	-0.000140	20.856183
2552.728223	-3.016100	3.055800	-9.215100	27.545943	-0.000140	20.848998
2553.732223	-2.988600	3.054100	-9.126600	27.520989	-0.000138	20.867513
2554.734225	-2.990900	3.053900	-9.132700	27.565587	-0.000138	20.837944
2555.742221	-2.978300	3.053500	-9.093200	27.556484	-0.000136	20.847276
2556.740221	-2.987700	3.052200	-9.117300	27.538627	-0.000141	20.845905
2557.732221	-2.990000	3.050300	-9.119800	27.568439	-0.000139	20.842710
2558.736222	-3.010200	3.048800	-9.176800	27.544554	-0.000138	20.838118
2559.741222	-3.032400	3.047300	-9.240300	27.562191	-0.000139	20.838794
2560.713221	-2.982000	3.046400	-9.083700	27.552766	-0.000140	20.860130
2561.733222	-3.022200	3.044700	-9.199500	27.559563	-0.000140	20.828089
2562.741221	-2.989200	3.044700	-9.100400	27.558894	-0.000139	20.838795
2563.734221	-2.982800	3.044200	-9.079200	27.573949	-0.000140	20.822176
2564.716222	-2.995600	3.041800	-9.110300	27.570873	-0.000138	20.839469
2565.715220	-3.008000	3.040600	-9.145600	27.559414	-0.000139	20.844061
2566.747221	-2.982000	3.039400	-9.062500	27.576579	-0.000138	20.837623
2567.746221	-2.992600	3.039300	-9.094200	27.580274	-0.000142	20.860307
2568.731231	-3.040300	3.035000	-9.225300	27.602101	-0.000139	20.831535
2569.745221	-3.010400	3.035600	-9.137500	27.577619	-0.000140	20.821126
2570.734221	-2.993500	3.033900	-9.081200	27.598679	-0.000139	20.833782
2571.745225	-3.044400	3.031300	-9.226400	27.596471	-0.000139	20.832983
2572.732220	-3.019300	3.029700	-9.146500	27.591362	-0.000140	20.840644
2573.716221	-3.001100	3.030100	-9.092500	27.605027	-0.000139	20.819781
2574.718221	-3.024100	3.028700	-9.157400	27.618594	-0.000138	20.832484
2575.724226	-3.014200	3.026500	-9.121500	27.618569	-0.000141	20.815390
2576.735222	-2.986800	3.025600	-9.036000	27.618197	-0.000137	20.854843
2577.742220	-2.991600	3.025500	-9.049500	27.639056	-0.000138	20.805658
2578.717190	-2.974800	3.023400	-8.992300	27.640916	-0.000139	20.816064
2579.743243	-3.024900	3.021500	-9.138600	27.636825	-0.000139	20.836129
2580.719245	-2.965000	3.021200	-8.956500	27.636230	-0.000139	20.834108
2581.716843	-3.014400	3.018900	-9.099100	27.613313	-0.000141	20.821955
2582.716837	-2.984000	3.018500	-9.006600	27.640049	-0.000138	20.821830
2583.717837	-3.009400	3.015700	-9.074500	27.629682	-0.000140	20.829891
2584.717857	-3.009700	3.015900	-9.076000	27.618101	-0.000138	20.819186
2585.719839	-3.000800	3.014500	-9.045000	27.627227	-0.000139	20.827420
2586.720431	-3.009400	3.011800	-9.062800	27.644193	-0.000138	20.830267
2587.719613	-3.000900	3.010800	-9.034000	27.605081	-0.000138	20.830741
2588.720661	-3.008000	3.010600	-9.054200	27.634793	-0.000140	20.838352
2589.720486	-2.990900	3.009300	-8.999000	27.619589	-0.000139	20.823528
2590.721568	-2.989400	3.007600	-8.990400	27.627774	-0.000137	20.816117
2591.720201	-3.007600	3.005000	-9.037400	27.646128	-0.000140	20.825576
2592.719610	-2.999000	3.004400	-9.009000	27.654708	-0.000137	20.828045
2593.723223	-3.020500	3.002200	-9.067400	27.652922	-0.000139	20.806334
2594.720842	-3.016600	3.001300	-9.052500	27.661801	-0.000139	20.823329
2595.722327	-3.000100	3.000100	-9.000000	27.670506	-0.000140	20.802692
2596.723336	-2.999000	2.998300	-8.990900	27.690371	-0.000141	20.809878
2597.721327	-2.996900	2.997400	-8.981900	27.677772	-0.000140	20.825175
2598.723071	-3.016600	2.995400	-9.034900	27.681914	-0.000140	20.814171
2599.721298	-3.000200	2.995000	-8.984200	27.704655	-0.000140	20.819511
2600.722101	-2.993200	2.993500	-8.959100	27.696744	-0.000136	20.816291
2601.722538	-2.982800	2.992500	-8.925100	27.718815	-0.000138	20.832811
2602.741390	-3.003800	2.990700	-8.983200	27.713458	-0.000138	20.825050
2603.744978	-3.014100	2.989400	-9.009100	27.717053	-0.000139	20.831038
2604.720606	-2.983500	2.987600	-8.912800	27.709044	-0.000140	20.814444
2605.746901	-3.032600	2.986500	-9.055900	27.721791	-0.000139	20.812098
2606.725901	-3.014500	2.985000	-8.997500	27.729626	-0.000140	20.801017
2607.741122	-2.999900	2.983200	-8.948400	27.719980	-0.000138	20.797949
2608.724881	-3.015000	2.981100	-8.986600	27.731834	-0.000136	20.801342
2609.723891	-3.009300	2.980700	-8.969300	27.731089	-0.000139	20.828094
2610.722631	-3.019900	2.978200	-8.993200	27.727643	-0.000139	20.813720
2611.748629	-2.986000	2.977600	-8.889500	27.747109	-0.000140	20.822878
2612.748639	-3.003800	2.975400	-8.936400	27.742373	-0.000139	20.818586
2613.725907	-3.009100	2.973500	-8.946700	27.740068	-0.000139	20.805361
2614.724518	-2.996400	2.973100	-8.907900	27.746242	-0.000137	20.825325
2615.745518	-2.970100	2.972500	-8.827400	27.742646	-0.000137	20.800843
2616.744034	-2.989400	2.969400	-8.875700	27.761616	-0.000138	20.809502
2617.729059	-2.981200	2.968800	-8.848500	27.764097	-0.000139	20.802990
2618.745105	-2.989900	2.966700	-8.869500	27.754030	-0.000138	20.801868
2619.748158	-2.995600	2.965900	-8.883700	27.759410	-0.000139	20.804912
2620.728193	-2.995800	2.964000	-8.878600	27.777240	-0.000138	20.819536
2621.742268	-2.982600	2.962800	-8.835800	27.790854	-0.000140	20.790563
2622.750311	-3.006700	2.961000	-8.902100	27.771487	-0.000138	20.811850
2623.755471	-3.026200	2.959400	-8.954700	27.779398	-0.000141	20.814121
2624.745526	-3.003400	2.957700	-8.882200	27.760305	-0.000137	20.805337
2625.728264	-3.042500	2.954700	-8.988700	27.790806	-0.000139	20.804739
2626.744244	-2.994700	2.955100	-8.848100	27.793285	-0.000140	20.805812
2627.727144	-3.006600	2.954000	-8.880600	27.812701	-0.000141	20.819187
2628.728374	-3.022300	2.951300	-8.918700	27.787483	-0.000141	20.799024
2629.727395	-3.034800	2.949200	-8.948500	27.793956	-0.000139	20.792262
2630.727397	-2.977700	2.950000	-8.783100	27.803901	-0.000139	20.785201
2631.727395	-3.021800	2.947300	-8.905000	27.774714	-0.000141	20.801821
2632.726614	-2.979400	2.945300	-8.774500	27.791975	-0.000138	20.805441
2633.729763	-2.999600	2.945300	-8.833800	27.815332	-0.000139	20.802869
2634.752687	-2.998700	2.942200	-8.821500	27.812431	-0.000140	20.804691
2635.744440	-2.995800	2.940600	-8.808500	27.804423	-0.000138	20.790467
2636.730546	-3.002700	2.938000	-8.820000	27.814787	-0.000139	20.822708
2637.728224	-3.003400	2.937100	-8.820600	27.809258	-0.000139	20.787747
2638.728179	-3.011000	2.936700	-8.840800	27.809307	-0.000139	20.785426
2639.731474	-2.994600	2.934600	-8.787000	27.813572	-0.000138	20.799675
2640.730534	-3.003900	2.932600	-8.808200	27.824112	-0.000141	20.777092
2641.756531	-3.012000	2.931000	-8.826200	27.829864	-0.000139	20.791890
2642.753382	-3.005900	2.930300	-8.808100	27.809978	-0.000139	20.796532
2643.730605	-2.988600	2.928100	-8.749700	27.833015	-0.000137	20.811182
2644.732766	-3.003600	2.925100	-8.784600	27.819898	-0.000139	20.801300
2645.731766	-3.018400	2.924200	-8.824900	27.843876	-0.000139	20.809785
2646.732814	-2.994200	2.924000	-8.753600	27.858903	-0.000139	20.812106
2647.750038	-3.017800	2.921000	-8.813600	27.845734	-0.000138	20.808336
2648.733236	-2.999900	2.918800	-8.755900	27.855679	-0.000139	20.804120
2649.735239	-3.008900	2.917500	-8.777800	27.872713	-0.000137	20.782858
2650.735457	-2.980600	2.916700	-8.693100	27.871252	-0.000138	20.805095
2651.733502	-2.991000	2.915000	-8.716600	27.873184	-0.000139	20.785702
2652.738209	-3.009800	2.912300	-8.764500	27.883526	-0.000141	20.806542
2653.733561	-2.986100	2.912500	-8.696700	27.889897	-0.000141	20.780712
2654.736163	-2.988000	2.909600	-8.692600	27.881048	-0.000140	20.794565
2655.738434	-2.993000	2.906800	-8.698900	27.888014	-0.000139	20.794464
2656.736602	-2.996100	2.905400	-8.704100	27.883401	-0.000138	20.795511
2657.736112	-3.014400	2.904400	-8.753500	27.885286	-0.000139	20.795038
2658.735580	-3.015100	2.900600	-8.744900	27.883326	-0.000137	20.790220
2659.735647	-3.011000	2.899300	-8.728300	27.904503	-0.000141	20.775972
2660.738166	-3.011400	2.896700	-8.722200	27.906834	-0.000138	20.772628
2661.737381	-3.011900	2.895500	-8.720400	27.910601	-0.000138	20.779739
2662.736144	-3.037700	2.893500	-8.788200	27.899866	-0.000140	20.788375
2663.753088	-3.022400	2.891100	-8.737500	27.906634	-0.000138	20.792342
2664.736091	-3.019400	2.890600	-8.727200	27.898128	-0.000138	20.797057
2665.736530	-3.029900	2.887800	-8.748900	27.902716	-0.000138	20.779863
2666.740637	-3.024800	2.885600	-8.726800	27.904526	-0.000139	20.782159
2667.737602	-3.030300	2.884700	-8.740900	27.893220	-0.000138	20.798281
2668.741067	-3.004700	2.882700	-8.660200	27.919079	-0.000139	20.794436
2669.739139	-3.022400	2.880300	-8.704700	27.917467	-0.000138	20.779063
2670.740352	-2.986100	2.880700	-8.600700	27.914319	-0.000139	20.781110
2671.744353	-2.981200	2.877900	-8.578400	27.935566	-0.000139	20.794909
2672.759357	-2.982100	2.875100	-8.572800	27.915582	-0.000137	20.758674
2673.742350	-3.009700	2.873000	-8.646400	27.933360	-0.000141	20.795060
2674.767863	-3.009900	2.869600	-8.634900	27.945435	-0.000140	20.774497
2675.741650	-2.963000	2.869800	-8.501700	27.933187	-0.000140	20.774971
2676.743701	-2.990100	2.867000	-8.571400	27.969905	-0.000140	20.787747
2677.763397	-3.002100	2.865600	-8.601700	27.968319	-0.000139	20.794685
2678.762195	-2.989700	2.863300	-8.559800	27.952971	-0.000139	20.780185
2679.744396	-3.003200	2.862100	-8.594100	27.968615	-0.000139	20.774595
2680.743608	-2.990700	2.858600	-8.548700	27.976648	-0.000138	20.771775
2681.742815	-2.996900	2.856100	-8.558600	27.983442	-0.000139	20.791890
2682.746815	-2.987000	2.855200	-8.527100	27.982550	-0.000141	20.778189
2683.765254	-3.005900	2.853000	-8.575000	27.996581	-0.000139	20.780459
2684.760305	-2.987800	2.850000	-8.514200	28.008979	-0.000140	20.778239
2685.762522	-2.985500	2.848600	-8.503500	28.029655	-0.000140	20.783405
2686.769522	-3.010100	2.846200	-8.566400	28.014954	-0.000139	20.774770
2687.772320	-3.000900	2.843000	-8.530200	28.042299	-0.000141	20.755355
2688.774187	-2.975400	2.842200	-8.455800	28.050009	-0.000140	20.773547
2689.748479	-2.968500	2.839500	-8.427800	28.030871	-0.000140	20.779887
2690.749480	-2.987600	2.837300	-8.474900	28.053332	-0.000139	20.773573
2691.763697	-2.994400	2.834800	-8.488000	28.066719	-0.000141	20.762867
2692.765702	-2.986800	2.833800	-8.462700	28.071455	-0.000141	20.770480
2693.767386	-3.005600	2.829900	-8.504500	28.049043	-0.000140	20.776369
2694.780539	-3.019300	2.826800	-8.534500	28.059482	-0.000139	20.770281
2695.754668	-3.008600	2.825500	-8.500200	28.068308	-0.000140	20.773949
2696.752778	-2.991300	2.824100	-8.446500	28.087743	-0.000139	20.785928
2697.770104	-3.045700	2.819500	-8.586400	28.069075	-0.000140	20.777567
2698.793158	-3.003200	2.818400	-8.463700	28.099099	-0.000139	20.774125
2699.754584	-2.997600	2.816400	-8.442300	28.086778	-0.000141	20.751765
2700.754713	-2.997600	2.813500	-8.432800	28.084794	-0.000141	20.771579
2701.776334	-3.027000	2.811800	-8.510600	28.097165	-0.000140	20.755109
2702.781333	-2.997800	2.808400	-8.418100	28.093869	-0.000141	20.765068
2703.780728	-2.978200	2.806800	-8.358300	28.094934	-0.000141	20.769932
2704.777962	-2.973200	2.805000	-8.338700	28.097562	-0.000140	20.771630
2705.757485	-3.034800	2.800900	-8.499100	28.108619	-0.000140	20.767114
2706.776510	-3.011900	2.799200	-8.429200	28.122898	-0.000140	20.756831
2707.774554	-3.030800	2.795700	-8.472100	28.102992	-0.000140	20.744853
2708.758554	-3.026600	2.793900	-8.455300	28.102570	-0.000140	20.751541
2709.757413	-3.036200	2.790700	-8.471200	28.108074	-0.000138	20.757556
2710.758447	-3.011700	2.788100	-8.396200	28.132789	-0.000142	20.758254
2711.757505	-2.985000	2.787000	-8.318000	28.122773	-0.000142	20.771405
2712.757506	-3.034000	2.781900	-8.439700	28.128550	-0.000137	20.750193
2713.759506	-2.993600	2.779700	-8.320700	28.134425	-0.000141	20.739512
2714.758063	-2.995200	2.777800	-8.319500	28.146869	-0.000142	20.751091
2715.758065	-3.001500	2.775700	-8.330500	28.168312	-0.000143	20.738065
2716.759067	-2.991700	2.772800	-8.294600	28.157750	-0.000141	20.763942
2717.779105	-2.979400	2.770200	-8.252300	28.154627	-0.000141	20.745625
2718.758457	-3.025500	2.766600	-8.368300	28.183654	-0.000140	20.761097
2719.759474	-3.007200	2.763700	-8.309500	28.170616	-0.000143	20.754135
2720.786999	-2.993700	2.761700	-8.266700	28.200261	-0.000142	20.766912
2721.759030	-3.010400	2.758500	-8.303100	28.190817	-0.000140	20.745075
2722.783916	-2.980900	2.754400	-8.209300	28.192800	-0.000140	20.758925
2723.775043	-2.979700	2.753400	-8.203600	28.189999	-0.000141	20.747570
2724.783340	-2.989100	2.749200	-8.216700	28.202664	-0.000139	20.728552
2725.760361	-3.012900	2.746700	-8.275100	28.217239	-0.000139	20.747020
2726.776409	-3.003000	2.742600	-8.235700	28.219123	-0.000140	20.745123
2727.778408	-3.002100	2.740300	-8.225300	28.212455	-0.000141	20.744574
2728.776439	-3.003000	2.736300	-8.216400	28.218874	-0.000139	20.731596
2729.774676	-3.014000	2.733700	-8.238000	28.246438	-0.000140	20.730424
2730.777761	-3.013700	2.729300	-8.223500	28.237812	-0.000140	20.737860
2731.780730	-2.973900	2.727200	-8.109500	28.235060	-0.000140	20.764962
2732.760154	-3.003200	2.722100	-8.173900	28.258930	-0.000138	20.735414
2733.774377	-3.015400	2.717900	-8.194400	28.255235	-0.000142	20.735013
2734.775882	-2.994600	2.716700	-8.134200	28.273157	-0.000140	20.747368
2735.787884	-2.987000	2.711800	-8.099300	28.254344	-0.000141	20.763989
2736.760881	-2.990100	2.708600	-8.098300	28.281708	-0.000141	20.737011
2737.781100	-3.005800	2.704600	-8.127700	28.271422	-0.000140	20.724757
2738.778071	-3.000800	2.701100	-8.104400	28.290134	-0.000140	20.727002
2739.782164	-2.996200	2.698000	-8.083000	28.314151	-0.000140	20.740753
2740.761365	-3.018700	2.691900	-8.125100	28.318389	-0.000141	20.747866
2741.760577	-3.016300	2.687800	-8.106100	28.305105	-0.000140	20.745870
2742.766574	-2.966300	2.685400	-7.964900	28.322257	-0.000141	20.739432
2743.763248	-2.994000	2.679900	-8.022900	28.335492	-0.000140	20.739481
2744.780536	-3.012300	2.674300	-8.054900	28.328377	-0.000140	20.744172
2745.786586	-2.997900	2.671300	-8.007500	28.343522	-0.000138	20.747567
2746.768589	-2.989300	2.666500	-7.970400	28.344464	-0.000141	20.737610
2747.783076	-2.952800	2.663400	-7.862700	28.363919	-0.000139	20.723059
2748.785072	-2.976800	2.658300	-7.912400	28.355714	-0.000141	20.748464
2749.787115	-2.982000	2.654300	-7.914100	28.382456	-0.000142	20.741726
2750.789112	-2.963500	2.649900	-7.852300	28.380079	-0.000141	20.745022
2751.765111	-2.994100	2.643900	-7.915100	28.389149	-0.000141	20.742302
2752.764942	-2.992200	2.638600	-7.894400	28.386224	-0.000141	20.712327
2753.764964	-2.973400	2.634300	-7.831900	28.401193	-0.000140	20.723608
2754.766485	-3.017500	2.628600	-7.931200	28.383968	-0.000142	20.731394
2755.766655	-3.012200	2.623400	-7.901300	28.412743	-0.000141	20.733816
2756.766861	-2.997300	2.617700	-7.845200	28.407413	-0.000141	20.730346
2757.785511	-2.995200	2.613200	-7.826500	28.417178	-0.000141	20.735438
2758.783510	-2.977300	2.608800	-7.765700	28.415890	-0.000141	20.730348
2759.792276	-3.004900	2.601500	-7.816800	28.444809	-0.000141	20.732442
2760.768979	-3.012700	2.595700	-7.818700	28.447489	-0.000139	20.725183
2761.769922	-2.971900	2.591800	-7.701900	28.466719	-0.000141	20.724633
2762.797727	-3.003700	2.586800	-7.768800	28.464465	-0.000140	20.713827
2763.771726	-2.995200	2.580200	-7.727300	28.474254	-0.000142	20.748343
2764.784779	-2.988000	2.574500	-7.691100	28.499579	-0.000142	20.729275
2765.772807	-3.004000	2.568200	-7.713500	28.498688	-0.000141	20.726007
2766.774954	-3.002200	2.562100	-7.691300	28.494549	-0.000141	20.705242
2767.772170	-3.019700	2.555300	-7.714100	28.505008	-0.000142	20.723362
2768.773313	-3.033900	2.549400	-7.733200	28.503125	-0.000141	20.713879
2769.791449	-3.020500	2.543100	-7.680200	28.527162	-0.000139	20.726706
2770.790286	-3.008100	2.536500	-7.629300	28.522577	-0.000139	20.732521
2771.776507	-3.008300	2.530300	-7.611000	28.514151	-0.000141	20.730674
2772.801459	-2.999000	2.523800	-7.568600	28.544508	-0.000137	20.742754
2773.796545	-2.977200	2.519700	-7.500900	28.534421	-0.000140	20.718370
2774.773593	-3.035900	2.510200	-7.618800	28.542500	-0.000142	20.717496
2775.797808	-3.001200	2.504200	-7.514900	28.552115	-0.000140	20.741406
2776.782807	-2.989800	2.498800	-7.469800	28.567181	-0.000138	20.725284
