LabVIEW Measurement	
Writer_Version	2
Reader_Version	2
Separator	Tab
Decimal_Separator	.
Multi_Headings	No
X_Columns	One
Time_Pref	Absolute
Operator	admin
Description	Clolumns are: time, Current, Voltage, Power, Battery Temp, and Chamber Temp
Date	2024/08/16
Time	13:59:35.9411449432373046875
***End_of_Header***	
	
Channels	6						
Samples	1	1	1	1	1	1	
Date	2024/09/19	2024/09/19	2024/09/19	2024/09/19	2024/09/19	2024/09/19	
Time	01:37:28.7035040855407714844	01:37:28.7105050086975097656	01:37:28.7155089378356933594	01:37:28.6804647445678710937	01:37:28.6804647445678710937	01:37:28.6804647445678710937	
X_Dimension	Time	Time	Time	Time	Time	Time	
X0	0.0000000000000000E+0	0.0000000000000000E+0	0.0000000000000000E+0	0.0000000000000000E+0	0.0000000000000000E+0	0.0000000000000000E+0	
Delta_X	1.000000	1.000000	1.000000	1.000000	1.000000	1.000000	
***End_of_Header***							
X_Value	Untitled	Untitled 1	Untitled 2	Untitled 3	Untitled 4	Untitled 5	Comment
0.000000	0.003195	4.094800	0.013094	20.891965	0.000392	20.799509
0.993786	-2.990600	3.933700	-11.762000	20.893413	0.000393	20.813285
1.993742	-2.982200	3.927600	-11.712000	20.906438	0.000389	20.818251
2.991816	-2.983100	3.921300	-11.697000	20.872477	0.000389	20.818425
3.993205	-2.980100	3.917300	-11.673000	20.866438	0.000388	20.796739
4.994716	-2.996100	3.913400	-11.724000	20.887499	0.000390	20.782714
5.999931	-3.003400	3.909700	-11.741000	20.897830	0.000388	20.804426
6.994814	-2.995500	3.906900	-11.701000	20.899377	0.000386	20.789378
7.994457	-3.021600	3.904900	-11.797000	20.906614	0.000385	20.818900
8.994664	-2.999500	3.904200	-11.708000	20.886825	0.000385	20.786782
9.996095	-2.996600	3.902400	-11.692000	20.924779	0.000383	20.806722
10.997712	-3.018500	3.900800	-11.773000	20.903270	0.000382	20.792323
11.997763	-3.000100	3.898300	-11.694000	20.942021	0.000381	20.800258
12.995669	-3.007400	3.896900	-11.719000	20.900075	0.000382	20.813784
13.999176	-3.016200	3.895200	-11.747000	20.905640	0.000380	20.788529
14.996364	-3.000800	3.893400	-11.682000	20.912876	0.000380	20.814732
15.997997	-3.021600	3.893500	-11.763000	20.937929	0.000378	20.788579
17.000410	-2.983300	3.892900	-11.612000	20.921211	0.000379	20.778023
17.999201	-3.013300	3.890300	-11.722000	20.936232	0.000379	20.792098
18.998117	-3.037400	3.890200	-11.815000	20.958764	0.000378	20.809891
19.999286	-3.001700	3.889400	-11.674000	20.955670	0.000377	20.801107
20.999720	-3.009800	3.888100	-11.702000	20.961983	0.000376	20.794619
22.005632	-3.014100	3.886600	-11.713000	20.953499	0.000377	20.780444
23.000991	-2.997600	3.887500	-11.652000	20.960411	0.000376	20.786408
24.001212	-3.007600	3.886200	-11.687000	20.969893	0.000375	20.791150
25.004504	-3.011100	3.885100	-11.698000	20.959987	0.000373	20.787407
26.001977	-2.985000	3.885600	-11.598000	20.983317	0.000374	20.789877
27.000778	-2.998400	3.884700	-11.647000	20.978601	0.000375	20.780419
28.003123	-3.002600	3.884300	-11.662000	20.984565	0.000373	20.777375
28.999854	-3.014800	3.882400	-11.704000	21.011188	0.000371	20.778872
30.000383	-3.023700	3.881200	-11.735000	20.999561	0.000373	20.802805
31.000600	-3.006400	3.881900	-11.670000	20.991876	0.000372	20.790377
32.000005	-3.009900	3.882100	-11.684000	21.030375	0.000370	20.774829
33.003519	-3.016100	3.880800	-11.704000	21.025734	0.000371	20.769714
34.001861	-2.981900	3.881700	-11.574000	21.013533	0.000371	20.783115
35.003161	-3.018100	3.880300	-11.710000	21.042800	0.000370	20.782042
36.003014	-3.012500	3.878600	-11.683000	21.030924	0.000369	20.790552
37.003015	-2.991700	3.880600	-11.608000	21.028903	0.000369	20.799910
38.004883	-3.020500	3.878800	-11.715000	21.054502	0.000366	20.782840
39.004619	-3.016600	3.878000	-11.697000	21.052980	0.000366	20.764722
40.002509	-2.979800	3.878900	-11.557000	21.069597	0.000369	20.778498
41.004397	-2.982400	3.876900	-11.562000	21.074936	0.000367	20.782891
42.003136	-2.992900	3.877000	-11.602000	21.093748	0.000366	20.768516
43.003222	-2.979300	3.876000	-11.547000	21.071892	0.000366	20.786010
44.006567	-2.968700	3.876800	-11.508000	21.078055	0.000368	20.767518
45.004620	-2.967800	3.875800	-11.502000	21.112609	0.000366	20.781693
46.004829	-2.995000	3.876100	-11.609000	21.120094	0.000364	20.763575
47.005539	-2.975300	3.875900	-11.531000	21.097890	0.000364	20.786884
48.005020	-2.992500	3.875400	-11.596000	21.108019	0.000363	20.792274
49.010252	-2.980200	3.874200	-11.546000	21.129898	0.000365	20.780969
50.005899	-3.024100	3.873700	-11.713000	21.130322	0.000363	20.775229
51.006925	-3.005200	3.873500	-11.640000	21.141400	0.000363	20.785361
52.007400	-3.000200	3.873500	-11.621000	21.150406	0.000363	20.783939
53.006712	-3.016900	3.873400	-11.685000	21.146465	0.000362	20.768142
54.011589	-3.005700	3.873000	-11.640000	21.142448	0.000362	20.775978
55.011882	-2.999800	3.871900	-11.614000	21.143795	0.000363	20.781593
56.010277	-3.007700	3.871200	-11.643000	21.162156	0.000364	20.783365
57.012520	-2.994500	3.872800	-11.596000	21.185582	0.000361	20.775978
58.010332	-3.014300	3.872800	-11.673000	21.170713	0.000363	20.772010
59.010125	-3.016200	3.871200	-11.675000	21.184659	0.000362	20.769839
60.015058	-2.977400	3.871200	-11.525000	21.196159	0.000361	20.763325
61.011182	-3.014200	3.870600	-11.666000	21.206163	0.000362	20.758633
62.011650	-2.986200	3.871000	-11.559000	21.188899	0.000361	20.782142
63.011431	-2.993400	3.870400	-11.585000	21.210653	0.000361	20.770238
64.011621	-2.992300	3.870600	-11.581000	21.223276	0.000359	20.784762
65.012173	-3.000200	3.870000	-11.610000	21.222552	0.000360	20.782616
66.010611	-3.009700	3.869200	-11.644000	21.200849	0.000358	20.795518
67.011689	-2.987400	3.869000	-11.558000	21.248870	0.000361	20.794245
68.012903	-2.985800	3.869300	-11.552000	21.251265	0.000360	20.770088
69.011427	-2.996300	3.868200	-11.590000	21.246600	0.000358	20.764947
70.012217	-2.989600	3.869000	-11.567000	21.257152	0.000360	20.756537
71.012122	-3.019900	3.866800	-11.676000	21.256753	0.000362	20.768940
72.012863	-3.015500	3.867800	-11.661000	21.255082	0.000359	20.751146
73.019009	-3.000000	3.867800	-11.602000	21.263563	0.000360	20.755838
74.015036	-3.023500	3.866600	-11.690000	21.273840	0.000359	20.756162
75.014863	-3.022500	3.866200	-11.685000	21.286387	0.000359	20.764921
76.017412	-2.998900	3.867300	-11.597000	21.302976	0.000360	20.756386
77.014778	-2.983700	3.867000	-11.537000	21.293696	0.000359	20.763224
78.013558	-2.996700	3.867100	-11.587000	21.314899	0.000358	20.763099
79.014172	-2.991600	3.865400	-11.563000	21.309935	0.000359	20.752443
80.015274	-2.996600	3.866100	-11.584000	21.317867	0.000358	20.760853
81.018201	-2.984800	3.866500	-11.540000	21.324378	0.000358	20.759780
82.016267	-2.985900	3.865600	-11.540000	21.309536	0.000360	20.739715
83.014392	-2.983000	3.865900	-11.531000	21.337099	0.000359	20.763972
84.018941	-2.981900	3.866300	-11.528000	21.330813	0.000360	20.742036
85.017201	-3.004600	3.864700	-11.611000	21.348473	0.000357	20.737418
86.016340	-2.997800	3.865300	-11.586000	21.347899	0.000360	20.744906
87.017593	-2.984700	3.865500	-11.537000	21.363214	0.000358	20.765444
88.016136	-3.003600	3.863100	-11.602000	21.379627	0.000359	20.725913
89.019959	-3.027500	3.863900	-11.697000	21.375710	0.000359	20.756135
90.014880	-3.008700	3.864200	-11.625000	21.374313	0.000359	20.764221
91.015485	-3.010700	3.863700	-11.631000	21.408934	0.000359	20.758556
92.016603	-2.998900	3.864300	-11.587000	21.377656	0.000358	20.741012
93.019835	-3.011800	3.863300	-11.635000	21.407113	0.000359	20.740612
94.017819	-3.005600	3.862500	-11.608000	21.414022	0.000359	20.730455
95.015790	-3.014300	3.862800	-11.643000	21.408585	0.000358	20.750146
96.017039	-3.005500	3.863600	-11.611000	21.434225	0.000360	20.734074
97.018763	-3.027100	3.862400	-11.691000	21.416043	0.000361	20.733425
98.018320	-3.016600	3.863200	-11.653000	21.427691	0.000360	20.740338
99.019008	-3.005400	3.861400	-11.604000	21.433377	0.000359	20.732277
100.019618	-2.992900	3.862400	-11.559000	21.446023	0.000360	20.732127
101.017987	-3.001600	3.862400	-11.593000	21.449565	0.000359	20.738042
102.023118	-3.000400	3.861500	-11.584000	21.440586	0.000359	20.755612
103.021045	-3.013000	3.860800	-11.632000	21.462534	0.000360	20.754813
104.020502	-2.995400	3.862700	-11.569000	21.482412	0.000361	20.747676
105.021242	-3.001700	3.861000	-11.589000	21.465802	0.000358	20.744332
106.019909	-2.996500	3.860800	-11.568000	21.506729	0.000359	20.745929
107.022835	-3.004300	3.860000	-11.596000	21.475379	0.000361	20.745380
108.027369	-2.988400	3.862400	-11.541000	21.502739	0.000360	20.752368
109.021014	-3.002400	3.862000	-11.593000	21.499921	0.000360	20.717779
110.023759	-3.001800	3.860300	-11.587000	21.501442	0.000359	20.747277
111.022639	-3.011600	3.860800	-11.625000	21.528776	0.000360	20.738592
112.024522	-2.994300	3.859800	-11.556000	21.513963	0.000360	20.748425
113.026976	-3.014300	3.861500	-11.639000	21.518552	0.000360	20.728361
114.023956	-2.993000	3.861100	-11.555000	21.534938	0.000361	20.761353
115.024094	-2.998800	3.859500	-11.573000	21.552794	0.000360	20.745556
116.026320	-2.989700	3.859400	-11.537000	21.524987	0.000362	20.758983
117.023695	-2.999400	3.859400	-11.575000	21.534589	0.000361	20.726389
118.026556	-3.034800	3.858400	-11.709000	21.562895	0.000361	20.738120
119.025653	-3.000600	3.860000	-11.582000	21.583719	0.000359	20.760855
120.025326	-2.996000	3.858800	-11.560000	21.571549	0.000360	20.742986
121.028039	-3.007500	3.859000	-11.605000	21.565838	0.000360	20.737271
122.024555	-2.992600	3.858200	-11.545000	21.567534	0.000360	20.744184
123.026026	-2.982700	3.857600	-11.505000	21.582797	0.000360	20.737646
124.028978	-2.977900	3.858100	-11.487000	21.599082	0.000360	20.760107
125.025102	-2.993100	3.857900	-11.545000	21.586862	0.000363	20.763526
126.025259	-2.966100	3.858100	-11.442000	21.604144	0.000361	20.735300
127.025684	-3.005000	3.856300	-11.587000	21.602723	0.000361	20.740042
128.025978	-3.013900	3.856400	-11.622000	21.618559	0.000362	20.734552
129.027485	-3.009600	3.856200	-11.604000	21.622474	0.000363	20.739893
130.026442	-2.999800	3.858000	-11.573000	21.631676	0.000361	20.755740
131.025877	-3.020700	3.855800	-11.646000	21.635092	0.000362	20.752047
132.028258	-3.020400	3.855200	-11.642000	21.649357	0.000364	20.739769
133.028118	-3.020200	3.856400	-11.645000	21.634569	0.000363	20.750574
134.026920	-3.000200	3.855300	-11.566000	21.648858	0.000362	20.747805
135.027309	-3.019600	3.854800	-11.639000	21.665117	0.000364	20.758386
136.028219	-3.007600	3.855200	-11.594000	21.671127	0.000364	20.746383
137.028374	-3.012300	3.853300	-11.606000	21.670704	0.000364	20.739320
138.027973	-2.996700	3.855200	-11.552000	21.678259	0.000365	20.758736
139.028600	-2.980400	3.855600	-11.490000	21.676065	0.000365	20.742315
140.030429	-3.000300	3.854800	-11.564000	21.698358	0.000362	20.740443
141.027749	-2.977600	3.855300	-11.479000	21.690553	0.000364	20.742589
142.028818	-3.008100	3.854100	-11.593000	21.693296	0.000364	20.745335
143.030129	-3.008900	3.853400	-11.594000	21.718207	0.000367	20.752248
144.029338	-3.005100	3.854200	-11.581000	21.737108	0.000363	20.770690
145.035600	-3.001400	3.853200	-11.564000	21.722770	0.000363	20.752073
146.038272	-3.011400	3.853000	-11.602000	21.728780	0.000365	20.742914
147.030597	-3.006000	3.854100	-11.585000	21.748529	0.000366	20.760783
148.033962	-3.010700	3.854000	-11.603000	21.757555	0.000367	20.749428
149.029988	-3.009300	3.852000	-11.590000	21.753341	0.000367	20.749004
150.030513	-3.014700	3.851900	-11.611000	21.738056	0.000366	20.757888
151.033569	-3.022400	3.851900	-11.642000	21.767305	0.000367	20.748755
152.035239	-2.999000	3.853200	-11.554000	21.760099	0.000368	20.755293
153.034171	-3.001200	3.853800	-11.564000	21.787427	0.000368	20.765576
154.033333	-2.987300	3.854000	-11.512000	21.782516	0.000366	20.779152
155.034589	-3.019400	3.851200	-11.627000	21.811538	0.000368	20.753197
156.034739	-2.992300	3.852300	-11.526000	21.774786	0.000367	20.741543
157.033502	-3.007200	3.852400	-11.584000	21.812610	0.000368	20.765651
158.034708	-3.030300	3.850800	-11.669000	21.817199	0.000368	20.730887
159.033331	-2.987200	3.851000	-11.502000	21.819243	0.000368	20.762331
160.033669	-2.998700	3.851200	-11.547000	21.789921	0.000367	20.744837
161.034109	-3.003800	3.852500	-11.571000	21.814281	0.000369	20.757840
162.033845	-3.005600	3.850900	-11.573000	21.812361	0.000369	20.778204
163.035165	-2.985500	3.851700	-11.498000	21.838466	0.000369	20.764503
164.035277	-2.990300	3.851200	-11.514000	21.853351	0.000371	20.771341
165.034631	-2.998800	3.850500	-11.546000	21.859310	0.000369	20.758812
166.041512	-2.990600	3.851000	-11.515000	21.862227	0.000369	20.754146
167.033974	-2.993000	3.850500	-11.523000	21.869033	0.000371	20.798892
168.034285	-3.003500	3.849900	-11.562000	21.872499	0.000370	20.742142
169.034248	-3.009500	3.848500	-11.581000	21.871602	0.000373	20.749779
170.034446	-2.988000	3.850600	-11.506000	21.884192	0.000371	20.768071
171.036482	-3.007800	3.848900	-11.576000	21.884841	0.000373	20.753073
172.033923	-2.973100	3.849600	-11.444000	21.880003	0.000372	20.753921
173.035338	-2.994700	3.848900	-11.526000	21.900796	0.000371	20.765251
174.036429	-3.001400	3.850000	-11.554000	21.899150	0.000371	20.758862
175.034766	-2.992600	3.849100	-11.518000	21.913337	0.000371	20.771166
176.033711	-2.997700	3.848200	-11.535000	21.928096	0.000373	20.765551
177.034454	-2.983800	3.848800	-11.483000	21.930439	0.000372	20.767422
178.035031	-3.007000	3.848800	-11.572000	21.927397	0.000373	20.778128
179.036624	-2.978200	3.849200	-11.463000	21.926176	0.000371	20.754619
180.035586	-3.021900	3.846800	-11.624000	21.938417	0.000374	20.773037
181.035340	-3.015900	3.847900	-11.604000	21.946295	0.000373	20.801311
182.036956	-2.990200	3.848800	-11.508000	21.955170	0.000375	20.773212
183.034669	-3.000700	3.845900	-11.540000	21.975388	0.000375	20.788708
184.034865	-3.022500	3.846000	-11.623000	21.960654	0.000378	20.769218
185.036327	-3.012100	3.847200	-11.587000	21.965839	0.000375	20.765399
186.036761	-3.011200	3.846300	-11.582000	21.964992	0.000373	20.798690
187.041338	-2.996400	3.847300	-11.527000	21.970801	0.000376	20.756615
188.038402	-3.000600	3.847100	-11.542000	21.984013	0.000377	20.789282
189.037635	-3.013100	3.846400	-11.589000	22.007148	0.000378	20.765973
190.039048	-3.002700	3.845800	-11.547000	21.989523	0.000378	20.784365
191.038081	-2.986400	3.847200	-11.488000	22.020335	0.000378	20.782967
192.038574	-3.011800	3.846600	-11.584000	22.008419	0.000379	20.779100
193.042261	-2.983800	3.845600	-11.474000	22.012831	0.000379	20.776404
194.040570	-3.005100	3.846800	-11.560000	22.021206	0.000378	20.770089
195.041745	-2.994700	3.845300	-11.515000	22.027065	0.000377	20.787808
196.039838	-3.005600	3.845900	-11.559000	22.038108	0.000378	20.787958
197.041947	-2.992900	3.844200	-11.505000	22.055184	0.000379	20.780870
198.045097	-3.000100	3.845100	-11.534000	22.043417	0.000381	20.782367
199.042284	-2.998200	3.844200	-11.525000	22.061465	0.000378	20.780046
200.042257	-2.982400	3.845700	-11.468000	22.086618	0.000383	20.783890
201.041747	-2.987000	3.844100	-11.481000	22.061740	0.000379	20.793123
202.041739	-2.992600	3.845300	-11.506000	22.084698	0.000380	20.784813
203.044585	-2.974500	3.844100	-11.433000	22.068245	0.000383	20.807697
204.042557	-3.013100	3.842800	-11.577000	22.077045	0.000383	20.775729
205.043832	-2.991300	3.844200	-11.497000	22.090431	0.000382	20.792923
206.047494	-2.990700	3.843500	-11.494000	22.100850	0.000383	20.804777
207.043558	-2.992100	3.843700	-11.499000	22.105711	0.000383	20.784512
208.044904	-3.013400	3.842900	-11.579000	22.097111	0.000383	20.785861
209.048252	-3.018000	3.843200	-11.598000	22.125752	0.000383	20.800309
210.045711	-2.992500	3.842000	-11.496000	22.116679	0.000383	20.777949
211.045194	-3.008800	3.842200	-11.560000	22.121390	0.000385	20.810641
212.045923	-3.007600	3.842100	-11.555000	22.123534	0.000384	20.789080
213.045923	-2.992900	3.842100	-11.498000	22.135698	0.000385	20.796042
214.050672	-3.001600	3.843300	-11.535000	22.143226	0.000387	20.795993
215.046946	-2.997300	3.842000	-11.514000	22.157458	0.000386	20.803129
216.048322	-2.994200	3.841900	-11.502000	22.167628	0.000387	20.792449
217.046128	-2.996800	3.842000	-11.513000	22.171342	0.000387	20.801857
218.050114	-2.995100	3.842400	-11.508000	22.169024	0.000388	20.802855
219.056068	-2.984500	3.841500	-11.464000	22.178097	0.000389	20.798189
220.048066	-3.017700	3.840800	-11.590000	22.171168	0.000386	20.792673
221.048524	-2.998700	3.840900	-11.517000	22.197289	0.000388	20.801757
222.049850	-3.000300	3.839500	-11.519000	22.186322	0.000390	20.787932
223.050730	-2.993600	3.840100	-11.495000	22.195146	0.000389	20.807671
224.053738	-2.984800	3.841900	-11.467000	22.208057	0.000390	20.809218
225.051325	-2.981400	3.841400	-11.453000	22.209852	0.000388	20.791575
226.051744	-3.000900	3.840400	-11.523000	22.226477	0.000389	20.802531
227.050625	-3.000000	3.838500	-11.515000	22.235898	0.000390	20.820024
228.051953	-3.003600	3.839700	-11.531000	22.219473	0.000391	20.811166
229.052671	-2.991400	3.838900	-11.482000	22.237667	0.000390	20.801882
230.053411	-2.997600	3.838200	-11.503000	22.233306	0.000391	20.811740
231.052922	-3.008800	3.839700	-11.552000	22.239811	0.000390	20.826787
232.053227	-2.983300	3.839800	-11.453000	22.259128	0.000393	20.814360
233.053666	-3.004800	3.837900	-11.531000	22.263340	0.000393	20.803879
234.054670	-3.028400	3.837100	-11.620000	22.272512	0.000392	20.823020
235.055982	-3.017300	3.837800	-11.579000	22.277122	0.000392	20.813886
236.055427	-3.015300	3.837600	-11.570000	22.290107	0.000394	20.809344
237.055101	-3.037400	3.836500	-11.651000	22.273159	0.000395	20.818927
238.056283	-3.019000	3.837900	-11.585000	22.282980	0.000395	20.798414
239.055310	-3.001600	3.838300	-11.520000	22.301996	0.000394	20.824567
240.059706	-2.999100	3.837100	-11.506000	22.303093	0.000394	20.816657
241.058956	-3.010100	3.837600	-11.551000	22.297734	0.000394	20.811765
242.057294	-2.992800	3.836800	-11.481000	22.303043	0.000395	20.829883
243.059901	-2.970600	3.837700	-11.399000	22.335442	0.000397	20.796892
244.057003	-3.009400	3.836700	-11.545000	22.330732	0.000396	20.819202
245.058387	-2.995200	3.837100	-11.492000	22.310769	0.000396	20.827662
246.060046	-3.001700	3.835200	-11.511000	22.314831	0.000396	20.827936
247.059867	-2.983000	3.837600	-11.447000	22.343043	0.000400	20.822995
248.060257	-2.985800	3.836800	-11.454000	22.345311	0.000398	20.808197
249.058702	-2.993100	3.836100	-11.481000	22.361511	0.000399	20.832479
250.060267	-2.990300	3.835600	-11.469000	22.362981	0.000397	20.825890
251.063593	-2.993100	3.835800	-11.480000	22.360489	0.000400	20.824343
252.060894	-2.994900	3.835400	-11.485000	22.368215	0.000399	20.833502
253.061830	-2.969400	3.836700	-11.391000	22.361959	0.000401	20.829135
254.062466	-2.997600	3.835600	-11.497000	22.392787	0.000400	20.824443
255.060922	-3.005100	3.833600	-11.519000	22.390618	0.000400	20.829384
256.060671	-3.004700	3.834500	-11.521000	22.416386	0.000400	20.829584
257.063542	-2.987300	3.834900	-11.455000	22.407341	0.000400	20.837595
258.061119	-2.970800	3.834300	-11.390000	22.412151	0.000402	20.828661
259.060728	-2.998800	3.833700	-11.496000	22.410182	0.000401	20.842336
260.060472	-3.002700	3.834100	-11.512000	22.415839	0.000402	20.850846
261.059961	-3.003200	3.832700	-11.509000	22.433881	0.000402	20.825293
262.064186	-2.989400	3.833200	-11.458000	22.432435	0.000402	20.824319
263.062181	-2.997700	3.833100	-11.489000	22.437320	0.000402	20.839641
264.062702	-2.998700	3.833400	-11.495000	22.447836	0.000403	20.830259
265.062764	-3.002900	3.832300	-11.507000	22.451475	0.000404	20.850023
266.063014	-2.997700	3.833000	-11.489000	22.482873	0.000405	20.825044
267.064528	-3.000400	3.831700	-11.496000	22.449830	0.000406	20.840790
268.064361	-3.009300	3.831000	-11.528000	22.499394	0.000405	20.842537
269.064345	-2.980300	3.831100	-11.416000	22.463686	0.000405	20.826217
270.066159	-2.988400	3.832000	-11.450000	22.480107	0.000407	20.836498
271.065405	-3.016500	3.831300	-11.555000	22.488306	0.000407	20.835226
272.064395	-3.020700	3.831900	-11.574000	22.497277	0.000408	20.840416
273.066957	-2.997800	3.830500	-11.482000	22.498149	0.000408	20.841290
274.063990	-2.985800	3.832700	-11.443000	22.504130	0.000406	20.860081
275.064360	-2.989200	3.830400	-11.449000	22.508291	0.000408	20.860929
276.065014	-2.999200	3.829500	-11.485000	22.514272	0.000408	20.862651
277.064878	-2.987400	3.831100	-11.443000	22.533857	0.000409	20.855240
278.068053	-3.011800	3.829600	-11.533000	22.540112	0.000410	20.856288
279.065354	-2.996600	3.829500	-11.474000	22.529347	0.000410	20.866844
280.065624	-3.016400	3.829100	-11.549000	22.543052	0.000408	20.852595
281.066498	-2.984100	3.830100	-11.428000	22.544398	0.000410	20.868167
282.065016	-2.997400	3.827900	-11.472000	22.527728	0.000410	20.874705
283.065779	-2.991700	3.829900	-11.457000	22.555163	0.000410	20.874206
284.068214	-2.982500	3.829000	-11.418000	22.560894	0.000410	20.848653
285.066682	-2.987400	3.829300	-11.438000	22.597198	0.000412	20.868892
286.066662	-2.994100	3.828800	-11.462000	22.578062	0.000413	20.849253
287.066081	-3.019900	3.826300	-11.554000	22.572107	0.000414	20.858461
288.068658	-2.990800	3.827400	-11.446000	22.589324	0.000413	20.855790
289.066462	-3.001900	3.827900	-11.490000	22.585737	0.000415	20.857887
290.067709	-3.009200	3.827500	-11.517000	22.620819	0.000413	20.873109
291.068156	-3.017900	3.827000	-11.548000	22.598095	0.000413	20.865998
292.068677	-2.994700	3.828200	-11.463000	22.601633	0.000414	20.865274
293.068326	-2.995900	3.827500	-11.466000	22.634896	0.000413	20.879623
294.068188	-3.012100	3.827400	-11.528000	22.640527	0.000415	20.838798
295.068609	-3.000700	3.827200	-11.484000	22.623734	0.000416	20.870340
296.069835	-3.005400	3.826600	-11.499000	22.621193	0.000415	20.878700
297.069774	-3.008100	3.826600	-11.508000	22.636791	0.000416	20.861133
298.071335	-3.019600	3.825300	-11.550000	22.624433	0.000416	20.867247
299.072365	-3.015200	3.826000	-11.535000	22.661657	0.000416	20.858538
300.068943	-2.999600	3.826300	-11.476000	22.644939	0.000417	20.856966
301.069234	-3.001000	3.826500	-11.481000	22.668782	0.000415	20.887958
302.070801	-3.013500	3.826300	-11.529000	22.658642	0.000418	20.879226
303.070016	-2.996700	3.826900	-11.467000	22.680592	0.000417	20.882719
304.072462	-3.006500	3.825100	-11.499000	22.697185	0.000417	20.876107
305.072793	-2.979300	3.825500	-11.395000	22.702119	0.000419	20.877729
306.070340	-2.984400	3.825100	-11.414000	22.683807	0.000420	20.880724
307.069882	-2.973100	3.825300	-11.372000	22.675112	0.000419	20.900936
308.069313	-2.989300	3.824400	-11.432000	22.705881	0.000419	20.890980
309.070328	-3.002800	3.824400	-11.482000	22.716196	0.000420	20.882346
310.070582	-3.005300	3.824500	-11.492000	22.718114	0.000420	20.889009
311.069622	-2.998900	3.823600	-11.466000	22.715448	0.000420	20.903881
312.069770	-3.018400	3.823100	-11.539000	22.742554	0.000420	20.883619
313.069144	-3.015500	3.824200	-11.531000	22.726710	0.000422	20.889084
314.070206	-2.998900	3.823700	-11.466000	22.720381	0.000422	20.893176
315.071418	-3.021100	3.823400	-11.550000	22.733610	0.000423	20.898366
316.070973	-2.998200	3.823200	-11.462000	22.752595	0.000423	20.892728
317.070369	-3.018000	3.823000	-11.537000	22.745495	0.000422	20.896995
318.073464	-3.029900	3.821300	-11.577000	22.779027	0.000421	20.883645
319.070573	-3.010200	3.823200	-11.508000	22.764677	0.000424	20.885865
320.070668	-2.987900	3.823800	-11.425000	22.781643	0.000423	20.894325
321.070135	-2.994800	3.821500	-11.443000	22.770208	0.000424	20.900413
322.071649	-3.010200	3.822200	-11.505000	22.804164	0.000425	20.901711
323.071465	-3.021400	3.823900	-11.553000	22.773247	0.000425	20.883545
324.072941	-3.004500	3.821500	-11.480000	22.786626	0.000424	20.905479
325.072367	-3.010200	3.821300	-11.502000	22.804039	0.000427	20.903009
326.075984	-3.007500	3.820300	-11.488000	22.816196	0.000426	20.897170
327.074019	-2.997700	3.820900	-11.453000	22.818836	0.000425	20.911668
328.073858	-3.023900	3.819900	-11.549000	22.826634	0.000427	20.904307
329.074261	-2.994200	3.819900	-11.437000	22.826584	0.000427	20.899990
330.074056	-3.038700	3.819400	-11.605000	22.837943	0.000429	20.904731
331.077917	-2.994900	3.819900	-11.439000	22.833385	0.000428	20.898743
332.075177	-2.998800	3.820300	-11.455000	22.842329	0.000429	20.900116
333.076339	-2.997900	3.819800	-11.451000	22.839638	0.000427	20.893628
334.078370	-3.011400	3.820000	-11.502000	22.860688	0.000430	20.911869
335.075218	-2.998200	3.819700	-11.452000	22.859990	0.000428	20.885094
336.079317	-2.998800	3.818700	-11.450000	22.865048	0.000428	20.898694
337.077169	-2.995300	3.818300	-11.436000	22.870528	0.000431	20.902288
338.076586	-2.998400	3.818400	-11.448000	22.893196	0.000430	20.902237
339.077378	-2.994300	3.819500	-11.436000	22.888463	0.000429	20.888488
340.075583	-2.988000	3.818700	-11.409000	22.890730	0.000430	20.886018
341.076955	-3.011300	3.817700	-11.495000	22.883157	0.000430	20.884595
342.077163	-2.995300	3.819500	-11.440000	22.898104	0.000432	20.909998
343.081323	-3.009600	3.819300	-11.494000	22.890431	0.000431	20.891882
344.077730	-3.014300	3.818000	-11.508000	22.900819	0.000430	20.884745
345.077137	-2.993600	3.818100	-11.429000	22.918853	0.000431	20.902812
346.078138	-3.001800	3.817000	-11.457000	22.913996	0.000431	20.857172
347.081478	-2.988600	3.817500	-11.408000	22.913647	0.000431	20.882899
348.078294	-2.998200	3.818100	-11.447000	22.917583	0.000433	20.889212
349.078921	-3.004900	3.816400	-11.467000	22.906299	0.000433	20.874115
350.080200	-2.997400	3.817000	-11.439000	22.921169	0.000434	20.884745
351.078198	-3.004100	3.815000	-11.460000	22.946178	0.000433	20.881352
352.077816	-3.002400	3.816000	-11.456000	22.935368	0.000433	20.867677
353.082706	-2.976800	3.816200	-11.359000	22.946103	0.000433	20.890285
354.078030	-3.019400	3.815600	-11.519000	22.954522	0.000433	20.872642
355.078419	-3.003700	3.816100	-11.462000	22.955967	0.000436	20.873616
356.077260	-3.020600	3.816400	-11.528000	22.970637	0.000434	20.867452
357.080236	-3.003600	3.816300	-11.462000	22.970563	0.000435	20.877334
358.083768	-2.988700	3.815300	-11.401000	22.993727	0.000434	20.868300
359.079333	-2.993700	3.814900	-11.420000	22.990016	0.000436	20.879281
360.082258	-2.991900	3.816400	-11.417000	22.984113	0.000436	20.864832
361.080585	-2.982500	3.814000	-11.374000	22.991933	0.000438	20.856547
362.082812	-3.001500	3.814600	-11.448000	23.003964	0.000438	20.870023
363.085087	-3.010400	3.811600	-11.473000	22.995122	0.000437	20.872543
364.083382	-3.010500	3.812700	-11.477000	22.998783	0.000438	20.870996
365.081881	-2.970200	3.813400	-11.325000	23.013005	0.000438	20.849211
366.081890	-2.995300	3.811800	-11.416000	23.016293	0.000439	20.870996
367.084327	-2.992200	3.811900	-11.404000	22.997240	0.000439	20.892207
368.083900	-3.006000	3.812100	-11.459000	23.021150	0.000440	20.859268
369.086334	-2.985300	3.813700	-11.384000	23.024936	0.000438	20.854052
370.083691	-2.987200	3.812300	-11.388000	23.018136	0.000437	20.857196
371.085750	-2.984000	3.812500	-11.375000	23.048548	0.000441	20.869649
372.084576	-2.994200	3.811700	-11.412000	23.028049	0.000439	20.876136
373.086481	-2.983600	3.811300	-11.371000	23.044014	0.000440	20.865581
374.092534	-2.996900	3.811000	-11.421000	23.066206	0.000440	20.846093
375.087183	-2.968700	3.812200	-11.316000	23.029842	0.000441	20.850908
376.087467	-2.994100	3.811500	-11.410000	23.055147	0.000442	20.864408
377.088334	-3.014700	3.810000	-11.486000	23.042372	0.000442	20.860142
378.088686	-2.998700	3.810800	-11.426000	23.071387	0.000440	20.861240
379.090097	-2.993500	3.810100	-11.405000	23.057564	0.000442	20.868252
380.090590	-3.012600	3.809400	-11.475000	23.079506	0.000441	20.860367
381.088702	-3.024700	3.809100	-11.520000	23.065683	0.000444	20.846991
382.091115	-3.000400	3.809900	-11.430000	23.081224	0.000442	20.849761
383.090161	-3.001400	3.808200	-11.428000	23.081100	0.000444	20.858171
384.091448	-3.016600	3.807500	-11.484000	23.076318	0.000445	20.860491
385.097782	-3.004000	3.807300	-11.437000	23.091436	0.000444	20.860941
386.090222	-3.002100	3.807700	-11.430000	23.093603	0.000444	20.830397
387.091403	-2.992900	3.809200	-11.400000	23.107176	0.000445	20.834514
388.090404	-2.987300	3.808300	-11.376000	23.121074	0.000445	20.821888
389.090771	-2.974800	3.809300	-11.331000	23.101747	0.000445	20.821962
390.094218	-3.012100	3.806500	-11.465000	23.109194	0.000445	20.849812
391.090714	-2.980100	3.807500	-11.346000	23.128296	0.000444	20.826754
392.090720	-2.990900	3.807400	-11.386000	23.121622	0.000446	20.840455
393.094092	-3.007900	3.806400	-11.448000	23.142118	0.000448	20.861466
394.095326	-2.998800	3.807000	-11.416000	23.145431	0.000446	20.841553
395.093742	-2.992300	3.807200	-11.391000	23.132680	0.000446	20.837785
396.094438	-2.993600	3.806400	-11.394000	23.147573	0.000447	20.836588
397.094741	-2.997200	3.807000	-11.410000	23.127053	0.000448	20.849689
398.094544	-2.995500	3.805900	-11.400000	23.172154	0.000447	20.829925
399.094426	-2.996400	3.805200	-11.401000	23.146529	0.000448	20.822266
400.095928	-3.005100	3.805300	-11.434000	23.157611	0.000447	20.848542
401.097309	-3.021000	3.804800	-11.493000	23.176887	0.000448	20.828979
402.094479	-2.980900	3.805500	-11.343000	23.148597	0.000449	20.836191
403.097128	-2.988600	3.804100	-11.368000	23.183561	0.000449	20.834244
404.095654	-3.003800	3.805000	-11.428000	23.174945	0.000451	20.815653
405.094336	-2.987000	3.805200	-11.366000	23.198578	0.000450	20.835068
406.099563	-3.011800	3.803500	-11.454000	23.198181	0.000449	20.833248
407.096173	-2.997000	3.803400	-11.398000	23.197982	0.000451	20.843479
408.094547	-2.992900	3.804400	-11.385000	23.188120	0.000450	20.842132
409.096840	-2.991600	3.803300	-11.376000	23.195069	0.000450	20.837242
410.096869	-3.006300	3.803700	-11.434000	23.215241	0.000451	20.838490
411.102460	-2.982900	3.803100	-11.343000	23.219201	0.000449	20.837243
412.096454	-3.016100	3.801900	-11.466000	23.205779	0.000450	20.841336
413.098348	-2.984700	3.802900	-11.350000	23.230781	0.000450	20.844580
414.104613	-3.010300	3.802600	-11.445000	23.225476	0.000451	20.831678
415.098111	-2.990700	3.802600	-11.372000	23.217558	0.000450	20.831804
416.098740	-2.994600	3.801400	-11.383000	23.229885	0.000453	20.830880
417.101455	-3.009200	3.800900	-11.437000	23.240070	0.000452	20.838242
418.100577	-2.991500	3.800300	-11.368000	23.233049	0.000453	20.828835
419.100476	-3.009100	3.800100	-11.434000	23.235115	0.000455	20.814311
420.100161	-2.997200	3.800300	-11.389000	23.235016	0.000453	20.841712
421.100563	-3.007600	3.798800	-11.424000	23.236237	0.000453	20.853840
422.103291	-3.011300	3.799900	-11.442000	23.267414	0.000454	20.827714
423.101584	-2.970700	3.800400	-11.289000	23.249236	0.000452	20.827514
424.100190	-2.990500	3.799200	-11.361000	23.276478	0.000455	20.826840
425.105253	-2.994400	3.799800	-11.377000	23.274661	0.000454	20.835450
426.102025	-2.990800	3.799200	-11.361000	23.254640	0.000455	20.822498
427.103878	-2.994900	3.799300	-11.377000	23.301828	0.000453	20.854615
428.103723	-2.999000	3.799200	-11.392000	23.293512	0.000455	20.830635
429.101820	-3.008200	3.797800	-11.424000	23.306236	0.000457	20.835326
430.104537	-3.000800	3.796200	-11.390000	23.277825	0.000454	20.825819
431.102081	-2.995000	3.797500	-11.372000	23.294808	0.000457	20.842838
432.104214	-2.987800	3.797300	-11.345000	23.316073	0.000456	20.824322
433.106277	-3.003100	3.796700	-11.401000	23.322597	0.000456	20.836550
434.104831	-2.976500	3.797200	-11.302000	23.307382	0.000457	20.822725
435.105554	-3.024200	3.795600	-11.477000	23.318165	0.000458	20.821677
436.104527	-3.004400	3.796700	-11.406000	23.317642	0.000458	20.818782
437.106523	-3.005600	3.796700	-11.411000	23.324913	0.000458	20.816586
438.105637	-3.000300	3.797700	-11.392000	23.326707	0.000457	20.834980
439.105733	-3.004500	3.796100	-11.404000	23.358826	0.000459	20.829712
440.105686	-2.997800	3.795300	-11.376000	23.348146	0.000459	20.815690
441.105958	-2.997100	3.795600	-11.375000	23.335671	0.000459	20.840644
442.107297	-2.992600	3.795600	-11.357000	23.345208	0.000458	20.828392
443.106599	-2.994200	3.794300	-11.361000	23.350486	0.000458	20.827518
444.106562	-2.992200	3.794900	-11.354000	23.360198	0.000457	20.839622
445.109703	-3.009500	3.794100	-11.417000	23.357011	0.000459	20.817462
446.109287	-2.982900	3.794700	-11.319000	23.356089	0.000460	20.825548
447.106545	-3.004500	3.794000	-11.398000	23.375088	0.000461	20.836528
448.108497	-3.000200	3.792500	-11.377000	23.387787	0.000459	20.815117
449.105630	-3.007000	3.794700	-11.410000	23.369810	0.000460	20.836928
450.106510	-2.993800	3.794500	-11.359000	23.366622	0.000459	20.797224
451.106314	-2.979500	3.794100	-11.304000	23.371079	0.000458	20.817338
452.106524	-2.961100	3.793700	-11.233000	23.376806	0.000458	20.815966
453.106555	-2.992900	3.792400	-11.349000	23.386566	0.000459	20.828592
454.106644	-2.999900	3.792300	-11.376000	23.385048	0.000459	20.803838
455.106240	-2.988200	3.791700	-11.330000	23.401954	0.000461	20.827894
456.109323	-3.017700	3.791700	-11.441000	23.393189	0.000460	20.821480
457.107671	-2.998000	3.791100	-11.364000	23.403971	0.000460	20.825174
458.105857	-3.012400	3.789900	-11.415000	23.423067	0.000461	20.814443
459.108507	-2.989900	3.791200	-11.335000	23.405091	0.000460	20.828193
460.108066	-2.992500	3.790800	-11.344000	23.412410	0.000460	20.819409
461.107696	-2.983200	3.790900	-11.307000	23.399139	0.000461	20.817013
462.107637	-2.987700	3.790600	-11.325000	23.422345	0.000460	20.812297
463.107722	-2.979300	3.790500	-11.291000	23.420950	0.000462	20.811373
464.108647	-2.987000	3.789500	-11.319000	23.417141	0.000462	20.805184
465.106821	-2.979000	3.789300	-11.287000	23.443980	0.000464	20.805059
466.107488	-2.994100	3.790100	-11.346000	23.444877	0.000462	20.804535
467.107449	-3.014900	3.787400	-11.418000	23.434794	0.000463	20.824774
468.108158	-2.985800	3.787100	-11.306000	23.432702	0.000463	20.826471
469.109729	-3.019800	3.786200	-11.433000	23.449333	0.000464	20.811847
470.110096	-3.004500	3.787600	-11.378000	23.469201	0.000462	20.807106
471.111637	-3.004700	3.787400	-11.379000	23.464919	0.000463	20.809926
472.111417	-2.981900	3.788000	-11.294000	23.466412	0.000465	20.812845
473.107208	-3.014500	3.786800	-11.414000	23.474180	0.000462	20.779854
474.108597	-2.999600	3.787000	-11.359000	23.487998	0.000462	20.819309
475.111636	-3.002300	3.786600	-11.368000	23.488595	0.000464	20.800467
476.108640	-2.991600	3.786800	-11.328000	23.497533	0.000464	20.822229
477.108510	-2.993600	3.786600	-11.335000	23.483765	0.000464	20.817911
478.109486	-3.028600	3.784900	-11.462000	23.493773	0.000463	20.805658
479.109477	-2.999000	3.786000	-11.353000	23.482670	0.000464	20.820132
480.110278	-3.016300	3.784900	-11.415000	23.491608	0.000465	20.826720
481.109355	-3.012900	3.785200	-11.403000	23.500969	0.000465	20.801965
482.109743	-2.988600	3.785400	-11.312000	23.508238	0.000462	20.803562
483.109934	-3.008800	3.784900	-11.387000	23.503060	0.000465	20.798371
484.109366	-2.991900	3.785500	-11.324000	23.511823	0.000466	20.810000
485.113893	-2.991900	3.783800	-11.320000	23.497632	0.000464	20.803362
486.107907	-2.990300	3.784700	-11.317000	23.502512	0.000465	20.795451
487.110266	-2.997700	3.784000	-11.342000	23.523649	0.000466	20.823277
488.110217	-2.994300	3.784600	-11.332000	23.521608	0.000465	20.805109
489.111225	-3.010900	3.783800	-11.392000	23.506271	0.000465	20.816763
490.114147	-3.008500	3.781800	-11.375000	23.534553	0.000464	20.811447
491.115336	-3.010700	3.783100	-11.389000	23.542270	0.000465	20.798795
492.111924	-2.988200	3.782500	-11.301000	23.529300	0.000466	20.794328
493.115541	-3.001200	3.782000	-11.349000	23.532361	0.000466	20.796449
494.113700	-3.009400	3.781700	-11.379000	23.522727	0.000465	20.795800
495.121523	-3.004200	3.780800	-11.358000	23.535076	0.000464	20.795850
496.117941	-3.000800	3.780200	-11.343000	23.550685	0.000465	20.798695
497.116127	-3.011900	3.779700	-11.382000	23.545507	0.000465	20.786867
498.115011	-2.978300	3.781400	-11.261000	23.567040	0.000464	20.798495
499.116396	-3.007600	3.780900	-11.370000	23.556908	0.000465	20.788812
500.117287	-3.004700	3.780600	-11.359000	23.560717	0.000466	20.784570
501.120597	-3.005400	3.779200	-11.358000	23.582126	0.000465	20.791333
502.117867	-3.002600	3.780100	-11.349000	23.562408	0.000466	20.800965
503.119182	-3.009400	3.778300	-11.369000	23.566965	0.000466	20.803635
504.123435	-3.007900	3.778900	-11.366000	23.570276	0.000465	20.780402
505.118356	-3.022200	3.777100	-11.413000	23.575329	0.000465	20.802063
506.119423	-3.013600	3.777500	-11.383000	23.605277	0.000465	20.786092
507.122029	-2.996100	3.779500	-11.323000	23.574458	0.000467	20.790284
508.119052	-2.995500	3.779700	-11.320000	23.575329	0.000468	20.785467
509.118222	-3.012400	3.777500	-11.379000	23.580532	0.000468	20.796847
510.118670	-3.003800	3.776300	-11.343000	23.586208	0.000466	20.780726
511.121074	-3.013000	3.777100	-11.378000	23.610230	0.000468	20.785842
512.120785	-3.025500	3.776100	-11.424000	23.616130	0.000468	20.792704
513.120453	-3.012600	3.776100	-11.375000	23.590762	0.000464	20.787662
514.120261	-2.976400	3.776800	-11.239000	23.625713	0.000468	20.797096
515.119694	-2.986400	3.776100	-11.276000	23.608761	0.000467	20.779627
516.120285	-2.982500	3.776400	-11.263000	23.627655	0.000469	20.770593
517.120987	-2.957500	3.776200	-11.166000	23.616527	0.000467	20.790732
518.119487	-2.988500	3.775400	-11.282000	23.613266	0.000467	20.777031
519.119046	-3.013700	3.774500	-11.374000	23.647070	0.000468	20.786738
520.120974	-2.996100	3.774200	-11.306000	23.634449	0.000469	20.784517
521.120727	-3.009200	3.775200	-11.359000	23.654464	0.000468	20.796996
522.125846	-3.005100	3.772700	-11.337000	23.649684	0.000468	20.774185
523.119877	-3.010100	3.772800	-11.355000	23.648937	0.000470	20.788610
524.120540	-3.032800	3.772600	-11.440000	23.661583	0.000468	20.771889
525.124862	-3.005100	3.771400	-11.332000	23.656878	0.000469	20.790881
526.121047	-3.012000	3.773000	-11.363000	23.653019	0.000468	20.753820
527.121157	-2.995000	3.772700	-11.299000	23.661831	0.000469	20.764078
528.125885	-2.991500	3.772800	-11.286000	23.670170	0.000470	20.772912
529.121867	-3.012500	3.773200	-11.366000	23.678533	0.000470	20.784616
530.121339	-2.995400	3.771600	-11.296000	23.655259	0.000468	20.786413
531.123005	-3.009300	3.771000	-11.347000	23.654836	0.000469	20.769394
532.122017	-2.985900	3.771000	-11.258000	23.659516	0.000468	20.773611
533.125785	-2.979300	3.771100	-11.234000	23.666784	0.000471	20.765724
534.122297	-2.997500	3.770300	-11.300000	23.690381	0.000469	20.768519
535.123077	-2.998300	3.769900	-11.303000	23.689039	0.000472	20.791829
536.124012	-3.023300	3.769000	-11.394000	23.684607	0.000469	20.748030
537.123025	-2.996000	3.769800	-11.293000	23.691328	0.000470	20.769468
538.124686	-2.973500	3.769600	-11.208000	23.700413	0.000470	20.767671
539.124082	-2.973200	3.769900	-11.207000	23.701111	0.000470	20.772164
540.124040	-2.996200	3.768400	-11.289000	23.719580	0.000469	20.761757
541.139205	-3.012700	3.768600	-11.353000	23.698149	0.000470	20.764927
542.132278	-3.006600	3.768200	-11.328000	23.718560	0.000470	20.763579
543.124004	-2.999100	3.767800	-11.299000	23.706239	0.000470	20.784892
544.126524	-2.995600	3.767800	-11.285000	23.715473	0.000469	20.759062
545.125350	-3.011400	3.768300	-11.347000	23.706712	0.000472	20.792952
546.123449	-3.012400	3.766000	-11.344000	23.712263	0.000470	20.771491
547.125865	-3.009200	3.767200	-11.335000	23.721797	0.000470	20.750703
548.125515	-3.001800	3.766400	-11.304000	23.733445	0.000471	20.762382
549.128099	-2.995500	3.767500	-11.285000	23.723390	0.000470	20.759887
550.125619	-3.001200	3.765100	-11.299000	23.722594	0.000471	20.765727
551.125728	-3.011600	3.765900	-11.340000	23.746986	0.000471	20.777380
552.132078	-3.008900	3.765100	-11.328000	23.729861	0.000469	20.762582
553.126416	-3.004600	3.764800	-11.310000	23.757689	0.000470	20.751127
554.127357	-3.007500	3.765200	-11.323000	23.737603	0.000471	20.767024
555.128192	-2.995600	3.765600	-11.280000	23.746663	0.000472	20.749081
556.126617	-2.996300	3.763800	-11.276000	23.744224	0.000471	20.759438
557.126301	-3.009000	3.764400	-11.327000	23.758685	0.000470	20.757342
558.127958	-2.993500	3.764600	-11.269000	23.764635	0.000471	20.756668
559.127628	-2.998300	3.764300	-11.286000	23.762244	0.000472	20.743366
560.130626	-2.977800	3.763400	-11.205000	23.775860	0.000470	20.740896
561.128781	-3.015600	3.761700	-11.342000	23.770260	0.000471	20.746661
562.128729	-3.019300	3.762200	-11.358000	23.771331	0.000472	20.735881
563.127748	-2.986400	3.764200	-11.240000	23.762743	0.000469	20.743392
564.128639	-3.007800	3.762300	-11.316000	23.762320	0.000472	20.754348
565.130013	-3.011800	3.762200	-11.330000	23.768790	0.000472	20.769844
566.129463	-2.992000	3.761600	-11.253000	23.790396	0.000472	20.770644
567.129143	-3.009200	3.761800	-11.319000	23.772376	0.000470	20.761585
568.131146	-3.032700	3.760800	-11.403000	23.794404	0.000472	20.765653
569.129877	-3.011000	3.761000	-11.323000	23.794503	0.000473	20.747261
570.129308	-2.995000	3.761800	-11.266000	23.794329	0.000473	20.768898
571.131252	-3.003600	3.759300	-11.290000	23.801969	0.000471	20.745737
572.130490	-3.012500	3.760100	-11.326000	23.794428	0.000470	20.753823
573.132282	-3.005800	3.759100	-11.298000	23.787658	0.000472	20.726646
574.133333	-3.027200	3.758100	-11.374000	23.805081	0.000471	20.770195
575.131895	-2.991100	3.759600	-11.245000	23.803214	0.000470	20.747460
576.136277	-2.990400	3.759000	-11.240000	23.809362	0.000471	20.783022
577.132242	-3.005300	3.758700	-11.296000	23.836217	0.000470	20.748783
578.132929	-3.018700	3.758000	-11.343000	23.811378	0.000469	20.772242
579.134703	-3.014900	3.758700	-11.331000	23.819517	0.000468	20.762384
580.133886	-2.979400	3.759200	-11.199000	23.825366	0.000471	20.747386
581.135114	-3.024600	3.757600	-11.363000	23.822529	0.000471	20.760663
582.133190	-3.000300	3.757100	-11.271000	23.818471	0.000471	20.753749
583.133590	-3.004000	3.758200	-11.289000	23.847243	0.000472	20.752252
584.134273	-3.017900	3.755400	-11.332000	23.826138	0.000471	20.753376
585.134611	-3.015900	3.756200	-11.326000	23.821907	0.000470	20.744392
586.136114	-2.980500	3.756100	-11.194000	23.819567	0.000470	20.767651
587.135073	-3.027400	3.755800	-11.368000	23.823624	0.000469	20.744691
588.133795	-2.997000	3.756300	-11.256000	23.851599	0.000471	20.742869
589.134642	-3.012500	3.755900	-11.313000	23.832261	0.000469	20.775163
590.133899	-3.007000	3.756600	-11.294000	23.853142	0.000472	20.760064
591.134750	-3.004300	3.754600	-11.279000	23.844954	0.000470	20.753277
592.138535	-3.018200	3.753200	-11.327000	23.858219	0.000469	20.745240
593.134832	-2.987400	3.754600	-11.215000	23.858842	0.000472	20.749658
594.137559	-3.031700	3.752200	-11.375000	23.872530	0.000471	20.742520
595.134983	-3.008100	3.751900	-11.285000	23.866931	0.000471	20.752079
596.137152	-2.986200	3.752900	-11.206000	23.856726	0.000469	20.747537
597.141290	-2.986700	3.754200	-11.211000	23.858842	0.000471	20.743020
598.139140	-3.012000	3.751700	-11.300000	23.873974	0.000471	20.758193
599.138929	-2.994600	3.753800	-11.240000	23.879299	0.000470	20.747886
600.140754	-2.997600	3.752800	-11.249000	23.881763	0.000471	20.771220
601.139405	-3.000800	3.752600	-11.259000	23.859241	0.000471	20.756222
602.141563	-3.005400	3.751300	-11.273000	23.889255	0.000470	20.771620
603.143158	-3.003500	3.752000	-11.269000	23.893859	0.000471	20.758692
604.139458	-2.993300	3.751100	-11.228000	23.876712	0.000470	20.735333
605.149022	-3.015700	3.749800	-11.307000	23.898215	0.000471	20.782027
606.140041	-2.993400	3.750100	-11.225000	23.894381	0.000469	20.759690
607.145500	-2.997700	3.750500	-11.241000	23.900330	0.000471	20.755223
608.141833	-2.999400	3.750300	-11.248000	23.896970	0.000470	20.757070
609.139944	-3.001500	3.749000	-11.252000	23.909239	0.000470	20.769373
610.140153	-3.002300	3.748400	-11.253000	23.909139	0.000469	20.755997
611.139823	-3.002400	3.748600	-11.254000	23.901648	0.000470	20.741846
612.140467	-2.991200	3.749200	-11.214000	23.907996	0.000471	20.761962
613.140332	-2.979800	3.749800	-11.173000	23.932284	0.000470	20.775887
614.139262	-2.995100	3.749100	-11.228000	23.931263	0.000472	20.757319
615.139729	-3.001600	3.748300	-11.250000	23.946892	0.000470	20.782001
616.139749	-2.974700	3.748300	-11.149000	23.938829	0.000470	20.780079
617.140806	-2.983700	3.747200	-11.180000	23.942960	0.000470	20.779954
618.142376	-3.011100	3.747600	-11.283000	23.929745	0.000470	20.781876
619.141705	-2.999600	3.748000	-11.241000	23.937012	0.000469	20.774938
620.140777	-2.994900	3.746600	-11.219000	23.934448	0.000470	20.784221
621.140257	-2.981600	3.744700	-11.165000	23.948683	0.000472	20.761986
622.140966	-2.986300	3.745500	-11.185000	23.962296	0.000471	20.770421
623.141441	-3.009000	3.743900	-11.265000	23.951744	0.000469	20.766003
624.141342	-3.002500	3.745200	-11.243000	23.955552	0.000470	20.775512
625.140360	-3.012600	3.744700	-11.280000	23.945274	0.000472	20.772318
626.141097	-2.986200	3.745900	-11.185000	23.968294	0.000472	20.784971
627.143472	-3.007100	3.744900	-11.261000	23.984444	0.000470	20.756596
628.141898	-3.021600	3.743800	-11.311000	23.970931	0.000470	20.754898
629.142161	-3.008300	3.743600	-11.261000	23.975287	0.000468	20.766379
630.142005	-3.004500	3.744100	-11.248000	23.980762	0.000469	20.744367
631.141841	-3.018800	3.742400	-11.296000	23.960878	0.000469	20.770896
632.141851	-2.999700	3.742800	-11.226000	23.973968	0.000470	20.774539
633.142089	-2.984700	3.743600	-11.173000	23.992831	0.000471	20.769748
634.142300	-3.001400	3.742700	-11.233000	23.991287	0.000470	20.767252
635.141510	-2.989900	3.742500	-11.188000	23.985067	0.000469	20.777609
636.142369	-2.995200	3.743000	-11.210000	23.989570	0.000470	20.793031
637.144605	-3.002200	3.741700	-11.231000	24.002636	0.000468	20.779581
638.143864	-2.990900	3.742800	-11.192000	23.989049	0.000470	20.769748
639.142558	-3.038300	3.740600	-11.364000	23.997261	0.000469	20.778932
640.144294	-3.005800	3.741700	-11.245000	23.986037	0.000470	20.765306
641.143501	-2.989900	3.741000	-11.185000	23.988874	0.000469	20.795178
642.144164	-3.003100	3.741300	-11.234000	24.002288	0.000468	20.785396
643.142922	-3.002900	3.740400	-11.231000	24.006692	0.000472	20.783175
644.142468	-3.027600	3.740300	-11.323000	24.021374	0.000469	20.780355
645.147443	-2.998500	3.740500	-11.215000	24.015999	0.000467	20.783973
646.142731	-3.002600	3.740000	-11.229000	24.015427	0.000469	20.799995
647.142502	-2.998300	3.739100	-11.210000	24.011346	0.000469	20.770772
648.144129	-3.003500	3.740100	-11.233000	24.025754	0.000469	20.791860
649.144146	-2.987000	3.738900	-11.167000	24.020031	0.000468	20.788966
650.146702	-2.997100	3.739100	-11.206000	24.015876	0.000468	20.796178
651.142770	-2.996800	3.738400	-11.201000	24.050141	0.000468	20.788341
652.144083	-2.995300	3.738400	-11.196000	24.026626	0.000467	20.791785
653.144723	-3.016100	3.736000	-11.267000	24.027995	0.000468	20.786995
654.146361	-3.016700	3.736200	-11.270000	24.038919	0.000470	20.791786
655.149570	-2.993200	3.737700	-11.187000	24.064101	0.000469	20.804713
656.148635	-3.023600	3.735700	-11.294000	24.048524	0.000468	20.799048
657.147865	-3.012200	3.735500	-11.252000	24.058503	0.000468	20.789616
658.150928	-3.018700	3.735600	-11.275000	24.052580	0.000467	20.798849
659.148991	-3.008600	3.736500	-11.241000	24.068283	0.000466	20.795156
660.148733	-3.003400	3.735600	-11.218000	24.073234	0.000468	20.815769
661.152085	-2.993200	3.736700	-11.184000	24.063032	0.000469	20.788467
662.149834	-2.980000	3.735800	-11.131000	24.069801	0.000467	20.790989
663.149221	-2.978900	3.737500	-11.133000	24.049769	0.000465	20.807408
664.150478	-3.001600	3.734800	-11.209000	24.073110	0.000467	20.819912
665.152573	-3.007600	3.733700	-11.229000	24.072662	0.000468	20.805713
666.154164	-2.988500	3.734600	-11.159000	24.101850	0.000466	20.816967
667.150663	-2.989100	3.734300	-11.161000	24.081794	0.000466	20.806336
668.153556	-3.001800	3.733500	-11.206000	24.081172	0.000467	20.798600
669.150731	-3.014600	3.733200	-11.253000	24.085303	0.000467	20.819812
670.151659	-3.007300	3.732700	-11.225000	24.090006	0.000467	20.816942
671.153161	-3.002500	3.732900	-11.208000	24.086796	0.000466	20.800921
672.153476	-2.981900	3.732900	-11.131000	24.091424	0.000466	20.816942
673.157239	-2.998200	3.731800	-11.188000	24.093838	0.000466	20.809880
674.152592	-2.985000	3.732700	-11.140000	24.119641	0.000465	20.825802
675.152689	-2.977600	3.732700	-11.114000	24.097073	0.000466	20.803168
676.154232	-2.983800	3.732200	-11.135000	24.103567	0.000466	20.810155
677.152844	-3.009500	3.731000	-11.228000	24.086051	0.000463	20.820088
678.152908	-2.996400	3.731300	-11.179000	24.102623	0.000466	20.825329
679.160001	-2.968900	3.731900	-11.078000	24.098218	0.000465	20.820911
680.154336	-3.000400	3.731600	-11.196000	24.112202	0.000465	20.842048
681.156085	-3.009400	3.729000	-11.221000	24.126610	0.000467	20.798179
682.158366	-3.000500	3.730500	-11.192000	24.136661	0.000465	20.804466
683.155285	-3.000000	3.729800	-11.189000	24.118573	0.000467	20.838481
684.155963	-3.004400	3.729200	-11.203000	24.150273	0.000464	20.829023
685.157726	-3.006200	3.728600	-11.208000	24.123052	0.000464	20.806937
686.156825	-2.981400	3.729900	-11.120000	24.132483	0.000466	20.827302
687.161551	-2.996000	3.728100	-11.169000	24.143854	0.000463	20.824482
688.159454	-3.009900	3.728000	-11.220000	24.167940	0.000463	20.814026
689.159107	-2.989600	3.728800	-11.147000	24.142436	0.000464	20.819740
690.158957	-3.002600	3.728000	-11.193000	24.158410	0.000464	20.821064
691.160038	-2.989600	3.727600	-11.142000	24.154578	0.000463	20.832867
692.162418	-3.003000	3.726800	-11.191000	24.148183	0.000462	20.834040
693.161661	-3.001000	3.725700	-11.179000	24.153085	0.000462	20.828051
694.160602	-3.002200	3.726900	-11.188000	24.179162	0.000464	20.817221
695.163133	-2.992500	3.725000	-11.146000	24.185954	0.000465	20.823560
696.160761	-3.032900	3.725100	-11.298000	24.180181	0.000464	20.837209
697.161507	-2.985900	3.726100	-11.125000	24.170404	0.000464	20.843524
698.162043	-3.002400	3.724700	-11.182000	24.186602	0.000464	20.829899
699.159706	-2.998500	3.725100	-11.169000	24.178665	0.000464	20.826206
700.161871	-3.027400	3.725300	-11.277000	24.181328	0.000463	20.830299
701.162275	-2.999700	3.724500	-11.172000	24.181029	0.000464	20.843276
702.161852	-2.990900	3.724900	-11.139000	24.188966	0.000463	20.857874
703.164037	-3.000200	3.723800	-11.171000	24.178516	0.000462	20.838384
704.163380	-2.997200	3.724200	-11.161000	24.184662	0.000462	20.830799
705.164283	-2.986300	3.723300	-11.118000	24.177945	0.000462	20.839708
706.169227	-3.007000	3.722500	-11.191000	24.228551	0.000463	20.823138
707.164629	-2.992400	3.722500	-11.138000	24.217006	0.000463	20.842852
708.164485	-2.985400	3.724000	-11.118000	24.216758	0.000463	20.858249
709.168147	-2.987100	3.723500	-11.122000	24.198172	0.000462	20.846720
710.164266	-3.020000	3.721000	-11.236000	24.215191	0.000464	20.843876
711.164570	-2.996500	3.720800	-11.149000	24.207677	0.000462	20.841555
712.166077	-2.998600	3.721800	-11.159000	24.220889	0.000462	20.822564
713.165247	-3.013000	3.721000	-11.211000	24.236388	0.000462	20.862766
714.170061	-2.987900	3.721900	-11.120000	24.222058	0.000460	20.848393
715.166236	-2.988800	3.720800	-11.119000	24.212355	0.000461	20.843876
716.167579	-3.008100	3.718500	-11.185000	24.236115	0.000461	20.836414
717.167129	-3.009600	3.719600	-11.193000	24.229946	0.000462	20.847770
718.167957	-2.986800	3.721600	-11.115000	24.228552	0.000460	20.858225
719.167955	-2.977800	3.719900	-11.076000	24.242137	0.000460	20.833446
720.168544	-2.994100	3.720900	-11.139000	24.223751	0.000461	20.861944
721.167238	-3.002600	3.719500	-11.167000	24.218949	0.000462	20.849067
722.168414	-2.996300	3.718200	-11.139000	24.248954	0.000460	20.851663
723.169219	-3.005400	3.718800	-11.176000	24.241913	0.000460	20.853135
724.172083	-2.979400	3.719300	-11.080000	24.234698	0.000461	20.856803
725.167297	-3.001100	3.718900	-11.160000	24.260224	0.000460	20.840683
726.167852	-2.996500	3.719200	-11.144000	24.260871	0.000459	20.848444
727.172711	-3.003000	3.717500	-11.162000	24.272813	0.000458	20.876542
728.166701	-3.017100	3.717100	-11.214000	24.256617	0.000459	20.851289
729.170233	-3.012500	3.716100	-11.194000	24.260074	0.000459	20.866610
730.173289	-2.988700	3.716300	-11.105000	24.248979	0.000458	20.875394
731.171405	-2.974000	3.718300	-11.057000	24.262837	0.000459	20.851364
732.170363	-3.008800	3.716500	-11.181000	24.277863	0.000459	20.854108
733.172110	-2.986200	3.716200	-11.096000	24.263035	0.000459	20.849192
734.171134	-2.999300	3.716500	-11.146000	24.275749	0.000458	20.862419
735.174399	-3.003000	3.715800	-11.157000	24.295651	0.000457	20.856778
736.173408	-3.054800	3.714000	-11.344000	24.277390	0.000457	20.877340
737.172098	-3.015000	3.714300	-11.198000	24.268707	0.000457	20.871476
738.171637	-3.039800	3.713800	-11.287000	24.272987	0.000457	20.865812
739.171785	-2.997100	3.715300	-11.134000	24.274529	0.000458	20.879686
740.173259	-2.984800	3.715500	-11.089000	24.298513	0.000457	20.873398
741.173685	-2.988700	3.716300	-11.106000	24.286844	0.000457	20.883504
742.173076	-2.988300	3.715400	-11.102000	24.287965	0.000459	20.877042
743.174530	-2.999000	3.714200	-11.137000	24.322321	0.000456	20.869780
744.173375	-2.998900	3.713400	-11.134000	24.296423	0.000457	20.886000
745.173245	-3.005000	3.712300	-11.155000	24.299832	0.000455	20.874247
746.175889	-2.985000	3.714100	-11.086000	24.324859	0.000457	20.874222
747.175451	-2.991700	3.713400	-11.109000	24.325307	0.000457	20.874197
748.175469	-2.977900	3.714000	-11.058000	24.321252	0.000457	20.872027
749.175513	-3.009400	3.712900	-11.172000	24.301573	0.000457	20.873149
750.177032	-2.995900	3.713100	-11.122000	24.314958	0.000456	20.877093
751.179477	-3.031400	3.712300	-11.253000	24.353941	0.000455	20.873051
752.177875	-2.972100	3.712400	-11.033000	24.323989	0.000456	20.884729
753.178614	-3.008900	3.711400	-11.166000	24.336079	0.000456	20.882158
754.179955	-2.993300	3.710900	-11.106000	24.348544	0.000456	20.889446
755.179219	-2.992900	3.710500	-11.104000	24.330582	0.000457	20.905566
756.181453	-3.006200	3.710200	-11.153000	24.360062	0.000455	20.895785
757.181568	-2.983200	3.711300	-11.071000	24.358296	0.000455	20.876471
758.182261	-2.991400	3.709000	-11.094000	24.345783	0.000455	20.863919
759.180968	-3.002900	3.709800	-11.139000	24.355237	0.000454	20.887151
760.180049	-3.002300	3.710000	-11.138000	24.351953	0.000455	20.884332
761.178673	-3.015100	3.708200	-11.179000	24.365885	0.000455	20.899255
762.181481	-3.011700	3.708100	-11.167000	24.341879	0.000453	20.892243
763.178018	-2.993000	3.709800	-11.103000	24.357203	0.000454	20.893865
764.178056	-2.989300	3.708500	-11.085000	24.367228	0.000454	20.914352
765.179762	-3.032400	3.706000	-11.237000	24.353597	0.000452	20.888351
766.178123	-2.991800	3.708700	-11.095000	24.374021	0.000453	20.899356
767.179827	-2.999100	3.706600	-11.116000	24.373076	0.000454	20.907890
768.179471	-2.984200	3.707500	-11.062000	24.380091	0.000451	20.902600
769.178269	-2.979600	3.707900	-11.047000	24.350489	0.000453	20.896138
770.182730	-3.013700	3.706200	-11.168000	24.374818	0.000451	20.889726
771.177162	-2.981200	3.707300	-11.051000	24.403002	0.000451	20.925582
772.178726	-3.000800	3.705300	-11.118000	24.367132	0.000452	20.910937
773.181161	-2.975100	3.708100	-11.031000	24.366686	0.000451	20.898162
774.181206	-3.014000	3.706000	-11.169000	24.374273	0.000452	20.910039
775.179144	-3.011200	3.704000	-11.151000	24.397556	0.000450	20.924386
776.192468	-3.000800	3.706100	-11.121000	24.415641	0.000452	20.883264
777.181662	-3.015100	3.703700	-11.166000	24.412681	0.000452	20.917276
778.183696	-3.009400	3.705200	-11.148000	24.413130	0.000451	20.885486
779.178661	-3.012200	3.704400	-11.158000	24.388105	0.000451	20.913484
780.184660	-2.999600	3.705700	-11.115000	24.396140	0.000450	20.917277
781.179597	-3.003200	3.704100	-11.123000	24.418553	0.000449	20.914632
782.179223	-3.009400	3.703400	-11.143000	24.427956	0.000450	20.905100
783.180755	-3.017000	3.703700	-11.172000	24.412036	0.000449	20.913784
784.183702	-3.025200	3.702100	-11.199000	24.423230	0.000451	20.927857
785.180042	-2.985400	3.703800	-11.057000	24.423404	0.000448	20.916654
786.181183	-3.024700	3.702200	-11.196000	24.419300	0.000449	20.913011
787.181579	-3.003200	3.702400	-11.118000	24.418454	0.000449	20.917851
788.179333	-2.999500	3.703000	-11.106000	24.416714	0.000448	20.921321
789.185512	-3.011000	3.702900	-11.148000	24.432609	0.000447	20.929680
790.181825	-2.991900	3.700900	-11.072000	24.414201	0.000448	20.935394
791.181336	-3.015900	3.702100	-11.163000	24.439798	0.000447	20.937366
792.182090	-2.987400	3.701500	-11.057000	24.428630	0.000448	20.932326
793.181692	-3.002100	3.701100	-11.111000	24.455146	0.000448	20.920048
794.183844	-3.041200	3.699500	-11.249000	24.458031	0.000448	20.945700
795.183599	-2.976100	3.700900	-11.012000	24.433182	0.000448	20.924565
796.183450	-3.016500	3.699500	-11.158000	24.440695	0.000446	20.922620
797.186629	-3.026400	3.699500	-11.195000	24.447635	0.000447	20.936693
798.185033	-3.003800	3.700700	-11.115000	24.444599	0.000447	20.902831
799.182258	-3.002200	3.700300	-11.109000	24.458853	0.000447	20.912863
800.183626	-2.999500	3.699400	-11.096000	24.451192	0.000446	20.904704
801.183209	-3.006900	3.699600	-11.124000	24.452958	0.000445	20.917854
802.182069	-2.992000	3.697900	-11.063000	24.430247	0.000445	20.927785
803.182552	-3.006600	3.698600	-11.120000	24.457361	0.000445	20.916581
804.182787	-3.000800	3.698200	-11.097000	24.441716	0.000445	20.915584
805.185355	-3.002700	3.697600	-11.102000	24.454923	0.000446	20.912714
806.183440	-2.982200	3.698000	-11.026000	24.478429	0.000445	20.907847
807.183216	-3.013000	3.698000	-11.141000	24.461590	0.000445	20.916556
808.184412	-2.996800	3.697200	-11.079000	24.464027	0.000445	20.909994
809.185001	-2.997500	3.697200	-11.081000	24.454823	0.000446	20.898390
810.187533	-2.995100	3.698000	-11.075000	24.470892	0.000445	20.898864
811.188915	-2.980200	3.696500	-11.016000	24.469898	0.000444	20.895497
812.185019	-2.970100	3.696900	-10.979000	24.471266	0.000444	20.903981
813.187950	-2.994000	3.696900	-11.067000	24.491413	0.000443	20.886262
814.185038	-2.991000	3.695900	-11.053000	24.478131	0.000442	20.901385
815.187191	-2.997600	3.695700	-11.077000	24.499273	0.000442	20.896519
816.190543	-2.984800	3.696900	-11.033000	24.495542	0.000442	20.903681
817.186732	-2.984900	3.695600	-11.030000	24.478330	0.000442	20.901111
818.188519	-2.999000	3.695600	-11.083000	24.483105	0.000443	20.888359
819.188172	-3.001600	3.696000	-11.094000	24.464525	0.000441	20.890106
820.186349	-3.010400	3.694400	-11.121000	24.474176	0.000443	20.910218
821.190779	-2.997900	3.694300	-11.074000	24.481613	0.000441	20.878327
822.188282	-2.998900	3.693700	-11.076000	24.499199	0.000441	20.904504
823.187094	-3.000200	3.693900	-11.081000	24.493080	0.000443	20.870392
824.191483	-2.993400	3.695000	-11.060000	24.496837	0.000442	20.897393
825.188516	-2.999000	3.693900	-11.077000	24.515268	0.000440	20.901660
826.187775	-2.995300	3.693400	-11.062000	24.495318	0.000439	20.902981
827.192498	-3.015200	3.692900	-11.134000	24.495865	0.000441	20.870816
828.193530	-2.985800	3.694700	-11.030000	24.511138	0.000440	20.893250
829.189097	-3.005100	3.692600	-11.096000	24.499224	0.000440	20.864704
830.188630	-3.001900	3.693200	-11.086000	24.507656	0.000440	20.880749
831.189881	-3.008500	3.691600	-11.104000	24.512955	0.000439	20.862358
832.193264	-3.009100	3.692600	-11.111000	24.515790	0.000438	20.872789
833.189888	-2.993300	3.692000	-11.050000	24.508128	0.000440	20.866998
834.190660	-2.995500	3.691900	-11.058000	24.493652	0.000439	20.873811
835.191324	-2.982800	3.692300	-11.012000	24.519496	0.000440	20.861335
836.191413	-2.995300	3.691800	-11.058000	24.523948	0.000438	20.885240
837.192297	-2.992700	3.690300	-11.043000	24.528475	0.000437	20.859438
838.193585	-3.000000	3.691000	-11.072000	24.529146	0.000438	20.864853
839.194699	-2.998100	3.690600	-11.063000	24.528798	0.000437	20.875883
840.195298	-3.007800	3.689700	-11.097000	24.499720	0.000438	20.873261
841.195069	-2.989000	3.690100	-11.029000	24.542802	0.000437	20.873812
842.193745	-3.005100	3.688800	-11.085000	24.545039	0.000438	20.871316
843.195230	-3.010700	3.688000	-11.103000	24.534917	0.000436	20.878702
844.194737	-3.002300	3.688000	-11.072000	24.537478	0.000438	20.877953
845.194282	-3.012000	3.687500	-11.106000	24.527554	0.000436	20.869419
846.192513	-2.984700	3.689900	-11.011000	24.527554	0.000438	20.876057
847.192733	-2.988400	3.688600	-11.021000	24.525515	0.000437	20.877804
848.200593	-3.012800	3.687500	-11.108000	24.553272	0.000436	20.856818
849.194666	-2.997200	3.686100	-11.048000	24.538897	0.000437	20.857093
850.194598	-3.005600	3.686200	-11.078000	24.564092	0.000434	20.865776
851.196631	-3.001700	3.686400	-11.064000	24.540762	0.000437	20.868921
852.195969	-2.997500	3.687300	-11.052000	24.542453	0.000434	20.861609
853.194733	-3.010000	3.686700	-11.096000	24.554467	0.000436	20.862283
854.200841	-3.013300	3.685000	-11.103000	24.565908	0.000435	20.877081
855.195763	-2.982500	3.685700	-10.991000	24.557204	0.000435	20.871667
856.198397	-2.997700	3.686300	-11.049000	24.543872	0.000436	20.868248
857.196605	-2.999000	3.684600	-11.049000	24.559964	0.000435	20.868747
858.198205	-3.036300	3.685700	-11.190000	24.563943	0.000433	20.859938
859.203137	-2.989900	3.686500	-11.021000	24.569464	0.000434	20.859313
860.196676	-3.000600	3.685100	-11.056000	24.567327	0.000433	20.851953
861.197845	-3.022600	3.684800	-11.137000	24.576977	0.000434	20.857842
862.196259	-3.004400	3.685200	-11.071000	24.583045	0.000433	20.870094
863.196705	-3.001800	3.683600	-11.057000	24.582200	0.000433	20.872091
864.198438	-3.011300	3.683500	-11.091000	24.585384	0.000433	20.858217
865.196474	-3.003000	3.682700	-11.058000	24.578021	0.000431	20.841347
866.197705	-3.008000	3.683400	-11.078000	24.563520	0.000430	20.847660
867.197574	-3.029600	3.681900	-11.154000	24.592944	0.000432	20.862483
868.197396	-3.021200	3.682300	-11.124000	24.576404	0.000429	20.849682
869.199436	-3.007400	3.682100	-11.073000	24.590929	0.000431	20.845764
870.196725	-3.011200	3.682600	-11.088000	24.583120	0.000431	20.844092
871.198184	-2.986700	3.683200	-10.999000	24.578643	0.000431	20.867099
872.197384	-3.007300	3.682600	-11.074000	24.585656	0.000429	20.860861
873.197044	-2.990900	3.681200	-11.009000	24.586601	0.000428	20.854223
874.200040	-3.006800	3.681100	-11.068000	24.604259	0.000431	20.852501
875.197421	-3.010300	3.680500	-11.079000	24.601374	0.000430	20.866200
876.197573	-2.993000	3.681100	-11.017000	24.592396	0.000428	20.859562
877.197462	-2.994300	3.680100	-11.019000	24.577671	0.000429	20.855693
878.197938	-3.004500	3.680000	-11.055000	24.580905	0.000428	20.831913
879.197146	-3.009800	3.680100	-11.075000	24.609555	0.000427	20.832211
880.196718	-3.005300	3.679600	-11.057000	24.586774	0.000427	20.849181
881.199039	-3.004800	3.679700	-11.056000	24.614280	0.000428	20.853546
882.198344	-3.002400	3.678900	-11.045000	24.607615	0.000427	20.833109
883.201479	-3.000600	3.678100	-11.036000	24.595528	0.000427	20.827619
884.197365	-2.983500	3.679400	-10.977000	24.602567	0.000427	20.829940
885.196973	-2.996400	3.679200	-11.024000	24.587021	0.000426	20.847532
886.199890	-3.010600	3.678900	-11.075000	24.588886	0.000426	20.840869
887.197306	-3.010400	3.677400	-11.069000	24.606246	0.000428	20.838374
888.199458	-3.012100	3.676900	-11.074000	24.625272	0.000427	20.832808
889.202806	-3.026000	3.676100	-11.123000	24.624750	0.000425	20.841294
890.196987	-3.009000	3.678800	-11.068000	24.629799	0.000426	20.847781
891.200322	-2.989100	3.677700	-10.992000	24.599108	0.000425	20.841169
892.199498	-3.007700	3.676800	-11.057000	24.629724	0.000426	20.842965
893.197887	-2.994100	3.677000	-11.008000	24.639647	0.000425	20.860982
894.204341	-3.002800	3.676300	-11.038000	24.631863	0.000425	20.836577
895.199417	-2.995300	3.676300	-11.010000	24.624278	0.000425	20.846509
896.200729	-3.013400	3.675100	-11.073000	24.642632	0.000425	20.845486
897.202578	-3.009100	3.675300	-11.058000	24.631167	0.000424	20.840146
898.201747	-2.989600	3.677600	-10.993000	24.636515	0.000423	20.833658
899.203002	-3.008800	3.675100	-11.057000	24.638951	0.000422	20.845586
900.202443	-2.990400	3.677600	-10.997000	24.627287	0.000423	20.838624
901.201618	-2.992600	3.676400	-11.001000	24.618608	0.000421	20.838924
902.206925	-3.008100	3.675900	-11.056000	24.641714	0.000424	20.845038
903.204550	-2.997700	3.674700	-11.015000	24.642981	0.000422	20.839672
904.206275	-2.999500	3.674400	-11.021000	24.637435	0.000422	20.836478
905.208964	-2.984300	3.675600	-10.967000	24.636889	0.000421	20.838301
906.205610	-3.001300	3.674600	-11.028000	24.663325	0.000419	20.830214
907.207850	-2.986400	3.673700	-10.970000	24.654969	0.000421	20.843640
908.204475	-2.999100	3.672900	-11.015000	24.628109	0.000421	20.833758
909.207061	-3.010900	3.672900	-11.058000	24.655914	0.000420	20.828942
910.210563	-3.009500	3.673500	-11.055000	24.653228	0.000420	20.825299
911.209272	-3.001700	3.672600	-11.023000	24.638182	0.000418	20.811149
912.207426	-3.008700	3.672900	-11.049000	24.651761	0.000421	20.834257
913.208082	-3.009100	3.672000	-11.048000	24.665241	0.000419	20.821706
914.209695	-3.005700	3.672200	-11.036000	24.658227	0.000419	20.837901
915.212378	-3.004200	3.672600	-11.032000	24.668274	0.000418	20.820956
916.210932	-3.000900	3.673200	-11.021000	24.655367	0.000418	20.832187
917.209059	-3.001100	3.671700	-11.018000	24.663723	0.000418	20.832985
918.209897	-3.004600	3.671000	-11.029000	24.679043	0.000417	20.842194
919.208748	-3.004900	3.671700	-11.033000	24.682948	0.000417	20.848482
920.210171	-3.001900	3.671500	-11.021000	24.668822	0.000418	20.824351
921.212780	-2.999700	3.669900	-11.008000	24.676905	0.000416	20.841945
922.209736	-3.003200	3.669700	-11.020000	24.678919	0.000416	20.830215
923.209836	-3.009900	3.669300	-11.043000	24.672205	0.000417	20.833909
924.209007	-3.015100	3.668800	-11.061000	24.666534	0.000416	20.847185
925.209913	-3.014400	3.669700	-11.061000	24.684317	0.000415	20.847959
926.214046	-3.004500	3.668600	-11.022000	24.680088	0.000415	20.827121
927.210791	-3.002600	3.669100	-11.016000	24.688818	0.000416	20.822605
928.210524	-2.997900	3.669300	-10.999000	24.669718	0.000417	20.846113
929.217400	-3.023800	3.666900	-11.087000	24.692921	0.000416	20.821032
930.215899	-2.985600	3.667600	-10.949000	24.669544	0.000415	20.816541
931.212770	-3.001800	3.667600	-11.008000	24.685585	0.000415	20.823628
932.217278	-3.014000	3.668100	-11.055000	24.664097	0.000411	20.821507
933.214417	-3.003400	3.667900	-11.015000	24.652234	0.000413	20.830465
934.215186	-2.988100	3.667200	-10.957000	24.669320	0.000415	20.822954
935.214309	-2.998900	3.666300	-10.994000	24.664222	0.000413	20.813571
936.214866	-2.979600	3.667800	-10.928000	24.706749	0.000413	20.825900
937.216806	-2.977200	3.667900	-10.919000	24.680287	0.000412	20.823054
938.215330	-2.987800	3.665900	-10.952000	24.694861	0.000412	20.825825
939.214121	-3.010900	3.665100	-11.034000	24.667879	0.000413	20.825776
940.217055	-3.005000	3.666600	-11.017000	24.687700	0.000412	20.815794
941.214441	-3.017100	3.664500	-11.056000	24.682875	0.000410	20.832763
942.217029	-3.002100	3.664600	-11.001000	24.680314	0.000413	20.835883
943.217404	-2.986400	3.665100	-10.945000	24.700931	0.000410	20.821959
944.214123	-2.999900	3.663800	-10.990000	24.698420	0.000409	20.798102
945.215514	-2.981900	3.665700	-10.930000	24.703319	0.000411	20.821509
946.217439	-3.025800	3.662700	-11.082000	24.682977	0.000411	20.821011
947.215466	-3.017700	3.662600	-11.052000	24.706279	0.000409	20.823532
948.220431	-3.012900	3.664300	-11.039000	24.681186	0.000408	20.813051
949.216914	-2.984700	3.664200	-10.936000	24.704737	0.000408	20.822933
950.216399	-2.995200	3.663900	-10.973000	24.718291	0.000410	20.838905
951.223616	-2.990400	3.662500	-10.951000	24.708419	0.000409	20.819041
952.215158	-3.017200	3.661800	-11.048000	24.715955	0.000406	20.832767
953.219463	-2.985300	3.662600	-10.933000	24.710932	0.000406	20.811131
954.217086	-2.996600	3.662100	-10.973000	24.714313	0.000407	20.805041
955.217463	-3.002500	3.661400	-10.991000	24.710707	0.000408	20.819441
956.220969	-3.001200	3.661700	-10.988000	24.718242	0.000407	20.796657
957.218604	-3.000700	3.660100	-10.982000	24.700760	0.000407	20.810881
958.221126	-3.000800	3.661100	-10.986000	24.722122	0.000407	20.818093
959.226001	-2.978600	3.661900	-10.906000	24.722769	0.000406	20.818743
960.217074	-2.983300	3.661600	-10.922000	24.725803	0.000408	20.821787
961.225439	-2.974700	3.660800	-10.889000	24.731448	0.000406	20.821762
962.225361	-2.982800	3.660700	-10.918000	24.748832	0.000407	20.816448
963.218913	-2.995700	3.660100	-10.964000	24.720805	0.000406	20.807763
964.223651	-3.003800	3.660200	-10.994000	24.724959	0.000405	20.799604
965.220550	-2.982500	3.660400	-10.916000	24.726676	0.000405	20.833568
966.221039	-2.995700	3.659900	-10.963000	24.727993	0.000406	20.805019
967.226054	-2.995400	3.658700	-10.959000	24.725308	0.000405	20.817497
968.222086	-3.006700	3.658200	-10.997000	24.723444	0.000405	20.820368
969.220905	-3.004700	3.658300	-10.992000	24.748735	0.000402	20.827256
970.222130	-3.006800	3.656400	-10.994000	24.740926	0.000405	20.829377
971.222909	-3.003100	3.658100	-10.985000	24.734512	0.000404	20.804448
972.229667	-3.008200	3.656900	-10.999000	24.721929	0.000402	20.808890
973.223479	-2.996400	3.657100	-10.957000	24.745728	0.000403	20.820445
974.222912	-2.986700	3.656400	-10.919000	24.725361	0.000404	20.800955
975.226425	-3.006100	3.657100	-10.993000	24.733940	0.000400	20.819048
976.223488	-3.002900	3.656800	-10.980000	24.742894	0.000401	20.807170
977.222926	-2.991000	3.656700	-10.937000	24.731802	0.000400	20.835868
978.222345	-2.999300	3.656600	-10.967000	24.756820	0.000400	20.818300
979.224665	-2.989800	3.656100	-10.930000	24.746376	0.000400	20.827259
980.231966	-2.984500	3.656100	-10.910000	24.766494	0.000400	20.797663
981.224580	-2.991500	3.655600	-10.934000	24.761224	0.000399	20.804702
982.227320	-2.999200	3.655800	-10.964000	24.767216	0.000399	20.820672
983.230031	-2.980600	3.654900	-10.893000	24.769131	0.000400	20.794619
984.224357	-2.976200	3.656000	-10.880000	24.758563	0.000400	20.822420
985.227642	-2.995800	3.653300	-10.943000	24.768336	0.000399	20.827486
986.224890	-3.012600	3.654800	-11.009000	24.772589	0.000397	20.790503
987.235917	-2.984600	3.655000	-10.907000	24.771694	0.000399	20.813786
988.225103	-2.985300	3.654900	-10.910000	24.774976	0.000398	20.809020
989.224594	-3.021600	3.653200	-11.037000	24.778509	0.000397	20.800711
990.224562	-3.017400	3.653200	-11.022000	24.792781	0.000397	20.797017
991.225168	-2.996500	3.652100	-10.943000	24.773360	0.000396	20.809295
992.228226	-2.998100	3.652700	-10.951000	24.793354	0.000397	20.803755
993.225461	-3.004900	3.653400	-10.978000	24.783183	0.000396	20.805877
994.226055	-3.010100	3.652100	-10.992000	24.799297	0.000395	20.803082
995.233481	-3.005400	3.652200	-10.975000	24.780572	0.000394	20.802307
996.227808	-2.999800	3.652500	-10.956000	24.781766	0.000393	20.784066
997.224131	-3.013600	3.650700	-11.001000	24.786342	0.000395	20.800986
998.231757	-3.016100	3.650300	-11.008000	24.788357	0.000396	20.782145
999.229715	-3.030200	3.649900	-11.059000	24.797581	0.000395	20.780022
1000.225925	-3.013300	3.651800	-11.002000	24.785919	0.000393	20.787759
1001.229479	-2.985200	3.651200	-10.898000	24.774754	0.000393	20.789830
1002.226160	-2.998600	3.650500	-10.945000	24.797855	0.000393	20.783142
1003.225672	-2.979500	3.650200	-10.874000	24.788953	0.000391	20.785588
1004.231502	-3.003400	3.650000	-10.962000	24.794474	0.000391	20.811043
1005.227760	-3.020500	3.649500	-11.022000	24.791987	0.000392	20.795271
1006.238724	-2.994300	3.649200	-10.925000	24.787586	0.000393	20.819304
1007.231091	-3.010900	3.649200	-10.986000	24.804372	0.000391	20.802485
1008.228046	-3.002200	3.648900	-10.954000	24.804322	0.000392	20.792952
1009.232141	-2.989500	3.649100	-10.909000	24.805216	0.000389	20.788633
1010.228593	-3.004800	3.647900	-10.960000	24.802010	0.000390	20.784467
1011.232205	-3.012000	3.647200	-10.984000	24.786791	0.000390	20.785315
1012.233329	-3.010800	3.647300	-10.980000	24.786368	0.000390	20.784417
1013.227777	-2.999800	3.646400	-10.938000	24.793307	0.000389	20.791854
1014.231732	-3.013200	3.646200	-10.986000	24.812678	0.000389	20.770991
1015.230214	-2.989100	3.647700	-10.902000	24.813871	0.000389	20.776456
1016.231611	-2.974500	3.645900	-10.844000	24.796589	0.000387	20.807950
1017.233688	-2.979800	3.646200	-10.864000	24.798479	0.000387	20.787562
1018.230844	-3.015000	3.645700	-10.991000	24.809420	0.000388	20.779576
1019.231647	-2.985600	3.646400	-10.884000	24.823470	0.000387	20.784193
1020.236376	-3.014400	3.644900	-10.986000	24.811186	0.000387	20.793202
1021.232557	-3.003000	3.645000	-10.945000	24.808724	0.000385	20.764652
1022.233800	-3.026400	3.644700	-11.029000	24.790322	0.000386	20.769893
1023.237830	-3.021200	3.644800	-11.011000	24.824538	0.000385	20.762505
1024.232942	-3.001600	3.643800	-10.936000	24.809544	0.000387	20.801985
1025.233841	-2.993800	3.644600	-10.910000	24.809370	0.000385	20.780473
1026.234722	-2.979000	3.644300	-10.856000	24.818122	0.000385	20.783093
1027.233977	-2.985900	3.643700	-10.879000	24.808127	0.000384	20.764527
1028.236646	-2.984900	3.644000	-10.876000	24.826852	0.000386	20.779526
1029.244633	-2.999400	3.642100	-10.923000	24.829039	0.000384	20.797843
1030.236470	-2.988000	3.644200	-10.888000	24.838189	0.000385	20.781422
1031.238517	-3.012200	3.642000	-10.970000	24.823096	0.000383	20.770541
1032.233460	-3.004500	3.641300	-10.939000	24.829089	0.000382	20.788884
1033.237066	-3.002500	3.641700	-10.934000	24.844854	0.000382	20.784792
1034.236837	-2.980100	3.642800	-10.855000	24.812156	0.000383	20.769993
1035.235249	-2.997100	3.641800	-10.913000	24.856044	0.000383	20.792228
1036.236417	-3.004800	3.640600	-10.937000	24.830556	0.000383	20.781822
1037.235593	-3.009300	3.640400	-10.954000	24.814121	0.000382	20.778130
1038.235971	-3.014400	3.640000	-10.971000	24.844979	0.000380	20.771166
1039.238042	-2.991500	3.641200	-10.891000	24.832198	0.000382	20.776831
1040.235326	-3.021800	3.639400	-10.996000	24.846571	0.000381	20.771341
1041.236379	-3.005200	3.640200	-10.939000	24.824863	0.000381	20.772315
1042.235472	-3.001600	3.639100	-10.922000	24.857064	0.000378	20.771916
1043.235309	-3.008100	3.639100	-10.946000	24.841324	0.000381	20.768446
1044.239326	-2.993500	3.639000	-10.892000	24.853732	0.000380	20.782796
1045.235345	-2.988800	3.639700	-10.877000	24.832199	0.000379	20.781574
1046.236018	-3.004800	3.639600	-10.936000	24.832921	0.000378	20.763332
1047.241737	-3.000800	3.637500	-10.914000	24.858408	0.000378	20.784644
1048.237584	-2.984000	3.638500	-10.856000	24.867161	0.000379	20.780152
1049.236639	-3.000700	3.637000	-10.912000	24.856917	0.000376	20.788837
1050.241056	-2.980500	3.637100	-10.839000	24.841548	0.000379	20.772939
1051.240189	-2.999000	3.637300	-10.907000	24.849433	0.000377	20.804559
1052.235509	-2.970600	3.637700	-10.805000	24.870220	0.000376	20.794602
1053.236243	-3.000800	3.636300	-10.911000	24.860423	0.000376	20.767700
1054.236051	-2.990000	3.635400	-10.869000	24.858608	0.000375	20.780103
1055.241050	-2.974900	3.636300	-10.816000	24.880216	0.000375	20.785668
1056.238681	-3.029900	3.634300	-11.009000	24.864501	0.000375	20.763732
1057.240409	-3.003500	3.634200	-10.914000	24.846102	0.000375	20.757594
1058.236099	-2.995900	3.635300	-10.890000	24.853636	0.000375	20.753775
1059.235652	-2.991400	3.634700	-10.872000	24.865247	0.000374	20.778232
1060.238633	-2.992500	3.634600	-10.875000	24.869225	0.000373	20.774638
1061.242912	-2.990100	3.634600	-10.867000	24.860125	0.000374	20.771194
1062.237170	-2.964100	3.635900	-10.775000	24.872632	0.000374	20.774263
1063.237805	-2.991700	3.634300	-10.870000	24.875764	0.000373	20.798745
1064.240599	-2.981900	3.634100	-10.836000	24.869350	0.000372	20.776659
1065.241230	-2.993500	3.633000	-10.875000	24.867061	0.000373	20.772940
1066.237642	-2.991700	3.634200	-10.870000	24.875044	0.000371	20.774788
1067.247326	-2.968800	3.633600	-10.787000	24.882553	0.000372	20.781850
1068.242939	-3.011400	3.632300	-10.937000	24.879768	0.000374	20.782848
1069.239426	-3.000900	3.632400	-10.900000	24.872830	0.000372	20.776833
1070.249277	-2.981200	3.633400	-10.831000	24.848809	0.000371	20.757941
1071.249458	-2.989300	3.632300	-10.857000	24.876684	0.000369	20.763158
1072.244318	-2.975000	3.632600	-10.806000	24.862014	0.000371	20.783522
1073.245096	-2.983300	3.632500	-10.835000	24.881956	0.000368	20.775561
1074.241942	-2.997800	3.630800	-10.883000	24.874446	0.000370	20.811646
1075.241529	-3.005700	3.631800	-10.914000	24.885087	0.000368	20.783920
1076.244594	-3.001600	3.630400	-10.895000	24.884540	0.000367	20.789534
1077.246280	-3.001800	3.630900	-10.898000	24.889862	0.000369	20.793927
1078.245186	-2.987100	3.629200	-10.838000	24.884192	0.000368	20.759787
1079.246760	-3.000300	3.628900	-10.887000	24.890433	0.000367	20.775534
1080.245023	-2.992800	3.629800	-10.863000	24.902815	0.000367	20.788436
1081.248252	-2.991200	3.629900	-10.855000	24.882228	0.000367	20.780575
1082.256365	-3.018800	3.629000	-10.954000	24.910026	0.000364	20.771017
1083.251906	-2.999000	3.626900	-10.876000	24.902394	0.000366	20.794651
1084.247039	-2.993900	3.628600	-10.863000	24.889240	0.000365	20.762008
1085.252481	-3.020000	3.628200	-10.956000	24.885585	0.000367	20.796273
1086.260142	-3.016400	3.626200	-10.937000	24.896450	0.000365	20.773512
1087.253081	-2.982200	3.629100	-10.822000	24.881854	0.000366	20.776881
1088.248278	-3.001300	3.627600	-10.887000	24.900179	0.000365	20.779626
1089.249146	-2.995100	3.627500	-10.863000	24.886678	0.000365	20.774610
1090.251554	-2.998300	3.627600	-10.875000	24.902989	0.000365	20.770592
1091.253736	-3.006400	3.626900	-10.901000	24.897345	0.000364	20.766824
1092.256086	-3.002700	3.626400	-10.888000	24.914153	0.000362	20.807402
1093.248749	-2.996800	3.627200	-10.868000	24.919425	0.000362	20.768596
1094.248015	-3.003600	3.625200	-10.887000	24.920170	0.000362	20.793053
1095.254958	-3.003900	3.625800	-10.890000	24.923552	0.000361	20.777006
1096.249279	-2.987600	3.625100	-10.830000	24.893566	0.000363	20.772041
1097.250377	-2.989200	3.624600	-10.834000	24.915871	0.000360	20.800117
1098.249782	-2.997800	3.625000	-10.865000	24.933548	0.000361	20.788936
1099.250061	-2.995000	3.625100	-10.856000	24.920146	0.000360	20.764105
1100.256552	-3.003800	3.623400	-10.883000	24.913856	0.000359	20.784345
1101.251663	-3.023300	3.622500	-10.951000	24.924623	0.000359	20.806531
1102.250542	-3.012000	3.622100	-10.909000	24.909481	0.000358	20.789911
1103.256691	-3.033500	3.623100	-10.988000	24.910526	0.000357	20.807554
1104.252374	-2.994700	3.623400	-10.850000	24.932506	0.000359	20.797373
1105.251565	-3.012700	3.621800	-10.911000	24.937603	0.000359	20.782574
1106.255085	-3.007600	3.621100	-10.890000	24.931089	0.000359	20.808753
1107.251833	-2.996400	3.621200	-10.850000	24.931389	0.000358	20.794829
1108.259163	-3.002100	3.621400	-10.870000	24.938723	0.000356	20.799820
1109.257863	-2.983600	3.622000	-10.806000	24.918509	0.000357	20.816989
1110.254854	-3.003200	3.621400	-10.875000	24.920424	0.000356	20.788565
1111.251589	-3.004200	3.620600	-10.876000	24.931289	0.000355	20.800893
1112.251803	-2.990600	3.620000	-10.826000	24.944417	0.000354	20.816440
1113.267451	-2.988400	3.620900	-10.820000	24.938599	0.000354	20.788316
1114.257248	-2.993200	3.620600	-10.836000	24.917068	0.000354	20.780930
1115.261981	-3.011200	3.619700	-10.899000	24.933403	0.000353	20.800644
1116.256131	-3.019200	3.618800	-10.925000	24.945561	0.000355	20.800045
1117.253137	-2.999900	3.617900	-10.852000	24.960877	0.000354	20.800719
1118.253811	-3.021800	3.617400	-10.929000	24.934299	0.000354	20.808656
1119.256339	-3.014800	3.617800	-10.906000	24.956402	0.000354	20.809978
1120.254059	-2.978900	3.618200	-10.777000	24.944966	0.000352	20.812724
1121.251565	-3.027600	3.616200	-10.948000	24.950685	0.000352	20.766307
1122.252110	-3.009800	3.616700	-10.885000	24.936313	0.000352	20.783651
1123.253340	-3.000200	3.617000	-10.851000	24.944394	0.000351	20.813098
1124.254417	-2.997700	3.617600	-10.843000	24.942704	0.000349	20.804290
1125.255070	-3.014600	3.615400	-10.899000	24.978606	0.000351	20.804764
1126.254177	-3.017200	3.614800	-10.906000	24.975921	0.000351	20.807759
1127.257490	-2.979500	3.616700	-10.775000	24.957721	0.000351	20.808457
1128.254523	-3.003600	3.616800	-10.862000	24.959585	0.000350	20.801320
1129.258022	-3.000700	3.614300	-10.844000	24.990242	0.000350	20.797003
1130.256374	-2.998700	3.614400	-10.836000	24.986811	0.000351	20.802094
1131.259407	-2.961500	3.615800	-10.707000	24.973981	0.000347	20.800596
1132.255529	-3.007600	3.615100	-10.872000	24.966448	0.000348	20.827174
1133.256075	-3.006500	3.614300	-10.865000	24.982509	0.000348	20.803941
1134.257722	-3.007800	3.613100	-10.866000	24.994419	0.000349	20.814946
1135.256301	-3.008400	3.613800	-10.871000	24.978831	0.000348	20.805938
1136.255776	-3.004000	3.612600	-10.852000	24.973834	0.000349	20.823208
1137.258681	-3.008200	3.611900	-10.864000	24.962670	0.000348	20.834287
1138.258385	-3.017100	3.612000	-10.897000	24.943750	0.000345	20.811030
1139.256382	-3.002800	3.611800	-10.845000	24.974306	0.000347	20.824630
1140.260301	-3.001500	3.612400	-10.842000	24.980472	0.000345	20.809482
1141.256648	-2.982700	3.612300	-10.773000	24.973163	0.000346	20.813526
1142.255505	-2.993900	3.612100	-10.813000	24.989747	0.000344	20.821636
1143.259994	-2.995300	3.611200	-10.816000	24.980622	0.000344	20.821486
1144.257093	-3.025300	3.610200	-10.921000	24.971323	0.000344	20.814523
1145.257329	-2.970000	3.611700	-10.725000	24.987186	0.000342	20.818591
1146.258548	-3.003200	3.609200	-10.839000	24.975401	0.000342	20.811978
1147.259158	-3.003700	3.609700	-10.842000	24.999020	0.000343	20.827625
1148.260126	-2.983400	3.609100	-10.766000	24.979677	0.000341	20.810581
1149.257334	-2.981600	3.609200	-10.759000	24.992954	0.000342	20.841924
1150.258296	-2.998700	3.609200	-10.822000	24.993326	0.000343	20.831867
1151.255732	-3.011300	3.608500	-10.865000	24.983059	0.000339	20.821087
1152.257300	-2.982300	3.609100	-10.763000	25.018362	0.000339	20.811479
1153.258440	-3.019800	3.608400	-10.895000	24.994048	0.000341	20.840178
1154.259212	-2.980500	3.607200	-10.749000	24.997429	0.000342	20.808011
1155.261881	-3.004000	3.607600	-10.836000	24.996260	0.000341	20.843821
1156.259659	-3.007600	3.607000	-10.847000	25.010482	0.000342	20.832017
1157.259275	-2.996700	3.607700	-10.810000	25.005783	0.000340	20.805964
1158.263333	-2.997600	3.606300	-10.809000	24.993626	0.000339	20.833116
1159.261913	-2.998000	3.606400	-10.811000	25.006951	0.000339	20.829422
1160.260807	-2.985800	3.606900	-10.769000	25.024007	0.000337	20.843697
1161.263799	-3.016700	3.604900	-10.874000	25.015331	0.000337	20.843049
1162.264102	-3.032500	3.604100	-10.927000	25.028010	0.000336	20.828275
1163.262919	-3.009400	3.603700	-10.844000	25.019135	0.000338	20.846393
1164.263001	-3.009700	3.603700	-10.845000	25.034947	0.000335	20.829075
1165.264472	-3.004400	3.604700	-10.828000	25.000962	0.000336	20.827677
1166.265015	-3.006900	3.604500	-10.837000	25.030771	0.000335	20.853805
1167.263069	-3.004000	3.603800	-10.825000	25.024829	0.000337	20.862065
1168.265784	-2.994700	3.603800	-10.791000	25.028881	0.000335	20.833891
1169.262838	-2.993700	3.603900	-10.788000	25.026745	0.000335	20.847393
1170.264605	-2.987800	3.603600	-10.765000	25.008595	0.000334	20.839133
1171.265127	-3.010700	3.603100	-10.846000	25.054017	0.000333	20.832570
1172.265458	-2.981700	3.602400	-10.740000	25.018118	0.000334	20.864811
1173.267042	-3.010700	3.601800	-10.843000	25.040170	0.000332	20.826731
1174.266397	-2.970300	3.601900	-10.698000	25.025253	0.000331	20.839732
1175.266661	-2.974200	3.600600	-10.708000	25.040270	0.000333	20.839159
1176.269528	-3.000800	3.601700	-10.807000	25.027094	0.000334	20.842528
1177.267595	-3.003700	3.600200	-10.812000	25.036964	0.000332	20.850538
1178.269526	-3.006500	3.601500	-10.827000	25.069158	0.000330	20.853458
1179.267900	-3.012900	3.599700	-10.845000	25.054119	0.000330	20.847844
1180.267589	-3.010400	3.599900	-10.836000	25.068811	0.000330	20.852161
1181.266792	-2.999000	3.599900	-10.794000	25.067817	0.000329	20.834095
1182.268008	-3.015700	3.599700	-10.854000	25.046189	0.000328	20.842729
1183.268539	-2.979000	3.599500	-10.721000	25.061553	0.000329	20.863367
1184.270674	-3.014900	3.597800	-10.846000	25.077042	0.000329	20.845725
1185.267465	-3.010000	3.598600	-10.830000	25.066401	0.000330	20.858751
1186.272265	-3.009800	3.599100	-10.832000	25.075600	0.000328	20.847122
1187.270428	-3.003300	3.598400	-10.805000	25.070404	0.000326	20.871303
1188.268774	-3.011900	3.597600	-10.835000	25.065855	0.000327	20.838763
1189.268294	-3.003500	3.597000	-10.803000	25.072393	0.000328	20.846274
1190.269932	-2.970000	3.598400	-10.685000	25.063818	0.000325	20.855209
1191.268730	-2.999400	3.596100	-10.785000	25.068218	0.000327	20.858678
1192.270096	-3.003000	3.596200	-10.798000	25.062302	0.000326	20.875971
1193.270412	-3.009400	3.596300	-10.821000	25.083136	0.000326	20.862273
1194.270934	-3.009300	3.595600	-10.819000	25.059592	0.000324	20.856183
1195.272610	-2.992100	3.596100	-10.759000	25.072944	0.000327	20.862473
1196.271858	-2.998100	3.594000	-10.774000	25.078413	0.000324	20.854213
1197.274193	-2.986700	3.595800	-10.738000	25.065088	0.000324	20.861226
1198.271857	-2.998500	3.594000	-10.775000	25.075555	0.000322	20.875999
1199.271939	-2.994600	3.593600	-10.761000	25.097133	0.000323	20.869685
1200.275403	-3.007000	3.594200	-10.807000	25.078117	0.000322	20.870510
1201.274395	-2.979200	3.595300	-10.710000	25.086371	0.000323	20.870261
1202.272481	-3.002500	3.593000	-10.787000	25.099000	0.000321	20.859706
1203.272322	-3.004000	3.593700	-10.795000	25.090574	0.000322	20.898660
1204.275690	-2.992700	3.593400	-10.752000	25.089456	0.000322	20.868142
1205.271890	-2.981400	3.591300	-10.706000	25.080704	0.000321	20.858409
1206.273212	-2.982000	3.591800	-10.711000	25.086944	0.000320	20.870363
1207.276189	-2.996300	3.592600	-10.763000	25.088710	0.000319	20.898212
1208.272709	-3.031800	3.590900	-10.885000	25.092291	0.000320	20.867195
1209.273630	-3.000200	3.591500	-10.775000	25.097511	0.000319	20.881918
1210.277820	-3.020100	3.591100	-10.844000	25.101541	0.000319	20.891177
1211.273945	-3.009700	3.590500	-10.806000	25.076108	0.000318	20.893622
1212.274606	-3.006900	3.589000	-10.791000	25.106089	0.000317	20.876305
1213.274645	-2.988000	3.590900	-10.728000	25.095649	0.000318	20.880523
1214.274546	-3.005500	3.589200	-10.786000	25.120385	0.000319	20.872638
1215.275738	-2.996200	3.589500	-10.755000	25.092220	0.000317	20.893200
1216.275387	-3.005300	3.589000	-10.785000	25.099330	0.000317	20.880424
1217.275976	-2.999800	3.590000	-10.768000	25.110940	0.000314	20.890182
1218.275318	-3.021400	3.587500	-10.838000	25.102065	0.000316	20.891704
1219.285836	-2.979500	3.587600	-10.688000	25.117951	0.000316	20.893426
1220.277425	-3.014200	3.587700	-10.813000	25.119865	0.000315	20.900089
1221.279342	-3.009600	3.587400	-10.795000	25.096969	0.000314	20.906027
1222.277256	-2.992800	3.587500	-10.736000	25.123744	0.000313	20.894500
1223.279473	-2.992000	3.586400	-10.729000	25.119865	0.000314	20.877331
1224.278017	-3.006000	3.587000	-10.782000	25.119840	0.000312	20.895323
1225.279943	-2.987400	3.586900	-10.715000	25.127748	0.000313	20.899467
1226.281673	-3.005500	3.585700	-10.775000	25.107288	0.000313	20.897421
1227.280521	-3.002200	3.586900	-10.767000	25.132943	0.000312	20.903260
1228.282856	-3.018400	3.583900	-10.816000	25.135628	0.000312	20.910222
1229.282115	-3.017500	3.583200	-10.811000	25.136499	0.000312	20.902088
1230.280766	-2.979300	3.584600	-10.679000	25.134012	0.000310	20.901489
1231.285116	-2.977300	3.584300	-10.670000	25.143658	0.000310	20.911645
1232.282365	-2.996100	3.584700	-10.739000	25.136698	0.000310	20.906081
1233.286155	-2.981700	3.584300	-10.686000	25.142913	0.000311	20.893355
1234.291361	-3.004700	3.583800	-10.768000	25.146989	0.000308	20.893180
1235.284720	-3.016500	3.583500	-10.809000	25.152359	0.000308	20.929387
1236.288684	-3.003900	3.582800	-10.761000	25.140278	0.000307	20.893555
1237.284948	-3.024700	3.582400	-10.835000	25.135953	0.000307	20.908178
1238.284383	-2.999400	3.581600	-10.740000	25.168965	0.000310	20.918558
1239.289897	-3.003300	3.581700	-10.755000	25.131155	0.000306	20.928015
1240.286339	-2.983000	3.581500	-10.682000	25.149351	0.000309	20.941539
1241.286350	-2.992400	3.581300	-10.715000	25.169636	0.000304	20.929662
1242.288869	-3.004900	3.580600	-10.758000	25.142366	0.000307	20.914141
1243.286132	-3.007200	3.580100	-10.765000	25.151415	0.000306	20.894303
1244.288763	-3.004800	3.580500	-10.758000	25.153999	0.000308	20.917759
1245.288050	-2.999800	3.580500	-10.740000	25.155070	0.000305	20.901291
1246.289481	-3.007000	3.578900	-10.760000	25.159220	0.000303	20.897871
1247.288243	-3.003100	3.579500	-10.749000	25.164589	0.000304	20.924596
1248.290677	-3.009400	3.577900	-10.766000	25.176868	0.000303	20.927914
1249.287573	-3.002300	3.578300	-10.742000	25.154149	0.000304	20.922650
1250.291101	-2.985800	3.579500	-10.687000	25.149326	0.000302	20.926342
1251.288735	-2.975500	3.579600	-10.650000	25.166181	0.000304	20.924297
1252.289110	-2.992900	3.578100	-10.708000	25.167473	0.000303	20.911371
1253.290458	-2.981900	3.578600	-10.671000	25.174955	0.000301	20.915089
1254.289918	-2.999500	3.578800	-10.734000	25.176621	0.000301	20.907753
1255.291486	-3.008800	3.576700	-10.761000	25.164664	0.000302	20.927516
1256.292383	-3.003600	3.576400	-10.742000	25.186589	0.000299	20.928190
1257.290080	-3.016000	3.575600	-10.782000	25.185969	0.000298	20.927567
1258.291388	-2.999600	3.576100	-10.726000	25.186118	0.000300	20.947629
1259.293524	-2.984300	3.576300	-10.672000	25.185548	0.000300	20.951323
1260.291621	-2.983700	3.576400	-10.670000	25.169513	0.000298	20.933805
1261.291297	-2.986000	3.576600	-10.679000	25.184055	0.000298	20.927542
1262.293256	-3.000200	3.575300	-10.725000	25.195815	0.000298	20.926546
1263.292177	-2.992400	3.574400	-10.695000	25.205310	0.000298	20.925174
1264.292534	-2.995800	3.573500	-10.704000	25.176924	0.000296	20.946459
1265.297085	-3.015900	3.573300	-10.776000	25.201061	0.000298	20.946509
1266.292067	-3.007900	3.572800	-10.746000	25.187514	0.000297	20.932437
1267.293535	-2.999600	3.573200	-10.717000	25.183090	0.000296	20.918040
1268.300243	-2.979700	3.572800	-10.644000	25.195918	0.000297	20.936606
1269.294771	-2.977700	3.572200	-10.636000	25.183936	0.000295	20.932164
1270.293697	-2.991600	3.572900	-10.687000	25.191220	0.000295	20.939950
1271.296710	-2.987800	3.573400	-10.675000	25.196962	0.000294	20.908260
1272.294034	-2.994800	3.571900	-10.696000	25.210138	0.000295	20.932390
1273.294514	-2.988800	3.571700	-10.674000	25.180383	0.000294	20.925279
1274.297507	-3.017400	3.572300	-10.778000	25.199474	0.000293	20.921686
1275.295279	-2.999700	3.570200	-10.709000	25.221299	0.000294	20.919890
1276.296009	-3.000900	3.571200	-10.717000	25.193858	0.000293	20.939753
1277.295548	-2.994400	3.570500	-10.690000	25.197563	0.000292	20.921664
1278.296987	-2.988900	3.571700	-10.674000	25.222021	0.000291	20.922036
1279.298283	-2.978800	3.570300	-10.634000	25.182250	0.000291	20.919567
1280.308390	-3.016300	3.569200	-10.764000	25.204797	0.000288	20.940778
1281.305834	-3.027100	3.568200	-10.800000	25.233506	0.000289	20.929299
1282.298149	-2.987200	3.569400	-10.661000	25.225328	0.000290	20.915400
1283.298397	-3.002400	3.568300	-10.713000	25.217076	0.000289	20.916599
1284.299522	-2.993000	3.569100	-10.681000	25.223091	0.000288	20.932593
1285.297832	-3.028100	3.567600	-10.802000	25.219188	0.000289	20.914926
1286.298725	-2.995100	3.567900	-10.685000	25.232908	0.000290	20.885555
1287.300677	-3.018300	3.566100	-10.763000	25.219910	0.000288	20.897160
1288.299325	-2.998200	3.567100	-10.694000	25.226098	0.000288	20.941775
1289.300586	-2.992400	3.566900	-10.673000	25.222493	0.000286	20.904495
1290.299994	-3.000600	3.565800	-10.699000	25.230101	0.000286	20.917821
1291.299210	-3.013700	3.566500	-10.747000	25.206064	0.000285	20.919293
1292.300192	-2.987700	3.566000	-10.653000	25.211856	0.000283	20.910884
1293.301078	-2.967800	3.565900	-10.581000	25.202086	0.000284	20.883061
1294.299916	-2.992200	3.565100	-10.666000	25.224357	0.000285	20.904470
1295.300406	-2.980700	3.564400	-10.623000	25.217050	0.000283	20.905194
1296.300551	-2.988900	3.564200	-10.652000	25.234524	0.000283	20.906616
1297.299962	-3.018700	3.562600	-10.752000	25.223040	0.000286	20.898880
1298.301497	-3.013600	3.562000	-10.733000	25.225576	0.000282	20.871557
1299.302666	-2.993300	3.562800	-10.663000	25.226769	0.000282	20.904994
1300.303952	-2.968700	3.562200	-10.574000	25.216924	0.000280	20.875672
1301.302105	-2.998800	3.561900	-10.681000	25.233951	0.000280	20.880439
1302.304501	-3.031100	3.561800	-10.795000	25.226892	0.000281	20.891368
1303.303030	-3.010000	3.561000	-10.717000	25.225674	0.000282	20.908162
1304.307318	-2.983200	3.563000	-10.628000	25.233702	0.000280	20.900101
1305.303909	-3.002100	3.561600	-10.692000	25.219085	0.000280	20.875471
1306.307370	-2.997100	3.561200	-10.673000	25.231066	0.000280	20.871379
1307.305124	-3.013400	3.561100	-10.731000	25.249385	0.000282	20.892614
1308.305968	-2.998800	3.559400	-10.672000	25.230022	0.000279	20.886925
1309.308998	-3.018900	3.558200	-10.741000	25.235913	0.000279	20.876244
1310.306348	-3.021400	3.559600	-10.753000	25.210782	0.000278	20.896057
1311.305462	-3.008400	3.560200	-10.709000	25.242450	0.000276	20.874272
1312.310450	-3.029300	3.558100	-10.777000	25.236906	0.000280	20.897628
1313.305469	-3.001000	3.557900	-10.675000	25.231486	0.000277	20.891239
1314.309700	-3.020600	3.558700	-10.749000	25.235017	0.000278	20.889568
1315.306415	-3.020100	3.558500	-10.745000	25.234493	0.000276	20.886198
1316.310030	-3.001700	3.557400	-10.678000	25.236731	0.000276	20.875644
1317.305728	-3.011100	3.557000	-10.710000	25.232902	0.000275	20.877963
1318.307847	-2.993200	3.558100	-10.649000	25.231710	0.000276	20.870602
1319.311132	-2.993700	3.557200	-10.648000	25.242073	0.000276	20.877688
1320.307171	-2.993800	3.556700	-10.647000	25.268148	0.000274	20.883477
1321.307982	-3.003800	3.556600	-10.683000	25.241503	0.000273	20.870477
1322.309602	-2.991100	3.556100	-10.637000	25.268893	0.000273	20.858149
1323.307922	-3.010200	3.555500	-10.702000	25.247541	0.000272	20.862316
1324.310946	-2.996400	3.554800	-10.650000	25.265140	0.000273	20.877613
1325.308146	-3.021800	3.555500	-10.743000	25.241450	0.000272	20.870899
1326.307380	-2.990700	3.555800	-10.634000	25.281370	0.000273	20.864511
1327.312494	-3.003600	3.555600	-10.679000	25.266207	0.000269	20.877735
1328.308409	-3.012200	3.552900	-10.701000	25.254723	0.000269	20.879482
1329.308341	-3.011800	3.552600	-10.699000	25.274087	0.000271	20.854828
1330.307119	-3.010600	3.554100	-10.699000	25.236279	0.000269	20.869500
1331.306856	-3.009900	3.553300	-10.694000	25.275602	0.000268	20.853979
1332.310293	-3.002500	3.552500	-10.665000	25.265385	0.000269	20.854627
1333.309385	-2.995700	3.553900	-10.646000	25.253901	0.000269	20.853529
1334.312185	-3.001500	3.552400	-10.661000	25.256835	0.000267	20.837982
1335.308639	-2.987500	3.551500	-10.610000	25.264962	0.000268	20.857521
1336.308680	-3.000000	3.551000	-10.652000	25.296329	0.000267	20.848237
1337.308024	-2.989400	3.551800	-10.617000	25.269808	0.000267	20.869972
1338.309251	-2.995600	3.552100	-10.639000	25.268291	0.000266	20.870820
1339.309342	-3.004300	3.551100	-10.668000	25.278457	0.000264	20.853526
1340.308344	-3.001300	3.550100	-10.653000	25.247933	0.000265	20.837106
1341.308080	-3.005400	3.549100	-10.666000	25.272665	0.000264	20.855772
1342.310993	-2.997500	3.549600	-10.640000	25.258894	0.000263	20.869919
1343.313069	-3.044600	3.547300	-10.799000	25.257850	0.000264	20.835209
1344.309655	-3.022500	3.548200	-10.723000	25.251412	0.000263	20.839176
1345.309339	-3.011000	3.547800	-10.681000	25.266202	0.000262	20.839800
1346.310452	-3.005400	3.548900	-10.665000	25.263766	0.000262	20.843992
1347.312002	-2.992700	3.547800	-10.616000	25.252207	0.000262	20.837604
1348.309819	-2.983200	3.548500	-10.585000	25.268364	0.000261	20.857617
1349.308514	-3.013200	3.546900	-10.686000	25.265356	0.000262	20.860761
1350.312115	-2.997300	3.547500	-10.632000	25.243358	0.000261	20.839625
1351.324566	-3.005000	3.546300	-10.656000	25.263716	0.000260	20.855322
1352.309636	-2.973600	3.546500	-10.545000	25.252008	0.000261	20.855895
1353.311755	-2.976000	3.546600	-10.554000	25.240151	0.000260	20.851103
1354.309316	-3.003000	3.545800	-10.647000	25.258967	0.000260	20.838701
1355.314586	-2.982100	3.545400	-10.571000	25.241420	0.000260	20.850480
1356.313586	-3.003400	3.544800	-10.646000	25.241395	0.000259	20.839076
1357.312377	-2.991800	3.544900	-10.606000	25.258470	0.000259	20.833934
1358.315367	-2.998200	3.544300	-10.625000	25.251311	0.000257	20.842868
1359.312978	-3.001900	3.543900	-10.638000	25.267766	0.000259	20.843267
1360.312349	-2.977100	3.544500	-10.551000	25.276516	0.000259	20.842095
1361.316057	-3.004000	3.542500	-10.641000	25.264783	0.000258	20.845013
1362.313601	-2.984200	3.542900	-10.572000	25.273010	0.000258	20.842843
1363.314763	-3.008400	3.542900	-10.657000	25.256780	0.000258	20.867324
1364.317492	-2.997800	3.542600	-10.619000	25.276888	0.000258	20.825874
1365.313957	-2.985900	3.541900	-10.575000	25.278776	0.000256	20.847209
1366.314981	-3.006600	3.541300	-10.646000	25.278503	0.000255	20.864004
1367.314479	-2.989900	3.541200	-10.587000	25.277856	0.000256	20.845812
1368.314212	-2.998600	3.541800	-10.620000	25.281212	0.000254	20.842543
1369.314771	-2.988000	3.540800	-10.578000	25.264186	0.000254	20.844414
1370.314178	-2.985700	3.540700	-10.570000	25.271717	0.000253	20.846760
1371.314745	-2.992900	3.541500	-10.599000	25.267864	0.000252	20.842892
1372.317628	-2.989700	3.540100	-10.583000	25.262844	0.000252	20.847334
1373.317716	-3.019700	3.539300	-10.686000	25.283003	0.000251	20.854771
1374.316157	-2.996800	3.540200	-10.608000	25.297543	0.000251	20.845663
1375.317666	-3.021800	3.538400	-10.690000	25.276190	0.000251	20.832760
1376.316242	-2.994500	3.539200	-10.597000	25.286779	0.000251	20.847658
1377.319081	-2.991000	3.537900	-10.581000	25.273283	0.000249	20.842643
1378.315812	-3.007300	3.538200	-10.640000	25.291254	0.000250	20.838401
1379.316203	-2.994000	3.537400	-10.590000	25.282406	0.000249	20.840896
1380.316924	-3.008400	3.537500	-10.642000	25.276662	0.000250	20.837974
1381.315949	-2.979600	3.537500	-10.540000	25.269108	0.000248	20.846511
1382.317904	-3.017500	3.535400	-10.668000	25.285238	0.000249	20.825249
1383.320638	-3.002000	3.535500	-10.612000	25.287325	0.000248	20.848206
1384.317225	-2.996700	3.534400	-10.590000	25.260233	0.000247	20.844239
1385.318400	-2.986000	3.537100	-10.561000	25.279172	0.000247	20.840021
1386.319844	-2.988200	3.535400	-10.564000	25.286406	0.000245	20.829266
1387.318281	-2.999000	3.535400	-10.602000	25.292246	0.000245	20.820431
1388.318209	-3.013300	3.535300	-10.652000	25.275494	0.000246	20.841069
1389.318390	-2.982000	3.535900	-10.543000	25.288045	0.000246	20.814791
1390.319366	-2.994000	3.533800	-10.578000	25.276090	0.000246	20.848305
1391.320457	-2.992100	3.532900	-10.571000	25.272859	0.000246	20.835104
1392.319920	-2.986300	3.534200	-10.554000	25.288169	0.000244	20.814915
1393.319922	-3.013200	3.532300	-10.643000	25.279718	0.000245	20.828715
1394.323177	-2.985000	3.533700	-10.547000	25.283222	0.000243	20.849776
1395.317760	-2.995700	3.532400	-10.581000	25.304946	0.000243	20.820854
1396.319948	-2.995200	3.533500	-10.582000	25.284762	0.000242	20.838047
1397.321577	-3.001600	3.531200	-10.598000	25.300894	0.000241	20.841915
1398.321054	-3.011100	3.532200	-10.634000	25.283544	0.000240	20.831608
1399.324705	-2.992400	3.532700	-10.570000	25.323387	0.000240	20.832731
1400.321835	-3.007200	3.531400	-10.619000	25.295225	0.000242	20.832905
1401.322817	-2.997300	3.530000	-10.579000	25.299798	0.000239	20.824695
1402.326821	-2.988500	3.531300	-10.553000	25.277777	0.000241	20.823922
1403.322452	-2.987800	3.531800	-10.551000	25.300420	0.000240	20.839543
1404.325091	-2.998500	3.529400	-10.581000	25.272954	0.000239	20.813389
1405.322384	-3.000500	3.529600	-10.589000	25.279814	0.000236	20.839243
1406.325977	-3.006000	3.529100	-10.608000	25.311379	0.000237	20.818779
1407.322770	-3.007400	3.529000	-10.613000	25.306035	0.000237	20.808197
1408.323632	-2.993400	3.528800	-10.562000	25.298504	0.000235	20.825766
1409.326731	-3.010800	3.528400	-10.623000	25.299101	0.000236	20.833951
1410.323890	-3.025400	3.526800	-10.669000	25.295745	0.000236	20.839591
1411.324951	-2.986200	3.527600	-10.533000	25.296564	0.000236	20.809594
1412.331230	-3.020600	3.527300	-10.654000	25.284137	0.000236	20.811341
1413.326963	-2.983100	3.528500	-10.525000	25.299895	0.000235	20.821946
1414.325026	-3.020000	3.525900	-10.647000	25.303821	0.000234	20.813561
1415.329528	-3.003800	3.526000	-10.589000	25.314335	0.000232	20.809419
1416.326087	-2.990500	3.527700	-10.548000	25.312669	0.000234	20.790202
1417.326622	-3.014700	3.525400	-10.627000	25.315527	0.000231	20.820573
1418.329385	-3.006900	3.524900	-10.598000	25.300142	0.000233	20.805125
1419.327448	-2.981100	3.527200	-10.513000	25.291392	0.000231	20.821470
1420.328478	-2.991100	3.525700	-10.545000	25.319231	0.000232	20.832351
1421.326873	-2.990300	3.525400	-10.541000	25.295419	0.000230	20.825039
1422.327201	-2.999100	3.524700	-10.569000	25.276578	0.000232	20.811812
1423.332771	-2.989700	3.524300	-10.535000	25.309114	0.000230	20.830729
1424.339292	-3.003900	3.523600	-10.584000	25.318782	0.000230	20.806297
1425.330531	-2.980900	3.523700	-10.503000	25.281176	0.000230	20.820222
1426.329646	-2.995100	3.523400	-10.551000	25.296313	0.000229	20.821195
1427.330846	-3.001500	3.522500	-10.571000	25.296189	0.000230	20.837666
1428.333650	-2.988300	3.523300	-10.528000	25.275061	0.000230	20.822143
1429.330314	-3.009100	3.521500	-10.595000	25.274416	0.000228	20.809641
1430.331461	-2.992500	3.521100	-10.535000	25.297780	0.000228	20.813660
1431.332925	-2.999400	3.522000	-10.563000	25.282295	0.000227	20.817552
1432.335397	-3.016600	3.520200	-10.618000	25.264299	0.000227	20.796639
1433.332026	-2.997300	3.521600	-10.554000	25.297804	0.000227	20.800882
1434.333589	-3.023500	3.520900	-10.644000	25.307051	0.000226	20.797838
1435.335127	-2.997900	3.521000	-10.554000	25.290870	0.000226	20.805773
1436.335117	-3.020100	3.520700	-10.631000	25.283138	0.000226	20.805597
1437.335470	-2.991500	3.520300	-10.529000	25.295791	0.000225	20.806920
1438.334101	-3.004500	3.518400	-10.571000	25.292112	0.000226	20.791373
1439.334385	-2.996600	3.520000	-10.547000	25.288210	0.000224	20.797887
1440.337354	-2.982700	3.519100	-10.496000	25.297307	0.000223	20.808917
1441.334910	-2.991800	3.518300	-10.525000	25.301606	0.000223	20.811811
1442.335739	-2.980200	3.517400	-10.482000	25.301308	0.000224	20.814831
1443.336646	-2.993900	3.518800	-10.533000	25.302301	0.000222	20.803974
1444.334871	-2.986300	3.517200	-10.502000	25.304564	0.000224	20.779219
1445.334882	-3.008400	3.517300	-10.580000	25.284058	0.000224	20.805098
1446.336836	-2.993200	3.518300	-10.530000	25.312691	0.000222	20.792595
1447.335731	-3.009300	3.517200	-10.584000	25.317114	0.000223	20.792295
1448.337317	-3.006100	3.516400	-10.569000	25.301506	0.000222	20.759553
1449.337557	-3.000400	3.517100	-10.552000	25.305756	0.000220	20.778994
1450.339382	-2.999600	3.515900	-10.545000	25.316145	0.000219	20.797011
1451.335216	-3.016100	3.515200	-10.601000	25.310827	0.000219	20.794042
1452.335609	-2.981800	3.514100	-10.478000	25.306849	0.000220	20.788626
1453.337008	-2.998400	3.515500	-10.540000	25.317287	0.000218	20.790098
1454.335229	-3.009000	3.514600	-10.574000	25.305879	0.000217	20.791445
1455.335583	-2.995700	3.514400	-10.527000	25.299343	0.000220	20.794840
1456.338601	-2.999200	3.514400	-10.539000	25.322357	0.000216	20.788550
1457.338190	-2.983800	3.514000	-10.485000	25.307072	0.000216	20.780316
1458.338218	-2.999000	3.514200	-10.538000	25.315994	0.000215	20.790222
1459.340555	-3.000300	3.512300	-10.536000	25.322133	0.000215	20.785954
1460.339729	-3.010500	3.511700	-10.571000	25.315970	0.000215	20.779292
1461.338935	-3.018400	3.513400	-10.604000	25.308264	0.000216	20.777718
1462.339853	-2.974400	3.511000	-10.442000	25.301454	0.000214	20.776097
1463.342710	-2.991500	3.511700	-10.504000	25.331603	0.000212	20.793092
1464.340165	-3.006700	3.511100	-10.555000	25.318852	0.000213	20.774125
1465.340817	-2.993500	3.511200	-10.510000	25.294793	0.000213	20.770357
1466.341045	-3.002000	3.509800	-10.535000	25.304336	0.000214	20.786103
1467.340838	-2.999300	3.510800	-10.528000	25.321113	0.000211	20.776869
1468.340435	-3.001600	3.510700	-10.537000	25.328495	0.000213	20.784756
1469.342962	-2.991200	3.510700	-10.500000	25.314255	0.000213	20.787527
1470.341182	-3.004900	3.510300	-10.547000	25.339134	0.000212	20.792118
1471.340589	-3.012500	3.508700	-10.569000	25.328322	0.000212	20.782685
1472.345188	-3.010400	3.508500	-10.561000	25.324892	0.000210	20.787776
1473.342766	-2.990200	3.508800	-10.491000	25.319895	0.000211	20.774698
1474.343594	-3.005600	3.509000	-10.546000	25.323550	0.000210	20.779790
1475.343272	-3.017600	3.508700	-10.587000	25.297078	0.000212	20.782135
1476.348238	-3.013400	3.507300	-10.567000	25.319945	0.000211	20.787077
1477.344520	-2.966000	3.508700	-10.405000	25.320369	0.000210	20.773277
1478.345529	-3.001300	3.508100	-10.528000	25.328296	0.000208	20.784556
1479.349405	-2.995800	3.506500	-10.504000	25.310402	0.000208	20.775124
1480.345466	-2.994800	3.505500	-10.497000	25.329538	0.000209	20.766362
1481.345317	-3.002700	3.505900	-10.526000	25.308587	0.000209	20.779465
1482.353442	-2.997100	3.506800	-10.508000	25.314229	0.000208	20.775647
1483.347266	-2.977600	3.506500	-10.440000	25.328296	0.000208	20.783133
1484.346888	-2.989200	3.505800	-10.479000	25.331875	0.000209	20.771079
1485.346383	-2.978700	3.506100	-10.443000	25.323126	0.000207	20.767037
1486.346578	-2.984900	3.504700	-10.461000	25.327649	0.000206	20.769207
1487.347740	-2.984800	3.504200	-10.458000	25.334808	0.000207	20.755532
1488.346911	-3.003100	3.505000	-10.526000	25.334683	0.000205	20.768209
1489.346880	-3.009200	3.503300	-10.541000	25.318851	0.000204	20.784556
1490.350626	-2.994800	3.503900	-10.493000	25.312214	0.000204	20.777891
1491.349505	-3.011800	3.502100	-10.546000	25.328245	0.000205	20.768383
1492.347949	-3.025000	3.501600	-10.591000	25.332445	0.000204	20.782558
1493.351307	-3.000000	3.503100	-10.508000	25.327101	0.000205	20.758225
1494.349259	-2.993700	3.501100	-10.480000	25.327549	0.000203	20.770055
1495.348991	-2.992400	3.502300	-10.479000	25.306223	0.000201	20.750065
1496.352405	-3.011700	3.500500	-10.542000	25.315966	0.000204	20.763640
1497.349466	-3.001200	3.500300	-10.503000	25.300182	0.000202	20.769604
1498.351408	-3.004000	3.499800	-10.513000	25.328343	0.000202	20.758998
1499.349490	-3.005000	3.500700	-10.519000	25.331003	0.000200	20.750289
1500.350528	-3.016300	3.499200	-10.554000	25.316487	0.000200	20.767957
1501.352382	-3.007200	3.499000	-10.521000	25.315667	0.000201	20.740580
1502.351380	-2.986800	3.499400	-10.450000	25.317854	0.000199	20.765536
1503.349802	-3.008900	3.499000	-10.527000	25.321111	0.000201	20.751262
1504.352186	-3.000400	3.499300	-10.498000	25.345593	0.000198	20.751662
1505.350897	-2.991400	3.498000	-10.462000	25.341292	0.000201	20.740705
1506.358009	-3.033200	3.497100	-10.606000	25.324938	0.000199	20.747044
1507.351289	-3.008800	3.497700	-10.523000	25.323571	0.000197	20.759423
1508.354028	-3.030600	3.497100	-10.597000	25.320737	0.000197	20.743300
1509.352805	-2.998600	3.497800	-10.487000	25.317208	0.000197	20.756353
1510.352979	-3.012600	3.496200	-10.532000	25.329312	0.000196	20.734366
1511.355144	-3.001800	3.495500	-10.491000	25.319024	0.000197	20.747270
1512.358166	-3.014700	3.495800	-10.538000	25.339130	0.000197	20.746595
1513.354154	-3.010100	3.496600	-10.524000	25.311243	0.000196	20.746096
1514.356793	-2.990700	3.496200	-10.455000	25.322105	0.000194	20.754631
1515.353670	-2.992200	3.496000	-10.460000	25.323397	0.000195	20.755454
1516.353596	-2.994200	3.494100	-10.462000	25.311243	0.000192	20.753683
1517.368601	-2.998700	3.493600	-10.475000	25.322328	0.000192	20.751062
1518.353926	-3.007200	3.493400	-10.504000	25.323918	0.000193	20.741752
1519.354858	-2.994200	3.494100	-10.461000	25.320042	0.000193	20.762991
1520.358268	-2.983100	3.493600	-10.420000	25.312635	0.000193	20.738010
1521.357602	-3.047900	3.493200	-10.645000	25.321781	0.000193	20.750513
1522.355182	-3.026600	3.492300	-10.568000	25.331399	0.000191	20.744048
1523.356246	-3.019200	3.491600	-10.541000	25.310571	0.000189	20.743050
1524.358330	-3.000800	3.493000	-10.481000	25.320041	0.000190	20.736910
1525.355876	-3.007700	3.492200	-10.502000	25.341540	0.000189	20.740006
1526.355877	-3.007200	3.491200	-10.498000	25.309826	0.000191	20.744198
1527.359020	-2.996200	3.491800	-10.460000	25.328689	0.000189	20.738482
1528.357100	-3.002100	3.491200	-10.480000	25.337239	0.000189	20.730471
1529.358747	-2.981900	3.491400	-10.410000	25.324389	0.000189	20.741751
1530.359253	-2.999200	3.489900	-10.465000	25.332617	0.000189	20.735787
1531.356889	-2.998400	3.490600	-10.465000	25.345292	0.000188	20.754205
1532.359494	-2.996000	3.489700	-10.454000	25.323197	0.000186	20.755253
1533.361328	-2.999400	3.489600	-10.466000	25.330452	0.000187	20.742149
1534.357189	-2.996900	3.488400	-10.453000	25.337810	0.000186	20.741950
1535.357365	-2.993700	3.488300	-10.442000	25.338730	0.000186	20.739554
1536.359324	-2.986400	3.488700	-10.418000	25.321828	0.000187	20.746292
1537.356876	-2.984600	3.488500	-10.411000	25.310271	0.000186	20.736584
1538.359509	-2.978400	3.489200	-10.391000	25.336443	0.000185	20.754803
1539.359237	-2.994800	3.488500	-10.447000	25.337659	0.000186	20.732790
1540.358699	-2.996200	3.489000	-10.452000	25.327121	0.000187	20.744020
1541.361223	-3.008000	3.489000	-10.493000	25.353988	0.000184	20.741125
1542.359176	-2.994100	3.486000	-10.437000	25.328960	0.000185	20.743970
1543.357869	-3.011600	3.486700	-10.499000	25.335473	0.000184	20.746242
1544.362642	-2.988100	3.487100	-10.419000	25.333907	0.000183	20.734237
1545.360598	-3.004500	3.485400	-10.471000	25.313575	0.000184	20.749386
1546.360705	-3.000000	3.485700	-10.457000	25.327568	0.000181	20.730718
1547.360149	-3.016300	3.485500	-10.512000	25.352174	0.000181	20.740251
1548.363142	-3.003700	3.484400	-10.464000	25.331818	0.000182	20.744943
1549.360894	-3.013600	3.484600	-10.501000	25.317428	0.000181	20.746142
1550.361542	-3.000900	3.484800	-10.456000	25.331396	0.000180	20.750209
1551.361259	-3.012700	3.484100	-10.496000	25.312607	0.000179	20.771174
1552.368590	-2.989500	3.483800	-10.413000	25.345017	0.000182	20.734487
1553.360705	-2.990200	3.484000	-10.417000	25.327021	0.000180	20.762413
1554.361401	-2.985800	3.482900	-10.398000	25.329234	0.000180	20.741400
1555.370530	-2.993400	3.483900	-10.427000	25.353567	0.000179	20.749237
1556.361698	-2.991000	3.481800	-10.413000	25.360700	0.000179	20.740752
1557.361842	-2.995900	3.481800	-10.431000	25.317230	0.000179	20.735511
1558.365814	-3.007300	3.480400	-10.465000	25.347478	0.000180	20.759244
1559.361161	-2.989300	3.482300	-10.408000	25.356971	0.000178	20.739378
1560.362833	-2.988500	3.481400	-10.403000	25.356798	0.000176	20.740627
1561.383509	-2.988800	3.481400	-10.404000	25.355133	0.000177	20.760767
1562.363045	-2.985000	3.480900	-10.389000	25.352896	0.000175	20.753780
1563.365042	-3.002500	3.481100	-10.452000	25.346931	0.000177	20.734987
1564.364205	-2.982900	3.480600	-10.382000	25.333908	0.000176	20.754154
1565.364784	-3.000000	3.479500	-10.437000	25.330999	0.000175	20.741276
1566.363492	-3.000800	3.479000	-10.439000	25.348572	0.000175	20.745644
1567.366584	-2.988200	3.479200	-10.396000	25.344992	0.000175	20.758171
1568.366062	-2.989200	3.479200	-10.399000	25.352325	0.000175	20.742299
1569.364127	-2.992400	3.477900	-10.406000	25.364180	0.000173	20.754204
1570.366375	-2.987000	3.478300	-10.390000	25.345489	0.000174	20.758196
1571.367761	-2.997700	3.478100	-10.426000	25.365869	0.000174	20.744520
1572.364985	-2.998900	3.477500	-10.428000	25.357742	0.000170	20.748688
1573.367447	-2.972300	3.476500	-10.332000	25.370914	0.000171	20.769027
1574.369304	-2.989300	3.476900	-10.392000	25.354859	0.000171	20.731567
1575.368260	-2.973100	3.477200	-10.337000	25.357667	0.000172	20.754777
1576.370774	-2.963600	3.477400	-10.305000	25.348272	0.000171	20.729694
1577.370109	-3.005900	3.475400	-10.445000	25.356424	0.000169	20.742148
1578.367220	-3.025900	3.475200	-10.514000	25.350856	0.000169	20.744618
1579.372294	-2.996700	3.474800	-10.413000	25.358411	0.000169	20.742247
1580.370048	-3.010800	3.473800	-10.458000	25.334651	0.000168	20.740675
1581.371053	-3.014100	3.473500	-10.469000	25.360351	0.000170	20.751782
1582.370817	-3.017800	3.474800	-10.485000	25.354980	0.000168	20.743069
1583.370262	-3.019500	3.473300	-10.487000	25.362289	0.000169	20.765582
1584.371727	-3.005000	3.473900	-10.438000	25.365719	0.000168	20.748162
1585.369347	-3.008900	3.472000	-10.446000	25.353764	0.000167	20.753702
1586.367797	-3.006300	3.473900	-10.443000	25.367010	0.000166	20.750407
1587.372415	-2.988900	3.474300	-10.382000	25.389006	0.000167	20.732664
1588.368300	-2.981400	3.473600	-10.356000	25.378792	0.000167	20.763660
1589.371521	-2.979600	3.472600	-10.345000	25.355155	0.000165	20.748460
1590.372938	-3.004600	3.472000	-10.431000	25.364873	0.000164	20.763909
1591.373336	-2.996300	3.472100	-10.403000	25.358684	0.000163	20.764333
1592.376526	-2.988400	3.472200	-10.376000	25.384954	0.000164	20.738079
1593.373453	-3.010400	3.471100	-10.449000	25.376280	0.000164	20.766354
1594.371165	-3.020600	3.469900	-10.480000	25.390173	0.000163	20.758019
1595.376525	-3.028000	3.469000	-10.503000	25.382021	0.000165	20.766903
1596.376876	-3.017500	3.470100	-10.470000	25.369495	0.000163	20.754324
1597.377526	-2.998700	3.470300	-10.406000	25.363655	0.000162	20.775488
1598.377966	-3.016000	3.468400	-10.460000	25.371905	0.000162	20.772393
1599.380926	-2.994800	3.468000	-10.385000	25.353364	0.000161	20.772268
1600.382223	-2.987700	3.468600	-10.362000	25.364275	0.000162	20.764731
1601.378325	-2.995800	3.467000	-10.384000	25.351327	0.000161	20.780180
1602.377729	-2.985900	3.468000	-10.354000	25.365095	0.000161	20.780254
1603.381325	-2.990100	3.468200	-10.370000	25.353514	0.000161	20.767202
1604.378231	-3.000900	3.467000	-10.403000	25.357963	0.000160	20.768825
1605.382756	-2.999300	3.466800	-10.397000	25.364797	0.000158	20.761462
1606.383305	-2.997000	3.466200	-10.387000	25.373969	0.000159	20.767352
1607.380630	-2.992000	3.467100	-10.373000	25.340564	0.000158	20.761312
1608.380683	-2.999200	3.465600	-10.393000	25.362312	0.000158	20.767975
1609.383678	-2.978900	3.467500	-10.328000	25.342155	0.000158	20.751055
1610.382184	-3.027900	3.464000	-10.488000	25.375359	0.000157	20.763533
1611.383689	-3.002900	3.464400	-10.403000	25.369122	0.000156	20.769124
1612.382203	-2.995600	3.466300	-10.383000	25.370812	0.000157	20.762285
1613.384564	-3.005400	3.464200	-10.410000	25.367704	0.000156	20.765804
1614.381470	-3.007200	3.464300	-10.417000	25.372551	0.000156	20.770670
1615.383496	-3.014600	3.463400	-10.440000	25.358484	0.000157	20.768874
1616.383263	-3.016100	3.462600	-10.443000	25.362760	0.000154	20.752778
1617.387417	-3.010200	3.464000	-10.426000	25.368773	0.000155	20.766877
1618.383197	-2.997600	3.462000	-10.376000	25.357042	0.000155	20.787815
1619.386852	-3.020500	3.460800	-10.453000	25.369172	0.000155	20.762535
1620.386262	-3.033300	3.460100	-10.495000	25.369171	0.000155	20.770121
1621.388006	-2.988500	3.462000	-10.345000	25.377125	0.000156	20.762935
1622.386765	-2.998100	3.461100	-10.375000	25.382543	0.000153	20.778807
1623.386353	-3.019300	3.460800	-10.447000	25.383264	0.000153	20.792807
1624.386453	-3.008000	3.460500	-10.408000	25.372428	0.000153	20.787142
1625.391057	-2.996100	3.459700	-10.364000	25.399716	0.000154	20.782774
1626.391221	-2.992100	3.460800	-10.354000	25.381923	0.000151	20.773916
1627.387259	-3.006600	3.460700	-10.403000	25.376429	0.000149	20.779306
1628.389317	-2.993700	3.459200	-10.355000	25.394821	0.000152	20.777385
1629.388487	-2.986800	3.459000	-10.331000	25.394647	0.000151	20.787642
1630.387809	-3.009300	3.459100	-10.408000	25.368303	0.000149	20.783949
1631.392058	-2.985300	3.457800	-10.322000	25.378195	0.000151	20.780605
1632.389652	-2.999700	3.458200	-10.372000	25.390596	0.000150	20.798273
1633.390900	-3.011900	3.457000	-10.411000	25.384782	0.000149	20.780581
1634.389925	-3.018300	3.457400	-10.435000	25.384782	0.000149	20.780107
1635.388909	-3.035200	3.455000	-10.485000	25.370565	0.000148	20.791909
1636.393129	-3.009000	3.457100	-10.402000	25.388286	0.000148	20.805910
1637.392541	-3.003200	3.456700	-10.380000	25.399022	0.000148	20.803888
1638.403124	-2.996500	3.457100	-10.358000	25.380407	0.000147	20.770024
1639.391526	-3.011300	3.454900	-10.403000	25.384609	0.000147	20.787993
1640.390267	-3.007500	3.454700	-10.389000	25.384409	0.000147	20.782577
1641.390566	-2.995500	3.456400	-10.352000	25.388187	0.000149	20.794906
1642.391496	-2.999000	3.454500	-10.359000	25.409958	0.000148	20.799697
1643.393179	-2.975800	3.455500	-10.282000	25.383689	0.000142	20.791812
1644.392058	-2.989300	3.454700	-10.326000	25.390399	0.000145	20.787643
1645.393713	-3.014900	3.454300	-10.413000	25.417961	0.000144	20.792086
1646.393188	-3.004700	3.452900	-10.374000	25.413811	0.000144	20.807359
1647.391967	-3.020300	3.454500	-10.433000	25.378545	0.000144	20.790439
1648.394351	-2.994700	3.453900	-10.342000	25.395073	0.000143	20.789492
1649.393077	-3.006300	3.453300	-10.381000	25.413638	0.000143	20.789168
1650.393083	-2.999600	3.452600	-10.355000	25.417116	0.000143	20.803091
1651.392958	-2.985100	3.452800	-10.306000	25.403422	0.000143	20.807359
1652.395401	-2.992900	3.452400	-10.332000	25.394725	0.000142	20.816644
1653.395175	-3.020900	3.451400	-10.426000	25.401162	0.000140	20.804615
1654.398493	-3.022500	3.450600	-10.428000	25.400217	0.000142	20.815994
1655.398301	-2.997700	3.450800	-10.343000	25.407550	0.000143	20.806287
1656.396072	-3.004700	3.449300	-10.363000	25.430165	0.000142	20.842746
1657.402149	-2.983900	3.450900	-10.296000	25.398877	0.000140	20.797105
1658.397006	-2.992300	3.450500	-10.324000	25.426487	0.000141	20.822933
1659.398510	-2.980500	3.449500	-10.279000	25.406432	0.000139	20.809907
1660.400867	-2.997400	3.449200	-10.338000	25.417965	0.000139	20.810582
1661.405929	-3.000600	3.449500	-10.349000	25.405389	0.000139	20.816446
1662.401252	-2.997400	3.448800	-10.336000	25.416846	0.000138	20.800450
1663.400884	-2.996700	3.448500	-10.334000	25.439437	0.000136	20.838306
1664.400247	-2.984400	3.448700	-10.292000	25.440456	0.000138	20.815148
1665.404152	-2.997100	3.448800	-10.335000	25.418562	0.000137	20.799802
1666.403078	-3.008400	3.446900	-10.368000	25.416897	0.000138	20.828950
1667.401964	-2.992200	3.446600	-10.312000	25.434890	0.000137	20.809560
1668.404295	-2.997800	3.446300	-10.330000	25.439787	0.000138	20.824433
1669.402450	-3.019200	3.445900	-10.403000	25.460837	0.000138	20.819019
1670.403299	-2.989800	3.446200	-10.303000	25.439912	0.000137	20.825982
1671.404811	-3.007100	3.445000	-10.358000	25.421298	0.000135	20.824359
1672.404013	-2.983400	3.444800	-10.277000	25.448287	0.000134	20.812581
1673.403480	-3.031900	3.444600	-10.443000	25.440682	0.000135	20.810160
1674.409346	-2.975800	3.445100	-10.251000	25.448611	0.000135	20.838984
1675.407752	-2.974400	3.445000	-10.246000	25.447368	0.000133	20.828253
1676.404958	-3.016500	3.443900	-10.387000	25.451369	0.000134	20.827529
1677.407201	-3.019700	3.443500	-10.398000	25.448835	0.000132	20.811709
1678.406698	-3.026700	3.441900	-10.417000	25.425325	0.000132	20.818447
1679.404853	-3.012200	3.443300	-10.370000	25.443169	0.000132	20.813605
1680.406544	-2.999800	3.443800	-10.330000	25.433924	0.000133	20.840357
1681.405363	-3.005100	3.442500	-10.344000	25.411681	0.000133	20.840307
1682.407862	-3.003700	3.442600	-10.340000	25.443915	0.000131	20.828579
1683.411416	-2.998700	3.441300	-10.319000	25.443120	0.000130	20.854806
1684.406003	-2.995600	3.440800	-10.306000	25.460269	0.000132	20.826509
1685.411510	-2.984500	3.441600	-10.270000	25.436012	0.000130	20.846721
1686.412303	-2.973600	3.442000	-10.234000	25.436213	0.000128	20.838862
1687.409295	-2.988100	3.440400	-10.279000	25.434198	0.000130	20.841581
1688.410912	-2.970900	3.440300	-10.220000	25.445630	0.000128	20.843103
1689.407821	-3.003200	3.439300	-10.328000	25.435789	0.000129	20.819945
1690.409045	-2.998900	3.439200	-10.313000	25.447595	0.000128	20.821369
1691.413989	-3.004900	3.438900	-10.333000	25.429502	0.000129	20.831176
1692.410021	-3.007500	3.437200	-10.336000	25.455050	0.000126	20.835019
1693.411438	-2.978200	3.439500	-10.242000	25.451919	0.000126	20.867435
1694.409536	-3.032100	3.437200	-10.421000	25.441879	0.000126	20.840759
1695.411427	-3.027100	3.436700	-10.401000	25.449683	0.000127	20.826310
1696.426135	-3.009500	3.436500	-10.342000	25.478584	0.000125	20.860547
1697.410096	-3.002400	3.436700	-10.317000	25.470955	0.000124	20.843877
1698.412598	-3.037200	3.435400	-10.432000	25.458927	0.000125	20.855981
1699.409759	-2.984200	3.436700	-10.254000	25.470458	0.000124	20.837214
1700.413358	-3.003700	3.435200	-10.317000	25.470311	0.000123	20.838963
1701.416862	-3.000000	3.435800	-10.306000	25.468072	0.000127	20.835767
1702.414721	-3.003200	3.435500	-10.316000	25.476894	0.000124	20.846048
1703.415196	-2.979100	3.435300	-10.233000	25.458281	0.000121	20.850116
1704.417119	-2.993300	3.436200	-10.285000	25.459872	0.000122	20.844602
1705.416555	-3.009000	3.433300	-10.330000	25.473987	0.000122	20.837914
1706.426797	-3.023300	3.434300	-10.382000	25.470260	0.000121	20.856929
1707.417259	-3.017400	3.433400	-10.359000	25.481293	0.000121	20.855681
1708.417045	-2.990400	3.433500	-10.267000	25.454950	0.000122	20.843926
1709.415617	-2.987800	3.433200	-10.256000	25.455248	0.000121	20.842330
1710.417653	-2.993400	3.432700	-10.275000	25.453633	0.000121	20.853509
1711.416700	-2.990900	3.432200	-10.265000	25.466456	0.000120	20.841731
1712.422229	-2.998500	3.431300	-10.287000	25.473290	0.000119	20.861868
1713.416768	-2.993300	3.432900	-10.274000	25.473241	0.000118	20.861345
1714.417624	-2.984500	3.430600	-10.238000	25.503035	0.000119	20.869453
1715.417520	-2.980500	3.431700	-10.227000	25.485739	0.000119	20.857301
1716.418190	-3.015900	3.429500	-10.342000	25.489069	0.000118	20.861119
1717.419501	-2.996000	3.429700	-10.275000	25.483304	0.000118	20.864812
1718.420681	-2.982300	3.430700	-10.230000	25.503085	0.000116	20.849116
1719.417284	-3.025200	3.429200	-10.373000	25.488821	0.000116	20.850439
1720.420308	-3.010500	3.428300	-10.320000	25.482135	0.000115	20.872647
1721.421333	-2.995400	3.430300	-10.274000	25.509223	0.000115	20.858124
1722.418432	-2.999000	3.429300	-10.283000	25.507856	0.000117	20.858174
1723.421972	-2.990600	3.427800	-10.250000	25.510241	0.000118	20.859146
1724.418462	-2.993400	3.427500	-10.259000	25.511037	0.000114	20.872747
1725.419343	-3.009000	3.426800	-10.310000	25.518765	0.000114	20.877662
1726.422432	-3.035500	3.426100	-10.399000	25.500176	0.000113	20.865634
1727.418303	-3.005000	3.426700	-10.296000	25.534146	0.000115	20.876988
1728.422217	-2.984000	3.426800	-10.225000	25.500126	0.000114	20.862739
1729.419960	-2.992300	3.426100	-10.251000	25.508102	0.000114	20.883075
1730.423108	-3.000400	3.425300	-10.277000	25.509196	0.000113	20.868054
1731.420111	-2.995800	3.424600	-10.259000	25.518316	0.000113	20.885746
1732.424305	-3.006800	3.425100	-10.298000	25.486879	0.000111	20.856548
1733.421194	-3.031200	3.425000	-10.381000	25.515085	0.000112	20.881553
1734.422071	-3.003300	3.425200	-10.286000	25.506660	0.000110	20.896799
1735.422008	-3.003100	3.424900	-10.284000	25.511604	0.000112	20.886592
1736.422121	-2.989000	3.424300	-10.233000	25.525271	0.000113	20.886566
1737.425467	-3.012900	3.422000	-10.310000	25.507579	0.000111	20.884447
1738.424368	-3.003600	3.421600	-10.275000	25.510411	0.000111	20.880653
1739.421678	-2.987300	3.423800	-10.227000	25.516873	0.000110	20.898520
1740.423182	-2.987100	3.422300	-10.221000	25.519133	0.000109	20.878980
1741.423014	-2.992900	3.423700	-10.246000	25.517443	0.000109	20.889137
1742.423106	-2.996300	3.421300	-10.250000	25.501563	0.000109	20.901163
1743.423965	-3.003400	3.421100	-10.274000	25.520225	0.000109	20.879129
1744.425714	-2.993100	3.421400	-10.239000	25.533222	0.000108	20.892654
1745.427243	-3.009000	3.419900	-10.289000	25.524623	0.000107	20.890183
1746.427897	-2.976800	3.420300	-10.181000	25.532501	0.000108	20.874862
1747.427035	-2.983900	3.420600	-10.204000	25.530116	0.000106	20.881949
1748.428211	-2.989300	3.421500	-10.227000	25.535805	0.000106	20.896670
1749.430341	-3.000300	3.419800	-10.259000	25.549472	0.000106	20.892852
1750.427242	-2.981700	3.419400	-10.194000	25.530412	0.000103	20.891729
1751.427998	-2.996800	3.419700	-10.247000	25.535358	0.000106	20.900014
1752.429610	-2.985000	3.419300	-10.206000	25.530562	0.000104	20.911792
1753.428306	-2.972700	3.419100	-10.163000	25.523703	0.000104	20.887836
1754.428461	-3.006500	3.416700	-10.271000	25.532971	0.000103	20.908048
1755.428428	-3.026300	3.417600	-10.342000	25.559263	0.000106	20.884193
1756.428438	-3.010500	3.416800	-10.285000	25.539011	0.000102	20.881399
1757.429413	-2.998500	3.416700	-10.244000	25.547111	0.000103	20.873412
1758.428293	-3.000500	3.416900	-10.252000	25.551857	0.000103	20.904255
1759.428611	-2.995200	3.417000	-10.233000	25.552056	0.000101	20.916782
1760.427286	-2.988700	3.417200	-10.212000	25.563287	0.000101	20.901509
1761.429368	-2.982000	3.417200	-10.189000	25.542562	0.000103	20.891129
1762.428927	-3.004500	3.414500	-10.258000	25.531951	0.000101	20.886163
1763.431460	-2.993800	3.415700	-10.225000	25.550241	0.000101	20.879875
1764.430031	-2.984900	3.415800	-10.195000	25.562889	0.000100	20.905377
1765.429550	-2.976100	3.416600	-10.167000	25.552850	9.817641E-5	20.912364
1766.432775	-2.999800	3.412600	-10.236000	25.573375	9.853935E-5	20.918751
1767.429533	-3.004400	3.413100	-10.253000	25.560652	9.850636E-5	20.917354
1768.428651	-2.990400	3.414400	-10.209000	25.568828	9.929824E-5	20.910392
1769.431722	-2.995400	3.413500	-10.224000	25.554489	9.830839E-5	20.910217
1770.429346	-3.009800	3.412800	-10.271000	25.571411	9.880331E-5	20.912987
1771.450067	-2.986800	3.411600	-10.190000	25.554464	9.758250E-5	20.903081
1772.433462	-2.994500	3.413100	-10.220000	25.569846	9.731854E-5	20.902406
1773.432489	-3.020300	3.411400	-10.302000	25.585923	9.718656E-5	20.921396
1774.433338	-3.018600	3.410000	-10.292000	25.574145	9.520687E-5	20.901034
1775.432472	-2.977700	3.409800	-10.152000	25.597701	9.497590E-5	20.912363
1776.432956	-3.003300	3.410100	-10.240000	25.573648	9.603174E-5	20.904802
1777.438293	-3.011000	3.411000	-10.270000	25.572554	9.520687E-5	20.897540
1778.431754	-2.992700	3.409800	-10.204000	25.573374	9.484392E-5	20.925862
1779.431807	-3.019200	3.409900	-10.295000	25.576083	9.431600E-5	20.920523
1780.438257	-3.010200	3.408400	-10.259000	25.568453	9.421702E-5	20.932299
1781.435118	-3.023200	3.409100	-10.305000	25.569373	9.428301E-5	20.902406
1782.433254	-2.996500	3.409500	-10.215000	25.588034	9.233631E-5	20.898863
1783.442328	-2.993300	3.408400	-10.201000	25.586369	9.151144E-5	20.901931
1784.435179	-3.008600	3.408900	-10.255000	25.565073	9.352413E-5	20.901881
1785.436543	-3.007700	3.407700	-10.248000	25.550935	9.118149E-5	20.883891
1786.436703	-3.010300	3.407000	-10.254000	25.574168	9.326017E-5	20.901058
1787.434581	-2.984400	3.407200	-10.168000	25.581674	9.038961E-5	20.896268
1788.439239	-2.997700	3.407100	-10.211000	25.594594	9.210534E-5	20.881270
1789.436006	-3.013300	3.405800	-10.262000	25.589798	9.167641E-5	20.889729
1790.436646	-3.042400	3.405900	-10.361000	25.594146	8.976270E-5	20.898362
1791.438073	-2.978100	3.406500	-10.143000	25.581624	9.055458E-5	20.872038
1792.435849	-2.993300	3.405600	-10.194000	25.602745	9.170940E-5	20.881395
1793.437890	-2.996000	3.405700	-10.202000	25.572852	9.038961E-5	20.886461
1794.435674	-2.991700	3.404100	-10.183000	25.568453	8.969671E-5	20.871613
1795.438539	-2.967900	3.405700	-10.107000	25.582095	8.982869E-5	20.890528
1796.439522	-2.999100	3.404600	-10.209000	25.556650	8.801397E-5	20.880621
1797.436793	-3.001300	3.403400	-10.214000	25.592780	8.715611E-5	20.869966
1798.440512	-2.980600	3.405100	-10.148000	25.580827	8.685915E-5	20.870764
1799.438946	-3.008700	3.403200	-10.239000	25.587214	8.732108E-5	20.870539
1800.437454	-3.006500	3.402900	-10.231000	25.576453	8.672717E-5	20.886759
1801.440107	-3.006500	3.402700	-10.229000	25.592307	8.636423E-5	20.877551
1802.438476	-3.001900	3.404000	-10.217000	25.593498	8.600128E-5	20.889178
1803.436018	-2.998400	3.402500	-10.201000	25.598494	8.735408E-5	20.876178
1804.438982	-3.001300	3.401600	-10.208000	25.581399	8.593529E-5	20.868967
1805.440104	-3.003200	3.401100	-10.213000	25.606296	8.662819E-5	20.874057
1806.438801	-3.005800	3.400800	-10.222000	25.569074	8.646321E-5	20.875555
1807.438780	-3.009000	3.400500	-10.231000	25.589300	8.474748E-5	20.869790
1808.442966	-3.009600	3.399400	-10.230000	25.605102	8.346067E-5	20.867168
1809.438683	-3.002200	3.399300	-10.204000	25.606421	8.557235E-5	20.853795
1810.443974	-3.007400	3.399400	-10.222000	25.582665	8.187692E-5	20.871187
1811.438574	-2.986200	3.400300	-10.153000	25.580354	8.276778E-5	20.864125
1812.438859	-2.995000	3.400100	-10.182000	25.596357	8.329570E-5	20.859334
1813.445673	-3.031600	3.397800	-10.300000	25.605600	8.365864E-5	20.883789
1814.439406	-3.024300	3.397200	-10.272000	25.601649	8.260281E-5	20.850425
1815.438859	-2.983500	3.399300	-10.140000	25.594741	8.197590E-5	20.862452
1816.442132	-3.014200	3.397400	-10.239000	25.581373	8.296575E-5	20.870837
1817.440179	-3.005000	3.397800	-10.210000	25.586194	8.148098E-5	20.845335
1818.441937	-2.982000	3.397000	-10.128000	25.609924	8.194291E-5	20.845460
1819.444256	-3.002600	3.396500	-10.197000	25.614098	7.953428E-5	20.866246
1820.439658	-2.988100	3.396000	-10.147000	25.620708	7.877540E-5	20.847755
1821.441525	-3.016000	3.394500	-10.237000	25.606768	7.804951E-5	20.872634
1822.439222	-2.987200	3.395600	-10.142000	25.610097	7.923732E-5	20.851797
1823.440702	-2.997300	3.396300	-10.178000	25.608830	7.781854E-5	20.864749
1824.443763	-2.981100	3.394800	-10.119000	25.607240	7.517895E-5	20.855091
1825.439312	-3.008800	3.395100	-10.214000	25.601599	7.610281E-5	20.864599
1826.441981	-3.003100	3.394500	-10.193000	25.597947	7.540991E-5	20.857138
1827.448688	-3.002200	3.394900	-10.191000	25.590318	7.448606E-5	20.859433
1828.443389	-2.990500	3.394700	-10.151000	25.596431	7.672971E-5	20.869839
1829.440566	-3.023100	3.393700	-10.259000	25.612260	7.603682E-5	20.853969
1830.448355	-3.006100	3.393900	-10.202000	25.608879	7.537692E-5	20.860531
1831.439681	-3.025700	3.392900	-10.265000	25.581273	7.484900E-5	20.852246
1832.443113	-2.998900	3.393000	-10.173000	25.610818	7.600382E-5	20.839246
1833.443684	-2.989000	3.391500	-10.136000	25.623588	7.643276E-5	20.849226
1834.444684	-3.001900	3.392100	-10.181000	25.606668	7.405712E-5	20.839819
1835.445163	-2.995000	3.392800	-10.160000	25.604083	7.207743E-5	20.850499
1836.445236	-2.999800	3.390700	-10.171000	25.624806	7.247337E-5	20.863250
1837.444044	-2.969300	3.391300	-10.069000	25.610046	7.174748E-5	20.835626
1838.443376	-2.986500	3.391700	-10.129000	25.618967	7.240738E-5	20.858808
1839.444000	-3.004800	3.389700	-10.185000	25.628881	7.197844E-5	20.855015
1840.450473	-3.000400	3.389200	-10.168000	25.623786	7.141753E-5	20.848002
1841.448161	-2.986800	3.390200	-10.124000	25.621476	6.874494E-5	20.851845
1842.445273	-3.011200	3.389000	-10.204000	25.620432	6.980078E-5	20.844159
1843.448996	-2.985000	3.389900	-10.118000	25.620233	7.128555E-5	20.839218
1844.447714	-3.007800	3.389200	-10.192000	25.609596	6.811804E-5	20.843708
1845.448329	-3.031600	3.386900	-10.266000	25.629748	6.782108E-5	20.825068
1846.444977	-3.006800	3.387500	-10.185000	25.624183	6.861296E-5	20.837021
1847.448865	-3.013300	3.387300	-10.206000	25.637750	6.805205E-5	20.850173
1848.448517	-3.001800	3.389200	-10.172000	25.633600	6.854697E-5	20.840789
1849.446645	-2.992700	3.387000	-10.136000	25.628804	6.838200E-5	20.853042
1850.454588	-3.011000	3.386900	-10.197000	25.637651	6.782108E-5	20.830633
1851.448255	-3.002300	3.387500	-10.168000	25.645949	6.610535E-5	20.829485
1852.449142	-2.998600	3.385600	-10.151000	25.636060	6.577540E-5	20.860803
1853.455910	-2.999100	3.387600	-10.159000	25.634868	6.594037E-5	20.824519
1854.451135	-2.985000	3.385500	-10.105000	25.626395	6.590738E-5	20.843036
1855.448791	-3.034300	3.385100	-10.270000	25.650323	6.465357E-5	20.830084
1856.448162	-3.022400	3.384300	-10.226000	25.627911	6.590738E-5	20.830334
1857.450809	-3.004600	3.383800	-10.166000	25.659318	6.379570E-5	20.822524
1858.449487	-3.008800	3.385000	-10.184000	25.642373	6.485154E-5	20.826841
1859.447003	-3.010500	3.384600	-10.188000	25.638621	6.557743E-5	20.834452
1860.447973	-3.006800	3.383000	-10.172000	25.669256	6.356474E-5	20.822074
1861.451598	-3.004300	3.382900	-10.163000	25.663095	6.273986E-5	20.819679
1862.449063	-3.017000	3.382600	-10.204000	25.657057	6.396068E-5	20.830684
1863.452791	-3.009400	3.382900	-10.179000	25.675767	6.155205E-5	20.851371
1864.449835	-3.013100	3.381400	-10.188000	25.663343	6.085915E-5	20.827514
1865.455328	-2.983600	3.382200	-10.091000	25.674201	5.960535E-5	20.844109
1866.451784	-2.981900	3.382500	-10.086000	25.681954	6.026524E-5	20.831034
1867.450426	-2.968700	3.383700	-10.044000	25.698551	6.132108E-5	20.834427
1868.450615	-2.984000	3.380900	-10.087000	25.668114	5.812057E-5	20.827564
1869.452333	-2.992400	3.381300	-10.118000	25.676736	5.795560E-5	20.831008
1870.452346	-2.991800	3.380500	-10.113000	25.690624	5.808758E-5	20.813190
1871.451642	-2.985200	3.380700	-10.091000	25.679643	5.841753E-5	20.814488
1872.456511	-2.987500	3.381100	-10.100000	25.678972	5.666880E-5	20.808599
1873.452806	-2.997100	3.379600	-10.127000	25.681977	5.831854E-5	20.819204
1874.452258	-2.998500	3.379300	-10.132000	25.696836	5.854951E-5	20.811368
1875.455006	-3.012300	3.378700	-10.176000	25.663466	5.686677E-5	20.809621
1876.453070	-3.008700	3.377500	-10.161000	25.704463	5.554697E-5	20.817132
1877.458853	-2.975300	3.378900	-10.052000	25.692263	5.515103E-5	20.819104
1878.458301	-3.002500	3.378900	-10.144000	25.698971	5.482108E-5	20.832479
1879.456933	-3.002400	3.377900	-10.141000	25.709455	5.693276E-5	20.824517
1880.454485	-3.016000	3.376500	-10.183000	25.718499	5.475509E-5	20.835972
1881.455134	-3.009300	3.376900	-10.161000	25.696312	5.379824E-5	20.824592
1882.455336	-3.028100	3.376100	-10.222000	25.706375	5.393022E-5	20.818104
1883.458414	-2.995300	3.377400	-10.115000	25.674769	5.211550E-5	20.826663
1884.456689	-2.997700	3.377200	-10.123000	25.707045	5.294037E-5	20.824467
1885.459136	-2.995800	3.376300	-10.114000	25.732362	5.244545E-5	20.820973
1886.466043	-2.997600	3.374900	-10.115000	25.716859	5.059773E-5	20.812040
1887.457879	-3.024800	3.374400	-10.205000	25.722323	5.218149E-5	20.831278
1888.462317	-3.003500	3.374800	-10.135000	25.711739	5.168656E-5	20.811164
1889.459745	-3.023800	3.374600	-10.203000	25.717031	5.379824E-5	20.821695
1890.460653	-2.974000	3.375300	-10.037000	25.716062	5.152159E-5	20.810291
1891.473663	-2.988600	3.373300	-10.080000	25.706445	5.033377E-5	20.802528
1892.461286	-3.006700	3.374100	-10.144000	25.713577	5.046575E-5	20.815381
1893.464601	-3.008400	3.373200	-10.147000	25.719688	4.851905E-5	20.824838
1894.464301	-3.000800	3.372600	-10.119000	25.697824	4.970687E-5	20.804774
1895.465552	-3.001200	3.372700	-10.122000	25.706271	4.858504E-5	20.808991
1896.470510	-3.025000	3.372700	-10.201000	25.722818	4.848605E-5	20.832724
1897.463445	-3.019200	3.372700	-10.181000	25.706543	4.762819E-5	20.816851
1898.469649	-2.997400	3.372100	-10.106000	25.728482	4.660534E-5	20.831300
1899.461824	-3.008800	3.370100	-10.139000	25.716632	4.663834E-5	20.796639
1900.471114	-3.036300	3.370000	-10.231000	25.714096	4.686930E-5	20.815428
1901.464399	-2.995600	3.371700	-10.100000	25.715760	4.465864E-5	20.801927
1902.465958	-2.992100	3.371000	-10.086000	25.725599	4.419671E-5	20.837887
1903.468162	-2.988700	3.370100	-10.071000	25.732331	4.426270E-5	20.821890
1904.464644	-2.990300	3.370200	-10.077000	25.723487	4.366880E-5	20.791670
1905.468025	-2.993600	3.369700	-10.087000	25.717772	4.403174E-5	20.814853
1906.466018	-3.016800	3.369200	-10.163000	25.712380	4.218402E-5	20.826033
1907.466340	-3.017000	3.368100	-10.160000	25.741972	4.198605E-5	20.826832
1908.469350	-2.988300	3.369900	-10.069000	25.723984	4.462565E-5	20.805445
1909.466172	-3.003500	3.366800	-10.110000	25.738915	4.350382E-5	20.802900
1910.467832	-3.001500	3.367600	-10.107000	25.731784	4.323986E-5	20.812333
1911.470948	-2.994900	3.367800	-10.085000	25.732803	4.267895E-5	20.813356
1912.467719	-2.998000	3.367500	-10.094000	25.726493	4.079824E-5	20.805121
1913.466300	-2.993500	3.367400	-10.080000	25.749673	4.201905E-5	20.799955
1914.468477	-3.018700	3.365900	-10.160000	25.724406	4.129316E-5	20.798757
1915.470264	-2.999500	3.368000	-10.102000	25.738469	4.192006E-5	20.813357
1916.474024	-2.979000	3.366400	-10.028000	25.737400	3.931346E-5	20.802326
1917.468314	-2.976400	3.366000	-10.017000	25.748679	3.888453E-5	20.824086
1918.468732	-2.990400	3.367200	-10.068000	25.735090	3.862057E-5	20.802376
1919.468864	-2.997500	3.365000	-10.086000	25.735487	4.069925E-5	20.783809
1920.468293	-2.996800	3.366300	-10.087000	25.745647	3.921448E-5	20.795437
1921.469717	-2.981800	3.364100	-10.031000	25.738840	3.855458E-5	20.811833
1922.468661	-2.990900	3.364400	-10.062000	25.752406	3.753174E-5	20.806968
1923.468177	-3.023600	3.362100	-10.164000	25.750766	3.706981E-5	20.796311
1924.469078	-3.018000	3.362600	-10.148000	25.740506	3.736676E-5	20.804971
1925.467501	-3.006800	3.364500	-10.115000	25.744604	3.805966E-5	20.783483
1926.469554	-2.994700	3.363300	-10.071000	25.747313	3.617895E-5	20.796161
1927.472491	-3.021300	3.362200	-10.157000	25.751983	3.634392E-5	20.798008
1928.470393	-2.996000	3.363400	-10.076000	25.725324	3.644291E-5	20.788300
1929.470250	-3.019200	3.362300	-10.150000	25.746864	3.640991E-5	20.778642
1930.473700	-2.988600	3.361700	-10.044000	25.725498	3.555204E-5	20.787052
1931.474295	-3.007700	3.361100	-10.109000	25.749002	3.518910E-5	20.788849
1932.477239	-3.011400	3.360200	-10.117000	25.767262	3.390230E-5	20.793915
1933.473169	-3.016200	3.360600	-10.136000	25.749994	3.324240E-5	20.793165
1934.471744	-3.003700	3.361200	-10.095000	25.757572	3.307742E-5	20.799829
1935.473086	-3.025300	3.359900	-10.163000	25.764703	3.261549E-5	20.809836
1936.473594	-2.998500	3.360500	-10.076000	25.771212	3.198859E-5	20.789347
1937.472960	-3.003400	3.359300	-10.089000	25.774664	3.215356E-5	20.796134
1938.473529	-3.003100	3.359900	-10.089000	25.754044	3.231854E-5	20.808138
1939.471894	-2.995600	3.359400	-10.062000	25.768975	3.264849E-5	20.807015
1940.474582	-2.992600	3.360300	-10.055000	25.773596	2.911803E-5	20.785578
1941.472867	-2.978000	3.359100	-10.002000	25.770143	3.020686E-5	20.800602
1942.471687	-2.977600	3.358200	-9.998100	25.773720	3.119671E-5	20.781436
1943.475160	-2.984700	3.358400	-10.023000	25.779707	3.023986E-5	20.812580
1944.474803	-3.003400	3.357000	-10.081000	25.788402	3.182361E-5	20.785278
1945.473543	-2.997200	3.357500	-10.062000	25.774937	2.842514E-5	20.783132
1946.476572	-2.997700	3.356300	-10.060000	25.778837	2.634646E-5	20.784679
1947.477020	-2.986900	3.356500	-10.025000	25.775955	2.885407E-5	20.769455
1948.477340	-3.003000	3.356300	-10.078000	25.794067	2.832615E-5	20.790968
1949.477918	-3.003000	3.356600	-10.079000	25.782191	2.631346E-5	20.788996
1950.477235	-2.998500	3.355600	-10.060000	25.800700	2.430077E-5	20.775345
1951.481019	-3.009500	3.355300	-10.095000	25.805644	2.502666E-5	20.783157
1952.478593	-3.011500	3.355800	-10.105000	25.785198	2.515864E-5	20.794387
1953.479106	-2.986400	3.355900	-10.021000	25.803284	2.463072E-5	20.782209
1954.477709	-2.999300	3.354300	-10.060000	25.796576	2.403681E-5	20.784480
1955.479655	-2.997800	3.352800	-10.050000	25.778341	2.179316E-5	20.764740
1956.476531	-2.993400	3.354800	-10.041000	25.795434	2.383884E-5	20.771478
1957.480927	-2.973800	3.354100	-9.972900	25.798961	2.222209E-5	20.794462
1958.478693	-3.024900	3.351800	-10.138000	25.800676	2.179316E-5	20.808986
1959.482577	-2.996500	3.352200	-10.044000	25.795957	2.344290E-5	20.787176
1960.480814	-3.004600	3.353300	-10.074000	25.781446	2.307996E-5	20.775446
1961.481827	-2.999700	3.351700	-10.053000	25.815433	2.133123E-5	20.797732
1962.486542	-2.992100	3.352800	-10.030000	25.815160	2.307996E-5	20.787026
1963.485581	-2.952200	3.352200	-9.895700	25.802515	1.938453E-5	20.770531
1964.480061	-3.008000	3.349900	-10.076000	25.824403	1.908757E-5	20.775922
1965.483659	-2.993100	3.349200	-10.024000	25.814664	1.981346E-5	20.777993
1966.480929	-3.008900	3.349300	-10.077000	25.813149	1.816371E-5	20.801127
1967.480291	-2.986400	3.351700	-10.008000	25.830688	1.756980E-5	20.770856
1968.485591	-3.003000	3.350500	-10.061000	25.832452	1.753681E-5	20.767886
1969.481490	-2.990800	3.350600	-10.020000	25.817174	1.750381E-5	20.792368
1970.481920	-2.994300	3.350500	-10.032000	25.817249	1.723985E-5	20.763519
1971.485404	-2.998900	3.347600	-10.038000	25.832552	1.526016E-5	20.774151
1972.482075	-2.998500	3.349100	-10.042000	25.822964	1.730584E-5	20.763570
1973.481650	-2.997800	3.346300	-10.030000	25.811487	1.687691E-5	20.763421
1974.483720	-2.964800	3.348700	-9.927700	25.828975	1.516117E-5	20.762497
1975.482472	-2.980100	3.347800	-9.975800	25.830665	1.347843E-5	20.762298
1976.484739	-2.990800	3.347000	-10.009000	25.837100	1.443528E-5	20.774452
1977.484384	-3.004000	3.346700	-10.054000	25.851607	1.288452E-5	20.788551
1978.482831	-2.995500	3.345600	-10.021000	25.834616	1.341244E-5	20.761525
1979.483134	-2.993700	3.346600	-10.018000	25.827511	1.314848E-5	20.787104
1980.484053	-2.987400	3.345200	-9.992800	25.847336	1.215863E-5	20.775251
1981.487192	-2.980000	3.345000	-9.966300	25.831138	1.374239E-5	20.751867
1982.487167	-3.004900	3.343800	-10.046000	25.837771	1.103681E-5	20.757582
1983.485326	-3.004600	3.344400	-10.047000	25.845772	1.110280E-5	20.761826
1984.487624	-3.006000	3.344800	-10.054000	25.844281	1.130077E-5	20.765070
1985.485598	-2.996200	3.345300	-10.021000	25.843063	1.143275E-5	20.785658
1986.485307	-3.002100	3.343800	-10.037000	25.836506	1.238960E-5	20.780967
1987.489791	-3.006600	3.341700	-10.046000	25.840008	1.031092E-5	20.772157
1988.497863	-2.997100	3.342500	-10.017000	25.847982	9.321070E-6	20.779694
1989.485868	-2.991500	3.342800	-9.997900	25.856604	1.192767E-5	20.769863
1990.488930	-2.973100	3.342600	-9.936600	25.865398	9.980969E-6	20.777274
1991.502592	-2.972100	3.342400	-9.932600	25.860380	8.562186E-6	20.761802
1992.492229	-2.982000	3.342100	-9.965300	25.850815	8.892136E-6	20.782066
1993.487370	-3.001900	3.341700	-10.030000	25.886538	7.902288E-6	20.762001
1994.486189	-3.013000	3.340900	-10.066000	25.860976	5.592642E-6	20.792747
1995.489311	-2.985500	3.339700	-9.970100	25.872181	5.097718E-6	20.773657
1996.488752	-2.993500	3.340200	-9.997800	25.866990	3.184012E-6	20.775080
1997.489803	-3.010800	3.339800	-10.054000	25.866194	3.513961E-6	20.757685
1998.490093	-3.004500	3.339400	-10.032000	25.857401	6.285536E-6	20.761180
1999.487497	-2.980600	3.340400	-9.954800	25.858371	5.262693E-6	20.770215
2000.491919	-3.010000	3.338400	-10.046000	25.877747	3.348986E-6	20.773085
2001.488289	-2.993600	3.338700	-9.993100	25.868208	3.942895E-6	20.748802
2002.487256	-2.989000	3.338900	-9.978800	25.870295	1.633249E-6	20.765124
2003.493257	-2.997200	3.337300	-10.001000	25.884803	4.140865E-6	20.761681
2004.488761	-2.975600	3.340000	-9.937200	25.872284	3.118022E-6	20.781347
2005.495790	-2.984700	3.337700	-9.960400	25.868061	2.623098E-6	20.758138
2006.487933	-2.962000	3.339000	-9.888500	25.905050	6.434013E-7	20.759261
2007.492394	-2.984600	3.338000	-9.961800	25.882295	2.359138E-6	20.741142
2008.491252	-3.002300	3.335600	-10.014000	25.882792	2.326143E-6	20.754444
2009.489667	-2.996000	3.336300	-9.994900	25.906641	9.073608E-7	20.757066
2010.493270	-2.978400	3.336800	-9.936600	25.899412	8.413709E-7	20.758813
2011.488468	-2.974400	3.335900	-9.921200	25.879863	5.114215E-7	20.739647
2012.490623	-3.002200	3.336100	-10.015000	25.878696	-1.963199E-6	20.762183
2013.494578	-2.989500	3.335500	-9.970200	25.892309	-2.524113E-6	20.747409
2014.491779	-2.966000	3.335100	-9.889600	25.896557	-9.073608E-7	20.763531
2015.496032	-2.984900	3.334800	-9.952800	25.884161	-1.369290E-6	20.765777
2016.491573	-2.976600	3.334600	-9.924700	25.889528	1.138325E-6	20.730864
2017.500893	-3.011900	3.333300	-10.038000	25.887987	-1.369290E-6	20.743541
2018.490604	-2.981700	3.333200	-9.937000	25.910097	3.794418E-7	20.733036
2019.495581	-2.979700	3.333000	-9.930400	25.883667	-3.151017E-6	20.765280
2020.495866	-3.023300	3.332000	-10.073000	25.890746	-3.678936E-6	20.765280
2021.494468	-2.996000	3.333600	-9.986400	25.895342	-4.041880E-6	20.731963
2022.496014	-2.994900	3.332100	-9.977600	25.915888	-5.097718E-6	20.734112
2023.497866	-2.988900	3.332300	-9.959300	25.921154	-3.942895E-6	20.749834
2024.493778	-2.973400	3.331000	-9.903400	25.922969	-5.394673E-6	20.768254
2025.494010	-2.976700	3.330900	-9.913400	25.920410	-4.899748E-6	20.738181
2026.497635	-2.989900	3.329600	-9.954400	25.914673	-6.615485E-6	20.748064
2027.494111	-2.981000	3.331300	-9.929700	25.959932	-5.493657E-6	20.757024
2028.496565	-2.998700	3.330100	-9.985300	25.918523	-6.714470E-6	20.749088
2029.494575	-3.001300	3.330400	-9.993800	25.947140	-9.684015E-6	20.748914
2030.496995	-3.008000	3.329400	-10.014000	25.934795	-8.595182E-6	20.753107
2031.497981	-2.979900	3.329500	-9.920900	25.941577	-7.704318E-6	20.754705
2032.499985	-2.970800	3.329900	-9.891400	25.935937	-8.760156E-6	20.747142
2033.499125	-3.003100	3.327600	-9.992200	25.941080	-8.100258E-6	20.740455
2034.506921	-3.001500	3.328300	-9.989400	25.942223	-9.024116E-6	20.748242
2035.499534	-3.002400	3.327800	-9.990100	25.945975	-9.815995E-6	20.745373
2036.501503	-3.004100	3.328200	-9.997300	25.961947	-9.288075E-6	20.741979
2037.500211	-2.995700	3.327600	-9.967400	25.956136	-1.100381E-5	20.755106
2038.498440	-3.000400	3.325600	-9.976300	25.955142	-1.024493E-5	20.759324
2039.501824	-3.013500	3.326700	-10.023000	25.967860	-1.116879E-5	20.751712
2040.500880	-2.992800	3.326800	-9.955500	25.969922	-1.377539E-5	20.731498
2041.502350	-2.999600	3.325600	-9.974700	25.955838	-1.169671E-5	20.763342
2042.505752	-2.999700	3.326000	-9.975900	25.956336	-1.262056E-5	20.744402
2043.503498	-3.011900	3.324800	-10.013000	25.979336	-1.166371E-5	20.740008
2044.502623	-3.014200	3.323700	-10.018000	25.972258	-1.542513E-5	20.773675
2045.508157	-3.011500	3.323800	-10.009000	25.962968	-1.354442E-5	20.765290
2046.503149	-2.992200	3.326300	-9.952100	25.967588	-1.549112E-5	20.738162
2047.504719	-2.988900	3.324400	-9.935700	25.971638	-1.585407E-5	20.750292
2048.504277	-3.004400	3.323600	-9.984600	25.957354	-1.545813E-5	20.766289
2049.505922	-3.010000	3.323900	-10.003000	25.961131	-1.460026E-5	20.735468
2050.504037	-3.014200	3.322800	-10.015000	25.976533	-1.608503E-5	20.740985
2051.505034	-3.004400	3.321600	-9.978300	25.963589	-1.766879E-5	20.742680
2052.506069	-3.015100	3.321800	-10.015000	25.966944	-1.819671E-5	20.761698
2053.505281	-3.020100	3.321300	-10.030000	25.970695	-1.717387E-5	20.753138
2054.505771	-3.027500	3.320700	-10.052000	25.988928	-1.773478E-5	20.739213
2055.507240	-3.011200	3.320900	-9.999200	25.989847	-1.951651E-5	20.757681
2056.506529	-3.010100	3.321300	-9.996900	26.004477	-1.945052E-5	20.775699
2057.508288	-2.993600	3.321400	-9.942600	25.971615	-2.077032E-5	20.752640
2058.507701	-2.993500	3.322000	-9.943600	25.992133	-2.110026E-5	20.746701
2059.510427	-2.990200	3.320300	-9.927800	26.006813	-1.994544E-5	20.764295
2060.508681	-2.970000	3.319900	-9.858600	25.993524	-2.050636E-5	20.752366
2061.510605	-2.988800	3.319600	-9.920300	25.983862	-1.978047E-5	20.770160
2062.510382	-2.990800	3.318600	-9.924000	25.989701	-2.169417E-5	20.765595
2063.509058	-2.995200	3.318200	-9.937700	26.002914	-2.156219E-5	20.745679
2064.513204	-2.998700	3.317900	-9.948800	25.994992	-2.030839E-5	20.760005
2065.511606	-2.980800	3.318200	-9.890100	25.995415	-2.449874E-5	20.735773
2066.509980	-2.994800	3.318300	-9.937100	25.995960	-2.377286E-5	20.754340
2067.515424	-3.004200	3.316900	-9.963200	26.025271	-2.512565E-5	20.754865
2068.510438	-2.988900	3.317600	-9.914200	26.009450	-2.397082E-5	20.765522
2069.510986	-2.995000	3.315200	-9.927700	25.992112	-2.364088E-5	20.741464
2070.520037	-2.994200	3.316700	-9.930200	26.014567	-2.608250E-5	20.758336
2071.514763	-3.024900	3.315100	-10.027000	26.015237	-2.604951E-5	20.769915
2072.510756	-2.990800	3.315500	-9.915100	26.022120	-2.779824E-5	20.763078
2073.511752	-3.005900	3.314600	-9.962100	26.018046	-2.697336E-5	20.768469
2074.515931	-2.981900	3.315200	-9.884900	26.039184	-2.855712E-5	20.767421
2075.516685	-3.003300	3.314100	-9.953000	26.025449	-2.746829E-5	20.766424
2076.511826	-2.984200	3.314500	-9.889900	26.037794	-2.703935E-5	20.743739
2077.515275	-2.998700	3.314600	-9.938400	26.050139	-2.746829E-5	20.751875
2078.511475	-2.983000	3.314300	-9.885400	26.042265	-2.845814E-5	20.760086
2079.512353	-2.998900	3.312100	-9.931000	26.050364	-2.835915E-5	20.754946
2080.516457	-2.992400	3.313800	-9.915400	26.071700	-2.892007E-5	20.754572
2081.514021	-2.950400	3.314700	-9.778300	26.057095	-3.089976E-5	20.757442
2082.514660	-2.994200	3.313500	-9.920600	26.054487	-3.264850E-5	20.743441
2083.514929	-2.993500	3.311400	-9.911600	26.067502	-3.212058E-5	20.759364
2084.514707	-3.005200	3.311400	-9.949900	26.052452	-3.205459E-5	20.768898
2085.516429	-2.976100	3.312500	-9.857700	26.067801	-3.443022E-5	20.755871
2086.514841	-3.011300	3.311000	-9.969300	26.084243	-3.410027E-5	20.773814
2087.516375	-2.993400	3.311100	-9.910500	26.082182	-3.429824E-5	20.765579
2088.517456	-3.010200	3.310400	-9.963800	26.073017	-3.314342E-5	20.773440
2089.517901	-2.990800	3.311600	-9.903700	26.056227	-3.413327E-5	20.787865
2090.519504	-3.002600	3.308400	-9.933500	26.057345	-3.568403E-5	20.775237
2091.518276	-2.994800	3.310400	-9.912400	26.085162	-3.565104E-5	20.754822
2092.518213	-3.004000	3.309300	-9.940100	26.067727	-3.525510E-5	20.784246
2093.522776	-3.026100	3.308500	-10.010000	26.082555	-3.650890E-5	20.772591
2094.521745	-2.995100	3.309400	-9.910800	26.100859	-3.670687E-5	20.784345
2095.519457	-3.011500	3.308000	-9.961100	26.116953	-3.687185E-5	20.780602
2096.522401	-3.011100	3.307100	-9.956900	26.094427	-3.832363E-5	20.760812
2097.521224	-3.014400	3.307500	-9.968500	26.086429	-3.667388E-5	20.784546
2098.520537	-3.001400	3.306600	-9.923700	26.092390	-3.878556E-5	20.770146
2099.524182	-3.011300	3.305100	-9.951700	26.090528	-3.977540E-5	20.785819
2100.520429	-2.991300	3.306600	-9.890000	26.102599	-3.908251E-5	20.769023
2101.521208	-3.008500	3.306200	-9.946100	26.102549	-3.901652E-5	20.762335
2102.524808	-3.004000	3.305300	-9.927900	26.106349	-3.970941E-5	20.768998
2103.523132	-2.992400	3.306100	-9.892600	26.102101	-3.868657E-5	20.796498
2104.521021	-3.026400	3.304400	-9.998300	26.122864	-4.215104E-5	20.790808
2105.521749	-2.996700	3.305000	-9.902900	26.097581	-3.967642E-5	20.773939
2106.527306	-3.000800	3.303900	-9.913600	26.093631	-4.079825E-5	20.776609
2107.526328	-2.992700	3.304400	-9.888400	26.114147	-4.208505E-5	20.792481
2108.523880	-3.015100	3.303300	-9.958700	26.130886	-4.257997E-5	20.791757
2109.523599	-2.994100	3.303900	-9.890500	26.110520	-4.383378E-5	20.771293
2110.523243	-3.008800	3.302200	-9.934600	26.130364	-4.660536E-5	20.790284
2111.525962	-2.979400	3.303800	-9.842100	26.125844	-4.495561E-5	20.782424
2112.524498	-3.000200	3.301900	-9.905900	26.133418	-4.521957E-5	20.780551
2113.529069	-3.010700	3.302100	-9.940900	26.135455	-4.686932E-5	20.790658
2114.524708	-2.976400	3.302700	-9.829000	26.137740	-4.815612E-5	20.797221
2115.525115	-2.975700	3.301600	-9.822500	26.121547	-4.795815E-5	20.801339
2116.528214	-2.976600	3.302000	-9.827800	26.131258	-4.700130E-5	20.795924
2117.526427	-2.984800	3.302300	-9.855500	26.129693	-4.921196E-5	20.787713
2118.528376	-2.986000	3.300500	-9.854100	26.140099	-4.769419E-5	20.786316
2119.533963	-2.990700	3.299700	-9.867400	26.145192	-4.960790E-5	20.793329
2120.530253	-3.014100	3.298900	-9.942400	26.151027	-5.013582E-5	20.771692
2121.532600	-2.996500	3.299200	-9.885300	26.165804	-4.894800E-5	20.782272
2122.530944	-3.019900	3.297100	-9.956500	26.156740	-5.099369E-5	20.773164
2123.530871	-3.013400	3.297400	-9.935400	26.156268	-5.142262E-5	20.783596
2124.535601	-3.000700	3.297400	-9.893000	26.158104	-5.059775E-5	20.775484
2125.531908	-2.999300	3.298600	-9.892600	26.175638	-5.158760E-5	20.802112
2126.532709	-3.003200	3.297500	-9.901800	26.157533	-5.228049E-5	20.777281
2127.535711	-3.004400	3.296000	-9.901900	26.162350	-5.327034E-5	20.784492
2128.536652	-3.000300	3.296800	-9.890500	26.163071	-5.221450E-5	20.805605
2129.534434	-2.986700	3.297200	-9.846300	26.193418	-5.426019E-5	20.802909
2130.536647	-2.989600	3.296700	-9.855100	26.200745	-5.373227E-5	20.787512
2131.535684	-2.965400	3.296600	-9.773800	26.190637	-5.617389E-5	20.791105
2132.533307	-2.999500	3.295700	-9.884100	26.194734	-5.640486E-5	20.794748
2133.537061	-3.003400	3.294400	-9.893100	26.175313	-5.696577E-5	20.784242
2134.534547	-3.023200	3.294100	-9.957900	26.198732	-5.746070E-5	20.797817
2135.536533	-3.018400	3.293900	-9.940300	26.184477	-5.746070E-5	20.798665
2136.535767	-2.981100	3.295100	-9.821200	26.207747	-5.551399E-5	20.786488
2137.534775	-3.010300	3.292800	-9.911000	26.205908	-5.739471E-5	20.805977
2138.537302	-3.013900	3.292700	-9.923100	26.200719	-5.703176E-5	20.807874
2139.537184	-3.022400	3.292000	-9.949000	26.205239	-5.861552E-5	20.785390
2140.536113	-3.012500	3.292700	-9.918700	26.219666	-5.914344E-5	20.800362
2141.538606	-2.988200	3.294000	-9.842100	26.223168	-5.864851E-5	20.788234
2142.537395	-2.989000	3.291200	-9.836400	26.226000	-5.868151E-5	20.820002
2143.539244	-3.004700	3.290100	-9.885200	26.225429	-5.937440E-5	20.794773
2144.539457	-2.999800	3.290300	-9.869100	26.242763	-5.924242E-5	20.792277
2145.538468	-2.996200	3.291400	-9.860600	26.224883	-6.049623E-5	20.814138
2146.542342	-3.003700	3.291100	-9.884500	26.235064	-6.244293E-5	20.782644
2147.539545	-2.987300	3.290300	-9.828100	26.243135	-6.211298E-5	20.818256
2148.538491	-2.999700	3.289900	-9.867900	26.242688	-6.194801E-5	20.802160
2149.541513	-2.999100	3.289800	-9.865500	26.247133	-6.244293E-5	20.806626
2150.540986	-3.004400	3.290000	-9.882600	26.253391	-6.175004E-5	20.813389
2151.541851	-3.008000	3.289700	-9.894200	26.246016	-6.320182E-5	20.806926
2152.541877	-2.999300	3.287500	-9.859400	26.257637	-6.518151E-5	20.806751
2153.542142	-3.002100	3.288700	-9.872000	26.266155	-6.498355E-5	20.797293
2154.545112	-2.978900	3.287700	-9.792800	26.270526	-6.557745E-5	20.815910
2155.543864	-2.998600	3.287800	-9.857800	26.268415	-6.547847E-5	20.802883
2156.543725	-2.979400	3.287500	-9.794200	26.266825	-6.567644E-5	20.819303
2157.546922	-3.003300	3.286200	-9.868300	26.270351	-6.491756E-5	20.838967
2158.545470	-2.998600	3.286700	-9.854400	26.268662	-6.772213E-5	20.820675
2159.550246	-2.992500	3.285100	-9.829100	26.265087	-6.828304E-5	20.809022
2160.543771	-2.991600	3.286600	-9.831500	26.275243	-6.854700E-5	20.807848
2161.550222	-3.022200	3.284800	-9.925700	26.287063	-6.712822E-5	20.826839
2162.545610	-2.984900	3.285700	-9.806400	26.276360	-6.956984E-5	20.818928
2163.545022	-2.998100	3.284000	-9.845000	26.301515	-7.039472E-5	20.841362
2164.550003	-3.015600	3.285100	-9.905200	26.292551	-7.098863E-5	20.832354
2165.545713	-3.012100	3.283100	-9.888700	26.310157	-7.013076E-5	20.818280
2166.546832	-2.976100	3.283600	-9.771100	26.297789	-7.138457E-5	20.795893
2167.546402	-2.994700	3.283700	-9.833100	26.321331	-7.250639E-5	20.815285
2168.546392	-3.004500	3.283400	-9.864000	26.313160	-7.366122E-5	20.816556
2169.548316	-2.979900	3.283000	-9.781600	26.298386	-7.128558E-5	20.838691
2170.546269	-2.981000	3.283300	-9.786100	26.320461	-7.112061E-5	20.820574
2171.546837	-2.992000	3.281900	-9.818100	26.321504	-7.277035E-5	20.805976
2172.547333	-3.006800	3.281300	-9.864600	26.304818	-7.445310E-5	20.818604
2173.546211	-2.999600	3.281500	-9.842000	26.321355	-7.524498E-5	20.828584
2174.545990	-2.986700	3.280600	-9.797400	26.344946	-7.560792E-5	20.816732
2175.546449	-2.992200	3.280400	-9.814500	26.332604	-7.656477E-5	20.810967
2176.546889	-3.002100	3.279600	-9.844500	26.318899	-7.715868E-5	20.820426
2177.546555	-2.989800	3.279300	-9.803500	26.342015	-7.600386E-5	20.827063
2178.548015	-3.012100	3.279500	-9.877200	26.324137	-7.580589E-5	20.836596
2179.549106	-3.015500	3.279000	-9.887000	26.327440	-7.395817E-5	20.828536
2180.552099	-3.013200	3.278200	-9.876600	26.344202	-7.880843E-5	20.836847
2181.554283	-3.017500	3.278300	-9.891600	26.347480	-7.715868E-5	20.831133
2182.549470	-2.997900	3.278100	-9.825500	26.339832	-7.966630E-5	20.840041
2183.551997	-3.001300	3.277300	-9.835100	26.359995	-7.989726E-5	20.838969
2184.551329	-2.997700	3.277200	-9.823600	26.363919	-8.042518E-5	20.856662
2185.552496	-2.984400	3.276700	-9.778200	26.386787	-8.082112E-5	20.829860
2186.552877	-2.995900	3.275400	-9.811800	26.379637	-7.936935E-5	20.836898
2187.551596	-2.991400	3.276300	-9.800200	26.382145	-8.115107E-5	20.831833
2188.555344	-2.993700	3.275900	-9.806300	26.397963	-8.059016E-5	20.833031
2189.554435	-2.992000	3.276000	-9.800400	26.390588	-8.372468E-5	20.838422
2190.556221	-2.985800	3.274200	-9.775900	26.375889	-8.359270E-5	20.837873
2191.559867	-3.014300	3.275600	-9.872300	26.406504	-8.441757E-5	20.837349
2192.556073	-3.003500	3.273300	-9.830800	26.414376	-8.372468E-5	20.837200
2193.554885	-3.002000	3.275200	-9.831300	26.398907	-8.438458E-5	20.841567
2194.559195	-3.016300	3.273300	-9.872300	26.406952	-8.316376E-5	20.842066
2195.556314	-2.997500	3.272900	-9.809600	26.398734	-8.639727E-5	20.864151
2196.556030	-2.994700	3.270900	-9.794600	26.402583	-8.682621E-5	20.849528
2197.559395	-3.002000	3.272600	-9.823400	26.404495	-8.682621E-5	20.845760
2198.558735	-2.997500	3.271100	-9.803600	26.404792	-8.775006E-5	20.839422
2199.561577	-2.996100	3.271700	-9.801500	26.421478	-8.755209E-5	20.839597
2200.559278	-3.006500	3.270400	-9.831300	26.418548	-8.567138E-5	20.848979
2201.560609	-2.994400	3.271600	-9.795700	26.424359	-8.788204E-5	20.853397
2202.562565	-3.026900	3.270600	-9.898800	26.435929	-8.771707E-5	20.856491
2203.560525	-3.005600	3.269600	-9.826200	26.479404	-8.883890E-5	20.860360
2204.560784	-3.002200	3.268300	-9.810000	26.475358	-8.850895E-5	20.846336
2205.565344	-3.005500	3.269100	-9.824300	26.459369	-9.194042E-5	20.857291
2206.562041	-2.998900	3.269700	-9.804000	26.457928	-9.071961E-5	20.862481
2207.562525	-3.025500	3.268300	-9.886600	26.468755	-9.141250E-5	20.853449
2208.563732	-3.017600	3.267000	-9.858200	26.480919	-9.227037E-5	20.865201
2209.560969	-2.989200	3.267600	-9.766400	26.481862	-9.081860E-5	20.849080
2210.560620	-2.987400	3.267600	-9.760700	26.475259	-9.230337E-5	20.849556
2211.564848	-2.995500	3.266200	-9.782000	26.489237	-9.266631E-5	20.865501
2212.562953	-2.995500	3.266200	-9.782700	26.485415	-9.342520E-5	20.861185
2213.567158	-3.000200	3.266000	-9.797000	26.486754	-9.401911E-5	20.864902
2214.565884	-3.021200	3.265400	-9.864200	26.492117	-9.497596E-5	20.873137
2215.564302	-2.982400	3.266200	-9.739900	26.498324	-9.527291E-5	20.870367
2216.564889	-2.993400	3.264600	-9.771100	26.508927	-9.573484E-5	20.867749
2217.564648	-3.018900	3.263500	-9.850800	26.457160	-9.642774E-5	20.863132
2218.566672	-3.013100	3.264400	-9.835700	26.485838	-9.573484E-5	20.858766
2219.565511	-3.006600	3.263300	-9.810400	26.489585	-9.464601E-5	20.857791
2220.567401	-2.988000	3.264100	-9.752000	26.507363	-9.540489E-5	20.869969
2221.567666	-3.011500	3.262100	-9.821800	26.488817	-9.754957E-5	20.855123
2222.566277	-3.011500	3.261500	-9.820600	26.501925	-9.718662E-5	20.860711
2223.568743	-2.999100	3.262300	-9.783300	26.513073	-9.764855E-5	20.873338
2224.571094	-3.010300	3.262100	-9.818400	26.529981	-9.853942E-5	20.877532
2225.568048	-3.004300	3.261200	-9.796700	26.499095	-9.738459E-5	20.858340
2226.567312	-3.011200	3.261500	-9.820500	26.532960	-9.840744E-5	20.871517
2227.571009	-2.990900	3.261800	-9.755000	26.521290	-0.000100	20.883968
2228.567954	-3.008900	3.260500	-9.809800	26.538371	-9.972723E-5	20.875534
2229.569108	-3.007000	3.259700	-9.801400	26.557661	-9.949627E-5	20.876906
2230.573226	-3.001300	3.259100	-9.780700	26.553193	-0.000102	20.865777
2231.568458	-3.007400	3.259200	-9.800500	26.563471	-9.910033E-5	20.885116
2232.571040	-3.006600	3.259000	-9.797800	26.567419	-0.000101	20.865378
2233.569568	-3.010800	3.259400	-9.812900	26.573327	-0.000101	20.867050
2234.570292	-3.019100	3.257700	-9.834200	26.587130	-0.000102	20.882821
2235.570513	-2.993400	3.258100	-9.752100	26.573700	-0.000101	20.877382
2236.570443	-3.034100	3.255700	-9.877300	26.569058	-0.000101	20.869396
2237.569938	-2.987200	3.257000	-9.728500	26.583033	-0.000104	20.880599
2238.572030	-3.010400	3.256700	-9.802400	26.574916	-0.000103	20.885241
2239.569852	-3.014300	3.255700	-9.813100	26.560046	-0.000105	20.896371
2240.570146	-3.023300	3.254800	-9.839000	26.588346	-0.000102	20.878354
2241.571957	-3.006300	3.253800	-9.781300	26.589390	-0.000105	20.878455
2242.570995	-3.013400	3.254700	-9.805800	26.582785	-0.000104	20.901211
2243.574123	-2.983500	3.253800	-9.706900	26.611906	-0.000106	20.890657
2244.571050	-3.030700	3.253400	-9.859000	26.623574	-0.000104	20.876309
2245.571664	-3.005400	3.253300	-9.776700	26.597507	-0.000106	20.896096
2246.573747	-2.970300	3.253400	-9.662700	26.615878	-0.000106	20.897969
2247.571005	-2.951700	3.254500	-9.605600	26.628738	-0.000106	20.886715
2248.573112	-2.985300	3.251700	-9.706300	26.618436	-0.000105	20.883945
2249.574190	-3.006700	3.251200	-9.774300	26.630724	-0.000106	20.884919
2250.573562	-2.975700	3.251900	-9.676100	26.649566	-0.000107	20.901488
2251.574741	-3.020700	3.249700	-9.815500	26.625436	-0.000106	20.897146
2252.575329	-2.990400	3.251600	-9.722700	26.652668	-0.000106	20.910770
2253.575200	-2.988600	3.251000	-9.714200	26.623302	-0.000107	20.907801
2254.577106	-3.021500	3.249300	-9.816600	26.639636	-0.000107	20.884394
2255.576021	-2.989900	3.249600	-9.715300	26.629458	-0.000107	20.923472
2256.578198	-3.010100	3.247900	-9.775700	26.631669	-0.000108	20.898195
2257.580875	-3.005100	3.248200	-9.760600	26.655524	-0.000108	20.888513
2258.579689	-2.994100	3.247100	-9.721200	26.677420	-0.000108	20.884447
2259.580107	-3.017700	3.247100	-9.798000	26.656418	-0.000109	20.901264
2260.581653	-2.985000	3.246900	-9.691100	26.660316	-0.000110	20.906605
2261.580224	-2.994200	3.246400	-9.719900	26.647457	-0.000111	20.901739
2262.581921	-2.980900	3.246700	-9.677200	26.645100	-0.000111	20.892258
2263.580080	-3.023100	3.244300	-9.806300	26.656817	-0.000109	20.912570
2264.578233	-3.007400	3.245900	-9.761000	26.670965	-0.000113	20.906879
2265.583343	-3.004600	3.245000	-9.748000	26.669650	-0.000111	20.900816
2266.580194	-2.993200	3.246200	-9.715100	26.672506	-0.000111	20.910798
2267.579315	-3.018300	3.243700	-9.789200	26.668160	-0.000110	20.920179
2268.578099	-2.993100	3.245000	-9.711400	26.662973	-0.000113	20.916862
2269.581937	-2.985200	3.244500	-9.684400	26.677048	-0.000111	20.903037
2270.581935	-3.013600	3.242200	-9.769400	26.689658	-0.000113	20.916187
2271.581992	-3.029700	3.241000	-9.819200	26.700357	-0.000115	20.901815
2272.582975	-2.964300	3.242600	-9.611100	26.697429	-0.000114	20.920207
2273.583385	-2.969700	3.241900	-9.626500	26.699390	-0.000113	20.919807
2274.583070	-2.969000	3.241900	-9.624300	26.697976	-0.000113	20.924074
2275.590812	-2.986900	3.240800	-9.679600	26.698820	-0.000115	20.923976
2276.584363	-3.005800	3.240100	-9.737500	26.696934	-0.000113	20.915442
2277.584322	-3.009900	3.239300	-9.748800	26.715527	-0.000115	20.917538
2278.584336	-2.999500	3.239800	-9.717100	26.695371	-0.000116	20.922404
2279.585772	-2.987400	3.238500	-9.674200	26.720591	-0.000114	20.928319
2280.587507	-3.002200	3.238500	-9.722200	26.728389	-0.000113	20.920986
2281.586577	-2.994500	3.238500	-9.697200	26.735883	-0.000116	20.928046
2282.587782	-3.008300	3.237000	-9.737300	26.739434	-0.000114	20.912651
2283.596920	-3.004800	3.237300	-9.726700	26.736754	-0.000116	20.928447
2284.588341	-3.013100	3.237100	-9.752200	26.758945	-0.000115	20.918990
2285.588463	-3.001000	3.234800	-9.707100	26.753658	-0.000117	20.905615
2286.589120	-2.985300	3.236400	-9.660800	26.757458	-0.000115	20.914651
2287.588083	-2.983900	3.235600	-9.652900	26.790147	-0.000117	20.897258
2288.587847	-2.994600	3.236300	-9.691100	26.783272	-0.000118	20.898406
2289.591676	-2.986500	3.236600	-9.664600	26.758526	-0.000116	20.924258
2290.588335	-2.997400	3.234200	-9.692800	26.764535	-0.000117	20.913231
2291.588925	-3.007600	3.233100	-9.722300	26.765553	-0.000118	20.881541
2292.589885	-3.004800	3.233100	-9.713600	26.764609	-0.000118	20.887230
2293.588806	-2.998500	3.234400	-9.696700	26.790150	-0.000117	20.900580
2294.588295	-3.013300	3.232500	-9.739700	26.785809	-0.000119	20.908543
2295.589213	-3.028200	3.231400	-9.784800	26.789383	-0.000120	20.872784
2296.590077	-3.011600	3.230500	-9.727700	26.798070	-0.000118	20.894319
2297.593562	-3.009000	3.230200	-9.718700	26.789087	-0.000117	20.910889
2298.589804	-3.014800	3.230600	-9.738300	26.803855	-0.000121	20.911514
2299.592065	-2.998600	3.232100	-9.691000	26.797379	-0.000122	20.901210
2300.592194	-2.997300	3.229500	-9.678300	26.822447	-0.000119	20.894647
2301.590483	-2.981500	3.230800	-9.631400	26.818675	-0.000122	20.901759
2302.593718	-3.006200	3.229100	-9.707000	26.792167	-0.000120	20.899289
2303.591352	-3.010700	3.229000	-9.719600	26.828677	-0.000123	20.895221
2304.590755	-3.022500	3.227600	-9.754200	26.804603	-0.000120	20.894723
2305.592439	-3.009700	3.227300	-9.712100	26.810139	-0.000121	20.885117
2306.590877	-3.001100	3.228200	-9.687200	26.811628	-0.000121	20.886615
2307.591178	-3.004100	3.225900	-9.688400	26.799815	-0.000122	20.887539
2308.590494	-2.994200	3.224900	-9.654800	26.826496	-0.000122	20.897770
2309.590501	-3.008500	3.224400	-9.699900	26.826398	-0.000120	20.908101
2310.592610	-2.994700	3.225900	-9.659700	26.830370	-0.000124	20.878432
2311.591380	-3.000000	3.225200	-9.674600	26.821955	-0.000123	20.891307
2312.593463	-3.000800	3.224000	-9.673300	26.831685	-0.000123	20.902512
2313.594404	-3.014700	3.223500	-9.716800	26.830195	-0.000123	20.875886
2314.593249	-3.003500	3.223600	-9.681100	26.832976	-0.000123	20.882949
2315.593932	-2.989100	3.222600	-9.631200	26.844492	-0.000123	20.879355
2316.593704	-2.999500	3.221400	-9.661300	26.823371	-0.000124	20.869499
2317.596373	-2.992800	3.222700	-9.643800	26.836649	-0.000126	20.881427
2318.592649	-3.005100	3.220200	-9.676000	26.842978	-0.000124	20.893479
2319.595585	-2.986100	3.221500	-9.618100	26.864173	-0.000124	20.869748
2320.597916	-2.987100	3.220200	-9.618000	26.871049	-0.000124	20.872868
2321.593945	-2.977800	3.220400	-9.588400	26.868517	-0.000124	20.887865
2322.596210	-2.996700	3.219500	-9.646900	26.868914	-0.000126	20.874040
2323.593781	-3.004500	3.218800	-9.669500	26.864968	-0.000126	20.870547
2324.592829	-3.016900	3.219000	-9.710300	26.868293	-0.000125	20.892380
2325.593381	-3.006900	3.216800	-9.671800	26.859582	-0.000126	20.886467
2326.594030	-3.004200	3.217200	-9.663800	26.880108	-0.000126	20.856374
2327.596339	-3.004800	3.216300	-9.663500	26.879884	-0.000125	20.865157
2328.594542	-2.990700	3.217900	-9.622700	26.890185	-0.000126	20.876462
2329.594543	-2.997700	3.216200	-9.640600	26.887281	-0.000125	20.873542
2330.592371	-2.983200	3.216700	-9.595000	26.907185	-0.000127	20.864634
2331.593660	-2.988600	3.215200	-9.608000	26.887480	-0.000127	20.873742
2332.597260	-2.994600	3.214900	-9.626100	26.878296	-0.000126	20.876362
2333.593816	-3.003000	3.214600	-9.652200	26.908178	-0.000126	20.878433
2334.594451	-2.980500	3.214400	-9.579800	26.893461	-0.000126	20.874066
2335.598649	-3.021800	3.212000	-9.705100	26.912199	-0.000127	20.858296
2336.597097	-2.990700	3.213700	-9.610600	26.905150	-0.000127	20.849312
2337.598713	-3.013700	3.211700	-9.677900	26.915326	-0.000128	20.873293
2338.596948	-2.985500	3.212700	-9.590800	26.902322	-0.000125	20.864485
2339.597695	-3.020500	3.211600	-9.699800	26.919198	-0.000125	20.856799
2340.599745	-3.000100	3.210700	-9.629900	26.898128	-0.000127	20.867854
2341.597760	-2.986200	3.209900	-9.583400	26.922473	-0.000128	20.864834
2342.598051	-2.996600	3.209300	-9.615900	26.928804	-0.000128	20.864087
2343.599958	-2.971400	3.209200	-9.534700	26.916667	-0.000126	20.864685
2344.598796	-2.983300	3.209800	-9.574600	26.923293	-0.000129	20.873719
2345.600203	-3.002900	3.208100	-9.632000	26.934659	-0.000128	20.852906
2346.604405	-3.012700	3.206300	-9.658700	26.951882	-0.000129	20.875440
2347.600694	-2.981500	3.207800	-9.561900	26.951682	-0.000127	20.871445
2348.600723	-3.010500	3.206400	-9.652300	26.937637	-0.000129	20.870599
2349.602361	-2.981100	3.206100	-9.556300	26.952676	-0.000128	20.848739
2350.602840	-3.016500	3.204900	-9.666600	26.955977	-0.000129	20.865807
2351.604947	-2.997600	3.204700	-9.605900	26.942377	-0.000130	20.856400
2352.606176	-3.007100	3.204700	-9.635800	26.946100	-0.000130	20.847815
2353.606573	-3.025700	3.205000	-9.696400	26.960268	-0.000130	20.866803
2354.605580	-2.989100	3.204200	-9.576300	26.955555	-0.000129	20.874392
2355.607038	-2.992400	3.203600	-9.585300	26.961585	-0.000129	20.842051
2356.607601	-2.984900	3.203500	-9.561600	26.973521	-0.000131	20.867803
2357.607719	-3.025900	3.201800	-9.687900	26.976600	-0.000130	20.853356
2358.606884	-3.010700	3.200700	-9.635500	26.972927	-0.000128	20.861515
2359.608652	-3.015600	3.201100	-9.652300	26.976325	-0.000129	20.870622
2360.608987	-3.003800	3.200700	-9.612100	26.975756	-0.000131	20.845869
2361.615469	-3.008000	3.201000	-9.626500	26.981463	-0.000128	20.862513
2362.610156	-3.012000	3.199800	-9.636700	26.958932	-0.000130	20.845072
2363.613987	-3.010700	3.199300	-9.631300	26.977866	-0.000130	20.848939
2364.611622	-2.992000	3.199500	-9.571900	26.998016	-0.000131	20.860193
2365.610804	-2.990900	3.198500	-9.565500	26.994295	-0.000132	20.827529
2366.614197	-3.029500	3.196700	-9.683200	27.010102	-0.000131	20.878510
2367.610880	-2.994300	3.197800	-9.574700	27.004917	-0.000132	20.859546
2368.612830	-3.004800	3.195700	-9.601600	27.012982	-0.000132	20.836838
2369.609165	-2.998400	3.197200	-9.585700	27.001268	-0.000132	20.844024
2370.610597	-2.981200	3.196300	-9.527700	27.023280	-0.000131	20.854780
2371.612784	-2.996600	3.194100	-9.570600	27.036606	-0.000130	20.848741
2372.613714	-2.998300	3.194600	-9.576500	27.026977	-0.000131	20.866558
2373.615893	-3.033600	3.193100	-9.685200	27.025985	-0.000133	20.847543
2374.613006	-3.004400	3.193500	-9.593600	27.008292	-0.000133	20.850139
2375.613413	-3.013400	3.193100	-9.621800	27.026134	-0.000131	20.852434
2376.616221	-3.001800	3.191600	-9.580000	27.039037	-0.000132	20.856401
2377.613447	-2.989600	3.193300	-9.546100	27.030402	-0.000132	20.849140
2378.613636	-2.990100	3.191400	-9.542300	27.042885	-0.000132	20.846047
2379.621064	-2.998200	3.191000	-9.566700	27.033530	-0.000134	20.852760
2380.616804	-3.000700	3.190600	-9.573100	27.044697	-0.000132	20.863042
2381.616377	-3.002700	3.189900	-9.578000	27.040330	-0.000132	20.858175
2382.622325	-2.992100	3.189400	-9.542000	27.025368	-0.000134	20.833647
2383.617250	-2.999500	3.188800	-9.564400	27.051920	-0.000133	20.848495
2384.618301	-3.011000	3.189300	-9.602100	27.052242	-0.000134	20.861146
2385.617712	-3.006700	3.187700	-9.583300	27.061919	-0.000135	20.842904
2386.619206	-3.009300	3.187300	-9.590200	27.055096	-0.000134	20.831775
2387.617633	-2.985700	3.187000	-9.514800	27.062341	-0.000133	20.864190
2388.617490	-2.992200	3.187100	-9.534900	27.053931	-0.000135	20.843405
2389.619723	-2.998700	3.185400	-9.551500	27.058123	-0.000134	20.828181
2390.619141	-2.985600	3.184800	-9.507200	27.065072	-0.000135	20.835643
2391.618937	-3.007500	3.184500	-9.577000	27.053409	-0.000135	20.851889
2392.619965	-3.001300	3.182700	-9.551200	27.064303	-0.000134	20.830129
2393.620081	-2.973600	3.183900	-9.466800	27.069986	-0.000134	20.824464
2394.618837	-2.976400	3.183900	-9.475900	27.055915	-0.000135	20.824064
2395.619683	-2.981500	3.183300	-9.490300	27.085916	-0.000134	20.832424
2396.620193	-2.978700	3.182000	-9.477600	27.071526	-0.000134	20.834073
2397.623656	-3.001200	3.180400	-9.544300	27.075346	-0.000135	20.833174
2398.621780	-2.999100	3.180200	-9.536700	27.081971	-0.000135	20.856431
2399.621230	-3.006200	3.181100	-9.561800	27.078176	-0.000137	20.857830
2400.622178	-3.011300	3.179800	-9.574700	27.078249	-0.000135	20.834671
2401.621607	-2.994000	3.178700	-9.516400	27.067531	-0.000135	20.836220
2402.621789	-3.002500	3.177300	-9.539500	27.087630	-0.000136	20.835097
2403.624113	-3.014900	3.177500	-9.578200	27.093313	-0.000133	20.821372
2404.622633	-2.968300	3.178000	-9.432000	27.099614	-0.000134	20.830080
2405.622749	-3.001500	3.176500	-9.533300	27.094579	-0.000135	20.841611
2406.625216	-2.988800	3.175100	-9.489300	27.094106	-0.000135	20.835446
2407.624456	-3.002000	3.175100	-9.530700	27.104430	-0.000135	20.825914
2408.629848	-3.012200	3.174900	-9.562800	27.110509	-0.000135	20.854787
2409.626962	-3.006900	3.174700	-9.545500	27.102668	-0.000136	20.845005
2410.627188	-2.994100	3.175200	-9.505900	27.077581	-0.000136	20.838267
2411.629016	-2.994400	3.173700	-9.502900	27.114032	-0.000135	20.842683
2412.627411	-3.011600	3.173200	-9.555100	27.095570	-0.000137	20.833125
2413.627736	-2.995700	3.172500	-9.502500	27.098078	-0.000137	20.819527
2414.631155	-3.002500	3.171500	-9.521600	27.105250	-0.000137	20.829584
2415.629702	-2.992500	3.171900	-9.491300	27.097655	-0.000136	20.833325
2416.630529	-2.999900	3.170700	-9.510200	27.112693	-0.000135	20.833277
2417.634937	-3.005200	3.170900	-9.528200	27.125671	-0.000135	20.831630
2418.632601	-3.033200	3.169600	-9.613800	27.120808	-0.000137	20.832903
2419.629760	-3.023600	3.168000	-9.578100	27.144851	-0.000135	20.828635
2420.629572	-3.010300	3.167500	-9.533700	27.144528	-0.000138	20.841112
2421.631867	-2.997700	3.168000	-9.496200	27.152693	-0.000135	20.829884
2422.629472	-3.042300	3.165900	-9.630400	27.162443	-0.000137	20.832579
2423.629478	-3.017800	3.166100	-9.553600	27.160583	-0.000136	20.827388
2424.632646	-2.989700	3.167400	-9.469100	27.164230	-0.000138	20.826789
2425.629868	-3.013200	3.166100	-9.538600	27.159789	-0.000135	20.831331
2426.630576	-3.001300	3.164600	-9.497100	27.179959	-0.000138	20.823170
2427.635468	-2.984200	3.164900	-9.443200	27.181324	-0.000136	20.822645
2428.632011	-3.003500	3.163600	-9.500700	27.167008	-0.000136	20.845704
2429.634356	-2.966400	3.162900	-9.381500	27.187774	-0.000138	20.827711
2430.634098	-2.990600	3.163000	-9.458800	27.187502	-0.000137	20.825540
2431.633523	-3.000600	3.161500	-9.485000	27.181721	-0.000136	20.818777
2432.637516	-3.020000	3.160500	-9.544100	27.200601	-0.000135	20.833025
2433.633987	-3.009600	3.160900	-9.512400	27.184969	-0.000138	20.814458
2434.634026	-2.986500	3.159300	-9.434700	27.212757	-0.000135	20.808742
2435.637451	-3.003300	3.158700	-9.485200	27.215264	-0.000137	20.803678
2436.637137	-3.004500	3.158400	-9.488700	27.203725	-0.000137	20.821469
2437.637578	-2.980800	3.157900	-9.411700	27.213054	-0.000135	20.829904
2438.634919	-3.017300	3.155600	-9.520500	27.196604	-0.000140	20.802927
2439.635970	-3.002300	3.157100	-9.477500	27.206255	-0.000137	20.784659
2440.639386	-2.991900	3.156100	-9.442000	27.219602	-0.000136	20.821318
2441.635303	-3.016500	3.153800	-9.512200	27.211663	-0.000138	20.824238
2442.635574	-3.014800	3.155700	-9.512800	27.215878	-0.000138	20.806192
2443.639712	-2.968900	3.155600	-9.367500	27.228458	-0.000138	20.833070
2444.635409	-3.011900	3.154800	-9.500800	27.227961	-0.000137	20.800327
2445.636481	-2.985600	3.153500	-9.414500	27.246989	-0.000135	20.795760
2446.639949	-3.011800	3.152700	-9.494500	27.221709	-0.000137	20.832446
2447.636638	-3.027200	3.151100	-9.538300	27.222673	-0.000137	20.811130
2448.636752	-3.033300	3.148500	-9.548700	27.244109	-0.000137	20.806613
2449.639505	-3.020000	3.148900	-9.509000	27.239816	-0.000136	20.810356
2450.635780	-3.002900	3.149000	-9.455100	27.235599	-0.000137	20.799949
2451.635531	-2.995100	3.149300	-9.432100	27.251799	-0.000138	20.809606
2452.637755	-3.002000	3.147700	-9.448600	27.249937	-0.000137	20.814372
2453.638517	-2.998600	3.149500	-9.443500	27.246463	-0.000139	20.814196
2454.638979	-3.006500	3.148200	-9.463900	27.240758	-0.000139	20.828846
2455.636151	-3.004300	3.146800	-9.452400	27.254475	-0.000138	20.820359
2456.641624	-3.010000	3.147300	-9.473200	27.265815	-0.000138	20.791936
2457.637293	-3.022200	3.144500	-9.502000	27.253036	-0.000137	20.798997
2458.637751	-3.022100	3.143900	-9.499700	27.255938	-0.000140	20.787217
2459.643534	-3.006500	3.143300	-9.449500	27.269062	-0.000138	20.793780
2460.637232	-2.973100	3.142700	-9.342300	27.273504	-0.000137	20.780230
2461.638316	-2.978400	3.141800	-9.355500	27.274145	-0.000139	20.805057
2462.638473	-3.015400	3.140600	-9.468800	27.275933	-0.000138	20.792156
2463.640057	-3.021300	3.139400	-9.484200	27.267101	-0.000139	20.799394
2464.642495	-3.016200	3.139400	-9.468000	27.258666	-0.000137	20.798970
2465.639993	-3.019200	3.139400	-9.477200	27.265063	-0.000137	20.797345
2466.639923	-3.020500	3.136600	-9.473200	27.279875	-0.000137	20.780001
2467.643726	-3.003700	3.137200	-9.422300	27.265461	-0.000140	20.791581
2468.640667	-2.995500	3.137800	-9.398500	27.283819	-0.000138	20.778278
2469.641009	-3.008000	3.136500	-9.434000	27.270050	-0.000140	20.776281
2470.646530	-3.011300	3.135000	-9.439700	27.258338	-0.000139	20.781571
2471.640889	-2.993100	3.136100	-9.386000	27.266774	-0.000139	20.801910
2472.645974	-3.016200	3.135300	-9.456000	27.270694	-0.000139	20.794473
2473.641993	-2.982100	3.133000	-9.341800	27.281832	-0.000138	20.791926
2474.642752	-2.999500	3.132500	-9.395000	27.281559	-0.000139	20.778376
2475.645730	-2.980100	3.131200	-9.330300	27.276026	-0.000141	20.804104
2476.640493	-3.006900	3.130800	-9.413100	27.277787	-0.000140	20.788806
2477.643416	-2.984000	3.129000	-9.336500	27.266796	-0.000138	20.775854
2478.641317	-3.009800	3.129100	-9.416900	27.300487	-0.000139	20.771811
2479.641426	-2.980000	3.128600	-9.322600	27.280713	-0.000139	20.792698
2480.645479	-2.989100	3.128300	-9.349600	27.288529	-0.000140	20.797715
2481.644230	-3.013800	3.125800	-9.420300	27.291678	-0.000138	20.774804
2482.646473	-2.974400	3.126500	-9.298600	27.303909	-0.000138	20.788055
2483.645105	-3.002700	3.126800	-9.388500	27.308101	-0.000137	20.782790
2484.645286	-2.986900	3.125000	-9.333100	27.327079	-0.000139	20.773904
2485.644927	-3.000400	3.124500	-9.372900	27.320158	-0.000139	20.789228
2486.647110	-3.017900	3.123400	-9.425600	27.346181	-0.000139	20.776050
2487.647051	-3.003400	3.123100	-9.379400	27.328988	-0.000138	20.796688
2488.646669	-3.013200	3.120000	-9.400700	27.336232	-0.000136	20.784061
2489.649398	-2.989000	3.123900	-9.336600	27.326258	-0.000137	20.781614
2490.660509	-2.989500	3.121000	-9.329700	27.333131	-0.000138	20.755336
2491.653498	-3.000700	3.119400	-9.359700	27.336678	-0.000138	20.776922
2492.647969	-3.012700	3.119500	-9.396900	27.327945	-0.000138	20.762921
2493.650429	-2.985300	3.118500	-9.308400	27.340026	-0.000138	20.749943
2494.649576	-2.972800	3.117200	-9.266000	27.338809	-0.000139	20.769583
2495.649095	-2.992100	3.117000	-9.325500	27.334841	-0.000138	20.767013
2496.651697	-3.008600	3.115400	-9.372100	27.356722	-0.000138	20.749195
2497.651106	-2.978800	3.115200	-9.278500	27.372596	-0.000139	20.768009
2498.648141	-2.988700	3.113900	-9.305500	27.364609	-0.000139	20.774200
2499.647974	-2.983300	3.113200	-9.286600	27.346572	-0.000138	20.756529
2500.653020	-2.997600	3.112100	-9.327500	27.377731	-0.000137	20.759424
2501.648877	-3.011700	3.109900	-9.364600	27.361086	-0.000139	20.772552
2502.648214	-3.004900	3.109200	-9.342000	27.372770	-0.000141	20.751589
2503.654547	-2.997200	3.109100	-9.317600	27.363194	-0.000139	20.764715
2504.655212	-2.989400	3.109500	-9.295200	27.366170	-0.000139	20.789995
2505.649484	-2.990000	3.108400	-9.293600	27.370958	-0.000138	20.759723
2506.655055	-3.012500	3.106600	-9.357500	27.369667	-0.000139	20.768382
2507.651288	-3.006700	3.105700	-9.336600	27.377779	-0.000139	20.762792
2508.651247	-2.983100	3.104500	-9.260300	27.384850	-0.000139	20.769432
2509.657012	-3.012300	3.104400	-9.350000	27.394797	-0.000139	20.761894
2510.654024	-3.008500	3.104200	-9.338100	27.372173	-0.000139	20.760946
2511.651661	-2.974300	3.102200	-9.226500	27.392888	-0.000139	20.760448
2512.654850	-2.979300	3.103000	-9.243700	27.395938	-0.000139	20.756878
2513.651504	-2.993700	3.100400	-9.280200	27.397947	-0.000138	20.764589
2514.656569	-3.012200	3.098400	-9.331700	27.394971	-0.000139	20.775346
2515.653915	-2.999700	3.098100	-9.292700	27.376614	-0.000137	20.755456
2516.650977	-3.005100	3.098500	-9.310100	27.393531	-0.000139	20.749240
2517.652442	-3.020900	3.096600	-9.352900	27.412186	-0.000140	20.748093
2518.652536	-3.016900	3.095400	-9.338000	27.401099	-0.000139	20.763019
2519.651810	-3.030100	3.095400	-9.377900	27.390654	-0.000139	20.761046
2520.654054	-3.016400	3.094000	-9.331800	27.417668	-0.000139	20.737012
2521.655292	-3.016100	3.092100	-9.325300	27.420050	-0.000138	20.749367
2522.653124	-3.014700	3.091700	-9.319300	27.430965	-0.000139	20.753709
2523.656404	-3.000000	3.091700	-9.273300	27.439995	-0.000138	20.746672
2524.655697	-2.987900	3.090700	-9.233800	27.443367	-0.000138	20.736788
2525.655704	-3.022100	3.089100	-9.334400	27.456663	-0.000139	20.731672
2526.654047	-2.999900	3.088400	-9.263500	27.448750	-0.000140	20.749791
2527.664502	-3.004300	3.087900	-9.276300	27.457954	-0.000136	20.764266
2528.655571	-3.000700	3.086100	-9.259300	27.484099	-0.000140	20.761172
2529.657045	-3.008100	3.084100	-9.276500	27.436050	-0.000139	20.753609
2530.656687	-3.008600	3.083000	-9.274600	27.472787	-0.000138	20.756429
2531.656102	-3.004800	3.084300	-9.266900	27.487571	-0.000139	20.757079
2532.658339	-2.987800	3.081500	-9.205200	27.459764	-0.000139	20.755182
2533.659065	-2.966000	3.082300	-9.141500	27.473704	-0.000139	20.736489
2534.657028	-2.992200	3.079200	-9.212500	27.500840	-0.000138	20.744824
2535.657258	-2.967900	3.079400	-9.139300	27.491315	-0.000139	20.737137
2536.657487	-3.019300	3.076900	-9.289100	27.488114	-0.000139	20.738658
2537.658252	-2.981300	3.077200	-9.173400	27.476977	-0.000141	20.730773
2538.658204	-2.983300	3.075400	-9.174100	27.488660	-0.000141	20.745846
2539.661463	-3.001400	3.074000	-9.225400	27.489503	-0.000141	20.739108
2540.661285	-3.001800	3.073100	-9.223900	27.513513	-0.000139	20.743824
2541.662002	-3.009900	3.071100	-9.242500	27.485237	-0.000139	20.753308
2542.665051	-3.006000	3.069900	-9.227100	27.512124	-0.000139	20.754281
2543.666639	-2.999500	3.069900	-9.206400	27.498828	-0.000140	20.750861
2544.664804	-3.013100	3.067800	-9.242700	27.505872	-0.000140	20.735188
2545.664293	-3.014700	3.067200	-9.245700	27.490890	-0.000139	20.736709
2546.665477	-3.007400	3.065300	-9.217300	27.510632	-0.000142	20.721010
2547.665004	-3.001500	3.065600	-9.200600	27.506490	-0.000141	20.733439
2548.668123	-2.993500	3.064700	-9.173200	27.506094	-0.000141	20.747265
2549.665728	-2.999500	3.063100	-9.186800	27.502100	-0.000139	20.750359
2550.666427	-2.989900	3.061400	-9.152700	27.515220	-0.000142	20.740325
2551.666687	-2.988500	3.061200	-9.147100	27.517873	-0.000139	20.725451
2552.665275	-3.005200	3.059400	-9.192300	27.539229	-0.000140	20.754051
2553.667550	-2.996300	3.058800	-9.164400	27.545503	-0.000139	20.753725
2554.667989	-3.001700	3.056600	-9.174500	27.513780	-0.000139	20.742196
2555.666386	-3.012400	3.056300	-9.205600	27.535309	-0.000138	20.747736
2556.668450	-2.975000	3.055700	-9.089500	27.525660	-0.000139	20.737553
2557.671690	-2.997400	3.054100	-9.153700	27.550833	-0.000139	20.740122
2558.668213	-2.977800	3.052400	-9.087500	27.550785	-0.000140	20.740547
2559.672917	-2.983900	3.051100	-9.103500	27.551801	-0.000137	20.742043
2560.674492	-3.003800	3.050700	-9.162100	27.557456	-0.000140	20.734931
2561.670549	-2.971800	3.049100	-9.060100	27.556339	-0.000140	20.745662
2562.671261	-2.994400	3.047000	-9.123500	27.571295	-0.000138	20.746011
2563.669517	-2.981900	3.046500	-9.082900	27.568245	-0.000140	20.746735
2564.669233	-3.007100	3.045200	-9.156700	27.571195	-0.000140	20.748756
2565.671359	-3.014900	3.043500	-9.175100	27.609464	-0.000139	20.713765
2566.671121	-3.014900	3.042300	-9.171900	27.580198	-0.000140	20.758762
2567.669450	-3.016400	3.040700	-9.170500	27.589946	-0.000139	20.762881
2568.672595	-2.983900	3.040000	-9.070600	27.587934	-0.000141	20.757537
2569.670310	-2.994300	3.038100	-9.096500	27.609984	-0.000142	20.752223
2570.671954	-2.980300	3.038600	-9.054400	27.591531	-0.000139	20.748354
2571.673061	-3.016100	3.035500	-9.154500	27.606858	-0.000138	20.733904
2572.673334	-2.998100	3.036600	-9.100900	27.600012	-0.000138	20.740292
2573.673604	-3.005800	3.033500	-9.117800	27.621938	-0.000140	20.750026
2574.673652	-3.019300	3.031800	-9.153100	27.625384	-0.000140	20.742588
2575.672506	-2.999100	3.030200	-9.086600	27.616678	-0.000141	20.719128
2576.671939	-2.994400	3.029600	-9.070900	27.617595	-0.000141	20.751346
2577.674297	-2.996600	3.027600	-9.070000	27.613081	-0.000141	20.754391
2578.672517	-2.998500	3.026200	-9.072800	27.622803	-0.000140	20.750897
2579.677888	-2.994700	3.025600	-9.059000	27.615487	-0.000141	20.742587
2580.675772	-3.010600	3.023500	-9.100700	27.639494	-0.000140	20.750622
2581.673841	-3.009700	3.023200	-9.096900	27.631235	-0.000140	20.759856
2582.675016	-3.013300	3.022600	-9.106200	27.637486	-0.000140	20.780844
2583.676072	-3.005100	3.020800	-9.077000	27.631136	-0.000139	20.754066
2584.674904	-2.976200	3.020300	-8.988100	27.652192	-0.000139	20.749648
2585.673790	-2.970900	3.017400	-8.963600	27.633591	-0.000139	20.732828
2586.673683	-2.991200	3.014600	-9.016000	27.649859	-0.000138	20.763423
2587.673478	-3.020200	3.013700	-9.100200	27.637211	-0.000140	20.730780
2588.674242	-2.972700	3.015300	-8.962500	27.647951	-0.000139	20.750122
2589.674650	-2.992600	3.012600	-9.014400	27.639889	-0.000138	20.740588
2590.675904	-2.996000	3.010400	-9.018300	27.653654	-0.000141	20.743533
2591.680088	-3.012000	3.010000	-9.065100	27.667270	-0.000139	20.743010
2592.676986	-2.993100	3.007800	-9.001000	27.672974	-0.000141	20.745905
2593.675325	-3.015400	3.006000	-9.063300	27.663425	-0.000140	20.750046
2594.680462	-3.008800	3.005900	-9.042600	27.649165	-0.000140	20.751819
2595.679260	-3.019600	3.003500	-9.068100	27.651868	-0.000140	20.755961
2596.675669	-2.987900	3.003200	-8.972500	27.663178	-0.000138	20.734150
2597.682518	-3.025600	3.001200	-9.078800	27.679596	-0.000141	20.763000
2598.680709	-2.991700	3.000600	-8.976300	27.646215	-0.000139	20.769239
2599.677863	-3.005700	2.997200	-9.008000	27.668660	-0.000141	20.749150
2600.677345	-2.992600	2.998500	-8.972600	27.686045	-0.000142	20.753842
2601.679349	-3.009700	2.994400	-9.011800	27.697899	-0.000138	20.765297
2602.678361	-3.028300	2.993800	-9.065000	27.693535	-0.000139	20.753793
2603.678428	-3.000400	2.994600	-8.983700	27.705662	-0.000140	20.781644
2604.678430	-3.019000	2.989900	-9.025700	27.706877	-0.000140	20.771486
2605.680442	-3.001500	2.988200	-8.967800	27.718335	-0.000139	20.782543
2606.678197	-3.004400	2.988300	-8.976700	27.722525	-0.000140	20.773483
2607.681374	-2.987100	2.987000	-8.922100	27.715706	-0.000140	20.749076
2608.678473	-2.972800	2.985800	-8.875100	27.726841	-0.000139	20.766921
2609.678370	-2.989100	2.984600	-8.920100	27.717169	-0.000141	20.762403
2610.680685	-2.988500	2.982400	-8.911700	27.718136	-0.000141	20.755316
2611.678851	-2.983900	2.981400	-8.895000	27.726866	-0.000138	20.753669
2612.680620	-2.978900	2.981000	-8.879300	27.738125	-0.000140	20.772586
2613.681599	-3.037300	2.977400	-9.042200	27.750871	-0.000140	20.771188
2614.682991	-3.015100	2.977000	-8.975100	27.766941	-0.000139	20.765548
2615.683817	-3.014400	2.975300	-8.967900	27.761013	-0.000141	20.783765
2616.688276	-3.001300	2.974500	-8.926100	27.735719	-0.000141	20.754517
2617.684503	-3.012200	2.971900	-8.950800	27.763470	-0.000141	20.780073
2618.686529	-3.030200	2.971100	-9.002600	27.751938	-0.000139	20.785064
2619.685361	-3.030200	2.967900	-8.991900	27.752484	-0.000141	20.761905
2620.684445	-3.004700	2.968400	-8.918200	27.755459	-0.000139	20.774856
2621.684902	-3.005300	2.965600	-8.910800	27.792655	-0.000140	20.786685
2622.689451	-3.005900	2.965100	-8.911800	27.770140	-0.000141	20.795796
2623.685310	-3.025700	2.962700	-8.963300	27.771231	-0.000138	20.767969
2624.686225	-3.006100	2.962000	-8.903200	27.764759	-0.000140	20.775681
2625.687870	-2.989100	2.961800	-8.852200	27.761932	-0.000140	20.785638
2626.684497	-3.013200	2.959200	-8.915400	27.792036	-0.000139	20.756664
2627.685453	-3.007200	2.957300	-8.891500	27.772694	-0.000140	20.780347
2628.690813	-2.999300	2.957200	-8.869500	27.803071	-0.000139	20.784366
2629.686975	-2.998800	2.955300	-8.859400	27.770587	-0.000139	20.791029
2630.689333	-3.000000	2.954600	-8.862800	27.796897	-0.000140	20.791902
2631.692581	-3.010900	2.951200	-8.884900	27.780605	-0.000141	20.784042
2632.688437	-3.018900	2.949400	-8.903300	27.805105	-0.000139	20.762230
2633.688793	-2.990800	2.948700	-8.818600	27.787699	-0.000138	20.767472
2634.691493	-3.017400	2.946400	-8.889400	27.808577	-0.000139	20.779475
2635.688109	-3.022700	2.944600	-8.898600	27.813189	-0.000140	20.790281
2636.690705	-3.004900	2.943600	-8.844600	27.797220	-0.000141	20.778477
2637.692914	-3.001400	2.941500	-8.827900	27.823381	-0.000141	20.788210
2638.689375	-2.976400	2.940900	-8.752200	27.824126	-0.000139	20.797020
2639.689226	-2.983200	2.940000	-8.769600	27.828763	-0.000141	20.784617
2640.694801	-2.989200	2.936800	-8.777800	27.827473	-0.000139	20.776681
2641.690475	-3.004400	2.935300	-8.817500	27.821820	-0.000141	20.786165
2642.690210	-3.001200	2.933200	-8.803200	27.830326	-0.000142	20.779553
2643.696440	-2.984800	2.932900	-8.752300	27.853883	-0.000140	20.787139
2644.690297	-2.980000	2.929500	-8.729500	27.831144	-0.000140	20.791281
2645.689613	-2.999800	2.928500	-8.783700	27.856660	-0.000138	20.804633
2646.693904	-2.965700	2.928800	-8.684600	27.849692	-0.000139	20.784344
2647.692141	-2.971500	2.925700	-8.691600	27.861271	-0.000138	20.796946
2648.693858	-3.002200	2.923500	-8.775500	27.877441	-0.000137	20.775287
2649.695430	-2.984600	2.922400	-8.721000	27.865365	-0.000138	20.786841
2650.693989	-2.988000	2.921700	-8.728800	27.884310	-0.000140	20.799271
2651.693815	-2.998000	2.919800	-8.752300	27.873944	-0.000137	20.803063
2652.697159	-3.007100	2.916400	-8.769000	27.871390	-0.000138	20.803337
2653.695943	-2.993600	2.916000	-8.729300	27.880368	-0.000140	20.813795
2654.694375	-3.001000	2.914200	-8.744100	27.890187	-0.000140	20.790013
2655.695958	-2.992200	2.913100	-8.714600	27.897081	-0.000139	20.800270
2656.696986	-2.993800	2.909400	-8.709200	27.903652	-0.000138	20.799772
2657.698204	-3.012600	2.908000	-8.759500	27.907395	-0.000141	20.827721
2658.700121	-2.983400	2.907700	-8.672900	27.916844	-0.000140	20.792661
2659.698453	-2.991000	2.905100	-8.688500	27.905241	-0.000142	20.797578
2660.698977	-3.026700	2.903100	-8.786400	27.907273	-0.000140	20.792985
2661.701197	-3.025000	2.901000	-8.774800	27.915481	-0.000140	20.805039
2662.697233	-2.990500	2.899800	-8.670500	27.902290	-0.000139	20.795082
2663.699244	-2.966300	2.898800	-8.597200	27.921482	-0.000140	20.805863
2664.699877	-2.999300	2.895600	-8.683800	27.919251	-0.000139	20.824006
2665.700893	-3.031800	2.893600	-8.772000	27.889498	-0.000139	20.811130
2666.700918	-2.995600	2.892800	-8.664400	27.903185	-0.000139	20.813526
2667.704471	-3.002500	2.890700	-8.678700	27.906086	-0.000141	20.817394
2668.700894	-3.015600	2.887600	-8.707500	27.899962	-0.000139	20.805066
2669.701662	-2.990900	2.885400	-8.628100	27.927509	-0.000139	20.783955
2670.706481	-3.009600	2.885200	-8.681400	27.905838	-0.000140	20.821887
2671.704851	-2.993100	2.882500	-8.626400	27.930782	-0.000141	20.838931
2672.701948	-2.973400	2.880700	-8.564900	27.920219	-0.000139	20.827351
2673.705835	-3.028100	2.878200	-8.714000	27.953171	-0.000139	20.829698
2674.704094	-2.984900	2.876800	-8.586000	27.931601	-0.000138	20.835962
2675.703884	-3.012600	2.875000	-8.659900	27.957460	-0.000138	20.805093
2676.708112	-2.980100	2.874800	-8.565300	27.967824	-0.000139	20.809360
2677.709593	-2.980200	2.871500	-8.556900	27.966510	-0.000140	20.795235
2678.725392	-2.980800	2.868800	-8.550100	27.972906	-0.000140	20.840079
2679.711971	-3.011700	2.867300	-8.634900	27.976205	-0.000140	20.827279
2680.708799	-2.995100	2.864800	-8.578900	27.972560	-0.000139	20.826928
2681.708233	-3.021900	2.862800	-8.650200	27.983123	-0.000141	20.833768
2682.710321	-2.992600	2.860700	-8.560700	28.006155	-0.000140	20.832769
2683.708664	-3.015000	2.856700	-8.612500	28.011907	-0.000138	20.831447
2684.709597	-3.001000	2.856000	-8.569500	28.013543	-0.000139	20.832619
2685.710246	-3.001200	2.854200	-8.565400	27.996857	-0.000139	20.839531
2686.710021	-3.013200	2.851000	-8.589400	28.038855	-0.000141	20.837710
2687.710097	-2.973700	2.850700	-8.476300	28.019270	-0.000139	20.844548
2688.712058	-2.980400	2.849600	-8.492000	28.049392	-0.000140	20.828402
2689.710982	-2.976000	2.846000	-8.469100	28.035286	-0.000138	20.848341
2690.710885	-2.982600	2.844100	-8.482400	28.059358	-0.000141	20.834167
2691.711561	-3.011700	2.842000	-8.558100	28.040913	-0.000139	20.837411
2692.712446	-2.948400	2.839900	-8.372100	28.032509	-0.000140	20.835589
2693.712057	-2.998100	2.836000	-8.501300	28.047236	-0.000139	20.847568
2694.714637	-3.005600	2.833900	-8.516400	28.037344	-0.000141	20.849464
2695.714024	-2.985800	2.832800	-8.457100	28.043317	-0.000139	20.831770
2696.717385	-3.004200	2.830000	-8.499800	28.068506	-0.000139	20.854753
2697.712978	-3.002600	2.828300	-8.491000	28.070315	-0.000139	20.830497
2698.714213	-2.980200	2.827800	-8.426400	28.070117	-0.000140	20.849264
2699.713718	-3.000300	2.823400	-8.469700	28.099940	-0.000139	20.839930
2700.714958	-2.969900	2.822000	-8.380500	28.084966	-0.000138	20.842401
2701.714348	-3.005000	2.820000	-8.472100	28.090148	-0.000138	20.855203
2702.714206	-2.988800	2.817400	-8.420000	28.108791	-0.000140	20.853581
2703.715274	-2.995500	2.813700	-8.427300	28.117987	-0.000139	20.835339
2704.716339	-2.989000	2.812100	-8.404600	28.099097	-0.000140	20.838134
2705.714756	-3.022500	2.808900	-8.489200	28.110724	-0.000139	20.845571
2706.714840	-2.974000	2.806200	-8.344700	28.126813	-0.000141	20.841853
2707.713523	-3.015600	2.803400	-8.453300	28.130730	-0.000140	20.850063
2708.715357	-3.014700	2.802000	-8.446400	28.157204	-0.000140	20.860593
2709.714685	-3.019800	2.800000	-8.453900	28.160749	-0.000139	20.834766
2710.714538	-2.987400	2.797800	-8.357500	28.145034	-0.000139	20.856876
2711.714824	-2.986200	2.796300	-8.349000	28.134721	-0.000139	20.857399
2712.717496	-3.016900	2.791700	-8.421500	28.160775	-0.000140	20.874619
2713.715226	-3.019300	2.789400	-8.421400	28.171857	-0.000138	20.860646
2714.717312	-2.996500	2.787500	-8.352100	28.182689	-0.000140	20.849266
2715.716957	-3.016200	2.784900	-8.398500	28.187226	-0.000140	20.862842
2716.720048	-3.008300	2.782100	-8.368200	28.173568	-0.000140	20.852886
2717.718739	-3.004300	2.778100	-8.344900	28.185962	-0.000138	20.846872
2718.718839	-3.038500	2.774600	-8.429300	28.192433	-0.000139	20.856705
2719.721216	-3.008100	2.773000	-8.340500	28.192879	-0.000141	20.869481
2720.723952	-3.008100	2.769600	-8.329500	28.201630	-0.000140	20.877817
2721.719844	-3.023600	2.766700	-8.364400	28.215835	-0.000138	20.846126
2722.722561	-3.000800	2.764300	-8.294200	28.200664	-0.000139	20.851242
2723.721157	-3.027900	2.762400	-8.363100	28.230683	-0.000139	20.870557
2724.721069	-3.003700	2.758600	-8.285400	28.237896	-0.000138	20.891568
2725.724226	-3.003300	2.756700	-8.278100	28.231997	-0.000140	20.858131
2726.723417	-3.014300	2.751800	-8.292800	28.235715	-0.000140	20.881313
2727.722650	-2.996000	2.750200	-8.238600	28.260007	-0.000139	20.864520
2728.726913	-3.000800	2.746600	-8.240400	28.234006	-0.000141	20.880066
2729.726606	-2.999300	2.743400	-8.227600	28.239907	-0.000139	20.864671
2730.725306	-2.988100	2.739900	-8.185800	28.232371	-0.000140	20.877472
2731.726816	-2.995600	2.737000	-8.198400	28.252845	-0.000139	20.876274
2732.730209	-3.021500	2.733600	-8.258000	28.263305	-0.000140	20.881589
2733.725807	-3.011600	2.730400	-8.221700	28.262165	-0.000140	20.869063
2734.726738	-2.993000	2.726300	-8.158800	28.279542	-0.000139	20.879919
2735.726884	-2.975800	2.723900	-8.105100	28.306855	-0.000139	20.891772
2736.727158	-2.998000	2.720300	-8.154500	28.303930	-0.000138	20.858010
2737.729484	-3.008500	2.715900	-8.169900	28.309706	-0.000139	20.863350
2738.728296	-2.995700	2.714500	-8.130500	28.311168	-0.000140	20.889477
2739.727301	-2.991000	2.710300	-8.105400	28.304229	-0.000140	20.874904
2740.728565	-3.006200	2.705700	-8.132600	28.318677	-0.000138	20.892295
2741.727828	-3.010300	2.699200	-8.124600	28.309805	-0.000140	20.887630
2742.728446	-3.009700	2.697800	-8.118100	28.318802	-0.000141	20.872034
2743.729854	-2.981000	2.694100	-8.030300	28.324427	-0.000139	20.901878
2744.728932	-2.982900	2.690000	-8.023800	28.319050	-0.000141	20.885085
2745.728106	-3.002600	2.685900	-8.063800	28.350700	-0.000140	20.915054
2746.731057	-3.014000	2.680500	-8.078100	28.356003	-0.000139	20.895739
2747.729443	-2.972800	2.676400	-7.954900	28.372410	-0.000137	20.897086
2748.731514	-3.038500	2.671900	-8.117400	28.385842	-0.000139	20.873629
2749.735313	-3.004400	2.668600	-8.016100	28.404181	-0.000139	20.905844
2750.731071	-3.005600	2.663800	-8.005300	28.410896	-0.000138	20.881314
2751.731352	-2.992700	2.660700	-7.961900	28.422272	-0.000140	20.892768
2752.734559	-3.006000	2.654400	-7.976700	28.439918	-0.000138	20.889200
2753.732707	-2.985800	2.650900	-7.914000	28.422842	-0.000138	20.894290
2754.731950	-3.021700	2.645000	-7.990800	28.443361	-0.000140	20.902624
2755.736139	-2.994800	2.640700	-7.907400	28.456719	-0.000141	20.891421
2756.732545	-2.976600	2.636500	-7.847200	28.467723	-0.000140	20.892070
2757.734175	-2.977900	2.630500	-7.832100	28.459843	-0.000138	20.896936
2758.739015	-3.036700	2.624000	-7.966800	28.490126	-0.000139	20.916999
2759.734533	-3.019800	2.620400	-7.912400	28.465715	-0.000138	20.924184
2760.736843	-2.991000	2.615700	-7.822400	28.482170	-0.000139	20.893816
2761.737349	-3.002500	2.610600	-7.837000	28.487944	-0.000138	20.892993
2762.734296	-2.984400	2.604400	-7.771900	28.525858	-0.000137	20.920266
2763.734686	-3.003700	2.597700	-7.801600	28.506208	-0.000140	20.904272
2764.738845	-2.989300	2.594300	-7.754300	28.512501	-0.000141	20.901601
2765.734702	-2.969500	2.589100	-7.687400	28.530862	-0.000142	20.902548
2766.736934	-3.025800	2.581700	-7.811200	28.554948	-0.000138	20.915898
2767.737136	-2.987400	2.576900	-7.697500	28.556732	-0.000140	20.913428
2768.736358	-3.000500	2.570800	-7.712600	28.565974	-0.000141	20.904244
2769.735173	-2.976000	2.564900	-7.632200	28.559308	-0.000140	20.907014
2770.738643	-3.002600	2.558100	-7.679600	28.574399	-0.000137	20.900401
2771.738213	-3.014900	2.551200	-7.690900	28.558738	-0.000140	20.918767
2772.737910	-3.008700	2.546300	-7.660100	28.592611	-0.000140	20.920164
2773.748242	-2.997600	2.540400	-7.613900	28.587605	-0.000141	20.937405
2774.755629	-3.021300	2.534200	-7.655700	28.597962	-0.000140	20.921286
2775.741355	-3.011600	2.526100	-7.606400	28.614241	-0.000138	20.918241
2776.741241	-2.995600	2.520900	-7.550600	28.625516	-0.000141	20.911106
2777.740978	-3.037500	2.512900	-7.630400	28.608741	-0.000141	20.897530
2778.741845	-2.975000	2.507800	-7.458500	28.644569	-0.000140	20.932663
2779.744352	-3.008300	2.499200	-7.517900	28.639044	-0.000140	20.904816
