LabVIEW Measurement	
Writer_Version	2
Reader_Version	2
Separator	Tab
Decimal_Separator	.
Multi_Headings	No
X_Columns	One
Time_Pref	Absolute
Operator	admin
Description	Clolumns are: time, Current, Voltage, Power, Battery Temp, and Chamber Temp
Date	2024/08/16
Time	13:59:35.9411449432373046875
***End_of_Header***	
	
Channels	6						
Samples	1	1	1	1	1	1	
Date	2024/09/19	2024/09/19	2024/09/19	2024/09/19	2024/09/19	2024/09/19	
Time	20:41:29.3521599769592285156	20:41:29.3579497337341308594	20:41:29.3649806976318359375	20:41:29.3353848457336425781	20:41:29.3353848457336425781	20:41:29.3353848457336425781	
X_Dimension	Time	Time	Time	Time	Time	Time	
X0	0.0000000000000000E+0	0.0000000000000000E+0	0.0000000000000000E+0	0.0000000000000000E+0	0.0000000000000000E+0	0.0000000000000000E+0	
Delta_X	1.000000	1.000000	1.000000	1.000000	1.000000	1.000000	
***End_of_Header***							
X_Value	Untitled	Untitled 1	Untitled 2	Untitled 3	Untitled 4	Untitled 5	Comment
0.000000	0.023473	4.101900	0.096301	20.946072	0.000409	20.879698
1.002032	-3.000500	3.939000	-11.817000	20.961917	0.000409	20.871837
2.000549	-2.997200	3.930400	-11.780000	20.948118	0.000407	20.894545
3.001806	-3.015000	3.924600	-11.831000	20.958773	0.000407	20.891924
4.001632	-3.006000	3.920700	-11.784000	20.960020	0.000407	20.885586
5.001761	-3.026000	3.916100	-11.850000	20.960968	0.000407	20.889379
6.004010	-2.986500	3.914300	-11.689000	20.974392	0.000404	20.875779
7.002997	-3.011000	3.911000	-11.774000	20.965385	0.000405	20.879098
8.003627	-2.997100	3.909000	-11.715000	20.960819	0.000402	20.879273
9.002903	-2.980700	3.906700	-11.643000	20.946646	0.000403	20.884064
10.003968	-2.987200	3.905200	-11.664000	20.965984	0.000402	20.882068
11.004020	-2.991200	3.903500	-11.675000	20.945373	0.000402	20.866197
12.004070	-3.003100	3.901600	-11.716000	20.972895	0.000399	20.897040
13.004473	-2.992400	3.901200	-11.672000	20.971274	0.000399	20.872186
14.005470	-3.000600	3.900300	-11.702000	20.978185	0.000400	20.879572
15.004464	-3.001700	3.897400	-11.698000	20.985296	0.000398	20.885736
16.006102	-2.993200	3.896700	-11.662000	20.987591	0.000397	20.884238
17.006914	-3.006400	3.894900	-11.708000	20.982376	0.000397	20.866696
18.006242	-2.989400	3.894400	-11.641000	21.014814	0.000396	20.892973
19.009325	-2.998800	3.891900	-11.670000	21.009947	0.000394	20.869615
20.007113	-2.974500	3.893100	-11.580000	21.025618	0.000396	20.862055
21.009326	-3.002300	3.891000	-11.680000	21.022124	0.000395	20.872785
22.010626	-3.014300	3.890200	-11.724000	21.034799	0.000393	20.878349
23.008286	-3.005400	3.890000	-11.690000	21.025193	0.000392	20.876802
24.011944	-3.006900	3.888800	-11.693000	21.026515	0.000392	20.876703
25.008964	-2.996500	3.888800	-11.652000	21.044305	0.000393	20.876478
26.009597	-2.999200	3.887300	-11.658000	21.046750	0.000390	20.858536
27.007606	-2.999200	3.887300	-11.658000	21.051066	0.000388	20.864749
28.012296	-3.004700	3.886500	-11.676000	21.059923	0.000389	20.880246
29.007185	-3.009600	3.885700	-11.693000	21.061944	0.000389	20.859983
30.007677	-3.007300	3.885400	-11.684000	21.056904	0.000389	20.874855
31.010340	-3.004600	3.883400	-11.667000	21.070277	0.000387	20.866895
32.007668	-3.001000	3.885000	-11.658000	21.071849	0.000388	20.862304
33.008868	-3.003900	3.882300	-11.661000	21.080506	0.000386	20.883290
34.012553	-3.000600	3.882600	-11.649000	21.089712	0.000388	20.851723
35.009668	-2.996100	3.881700	-11.629000	21.089238	0.000385	20.867369
36.011174	-2.984000	3.881300	-11.581000	21.110944	0.000387	20.859683
37.012941	-3.007200	3.881000	-11.670000	21.117580	0.000385	20.859209
38.010395	-2.994300	3.880400	-11.619000	21.108524	0.000385	20.850625
39.011497	-2.994900	3.880400	-11.620000	21.121646	0.000385	20.858535
40.014353	-3.003800	3.879100	-11.651000	21.132474	0.000384	20.874580
41.012130	-3.013200	3.878800	-11.687000	21.131600	0.000383	20.849526
42.012614	-3.002100	3.878500	-11.643000	21.155426	0.000384	20.865772
43.018578	-2.995800	3.878200	-11.617000	21.149138	0.000382	20.852844
44.015450	-3.001100	3.877300	-11.634000	21.162161	0.000382	20.856388
45.017044	-2.986100	3.879500	-11.583000	21.154278	0.000382	20.874579
46.014587	-2.999300	3.877000	-11.625000	21.156547	0.000383	20.868790
47.017370	-2.992200	3.877700	-11.602000	21.176705	0.000381	20.860031
48.014752	-2.991000	3.876900	-11.595000	21.193020	0.000382	20.864023
49.015531	-2.973700	3.876500	-11.526000	21.201901	0.000381	20.857261
50.018059	-3.002600	3.876200	-11.638000	21.204295	0.000381	20.846854
51.016938	-3.010700	3.875000	-11.665000	21.189851	0.000381	20.862275
52.016770	-2.997900	3.874900	-11.616000	21.228019	0.000381	20.845456
53.021194	-3.006800	3.874500	-11.649000	21.221633	0.000381	20.870360
54.016874	-3.015300	3.874700	-11.682000	21.221009	0.000381	20.843186
55.016632	-2.998100	3.874400	-11.615000	21.217067	0.000377	20.862475
56.018240	-3.019300	3.873100	-11.694000	21.231661	0.000380	20.847202
57.016857	-3.006100	3.874500	-11.645000	21.244732	0.000378	20.851270
58.017117	-3.011300	3.872800	-11.661000	21.258527	0.000378	20.850845
59.017833	-3.012900	3.871900	-11.664000	21.263640	0.000378	20.855960
60.017339	-2.974700	3.874800	-11.524000	21.252265	0.000380	20.848374
61.016541	-2.994200	3.872700	-11.595000	21.277859	0.000376	20.848848
62.017445	-2.998200	3.872300	-11.610000	21.277784	0.000377	20.849721
63.016166	-2.993900	3.872100	-11.591000	21.281276	0.000376	20.855585
64.021073	-2.995100	3.871900	-11.595000	21.283296	0.000376	20.865193
65.017955	-2.993100	3.870800	-11.585000	21.293349	0.000376	20.861499
66.020374	-2.992600	3.871500	-11.585000	21.303127	0.000375	20.844730
67.018131	-2.998900	3.871400	-11.608000	21.291328	0.000376	20.846202
68.017803	-3.002300	3.871300	-11.622000	21.305746	0.000374	20.832651
69.020730	-3.006100	3.870000	-11.633000	21.334307	0.000374	20.863120
70.018451	-3.007900	3.869800	-11.638000	21.322658	0.000374	20.847199
71.018224	-3.007900	3.869400	-11.637000	21.334830	0.000374	20.848946
72.021745	-2.985500	3.869900	-11.553000	21.332161	0.000374	20.854811
73.019047	-3.002300	3.869700	-11.617000	21.346479	0.000373	20.866763
74.017874	-2.985600	3.869500	-11.551000	21.354984	0.000375	20.865790
75.021581	-3.001700	3.869800	-11.616000	21.352091	0.000373	20.846301
76.021741	-3.005100	3.868900	-11.625000	21.367879	0.000372	20.851665
77.021031	-3.002100	3.868000	-11.611000	21.368977	0.000374	20.834272
78.023010	-2.986000	3.868200	-11.550000	21.367705	0.000373	20.861448
79.020862	-2.990400	3.867500	-11.563000	21.381248	0.000374	20.850816
80.021163	-3.000700	3.867000	-11.603000	21.391999	0.000373	20.837392
81.023645	-2.983800	3.867500	-11.539000	21.400430	0.000372	20.835870
82.021206	-2.992700	3.868200	-11.576000	21.412352	0.000371	20.816030
83.021716	-3.010900	3.868200	-11.646000	21.394518	0.000373	20.834696
84.024619	-3.012900	3.867300	-11.650000	21.429039	0.000374	20.845053
85.023683	-3.002200	3.866500	-11.607000	21.446298	0.000374	20.833399
86.022967	-3.005600	3.866400	-11.619000	21.422728	0.000373	20.853437
87.027217	-3.017300	3.866300	-11.665000	21.443978	0.000373	20.853836
88.023748	-2.984700	3.866500	-11.539000	21.438965	0.000371	20.847398
89.023480	-2.979800	3.867500	-11.524000	21.453731	0.000374	20.828982
90.025333	-3.012600	3.865600	-11.644000	21.465728	0.000373	20.835296
91.023545	-3.018000	3.865500	-11.665000	21.466675	0.000373	20.830554
92.024073	-3.010500	3.865600	-11.636000	21.475953	0.000372	20.839837
93.024561	-2.991400	3.866400	-11.565000	21.475753	0.000371	20.836792
94.024411	-2.992600	3.865300	-11.566000	21.467224	0.000371	20.823991
95.023879	-3.014000	3.865100	-11.649000	21.502739	0.000370	20.840086
96.027766	-3.004500	3.865000	-11.612000	21.500569	0.000372	20.845501
97.023977	-2.984700	3.864100	-11.531000	21.495855	0.000372	20.827983
98.023064	-2.977300	3.865000	-11.506000	21.521144	0.000372	20.829106
99.028440	-3.013100	3.863800	-11.641000	21.502789	0.000369	20.823541
100.024279	-3.013200	3.863100	-11.640000	21.524088	0.000371	20.832999
101.024322	-2.991000	3.864400	-11.557000	21.521843	0.000369	20.836443
102.027877	-3.008200	3.864500	-11.623000	21.531170	0.000371	20.819698
103.027324	-2.990600	3.863600	-11.554000	21.541171	0.000370	20.826860
104.032002	-2.995600	3.864000	-11.574000	21.553865	0.000373	20.799260
105.027716	-2.983800	3.863400	-11.527000	21.542618	0.000371	20.810290
106.027423	-3.004700	3.862500	-11.605000	21.557581	0.000370	20.820522
107.032078	-3.008000	3.863400	-11.621000	21.566908	0.000370	20.820372
108.028962	-3.014400	3.861200	-11.639000	21.573243	0.000373	20.827185
109.033235	-3.008900	3.862100	-11.619000	21.580052	0.000370	20.810765
110.030062	-2.982700	3.863000	-11.521000	21.566485	0.000372	20.820897
111.030779	-2.978000	3.862700	-11.502000	21.573144	0.000372	20.837043
112.033977	-3.002300	3.861200	-11.591000	21.591923	0.000370	20.838291
113.030357	-2.997700	3.861600	-11.575000	21.607435	0.000371	20.813985
114.030993	-2.992400	3.862800	-11.558000	21.596762	0.000372	20.805676
115.034655	-3.007200	3.860900	-11.610000	21.607785	0.000371	20.829034
116.032741	-2.983300	3.861300	-11.519000	21.628733	0.000372	20.826763
117.032619	-2.987100	3.861200	-11.533000	21.645043	0.000372	20.822697
118.032030	-2.990400	3.860600	-11.542000	21.630056	0.000372	20.821923
119.032396	-3.007400	3.860100	-11.608000	21.653198	0.000372	20.831332
120.032622	-3.013400	3.860500	-11.631000	21.653772	0.000372	20.809148
121.032726	-2.992300	3.860000	-11.548000	21.643100	0.000371	20.816485
122.035588	-2.994300	3.860700	-11.559000	21.647963	0.000373	20.830834
123.033722	-3.004100	3.859200	-11.592000	21.644024	0.000373	20.821202
124.033698	-2.998100	3.858900	-11.568000	21.660407	0.000374	20.827641
125.037748	-3.015500	3.860000	-11.639000	21.658613	0.000373	20.825371
126.033588	-3.012400	3.858600	-11.622000	21.675221	0.000374	20.806430
127.034467	-3.024900	3.858500	-11.671000	21.682278	0.000374	20.804958
128.038610	-3.015200	3.858400	-11.633000	21.664375	0.000374	20.807430
129.034801	-3.000000	3.858800	-11.575000	21.683626	0.000374	20.810101
130.034901	-3.010500	3.858100	-11.614000	21.685820	0.000374	20.809926
131.036219	-2.998100	3.858400	-11.567000	21.687218	0.000375	20.815118
132.035501	-3.004400	3.857800	-11.590000	21.677668	0.000377	20.807457
133.035690	-2.981400	3.859800	-11.507000	21.709386	0.000376	20.802216
134.035540	-3.037000	3.856400	-11.710000	21.731854	0.000377	20.807158
135.037506	-2.998400	3.856900	-11.562000	21.727890	0.000375	20.819786
136.036997	-3.002100	3.856800	-11.578000	21.706121	0.000375	20.803690
137.037298	-2.993200	3.856100	-11.541000	21.740084	0.000375	20.800696
138.038313	-3.006400	3.856900	-11.595000	21.738239	0.000377	20.800271
139.036720	-3.001700	3.857200	-11.577000	21.751255	0.000378	20.817566
140.037709	-2.999100	3.856000	-11.563000	21.768036	0.000376	20.801170
141.040514	-2.982500	3.856200	-11.500000	21.780304	0.000378	20.784051
142.039334	-2.996600	3.856400	-11.555000	21.772425	0.000378	20.796080
143.087407	-2.997100	3.856200	-11.557000	21.777213	0.000377	20.791863
144.046815	-3.027700	3.855400	-11.672000	21.795465	0.000378	20.804915
145.046828	-2.987300	3.855500	-11.516000	21.780505	0.000378	20.783304
146.041814	-3.006600	3.855800	-11.592000	21.789206	0.000378	20.792013
147.041583	-3.016900	3.855400	-11.629000	21.782724	0.000376	20.802594
148.041924	-2.979100	3.856900	-11.488000	21.815637	0.000379	20.813725
149.043353	-2.994800	3.855300	-11.545000	21.806212	0.000379	20.801447
150.044177	-3.004900	3.855200	-11.583000	21.808781	0.000379	20.796432
151.041744	-2.969900	3.855700	-11.450000	21.813519	0.000379	20.818243
152.044763	-3.011200	3.855200	-11.608000	21.817284	0.000380	20.799726
153.042206	-2.992000	3.854000	-11.530000	21.837629	0.000380	20.808236
154.043283	-2.996600	3.854000	-11.548000	21.864432	0.000379	20.803295
155.044464	-3.004500	3.853400	-11.576000	21.838701	0.000381	20.815947
156.041301	-3.012800	3.853100	-11.607000	21.851817	0.000381	20.780236
157.045038	-2.991900	3.853800	-11.529000	21.851443	0.000381	20.797406
158.042240	-3.001800	3.852600	-11.563000	21.869669	0.000380	20.775820
159.042645	-3.000300	3.851600	-11.555000	21.891609	0.000381	20.803471
160.046078	-3.007900	3.852800	-11.588000	21.873285	0.000381	20.799353
161.042454	-2.994400	3.853100	-11.537000	21.904151	0.000380	20.805119
162.043005	-3.002200	3.851700	-11.562000	21.882410	0.000382	20.802798
163.044738	-2.991600	3.853000	-11.526000	21.901882	0.000382	20.794314
164.041627	-2.994400	3.852500	-11.535000	21.868150	0.000382	20.811758
165.042147	-3.009000	3.852000	-11.589000	21.905174	0.000382	20.798557
166.043750	-2.990700	3.851700	-11.519000	21.895351	0.000382	20.807690
167.046535	-2.978700	3.852700	-11.475000	21.908091	0.000384	20.811908
168.042931	-2.984900	3.852200	-11.497000	21.917640	0.000383	20.793965
169.045413	-2.998600	3.852400	-11.551000	21.914948	0.000383	20.808814
170.047961	-3.009200	3.851700	-11.590000	21.920383	0.000381	20.794814
171.045774	-2.988400	3.852000	-11.510000	21.950151	0.000382	20.823663
172.045280	-3.000200	3.850300	-11.551000	21.967053	0.000383	20.804547
173.049074	-2.994900	3.851000	-11.532000	21.936215	0.000384	20.809239
174.046076	-3.011600	3.851600	-11.599000	21.973187	0.000382	20.813057
175.045889	-2.985600	3.851200	-11.497000	21.961220	0.000385	20.809613
176.049376	-3.002700	3.850400	-11.559000	21.967028	0.000385	20.811160
177.049827	-2.998300	3.850800	-11.545000	21.971766	0.000385	20.809738
178.048052	-3.021100	3.849200	-11.628000	21.961344	0.000384	20.817324
179.052019	-3.004200	3.849800	-11.565000	21.992981	0.000385	20.806793
180.048426	-2.990000	3.849700	-11.510000	21.980766	0.000385	20.804997
181.048340	-2.991500	3.849700	-11.515000	22.001158	0.000385	20.805496
182.048584	-2.991400	3.849200	-11.514000	22.007615	0.000384	20.810063
183.051659	-3.024800	3.847400	-11.637000	22.005321	0.000387	20.795439
184.047487	-3.002100	3.849100	-11.554000	22.017362	0.000385	20.808915
185.049692	-3.018900	3.847900	-11.615000	22.028008	0.000388	20.811985
186.052568	-3.001500	3.848000	-11.549000	22.015045	0.000389	20.803750
187.049070	-3.006500	3.848600	-11.571000	22.040721	0.000386	20.818074
188.051782	-3.018800	3.847300	-11.614000	22.064678	0.000387	20.817875
189.050708	-3.001200	3.848200	-11.548000	22.043888	0.000387	20.810814
190.049473	-2.995700	3.847900	-11.526000	22.052862	0.000388	20.812685
191.051180	-2.992000	3.848000	-11.513000	22.066299	0.000387	20.801481
192.050359	-2.988900	3.848200	-11.501000	22.064679	0.000390	20.798911
193.050760	-2.988600	3.847900	-11.499000	22.059719	0.000389	20.823342
194.054407	-2.999100	3.847000	-11.536000	22.069442	0.000389	20.812213
195.052059	-3.020600	3.846800	-11.619000	22.074103	0.000390	20.821147
196.056665	-2.984800	3.848300	-11.486000	22.088287	0.000391	20.793148
197.053079	-3.003600	3.846600	-11.553000	22.081184	0.000391	20.800735
198.053442	-2.996200	3.846200	-11.523000	22.077469	0.000391	20.808396
199.057070	-2.998100	3.846400	-11.531000	22.106909	0.000389	20.817480
200.052517	-3.019100	3.845900	-11.611000	22.094520	0.000392	20.805552
201.052823	-3.001800	3.846300	-11.545000	22.141708	0.000392	20.824344
202.052366	-2.996700	3.846100	-11.524000	22.120495	0.000392	20.828711
203.054965	-2.990300	3.845300	-11.498000	22.129295	0.000391	20.807650
204.053623	-3.014800	3.844600	-11.589000	22.127899	0.000391	20.827115
205.053849	-3.006100	3.843800	-11.555000	22.122565	0.000393	20.801860
206.055625	-3.015700	3.844000	-11.591000	22.144675	0.000394	20.813091
207.055137	-2.987200	3.843900	-11.482000	22.159457	0.000395	20.800389
208.060581	-3.010300	3.844800	-11.572000	22.149412	0.000393	20.826842
209.055109	-3.000000	3.844000	-11.531000	22.159208	0.000394	20.825744
210.055594	-3.008600	3.844500	-11.566000	22.149562	0.000396	20.804707
211.057307	-3.016200	3.844200	-11.594000	22.177231	0.000395	20.808701
212.055439	-3.004600	3.844000	-11.548000	22.184709	0.000396	20.817136
213.055439	-3.024400	3.843000	-11.621000	22.179101	0.000395	20.826220
214.061934	-3.001400	3.844400	-11.538000	22.198070	0.000396	20.818660
215.055796	-3.013700	3.843400	-11.582000	22.188624	0.000397	20.835754
216.060518	-3.008600	3.843100	-11.562000	22.197822	0.000398	20.827894
217.054984	-3.040300	3.842700	-11.682000	22.212853	0.000397	20.813072
218.056195	-2.980800	3.843700	-11.456000	22.217439	0.000397	20.831888
219.060667	-3.011800	3.842400	-11.572000	22.229852	0.000399	20.846213
220.058825	-3.000900	3.843000	-11.532000	22.236932	0.000398	20.833861
221.060315	-3.025000	3.841500	-11.620000	22.216294	0.000397	20.826474
222.065626	-2.987300	3.844100	-11.483000	22.232919	0.000398	20.819413
223.062879	-2.989400	3.842500	-11.486000	22.228707	0.000400	20.827049
224.063237	-3.007900	3.841600	-11.554000	22.249420	0.000401	20.797528
225.065653	-3.010700	3.841400	-11.564000	22.251739	0.000402	20.812178
226.064012	-3.031300	3.840800	-11.641000	22.273920	0.000401	20.813524
227.063867	-2.995800	3.842800	-11.512000	22.266120	0.000401	20.821362
228.063698	-3.004400	3.842500	-11.543000	22.270856	0.000401	20.820887
229.065399	-2.991900	3.840900	-11.491000	22.274196	0.000401	20.825180
230.063317	-2.995700	3.841100	-11.505000	22.256624	0.000402	20.812328
231.064727	-3.014700	3.840400	-11.577000	22.267865	0.000401	20.818367
232.064745	-2.993900	3.840300	-11.496000	22.257198	0.000402	20.830446
233.064167	-2.999000	3.840800	-11.518000	22.279456	0.000402	20.811007
234.065006	-2.978500	3.841300	-11.441000	22.295955	0.000404	20.828950
235.067277	-3.002200	3.839900	-11.527000	22.308441	0.000402	20.818693
236.065888	-2.992100	3.839900	-11.489000	22.320653	0.000403	20.830921
237.066589	-3.002100	3.840800	-11.530000	22.325637	0.000404	20.826429
238.066048	-3.003000	3.838900	-11.527000	22.357139	0.000404	20.832842
239.065810	-2.963300	3.840900	-11.381000	22.337799	0.000405	20.838133
240.068874	-3.004700	3.839100	-11.534000	22.362148	0.000405	20.835013
241.065574	-3.021400	3.838600	-11.597000	22.340865	0.000408	20.830297
242.067230	-3.010500	3.839600	-11.559000	22.363269	0.000406	20.822860
243.071790	-3.012500	3.838400	-11.563000	22.359207	0.000406	20.845818
244.066664	-3.017700	3.837100	-11.578000	22.364516	0.000407	20.833591
245.069067	-2.993700	3.838800	-11.491000	22.356441	0.000406	20.846367
246.070749	-2.996800	3.839600	-11.505000	22.379068	0.000407	20.861913
247.068992	-2.990600	3.839000	-11.480000	22.385673	0.000408	20.838182
248.072305	-2.994300	3.837000	-11.487000	22.390582	0.000406	20.844046
249.069347	-3.004000	3.837700	-11.528000	22.402844	0.000410	20.816971
250.069779	-3.009900	3.836400	-11.547000	22.383904	0.000407	20.839729
251.074242	-3.017500	3.837600	-11.580000	22.388962	0.000409	20.849062
252.070581	-2.992200	3.837200	-11.482000	22.412337	0.000409	20.843072
253.071070	-2.999000	3.838000	-11.510000	22.414979	0.000409	20.857571
254.074959	-3.009700	3.836700	-11.547000	22.422605	0.000409	20.851457
255.073762	-3.002500	3.836000	-11.516000	22.431377	0.000410	20.848862
256.074970	-3.006500	3.836400	-11.533000	22.454826	0.000412	20.852430
257.077870	-2.980100	3.837100	-11.434000	22.446901	0.000412	20.837383
258.073987	-3.027400	3.835900	-11.612000	22.457965	0.000412	20.852729
259.075863	-3.015900	3.835800	-11.568000	22.448072	0.000414	20.847564
260.074191	-2.992100	3.837200	-11.480000	22.442715	0.000413	20.840302
261.077515	-3.015200	3.835400	-11.562000	22.478871	0.000412	20.842372
262.075392	-2.987100	3.834500	-11.453000	22.482186	0.000413	20.836684
263.077694	-3.004800	3.834900	-11.522000	22.482434	0.000412	20.859216
264.080626	-3.017600	3.834000	-11.568000	22.492153	0.000415	20.845716
265.078082	-3.007300	3.834800	-11.532000	22.471570	0.000413	20.861612
266.079282	-2.990100	3.834300	-11.463000	22.486272	0.000414	20.858318
267.082191	-2.981700	3.834400	-11.432000	22.495565	0.000416	20.851504
268.080111	-3.003700	3.833500	-11.514000	22.497808	0.000416	20.846164
269.078666	-3.008700	3.834100	-11.533000	22.524071	0.000415	20.835957
270.082536	-2.997100	3.834500	-11.492000	22.509045	0.000415	20.854099
271.078302	-2.991200	3.834600	-11.469000	22.529054	0.000417	20.864654
272.078232	-2.980700	3.834200	-11.426000	22.552576	0.000418	20.850280
273.082161	-2.986600	3.834000	-11.450000	22.527234	0.000418	20.872788
274.079549	-2.996500	3.832800	-11.484000	22.545299	0.000416	20.858639
275.078808	-2.995200	3.833000	-11.479000	22.562517	0.000418	20.871141
276.082188	-3.018500	3.832900	-11.569000	22.562293	0.000420	20.882295
277.080039	-2.997000	3.833200	-11.487000	22.541312	0.000419	20.883567
278.078695	-2.996900	3.832300	-11.485000	22.558604	0.000422	20.866274
279.079157	-2.982500	3.832900	-11.431000	22.576120	0.000418	20.851575
280.079386	-2.991900	3.831700	-11.463000	22.583944	0.000421	20.871739
281.083147	-2.982700	3.831700	-11.428000	22.572134	0.000421	20.889780
282.079897	-2.974200	3.832200	-11.396000	22.595929	0.000423	20.870466
283.079469	-3.005000	3.831100	-11.512000	22.588703	0.000421	20.858013
284.084797	-2.988600	3.831500	-11.450000	22.617880	0.000424	20.877752
285.079948	-2.997900	3.831600	-11.486000	22.630585	0.000423	20.890477
286.081847	-2.996600	3.830700	-11.478000	22.618227	0.000422	20.880470
287.079215	-2.998500	3.831900	-11.489000	22.632031	0.000424	20.876753
288.079985	-3.012800	3.830300	-11.539000	22.620718	0.000423	20.878699
289.082708	-2.981400	3.830600	-11.419000	22.612745	0.000424	20.867868
290.078985	-3.017800	3.831200	-11.561000	22.643067	0.000426	20.896340
291.080198	-2.994400	3.830400	-11.469000	22.642470	0.000424	20.880096
292.084157	-2.986200	3.829900	-11.435000	22.644313	0.000425	20.876727
293.082026	-2.988700	3.829500	-11.444000	22.669501	0.000424	20.899110
294.081374	-3.007300	3.830200	-11.518000	22.653033	0.000426	20.882615
295.084643	-2.990000	3.829200	-11.449000	22.681984	0.000426	20.896914
296.081738	-2.994400	3.830000	-11.467000	22.672167	0.000426	20.889452
297.082083	-3.013500	3.828100	-11.535000	22.666212	0.000426	20.874480
298.085857	-3.011400	3.828400	-11.528000	22.689907	0.000429	20.898686
299.082509	-2.990900	3.829400	-11.453000	22.682307	0.000428	20.899135
300.083853	-3.008300	3.828400	-11.516000	22.682631	0.000428	20.896140
301.087121	-2.998900	3.826300	-11.474000	22.702113	0.000428	20.884361
302.082181	-3.017000	3.826700	-11.544000	22.712402	0.000430	20.888029
303.082700	-2.999300	3.827500	-11.478000	22.719079	0.000429	20.904199
304.087680	-3.000700	3.827400	-11.484000	22.722343	0.000428	20.873331
305.085331	-3.019600	3.827700	-11.558000	22.732856	0.000429	20.905197
306.085046	-2.989700	3.828300	-11.445000	22.707146	0.000429	20.905521
307.086806	-3.013000	3.826600	-11.528000	22.743793	0.000430	20.882015
308.088107	-3.016100	3.826200	-11.540000	22.749098	0.000430	20.911509
309.089050	-2.991900	3.826100	-11.447000	22.747679	0.000430	20.910561
310.088336	-2.995600	3.826900	-11.463000	22.759985	0.000430	20.894915
311.088454	-2.994700	3.827200	-11.460000	22.766463	0.000431	20.903774
312.089074	-2.993800	3.826400	-11.454000	22.766188	0.000432	20.902077
313.088407	-3.008800	3.825400	-11.509000	22.767733	0.000431	20.905047
314.088570	-2.998100	3.825800	-11.470000	22.768082	0.000432	20.905396
315.090463	-2.996700	3.825800	-11.464000	22.768108	0.000434	20.898784
316.087035	-3.007200	3.824600	-11.501000	22.782882	0.000432	20.901255
317.087829	-3.003100	3.824900	-11.485000	22.792573	0.000433	20.920919
318.089121	-3.001200	3.824300	-11.476000	22.797256	0.000435	20.928928
319.089129	-2.990900	3.825800	-11.441000	22.782982	0.000435	20.909890
320.091435	-2.997700	3.824300	-11.463000	22.814571	0.000433	20.909766
321.090348	-2.997700	3.824500	-11.464000	22.804383	0.000435	20.903353
322.089849	-2.987800	3.823600	-11.423000	22.823789	0.000436	20.910940
323.092786	-2.990400	3.824600	-11.437000	22.821000	0.000435	20.902456
324.091407	-2.994000	3.822600	-11.444000	22.858242	0.000436	20.898988
325.090900	-2.995000	3.822700	-11.447000	22.806901	0.000436	20.900660
326.090373	-2.996900	3.823200	-11.457000	22.844741	0.000436	20.921970
327.092180	-3.024300	3.823100	-11.562000	22.855130	0.000436	20.923369
328.092490	-3.014500	3.822700	-11.523000	22.864770	0.000437	20.908372
329.092749	-3.011000	3.822100	-11.506000	22.851941	0.000437	20.916856
330.092634	-3.014300	3.821500	-11.518000	22.872617	0.000437	20.919077
331.092771	-3.009500	3.821600	-11.500000	22.887862	0.000438	20.916333
332.092411	-2.996500	3.822000	-11.451000	22.854284	0.000440	20.898816
333.096259	-3.006500	3.822300	-11.492000	22.873615	0.000441	20.921025
334.092999	-3.007000	3.821200	-11.490000	22.887390	0.000440	20.921074
335.092242	-2.991200	3.822300	-11.433000	22.897005	0.000439	20.908423
336.096480	-2.991700	3.821100	-11.430000	22.875956	0.000441	20.924318
337.092136	-3.002300	3.820800	-11.471000	22.903333	0.000439	20.931356
338.092614	-2.999200	3.820500	-11.458000	22.911477	0.000441	20.925766
339.091399	-3.014000	3.820100	-11.512000	22.911278	0.000441	20.916558
340.093080	-2.990600	3.820800	-11.425000	22.932152	0.000441	20.916608
341.098864	-2.992200	3.820100	-11.429000	22.911553	0.000442	20.924893
342.093019	-2.992700	3.819700	-11.431000	22.917432	0.000442	20.936946
343.096318	-2.983700	3.820800	-11.399000	22.929787	0.000442	20.928937
344.093948	-2.993000	3.820600	-11.434000	22.938803	0.000443	20.938443
345.095007	-3.012000	3.819300	-11.503000	22.946127	0.000443	20.930134
346.097176	-3.014600	3.818500	-11.510000	22.947770	0.000444	20.923721
347.095281	-2.985000	3.819000	-11.399000	22.964061	0.000444	20.925817
348.094568	-3.000900	3.819700	-11.462000	22.940996	0.000445	20.924994
349.096788	-3.015800	3.817800	-11.512000	22.960175	0.000445	20.931407
350.095966	-2.999200	3.817700	-11.449000	22.979230	0.000446	20.932005
351.096817	-3.005700	3.818100	-11.475000	22.967274	0.000445	20.929510
352.098371	-3.010100	3.817800	-11.491000	22.975170	0.000444	20.950221
353.096419	-3.003300	3.818400	-11.467000	23.003490	0.000445	20.932605
354.096797	-2.996300	3.817300	-11.436000	22.983116	0.000447	20.942536
355.099153	-3.029900	3.817400	-11.565000	22.996368	0.000446	20.925943
356.095234	-2.987500	3.817200	-11.402000	22.994449	0.000446	20.954837
357.096852	-3.013000	3.817100	-11.499000	22.985931	0.000447	20.952941
358.095266	-2.992600	3.816300	-11.420000	23.008447	0.000446	20.962698
359.095773	-2.990600	3.817400	-11.416000	23.028796	0.000448	20.936623
360.098254	-2.997300	3.815900	-11.437000	23.018311	0.000448	20.945082
361.096738	-3.025800	3.814900	-11.541000	23.017216	0.000448	20.939718
362.096187	-2.996900	3.816400	-11.437000	23.012134	0.000448	20.954065
363.097688	-2.989100	3.816300	-11.406000	23.029070	0.000449	20.942112
364.097408	-3.015700	3.814800	-11.504000	23.042445	0.000448	20.955037
365.098011	-2.984900	3.815600	-11.387000	23.057813	0.000449	20.953840
366.097253	-3.008100	3.813200	-11.469000	23.049246	0.000448	20.942887
367.096260	-2.997900	3.814500	-11.435000	23.055521	0.000448	20.958182
368.099174	-2.992700	3.814200	-11.414000	23.061349	0.000449	20.949798
369.099000	-3.011800	3.813700	-11.485000	23.047152	0.000449	20.931782
370.097589	-3.015800	3.812900	-11.499000	23.069320	0.000448	20.948776
371.099131	-3.003000	3.814400	-11.454000	23.057538	0.000452	20.962099
372.099123	-2.998800	3.812700	-11.432000	23.088595	0.000451	20.945331
373.100032	-3.014900	3.812700	-11.494000	23.092729	0.000450	20.953740
374.100695	-2.992900	3.813300	-11.412000	23.096963	0.000451	20.953715
375.102463	-2.978200	3.813500	-11.357000	23.109865	0.000450	20.968537
376.104829	-2.981000	3.813200	-11.366000	23.102567	0.000451	20.953965
377.103003	-3.013900	3.810900	-11.484000	23.112629	0.000453	20.962773
378.104733	-3.020000	3.811900	-11.511000	23.136114	0.000452	20.955961
379.104468	-3.015900	3.811900	-11.496000	23.107051	0.000453	20.960028
380.104439	-3.001900	3.811600	-11.440000	23.122914	0.000452	20.962648
381.111230	-3.007200	3.812300	-11.464000	23.155539	0.000453	20.952193
382.105923	-2.996200	3.811300	-11.419000	23.141418	0.000456	20.953690
383.104880	-2.989400	3.811300	-11.393000	23.139477	0.000454	20.947004
384.107885	-2.967700	3.811200	-11.309000	23.148840	0.000454	20.957333
385.106118	-2.996200	3.811000	-11.417000	23.159250	0.000455	20.979615
386.106604	-2.998500	3.811800	-11.429000	23.148990	0.000454	20.993988
387.110411	-3.005600	3.809400	-11.448000	23.144208	0.000454	20.974027
388.107633	-3.007100	3.810100	-11.456000	23.175189	0.000453	20.977096
389.107953	-3.005900	3.809700	-11.451000	23.173944	0.000455	20.965892
390.111328	-3.003300	3.809700	-11.441000	23.166573	0.000455	20.976048
391.107499	-2.995800	3.808400	-11.408000	23.178850	0.000455	20.963223
392.109500	-2.997200	3.808700	-11.415000	23.182809	0.000456	20.955338
393.111705	-2.980900	3.809500	-11.354000	23.190953	0.000456	20.985306
394.109791	-2.965700	3.809700	-11.298000	23.192521	0.000457	20.997780
395.107843	-3.001900	3.809400	-11.435000	23.207588	0.000457	20.970684
396.112818	-2.999100	3.808700	-11.421000	23.181391	0.000458	20.981413
397.107687	-2.973500	3.807900	-11.321000	23.210925	0.000457	20.979242
398.108387	-3.011500	3.806000	-11.461000	23.215981	0.000458	20.970559
399.114441	-3.001000	3.806600	-11.423000	23.242377	0.000460	20.978519
400.107958	-2.992000	3.807400	-11.390000	23.220985	0.000457	20.977945
401.110671	-3.002600	3.806400	-11.427000	23.232565	0.000456	20.988124
402.112675	-2.987700	3.808500	-11.377000	23.252138	0.000458	20.974077
403.110169	-2.994100	3.806400	-11.396000	23.247954	0.000459	20.997382
404.111068	-2.996600	3.805000	-11.401000	23.248478	0.000459	20.978469
405.113066	-2.997700	3.807000	-11.411000	23.259410	0.000459	20.997008
406.108752	-3.005300	3.806100	-11.437000	23.246063	0.000459	20.995012
407.108880	-2.990500	3.806300	-11.382000	23.262622	0.000458	20.998331
408.113357	-3.006400	3.805300	-11.439000	23.265636	0.000459	20.984758
409.110147	-2.989900	3.805100	-11.375000	23.265163	0.000460	20.987602
410.111989	-3.017900	3.805300	-11.483000	23.281872	0.000461	20.982538
411.112623	-3.007900	3.804500	-11.443000	23.289941	0.000461	20.983986
412.111375	-3.004400	3.804500	-11.429000	23.312177	0.000461	20.994889
413.112052	-2.991100	3.804900	-11.380000	23.289045	0.000462	20.961280
414.115746	-3.000500	3.805500	-11.417000	23.274727	0.000460	20.983438
415.113989	-3.015700	3.804000	-11.471000	23.290764	0.000463	20.982441
416.112419	-3.001000	3.804300	-11.416000	23.301348	0.000462	20.989727
417.116176	-2.997000	3.803500	-11.397000	23.319226	0.000461	20.982042
418.116636	-3.000200	3.803100	-11.410000	23.309391	0.000463	20.991624
419.114023	-3.009900	3.802700	-11.445000	23.313102	0.000462	20.981594
420.116259	-2.985000	3.803500	-11.353000	23.320946	0.000464	20.970965
421.114994	-2.974400	3.802600	-11.310000	23.333819	0.000463	20.965375
422.116218	-3.000700	3.802400	-11.409000	23.341016	0.000463	20.987285
423.118082	-3.004800	3.802700	-11.425000	23.336435	0.000461	20.975583
424.118901	-3.002000	3.801600	-11.411000	23.354537	0.000464	20.988508
425.117630	-2.989300	3.801800	-11.364000	23.356779	0.000465	20.974636
426.117199	-2.994400	3.802000	-11.382000	23.351077	0.000463	20.991678
427.114898	-2.992200	3.802200	-11.376000	23.341243	0.000465	20.978030
428.122521	-3.001900	3.801300	-11.410000	23.350481	0.000467	20.957894
429.119468	-3.026300	3.800500	-11.500000	23.340746	0.000463	20.951457
430.117961	-3.021200	3.800000	-11.479000	23.377225	0.000465	20.963361
431.117552	-3.026700	3.799500	-11.499000	23.366220	0.000464	20.958970
432.119772	-3.002700	3.800000	-11.410000	23.362186	0.000465	20.960143
433.116404	-2.997300	3.799400	-11.388000	23.394256	0.000466	20.957673
434.120378	-2.993500	3.800300	-11.376000	23.384323	0.000465	20.958622
435.124739	-2.995200	3.799700	-11.380000	23.372172	0.000466	20.970623
436.118239	-3.012000	3.798200	-11.440000	23.381585	0.000465	20.971050
437.118595	-2.972500	3.800200	-11.295000	23.381686	0.000466	20.967357
438.122386	-2.985500	3.799000	-11.341000	23.394459	0.000466	20.966409
439.118941	-2.975400	3.799000	-11.303000	23.386044	0.000467	20.950391
440.120277	-2.994500	3.798300	-11.373000	23.382311	0.000468	20.965613
441.126041	-2.976500	3.798600	-11.305000	23.412761	0.000467	20.952039
442.121753	-3.021200	3.797000	-11.470000	23.409251	0.000467	20.956581
443.121477	-3.016200	3.796900	-11.451000	23.402779	0.000467	20.951043
444.123590	-3.014500	3.796900	-11.444000	23.412390	0.000467	20.948349
445.124090	-2.987300	3.796900	-11.341000	23.433579	0.000468	20.965316
446.122574	-3.022100	3.796300	-11.472000	23.425139	0.000470	20.956384
447.126390	-3.005600	3.796300	-11.409000	23.426460	0.000469	20.940167
448.123041	-3.007900	3.795000	-11.414000	23.431017	0.000470	20.943786
449.124139	-2.993700	3.796500	-11.364000	23.423971	0.000469	20.936725
450.133531	-2.996100	3.796100	-11.373000	23.431642	0.000470	20.951997
451.124868	-3.005200	3.795700	-11.406000	23.434306	0.000469	20.960356
452.123921	-2.984400	3.796100	-11.328000	23.455345	0.000471	20.952048
453.127342	-3.000400	3.794900	-11.385000	23.446981	0.000472	20.958837
454.125019	-3.006000	3.793900	-11.403000	23.458359	0.000470	20.930890
455.124735	-2.995500	3.793600	-11.362000	23.449696	0.000471	20.950653
456.127275	-2.987700	3.794600	-11.336000	23.475141	0.000469	20.945813
457.125649	-3.006500	3.794200	-11.406000	23.472826	0.000471	20.944442
458.126345	-2.999600	3.793800	-11.379000	23.473674	0.000469	20.952402
459.128858	-2.981300	3.793200	-11.307000	23.487516	0.000471	20.953001
460.126298	-3.006600	3.792600	-11.402000	23.481965	0.000472	20.947437
461.127171	-3.019200	3.793200	-11.452000	23.494639	0.000472	20.935487
462.133674	-3.012800	3.793200	-11.427000	23.494913	0.000472	20.939554
463.127454	-2.996600	3.791700	-11.361000	23.485005	0.000471	20.932943
464.128589	-3.020400	3.791800	-11.452000	23.505396	0.000473	20.944846
465.131562	-2.992500	3.791400	-11.344000	23.504675	0.000472	20.934641
466.128659	-3.000500	3.790300	-11.372000	23.502808	0.000474	20.962164
467.129265	-2.996600	3.791100	-11.359000	23.515407	0.000473	20.932597
468.133180	-3.003200	3.790400	-11.381000	23.505149	0.000472	20.927057
469.130250	-2.978700	3.790900	-11.291000	23.511275	0.000471	20.941257
470.128841	-2.994000	3.791900	-11.352000	23.514611	0.000472	20.924688
471.132635	-3.003400	3.790100	-11.382000	23.544810	0.000473	20.939786
472.131409	-2.987500	3.790200	-11.322000	23.533135	0.000473	20.933299
473.129616	-2.994700	3.789500	-11.346000	23.517850	0.000474	20.926038
474.135516	-3.017100	3.790700	-11.436000	23.541676	0.000474	20.933326
475.132524	-2.984800	3.789800	-11.311000	23.527760	0.000476	20.932652
476.131775	-2.960300	3.789600	-11.218000	23.550167	0.000474	20.934724
477.133098	-2.991900	3.789800	-11.338000	23.526889	0.000474	20.938416
478.131194	-3.004000	3.788700	-11.381000	23.576406	0.000475	20.936846
479.132992	-2.992400	3.788500	-11.335000	23.538915	0.000475	20.901638
480.134382	-3.008000	3.788100	-11.393000	23.553106	0.000475	20.931507
481.134041	-3.016000	3.787200	-11.421000	23.580194	0.000476	20.898447
482.132983	-2.965700	3.789200	-11.237000	23.585197	0.000476	20.914366
483.134105	-2.975600	3.788700	-11.272000	23.570709	0.000475	20.912645
484.135888	-2.992400	3.788200	-11.335000	23.578129	0.000475	20.933831
485.134970	-2.987100	3.787400	-11.312000	23.576685	0.000475	20.919583
486.133810	-2.971800	3.787000	-11.253000	23.576861	0.000476	20.920234
487.134132	-2.992200	3.786100	-11.328000	23.591972	0.000475	20.929217
488.134453	-2.992400	3.786300	-11.329000	23.597425	0.000477	20.920934
489.137164	-3.006900	3.785800	-11.382000	23.597526	0.000475	20.928147
490.134749	-2.989100	3.785600	-11.315000	23.579403	0.000477	20.920886
491.134756	-3.016600	3.786200	-11.420000	23.584483	0.000478	20.919814
492.141415	-2.999500	3.784100	-11.350000	23.615800	0.000477	20.898580
493.137213	-2.997100	3.783900	-11.340000	23.591704	0.000478	20.901451
494.136628	-3.000300	3.783200	-11.350000	23.599596	0.000477	20.917421
495.141403	-3.015600	3.783300	-11.407000	23.601613	0.000476	20.941252
496.137990	-2.989800	3.783900	-11.312000	23.610849	0.000476	20.913530
497.137650	-3.039100	3.783200	-11.496000	23.612144	0.000476	20.907716
498.141827	-3.003600	3.782300	-11.359000	23.621307	0.000476	20.892721
499.139550	-3.010900	3.782700	-11.388000	23.625540	0.000480	20.914506
500.137869	-3.001300	3.783900	-11.355000	23.636392	0.000477	20.895516
501.141053	-2.988400	3.782700	-11.303000	23.641746	0.000478	20.913684
502.140157	-3.006700	3.781300	-11.368000	23.627608	0.000477	20.911364
503.139262	-2.998300	3.781100	-11.335000	23.626240	0.000478	20.897192
504.141197	-2.979600	3.782800	-11.271000	23.633136	0.000479	20.915957
505.139366	-2.996400	3.781000	-11.328000	23.654768	0.000479	20.921522
506.138904	-3.006100	3.780000	-11.362000	23.635949	0.000478	20.927785
507.139349	-2.998400	3.780300	-11.334000	23.656934	0.000478	20.895247
508.143355	-2.994700	3.781200	-11.322000	23.668835	0.000479	20.914762
509.142631	-2.995700	3.779900	-11.323000	23.655418	0.000479	20.905580
510.142876	-3.017100	3.780300	-11.404000	23.663781	0.000480	20.889310
511.145564	-2.992700	3.779700	-11.310000	23.664828	0.000480	20.917857
512.145910	-3.007300	3.779300	-11.365000	23.656016	0.000479	20.909973
513.147308	-2.999100	3.778300	-11.329000	23.682926	0.000479	20.895226
514.143817	-2.977400	3.779500	-11.253000	23.656491	0.000481	20.898595
515.141971	-2.995000	3.779600	-11.318000	23.670829	0.000479	20.917236
516.150587	-3.010100	3.777400	-11.369000	23.695523	0.000483	20.879408
517.142502	-3.005300	3.778500	-11.354000	23.711355	0.000481	20.899072
518.143718	-2.989800	3.778400	-11.295000	23.708343	0.000481	20.906957
519.148407	-2.996700	3.778000	-11.320000	23.693757	0.000481	20.915092
520.142221	-2.981000	3.777500	-11.260000	23.711107	0.000482	20.894082
521.142317	-2.979300	3.778300	-11.256000	23.716507	0.000482	20.901866
522.143999	-2.997500	3.777500	-11.322000	23.705631	0.000481	20.912772
523.142151	-2.988200	3.776900	-11.285000	23.705282	0.000481	20.901992
524.143634	-2.998300	3.777400	-11.325000	23.713696	0.000481	20.899522
525.146768	-2.980900	3.777300	-11.259000	23.727237	0.000483	20.895555
526.143475	-2.991100	3.776300	-11.294000	23.723204	0.000481	20.896253
527.145552	-2.987000	3.776400	-11.279000	23.734729	0.000482	20.900221
528.150558	-2.997700	3.776000	-11.319000	23.734978	0.000481	20.883876
529.147997	-3.008900	3.773500	-11.352000	23.711903	0.000481	20.901992
530.150446	-3.006300	3.774500	-11.345000	23.736868	0.000483	20.891935
531.151557	-3.014700	3.774300	-11.378000	23.733360	0.000484	20.890315
532.150072	-3.002400	3.774700	-11.332000	23.768056	0.000482	20.893807
533.149592	-2.995800	3.773600	-11.303000	23.755637	0.000484	20.899373
534.152597	-2.976000	3.774700	-11.233000	23.778337	0.000483	20.916441
535.149980	-2.977700	3.775300	-11.241000	23.766465	0.000482	20.883203
536.152411	-3.001500	3.773300	-11.325000	23.757155	0.000482	20.879085
537.152565	-2.991600	3.772800	-11.285000	23.765768	0.000484	20.891513
538.152222	-3.000900	3.773500	-11.322000	23.773509	0.000482	20.904488
539.151028	-3.005800	3.772200	-11.337000	23.775451	0.000483	20.898376
540.153739	-2.998600	3.771500	-11.308000	23.770173	0.000484	20.880284
541.152108	-3.002800	3.771900	-11.325000	23.781051	0.000484	20.895457
542.149959	-3.001400	3.771800	-11.320000	23.787272	0.000485	20.894582
543.152321	-3.011300	3.771900	-11.357000	23.800340	0.000483	20.908157
544.152500	-2.975300	3.772900	-11.224000	23.775874	0.000484	20.895481
545.156154	-2.997400	3.770500	-11.301000	23.786553	0.000485	20.888645
546.155404	-3.008400	3.770600	-11.343000	23.788442	0.000484	20.906184
547.152658	-3.007300	3.769100	-11.334000	23.804196	0.000486	20.897800
548.153935	-2.992400	3.770400	-11.282000	23.785381	0.000484	20.899323
549.154469	-3.001100	3.770800	-11.315000	23.807207	0.000483	20.911249
550.156768	-2.995300	3.769600	-11.290000	23.793320	0.000485	20.890214
551.152926	-3.000200	3.769100	-11.307000	23.807606	0.000486	20.891262
552.157542	-2.988000	3.769400	-11.262000	23.796058	0.000485	20.891537
553.154931	-3.006200	3.768700	-11.329000	23.826695	0.000485	20.886695
554.155303	-2.986500	3.769200	-11.255000	23.791625	0.000487	20.895627
555.156128	-3.012600	3.767900	-11.350000	23.842573	0.000484	20.885072
556.154203	-2.980800	3.767500	-11.230000	23.839736	0.000486	20.905933
557.155366	-2.987100	3.767600	-11.253000	23.823508	0.000485	20.888240
558.157562	-2.991800	3.768900	-11.275000	23.827589	0.000484	20.880479
559.153895	-2.979500	3.767000	-11.222000	23.839509	0.000486	20.885793
560.156322	-3.006800	3.766600	-11.324000	23.854966	0.000484	20.897023
561.159373	-3.000100	3.765600	-11.297000	23.835055	0.000485	20.892705
562.154561	-2.967200	3.767200	-11.177000	23.832963	0.000486	20.897246
563.154567	-2.993700	3.766200	-11.273000	23.839906	0.000486	20.909897
564.157394	-3.000200	3.767000	-11.300000	23.837069	0.000487	20.909897
565.155692	-3.013600	3.765000	-11.345000	23.856904	0.000487	20.878105
566.156778	-3.014600	3.765700	-11.351000	23.867904	0.000484	20.889608
567.162062	-3.016800	3.764800	-11.357000	23.860014	0.000485	20.870793
568.155623	-3.006600	3.765000	-11.319000	23.882388	0.000485	20.881847
569.159049	-2.997500	3.765000	-11.284000	23.842865	0.000484	20.872090
570.158368	-3.020400	3.763800	-11.367000	23.907922	0.000485	20.895122
571.159898	-3.010600	3.764600	-11.333000	23.873353	0.000485	20.887959
572.161327	-3.002600	3.763300	-11.299000	23.883009	0.000485	20.863504
573.161319	-2.991900	3.764100	-11.261000	23.892714	0.000488	20.883666
574.159655	-3.011200	3.762400	-11.329000	23.880271	0.000487	20.885413
575.159831	-2.998700	3.762500	-11.281000	23.890798	0.000485	20.886012
576.162839	-3.018900	3.762000	-11.355000	23.876761	0.000486	20.875257
577.161923	-2.988000	3.763400	-11.244000	23.910681	0.000485	20.888881
578.161136	-2.992100	3.761800	-11.255000	23.908740	0.000487	20.880297
579.170417	-2.980600	3.761800	-11.211000	23.905306	0.000484	20.885387
580.168159	-3.001700	3.761900	-11.291000	23.893981	0.000485	20.864076
581.164061	-2.987200	3.762900	-11.240000	23.888730	0.000484	20.864974
582.167551	-3.015600	3.760800	-11.340000	23.919340	0.000486	20.882865
583.165275	-2.998800	3.760900	-11.278000	23.926309	0.000484	20.872784
584.166183	-3.006800	3.758500	-11.299000	23.934273	0.000486	20.864649
585.170377	-2.991100	3.759600	-11.245000	23.934870	0.000485	20.869041
586.167730	-2.991700	3.759900	-11.247000	23.942485	0.000483	20.863401
587.165530	-2.992600	3.759500	-11.250000	23.951069	0.000483	20.876276
588.172065	-3.012600	3.758700	-11.323000	23.937457	0.000485	20.872110
589.166399	-2.986400	3.759500	-11.227000	23.949502	0.000485	20.877549
590.169331	-2.996500	3.757800	-11.260000	23.941139	0.000485	20.852570
591.169549	-3.004200	3.757600	-11.288000	23.969956	0.000486	20.859182
592.167273	-3.026400	3.758300	-11.373000	23.948381	0.000484	20.862202
593.166292	-2.996900	3.757400	-11.259000	23.972295	0.000484	20.864372
594.170311	-3.006100	3.757500	-11.295000	23.961098	0.000485	20.870212
595.169843	-2.991700	3.757900	-11.241000	23.953953	0.000485	20.869686
596.166434	-3.003700	3.755300	-11.279000	23.960249	0.000485	20.847077
597.173121	-2.991700	3.757800	-11.241000	23.947608	0.000485	20.855737
598.170563	-2.995900	3.757300	-11.255000	23.978862	0.000486	20.859578
599.170696	-2.996300	3.755600	-11.252000	23.965124	0.000486	20.875672
600.174582	-3.005300	3.754500	-11.283000	23.963631	0.000485	20.865166
601.173906	-2.993900	3.755200	-11.242000	23.975625	0.000486	20.862022
602.173426	-2.987500	3.755900	-11.220000	23.984609	0.000486	20.842582
603.176765	-3.007100	3.755600	-11.293000	23.978213	0.000484	20.869358
604.173757	-3.001800	3.755800	-11.273000	23.985406	0.000486	20.837218
605.173087	-3.003200	3.754300	-11.274000	23.996279	0.000485	20.876095
606.177171	-2.989700	3.755800	-11.228000	23.993965	0.000484	20.858602
607.174506	-2.995900	3.753900	-11.245000	23.985429	0.000486	20.866163
608.176915	-3.002800	3.753300	-11.269000	23.992223	0.000484	20.870131
609.175882	-3.004000	3.754400	-11.277000	23.999265	0.000485	20.867710
610.173162	-2.966600	3.754200	-11.137000	23.999090	0.000485	20.877017
611.174421	-3.009800	3.752700	-11.294000	24.012875	0.000484	20.869505
612.177061	-3.013800	3.752200	-11.307000	24.024820	0.000486	20.877691
613.176809	-3.011600	3.752100	-11.298000	24.014145	0.000485	20.861295
614.175629	-3.007900	3.752100	-11.284000	24.008744	0.000485	20.849242
615.177042	-3.001000	3.752400	-11.261000	24.012427	0.000486	20.843927
616.174670	-2.998100	3.751400	-11.246000	24.016036	0.000486	20.848968
617.175127	-2.988600	3.752800	-11.214000	24.014119	0.000486	20.869804
618.181939	-3.001800	3.751600	-11.261000	24.046343	0.000485	20.874145
619.176430	-2.999000	3.750400	-11.246000	24.038879	0.000486	20.851488
620.175757	-2.991200	3.750500	-11.218000	24.051569	0.000483	20.845723
621.177087	-3.001600	3.750200	-11.256000	24.049875	0.000486	20.836438
622.174997	-2.978900	3.751100	-11.172000	24.033777	0.000486	20.847793
623.175040	-3.000400	3.749200	-11.247000	24.050275	0.000485	20.854856
624.178466	-3.009300	3.749600	-11.282000	24.048184	0.000484	20.860819
625.175061	-3.013800	3.747800	-11.295000	24.023423	0.000485	20.863014
626.174697	-2.988600	3.749300	-11.204000	24.073789	0.000485	20.844299
627.175603	-3.004900	3.747600	-11.261000	24.042411	0.000484	20.850289
628.174270	-2.981500	3.748300	-11.173000	24.043779	0.000484	20.836488
629.176447	-2.999900	3.747900	-11.241000	24.044923	0.000484	20.851385
630.179413	-2.989800	3.747600	-11.203000	24.040916	0.000484	20.842626
631.175731	-3.007300	3.746100	-11.265000	24.068736	0.000484	20.849663
632.175739	-3.012800	3.746500	-11.286000	24.069034	0.000484	20.839057
633.178463	-2.990300	3.747700	-11.206000	24.057239	0.000483	20.842875
634.176211	-2.990700	3.745300	-11.200000	24.061394	0.000483	20.821912
635.174166	-2.971100	3.746600	-11.131000	24.065052	0.000484	20.820365
636.179340	-2.988800	3.747000	-11.198000	24.079284	0.000485	20.841750
637.175055	-2.993200	3.746700	-11.213000	24.095583	0.000483	20.842923
638.183091	-3.015400	3.744500	-11.291000	24.068983	0.000481	20.829523
639.178091	-2.992700	3.745300	-11.207000	24.060398	0.000484	20.845095
640.177280	-3.002800	3.743500	-11.240000	24.071271	0.000483	20.843671
641.178088	-3.012600	3.743600	-11.277000	24.065398	0.000483	20.841100
642.181743	-2.999600	3.745600	-11.234000	24.098766	0.000480	20.840900
643.178872	-3.002500	3.743800	-11.240000	24.091153	0.000484	20.857446
644.181169	-2.978800	3.744800	-11.154000	24.086649	0.000482	20.853877
645.183332	-2.990800	3.743200	-11.193000	24.091476	0.000482	20.822684
646.182702	-2.996900	3.742800	-11.216000	24.097696	0.000482	20.833189
647.183033	-2.991500	3.743900	-11.199000	24.107973	0.000480	20.825479
648.186189	-3.020000	3.742000	-11.300000	24.104364	0.000483	20.852205
649.183718	-2.986700	3.742900	-11.178000	24.104538	0.000483	20.844793
650.187186	-3.012400	3.743400	-11.275000	24.094286	0.000481	20.853002
651.186806	-3.003600	3.741100	-11.236000	24.109564	0.000481	20.819962
652.186589	-3.010000	3.740200	-11.257000	24.126808	0.000483	20.842946
653.190816	-3.004400	3.740400	-11.237000	24.092269	0.000480	20.821109
654.188385	-2.987200	3.741000	-11.173000	24.118745	0.000482	20.832015
655.185925	-2.993100	3.740000	-11.194000	24.116604	0.000482	20.796678
656.186639	-3.001900	3.740100	-11.226000	24.112823	0.000481	20.829869
657.188561	-2.997400	3.739600	-11.208000	24.136212	0.000483	20.841947
658.186134	-3.007300	3.739100	-11.244000	24.111181	0.000482	20.825851
659.187514	-3.012200	3.738100	-11.258000	24.108767	0.000482	20.836706
660.188896	-3.008200	3.738900	-11.245000	24.131558	0.000480	20.820684
661.188790	-2.976000	3.739400	-11.127000	24.129544	0.000481	20.822931
662.188363	-2.981900	3.738600	-11.147000	24.122377	0.000481	20.836132
663.188429	-2.982600	3.739600	-11.152000	24.139918	0.000481	20.821483
664.187540	-2.997600	3.738300	-11.205000	24.140715	0.000481	20.822756
665.189922	-3.005400	3.736700	-11.230000	24.133125	0.000479	20.809454
666.189422	-3.012600	3.737000	-11.257000	24.156066	0.000480	20.804014
667.189869	-2.980100	3.737600	-11.137000	24.129294	0.000479	20.809879
668.193670	-2.993100	3.737400	-11.184000	24.139247	0.000482	20.825551
669.193695	-3.018800	3.735900	-11.277000	24.163953	0.000483	20.825200
670.191701	-3.013000	3.735300	-11.254000	24.166242	0.000481	20.828445
671.189872	-2.994100	3.736100	-11.185000	24.143601	0.000478	20.826125
672.194325	-3.003600	3.736400	-11.222000	24.169177	0.000480	20.811948
673.192738	-2.999400	3.735100	-11.202000	24.150839	0.000480	20.822479
674.194170	-2.970000	3.735700	-11.094000	24.151089	0.000479	20.835057
675.197875	-2.990100	3.735200	-11.167000	24.175149	0.000480	20.816515
676.193985	-2.997300	3.734700	-11.193000	24.161066	0.000480	20.819460
677.195038	-3.004600	3.734200	-11.218000	24.167061	0.000479	20.816939
678.196726	-2.995200	3.734400	-11.185000	24.175273	0.000480	20.811898
679.194172	-2.995100	3.734300	-11.184000	24.187462	0.000478	20.808952
680.195498	-2.986400	3.733200	-11.147000	24.170817	0.000480	20.816913
681.196121	-3.000100	3.734400	-11.202000	24.175046	0.000479	20.820680
682.194746	-3.000500	3.733100	-11.200000	24.190372	0.000482	20.809025
683.193665	-2.992000	3.733500	-11.169000	24.171314	0.000478	20.802238
684.196258	-2.995600	3.732500	-11.179000	24.168799	0.000481	20.772215
685.198146	-3.007000	3.731000	-11.217000	24.182110	0.000479	20.813541
686.197598	-2.997100	3.732200	-11.185000	24.185520	0.000479	20.800365
687.200500	-3.015800	3.731600	-11.253000	24.188704	0.000481	20.807826
688.197633	-2.992400	3.730900	-11.162000	24.178949	0.000479	20.809422
689.197922	-3.000000	3.732000	-11.195000	24.195595	0.000479	20.823273
690.203758	-3.015200	3.730500	-11.247000	24.187284	0.000479	20.817308
691.196666	-3.001100	3.730600	-11.195000	24.194523	0.000479	20.817456
692.196846	-3.005300	3.729800	-11.208000	24.188926	0.000479	20.807575
693.200599	-3.017400	3.730200	-11.253000	24.215101	0.000478	20.813440
694.197804	-3.012100	3.729500	-11.233000	24.217937	0.000477	20.819130
695.195916	-3.012800	3.729700	-11.236000	24.215672	0.000477	20.800262
696.198431	-2.981400	3.728400	-11.115000	24.204202	0.000477	20.803931
697.196774	-3.004400	3.730200	-11.206000	24.225051	0.000479	20.810618
698.196393	-2.993800	3.727500	-11.158000	24.220449	0.000478	20.800312
699.199419	-2.981700	3.728400	-11.116000	24.224876	0.000477	20.800960
700.197810	-3.005400	3.727200	-11.200000	24.218383	0.000480	20.802508
701.198298	-3.001100	3.728300	-11.188000	24.204823	0.000476	20.815933
702.200948	-3.016000	3.727600	-11.241000	24.206862	0.000477	20.820349
703.200226	-2.993300	3.728700	-11.160000	24.214077	0.000477	20.818103
704.201928	-3.015300	3.726700	-11.236000	24.219177	0.000477	20.812788
705.200412	-3.002500	3.727600	-11.191000	24.247241	0.000478	20.817703
706.201386	-3.007300	3.725600	-11.202000	24.220644	0.000478	20.806672
707.201089	-3.001500	3.726800	-11.183000	24.232935	0.000475	20.831328
708.200176	-2.988800	3.725600	-11.133000	24.222634	0.000476	20.826686
709.203115	-2.989800	3.725500	-11.137000	24.236367	0.000478	20.797313
710.199092	-2.974800	3.724900	-11.080000	24.241716	0.000476	20.806472
711.198905	-2.995100	3.723800	-11.151000	24.241841	0.000478	20.810390
712.201960	-3.012600	3.724100	-11.218000	24.218752	0.000477	20.814258
713.200505	-2.995500	3.724400	-11.156000	24.244726	0.000475	20.819448
714.198421	-2.999000	3.723500	-11.165000	24.239377	0.000475	20.782788
715.200943	-2.975600	3.725200	-11.084000	24.277143	0.000479	20.791748
716.202084	-3.021600	3.724500	-11.253000	24.258383	0.000476	20.816552
717.202008	-2.982300	3.724500	-11.107000	24.253507	0.000475	20.788427
718.204175	-2.999300	3.723900	-11.169000	24.252338	0.000478	20.810488
719.201205	-3.008500	3.724200	-11.203000	24.229623	0.000475	20.784384
720.202653	-3.013000	3.722000	-11.213000	24.252635	0.000476	20.811260
721.206293	-2.983500	3.722300	-11.105000	24.260372	0.000475	20.805745
722.202749	-3.005200	3.721900	-11.184000	24.270423	0.000477	20.789274
723.201075	-3.016300	3.721600	-11.225000	24.266866	0.000474	20.787128
724.205676	-2.984800	3.722600	-11.109000	24.274951	0.000475	20.806144
725.201056	-2.983600	3.722700	-11.106000	24.247210	0.000477	20.795387
726.202581	-3.002400	3.721600	-11.173000	24.282464	0.000477	20.827904
727.203929	-2.982900	3.720900	-11.098000	24.274578	0.000475	20.811460
728.202929	-2.963800	3.722300	-11.031000	24.266094	0.000475	20.783510
729.202875	-2.995600	3.720800	-11.145000	24.285747	0.000475	20.814128
730.203926	-2.978300	3.720800	-11.080000	24.275224	0.000477	20.814004
731.204603	-2.998400	3.719900	-11.153000	24.271119	0.000475	20.819844
732.203969	-2.995300	3.719000	-11.138000	24.312790	0.000473	20.812332
733.206072	-3.013700	3.720200	-11.211000	24.294554	0.000474	20.807316
734.206292	-2.984800	3.718800	-11.099000	24.282164	0.000474	20.828078
735.205506	-3.032300	3.717000	-11.270000	24.291992	0.000474	20.794315
736.206084	-2.983500	3.718600	-11.093000	24.289206	0.000474	20.789623
737.206507	-3.005200	3.718100	-11.173000	24.288259	0.000473	20.805743
738.203979	-3.000700	3.718000	-11.156000	24.312439	0.000473	20.809610
739.205973	-2.990500	3.716700	-11.114000	24.315375	0.000474	20.814925
740.207001	-2.991000	3.717900	-11.119000	24.316893	0.000473	20.798905
741.211568	-3.022500	3.716500	-11.233000	24.311020	0.000472	20.789220
742.205765	-3.021500	3.715100	-11.223000	24.321469	0.000472	20.814400
743.206275	-3.023900	3.716900	-11.238000	24.330375	0.000471	20.822860
744.209565	-3.028000	3.715500	-11.249000	24.307960	0.000472	20.810806
745.208207	-3.014500	3.715800	-11.200000	24.321269	0.000473	20.808510
746.208679	-3.003900	3.715200	-11.159000	24.320100	0.000472	20.813501
747.208221	-2.959100	3.717100	-10.998000	24.297312	0.000471	20.815772
748.208188	-2.982200	3.715800	-11.080000	24.331865	0.000472	20.813923
749.208547	-2.990800	3.715900	-11.113000	24.319675	0.000472	20.819713
750.212384	-2.992100	3.715100	-11.114000	24.332114	0.000470	20.830294
751.209574	-2.993000	3.714100	-11.114000	24.349924	0.000471	20.834410
752.208265	-2.974700	3.714500	-11.049000	24.312334	0.000469	20.808082
753.208203	-2.988900	3.714500	-11.102000	24.314499	0.000470	20.809779
754.210294	-2.953400	3.715800	-10.974000	24.329102	0.000471	20.811152
755.208534	-3.006500	3.713800	-11.165000	24.344103	0.000470	20.816242
756.208806	-3.009800	3.713100	-11.175000	24.335494	0.000470	20.800495
757.213385	-3.016000	3.713200	-11.198000	24.335719	0.000469	20.816841
758.215157	-2.992400	3.712700	-11.109000	24.357088	0.000469	20.819785
759.208925	-3.007500	3.712400	-11.164000	24.347437	0.000470	20.809156
760.211028	-2.996200	3.711900	-11.121000	24.353730	0.000470	20.813097
761.213971	-2.973900	3.713200	-11.042000	24.348481	0.000468	20.815418
762.210385	-3.013500	3.710800	-11.181000	24.358207	0.000467	20.820908
763.210104	-3.002200	3.710900	-11.140000	24.373656	0.000468	20.828346
764.213604	-2.992900	3.712300	-11.109000	24.369179	0.000469	20.800147
765.212684	-3.013800	3.710800	-11.182000	24.366268	0.000466	20.829943
766.214570	-3.019800	3.710300	-11.204000	24.372959	0.000469	20.812000
767.216603	-2.993300	3.710000	-11.104000	24.353780	0.000468	20.848235
768.214149	-3.014100	3.709600	-11.180000	24.357934	0.000467	20.811625
769.212234	-3.006200	3.710500	-11.154000	24.364303	0.000466	20.833661
770.216578	-3.014600	3.709500	-11.182000	24.367636	0.000467	20.845065
771.215196	-2.993100	3.710000	-11.103000	24.372462	0.000468	20.838527
772.215065	-3.013400	3.708400	-11.174000	24.379725	0.000467	20.820684
773.219965	-2.996900	3.710100	-11.118000	24.397089	0.000464	20.823404
774.223319	-2.999200	3.709800	-11.125000	24.368084	0.000466	20.825601
775.216177	-3.004600	3.708800	-11.143000	24.384302	0.000466	20.820059
776.220703	-3.019300	3.707300	-11.192000	24.396616	0.000466	20.841895
777.217699	-2.994100	3.708100	-11.102000	24.397561	0.000465	20.846636
778.216562	-2.978500	3.708200	-11.043000	24.377908	0.000465	20.852525
779.220810	-2.967500	3.707500	-11.000000	24.388754	0.000467	20.848707
780.217774	-2.992000	3.707200	-11.091000	24.405819	0.000464	20.834533
781.218552	-3.006300	3.706500	-11.142000	24.400695	0.000465	20.821805
782.220329	-3.004900	3.706000	-11.135000	24.402161	0.000466	20.828966
783.217898	-3.015100	3.705600	-11.172000	24.381913	0.000464	20.853697
784.219275	-2.975900	3.706700	-11.030000	24.399475	0.000463	20.836229
785.223210	-2.967500	3.707800	-11.002000	24.410519	0.000463	20.835928
786.220679	-2.978300	3.705100	-11.034000	24.403479	0.000464	20.835978
787.221791	-2.999700	3.704300	-11.111000	24.397036	0.000463	20.837575
788.223145	-2.994400	3.705700	-11.095000	24.412956	0.000464	20.841218
789.219650	-2.997300	3.704000	-11.101000	24.425791	0.000464	20.840344
790.221505	-2.993000	3.705500	-11.089000	24.437631	0.000463	20.815714
791.225327	-3.018400	3.704000	-11.180000	24.432754	0.000464	20.850174
792.224171	-3.009400	3.704200	-11.146000	24.411238	0.000463	20.833331
793.221435	-3.008100	3.705700	-11.146000	24.425541	0.000461	20.860007
794.238181	-2.998600	3.704100	-11.107000	24.428699	0.000462	20.858434
795.224944	-2.981200	3.703200	-11.039000	24.433227	0.000460	20.834528
796.224767	-3.017300	3.701800	-11.169000	24.422828	0.000460	20.843536
797.227635	-2.993100	3.702400	-11.081000	24.425116	0.000459	20.829710
798.224374	-3.018300	3.701400	-11.171000	24.452652	0.000461	20.832205
799.223897	-3.009600	3.701600	-11.139000	24.448125	0.000460	20.860378
800.230945	-2.991200	3.702500	-11.073000	24.442801	0.000460	20.852667
801.226506	-2.979700	3.702200	-11.031000	24.427752	0.000460	20.830458
802.226413	-2.993500	3.702000	-11.081000	24.439368	0.000458	20.851120
803.230806	-2.998900	3.700100	-11.095000	24.450985	0.000460	20.849498
804.228067	-2.999200	3.701000	-11.099000	24.446458	0.000460	20.846853
805.227798	-2.995700	3.701300	-11.087000	24.455735	0.000460	20.839565
806.231898	-2.998200	3.700400	-11.093000	24.455064	0.000459	20.861650
807.228311	-2.999600	3.700300	-11.098000	24.452825	0.000461	20.857034
808.228026	-3.001000	3.700200	-11.102000	24.463595	0.000459	20.857407
809.231339	-3.020500	3.700200	-11.175000	24.449069	0.000458	20.846154
810.230628	-3.024600	3.698900	-11.187000	24.473272	0.000457	20.872330
811.228712	-3.010900	3.699700	-11.139000	24.469739	0.000457	20.853614
812.231373	-2.993000	3.699500	-11.072000	24.460212	0.000460	20.841212
813.229569	-3.001400	3.700300	-11.105000	24.458049	0.000455	20.854214
814.230402	-3.008000	3.699100	-11.125000	24.490434	0.000456	20.860626
815.231617	-3.003400	3.697900	-11.105000	24.471133	0.000455	20.871133
816.229218	-3.005300	3.698700	-11.115000	24.466954	0.000456	20.855087
817.230069	-2.984400	3.699000	-11.039000	24.457627	0.000453	20.855687
818.235331	-2.995200	3.698200	-11.076000	24.489564	0.000455	20.837470
819.229263	-3.019700	3.697800	-11.165000	24.462229	0.000455	20.850347
820.229726	-3.015300	3.696600	-11.145000	24.483719	0.000457	20.855312
821.235453	-2.999900	3.695900	-11.087000	24.490436	0.000455	20.861102
822.231878	-3.012300	3.697000	-11.135000	24.489292	0.000454	20.851421
823.231275	-2.988300	3.697600	-11.049000	24.506605	0.000455	20.867368
824.233096	-3.012500	3.696600	-11.135000	24.492352	0.000454	20.855913
825.232197	-2.986800	3.696300	-11.039000	24.475738	0.000451	20.866270
826.232718	-3.005300	3.696200	-11.107000	24.506208	0.000453	20.862702
827.233235	-2.995000	3.696800	-11.071000	24.507378	0.000454	20.856289
828.231790	-3.022900	3.695900	-11.170000	24.509866	0.000454	20.844087
829.238074	-3.001300	3.695400	-11.090000	24.510961	0.000453	20.845186
830.236717	-2.997200	3.696100	-11.076000	24.500091	0.000455	20.829065
831.234448	-2.993500	3.694300	-11.057000	24.473552	0.000453	20.865974
832.241172	-2.993500	3.694900	-11.059000	24.531681	0.000453	20.871663
833.235814	-2.996300	3.694000	-11.067000	24.517081	0.000453	20.871239
834.234338	-3.015000	3.693200	-11.133000	24.516036	0.000451	20.852648
835.241023	-2.992100	3.694200	-11.052000	24.518524	0.000451	20.870317
836.236550	-3.004700	3.693400	-11.096000	24.514594	0.000452	20.862106
837.235035	-3.012400	3.691900	-11.121000	24.517977	0.000451	20.881147
838.239213	-2.987000	3.693100	-11.029000	24.515540	0.000452	20.840771
839.237920	-2.977700	3.692800	-10.995000	24.511137	0.000450	20.866699
840.236398	-2.981100	3.693500	-11.010000	24.518053	0.000450	20.842344
841.238615	-2.995500	3.692000	-11.058000	24.520739	0.000449	20.841720
842.238407	-2.987100	3.691600	-11.026000	24.520515	0.000450	20.860935
843.237752	-3.009700	3.691400	-11.109000	24.529867	0.000450	20.881696
844.244000	-2.995500	3.692000	-11.059000	24.528847	0.000449	20.867872
845.239486	-3.034600	3.690200	-11.198000	24.537056	0.000450	20.848134
846.245286	-2.976400	3.692400	-10.988000	24.540190	0.000450	20.857916
847.241794	-3.007400	3.690400	-11.097000	24.525093	0.000448	20.880225
848.248779	-3.012100	3.689600	-11.112000	24.532555	0.000447	20.874436
849.245656	-2.998400	3.690900	-11.066000	24.537505	0.000449	20.857593
850.243170	-2.996400	3.690100	-11.056000	24.540415	0.000448	20.864779
851.241542	-3.002600	3.689800	-11.077000	24.561159	0.000450	20.865205
852.244925	-2.995800	3.689500	-11.052000	24.533801	0.000449	20.876634
853.243205	-2.988000	3.690100	-11.024000	24.544794	0.000447	20.870595
854.243512	-2.979900	3.689600	-10.993000	24.564517	0.000447	20.871892
855.247522	-3.018700	3.688400	-11.133000	24.565513	0.000447	20.887115
856.244719	-2.994200	3.688500	-11.043000	24.564990	0.000451	20.881850
857.243828	-2.996200	3.687900	-11.048000	24.556933	0.000449	20.879929
858.243032	-3.016400	3.687600	-11.122000	24.564767	0.000447	20.883996
859.246704	-3.031400	3.686800	-11.175000	24.556112	0.000445	20.897122
860.244658	-2.999900	3.687100	-11.060000	24.565738	0.000446	20.884496
861.248371	-3.019800	3.686200	-11.130000	24.554272	0.000447	20.886742
862.247154	-3.007900	3.687400	-11.090000	24.571982	0.000446	20.857098
863.244459	-3.002100	3.687100	-11.068000	24.553576	0.000447	20.865657
864.246096	-2.994300	3.687300	-11.040000	24.571733	0.000444	20.876288
865.245222	-2.993800	3.685800	-11.033000	24.573648	0.000447	20.888640
866.246776	-2.986100	3.687500	-11.011000	24.591457	0.000445	20.878060
867.247541	-3.001800	3.685000	-11.061000	24.584344	0.000446	20.891310
868.245984	-3.019200	3.685100	-11.125000	24.575589	0.000446	20.888690
869.246451	-3.006100	3.686000	-11.079000	24.582404	0.000446	20.882726
870.249800	-2.998300	3.684000	-11.045000	24.582329	0.000444	20.882651
871.247201	-2.993700	3.685100	-11.031000	24.567754	0.000445	20.877511
872.250325	-2.996800	3.684100	-11.040000	24.590139	0.000445	20.878634
873.254321	-2.998500	3.684700	-11.048000	24.606156	0.000445	20.882377
874.249942	-3.014000	3.683000	-11.099000	24.585414	0.000445	20.883375
875.250242	-3.024300	3.682500	-11.137000	24.590364	0.000445	20.900195
876.252522	-2.999600	3.682800	-11.046000	24.593298	0.000443	20.875640
877.249822	-2.983000	3.683700	-10.987000	24.587877	0.000444	20.918560
878.251563	-2.998200	3.682900	-11.041000	24.608197	0.000443	20.890114
879.254886	-2.982400	3.683500	-10.985000	24.578576	0.000443	20.900695
880.252565	-2.997100	3.682700	-11.036000	24.588077	0.000443	20.909279
881.253787	-2.999100	3.682200	-11.042000	24.607204	0.000443	20.904289
882.255290	-3.027100	3.681500	-11.143000	24.601582	0.000441	20.906709
883.253510	-2.991600	3.682300	-11.014000	24.607503	0.000443	20.893684
884.255342	-3.000800	3.681800	-11.047000	24.609193	0.000441	20.891114
885.256406	-3.020200	3.680600	-11.115000	24.601161	0.000442	20.879262
886.253995	-3.006000	3.680100	-11.062000	24.612677	0.000441	20.887023
887.253445	-2.978600	3.682300	-10.966000	24.596537	0.000442	20.899276
888.258322	-3.014900	3.680000	-11.094000	24.601012	0.000442	20.891914
889.254954	-2.980000	3.680600	-10.967000	24.616507	0.000440	20.893236
890.254164	-2.998400	3.680100	-11.034000	24.612156	0.000438	20.898353
891.257730	-3.007000	3.679400	-11.062000	24.601958	0.000439	20.891440
892.257202	-2.998900	3.679100	-11.033000	24.617901	0.000439	20.879937
893.254224	-3.021000	3.679500	-11.115000	24.618946	0.000440	20.908959
894.260527	-2.999300	3.680200	-11.038000	24.631505	0.000438	20.914448
895.254784	-2.988300	3.679500	-10.995000	24.638917	0.000438	20.888222
896.257523	-2.993200	3.680000	-11.014000	24.623348	0.000439	20.917168
897.259330	-3.004900	3.678500	-11.052000	24.623471	0.000439	20.895956
898.257295	-2.997400	3.678600	-11.026000	24.618448	0.000438	20.898976
899.256423	-3.017600	3.677700	-11.097000	24.620015	0.000437	20.899601
900.259050	-2.993000	3.678400	-11.008000	24.613822	0.000436	20.895758
901.256242	-2.997400	3.678000	-11.023000	24.643219	0.000439	20.898703
902.255649	-3.003000	3.676900	-11.041000	24.629317	0.000437	20.891866
903.258789	-2.977800	3.677200	-10.948000	24.629367	0.000434	20.908035
904.257573	-2.979200	3.678300	-10.958000	24.627403	0.000437	20.905117
905.256556	-2.991800	3.676400	-10.998000	24.640857	0.000436	20.924778
906.257343	-2.992800	3.677800	-11.006000	24.648242	0.000434	20.913699
907.255845	-2.993400	3.675400	-11.001000	24.653341	0.000436	20.903169
908.256537	-2.999200	3.675700	-11.024000	24.670327	0.000437	20.925427
909.263217	-3.022700	3.673800	-11.104000	24.655256	0.000435	20.905564
910.255567	-3.012500	3.675000	-11.070000	24.629216	0.000436	20.912151
911.256197	-2.983300	3.675500	-10.964000	24.663986	0.000436	20.911004
912.262330	-3.009300	3.675300	-11.059000	24.674605	0.000436	20.903643
913.255544	-2.982300	3.675600	-10.959000	24.669680	0.000434	20.906761
914.257562	-3.007500	3.675900	-11.055000	24.670401	0.000436	20.915071
915.258496	-3.001900	3.674800	-11.031000	24.667342	0.000434	20.937129
916.256925	-3.013100	3.673200	-11.067000	24.678210	0.000435	20.920535
917.257458	-3.007100	3.674400	-11.048000	24.663712	0.000435	20.920212
918.256236	-2.981100	3.675600	-10.956000	24.692162	0.000434	20.919837
919.255952	-2.981100	3.675000	-10.955000	24.691291	0.000433	20.920860
920.257134	-3.029600	3.670900	-11.120000	24.699697	0.000434	20.911752
921.258327	-3.014300	3.672500	-11.068000	24.671793	0.000435	20.912201
922.257624	-3.000100	3.672000	-11.016000	24.681269	0.000432	20.924553
923.257086	-3.008800	3.671500	-11.045000	24.669308	0.000433	20.940997
924.256804	-2.996700	3.671700	-11.003000	24.678682	0.000432	20.928595
925.257163	-2.995900	3.671600	-10.999000	24.701065	0.000432	20.907910
926.258498	-2.972900	3.673000	-10.920000	24.692411	0.000432	20.915820
927.255991	-3.006500	3.672700	-11.041000	24.703104	0.000431	20.915645
928.258364	-2.987700	3.671700	-10.969000	24.719890	0.000433	20.930591
929.259375	-3.016900	3.669500	-11.069000	24.717056	0.000432	20.911628
930.259322	-2.976200	3.671600	-10.926000	24.702333	0.000430	20.936206
931.257206	-3.006900	3.669800	-11.033000	24.716534	0.000432	20.940498
932.258530	-3.000700	3.669900	-11.011000	24.730906	0.000429	20.931215
933.257488	-3.016600	3.668700	-11.066000	24.717454	0.000431	20.916294
934.263271	-2.982300	3.669400	-10.942000	24.722850	0.000430	20.939724
935.260149	-3.005200	3.669400	-11.026000	24.714246	0.000427	20.923980
936.259017	-2.989300	3.669700	-10.969000	24.742099	0.000428	20.952876
937.262929	-2.990400	3.669700	-10.971000	24.736082	0.000426	20.921711
938.259094	-3.021500	3.668200	-11.083000	24.732576	0.000428	20.928149
939.259429	-3.004300	3.668900	-11.022000	24.737849	0.000428	20.940077
940.265845	-2.989100	3.668300	-10.965000	24.745235	0.000426	20.935636
941.260670	-3.006600	3.667800	-11.026000	24.741530	0.000426	20.923384
942.261005	-2.979400	3.668900	-10.929000	24.741679	0.000426	20.926379
943.264934	-3.021700	3.666300	-11.077000	24.746082	0.000425	20.947864
944.264213	-2.994300	3.668300	-10.983000	24.753268	0.000426	20.952704
945.262749	-2.997200	3.666900	-10.989000	24.743795	0.000425	20.942250
946.266837	-3.007100	3.666600	-11.024000	24.729570	0.000426	20.938408
947.264520	-2.983700	3.666800	-10.939000	24.757174	0.000426	20.945245
948.264656	-3.015100	3.667300	-11.056000	24.745238	0.000425	20.947965
949.268914	-2.991600	3.667200	-10.970000	24.761775	0.000423	20.926157
950.263837	-2.987900	3.666500	-10.954000	24.741559	0.000423	20.947592
951.263419	-3.009500	3.665000	-11.027000	24.759415	0.000423	20.950812
952.266706	-2.980700	3.665900	-10.926000	24.750885	0.000421	20.955054
953.266355	-3.001900	3.665900	-11.004000	24.744022	0.000422	20.944849
954.264421	-2.997800	3.665900	-10.989000	24.770531	0.000422	20.957699
955.269702	-3.000400	3.664900	-10.995000	24.760286	0.000421	20.945049
956.265375	-2.996900	3.663800	-10.977000	24.746137	0.000420	20.944126
957.266081	-2.998600	3.664000	-10.985000	24.789953	0.000421	20.949691
958.269357	-2.999900	3.663000	-10.988000	24.769239	0.000422	20.946447
959.267091	-2.992300	3.663800	-10.962000	24.771055	0.000422	20.939736
960.265619	-2.991800	3.663400	-10.959000	24.775556	0.000420	20.954682
961.268254	-2.991800	3.663100	-10.958000	24.772646	0.000419	20.945599
962.264470	-3.011600	3.662300	-11.027000	24.767499	0.000421	20.931900
963.266367	-2.991700	3.662700	-10.956000	24.769514	0.000420	20.944352
964.268559	-3.005900	3.662000	-11.007000	24.777869	0.000420	20.939936
965.265593	-2.989000	3.662400	-10.946000	24.786075	0.000420	20.928258
966.267539	-2.990400	3.661700	-10.949000	24.788538	0.000419	20.930729
967.269569	-2.993200	3.661500	-10.959000	24.793759	0.000419	20.959673
968.266897	-3.005300	3.661500	-11.002000	24.790478	0.000420	20.923194
969.267893	-3.000900	3.661300	-10.986000	24.783068	0.000417	20.943256
970.268153	-2.996000	3.660300	-10.965000	24.779387	0.000420	20.925340
971.265408	-2.997800	3.660600	-10.973000	24.808655	0.000419	20.925315
972.266119	-3.003200	3.659600	-10.990000	24.808357	0.000417	20.923593
973.268295	-3.000900	3.659400	-10.981000	24.815693	0.000417	20.925265
974.268239	-3.009200	3.658600	-11.008000	24.821811	0.000418	20.917656
975.267611	-2.985700	3.659600	-10.926000	24.806169	0.000417	20.933250
976.267276	-2.999100	3.659900	-10.975000	24.813704	0.000417	20.919950
977.267915	-2.986400	3.659600	-10.928000	24.790951	0.000417	20.938840
978.268495	-3.013000	3.658300	-11.021000	24.820642	0.000416	20.932602
979.270708	-2.976400	3.660100	-10.893000	24.809750	0.000417	20.923569
980.268117	-2.980500	3.658700	-10.904000	24.829818	0.000416	20.934698
981.267589	-2.962000	3.659600	-10.839000	24.821388	0.000416	20.904430
982.268573	-3.000100	3.657800	-10.973000	24.827306	0.000417	20.948771
983.269453	-2.993900	3.658300	-10.952000	24.830388	0.000415	20.911092
984.269251	-3.012700	3.657200	-11.017000	24.815669	0.000414	20.917656
985.271939	-2.993600	3.656600	-10.946000	24.810622	0.000416	20.926814
986.271785	-3.015900	3.656600	-11.028000	24.794733	0.000417	20.911344
987.272662	-3.013600	3.656500	-11.018000	24.823801	0.000416	20.930557
988.275495	-3.037000	3.655500	-11.101000	24.823180	0.000416	20.923770
989.273775	-3.005200	3.656300	-10.987000	24.811717	0.000415	20.908474
990.275026	-3.022200	3.654200	-11.042000	24.836582	0.000414	20.899765
991.276442	-2.980900	3.655300	-10.895000	24.824348	0.000413	20.899815
992.274307	-2.983800	3.655800	-10.907000	24.841258	0.000413	20.919629
993.273634	-3.014000	3.654900	-11.014000	24.842252	0.000411	20.928212
994.276680	-3.029600	3.654800	-11.071000	24.814204	0.000411	20.901014
995.275674	-2.997100	3.655100	-10.953000	24.841309	0.000411	20.911146
996.274885	-2.997000	3.653800	-10.949000	24.842452	0.000411	20.913241
997.277516	-3.004800	3.653900	-10.978000	24.840041	0.000411	20.902762
998.276501	-3.008200	3.653500	-10.990000	24.818383	0.000409	20.902363
999.278229	-2.996000	3.652900	-10.944000	24.836734	0.000412	20.889961
1000.281979	-3.006500	3.653800	-10.984000	24.841484	0.000409	20.893780
1001.275276	-3.010000	3.652300	-10.992000	24.838103	0.000410	20.887068
1002.275882	-2.995100	3.653600	-10.942000	24.807840	0.000407	20.892257
1003.280354	-3.006600	3.652700	-10.982000	24.830743	0.000407	20.883949
1004.276167	-2.983400	3.653100	-10.898000	24.845886	0.000408	20.889664
1005.276701	-2.993400	3.651700	-10.930000	24.846185	0.000406	20.884274
1006.280501	-3.001600	3.652000	-10.961000	24.850488	0.000406	20.898074
1007.275094	-2.997300	3.651200	-10.943000	24.848896	0.000406	20.878934
1008.280642	-2.995000	3.650500	-10.933000	24.857748	0.000406	20.898723
1009.283681	-2.986700	3.651000	-10.903000	24.835618	0.000407	20.892634
1010.278994	-2.983100	3.650700	-10.889000	24.860036	0.000407	20.881580
1011.282082	-2.985200	3.651700	-10.900000	24.848349	0.000406	20.885971
1012.284604	-3.010700	3.650100	-10.988000	24.854667	0.000406	20.884725
1013.281541	-2.989800	3.650700	-10.914000	24.871400	0.000405	20.868330
1014.279149	-3.006400	3.650200	-10.973000	24.880302	0.000404	20.885324
1015.285758	-3.001600	3.650200	-10.955000	24.861157	0.000405	20.874644
1016.279645	-2.979100	3.648700	-10.870000	24.876599	0.000403	20.873548
1017.282654	-2.976000	3.650200	-10.863000	24.850864	0.000403	20.879962
1018.287210	-3.013700	3.648300	-10.994000	24.847582	0.000403	20.865763
1019.285268	-3.015900	3.648100	-11.001000	24.874437	0.000403	20.870429
1020.282860	-2.989900	3.649300	-10.910000	24.845196	0.000404	20.882807
1021.282762	-3.036300	3.647000	-11.073000	24.843306	0.000402	20.876644
1022.282306	-2.999400	3.647100	-10.938000	24.850643	0.000404	20.884481
1023.283080	-3.013500	3.648500	-10.993000	24.870013	0.000404	20.856508
1024.283843	-2.998500	3.648100	-10.939000	24.844974	0.000400	20.860301
1025.285087	-2.984900	3.646200	-10.883000	24.861734	0.000402	20.876172
1026.285106	-3.001600	3.647500	-10.948000	24.880682	0.000402	20.878594
1027.284453	-3.018500	3.647600	-11.009000	24.858006	0.000401	20.871009
1028.285853	-3.001300	3.646000	-10.941000	24.879316	0.000402	20.864895
1029.287638	-2.993800	3.646500	-10.915000	24.860693	0.000400	20.873705
1030.285999	-2.982300	3.645900	-10.872000	24.870814	0.000399	20.868216
1031.286737	-2.993000	3.646000	-10.912000	24.855721	0.000398	20.864922
1032.287512	-2.963500	3.646100	-10.804000	24.870566	0.000399	20.848054
1033.287210	-3.016400	3.644800	-10.994000	24.856667	0.000399	20.856863
1034.289227	-3.003300	3.645700	-10.947000	24.876336	0.000398	20.876602
1035.287139	-3.002900	3.643400	-10.939000	24.879545	0.000398	20.875555
1036.286388	-3.034900	3.643600	-11.055000	24.891504	0.000398	20.879498
1037.288497	-2.998600	3.643500	-10.923000	24.863805	0.000398	20.837476
1038.288800	-2.998000	3.643000	-10.920000	24.874797	0.000399	20.822429
1039.288154	-3.002400	3.643900	-10.939000	24.871290	0.000397	20.843091
1040.288259	-3.006100	3.642400	-10.949000	24.847494	0.000397	20.853821
1041.287395	-2.974600	3.644500	-10.840000	24.861742	0.000397	20.864327
1042.287941	-3.014000	3.642600	-10.977000	24.871615	0.000394	20.854322
1043.293122	-2.987100	3.642400	-10.880000	24.891706	0.000395	20.847934
1044.290446	-3.004300	3.641600	-10.938000	24.874824	0.000394	20.849956
1045.290068	-2.985800	3.640900	-10.870000	24.904884	0.000395	20.834608
1046.289429	-2.986300	3.642500	-10.877000	24.880019	0.000392	20.837627
1047.291187	-3.007300	3.641400	-10.950000	24.898445	0.000393	20.851853
1048.289891	-3.000100	3.642200	-10.925000	24.884197	0.000393	20.870268
1049.291634	-2.985500	3.641200	-10.870000	24.889892	0.000395	20.837579
1050.290533	-2.997400	3.639600	-10.908000	24.903716	0.000395	20.856669
1051.288121	-3.008900	3.639700	-10.951000	24.908290	0.000392	20.841820
1052.291432	-2.986000	3.639900	-10.868000	24.898197	0.000394	20.845914
1053.294074	-3.000400	3.639300	-10.918000	24.903395	0.000393	20.839752
1054.289896	-2.998400	3.638900	-10.910000	24.897302	0.000392	20.826524
1055.290433	-2.989200	3.638100	-10.874000	24.887084	0.000390	20.840451
1056.291732	-2.980300	3.638900	-10.844000	24.900187	0.000390	20.866402
1057.290321	-3.012900	3.637700	-10.958000	24.895862	0.000390	20.836933
1058.293094	-3.002500	3.638900	-10.925000	24.902152	0.000391	20.835660
1059.295437	-3.010400	3.638400	-10.952000	24.909463	0.000390	20.829721
1060.292245	-3.016100	3.637200	-10.968000	24.917022	0.000389	20.825454
1061.292015	-2.998400	3.637600	-10.905000	24.904914	0.000386	20.819465
1062.295773	-3.005000	3.638000	-10.931000	24.917073	0.000388	20.834513
1063.292715	-2.995300	3.637500	-10.895000	24.910036	0.000388	20.827925
1064.295889	-2.998900	3.637200	-10.907000	24.902702	0.000387	20.831944
1065.298362	-3.001200	3.636200	-10.912000	24.906930	0.000389	20.856101
1066.294999	-2.994300	3.637600	-10.891000	24.915210	0.000387	20.845446
1067.297554	-3.004300	3.635200	-10.919000	24.908471	0.000386	20.846269
1068.298985	-3.025500	3.635000	-10.997000	24.908943	0.000386	20.841053
1069.295621	-2.995500	3.634900	-10.888000	24.906285	0.000386	20.837911
1070.296309	-3.013500	3.635600	-10.955000	24.878264	0.000388	20.828280
1071.298901	-2.983100	3.635600	-10.844000	24.883958	0.000386	20.839210
1072.301545	-2.999400	3.634300	-10.899000	24.907530	0.000386	20.826833
1073.299919	-2.984000	3.634000	-10.843000	24.919888	0.000386	20.824064
1074.299740	-2.994800	3.633600	-10.881000	24.920263	0.000386	20.825862
1075.300420	-2.980800	3.633700	-10.831000	24.906116	0.000383	20.846276
1076.297554	-2.997500	3.632800	-10.888000	24.901593	0.000386	20.826089
1077.306240	-3.013800	3.632300	-10.946000	24.926159	0.000383	20.817555
1078.298279	-2.990800	3.634000	-10.867000	24.916513	0.000384	20.831581
1079.298007	-3.008100	3.633100	-10.927000	24.910919	0.000382	20.820751
1080.300442	-3.000300	3.634200	-10.902000	24.907514	0.000383	20.815911
1081.299869	-3.016500	3.632200	-10.956000	24.932229	0.000382	20.834553
1082.300991	-3.006300	3.632800	-10.920000	24.921165	0.000381	20.836251
1083.300044	-3.009900	3.632000	-10.931000	24.920893	0.000383	20.831710
1084.299879	-3.002100	3.631500	-10.901000	24.942922	0.000382	20.832484
1085.298841	-2.991900	3.632200	-10.866000	24.935216	0.000381	20.826646
1086.302693	-2.997500	3.630000	-10.880000	24.929276	0.000383	20.817839
1087.299273	-2.993700	3.631300	-10.871000	24.932905	0.000382	20.818162
1088.300090	-3.007000	3.629400	-10.912000	24.945014	0.000379	20.836480
1089.305483	-3.013400	3.629700	-10.937000	24.914110	0.000380	20.816842
1090.301968	-2.981000	3.629800	-10.820000	24.913639	0.000377	20.802619
1091.302045	-2.990400	3.630500	-10.854000	24.936663	0.000379	20.804865
1092.306358	-2.998500	3.629200	-10.881000	24.953295	0.000380	20.825352
1093.302348	-2.994500	3.629300	-10.867000	24.938079	0.000378	20.813398
1094.302155	-2.993800	3.627500	-10.859000	24.940343	0.000377	20.803343
1095.303980	-2.999200	3.628300	-10.882000	24.947679	0.000377	20.818292
1096.305661	-2.986300	3.629600	-10.838000	24.945541	0.000377	20.811879
1097.305878	-3.024700	3.627100	-10.970000	24.940668	0.000377	20.801298
1098.306814	-3.025700	3.626500	-10.972000	24.955935	0.000378	20.821837
1099.304628	-3.009700	3.628200	-10.919000	24.953524	0.000376	20.824158
1100.305540	-3.027300	3.625800	-10.974000	24.953971	0.000377	20.820340
1101.307686	-3.009200	3.625800	-10.910000	24.936096	0.000375	20.818520
1102.304550	-3.001600	3.626300	-10.883000	24.954817	0.000376	20.799852
1103.306856	-3.012500	3.625700	-10.921000	24.942486	0.000375	20.793166
1104.306147	-2.990700	3.625100	-10.841000	24.942288	0.000374	20.790596
1105.307245	-2.978100	3.626200	-10.799000	24.936916	0.000374	20.798007
1106.307656	-3.014900	3.625300	-10.929000	24.957033	0.000374	20.826732
1107.307781	-2.988600	3.625300	-10.833000	24.963844	0.000373	20.798008
1108.306559	-2.997500	3.625100	-10.866000	24.938733	0.000373	20.796511
1109.305618	-3.008800	3.624600	-10.905000	24.950222	0.000370	20.803775
1110.308631	-3.011600	3.624200	-10.915000	24.963748	0.000373	20.787006
1111.305296	-3.015400	3.623500	-10.925000	24.932867	0.000372	20.809590
1112.306075	-2.998300	3.623200	-10.863000	24.959671	0.000371	20.801406
1113.306665	-2.999100	3.621900	-10.862000	24.948233	0.000369	20.779494
1114.305238	-2.999900	3.621700	-10.864000	24.946743	0.000371	20.805973
1115.307592	-3.025000	3.621300	-10.954000	24.939110	0.000370	20.794993
1116.308661	-2.984100	3.622900	-10.809000	24.962282	0.000369	20.779371
1117.307764	-3.020900	3.620900	-10.938000	24.948360	0.000369	20.799061
1118.309505	-3.017200	3.621000	-10.924000	24.968202	0.000369	20.800959
1119.312716	-2.987000	3.621800	-10.816000	24.972079	0.000371	20.801532
1120.308630	-3.015200	3.620100	-10.914000	24.963029	0.000368	20.802879
1121.308592	-2.983100	3.621200	-10.800000	24.978271	0.000369	20.797789
1122.311748	-3.015300	3.619900	-10.914000	24.973398	0.000368	20.795269
1123.308925	-2.992800	3.619100	-10.830000	24.982598	0.000367	20.788382
1124.310025	-3.002600	3.619100	-10.866000	24.967655	0.000366	20.813687
1125.313735	-2.994700	3.620500	-10.841000	24.964398	0.000365	20.809943
1126.310545	-2.992300	3.619800	-10.831000	24.967780	0.000367	20.803855
1127.312022	-3.010800	3.619400	-10.896000	24.949331	0.000366	20.797191
1128.312778	-2.989900	3.619000	-10.819000	24.998510	0.000365	20.772112
1129.311600	-2.985500	3.617800	-10.800000	24.979017	0.000366	20.780047
1130.312125	-3.005900	3.617300	-10.872000	24.969669	0.000364	20.796267
1131.313851	-3.000500	3.617100	-10.852000	24.979514	0.000364	20.782442
1132.312915	-3.001700	3.616500	-10.855000	25.004475	0.000362	20.789479
1133.312029	-3.003800	3.617600	-10.865000	24.994259	0.000363	20.803406
1134.313025	-2.997700	3.616400	-10.840000	24.986724	0.000361	20.783515
1135.312905	-3.001500	3.617500	-10.857000	24.998608	0.000361	20.783590
1136.312303	-3.015100	3.615900	-10.901000	24.995749	0.000361	20.777401
1137.312767	-3.021300	3.616600	-10.926000	25.008901	0.000360	20.783490
1138.313752	-3.008700	3.616500	-10.881000	25.022574	0.000360	20.790576
1139.315783	-3.008800	3.614200	-10.873000	25.033463	0.000362	20.773531
1140.311725	-3.004100	3.615600	-10.860000	24.999925	0.000361	20.782540
1141.313797	-3.005500	3.615700	-10.866000	24.995847	0.000360	20.791724
1142.318655	-3.002800	3.614500	-10.852000	24.997809	0.000358	20.793694
1143.312428	-2.994700	3.614200	-10.823000	24.994529	0.000358	20.787556
1144.312623	-3.012300	3.613900	-10.885000	24.998557	0.000360	20.792548
1145.317382	-3.001500	3.614500	-10.848000	25.002734	0.000358	20.794844
1146.314207	-3.026000	3.613200	-10.932000	24.985230	0.000358	20.803826
1147.315410	-3.000700	3.612700	-10.840000	25.006462	0.000357	20.772033
1148.317653	-2.996000	3.613600	-10.826000	25.001142	0.000356	20.776176
1149.317967	-3.017800	3.611700	-10.899000	25.004226	0.000358	20.797289
1150.314444	-2.986100	3.613500	-10.789000	25.024735	0.000358	20.810763
1151.317589	-3.008900	3.611900	-10.867000	25.005692	0.000357	20.773157
1152.314693	-3.000600	3.612000	-10.836000	25.026898	0.000355	20.775951
1153.314066	-2.982800	3.611600	-10.772000	25.026350	0.000356	20.804324
1154.316753	-2.986900	3.611900	-10.788000	25.026175	0.000354	20.771906
1155.316089	-3.021400	3.610400	-10.908000	25.008724	0.000354	20.799433
1156.316426	-3.008200	3.610500	-10.860000	25.032764	0.000354	20.759553
1157.317327	-2.984300	3.610000	-10.772000	25.016330	0.000354	20.798533
1158.314807	-3.002100	3.610200	-10.837000	25.024956	0.000353	20.778269
1159.316187	-3.001800	3.609100	-10.833000	25.029681	0.000354	20.773529
1160.321428	-3.007800	3.609400	-10.856000	25.030202	0.000354	20.782586
1161.315605	-3.009500	3.608500	-10.858000	25.044497	0.000353	20.789349
1162.316006	-3.005100	3.609300	-10.845000	25.033882	0.000351	20.799082
1163.320174	-2.990400	3.609100	-10.791000	25.014563	0.000353	20.779216
1164.317880	-2.999500	3.608100	-10.821000	25.022692	0.000352	20.815825
1165.318470	-3.014800	3.608000	-10.876000	25.021549	0.000351	20.774375
1166.322462	-2.995200	3.607800	-10.805000	25.031542	0.000350	20.811432
1167.319400	-2.996200	3.607900	-10.809000	25.051781	0.000351	20.772952
1168.318069	-3.019400	3.607100	-10.891000	25.035347	0.000350	20.783484
1169.321962	-3.003500	3.607900	-10.836000	25.045440	0.000350	20.777020
1170.317658	-3.003600	3.607500	-10.834000	25.023214	0.000350	20.782210
1171.317956	-3.025900	3.605600	-10.910000	25.055856	0.000348	20.798854
1172.321761	-3.005700	3.605800	-10.837000	25.045340	0.000350	20.793514
1173.317669	-2.995200	3.605600	-10.798000	25.052400	0.000349	20.770730
1174.319955	-3.001200	3.606100	-10.821000	25.046906	0.000348	20.787500
1175.324293	-2.986600	3.605300	-10.766000	25.045365	0.000349	20.777892
1176.319182	-2.974500	3.606400	-10.727000	25.059659	0.000348	20.806466
1177.318935	-2.978300	3.605400	-10.737000	25.057746	0.000348	20.787002
1178.323979	-2.995200	3.605200	-10.796000	25.062145	0.000347	20.804219
1179.319296	-3.002400	3.603900	-10.819000	25.057023	0.000347	20.797182
1180.321385	-2.998200	3.603200	-10.802000	25.058763	0.000346	20.784229
1181.324819	-3.004700	3.602100	-10.822000	25.052325	0.000345	20.803845
1182.322652	-2.996000	3.602600	-10.793000	25.024579	0.000345	20.798753
1183.325165	-3.021500	3.602300	-10.883000	25.048918	0.000346	20.793787
1184.326358	-2.983700	3.602600	-10.748000	25.038699	0.000345	20.804392
1185.321808	-2.998100	3.601400	-10.796000	25.037233	0.000345	20.778738
1186.323630	-2.989500	3.603500	-10.771000	25.038797	0.000345	20.787895
1187.324918	-2.987000	3.601500	-10.757000	25.061371	0.000344	20.793485
1188.321765	-2.988400	3.601700	-10.763000	25.043794	0.000344	20.801445
1189.324300	-2.974100	3.602300	-10.712000	25.055429	0.000344	20.788469
1190.324799	-3.013200	3.599000	-10.844000	25.057193	0.000345	20.791662
1191.325171	-2.981800	3.601100	-10.737000	25.064352	0.000343	20.785572
1192.324333	-2.994400	3.600200	-10.779000	25.081082	0.000342	20.803789
1193.326167	-2.995800	3.600000	-10.784000	25.090902	0.000341	20.806060
1194.324390	-2.997200	3.598700	-10.785000	25.074618	0.000340	20.793981
1195.323585	-2.995800	3.599100	-10.781000	25.079291	0.000340	20.780653
1196.327889	-3.009700	3.598800	-10.831000	25.065642	0.000341	20.814842
1197.325035	-2.972700	3.599000	-10.697000	25.073970	0.000340	20.798071
1198.326065	-2.995800	3.597900	-10.777000	25.066138	0.000338	20.805383
1199.327008	-2.997500	3.596800	-10.780000	25.067853	0.000337	20.821802
1200.326809	-2.986000	3.597200	-10.741000	25.070289	0.000338	20.807653
1201.327504	-2.979300	3.598300	-10.718000	25.056789	0.000337	20.789834
1202.329595	-2.996300	3.596900	-10.777000	25.055271	0.000337	20.787362
1203.328036	-2.966500	3.597300	-10.670000	25.071878	0.000337	20.809248
1204.329116	-2.994400	3.596100	-10.766000	25.075804	0.000337	20.812241
1205.330509	-2.999100	3.595100	-10.781000	25.074412	0.000337	20.807050
1206.328503	-2.953300	3.596500	-10.620000	25.084904	0.000337	20.789607
1207.331696	-2.967300	3.595500	-10.668000	25.063076	0.000335	20.813214
1208.331109	-2.992600	3.595500	-10.759000	25.098500	0.000334	20.804204
1209.331134	-3.010600	3.593600	-10.818000	25.110658	0.000334	20.822098
1210.330314	-2.984100	3.593500	-10.723000	25.071279	0.000333	20.830932
1211.333898	-2.990300	3.593800	-10.745000	25.089848	0.000333	20.814011
1212.329651	-3.004700	3.594000	-10.797000	25.074460	0.000334	20.831280
1213.331203	-3.034100	3.592600	-10.899000	25.079904	0.000333	20.839589
1214.336672	-2.980400	3.592900	-10.706000	25.085249	0.000331	20.814609
1215.330912	-3.005100	3.593900	-10.798000	25.098846	0.000332	20.827310
1216.331812	-3.014300	3.592100	-10.826000	25.090493	0.000331	20.822244
1217.332976	-3.019500	3.591300	-10.842000	25.108840	0.000332	20.830704
1218.332313	-2.966600	3.592400	-10.656000	25.084825	0.000332	20.829830
1219.330314	-3.008000	3.591200	-10.801000	25.070057	0.000331	20.805523
1220.332314	-2.998700	3.592000	-10.771000	25.080399	0.000331	20.828707
1221.331578	-3.006300	3.590800	-10.793000	25.089050	0.000331	20.800407
1222.331788	-3.010500	3.590900	-10.809000	25.100038	0.000330	20.828506
1223.332997	-3.000700	3.591100	-10.775000	25.088875	0.000329	20.825836
1224.333398	-3.003300	3.589100	-10.778000	25.121988	0.000327	20.832523
1225.333048	-3.011200	3.589200	-10.807000	25.099914	0.000328	20.830278
1226.336789	-2.994700	3.590000	-10.750000	25.107171	0.000327	20.829503
1227.332710	-3.011100	3.588100	-10.803000	25.106524	0.000328	20.828854
1228.332472	-2.994300	3.588700	-10.745000	25.099539	0.000326	20.808566
1229.340117	-3.005100	3.587900	-10.781000	25.099066	0.000327	20.807142
1230.332782	-2.997200	3.588900	-10.755000	25.103315	0.000326	20.841279
1231.335811	-2.999100	3.587200	-10.758000	25.118580	0.000324	20.825309
1232.335157	-3.005700	3.587000	-10.781000	25.118182	0.000324	20.832496
1233.334424	-3.017100	3.587400	-10.823000	25.110748	0.000325	20.854430
1234.334886	-2.999900	3.586800	-10.759000	25.098591	0.000324	20.801450
1235.335373	-3.007600	3.586000	-10.784000	25.128770	0.000324	20.814202
1236.334310	-3.031000	3.584500	-10.864000	25.120492	0.000324	20.822487
1237.338197	-2.988000	3.586900	-10.717000	25.126782	0.000324	20.831172
1238.341791	-2.990700	3.585900	-10.723000	25.149378	0.000323	20.822562
1239.344546	-3.010700	3.585000	-10.791000	25.123897	0.000322	20.821164
1240.340187	-3.009200	3.584800	-10.786000	25.141050	0.000322	20.843598
1241.339133	-3.008600	3.584800	-10.784000	25.147860	0.000322	20.835737
1242.338584	-2.981600	3.584500	-10.687000	25.128397	0.000321	20.841328
1243.340705	-2.984200	3.584200	-10.695000	25.137867	0.000320	20.834240
1244.340390	-2.972500	3.584800	-10.654000	25.142888	0.000320	20.830745
1245.340062	-2.996200	3.582900	-10.734000	25.143062	0.000319	20.836609
1246.339000	-3.018000	3.581800	-10.809000	25.136625	0.000319	20.835363
1247.342746	-2.989000	3.584000	-10.711000	25.150521	0.000318	20.842675
1248.338840	-3.027200	3.582200	-10.843000	25.147387	0.000319	20.846641
1249.341367	-3.007200	3.581800	-10.771000	25.131105	0.000318	20.854003
1250.344923	-2.991300	3.582700	-10.715000	25.132398	0.000317	20.826853
1251.340135	-3.030200	3.580200	-10.848000	25.150594	0.000317	20.848438
1252.344902	-3.003000	3.581000	-10.752000	25.134063	0.000317	20.839903
1253.340804	-2.975600	3.582100	-10.658000	25.154123	0.000317	20.832067
1254.340667	-3.011000	3.580200	-10.779000	25.138735	0.000315	20.857395
1255.343822	-3.021800	3.579200	-10.813000	25.133491	0.000315	20.847864
1256.342410	-3.019400	3.579600	-10.808000	25.146566	0.000314	20.832067
1257.340114	-3.003200	3.578600	-10.747000	25.143483	0.000316	20.828498
1258.345539	-3.008000	3.578100	-10.761000	25.156832	0.000315	20.843321
1259.343149	-2.992100	3.578800	-10.707000	25.156484	0.000314	20.859091
1260.342468	-2.979500	3.579100	-10.662000	25.156011	0.000314	20.845816
1261.346387	-3.003300	3.579200	-10.749000	25.145695	0.000315	20.846839
1262.344130	-2.982700	3.579000	-10.674000	25.172641	0.000314	20.845915
1263.344426	-2.989600	3.577400	-10.693000	25.162697	0.000312	20.849208
1264.346329	-2.982600	3.578500	-10.672000	25.175077	0.000316	20.831766
1265.343391	-2.983600	3.578000	-10.675000	25.164710	0.000311	20.863082
1266.346875	-3.014200	3.576900	-10.781000	25.153698	0.000313	20.856295
1267.349298	-2.982000	3.575700	-10.662000	25.150019	0.000311	20.867300
1268.345415	-2.994600	3.575800	-10.707000	25.154567	0.000311	20.847685
1269.344439	-3.012600	3.575300	-10.770000	25.150789	0.000311	20.859064
1270.348936	-2.986800	3.575600	-10.679000	25.167817	0.000311	20.850081
1271.348224	-3.002700	3.574100	-10.730000	25.165082	0.000310	20.860137
1272.346246	-3.015300	3.573500	-10.774000	25.179400	0.000307	20.854597
1273.347358	-2.994400	3.574500	-10.703000	25.193021	0.000307	20.861159
1274.347739	-2.988200	3.574300	-10.680000	25.155337	0.000307	20.864578
1275.347169	-2.985900	3.573700	-10.669000	25.167840	0.000306	20.860535
1276.346757	-2.984200	3.573400	-10.663000	25.157126	0.000307	20.852624
1277.345926	-3.016200	3.571800	-10.772000	25.164708	0.000305	20.849330
1278.348530	-2.996300	3.572900	-10.705000	25.186508	0.000308	20.880697
1279.356583	-3.009500	3.572600	-10.750000	25.175695	0.000306	20.857989
1280.350994	-3.033700	3.571900	-10.835000	25.176591	0.000304	20.853673
1281.349981	-3.008100	3.572000	-10.744000	25.177260	0.000305	20.857664
1282.352133	-2.992300	3.572100	-10.688000	25.173980	0.000303	20.848208
1283.354665	-3.019700	3.570800	-10.782000	25.183749	0.000305	20.855169
1284.349780	-2.993800	3.571000	-10.690000	25.165652	0.000304	20.860235
1285.352676	-2.998800	3.570900	-10.708000	25.186855	0.000303	20.875830
1286.347755	-3.006200	3.571200	-10.735000	25.183525	0.000302	20.872014
1287.350933	-2.984700	3.570800	-10.657000	25.190062	0.000303	20.864352
1288.347941	-3.029700	3.569500	-10.813000	25.176988	0.000301	20.871614
1289.350113	-2.989300	3.570800	-10.673000	25.189789	0.000300	20.887784
1290.349156	-2.994200	3.569800	-10.687000	25.194040	0.000301	20.868819
1291.352134	-3.012400	3.569000	-10.750000	25.198216	0.000300	20.878701
1292.349709	-3.029800	3.568800	-10.812000	25.197521	0.000299	20.853823
1293.350103	-3.024400	3.567000	-10.787000	25.171966	0.000300	20.894546
1294.351401	-3.013800	3.567900	-10.752000	25.185315	0.000298	20.862906
1295.347978	-3.011600	3.567500	-10.743000	25.218972	0.000298	20.862082
1296.352814	-2.989100	3.567600	-10.663000	25.213702	0.000298	20.882869
1297.350622	-2.990400	3.567400	-10.667000	25.195358	0.000298	20.879150
1298.349890	-2.989700	3.567500	-10.665000	25.199633	0.000296	20.883916
1299.352618	-2.989300	3.568100	-10.665000	25.201646	0.000297	20.887834
1300.351739	-2.988400	3.567500	-10.660000	25.210943	0.000296	20.890055
1301.348639	-2.990800	3.565700	-10.663000	25.211391	0.000294	20.880074
1302.351903	-3.001600	3.564600	-10.698000	25.201895	0.000295	20.897092
1303.351595	-2.992300	3.565100	-10.667000	25.209277	0.000294	20.873211
1304.355841	-3.022500	3.563700	-10.770000	25.221632	0.000294	20.887984
1305.349818	-3.005000	3.563500	-10.706000	25.209876	0.000294	20.871441
1306.351634	-3.000900	3.564100	-10.694000	25.213155	0.000293	20.886586
1307.348391	-2.968700	3.564200	-10.580000	25.210646	0.000294	20.896394
1308.351114	-2.983600	3.564500	-10.634000	25.208482	0.000293	20.890904
1309.352515	-2.970100	3.564000	-10.584000	25.220935	0.000294	20.919999
1310.350466	-2.992900	3.562400	-10.661000	25.197271	0.000292	20.894347
1311.350353	-2.998700	3.563800	-10.686000	25.207190	0.000291	20.901933
1312.352947	-2.984900	3.562000	-10.632000	25.228740	0.000291	20.874259
1313.349834	-3.012900	3.561300	-10.729000	25.216535	0.000291	20.889031
1314.350903	-2.994500	3.562600	-10.667000	25.243752	0.000289	20.898812
1315.353647	-2.994800	3.561800	-10.666000	25.230405	0.000292	20.896791
1316.351101	-2.999900	3.561600	-10.684000	25.204008	0.000289	20.883567
1317.352129	-3.000300	3.562300	-10.687000	25.222328	0.000290	20.895320
1318.354371	-3.006400	3.560400	-10.703000	25.239279	0.000289	20.871563
1319.353583	-3.017400	3.559800	-10.739000	25.225135	0.000287	20.886760
1320.354392	-2.993600	3.560600	-10.658000	25.202317	0.000288	20.894671
1321.356780	-2.995700	3.560500	-10.665000	25.251858	0.000288	20.882769
1322.356254	-2.984100	3.558700	-10.619000	25.227001	0.000288	20.898115
1323.353973	-3.001300	3.559500	-10.681000	25.239380	0.000287	20.897268
1324.357827	-2.990300	3.559600	-10.643000	25.230805	0.000285	20.899563
1325.355557	-2.991600	3.558900	-10.645000	25.236672	0.000289	20.883170
1326.356125	-2.990400	3.558000	-10.639000	25.238412	0.000286	20.899614
1327.358773	-2.998300	3.558200	-10.668000	25.242739	0.000288	20.904433
1328.355820	-2.996000	3.557100	-10.656000	25.237917	0.000286	20.896273
1329.357727	-3.023700	3.556400	-10.753000	25.242417	0.000285	20.901738
1330.356990	-2.984200	3.556600	-10.613000	25.273213	0.000284	20.885244
1331.358224	-2.998100	3.557500	-10.664000	25.260638	0.000284	20.914341
1332.357536	-3.001700	3.556200	-10.674000	25.240456	0.000283	20.902614
1333.360515	-3.003200	3.556100	-10.678000	25.260639	0.000283	20.896326
1334.357058	-2.981900	3.555600	-10.601000	25.253208	0.000284	20.906883
1335.359698	-2.988200	3.555900	-10.625000	25.242174	0.000282	20.908606
1336.358690	-3.012000	3.554000	-10.704000	25.238719	0.000283	20.907034
1337.356483	-3.000900	3.553700	-10.663000	25.260569	0.000280	20.887721
1338.356904	-2.991400	3.554800	-10.633000	25.230021	0.000283	20.910155
1339.362211	-2.993400	3.554800	-10.641000	25.239293	0.000281	20.900973
1340.358369	-2.998700	3.554000	-10.656000	25.239294	0.000281	20.893388
1341.356760	-2.979000	3.553700	-10.585000	25.254805	0.000282	20.908959
1342.359334	-3.012600	3.553800	-10.704000	25.242477	0.000281	20.918393
1343.358294	-3.028800	3.551300	-10.755000	25.234500	0.000279	20.913229
1344.359056	-2.995200	3.553400	-10.641000	25.236364	0.000279	20.908463
1345.360837	-2.986100	3.553200	-10.610000	25.250061	0.000278	20.903249
1346.359298	-3.017800	3.552800	-10.720000	25.241362	0.000279	20.907791
1347.358492	-3.007400	3.551600	-10.680000	25.255356	0.000278	20.901927
1348.366075	-2.998200	3.550400	-10.644000	25.238158	0.000276	20.928279
1349.360924	-2.976000	3.550800	-10.567000	25.238927	0.000276	20.915777
1350.362482	-3.006900	3.550300	-10.675000	25.255557	0.000276	20.931049
1351.359661	-3.006000	3.551500	-10.675000	25.253595	0.000275	20.909167
1352.360536	-3.006700	3.549500	-10.671000	25.238010	0.000276	20.923390
1353.363575	-3.005900	3.549800	-10.670000	25.268908	0.000274	20.914110
1354.360427	-3.021500	3.548600	-10.721000	25.254044	0.000272	20.916729
1355.360760	-2.998300	3.550500	-10.644000	25.254915	0.000273	20.904803
1356.367251	-3.004700	3.549000	-10.663000	25.267442	0.000273	20.909319
1357.363651	-2.983000	3.548900	-10.585000	25.275746	0.000272	20.920500
1358.370181	-3.006900	3.547300	-10.666000	25.261305	0.000272	20.912166
1359.366594	-2.978400	3.548500	-10.568000	25.278655	0.000272	20.926265
1360.362631	-2.989600	3.547900	-10.606000	25.269733	0.000272	20.927264
1361.364421	-2.998900	3.547900	-10.638000	25.266551	0.000270	20.919329
1362.369051	-3.030500	3.546500	-10.747000	25.251241	0.000271	20.923872
1363.363774	-2.993100	3.547400	-10.617000	25.269686	0.000269	20.917735
1364.364050	-3.010100	3.546600	-10.674000	25.280001	0.000267	20.919083
1365.368114	-3.021800	3.546400	-10.715000	25.281717	0.000269	20.945458
1366.365847	-3.025100	3.545200	-10.724000	25.272247	0.000268	20.919832
1367.364965	-2.994700	3.545900	-10.618000	25.271477	0.000268	20.938023
1368.365265	-2.981100	3.545200	-10.567000	25.281743	0.000268	20.939795
1369.363493	-3.000000	3.545300	-10.635000	25.264345	0.000268	20.931337
1370.365081	-2.984400	3.545200	-10.579000	25.271255	0.000267	20.915043
1371.368495	-3.003100	3.544600	-10.644000	25.270710	0.000267	20.931564
1372.366799	-3.027600	3.543300	-10.727000	25.283312	0.000267	20.921932
1373.367075	-3.011700	3.543700	-10.671000	25.279334	0.000265	20.905138
1374.370514	-3.005100	3.542100	-10.644000	25.295244	0.000266	20.906413
1375.368431	-3.004200	3.543400	-10.644000	25.278591	0.000266	20.928097
1376.366298	-2.999000	3.542500	-10.623000	25.292709	0.000266	20.902446
1377.371179	-3.010900	3.543100	-10.667000	25.284035	0.000265	20.920762
1378.368833	-2.988600	3.542800	-10.588000	25.272776	0.000265	20.903296
1379.368185	-3.003100	3.542200	-10.637000	25.291393	0.000264	20.912029
1380.370834	-2.964000	3.542300	-10.499000	25.271335	0.000265	20.909908
1381.367229	-2.974700	3.542500	-10.537000	25.272155	0.000264	20.893190
1382.367490	-3.008700	3.539900	-10.650000	25.275686	0.000264	20.901475
1383.372057	-3.010000	3.540100	-10.654000	25.281105	0.000263	20.892692
1384.366775	-3.002100	3.539900	-10.625000	25.290674	0.000263	20.904669
1385.367578	-2.980700	3.540800	-10.553000	25.297187	0.000263	20.895563
1386.371453	-3.006500	3.539900	-10.642000	25.268603	0.000261	20.880141
1387.367307	-2.982900	3.539900	-10.558000	25.290451	0.000262	20.911083
1388.368232	-2.985900	3.539000	-10.566000	25.302978	0.000261	20.904222
1389.369781	-2.976600	3.539500	-10.535000	25.282176	0.000261	20.896612
1390.371769	-2.996800	3.538600	-10.603000	25.305390	0.000261	20.870136
1391.367840	-3.015800	3.537300	-10.667000	25.315557	0.000262	20.913057
1392.370677	-2.994700	3.537600	-10.593000	25.284040	0.000260	20.881890
1393.368447	-2.974600	3.538300	-10.523000	25.299301	0.000259	20.894366
1394.368969	-2.988600	3.537200	-10.570000	25.308995	0.000259	20.893194
1395.369383	-2.993200	3.537600	-10.588000	25.305042	0.000257	20.892544
1396.370191	-2.990900	3.536500	-10.576000	25.325746	0.000256	20.898633
1397.369198	-2.987300	3.537100	-10.566000	25.288786	0.000257	20.899930
1398.370373	-2.994100	3.536200	-10.586000	25.305539	0.000256	20.905844
1399.372373	-2.988800	3.535300	-10.566000	25.295348	0.000258	20.888975
1400.369837	-3.010900	3.535000	-10.643000	25.331116	0.000256	20.895016
1401.371301	-3.016900	3.534400	-10.662000	25.299001	0.000255	20.905443
1402.371817	-2.989000	3.534800	-10.564000	25.310633	0.000256	20.893891
1403.373690	-3.001800	3.532600	-10.603000	25.294851	0.000256	20.892269
1404.373234	-2.992100	3.535600	-10.577000	25.303128	0.000253	20.885882
1405.376240	-3.008200	3.534400	-10.631000	25.303054	0.000254	20.882962
1406.374529	-2.997000	3.534000	-10.591000	25.290825	0.000254	20.883960
1407.374412	-3.025700	3.532700	-10.688000	25.302083	0.000253	20.895737
1408.380827	-3.002400	3.532900	-10.606000	25.300992	0.000251	20.884211
1409.377235	-3.021100	3.531500	-10.668000	25.295572	0.000255	20.888726
1410.374966	-2.991700	3.533100	-10.569000	25.318637	0.000254	20.883909
1411.376867	-2.984600	3.531800	-10.539000	25.307975	0.000252	20.881739
1412.374033	-2.980500	3.532400	-10.527000	25.316300	0.000250	20.897684
1413.379079	-3.009500	3.531900	-10.628000	25.325796	0.000250	20.882089
1414.379023	-2.993500	3.531000	-10.569000	25.325125	0.000249	20.894691
1415.374857	-3.008900	3.530700	-10.622000	25.307603	0.000250	20.881840
1416.379769	-2.992500	3.530000	-10.562000	25.323707	0.000249	20.892793
1417.376891	-3.004800	3.529800	-10.604000	25.311828	0.000249	20.883712
1418.383413	-2.971900	3.530900	-10.493000	25.300693	0.000248	20.887704
1419.377597	-2.990700	3.530200	-10.556000	25.305764	0.000248	20.878571
1420.380392	-3.012200	3.529200	-10.630000	25.311206	0.000246	20.878346
1421.377707	-3.018400	3.528900	-10.652000	25.321323	0.000247	20.875701
1422.382974	-3.004800	3.529300	-10.603000	25.297486	0.000245	20.884010
1423.375850	-3.026600	3.527500	-10.676000	25.310909	0.000246	20.879469
1424.380210	-2.980600	3.528700	-10.517000	25.306981	0.000245	20.867940
1425.381092	-3.019800	3.526500	-10.648000	25.317421	0.000246	20.873680
1426.377978	-2.999100	3.528500	-10.581000	25.306806	0.000245	20.885781
1427.377083	-2.980800	3.527300	-10.513000	25.308373	0.000243	20.879768
1428.379674	-2.990000	3.526300	-10.543000	25.299103	0.000244	20.879469
1429.377623	-3.013600	3.527700	-10.630000	25.302235	0.000242	20.881192
1430.377382	-3.010000	3.525300	-10.610000	25.303079	0.000242	20.870660
1431.382845	-2.958500	3.526800	-10.433000	25.294008	0.000241	20.885260
1432.379208	-2.999100	3.525200	-10.571000	25.310164	0.000242	20.855489
1433.379570	-3.000600	3.525000	-10.576000	25.308326	0.000242	20.872135
1434.381446	-3.007700	3.524000	-10.599000	25.308027	0.000243	20.877999
1435.379550	-2.993500	3.525500	-10.553000	25.331738	0.000240	20.866719
1436.381591	-3.004800	3.523700	-10.587000	25.329030	0.000242	20.879172
1437.384159	-3.002300	3.524100	-10.580000	25.326520	0.000242	20.876178
1438.383741	-2.992400	3.523700	-10.544000	25.328211	0.000242	20.865074
1439.380144	-3.002000	3.523200	-10.575000	25.308747	0.000239	20.869713
1440.385548	-2.974400	3.523500	-10.479000	25.317124	0.000240	20.881442
1441.383707	-3.010200	3.521900	-10.601000	25.304597	0.000240	20.864125
1442.381217	-3.031800	3.521700	-10.676000	25.324904	0.000238	20.882615
1443.393039	-3.010100	3.521200	-10.598000	25.324108	0.000240	20.859059
1444.388235	-2.987700	3.522000	-10.522000	25.328558	0.000239	20.869690
1445.387013	-2.967300	3.523000	-10.452000	25.305568	0.000237	20.854194
1446.389460	-2.970000	3.521500	-10.458000	25.325054	0.000238	20.879447
1447.384688	-2.998700	3.519100	-10.551000	25.338526	0.000238	20.862629
1448.389916	-2.982900	3.521200	-10.502000	25.322070	0.000236	20.867443
1449.385328	-2.988800	3.520000	-10.520000	25.320802	0.000234	20.870912
1450.386618	-2.990000	3.520100	-10.524000	25.324407	0.000236	20.873108
1451.382392	-2.976400	3.519700	-10.475000	25.328135	0.000236	20.875903
1452.386880	-2.977600	3.519900	-10.480000	25.331218	0.000235	20.856240
1453.384278	-3.003600	3.518100	-10.566000	25.324656	0.000235	20.868617
1454.385233	-2.996200	3.518900	-10.542000	25.336437	0.000234	20.850101
1455.386978	-3.004200	3.517500	-10.566000	25.344143	0.000233	20.833183
1456.384251	-3.007300	3.517500	-10.577000	25.347523	0.000234	20.856964
1457.390066	-2.991400	3.518500	-10.523000	25.355848	0.000231	20.860582
1458.388314	-3.036200	3.516700	-10.676000	25.328782	0.000233	20.840045
1459.386181	-3.015100	3.516200	-10.600000	25.341458	0.000232	20.860832
1460.386194	-3.026800	3.516000	-10.642000	25.323662	0.000232	20.850550
1461.390378	-2.981300	3.517200	-10.485000	25.334350	0.000232	20.847057
1462.386755	-2.991400	3.516000	-10.517000	25.333630	0.000232	20.865300
1463.384485	-3.015400	3.515700	-10.600000	25.346530	0.000230	20.861657
1464.387320	-3.005900	3.514700	-10.564000	25.348021	0.000230	20.869792
1465.386069	-2.991400	3.515300	-10.515000	25.346555	0.000230	20.857889
1466.386444	-3.002400	3.515600	-10.555000	25.322471	0.000230	20.858837
1467.386581	-2.992100	3.515500	-10.518000	25.343374	0.000230	20.859911
1468.388908	-2.985900	3.514200	-10.492000	25.353118	0.000230	20.839349
1469.387701	-2.991200	3.514600	-10.512000	25.357145	0.000229	20.843393
1470.387136	-3.001800	3.514000	-10.548000	25.337659	0.000227	20.855122
1471.387466	-2.999200	3.513400	-10.536000	25.335026	0.000226	20.852477
1472.392005	-3.001000	3.514700	-10.547000	25.358934	0.000228	20.846138
1473.392636	-3.016700	3.512900	-10.595000	25.335673	0.000226	20.852179
1474.395105	-3.004600	3.511900	-10.551000	25.329309	0.000226	20.826824
1475.388570	-3.000200	3.512300	-10.536000	25.369572	0.000223	20.849707
1476.393565	-3.004500	3.511800	-10.550000	25.352623	0.000226	20.857818
1477.389822	-3.007500	3.512400	-10.562000	25.343702	0.000225	20.849809
1478.391742	-2.998300	3.510600	-10.525000	25.363337	0.000224	20.846291
1479.389719	-2.996000	3.511200	-10.519000	25.343629	0.000224	20.858745
1480.396782	-3.002800	3.510700	-10.541000	25.335154	0.000222	20.854502
1481.392542	-3.008100	3.510200	-10.558000	25.337441	0.000222	20.842100
1482.397723	-2.993100	3.510500	-10.506000	25.338634	0.000221	20.833342
1483.398983	-2.991400	3.509400	-10.497000	25.318776	0.000222	20.850860
1484.392980	-2.999300	3.509300	-10.524000	25.335254	0.000222	20.839431
1485.391767	-3.005200	3.509800	-10.546000	25.321634	0.000223	20.842825
1486.393655	-3.002400	3.508600	-10.532000	25.349198	0.000222	20.841104
1487.396584	-3.003300	3.507100	-10.531000	25.326382	0.000221	20.839058
1488.393980	-3.012100	3.507800	-10.565000	25.335429	0.000220	20.833917
1489.395341	-2.998600	3.508800	-10.521000	25.332150	0.000218	20.823038
1490.393208	-2.977000	3.507300	-10.440000	25.335952	0.000220	20.836339
1491.396395	-3.010600	3.506900	-10.558000	25.359663	0.000220	20.829800
1492.400177	-3.017000	3.506500	-10.578000	25.345547	0.000218	20.838386
1493.396704	-3.020700	3.506300	-10.590000	25.335630	0.000221	20.839334
1494.396819	-3.008300	3.505200	-10.543000	25.334587	0.000217	20.847769
1495.401987	-2.998000	3.506500	-10.512000	25.354172	0.000218	20.829029
1496.397050	-3.003300	3.505400	-10.527000	25.352186	0.000217	20.836517
1497.397660	-3.018100	3.503900	-10.574000	25.330513	0.000215	20.831351
1498.401341	-3.023000	3.504500	-10.593000	25.347117	0.000216	20.842807
1499.398469	-3.005600	3.503700	-10.529000	25.349552	0.000216	20.813959
1500.397698	-3.003700	3.505400	-10.527000	25.368963	0.000216	20.828707
1501.403141	-2.992500	3.504000	-10.485000	25.341202	0.000216	20.827385
1502.401440	-3.003400	3.502900	-10.519000	25.355369	0.000216	20.829282
1503.401830	-3.025000	3.502000	-10.593000	25.349628	0.000213	20.818776
1504.402373	-3.010500	3.501300	-10.540000	25.333473	0.000216	20.837168
1505.398018	-3.010700	3.502400	-10.544000	25.357134	0.000213	20.816356
1506.399027	-2.993000	3.502200	-10.482000	25.334567	0.000211	20.817405
1507.399463	-3.006100	3.501100	-10.522000	25.339364	0.000211	20.829807
1508.397927	-3.000300	3.502200	-10.507000	25.328801	0.000212	20.825840
1509.397944	-3.011200	3.501100	-10.541000	25.325247	0.000210	20.826538
1510.402582	-3.003100	3.501300	-10.514000	25.342620	0.000213	20.824542
1511.400107	-3.010000	3.500400	-10.535000	25.347867	0.000210	20.824120
1512.400624	-2.999200	3.501800	-10.502000	25.355619	0.000209	20.840439
1513.404962	-3.005900	3.499600	-10.518000	25.349680	0.000208	20.843958
1514.403131	-3.000100	3.501700	-10.504000	25.346449	0.000210	20.839766
1515.402071	-2.994800	3.499200	-10.478000	25.331190	0.000209	20.814962
1516.403783	-2.975900	3.499900	-10.414000	25.343318	0.000207	20.818605
1517.406343	-2.983200	3.499300	-10.439000	25.349880	0.000208	20.838943
1518.401255	-2.992800	3.497800	-10.468000	25.338822	0.000208	20.827840
1519.404092	-3.005600	3.499000	-10.515000	25.355523	0.000209	20.817583
1520.402771	-2.976600	3.498800	-10.413000	25.334174	0.000205	20.816061
1521.406658	-2.989700	3.497900	-10.456000	25.328583	0.000206	20.811870
1522.404443	-2.977300	3.498200	-10.414000	25.337304	0.000206	20.803558
1523.412090	-3.000300	3.496600	-10.490000	25.328160	0.000206	20.810023
1524.403394	-2.971600	3.497600	-10.392000	25.327191	0.000207	20.831335
1525.407986	-2.997600	3.496800	-10.481000	25.350406	0.000206	20.821928
1526.411095	-3.028000	3.495000	-10.581000	25.341607	0.000206	20.831111
1527.404043	-2.983600	3.496100	-10.429000	25.347523	0.000204	20.816189
1528.407614	-3.004200	3.494600	-10.498000	25.348566	0.000205	20.830038
1529.408752	-2.990900	3.494700	-10.450000	25.352346	0.000205	20.837626
1530.413646	-2.990500	3.494800	-10.450000	25.346057	0.000205	20.803337
1531.408936	-3.020100	3.495600	-10.556000	25.344888	0.000203	20.806905
1532.408263	-3.008300	3.494400	-10.512000	25.347349	0.000202	20.807480
1533.408510	-3.022400	3.493500	-10.558000	25.347075	0.000203	20.800567
1534.415500	-3.009800	3.494100	-10.516000	25.351922	0.000202	20.822028
1535.410063	-2.990000	3.494900	-10.449000	25.348193	0.000202	20.829190
1536.414279	-2.988200	3.493900	-10.440000	25.330523	0.000200	20.801016
1537.415160	-3.002200	3.492800	-10.484000	25.338151	0.000200	20.817684
1538.411946	-3.008600	3.492700	-10.508000	25.367877	0.000199	20.811496
1539.413234	-2.988100	3.492300	-10.434000	25.357513	0.000200	20.812943
1540.415726	-3.004100	3.492300	-10.490000	25.352094	0.000199	20.802760
1541.413587	-2.996200	3.492200	-10.463000	25.345756	0.000198	20.810148
1542.412541	-2.999600	3.491500	-10.473000	25.380949	0.000198	20.799965
1543.417545	-3.009300	3.490400	-10.502000	25.342352	0.000199	20.806729
1544.413762	-3.019200	3.490800	-10.538000	25.348935	0.000197	20.814762
1545.413224	-3.012500	3.489500	-10.511000	25.338424	0.000196	20.805156
1546.415206	-2.996100	3.490200	-10.456000	25.350925	0.000197	20.805854
1547.416153	-2.991000	3.490200	-10.439000	25.351298	0.000195	20.823298
1548.416036	-3.009300	3.489700	-10.500000	25.372074	0.000195	20.801012
1549.418345	-2.984500	3.489500	-10.414000	25.351296	0.000194	20.809072
1550.416610	-3.009400	3.488100	-10.496000	25.360990	0.000194	20.811219
1551.417073	-3.004200	3.489200	-10.481000	25.378264	0.000195	20.809123
1552.422507	-2.989800	3.488500	-10.428000	25.373666	0.000194	20.811144
1553.418415	-3.030500	3.487200	-10.567000	25.340362	0.000193	20.791930
1554.418365	-3.020800	3.486500	-10.531000	25.362531	0.000193	20.811343
1555.420261	-2.997800	3.488000	-10.455000	25.334768	0.000191	20.804805
1556.418160	-2.994500	3.486900	-10.440000	25.356243	0.000190	20.798392
1557.419097	-2.989000	3.486900	-10.420000	25.345755	0.000191	20.802086
1558.425441	-2.995800	3.486900	-10.445000	25.360941	0.000190	20.800738
1559.420752	-2.987100	3.486200	-10.412000	25.334968	0.000193	20.788884
1560.421004	-3.013200	3.485300	-10.501000	25.340785	0.000190	20.783819
1561.427491	-2.989800	3.486200	-10.422000	25.335044	0.000190	20.804607
1562.419834	-3.011000	3.484700	-10.491000	25.358705	0.000190	20.795648
1563.421824	-3.011400	3.483600	-10.490000	25.336733	0.000191	20.795872
1564.427914	-2.976700	3.484100	-10.370000	25.366708	0.000189	20.798468
1565.421047	-3.001400	3.484300	-10.457000	25.357686	0.000189	20.808850
1566.425163	-2.993900	3.484200	-10.431000	25.347422	0.000188	20.792854
1567.420856	-3.024500	3.481600	-10.529000	25.349485	0.000188	20.789709
1568.423661	-3.007500	3.481400	-10.469000	25.373569	0.000189	20.813893
1569.423685	-2.991700	3.481800	-10.416000	25.366485	0.000188	20.791132
1570.420992	-2.989800	3.482300	-10.410000	25.350057	0.000187	20.808302
1571.421739	-2.990600	3.481200	-10.410000	25.341782	0.000183	20.783398
1572.423579	-2.985200	3.482000	-10.393000	25.357142	0.000186	20.781277
1573.424841	-3.021500	3.481100	-10.516000	25.357813	0.000184	20.788588
1574.424561	-2.994200	3.482800	-10.427000	25.356621	0.000185	20.780753
1575.429662	-3.011400	3.480100	-10.479000	25.380828	0.000185	20.770920
1576.426046	-3.021600	3.479400	-10.513000	25.361343	0.000183	20.792133
1577.425687	-3.007400	3.479500	-10.463000	25.356969	0.000185	20.776361
1578.428771	-3.018500	3.478800	-10.500000	25.369024	0.000184	20.793681
1579.430024	-3.011600	3.478200	-10.474000	25.372876	0.000181	20.790437
1580.427672	-3.015900	3.478300	-10.489000	25.364599	0.000183	20.790187
1581.430962	-3.012900	3.478200	-10.478000	25.357195	0.000181	20.794606
1582.431161	-3.018700	3.477500	-10.496000	25.360253	0.000182	20.804315
1583.430232	-3.010600	3.477700	-10.468000	25.355455	0.000180	20.783376
1584.430442	-3.008500	3.476800	-10.459000	25.360277	0.000181	20.783002
1585.427855	-2.985600	3.478500	-10.384000	25.369573	0.000180	20.789966
1586.430414	-2.990300	3.476900	-10.396000	25.361869	0.000180	20.789342
1587.429055	-3.008100	3.476300	-10.456000	25.348224	0.000180	20.785124
1588.432358	-2.972100	3.476900	-10.333000	25.366840	0.000178	20.785799
1589.428903	-3.000400	3.474600	-10.424000	25.355060	0.000179	20.790566
1590.433167	-2.976700	3.476900	-10.348000	25.368506	0.000178	20.782256
1591.430715	-2.993100	3.476000	-10.403000	25.341913	0.000178	20.804392
1592.431983	-2.985600	3.475300	-10.374000	25.376212	0.000175	20.772449
1593.431663	-3.015700	3.473600	-10.474000	25.357349	0.000176	20.782433
1594.433830	-3.004200	3.473200	-10.433000	25.369229	0.000177	20.785827
1595.433011	-2.979700	3.475800	-10.355000	25.364109	0.000174	20.800600
1596.433442	-3.004600	3.474600	-10.439000	25.369130	0.000175	20.795685
1597.433998	-3.003200	3.474100	-10.433000	25.368659	0.000175	20.776720
1598.436125	-2.983800	3.474100	-10.366000	25.379619	0.000174	20.781561
1599.433112	-3.014700	3.473600	-10.471000	25.348877	0.000176	20.779142
1600.433714	-2.989200	3.471700	-10.377000	25.344752	0.000174	20.791122
1601.435615	-3.014000	3.472700	-10.466000	25.360658	0.000172	20.779591
1602.433399	-3.021700	3.472500	-10.491000	25.378156	0.000172	20.790523
1603.436333	-3.005300	3.470500	-10.429000	25.363691	0.000175	20.784533
1604.433975	-3.000400	3.470800	-10.413000	25.370254	0.000173	20.799658
1605.434095	-3.024800	3.470100	-10.496000	25.372293	0.000172	20.779894
1606.434741	-2.996500	3.472400	-10.404000	25.373908	0.000170	20.777722
1607.438215	-2.994500	3.469800	-10.389000	25.374903	0.000171	20.783938
1608.438543	-2.999500	3.470800	-10.409000	25.357457	0.000172	20.774955
1609.437674	-2.983700	3.471400	-10.356000	25.362701	0.000169	20.778324
1610.440117	-2.999100	3.468000	-10.401000	25.402145	0.000172	20.771937
1611.437022	-3.005400	3.468900	-10.424000	25.373414	0.000170	20.771062
1612.438210	-3.002500	3.468100	-10.412000	25.379181	0.000169	20.794397
1613.438653	-2.985000	3.468800	-10.354000	25.380624	0.000168	20.772612
1614.437936	-3.009900	3.467900	-10.436000	25.393548	0.000169	20.783693
1615.436767	-3.013400	3.467200	-10.447000	25.365613	0.000169	20.781248
1616.438282	-3.007600	3.466200	-10.424000	25.384277	0.000167	20.770117
1617.437149	-2.977000	3.468500	-10.325000	25.392531	0.000170	20.767025
1618.439074	-2.977400	3.467300	-10.322000	25.367477	0.000169	20.780275
1619.437948	-2.989600	3.466900	-10.364000	25.373195	0.000167	20.769420
1620.438690	-2.989700	3.466900	-10.364000	25.391240	0.000166	20.781850
1621.443998	-2.976600	3.465900	-10.316000	25.393898	0.000166	20.792105
1622.440306	-2.985500	3.466600	-10.349000	25.363006	0.000165	20.780052
1623.439559	-3.006900	3.465700	-10.420000	25.370837	0.000165	20.809253
1624.439146	-2.990800	3.465900	-10.364000	25.383362	0.000165	20.803337
1625.441926	-3.010400	3.464100	-10.428000	25.397256	0.000165	20.799270
1626.440659	-2.995200	3.464700	-10.377000	25.383139	0.000165	20.784147
1627.441988	-3.023900	3.463100	-10.471000	25.389973	0.000164	20.787690
1628.441141	-3.023100	3.464200	-10.472000	25.396685	0.000164	20.777360
1629.441049	-2.998500	3.462900	-10.383000	25.378492	0.000163	20.784222
1630.442565	-3.017800	3.461700	-10.444000	25.374588	0.000163	20.776984
1631.442619	-3.019900	3.462200	-10.454000	25.379709	0.000162	20.785444
1632.448856	-3.008900	3.462200	-10.417000	25.366014	0.000163	20.774538
1633.442323	-2.995200	3.462400	-10.369000	25.402673	0.000161	20.804710
1634.445338	-2.978900	3.461500	-10.311000	25.383263	0.000160	20.786642
1635.443861	-3.013700	3.460100	-10.427000	25.393328	0.000160	20.792482
1636.443728	-2.979800	3.460500	-10.310000	25.391192	0.000163	20.783698
1637.443664	-3.009600	3.460600	-10.414000	25.388532	0.000161	20.794778
1638.442626	-2.988600	3.460300	-10.341000	25.392831	0.000160	20.770645
1639.444312	-2.998200	3.459500	-10.372000	25.401679	0.000158	20.819359
1640.446500	-3.003800	3.459900	-10.392000	25.381498	0.000160	20.800043
1641.446182	-3.016900	3.459000	-10.434000	25.385250	0.000159	20.779154
1642.444069	-2.994800	3.459400	-10.359000	25.385398	0.000160	20.776458
1643.443278	-3.017000	3.458100	-10.432000	25.385748	0.000159	20.791983
1644.447548	-3.013400	3.458500	-10.421000	25.382567	0.000159	20.785943
1645.446048	-2.964300	3.459100	-10.253000	25.396434	0.000157	20.790384
1646.443586	-2.997800	3.458600	-10.367000	25.396284	0.000154	20.803510
1647.445579	-2.985700	3.457800	-10.323000	25.385872	0.000157	20.793055
1648.452640	-3.001000	3.457000	-10.373000	25.425610	0.000157	20.783645
1649.446874	-2.995900	3.455700	-10.352000	25.403466	0.000155	20.812618
1650.448989	-3.002500	3.455200	-10.372000	25.401727	0.000154	20.794277
1651.450085	-2.990200	3.457300	-10.337000	25.401878	0.000154	20.798695
1652.444941	-2.988300	3.455900	-10.326000	25.409555	0.000157	20.795025
1653.446889	-3.014400	3.455300	-10.414000	25.407965	0.000154	20.791058
1654.450945	-3.003600	3.454800	-10.375000	25.382464	0.000154	20.793427
1655.447652	-3.000100	3.455100	-10.364000	25.423795	0.000152	20.792729
1656.451143	-3.005700	3.454700	-10.382000	25.391042	0.000152	20.809626
1657.446685	-3.011700	3.453700	-10.401000	25.401453	0.000153	20.813442
1658.447321	-2.995200	3.454700	-10.346000	25.406076	0.000151	20.808601
1659.450109	-2.972900	3.454000	-10.267000	25.416615	0.000150	20.802588
1660.449431	-2.998800	3.453600	-10.356000	25.405082	0.000150	20.791956
1661.448848	-2.991900	3.453800	-10.333000	25.399317	0.000150	20.790908
1662.452727	-3.008900	3.451900	-10.386000	25.410078	0.000150	20.802663
1663.448087	-2.984000	3.452800	-10.303000	25.399218	0.000150	20.800766
1664.452239	-3.001300	3.452100	-10.359000	25.401580	0.000150	20.806932
1665.456279	-3.009000	3.450400	-10.381000	25.416864	0.000148	20.799045
1666.450670	-3.015800	3.449900	-10.403000	25.384655	0.000149	20.823127
1667.451345	-2.986500	3.449900	-10.301000	25.402997	0.000148	20.798397
1668.453203	-2.992600	3.451400	-10.327000	25.395245	0.000149	20.797725
1669.452909	-3.014500	3.449100	-10.396000	25.406279	0.000147	20.815443
1670.451052	-2.986400	3.450200	-10.303000	25.416867	0.000146	20.820385
1671.454386	-2.990600	3.450100	-10.317000	25.416869	0.000146	20.818490
1672.452001	-3.021000	3.448800	-10.418000	25.403299	0.000146	20.809131
1673.452936	-2.979800	3.450000	-10.279000	25.402379	0.000144	20.811527
1674.455469	-2.985700	3.449700	-10.299000	25.405982	0.000146	20.800446
1675.453527	-2.999500	3.447400	-10.340000	25.395644	0.000145	20.817566
1676.453182	-2.998900	3.447300	-10.336000	25.399549	0.000144	20.808211
1677.459887	-2.997600	3.447300	-10.332000	25.405139	0.000143	20.801497
1678.457586	-2.995400	3.447600	-10.326000	25.404941	0.000142	20.817893
1679.455439	-3.012000	3.446400	-10.380000	25.389681	0.000144	20.813475
1680.463730	-2.996200	3.446700	-10.326000	25.408694	0.000144	20.810756
1681.456663	-2.977400	3.447000	-10.262000	25.402508	0.000144	20.820665
1682.457352	-2.970300	3.446000	-10.234000	25.400544	0.000142	20.812055
1683.460135	-2.998700	3.446000	-10.333000	25.429101	0.000142	20.813703
1684.457420	-2.992100	3.444600	-10.306000	25.410586	0.000141	20.819768
1685.457381	-2.988200	3.444100	-10.291000	25.405268	0.000141	20.809686
1686.459868	-3.011300	3.443600	-10.368000	25.415930	0.000140	20.831298
1687.456929	-3.013100	3.444900	-10.379000	25.432358	0.000139	20.817922
1688.457335	-2.990700	3.444100	-10.299000	25.401964	0.000140	20.812058
1689.460291	-3.002500	3.443100	-10.337000	25.409843	0.000137	20.801478
1690.458987	-3.011900	3.442400	-10.367000	25.415955	0.000140	20.827530
1691.459497	-3.006800	3.441500	-10.347000	25.401418	0.000139	20.822415
1692.462558	-2.989900	3.442000	-10.291000	25.417920	0.000139	20.819545
1693.459684	-2.996600	3.442300	-10.314000	25.421549	0.000137	20.831724
1694.459852	-2.998400	3.441500	-10.318000	25.411111	0.000136	20.834993
1695.462004	-3.007500	3.441100	-10.348000	25.434299	0.000137	20.840734
1696.459862	-3.016800	3.439700	-10.376000	25.427192	0.000134	20.813683
1697.460725	-3.002400	3.440600	-10.329000	25.428980	0.000137	20.819746
1698.461126	-2.992900	3.440300	-10.295000	25.420629	0.000134	20.832697
1699.460197	-3.014600	3.439800	-10.368000	25.422420	0.000135	20.826435
1700.461275	-2.997200	3.439900	-10.309000	25.422694	0.000136	20.828133
1701.464614	-2.998300	3.438900	-10.310000	25.433852	0.000134	20.828431
1702.462436	-2.977100	3.440600	-10.242000	25.440786	0.000135	20.836342
1703.463779	-2.987900	3.439300	-10.275000	25.411808	0.000134	20.840434
1704.467545	-2.993100	3.439200	-10.293000	25.416305	0.000133	20.863441
1705.464734	-3.019300	3.437600	-10.378000	25.430943	0.000133	20.822665
1706.464192	-2.994900	3.439300	-10.299000	25.439817	0.000132	20.847223
1707.469014	-3.007900	3.436900	-10.337000	25.450750	0.000131	20.851563
1708.465631	-3.002000	3.437400	-10.319000	25.436263	0.000131	20.845076
1709.469491	-2.979800	3.436500	-10.238000	25.450055	0.000131	20.819098
1710.487861	-2.998100	3.436800	-10.303000	25.446925	0.000134	20.851515
1711.466879	-3.013700	3.436400	-10.355000	25.455573	0.000132	20.840285
1712.469110	-3.013000	3.435400	-10.349000	25.451944	0.000131	20.832374
1713.472986	-2.992900	3.435600	-10.281000	25.433555	0.000131	20.822917
1714.467961	-3.002500	3.434900	-10.312000	25.448663	0.000131	20.836666
1715.468576	-3.017000	3.434800	-10.362000	25.446155	0.000129	20.853113
1716.471633	-2.986600	3.434600	-10.257000	25.451599	0.000130	20.850518
1717.468723	-3.010200	3.433200	-10.333000	25.422298	0.000130	20.826312
1718.468896	-2.989000	3.434100	-10.264000	25.450730	0.000128	20.849172
1719.472518	-3.014000	3.434000	-10.349000	25.428463	0.000129	20.865692
1720.467642	-3.001000	3.432600	-10.301000	25.452150	0.000129	20.841589
1721.467787	-2.991700	3.433800	-10.272000	25.447055	0.000128	20.847852
1722.473319	-3.009400	3.432800	-10.330000	25.441961	0.000127	20.849376
1723.470286	-2.999100	3.433300	-10.296000	25.436095	0.000125	20.844434
1724.468816	-3.016700	3.431600	-10.351000	25.459112	0.000124	20.842416
1725.471877	-3.027000	3.429900	-10.381000	25.469227	0.000125	20.850203
1726.467981	-3.020300	3.430900	-10.362000	25.456006	0.000124	20.841194
1727.469637	-3.002600	3.432400	-10.306000	25.431479	0.000122	20.844540
1728.469978	-3.009000	3.430900	-10.323000	25.447807	0.000123	20.844815
1729.468760	-2.975300	3.430400	-10.206000	25.450120	0.000124	20.861835
1730.470148	-2.967600	3.430700	-10.180000	25.447860	0.000124	20.840601
1731.473857	-3.015100	3.429700	-10.340000	25.455192	0.000124	20.839903
1732.469205	-2.976400	3.430600	-10.210000	25.446546	0.000123	20.839281
1733.470630	-2.986900	3.430200	-10.245000	25.446871	0.000121	20.848142
1734.475539	-3.006300	3.428800	-10.307000	25.442597	0.000121	20.872772
1735.469718	-3.004400	3.428900	-10.301000	25.443493	0.000122	20.867982
1736.470291	-3.013800	3.427500	-10.329000	25.452341	0.000122	20.856479
1737.475174	-3.012600	3.426800	-10.322000	25.467999	0.000121	20.841383
1738.471092	-3.018900	3.427000	-10.345000	25.459404	0.000123	20.855511
1739.471742	-3.016600	3.426100	-10.334000	25.435894	0.000121	20.847550
1740.474329	-3.021000	3.426700	-10.351000	25.440843	0.000121	20.856313
1741.472494	-2.954300	3.429100	-10.130000	25.431599	0.000121	20.836600
1742.473105	-3.010600	3.425700	-10.313000	25.460302	0.000121	20.863050
1743.477454	-2.985400	3.426200	-10.227000	25.445938	0.000118	20.862851
1744.473154	-2.997800	3.426100	-10.269000	25.462194	0.000118	20.857364
1745.474136	-3.003800	3.424800	-10.286000	25.440673	0.000118	20.880323
1746.475231	-2.978900	3.424900	-10.202000	25.456506	0.000117	20.858291
1747.475574	-2.989100	3.425100	-10.237000	25.448456	0.000117	20.871069
1748.473716	-2.988600	3.423700	-10.231000	25.448730	0.000116	20.868026
1749.475984	-3.005100	3.424100	-10.289000	25.451094	0.000118	20.867081
1750.475780	-3.002000	3.423200	-10.276000	25.457183	0.000117	20.873669
1751.474950	-3.004700	3.423200	-10.286000	25.450352	0.000115	20.853533
1752.476709	-3.003600	3.423300	-10.281000	25.471030	0.000115	20.865763
1753.472842	-2.983400	3.423200	-10.211000	25.459052	0.000115	20.876968
1754.481367	-3.011000	3.421800	-10.302000	25.478139	0.000116	20.872901
1755.474479	-2.991400	3.422100	-10.236000	25.444218	0.000115	20.875822
1756.477130	-3.007100	3.419800	-10.283000	25.476875	0.000115	20.873528
1757.475851	-3.008300	3.420500	-10.288000	25.469097	0.000114	20.864770
1758.476974	-3.007400	3.421000	-10.287000	25.475683	0.000115	20.861426
1759.474535	-2.994100	3.420100	-10.239000	25.438159	0.000111	20.866894
1760.477579	-2.982900	3.419700	-10.201000	25.462341	0.000113	20.868417
1761.479743	-2.982500	3.420500	-10.201000	25.455460	0.000112	20.876206
1762.478184	-3.016800	3.418500	-10.311000	25.467090	0.000112	20.885038
1763.482149	-3.002000	3.418500	-10.262000	25.462989	0.000111	20.887084
1764.480971	-2.975500	3.419300	-10.173000	25.474722	0.000111	20.871367
1765.480431	-3.006400	3.418600	-10.276000	25.482724	0.000111	20.876083
1766.483021	-2.985800	3.420400	-10.211000	25.472262	0.000110	20.856095
1767.479783	-3.003700	3.417300	-10.264000	25.456433	0.000112	20.861536
1768.479857	-2.984600	3.418200	-10.201000	25.452655	0.000110	20.867226
1769.482487	-2.993700	3.418000	-10.231000	25.475246	0.000109	20.888012
1770.482366	-3.010300	3.415800	-10.282000	25.465282	0.000109	20.887016
1771.481383	-2.988700	3.416500	-10.210000	25.474949	0.000108	20.882025
1772.483539	-2.991200	3.416100	-10.218000	25.464340	0.000109	20.885122
1773.482096	-3.009300	3.415000	-10.275000	25.465433	0.000109	20.877211
1774.482701	-2.972700	3.416400	-10.155000	25.478406	0.000110	20.868902
1775.492267	-2.979400	3.414700	-10.173000	25.482731	0.000107	20.878461
1776.483088	-2.983600	3.415300	-10.188000	25.473536	0.000105	20.884873
1777.484437	-3.002100	3.414400	-10.250000	25.501791	0.000106	20.885272
1778.484262	-2.999600	3.414100	-10.240000	25.485665	0.000108	20.879984
1779.486036	-2.978300	3.414500	-10.168000	25.462281	0.000105	20.874995
1780.485826	-3.018100	3.413300	-10.301000	25.481714	0.000106	20.882655
1781.483183	-2.992900	3.413800	-10.217000	25.475652	0.000105	20.882731
1782.483311	-2.999000	3.413800	-10.236000	25.485444	0.000104	20.879288
1783.486819	-3.008600	3.413200	-10.268000	25.487681	0.000106	20.877267
1784.485071	-3.018800	3.412400	-10.300000	25.509549	0.000104	20.896381
1785.486678	-2.988200	3.413500	-10.199000	25.495881	0.000105	20.879338
1786.484597	-3.019000	3.411400	-10.298000	25.501027	0.000104	20.882135
1787.485059	-3.005900	3.410500	-10.250000	25.515068	0.000102	20.870157
1788.485992	-3.009100	3.409700	-10.259000	25.529705	0.000102	20.914724
1789.486686	-3.001200	3.410600	-10.235000	25.510495	0.000101	20.877893
1790.486193	-3.004700	3.409900	-10.243000	25.539968	0.000101	20.904644
1791.487675	-2.990800	3.409000	-10.195000	25.520264	0.000102	20.873952
1792.488940	-2.984000	3.409400	-10.173000	25.522921	9.995813E-5	20.903646
1793.485088	-3.004200	3.409400	-10.242000	25.521579	0.000101	20.892342
1794.487868	-3.004300	3.408300	-10.238000	25.508808	9.992514E-5	20.880940
1795.486178	-3.005200	3.408800	-10.243000	25.543475	0.000102	20.893942
1796.486247	-3.026000	3.407100	-10.309000	25.531275	9.929824E-5	20.899233
1797.488259	-2.997400	3.407900	-10.214000	25.522306	9.830839E-5	20.882167
1798.490560	-3.021900	3.407600	-10.297000	25.524069	9.705458E-5	20.894368
1799.489480	-2.985800	3.409300	-10.179000	25.535403	9.731854E-5	20.909067
1800.490051	-2.992600	3.408400	-10.199000	25.543926	9.847336E-5	20.902928
1801.490318	-3.013200	3.407100	-10.265000	25.539928	9.748352E-5	20.909818
1802.489861	-3.017500	3.405200	-10.274000	25.546886	9.688961E-5	20.901160
1803.492455	-3.005100	3.405700	-10.234000	25.530115	9.748352E-5	20.895698
1804.491259	-3.017700	3.404700	-10.273000	25.525594	9.613072E-5	20.907277
1805.491946	-2.996900	3.406400	-10.207000	25.530839	9.695560E-5	20.892157
1806.491424	-2.990200	3.404500	-10.179000	25.527634	9.527286E-5	20.899844
1807.493439	-3.006000	3.404900	-10.235000	25.535463	9.362311E-5	20.911972
1808.492594	-3.014900	3.405000	-10.265000	25.548936	9.319418E-5	20.912226
1809.492261	-2.994600	3.403600	-10.191000	25.542176	9.497590E-5	20.909705
1810.494863	-3.009400	3.403000	-10.239000	25.546653	9.368910E-5	20.892392
1811.491941	-3.003600	3.403500	-10.221000	25.554632	9.250128E-5	20.915576
1812.493692	-2.998500	3.402900	-10.203000	25.552894	9.137946E-5	20.916675
1813.494135	-3.016500	3.402800	-10.264000	25.557992	9.210534E-5	20.915157
1814.494087	-3.014900	3.402700	-10.258000	25.555186	9.151144E-5	20.913761
1815.494311	-2.978000	3.403000	-10.133000	25.540500	9.283123E-5	20.900911
1816.500291	-2.996700	3.402100	-10.194000	25.555016	9.200636E-5	20.910746
1817.495369	-2.970000	3.402900	-10.105000	25.545452	9.071956E-5	20.910624
1818.498622	-3.006100	3.401700	-10.225000	25.560385	9.005966E-5	20.902862
1819.499711	-2.987900	3.403000	-10.166000	25.565161	8.946575E-5	20.916667
1820.496878	-2.991900	3.400200	-10.173000	25.560787	9.071956E-5	20.910851
1821.498405	-3.003100	3.400500	-10.212000	25.556069	8.804697E-5	20.923656
1822.499191	-3.012800	3.399300	-10.241000	25.553883	8.989468E-5	20.930469
1823.498725	-2.993800	3.400100	-10.178000	25.560246	8.778301E-5	20.916946
1824.498358	-2.996300	3.399100	-10.184000	25.554308	8.765103E-5	20.905768
1825.501755	-3.000600	3.398300	-10.195000	25.581469	8.824494E-5	20.923086
1826.499265	-2.996500	3.398500	-10.182000	25.550335	8.784900E-5	20.937810
1827.501207	-3.007500	3.398500	-10.219000	25.561990	8.877286E-5	20.913956
1828.503201	-3.013200	3.398000	-10.237000	25.565643	8.679316E-5	20.925210
1829.500293	-2.965300	3.397800	-10.074000	25.568327	8.563834E-5	20.914157
1830.500748	-2.992600	3.397500	-10.167000	25.575164	8.768402E-5	20.915807
1831.518234	-2.981100	3.397600	-10.128000	25.576479	8.633123E-5	20.920446
1832.503054	-3.001000	3.396500	-10.192000	25.567484	8.573732E-5	20.908569
1833.507257	-3.028900	3.395200	-10.282000	25.569525	8.309773E-5	20.936694
1834.508108	-3.021600	3.395900	-10.260000	25.578594	8.214088E-5	20.914036
1835.505675	-3.003900	3.395700	-10.200000	25.578966	8.319672E-5	20.926262
1836.507117	-2.981600	3.396400	-10.125000	25.564331	8.359265E-5	20.915359
1837.505065	-2.994400	3.395200	-10.165000	25.577304	8.207489E-5	20.938816
1838.505823	-2.996200	3.395500	-10.171000	25.581977	8.220687E-5	20.928812
1839.507847	-3.003800	3.394200	-10.195000	25.572933	8.210788E-5	20.905981
1840.507319	-2.999500	3.394400	-10.180000	25.568090	8.115103E-5	20.935253
1841.509027	-3.005300	3.394300	-10.200000	25.577408	8.181093E-5	20.922328
1842.510822	-2.999800	3.393600	-10.179000	25.582255	8.006220E-5	20.930988
1843.507870	-2.992500	3.395200	-10.159000	25.595079	8.154697E-5	20.925849
1844.515881	-2.994800	3.393500	-10.162000	25.583251	8.006220E-5	20.911601
1845.507798	-2.997600	3.394400	-10.174000	25.591578	8.049113E-5	20.918541
1846.509874	-2.993000	3.393000	-10.154000	25.595553	7.890738E-5	20.921584
1847.510893	-3.009100	3.392300	-10.207000	25.591827	8.062311E-5	20.894612
1848.510738	-2.989000	3.391800	-10.137000	25.598812	7.999621E-5	20.902100
1849.511902	-2.982700	3.392500	-10.118000	25.606663	7.834646E-5	20.913777
1850.512706	-3.018600	3.392100	-10.238000	25.602888	7.874240E-5	20.896237
1851.512497	-2.999400	3.391500	-10.172000	25.610590	7.785154E-5	20.890222
1852.510321	-2.971700	3.391500	-10.078000	25.598614	7.755458E-5	20.902375
1853.514014	-2.994000	3.390300	-10.150000	25.621127	7.719164E-5	20.911234
1854.512675	-2.993500	3.389400	-10.146000	25.615761	7.540991E-5	20.913905
1855.513562	-3.014900	3.389200	-10.217000	25.612854	7.653174E-5	20.898185
1856.516685	-2.999600	3.389100	-10.165000	25.599014	7.630078E-5	20.871485
1857.513682	-3.015200	3.388400	-10.215000	25.601375	7.593783E-5	20.885709
1858.515940	-3.005400	3.388700	-10.183000	25.597499	7.630078E-5	20.886084
1859.519575	-3.000200	3.389100	-10.167000	25.601801	7.507996E-5	20.914584
1860.515922	-3.004800	3.388100	-10.180000	25.604535	7.633377E-5	20.892201
1861.516782	-2.989700	3.387200	-10.125000	25.608413	7.409012E-5	20.897044
1862.517537	-2.995200	3.387400	-10.145000	25.615917	7.306727E-5	20.887986
1863.515752	-3.000200	3.387800	-10.163000	25.600090	7.300128E-5	20.888686
1864.516881	-3.024100	3.385400	-10.237000	25.613161	7.336423E-5	20.878106
1865.516440	-3.030100	3.385500	-10.258000	25.617684	7.290230E-5	20.885967
1866.520307	-2.984300	3.385500	-10.102000	25.624048	7.257235E-5	20.882876
1867.517811	-2.994500	3.385200	-10.136000	25.602927	7.494798E-5	20.890112
1868.520446	-2.981200	3.384500	-10.089000	25.615971	7.366118E-5	20.896100
1869.515861	-2.985800	3.385000	-10.106000	25.635181	7.253936E-5	20.898797
1870.518546	-2.989500	3.384600	-10.117000	25.610858	7.108758E-5	20.882905
1871.519275	-2.997400	3.385100	-10.145000	25.614907	7.082362E-5	20.885075
1872.516939	-3.007700	3.384200	-10.178000	25.624425	7.184646E-5	20.883255
1873.519879	-2.999000	3.383300	-10.146000	25.631059	7.247337E-5	20.887073
1874.519791	-2.999100	3.384300	-10.149000	25.630787	7.151651E-5	20.876843
1875.518408	-3.000600	3.383900	-10.153000	25.626291	6.956981E-5	20.869957
1876.521871	-2.988300	3.383200	-10.109000	25.628851	7.154951E-5	20.869683
1877.529526	-2.983500	3.383100	-10.093000	25.614614	6.854697E-5	20.865342
1878.521561	-2.991700	3.383000	-10.120000	25.636727	6.894291E-5	20.882334
1879.520930	-2.999900	3.382400	-10.146000	25.649550	6.854697E-5	20.880040
1880.523109	-2.986900	3.383100	-10.104000	25.648383	7.191245E-5	20.861799
1881.521281	-2.991200	3.380400	-10.110000	25.653724	6.874494E-5	20.874276
1882.521541	-2.994900	3.380300	-10.122000	25.652829	6.986677E-5	20.855360
1883.529868	-3.003200	3.381000	-10.153000	25.657004	6.633631E-5	20.863820
1884.525617	-3.000900	3.380000	-10.142000	25.652209	6.745814E-5	20.878443
1885.536593	-3.009500	3.379400	-10.169000	25.637749	6.890991E-5	20.868663
1886.528315	-2.986500	3.378700	-10.090000	25.672385	6.798606E-5	20.889224
1887.524832	-3.014300	3.379000	-10.183000	25.661577	6.726017E-5	20.883110
1888.524590	-2.989200	3.380200	-10.102000	25.653229	6.518149E-5	20.877098
1889.528139	-2.991900	3.379000	-10.109000	25.645327	6.617134E-5	20.886230
1890.524335	-3.002700	3.378300	-10.143000	25.651440	6.752413E-5	20.891420
1891.525157	-3.000800	3.377600	-10.135000	25.687840	6.521448E-5	20.870135
1892.526234	-2.977100	3.378700	-10.058000	25.674152	6.392768E-5	20.881516
1893.525664	-2.996000	3.378200	-10.120000	25.672832	6.346575E-5	20.871657
1894.526084	-3.004200	3.377900	-10.147000	25.652955	6.303682E-5	20.870659
1895.527746	-3.005400	3.376500	-10.147000	25.661401	6.224494E-5	20.872029
1896.525958	-2.988400	3.376400	-10.089000	25.655066	6.244291E-5	20.874675
1897.528843	-2.982900	3.376500	-10.071000	25.667790	6.303682E-5	20.872282
1898.528344	-2.999100	3.376200	-10.125000	25.683789	5.973732E-5	20.860377
1899.528151	-2.995900	3.376900	-10.115000	25.660905	6.191499E-5	20.879116
1900.527236	-3.008600	3.376700	-10.158000	25.665230	6.092514E-5	20.873029
1901.529774	-2.991600	3.374400	-10.094000	25.688461	5.940738E-5	20.865069
1902.528367	-3.024900	3.375000	-10.209000	25.679491	6.135408E-5	20.856534
1903.530862	-2.984200	3.374900	-10.071000	25.688735	6.204697E-5	20.854439
1904.529581	-3.007300	3.373600	-10.144000	25.688038	6.026524E-5	20.864644
1905.528960	-2.989700	3.373800	-10.086000	25.695641	5.963834E-5	20.864220
1906.530367	-2.989300	3.372200	-10.080000	25.685826	5.845052E-5	20.848673
1907.535531	-2.994900	3.373400	-10.103000	25.691592	5.841753E-5	20.853990
1908.533311	-2.999900	3.372900	-10.118000	25.676160	5.660281E-5	20.858404
1909.530098	-3.012800	3.372100	-10.158000	25.680213	5.409519E-5	20.848725
1910.532072	-2.999400	3.370000	-10.107000	25.695018	5.683377E-5	20.860750
1911.531586	-3.021100	3.371000	-10.183000	25.687415	5.802159E-5	20.859278
1912.531682	-2.992800	3.372900	-10.093000	25.701875	5.498606E-5	20.862420
1913.535904	-2.998800	3.371600	-10.110000	25.672954	5.534900E-5	20.867986
1914.532273	-3.015000	3.370800	-10.162000	25.686123	5.623986E-5	20.857979
1915.533682	-3.012200	3.369200	-10.148000	25.717053	5.459012E-5	20.871027
1916.537178	-3.025600	3.370200	-10.196000	25.694169	5.323732E-5	20.876491
1917.534602	-3.011200	3.369600	-10.145000	25.711959	5.406220E-5	20.856429
1918.532607	-3.013800	3.368700	-10.151000	25.697473	5.617387E-5	20.849940
1919.534603	-2.981300	3.369400	-10.045000	25.690615	5.412819E-5	20.862491
1920.535887	-2.987000	3.368800	-10.062000	25.683857	5.069671E-5	20.849540
1921.540149	-2.992900	3.369100	-10.082000	25.716329	5.030078E-5	20.864611
1922.542606	-2.992300	3.369300	-10.081000	25.706290	5.218149E-5	20.865433
1923.534853	-2.995000	3.367800	-10.085000	25.705919	5.158758E-5	20.844199
1924.536278	-3.003900	3.367700	-10.115000	25.695433	5.043276E-5	20.858321
1925.544814	-3.013800	3.366500	-10.144000	25.707284	4.993783E-5	20.838931
1926.537437	-3.007300	3.367700	-10.126000	25.695606	5.053174E-5	20.869874
1927.537850	-3.010700	3.366400	-10.135000	25.695678	4.973986E-5	20.853352
1928.542772	-3.001500	3.367300	-10.106000	25.710485	4.947590E-5	20.869646
1929.540503	-2.990100	3.365700	-10.062000	25.709690	4.884900E-5	20.849408
1930.536176	-2.992900	3.365700	-10.072000	25.697490	4.973986E-5	20.846638
1931.543654	-2.993000	3.364900	-10.071000	25.714260	4.891499E-5	20.872963
1932.540957	-2.991200	3.365400	-10.064000	25.728620	4.891499E-5	20.839025
1933.539933	-2.985200	3.365100	-10.045000	25.693487	4.789215E-5	20.859686
1934.543336	-3.006700	3.363500	-10.113000	25.722432	4.865103E-5	20.834706
1935.539062	-2.977800	3.364400	-10.018000	25.728991	4.716626E-5	20.841768
1936.540005	-2.983600	3.364500	-10.038000	25.718703	4.647336E-5	20.855615
1937.545374	-3.016200	3.364000	-10.146000	25.737261	4.736423E-5	20.844385
1938.542337	-3.024400	3.362800	-10.169000	25.710479	4.614341E-5	20.856839
1939.541701	-3.018100	3.363900	-10.152000	25.747399	4.505458E-5	20.861206
1940.547365	-3.015100	3.363500	-10.140000	25.746826	4.389976E-5	20.831234
1941.541357	-2.995700	3.363700	-10.076000	25.749607	4.333885E-5	20.833079
1942.541924	-2.992000	3.363000	-10.061000	25.714924	4.340484E-5	20.855613
1943.546223	-3.019300	3.361100	-10.147000	25.746874	4.228301E-5	20.836497
1944.543680	-2.997300	3.361300	-10.074000	25.761058	4.178808E-5	20.837942
1945.540754	-2.999900	3.361000	-10.082000	25.753035	4.208504E-5	20.855013
1946.546689	-2.993400	3.361300	-10.061000	25.757257	4.337184E-5	20.854512
1947.544030	-3.003400	3.359900	-10.090000	25.761876	4.211803E-5	20.861523
1948.544021	-3.014500	3.360300	-10.129000	25.768262	4.096321E-5	20.863670
1949.548659	-2.999600	3.360200	-10.079000	25.758500	4.135915E-5	20.853864
1950.542173	-2.987600	3.359300	-10.036000	25.757131	3.868656E-5	20.851067
1951.543818	-3.007800	3.358400	-10.100000	25.757183	4.079824E-5	20.851593
1952.547818	-2.999700	3.358800	-10.074000	25.756511	3.974240E-5	20.840487
1953.544606	-3.011100	3.358000	-10.111000	25.762101	3.891753E-5	20.834723
1954.543954	-2.983400	3.358200	-10.018000	25.771766	3.749874E-5	20.840164
1955.547491	-3.011900	3.357700	-10.112000	25.763742	3.535407E-5	20.839690
1956.544106	-2.988000	3.357800	-10.032000	25.757727	3.772971E-5	20.857829
1957.545360	-2.998200	3.357200	-10.064000	25.763839	3.805966E-5	20.845003
1958.546557	-2.972000	3.358400	-9.980400	25.763243	3.739976E-5	20.842034
1959.544160	-3.007000	3.355500	-10.088000	25.795168	3.713580E-5	20.842808
1960.544344	-2.972200	3.358100	-9.979700	25.786746	3.865357E-5	20.819650
1961.547731	-3.005400	3.354300	-10.080000	25.762721	3.558504E-5	20.856208
1962.544981	-3.013000	3.354900	-10.107000	25.783021	3.482615E-5	20.843408
1963.544705	-2.990300	3.355200	-10.032000	25.783813	3.268148E-5	20.852738
1964.548924	-3.003600	3.355700	-10.078000	25.780286	3.307742E-5	20.830230
1965.545704	-3.012100	3.354300	-10.102000	25.775069	3.416626E-5	20.829731
1966.546059	-3.012200	3.354200	-10.102000	25.765702	3.370433E-5	20.834547
1967.548399	-2.984100	3.354700	-10.010000	25.778622	3.403428E-5	20.831404
1968.545575	-3.012300	3.354200	-10.102000	25.780286	3.350636E-5	20.837342
1969.545699	-3.008300	3.352900	-10.085000	25.787070	3.284646E-5	20.820449
1970.548768	-2.996600	3.353200	-10.047000	25.774448	3.393529E-5	20.831004
1971.546737	-2.985800	3.352600	-10.010000	25.782423	3.324240E-5	20.864618
1972.547308	-2.978600	3.353200	-9.987000	25.803539	3.116372E-5	20.836518
1973.548640	-2.991800	3.352900	-10.030000	25.781453	3.119671E-5	20.838514
1974.548670	-3.003500	3.351200	-10.064000	25.780958	3.195559E-5	20.844655
1975.548224	-3.025900	3.351100	-10.139000	25.789257	2.872209E-5	20.851568
1976.551933	-2.978700	3.352900	-9.985400	25.784361	3.093275E-5	20.818677
1977.549551	-2.986500	3.350400	-10.005000	25.805776	3.185661E-5	20.834971
1978.549134	-2.985900	3.351100	-10.005000	25.788908	2.957996E-5	20.824666
1979.552123	-2.992700	3.350700	-10.027000	25.802350	3.027285E-5	20.845754
1980.550349	-2.982600	3.350100	-9.991400	25.786771	2.832615E-5	20.859502
1981.549592	-3.017300	3.349500	-10.106000	25.796211	2.839214E-5	20.845278
1982.551306	-3.005200	3.347900	-10.060000	25.798398	2.661042E-5	20.830406
1983.548894	-3.013500	3.348000	-10.088000	25.798524	2.661042E-5	20.845230
1984.548024	-3.007000	3.348500	-10.067000	25.794995	2.525762E-5	20.851168
1985.551248	-3.003000	3.347700	-10.053000	25.803343	2.703935E-5	20.834899
1986.551254	-2.998700	3.348600	-10.041000	25.819938	2.509265E-5	20.835447
1987.549364	-3.002000	3.348200	-10.050000	25.814497	2.694036E-5	20.824292
1988.549865	-3.012700	3.346000	-10.079000	25.812483	2.631346E-5	20.833174
1989.550567	-2.995100	3.347500	-10.025000	25.797576	2.354189E-5	20.855657
1990.551882	-2.990700	3.346700	-10.008000	25.815713	2.694036E-5	20.830255
1991.554229	-2.999900	3.347500	-10.041000	25.829203	2.304696E-5	20.828159
1992.551614	-2.996600	3.346800	-10.028000	25.826369	2.331092E-5	20.829580
1993.552554	-2.999000	3.346700	-10.036000	25.830047	2.271701E-5	20.831851
1994.557307	-3.006600	3.345900	-10.058000	25.817972	2.562057E-5	20.838214
1995.552074	-2.991600	3.345900	-10.008000	25.826172	2.182615E-5	20.839338
1996.553883	-2.966000	3.345900	-9.922800	25.850617	2.228808E-5	20.807471
1997.553782	-2.985900	3.345500	-9.988100	25.840505	2.162818E-5	20.825288
1998.553986	-3.014800	3.343600	-10.079000	25.846217	2.225508E-5	20.817749
1999.558848	-3.036600	3.343000	-10.150000	25.822220	2.235407E-5	20.827783
2000.557470	-2.993100	3.344400	-10.010000	25.861222	2.070432E-5	20.841831
2001.555448	-2.980100	3.344000	-9.964500	25.845075	2.156219E-5	20.839361
2002.555501	-2.995200	3.342600	-10.011000	25.833648	1.690991E-5	20.810339
2003.558979	-3.016200	3.341800	-10.078000	25.850193	1.882361E-5	20.825536
2004.556104	-2.978200	3.342900	-9.954900	25.851434	1.747082E-5	20.844800
2005.556056	-2.980400	3.343500	-9.963800	25.839310	1.849366E-5	20.829302
2006.559819	-3.011800	3.341000	-10.062000	25.851483	1.964848E-5	20.808815
2007.557862	-3.011000	3.340100	-10.056000	25.847707	1.697589E-5	20.824936
2008.558188	-3.007200	3.340400	-10.044000	25.827633	1.585407E-5	20.826582
2009.560381	-2.989000	3.340700	-9.985000	25.831286	1.559011E-5	20.819346
2010.558513	-2.996100	3.340800	-10.008000	25.865715	1.595305E-5	20.821689
2011.559472	-2.991500	3.340300	-9.990300	25.843109	1.648097E-5	20.806092
2012.562306	-3.004600	3.338500	-10.030000	25.831706	1.499620E-5	20.846320
2013.560702	-2.986900	3.339300	-9.973600	25.859903	1.377539E-5	20.803049
2014.561427	-3.005000	3.338600	-10.031000	25.830214	1.394036E-5	20.815424
2015.564979	-2.994900	3.339400	-9.999900	25.850784	1.304950E-5	20.830398
2016.564515	-3.016500	3.338900	-10.070000	25.856424	1.321447E-5	20.822313
2017.563079	-2.987600	3.337600	-9.970600	25.851081	1.235660E-5	20.822636
2018.565448	-3.001900	3.337600	-10.019000	25.854907	1.238960E-5	20.813203
2019.562998	-3.001800	3.336700	-10.015000	25.859427	1.034391E-5	20.831967
2020.564624	-2.984000	3.338200	-9.959100	25.880543	1.159772E-5	20.816197
2021.564962	-2.990400	3.336800	-9.977700	25.881013	9.453050E-6	20.820462
2022.564102	-2.978100	3.336300	-9.934900	25.855674	1.054188E-5	20.803542
2023.576473	-3.009200	3.336100	-10.038000	25.878678	9.057110E-6	20.801521
2024.571151	-3.009300	3.336000	-10.038000	25.880764	9.255080E-6	20.826849
2025.568611	-3.005300	3.334900	-10.022000	25.899916	8.595181E-6	20.801993
2026.564042	-2.999600	3.334700	-10.001000	25.892564	8.430207E-6	20.821634
2027.567295	-3.009300	3.333400	-10.031000	25.886847	8.925131E-6	20.822529
2028.564319	-2.997300	3.334200	-9.992900	25.896165	7.473353E-6	20.789690
2029.565711	-3.007900	3.333100	-10.024000	25.865757	6.615485E-6	20.802291
2030.567335	-3.002400	3.333000	-10.006000	25.898100	6.285536E-6	20.840945
2031.568657	-2.968800	3.334800	-9.899600	25.886076	4.404824E-6	20.811797
2032.565850	-2.978300	3.333300	-9.925400	25.880484	4.503809E-6	20.799068
2033.565766	-2.997000	3.333000	-9.988000	25.884782	6.450510E-6	20.809075
2034.565654	-3.013100	3.332000	-10.039000	25.883491	5.163708E-6	20.815365
2035.568678	-3.011900	3.332500	-10.036000	25.896008	2.722082E-6	20.814663
2036.563722	-3.005900	3.331800	-10.014000	25.915535	2.689087E-6	20.790657
2037.569611	-2.981000	3.331900	-9.931500	25.897997	3.876905E-6	20.786789
2038.567319	-3.001800	3.331800	-10.001000	25.923309	2.260153E-6	20.816959
2039.564235	-3.006800	3.330900	-10.014000	25.916403	2.293148E-6	20.786787
2040.570187	-3.008800	3.330000	-10.018000	25.910663	-1.814722E-7	20.805203
2041.569102	-3.010300	3.329000	-10.021000	25.906440	1.336295E-6	20.821349
2042.565031	-3.000400	3.329300	-9.988800	25.914439	-1.154823E-7	20.804729
2043.568961	-2.978500	3.330200	-9.917600	25.933093	-3.464469E-7	20.795020
2044.565665	-2.998400	3.328500	-9.979200	25.936867	-1.996194E-6	20.798337
2045.566613	-3.005600	3.328100	-10.002000	25.934606	-8.413709E-7	20.812661
2046.568618	-3.000600	3.327200	-9.983100	25.940270	-2.557108E-6	20.796540
2047.565160	-2.984800	3.327600	-9.931800	25.940542	-2.227158E-6	20.793020
2048.566034	-2.989200	3.328300	-9.947800	25.941113	-2.524113E-6	20.810189
2049.569484	-2.968900	3.328800	-9.881000	25.937337	-3.381981E-6	20.811137
2050.565463	-2.992400	3.326800	-9.954200	25.932916	-4.008885E-6	20.808119
2051.564849	-2.994900	3.325500	-9.958900	25.955445	-4.536804E-6	20.807992
2052.567595	-3.038100	3.325700	-10.102000	25.931175	-3.315991E-6	20.785032
2053.578124	-3.009800	3.325300	-10.008000	25.920194	-4.404824E-6	20.809562
2054.565758	-3.025100	3.324100	-10.054000	25.939569	-3.282996E-6	20.810061
2055.568938	-2.985800	3.327800	-9.934900	25.961628	-5.130713E-6	20.822739
2056.566131	-3.009100	3.324800	-10.004000	25.947593	-6.483506E-6	20.811958
2057.568666	-2.995300	3.325700	-9.961100	25.914431	-6.252541E-6	20.817523
2058.570747	-3.014800	3.323700	-10.019000	25.940837	-6.549495E-6	20.793317
2059.566522	-3.008500	3.323800	-9.999300	25.951717	-6.813455E-6	20.801876
2060.566983	-3.013200	3.324300	-10.016000	25.939196	-6.417516E-6	20.801626
2061.568019	-2.999000	3.321800	-9.960800	25.955837	-8.265232E-6	20.794162
2062.568085	-2.992200	3.321900	-9.938700	25.972258	-8.595182E-6	20.803073
2063.568156	-2.996600	3.323900	-9.959800	25.971885	-9.585030E-6	20.813130
2064.570519	-3.000900	3.323800	-9.973200	25.946300	-9.387060E-6	20.810660
2065.570750	-3.016100	3.322100	-10.018000	25.945256	-1.040990E-5	20.801549
2066.568237	-2.984100	3.322200	-9.912300	25.949728	-1.031092E-5	20.797508
2067.571314	-2.980200	3.322400	-9.900100	25.962347	-1.113579E-5	20.792168
2068.567716	-2.997900	3.321000	-9.955500	25.967512	-1.050889E-5	20.803995
2069.569438	-2.972600	3.322400	-9.874300	25.963936	-9.881984E-6	20.810359
2070.572463	-3.003400	3.321300	-9.974500	25.986885	-9.881984E-6	20.812078
2071.569074	-3.003700	3.320200	-9.972200	25.995281	-1.060787E-5	20.790168
2072.569246	-3.011700	3.320600	-9.999200	25.975187	-1.083884E-5	20.806964
2073.575553	-3.023600	3.318800	-10.034000	25.988177	-1.186168E-5	20.794410
2074.571313	-3.019300	3.317300	-10.015000	26.004619	-1.324747E-5	20.801920
2075.572373	-3.008300	3.318900	-9.982900	25.974662	-1.265356E-5	20.800272
2076.573083	-2.991800	3.317500	-9.924100	26.001241	-1.321447E-5	20.788095
2077.572888	-2.984400	3.319000	-9.904400	26.002035	-1.479823E-5	20.796953
2078.574629	-2.995200	3.318700	-9.938300	26.003921	-1.427031E-5	20.790313
2079.573282	-2.992200	3.318200	-9.928200	26.009658	-1.450128E-5	20.795129
2080.571562	-2.998300	3.317400	-9.945700	26.010627	-1.486422E-5	20.792309
2081.577384	-3.004800	3.316400	-9.964300	26.005161	-1.526016E-5	20.783973
2082.574210	-3.019300	3.314900	-10.008000	25.996143	-1.773478E-5	20.808103
2083.573884	-2.994800	3.317300	-9.934200	26.011966	-1.733884E-5	20.803612
2084.574084	-2.987200	3.316800	-9.907100	26.023466	-1.684392E-5	20.793355
2085.575568	-2.991000	3.316200	-9.917300	26.032507	-1.872463E-5	20.803861
2086.576908	-3.000200	3.314700	-9.943800	26.041249	-1.832869E-5	20.794626
2087.576750	-3.024500	3.315100	-10.025000	26.040354	-1.938453E-5	20.788986
2088.574265	-3.003000	3.315300	-9.955000	26.028779	-2.063834E-5	20.777830
2089.575968	-3.016600	3.313400	-9.994200	26.045197	-1.898859E-5	20.800964
2090.577260	-2.992400	3.314300	-9.916100	26.038193	-2.067133E-5	20.813367
2091.577270	-3.003400	3.313500	-9.951300	26.030667	-2.126524E-5	20.784468
2092.574684	-3.005700	3.312100	-9.953600	26.032254	-2.044037E-5	20.775632
2093.575326	-2.997100	3.312600	-9.927400	26.039831	-2.307996E-5	20.805530
2094.578634	-3.023500	3.313700	-10.018000	26.033597	-2.189214E-5	20.798793
2095.575794	-3.006700	3.312000	-9.956100	26.047207	-2.357489E-5	20.813889
2096.576162	-3.015600	3.311100	-9.983900	26.024581	-2.245306E-5	20.806803
2097.576982	-3.005100	3.311000	-9.949000	26.024381	-2.423478E-5	20.796645
2098.577953	-2.981000	3.311400	-9.870300	26.031656	-2.311296E-5	20.823395
2099.577076	-2.978800	3.312200	-9.865400	26.041420	-2.275001E-5	20.796221
2100.587750	-3.008900	3.310500	-9.959300	26.025946	-2.492768E-5	20.810071
2101.578122	-2.996800	3.309300	-9.916500	26.041519	-2.509265E-5	20.789208
2102.577305	-3.007800	3.308300	-9.949600	26.049964	-2.611550E-5	20.803857
2103.580640	-2.987400	3.310100	-9.887200	26.052174	-2.614849E-5	20.810344
2104.579782	-2.987500	3.309100	-9.885100	26.040775	-2.796321E-5	20.792728
2105.580090	-2.994500	3.308800	-9.907200	26.056472	-2.743529E-5	20.803284
2106.582102	-3.005100	3.308100	-9.940400	26.031160	-2.928301E-5	20.800611
2107.577898	-2.994500	3.307700	-9.903600	26.063003	-2.829316E-5	20.803681
2108.577927	-2.995500	3.308000	-9.907600	26.054583	-2.901905E-5	20.802333
2109.587242	-3.008300	3.307700	-9.950400	26.073684	-2.750128E-5	20.802559
2110.578165	-2.977300	3.308400	-9.848900	26.069263	-2.981093E-5	20.796695
2111.580450	-3.007500	3.307300	-9.946000	26.077084	-3.063580E-5	20.797441
2112.584598	-3.020700	3.306700	-9.986500	26.077508	-3.073479E-5	20.806402
2113.581200	-3.003200	3.306100	-9.926900	26.090373	-3.251652E-5	20.807475
2114.580500	-3.006500	3.305500	-9.936300	26.072567	-3.241753E-5	20.796695
2115.584170	-3.015300	3.305500	-9.966500	26.096162	-3.109773E-5	20.790057
2116.583655	-3.004800	3.304700	-9.929100	26.089059	-3.386931E-5	20.812317
2117.582301	-3.014100	3.305800	-9.963500	26.089481	-3.350636E-5	20.797095
2118.584517	-2.988600	3.305700	-9.878300	26.094350	-3.393530E-5	20.825695
2119.580837	-2.991100	3.304700	-9.883500	26.088838	-3.146068E-5	20.816837
2120.581647	-3.011400	3.303000	-9.946000	26.113723	-3.367134E-5	20.803909
2121.584373	-2.995800	3.303800	-9.897100	26.098299	-3.403428E-5	20.801213
2122.582208	-2.984000	3.303800	-9.857500	26.113228	-3.683885E-5	20.802463
2123.583626	-2.980800	3.302500	-9.843800	26.113102	-3.558505E-5	20.805182
2124.587768	-2.972500	3.303400	-9.818700	26.109354	-3.710281E-5	20.813269
2125.584056	-2.992100	3.302600	-9.879900	26.107194	-3.832363E-5	20.807306
2126.583495	-2.993900	3.302000	-9.884900	26.116780	-3.852160E-5	20.811723
2127.584021	-2.984700	3.301000	-9.851600	26.139631	-3.736677E-5	20.807182
2128.584779	-2.977900	3.302300	-9.833000	26.122917	-3.838962E-5	20.820259
2129.583809	-3.003000	3.301400	-9.913100	26.110077	-3.815865E-5	20.798823
2130.587011	-3.009100	3.300900	-9.932500	26.132705	-4.083124E-5	20.811602
2131.588193	-2.976800	3.301400	-9.826900	26.114227	-3.994038E-5	20.808683
2132.586555	-3.004900	3.300000	-9.915600	26.121853	-4.225002E-5	20.803543
2133.585029	-3.004100	3.300000	-9.913000	26.133055	-4.347084E-5	20.826178
2134.585197	-2.999400	3.300400	-9.897500	26.121979	-4.327287E-5	20.812204
2135.587527	-2.998900	3.299000	-9.892600	26.128140	-4.208505E-5	20.829300
2136.587355	-2.993900	3.299400	-9.876700	26.125088	-4.254698E-5	20.818173
2137.584926	-2.981700	3.300100	-9.838400	26.119227	-4.432871E-5	20.826983
2138.585536	-3.001900	3.298700	-9.901700	26.144064	-4.284393E-5	20.816852
2139.590659	-3.005300	3.297200	-9.908800	26.140439	-4.429571E-5	20.812262
2140.587239	-3.023900	3.296900	-9.967300	26.136466	-4.578048E-5	20.829132
2141.589613	-2.972900	3.297300	-9.801700	26.134931	-4.419673E-5	20.815736
2142.587854	-2.990500	3.297100	-9.859400	26.176355	-4.776018E-5	20.814686
2143.587570	-2.993600	3.297300	-9.870200	26.165679	-4.703429E-5	20.817235
2144.591989	-2.981800	3.297000	-9.829800	26.150606	-4.967389E-5	20.833382
2145.601747	-2.988600	3.296200	-9.849800	26.158902	-4.924495E-5	20.807105
2146.589966	-2.965600	3.295600	-9.773100	26.143084	-5.043277E-5	20.826773
2147.589926	-3.006800	3.294600	-9.904700	26.183716	-4.911297E-5	20.834411
2148.591324	-3.022300	3.294100	-9.955300	26.167924	-5.053176E-5	20.791990
2149.598825	-3.001300	3.293200	-9.883100	26.179746	-4.917896E-5	20.802920
2150.589472	-3.041600	3.291900	-10.011000	26.172173	-5.039978E-5	20.801475
2151.592339	-3.001900	3.293500	-9.885000	26.194898	-5.251145E-5	20.813879
2152.591063	-3.009100	3.291900	-9.903900	26.185016	-5.079572E-5	20.803001
2153.591432	-3.010300	3.292800	-9.911600	26.190382	-5.109267E-5	20.817875
2154.590993	-2.984800	3.293200	-9.829200	26.203023	-5.426019E-5	20.815405
2155.593438	-2.992500	3.291500	-9.849700	26.197363	-5.053176E-5	20.819674
2156.594578	-3.005400	3.291200	-9.890400	26.197016	-5.399623E-5	20.817430
2157.593812	-3.007100	3.291900	-9.898700	26.198930	-5.208252E-5	20.824095
2158.594871	-3.016300	3.291400	-9.926500	26.190513	-5.488709E-5	20.821801
2159.592991	-3.001100	3.291900	-9.878300	26.196351	-5.310536E-5	20.812968
2160.598014	-3.007700	3.290200	-9.894700	26.196899	-5.485410E-5	20.817786
2161.594087	-3.024000	3.288900	-9.945300	26.199159	-5.696577E-5	20.825747
2162.594446	-3.000400	3.290100	-9.870300	26.216271	-5.501907E-5	20.819235
2163.592916	-2.992500	3.289700	-9.843300	26.200700	-5.508506E-5	20.820183
2164.599246	-3.012300	3.288800	-9.905500	26.202540	-5.653684E-5	20.823455
2165.594165	-2.971800	3.288500	-9.770500	26.201893	-5.762567E-5	20.821856
2166.595425	-2.975600	3.289000	-9.785300	26.198990	-5.977034E-5	20.822258
2167.597455	-2.988000	3.288800	-9.826200	26.220944	-5.970435E-5	20.812077
2168.595987	-2.984800	3.289200	-9.817200	26.186823	-5.818659E-5	20.817144
2169.596720	-2.984100	3.287700	-9.810000	26.211981	-5.782364E-5	20.811131
2170.599171	-2.976900	3.287800	-9.786200	26.217621	-5.970435E-5	20.818695
2171.595942	-2.995300	3.285800	-9.840800	26.238429	-6.049623E-5	20.828699
2172.597293	-3.023100	3.285800	-9.932300	26.221367	-6.178303E-5	20.843795
2173.601283	-3.003200	3.286600	-9.869100	26.253876	-6.346578E-5	20.820515
2174.603514	-3.007500	3.286400	-9.882500	26.251096	-6.445563E-5	20.833368
2175.600129	-3.006500	3.285900	-9.878500	26.238108	-6.273989E-5	20.825531
2176.603935	-2.999700	3.285500	-9.854900	26.240119	-6.389471E-5	20.827552
2177.601800	-2.992900	3.285200	-9.831200	26.242826	-6.435664E-5	20.816997
2178.601702	-2.987400	3.285000	-9.811800	26.250672	-6.405969E-5	20.816821
2179.607239	-3.002500	3.282600	-9.855000	26.256956	-6.326781E-5	20.839256
2180.601893	-2.989200	3.284600	-9.817700	26.269992	-6.537948E-5	20.841451
2181.603119	-3.017800	3.282700	-9.906600	26.252660	-6.564344E-5	20.822138
2182.608028	-3.008700	3.283400	-9.877400	26.283726	-6.475258E-5	20.841503
2183.608344	-3.000000	3.281800	-9.844500	26.274290	-6.660030E-5	20.815425
2184.604182	-3.005000	3.282000	-9.860900	26.283106	-6.686426E-5	20.831397
2185.607283	-3.010500	3.281700	-9.878900	26.283131	-6.739218E-5	20.828577
2186.605043	-2.998900	3.281900	-9.841200	26.282311	-6.818406E-5	20.825856
2187.605423	-2.976900	3.281600	-9.768100	26.287278	-6.920690E-5	20.814727
2188.610073	-3.021800	3.280600	-9.911800	26.305382	-6.887695E-5	20.829128
2189.604943	-2.977000	3.282100	-9.769600	26.307667	-7.085665E-5	20.833320
2190.605066	-2.996300	3.281300	-9.830500	26.336970	-7.039472E-5	20.841907
2191.609208	-2.999200	3.279200	-9.833400	26.301859	-7.102162E-5	20.823691
2192.604653	-3.004400	3.278800	-9.849100	26.303425	-7.145056E-5	20.832376
2193.605302	-2.992500	3.279200	-9.812300	26.314252	-7.277035E-5	20.833774
2194.608330	-2.982700	3.278400	-9.777000	26.311547	-7.230842E-5	20.852865
2195.605225	-2.996900	3.278600	-9.825000	26.292478	-7.277035E-5	20.837971
2196.605373	-3.012200	3.277800	-9.872700	26.308271	-7.418914E-5	20.855737
2197.608686	-2.977900	3.278100	-9.760600	26.334222	-7.359523E-5	20.852420
2198.609109	-3.006300	3.277700	-9.852200	26.315078	-7.600386E-5	20.845035
2199.607159	-2.987300	3.276300	-9.785400	26.323004	-7.422213E-5	20.827397
2200.616558	-3.015800	3.276300	-9.879100	26.312925	-7.573990E-5	20.840026
2201.609282	-2.995800	3.276800	-9.815300	26.316922	-7.699371E-5	20.840250
2202.608768	-2.989800	3.276900	-9.796400	26.323902	-7.653178E-5	20.822135
2203.615481	-2.986200	3.276000	-9.782200	26.328078	-7.389218E-5	20.851462
2204.611634	-2.991600	3.274400	-9.794900	26.330785	-7.653178E-5	20.853708
2205.611549	-2.987900	3.275500	-9.786300	26.355170	-7.943533E-5	20.849766
2206.615465	-2.988900	3.273800	-9.783700	26.342733	-7.719168E-5	20.848172
2207.613680	-2.996600	3.274000	-9.810000	26.345938	-7.821452E-5	20.851867
2208.613157	-2.995700	3.273800	-9.805700	26.348299	-7.854447E-5	20.827215
2209.616438	-2.986600	3.273200	-9.775200	26.371866	-7.969929E-5	20.833830
2210.612040	-2.987300	3.273100	-9.776800	26.381849	-8.115107E-5	20.830587
2211.612526	-3.009800	3.271000	-9.843700	26.370801	-8.158001E-5	20.842716
2212.615785	-2.986300	3.272200	-9.770700	26.386893	-8.197595E-5	20.842768
2213.614317	-3.001700	3.271900	-9.820100	26.372319	-8.045818E-5	20.836656
2214.615177	-2.960300	3.272500	-9.686000	26.377760	-8.115107E-5	20.835486
2215.618682	-3.008200	3.270600	-9.837400	26.382999	-8.233889E-5	20.836484
2216.616543	-3.005100	3.270600	-9.826800	26.363312	-8.349371E-5	20.847518
2217.618590	-2.989900	3.271100	-9.778800	26.387027	-8.451656E-5	20.847644
2218.618371	-2.994500	3.269200	-9.788300	26.388916	-8.438458E-5	20.841009
2219.614477	-2.955100	3.269600	-9.659900	26.383430	-8.431859E-5	20.833598
2220.615699	-2.986400	3.270300	-9.765700	26.384870	-8.484651E-5	20.855907
2221.617105	-2.971700	3.268600	-9.712700	26.395624	-8.553940E-5	20.834474
2222.615044	-2.996200	3.268300	-9.792000	26.391605	-8.659524E-5	20.837073
2223.614849	-3.004000	3.266900	-9.813200	26.399650	-8.775006E-5	20.836149
2224.616707	-2.996600	3.267600	-9.789600	26.398311	-8.672722E-5	20.857562
2225.617175	-2.989900	3.266400	-9.765900	26.396774	-8.616631E-5	20.847009
2226.615896	-2.983900	3.266700	-9.746200	26.419223	-8.676022E-5	20.832589
2227.618757	-2.984500	3.266800	-9.749500	26.445938	-8.781605E-5	20.848059
2228.615854	-2.985800	3.266100	-9.751100	26.431888	-8.788204E-5	20.841051
2229.616005	-3.016800	3.264000	-9.845300	26.437327	-8.926783E-5	20.857422
2230.618072	-2.986200	3.264900	-9.748500	26.425632	-8.778306E-5	20.837608
2231.616558	-2.991600	3.264300	-9.763800	26.436338	-8.903687E-5	20.842204
2232.616744	-2.993900	3.264000	-9.771000	26.443091	-9.005971E-5	20.853732
2233.617778	-3.004700	3.263100	-9.803400	26.446744	-9.055464E-5	20.848395
2234.615822	-2.977300	3.263800	-9.715900	26.427305	-8.996073E-5	20.852565
2235.624666	-3.006500	3.263100	-9.809600	26.445481	-9.002672E-5	20.855660
2236.616227	-3.001000	3.262200	-9.788900	26.456356	-9.207240E-5	20.872280
2237.617357	-2.987700	3.263900	-9.750800	26.468848	-9.194042E-5	20.844060
2238.619728	-2.996300	3.261000	-9.770000	26.463984	-9.246834E-5	20.869516
2239.617042	-3.005400	3.261300	-9.800000	26.474634	-9.299626E-5	20.862203
2240.617260	-3.012200	3.261000	-9.822800	26.474340	-9.154448E-5	20.850528
2241.621043	-3.010200	3.260200	-9.812800	26.489835	-9.085159E-5	20.855197
2242.621298	-3.004900	3.259800	-9.794700	26.481245	-9.487697E-5	20.858417
2243.618690	-3.031300	3.259200	-9.878400	26.476407	-9.415109E-5	20.868252
2244.623366	-2.979200	3.260400	-9.712100	26.509329	-9.593281E-5	20.857247
2245.618692	-3.004500	3.259200	-9.791100	26.492870	-9.698865E-5	20.852558
2246.620163	-2.973400	3.259700	-9.691000	26.495678	-9.547088E-5	20.860596
2247.622972	-3.019600	3.256200	-9.831300	26.486967	-9.520692E-5	20.862271
2248.618759	-3.009100	3.255600	-9.795000	26.511671	-9.840744E-5	20.854387
2249.618883	-2.984900	3.257900	-9.723200	26.477633	-9.741759E-5	20.856683
2250.622352	-3.008300	3.255900	-9.792800	26.530097	-9.781353E-5	20.861054
2251.621254	-3.005000	3.255900	-9.783200	26.521782	-9.672469E-5	20.860756
2252.622749	-3.025100	3.255400	-9.846700	26.501822	-9.682368E-5	20.851599
2253.625343	-3.013100	3.255900	-9.809400	26.506743	-9.794551E-5	20.855597
2254.622006	-3.009800	3.255900	-9.798400	26.498625	-9.969424E-5	20.866877
2255.623069	-3.022400	3.255000	-9.837600	26.518563	-0.000101	20.875063
2256.627906	-3.013100	3.254100	-9.803800	26.510495	-9.962825E-5	20.861264
2257.621292	-2.991700	3.253400	-9.732700	26.534779	-0.000101	20.863863
2258.623664	-2.991100	3.253600	-9.731100	26.524552	-0.000100	20.883453
2259.628218	-2.985000	3.253200	-9.708800	26.516483	-9.992520E-5	20.867283
2260.623310	-2.994900	3.252400	-9.739700	26.532351	-9.926530E-5	20.872327
2261.622813	-2.988900	3.252000	-9.719000	26.549505	-0.000102	20.867286
2262.626923	-3.002700	3.251500	-9.762600	26.538510	-0.000100	20.853863
2263.622584	-2.977200	3.252000	-9.681200	26.531634	-0.000101	20.851694
2264.623039	-3.006400	3.250500	-9.771900	26.554525	-0.000100	20.855737
2265.624438	-3.008700	3.250700	-9.778600	26.562346	-0.000101	20.859332
2266.627792	-3.015100	3.250100	-9.798100	26.563016	-0.000103	20.889400
2267.625299	-3.014700	3.249000	-9.793500	26.561850	-0.000103	20.871634
2268.627009	-3.009300	3.249300	-9.777500	26.559516	-0.000103	20.881141
2269.625946	-2.984500	3.249200	-9.695400	26.563890	-0.000103	20.864202
2270.624303	-2.982900	3.249100	-9.691000	26.570740	-0.000101	20.867769
2271.628879	-3.014300	3.247300	-9.787100	26.581764	-0.000106	20.849928
2272.625332	-2.971700	3.248900	-9.653700	26.590949	-0.000105	20.852997
2273.629721	-3.014200	3.247400	-9.786700	26.573002	-0.000105	20.877629
2274.629612	-2.998000	3.247300	-9.734600	26.578438	-0.000104	20.879773
2275.626474	-2.995500	3.247600	-9.727900	26.589514	-0.000106	20.875260
2276.627428	-2.995200	3.246500	-9.722900	26.589588	-0.000108	20.882921
2277.630426	-3.020700	3.245100	-9.801000	26.584476	-0.000105	20.865455
2278.626183	-2.983600	3.246000	-9.683700	26.579786	-0.000107	20.870698
2279.627758	-3.020900	3.243700	-9.797900	26.584429	-0.000108	20.874416
2280.631426	-3.022000	3.243200	-9.800100	26.588106	-0.000104	20.897551
2281.626529	-2.989700	3.245000	-9.700600	26.592595	-0.000108	20.869824
2282.629915	-2.989300	3.242800	-9.692300	26.602130	-0.000107	20.894580
2283.628420	-2.986500	3.243800	-9.687200	26.620352	-0.000107	20.885398
2284.628379	-3.016200	3.241400	-9.776100	26.622091	-0.000111	20.882404
2285.634544	-3.006300	3.242300	-9.746500	26.629959	-0.000107	20.877512
2286.632956	-2.997800	3.241400	-9.715600	26.619784	-0.000109	20.881508
2287.632354	-2.988100	3.241000	-9.683200	26.614969	-0.000110	20.884253
2288.630429	-2.994900	3.241900	-9.706500	26.630186	-0.000107	20.880110
2289.633012	-2.996100	3.241300	-9.709500	26.627257	-0.000109	20.898502
2290.631986	-3.026400	3.237800	-9.798800	26.657890	-0.000108	20.909381
2291.636882	-2.985100	3.239600	-9.669500	26.628003	-0.000110	20.901148
2292.631161	-3.002400	3.238700	-9.722300	26.640913	-0.000110	20.899901
2293.631829	-2.997300	3.237900	-9.704100	26.652383	-0.000111	20.888674
2294.635880	-3.000400	3.237400	-9.712200	26.649924	-0.000111	20.898055
2295.631731	-3.004300	3.237000	-9.724300	26.648385	-0.000110	20.894138
2296.632577	-2.998000	3.236300	-9.700700	26.654418	-0.000110	20.894986
2297.634879	-3.029400	3.235500	-9.800000	26.660749	-0.000111	20.891395
2298.631515	-3.025900	3.235800	-9.789800	26.666782	-0.000111	20.913104
2299.632252	-2.986100	3.236700	-9.664500	26.654744	-0.000112	20.894366
2300.635458	-3.030300	3.234900	-9.801200	26.674454	-0.000113	20.911334
2301.633250	-2.970300	3.236300	-9.611300	26.677933	-0.000112	20.894919
2302.633030	-3.006800	3.234000	-9.723200	26.671627	-0.000111	20.885735
2303.635991	-2.998300	3.234400	-9.696600	26.688657	-0.000112	20.904751
2304.634155	-3.005500	3.233900	-9.718200	26.671928	-0.000113	20.906424
2305.632090	-3.007000	3.233600	-9.723000	26.693774	-0.000113	20.916058
2306.635258	-2.998400	3.233600	-9.695300	26.685260	-0.000114	20.919826
2307.631441	-2.989700	3.232400	-9.663300	26.669127	-0.000115	20.887015
2308.636395	-2.997100	3.231900	-9.685500	26.690425	-0.000115	20.906054
2309.638118	-2.965800	3.233100	-9.588000	26.713241	-0.000116	20.911922
2310.634219	-2.995000	3.231200	-9.676500	26.691025	-0.000116	20.912821
2311.634758	-2.985800	3.230900	-9.646100	26.706542	-0.000116	20.910403
2312.634567	-2.989200	3.231100	-9.657600	26.727395	-0.000114	20.904341
2313.636765	-2.980000	3.230600	-9.626000	26.733649	-0.000114	20.898302
2314.637740	-2.991100	3.229500	-9.658900	26.733304	-0.000117	20.906014
2315.636968	-3.004100	3.228600	-9.697700	26.747183	-0.000117	20.893417
2316.634512	-3.001300	3.228100	-9.687200	26.751205	-0.000118	20.885133
2317.636072	-2.975600	3.228700	-9.605600	26.746914	-0.000117	20.874181
2318.639649	-2.996000	3.227100	-9.667800	26.742049	-0.000116	20.907694
2319.638794	-2.990600	3.225700	-9.646300	26.759800	-0.000117	20.880025
2320.637934	-3.008000	3.225900	-9.701900	26.728701	-0.000117	20.879578
2321.638130	-2.988100	3.226000	-9.639100	26.773978	-0.000118	20.902338
2322.636080	-2.997700	3.226400	-9.670100	26.760600	-0.000117	20.871346
2323.637752	-3.001500	3.225200	-9.679700	26.777034	-0.000121	20.891661
2324.639684	-3.016300	3.224200	-9.724300	26.756758	-0.000119	20.876018
2325.637769	-3.002700	3.224500	-9.681400	26.749143	-0.000119	20.880690
2326.636086	-3.022200	3.223700	-9.741600	26.761402	-0.000120	20.880213
2327.642998	-3.023000	3.222800	-9.741300	26.775081	-0.000120	20.867888
2328.639419	-3.004600	3.222000	-9.679400	26.749545	-0.000121	20.876827
2329.638285	-3.005300	3.222100	-9.682600	26.774839	-0.000122	20.888506
2330.637753	-3.027500	3.221600	-9.752400	26.779385	-0.000119	20.875534
2331.639994	-2.989100	3.220300	-9.624500	26.764790	-0.000119	20.869869
2332.640451	-2.995000	3.220000	-9.643500	26.791128	-0.000120	20.884495
2333.641442	-2.994000	3.220900	-9.642000	26.783486	-0.000122	20.880605
2334.638319	-2.968900	3.221300	-9.562100	26.768696	-0.000121	20.861943
2335.640792	-3.006400	3.220000	-9.680400	26.788355	-0.000120	20.875070
2336.641129	-2.993700	3.219700	-9.637400	26.814196	-0.000121	20.859801
2337.638771	-2.994600	3.218800	-9.638300	26.806278	-0.000121	20.882658
2338.640079	-3.004100	3.218400	-9.667200	26.803972	-0.000121	20.841461
2339.640986	-3.009500	3.217300	-9.681700	26.782731	-0.000122	20.855665
2340.639241	-3.001000	3.217200	-9.653800	26.805194	-0.000123	20.849802
2341.639130	-2.998500	3.216800	-9.644400	26.809364	-0.000123	20.874856
2342.644765	-3.005400	3.215800	-9.663700	26.805520	-0.000123	20.860561
2343.641943	-2.981500	3.215100	-9.584600	26.794827	-0.000125	20.866878
2344.643674	-2.984500	3.215600	-9.596100	26.809221	-0.000122	20.850058
2345.643303	-2.984600	3.214400	-9.592700	26.789518	-0.000123	20.878610
2346.643656	-3.000100	3.213500	-9.639100	26.822233	-0.000124	20.849390
2347.644920	-2.998600	3.213800	-9.636300	26.821219	-0.000123	20.855482
2348.644580	-2.999500	3.213400	-9.637900	26.809752	-0.000125	20.833997
2349.645573	-2.983100	3.214100	-9.587400	26.773492	-0.000125	20.851118
2350.652624	-2.972900	3.212600	-9.549900	26.808612	-0.000124	20.859402
2351.646458	-2.992900	3.211600	-9.611200	26.814476	-0.000124	20.831160
2352.647580	-3.019500	3.211000	-9.694100	26.824875	-0.000126	20.838771
2353.652579	-2.990500	3.210800	-9.600100	26.833117	-0.000124	20.835678
2354.648698	-2.970100	3.212300	-9.539600	26.839996	-0.000124	20.829792
2355.649497	-3.013800	3.209000	-9.670200	26.851936	-0.000125	20.838478
2356.652365	-2.974800	3.210400	-9.549600	26.845558	-0.000126	20.841075
2357.648358	-2.960400	3.209600	-9.500900	26.859955	-0.000126	20.856024
2358.650535	-2.992600	3.207700	-9.598200	26.862342	-0.000124	20.850364
2359.650382	-3.008300	3.207700	-9.649300	26.844497	-0.000126	20.832896
2360.650334	-2.970700	3.209500	-9.533400	26.860705	-0.000125	20.846822
2361.650723	-3.003500	3.206900	-9.630800	26.845717	-0.000124	20.828433
2362.652385	-3.005200	3.206300	-9.633700	26.840979	-0.000126	20.823195
2363.651820	-2.992900	3.205900	-9.594200	26.856393	-0.000124	20.828261
2364.652682	-2.988500	3.205900	-9.579700	26.877988	-0.000125	20.856613
2365.656178	-2.984600	3.204300	-9.562600	26.849596	-0.000127	20.827117
2366.657815	-3.004400	3.204000	-9.624200	26.880324	-0.000126	20.820556
2367.652895	-2.980500	3.203900	-9.548600	26.868957	-0.000125	20.829515
2368.656130	-2.994700	3.204400	-9.595900	26.862978	-0.000127	20.845313
2369.653683	-3.020400	3.201300	-9.668600	26.889261	-0.000128	20.837129
2370.663153	-3.022100	3.202400	-9.676800	26.881198	-0.000128	20.818116
2371.658203	-2.993500	3.202300	-9.584900	26.877006	-0.000127	20.831445
2372.654840	-2.997200	3.201200	-9.593700	26.874898	-0.000128	20.831695
2373.654695	-3.006000	3.201100	-9.622100	26.892841	-0.000127	20.819867
2374.666042	-2.975600	3.201400	-9.525400	26.881129	-0.000127	20.813306
2375.656117	-2.984600	3.199900	-9.549200	26.884480	-0.000128	20.842278
2376.658013	-2.994300	3.199100	-9.577700	26.890511	-0.000128	20.836015
2377.654399	-3.008200	3.197600	-9.618200	26.883243	-0.000128	20.827285
2378.655367	-2.998900	3.199200	-9.592100	26.903174	-0.000129	20.826937
2379.656876	-3.000000	3.197400	-9.591200	26.894713	-0.000128	20.835025
2380.661650	-3.005100	3.197400	-9.607300	26.906576	-0.000127	20.813289
2381.656778	-2.996500	3.197300	-9.580000	26.916336	-0.000129	20.815990
2382.658106	-3.021200	3.195400	-9.652500	26.920802	-0.000129	20.821429
2383.657693	-2.992700	3.196200	-9.564500	26.919066	-0.000128	20.805460
2384.660324	-2.989600	3.195500	-9.552500	26.920610	-0.000128	20.822184
2385.659191	-2.995800	3.195100	-9.571500	26.927137	-0.000130	20.811204
2386.658393	-3.015900	3.193900	-9.631800	26.923192	-0.000128	20.806289
2387.659914	-3.009400	3.193000	-9.608300	26.935304	-0.000129	20.811830
2388.660126	-3.032200	3.193100	-9.680900	26.912475	-0.000129	20.831074
2389.667721	-2.988000	3.193700	-9.541800	26.931981	-0.000130	20.812282
2390.660764	-2.977200	3.192000	-9.501800	26.929278	-0.000128	20.796762
2391.664876	-3.006200	3.191900	-9.594900	26.940819	-0.000129	20.808842
2392.660964	-2.978100	3.192300	-9.506200	26.945710	-0.000128	20.798587
2393.664112	-3.010800	3.189500	-9.601800	26.932732	-0.000131	20.798339
2394.668184	-3.002400	3.190000	-9.576000	26.951075	-0.000129	20.795447
2395.662629	-2.999300	3.190000	-9.566900	26.930152	-0.000130	20.790529
2396.662469	-2.994800	3.188500	-9.547900	26.942535	-0.000130	20.806300
2397.664872	-3.001100	3.188700	-9.568000	26.960730	-0.000130	20.794725
2398.664863	-2.990800	3.188000	-9.532800	26.941921	-0.000128	20.813743
2399.663403	-2.977400	3.186600	-9.487400	26.969886	-0.000129	20.815312
2400.663198	-3.001700	3.186700	-9.564900	26.958126	-0.000129	20.807753
2401.669279	-2.971700	3.186900	-9.469300	26.966564	-0.000131	20.801065
2402.664817	-2.995500	3.185400	-9.540400	26.946140	-0.000131	20.805183
2403.665622	-2.972800	3.185500	-9.468400	26.972743	-0.000129	20.801115
2404.665213	-3.004400	3.185300	-9.568800	26.953857	-0.000130	20.797297
2405.664594	-2.981000	3.183900	-9.489900	26.979741	-0.000131	20.801040
2406.670702	-3.009300	3.182600	-9.575400	26.969692	-0.000129	20.798046
2407.667583	-2.994200	3.183000	-9.529000	26.982524	-0.000132	20.809528
2408.665747	-2.966800	3.183400	-9.443500	26.978453	-0.000132	20.796425
2409.667947	-2.985300	3.181900	-9.498200	26.981032	-0.000129	20.791433
2410.668377	-3.001700	3.181400	-9.548500	26.988949	-0.000131	20.805084
2411.666520	-2.979400	3.180600	-9.475200	26.998878	-0.000129	20.798948
2412.671022	-2.991800	3.181800	-9.518600	26.998728	-0.000129	20.806857
2413.667710	-2.992200	3.181700	-9.519200	26.981134	-0.000129	20.783474
2414.668397	-2.997300	3.178700	-9.526800	26.983815	-0.000131	20.787593
2415.670285	-3.002400	3.178300	-9.541100	26.985654	-0.000131	20.779011
2416.668787	-3.008100	3.177600	-9.557900	27.021633	-0.000131	20.790063
2417.674207	-2.992100	3.178200	-9.508600	27.018286	-0.000129	20.802818
2418.670465	-2.979400	3.176800	-9.464100	27.003201	-0.000131	20.778165
2419.667895	-2.989800	3.176300	-9.495800	27.012755	-0.000131	20.786824
2420.669579	-2.990600	3.175700	-9.496100	27.012110	-0.000132	20.804194
2421.672387	-3.002600	3.175800	-9.534800	27.024545	-0.000131	20.785878
2422.669650	-2.983100	3.174100	-9.467600	27.037299	-0.000131	20.802024
2423.670527	-3.004300	3.173700	-9.533600	27.016554	-0.000132	20.787799
2424.672248	-2.999400	3.173200	-9.517100	27.043629	-0.000130	20.804122
2425.672031	-3.003000	3.173700	-9.528500	27.031866	-0.000131	20.778542
2426.671679	-3.021300	3.171200	-9.579800	27.054818	-0.000130	20.795935
2427.673625	-2.996200	3.172600	-9.504800	27.063529	-0.000132	20.778617
2428.672622	-3.003300	3.171600	-9.524100	27.049456	-0.000132	20.781059
2429.673355	-3.005300	3.171700	-9.530800	27.056381	-0.000131	20.790394
2430.674345	-3.010100	3.170000	-9.541300	27.033278	-0.000131	20.796083
2431.674464	-3.005600	3.168800	-9.523500	27.043453	-0.000132	20.792566
2432.674173	-3.002100	3.168800	-9.512400	27.041839	-0.000133	20.783830
2433.674822	-3.010800	3.167300	-9.535000	27.030498	-0.000133	20.775744
2434.674539	-2.984800	3.169500	-9.459600	27.045112	-0.000134	20.792811
2435.673109	-3.004700	3.167500	-9.516100	27.049654	-0.000133	20.790741
2436.682145	-2.991500	3.165900	-9.470000	27.070100	-0.000133	20.785699
2437.675164	-3.002800	3.166600	-9.507800	27.048163	-0.000131	20.784974
2438.672649	-3.023500	3.165000	-9.567800	27.071739	-0.000131	20.789244
2439.676731	-2.990000	3.165600	-9.463900	27.061539	-0.000133	20.786573
2440.675659	-3.002200	3.164700	-9.498600	27.059379	-0.000131	20.786297
2441.677488	-2.982500	3.164600	-9.437200	27.078140	-0.000133	20.768654
2442.678057	-2.994500	3.163100	-9.471000	27.081591	-0.000132	20.790617
2443.677051	-3.003200	3.163000	-9.498300	27.094539	-0.000133	20.770449
2444.678197	-3.001800	3.161100	-9.487800	27.086623	-0.000132	20.800420
2445.681485	-2.997000	3.161000	-9.472900	27.089008	-0.000133	20.783852
2446.679397	-2.993100	3.161100	-9.460000	27.102085	-0.000133	20.771400
2447.677122	-3.003400	3.159600	-9.489000	27.106797	-0.000132	20.781354
2448.681474	-3.012100	3.158400	-9.512200	27.109527	-0.000135	20.792161
2449.677557	-2.992600	3.159000	-9.452800	27.102727	-0.000134	20.781054
2450.680159	-3.005700	3.156600	-9.486800	27.125951	-0.000133	20.786394
2451.677863	-2.997900	3.157400	-9.465100	27.110541	-0.000133	20.787965
2452.680269	-3.003700	3.156700	-9.480900	27.105457	-0.000131	20.793283
2453.679894	-3.005400	3.157300	-9.488600	27.135728	-0.000135	20.800494
2454.680783	-3.024400	3.153800	-9.537300	27.122774	-0.000133	20.757120
2455.679323	-3.003500	3.154500	-9.473700	27.102354	-0.000130	20.773567
2456.679646	-3.015400	3.154400	-9.511200	27.118781	-0.000135	20.799097
2457.680198	-2.996300	3.153500	-9.448100	27.103544	-0.000134	20.782824
2458.679421	-2.973300	3.153500	-9.376000	27.136794	-0.000134	20.771221
2459.680298	-3.009100	3.151800	-9.482700	27.129501	-0.000135	20.774316
2460.680994	-2.980400	3.150800	-9.389900	27.152897	-0.000133	20.780304
2461.681516	-2.996000	3.150900	-9.439700	27.145428	-0.000134	20.761886
2462.683687	-3.016400	3.151300	-9.504000	27.154608	-0.000134	20.782973
2463.683933	-2.996900	3.149300	-9.437500	27.144285	-0.000134	20.782074
2464.685499	-2.989400	3.148800	-9.412000	27.144979	-0.000135	20.767124
2465.683496	-2.983600	3.148300	-9.392800	27.146791	-0.000133	20.787439
2466.685701	-2.972800	3.148100	-9.357900	27.141654	-0.000133	20.755245
2467.684800	-2.960000	3.147200	-9.315100	27.163411	-0.000133	20.777128
2468.682772	-2.989600	3.145600	-9.403600	27.153783	-0.000132	20.779772
2469.684274	-2.992600	3.144700	-9.409800	27.144431	-0.000134	20.776056
2470.688026	-2.998300	3.146400	-9.432800	27.151946	-0.000132	20.775080
2471.681693	-2.980700	3.144100	-9.370300	27.147901	-0.000133	20.756312
2472.683609	-3.009200	3.142700	-9.456600	27.141846	-0.000133	20.772508
2473.686441	-2.985000	3.145100	-9.386700	27.163877	-0.000133	20.770959
2474.684009	-3.017100	3.141000	-9.475700	27.147249	-0.000132	20.763717
2475.684280	-2.992900	3.141200	-9.400000	27.165264	-0.000133	20.754336
2476.691566	-2.982300	3.140000	-9.363500	27.174293	-0.000133	20.770529
2477.685442	-2.990200	3.139600	-9.387400	27.168734	-0.000133	20.783905
2478.686114	-3.000600	3.138300	-9.416400	27.194092	-0.000133	20.763891
2479.688447	-2.992400	3.138400	-9.390700	27.196400	-0.000134	20.760048
2480.685216	-2.994800	3.136700	-9.392800	27.181041	-0.000135	20.768307
2481.685145	-2.995800	3.137000	-9.396800	27.187073	-0.000133	20.745450
2482.688633	-3.023300	3.136500	-9.482400	27.206004	-0.000134	20.759750
2483.687185	-2.985200	3.135400	-9.358900	27.197864	-0.000133	20.766736
2484.686055	-3.036500	3.133900	-9.514600	27.198360	-0.000132	20.760122
2485.686736	-3.001700	3.134700	-9.409200	27.200742	-0.000133	20.764414
2486.685421	-2.989800	3.135200	-9.372500	27.207840	-0.000133	20.760649
2487.684838	-2.992300	3.135100	-9.380900	27.228406	-0.000133	20.770904
2488.687016	-3.006700	3.130600	-9.411700	27.227760	-0.000132	20.770253
2489.685416	-2.987900	3.131000	-9.354300	27.259910	-0.000133	20.780307
2490.684966	-2.994200	3.129400	-9.369400	27.242570	-0.000135	20.767607
2491.689590	-3.032500	3.128300	-9.485300	27.252793	-0.000135	20.737585
2492.686671	-3.006400	3.128500	-9.405100	27.246958	-0.000135	20.764908
2493.686524	-2.990000	3.128600	-9.353600	27.251351	-0.000133	20.763637
2494.688336	-3.017800	3.127400	-9.436300	27.248523	-0.000133	20.757473
2495.688052	-2.997200	3.124800	-9.364000	27.261821	-0.000137	20.756150
2496.687620	-3.032000	3.125400	-9.475400	27.273978	-0.000134	20.763163
2497.694166	-2.988700	3.124600	-9.337800	27.260258	-0.000134	20.770700
2498.689921	-2.972900	3.124400	-9.287400	27.255764	-0.000134	20.769024
2499.686065	-3.007300	3.122800	-9.389800	27.267675	-0.000133	20.756822
2500.691807	-2.991000	3.122900	-9.339700	27.274918	-0.000135	20.742297
2501.689229	-2.995900	3.121800	-9.352000	27.268837	-0.000132	20.764156
2502.688403	-2.988900	3.122400	-9.331200	27.273008	-0.000133	20.752704
2503.691796	-3.001500	3.120800	-9.366400	27.292406	-0.000133	20.745189
2504.689071	-2.990700	3.120100	-9.330600	27.263057	-0.000131	20.730839
2505.688874	-3.023000	3.118400	-9.426200	27.291956	-0.000134	20.756117
2506.692325	-3.019300	3.116500	-9.408600	27.289103	-0.000134	20.748031
2507.691544	-3.004200	3.117700	-9.365200	27.269157	-0.000134	20.761159
2508.688659	-3.004300	3.117100	-9.363500	27.295776	-0.000132	20.775133
2509.692086	-3.013300	3.117400	-9.391800	27.275557	-0.000135	20.748155
2510.688725	-3.004100	3.115700	-9.359500	27.289202	-0.000134	20.759511
2511.691658	-3.025900	3.114700	-9.424100	27.285902	-0.000134	20.746708
2512.690647	-2.987300	3.113900	-9.301600	27.291707	-0.000133	20.743538
2513.689936	-3.017600	3.112000	-9.390200	27.307410	-0.000136	20.742738
2514.688890	-2.998800	3.111400	-9.330300	27.307857	-0.000136	20.747929
2515.691034	-3.001800	3.110900	-9.337700	27.311751	-0.000134	20.754218
2516.689130	-2.982400	3.109200	-9.271800	27.299323	-0.000134	20.740767
2517.689775	-3.009200	3.107900	-9.350600	27.325171	-0.000133	20.763450
2518.693631	-3.007200	3.107300	-9.343100	27.327900	-0.000133	20.739642
2519.689997	-2.982600	3.109400	-9.273500	27.323831	-0.000134	20.730807
2520.689643	-2.985300	3.106400	-9.272700	27.318199	-0.000133	20.745057
2521.691397	-2.988300	3.104900	-9.277600	27.323683	-0.000134	20.770962
2522.691372	-2.992100	3.105200	-9.290300	27.299641	-0.000136	20.752941
2523.692236	-2.975200	3.104200	-9.234700	27.323905	-0.000136	20.760280
2524.693558	-3.017000	3.100800	-9.354200	27.318002	-0.000135	20.743910
2525.692235	-2.995400	3.100700	-9.287300	27.341046	-0.000135	20.760928
2526.692745	-2.974000	3.101900	-9.224000	27.317829	-0.000136	20.743736
2527.691245	-3.007400	3.097900	-9.314700	27.319068	-0.000134	20.736447
2528.692541	-2.991600	3.099100	-9.270700	27.349607	-0.000135	20.758634
2529.697190	-3.003000	3.098000	-9.302200	27.357445	-0.000135	20.765096
2530.692595	-2.973400	3.098100	-9.210100	27.348640	-0.000133	20.758135
2531.691595	-3.017400	3.096900	-9.343800	27.357472	-0.000133	20.739044
2532.699165	-3.016500	3.093600	-9.331000	27.374564	-0.000134	20.745332
2533.693671	-3.036800	3.092200	-9.389800	27.371092	-0.000133	20.752745
2534.694276	-3.005600	3.093300	-9.296200	27.357768	-0.000135	20.753093
2535.700069	-2.990200	3.092700	-9.247600	27.365088	-0.000133	20.754292
2536.696371	-2.990800	3.090600	-9.242900	27.377542	-0.000135	20.743587
2537.695958	-3.021200	3.089300	-9.332700	27.374191	-0.000134	20.747328
2538.699290	-2.978900	3.089300	-9.200700	27.387712	-0.000134	20.752869
2539.697812	-2.995300	3.088700	-9.251100	27.390666	-0.000135	20.764850
2540.698282	-3.006000	3.087300	-9.279500	27.392077	-0.000134	20.738294
2541.701887	-3.024400	3.086200	-9.333100	27.391408	-0.000134	20.742363
2542.698999	-3.010000	3.085200	-9.285600	27.387687	-0.000135	20.768492
2543.697681	-2.996400	3.085100	-9.241600	27.393192	-0.000134	20.768815
2544.704078	-2.982100	3.083200	-9.192800	27.410505	-0.000135	20.738341
2545.699516	-2.967900	3.083800	-9.150100	27.388901	-0.000135	20.766869
2546.700298	-2.967300	3.081600	-9.143000	27.419784	-0.000133	20.760004
2547.704393	-3.003500	3.079600	-9.248900	27.419907	-0.000134	20.742584
2548.701930	-2.987200	3.080900	-9.202000	27.425538	-0.000136	20.743982
2549.704355	-2.993200	3.078400	-9.213500	27.417550	-0.000134	20.741636
2550.699014	-2.988100	3.077900	-9.195000	27.451159	-0.000135	20.764068
2551.701785	-3.028900	3.073900	-9.309900	27.427618	-0.000133	20.755084
2552.703709	-3.021000	3.073600	-9.284700	27.447289	-0.000135	20.758279
2553.701710	-3.032600	3.071800	-9.314700	27.442626	-0.000135	20.740310
2554.701497	-2.993300	3.072500	-9.195800	27.453416	-0.000136	20.767288
2555.702224	-2.991300	3.071400	-9.186700	27.439028	-0.000135	20.767511
2556.700893	-3.015700	3.070300	-9.258200	27.455518	-0.000136	20.754703
2557.700962	-3.017800	3.066800	-9.254100	27.432923	-0.000135	20.766585
2558.706270	-2.971300	3.067900	-9.114500	27.469583	-0.000135	20.761741
2559.708738	-2.973000	3.066800	-9.116400	27.441379	-0.000135	20.749962
2560.701491	-2.992200	3.064700	-9.169500	27.469507	-0.000133	20.753129
2561.708077	-3.028500	3.063900	-9.277800	27.456338	-0.000135	20.753157
2562.703247	-3.007200	3.063800	-9.212100	27.466531	-0.000135	20.765309
2563.706661	-2.998600	3.060600	-9.176700	27.473822	-0.000131	20.777386
2564.722741	-3.010200	3.060700	-9.212100	27.482133	-0.000132	20.755401
2565.705791	-3.008500	3.058900	-9.201600	27.484566	-0.000132	20.752633
2566.707979	-3.001300	3.059300	-9.180400	27.482231	-0.000133	20.761190
2567.708104	-2.987900	3.057600	-9.135100	27.506691	-0.000135	20.761617
2568.707810	-2.986800	3.056200	-9.127100	27.477075	-0.000135	20.752208
2569.709562	-2.984900	3.055600	-9.120400	27.494487	-0.000135	20.764512
2570.710248	-3.010700	3.053700	-9.192300	27.510286	-0.000134	20.756699
2571.707292	-3.002300	3.053300	-9.165700	27.515320	-0.000135	20.766979
2572.709368	-2.972500	3.053300	-9.075100	27.513982	-0.000135	20.767531
2573.711662	-2.955000	3.050200	-9.011900	27.495852	-0.000134	20.764937
2574.708698	-2.996800	3.048300	-9.133500	27.523038	-0.000136	20.758623
2575.708904	-3.004400	3.046400	-9.151400	27.511925	-0.000136	20.765460
2576.714759	-2.978400	3.046700	-9.073600	27.540549	-0.000137	20.761543
2577.710655	-2.991600	3.044700	-9.107500	27.543949	-0.000134	20.787250
2578.708765	-2.980600	3.045200	-9.075800	27.524802	-0.000134	20.761821
2579.713609	-2.987500	3.043000	-9.090000	27.536409	-0.000133	20.760696
2580.709728	-3.009300	3.040300	-9.147800	27.545489	-0.000135	20.766987
2581.710539	-3.000300	3.040800	-9.122100	27.565553	-0.000135	20.772002
2582.713075	-2.990000	3.039000	-9.085200	27.537203	-0.000137	20.773824
2583.710424	-3.017900	3.037700	-9.166600	27.553897	-0.000134	20.765965
2584.709247	-3.018300	3.035800	-9.161800	27.556303	-0.000135	20.773601
2585.713528	-2.999300	3.034600	-9.099600	27.540951	-0.000134	20.792768
2586.712247	-3.001700	3.034000	-9.106100	27.562654	-0.000134	20.784733
2587.712575	-2.993800	3.032300	-9.076900	27.542982	-0.000134	20.766836
2588.717879	-2.969900	3.031800	-9.003100	27.567911	-0.000133	20.786704
2589.712972	-3.034200	3.028100	-9.185600	27.566347	-0.000135	20.753361
2590.712740	-3.003300	3.028100	-9.093500	27.608137	-0.000136	20.779762
2591.717971	-3.013100	3.026000	-9.116700	27.578377	-0.000135	20.789648
2592.714737	-3.021500	3.024100	-9.136700	27.579641	-0.000134	20.773375
2593.714838	-3.030400	3.024100	-9.163200	27.612923	-0.000134	20.789320
2594.717182	-3.023600	3.022100	-9.136900	27.589438	-0.000136	20.772801
2595.715711	-3.009900	3.022100	-9.095000	27.576369	-0.000135	20.793317
2596.716294	-3.002400	3.020500	-9.067300	27.600054	-0.000135	20.786803
2597.719229	-2.983500	3.020400	-9.010500	27.585347	-0.000133	20.785755
2598.718003	-2.979500	3.018600	-8.993600	27.593978	-0.000133	20.777843
2599.719660	-3.015800	3.016300	-9.096100	27.585273	-0.000133	20.788052
2600.720811	-3.001000	3.015800	-9.048700	27.605608	-0.000133	20.788123
2601.718034	-2.978600	3.013400	-8.974300	27.602159	-0.000134	20.783704
2602.719173	-2.994400	3.011900	-9.017400	27.609874	-0.000136	20.785303
2603.720231	-3.000700	3.010600	-9.033200	27.612079	-0.000133	20.784678
2604.720578	-3.019600	3.009600	-9.086900	27.598761	-0.000132	20.776019
2605.720843	-3.017400	3.008900	-9.078000	27.613838	-0.000135	20.795931
2606.720798	-2.992900	3.006300	-8.996600	27.617956	-0.000134	20.798651
2607.720069	-3.004300	3.004900	-9.027000	27.618898	-0.000135	20.802919
2608.723851	-2.987800	3.004400	-8.975500	27.596252	-0.000137	20.794831
2609.722249	-2.989600	3.003700	-8.979000	27.607636	-0.000136	20.795379
2610.743209	-2.998200	3.001500	-8.998400	27.600765	-0.000137	20.804587
2611.729210	-2.987500	3.001100	-8.964500	27.630647	-0.000136	20.810473
2612.722429	-3.002500	2.997500	-8.998900	27.635036	-0.000136	20.794026
2613.722536	-2.988600	2.997000	-8.954900	27.633597	-0.000134	20.791156
2614.724969	-2.999600	2.996000	-8.985800	27.639797	-0.000134	20.802136
2615.724959	-2.980300	2.994200	-8.922600	27.646167	-0.000137	20.804279
2616.723046	-2.985000	2.994100	-8.936500	27.669826	-0.000134	20.799162
2617.727046	-3.029100	2.990400	-9.057300	27.647679	-0.000134	20.810068
2618.725576	-3.004300	2.991100	-8.985900	27.666402	-0.000135	20.802355
2619.745050	-2.978700	2.988800	-8.901700	27.673341	-0.000134	20.825458
2620.741064	-2.995900	2.987900	-8.950700	27.668602	-0.000135	20.802672
2621.730066	-2.983000	2.985700	-8.905700	27.674555	-0.000135	20.815300
2622.742486	-2.983500	2.985100	-8.905200	27.668479	-0.000135	20.823884
2623.733049	-2.996500	2.983800	-8.940100	27.678892	-0.000134	20.813500
2624.729133	-3.012900	2.982200	-8.983300	27.685957	-0.000134	20.805911
2625.730302	-2.991400	2.980200	-8.914700	27.690075	-0.000135	20.829969
2626.730302	-3.013700	2.978700	-8.975500	27.682955	-0.000137	20.797674
2627.732530	-2.990600	2.978600	-8.907100	27.690790	-0.000135	20.806033
2628.730466	-2.950500	2.976700	-8.782200	27.708572	-0.000133	20.813021
2629.733429	-2.995300	2.974200	-8.907500	27.686497	-0.000136	20.805981
2630.731468	-3.000500	2.972600	-8.918500	27.696839	-0.000137	20.807378
2631.733251	-3.016700	2.969700	-8.957700	27.689421	-0.000136	20.832629
2632.735639	-2.983700	2.969700	-8.859900	27.708369	-0.000136	20.819455
2633.733509	-3.005300	2.967700	-8.917800	27.692645	-0.000133	20.814538
2634.732925	-3.006100	2.966000	-8.915400	27.701200	-0.000136	20.822198
2635.736927	-2.979500	2.965800	-8.835800	27.708392	-0.000134	20.813314
2636.734176	-2.992500	2.965200	-8.872100	27.726965	-0.000134	20.814935
2637.742610	-3.015400	2.962000	-8.929800	27.706110	-0.000135	20.830457
2638.736070	-3.040100	2.960100	-8.997900	27.700305	-0.000138	20.834099
2639.733708	-3.007100	2.958500	-8.895800	27.707052	-0.000136	20.793000
2640.734046	-2.972100	2.959200	-8.794100	27.710274	-0.000135	20.825165
2641.733804	-3.015800	2.957000	-8.916400	27.734033	-0.000135	20.821573
2642.733561	-3.005100	2.955700	-8.880500	27.719352	-0.000134	20.826714
2643.738943	-2.984000	2.953500	-8.811200	27.742736	-0.000134	20.845029
2644.735175	-3.011600	2.951500	-8.887700	27.738794	-0.000132	20.827312
2645.734649	-3.020900	2.950200	-8.910600	27.740183	-0.000135	20.829658
2646.737707	-2.994500	2.948800	-8.829300	27.752904	-0.000135	20.824917
2647.737281	-3.004000	2.946800	-8.851100	27.763467	-0.000136	20.812787
2648.734768	-3.006900	2.944600	-8.852600	27.779684	-0.000136	20.833848
2649.736115	-2.998400	2.944300	-8.826600	27.773707	-0.000135	20.831152
2650.735909	-2.976600	2.943100	-8.759900	27.763317	-0.000134	20.831602
2651.736541	-2.995800	2.942000	-8.812600	27.776460	-0.000135	20.839612
2652.738676	-3.021800	2.939900	-8.883200	27.772392	-0.000135	20.826510
2653.736949	-2.991000	2.938500	-8.787500	27.776534	-0.000134	20.818825
2654.737590	-3.006800	2.936100	-8.827400	27.798453	-0.000136	20.831875
2655.738637	-3.019200	2.934500	-8.859400	27.801579	-0.000135	20.837865
2656.737211	-2.980300	2.933700	-8.742100	27.802967	-0.000137	20.837366
2657.737371	-3.001700	2.929900	-8.793300	27.799322	-0.000137	20.844128
2658.737946	-3.008300	2.929900	-8.813300	27.803510	-0.000136	20.836489
2659.737563	-2.982800	2.928800	-8.735300	27.807232	-0.000137	20.833597
2660.735738	-3.015200	2.925600	-8.819900	27.807876	-0.000137	20.850840
2661.744670	-2.984700	2.925100	-8.729900	27.823673	-0.000134	20.817901
2662.737807	-3.000500	2.922500	-8.768200	27.831510	-0.000136	20.815357
2663.738885	-2.996500	2.921000	-8.751400	27.821566	-0.000137	20.843281
2664.741755	-3.000400	2.920200	-8.760900	27.826672	-0.000135	20.837041
2665.737917	-2.982000	2.917900	-8.699400	27.822363	-0.000134	20.827963
2666.738284	-2.986900	2.917900	-8.714200	27.811155	-0.000135	20.825691
2667.741271	-3.003900	2.914900	-8.754800	27.800664	-0.000136	20.848797
2668.739135	-3.014700	2.911400	-8.776500	27.814203	-0.000135	20.857682
2669.742411	-3.001800	2.910800	-8.736300	27.818794	-0.000134	20.842862
2670.740585	-3.012800	2.909700	-8.765100	27.835086	-0.000136	20.863525
2671.742074	-2.996800	2.908600	-8.715300	27.824201	-0.000135	20.835976
2672.740771	-2.994400	2.905200	-8.698400	27.850759	-0.000134	20.862704
2673.743602	-2.987800	2.903500	-8.674200	27.857382	-0.000133	20.843766
2674.743105	-3.020100	2.900100	-8.757700	27.863630	-0.000136	20.852424
2675.741730	-3.023700	2.899400	-8.764400	27.853567	-0.000136	20.836132
2676.743637	-3.025000	2.897400	-8.763500	27.851608	-0.000135	20.836058
2677.740873	-2.986100	2.897800	-8.651900	27.873973	-0.000135	20.839126
2678.742276	-3.028000	2.894600	-8.763800	27.849652	-0.000133	20.849262
2679.746058	-3.017000	2.892600	-8.726300	27.881017	-0.000136	20.848113
2680.742269	-3.002500	2.890000	-8.676500	27.882485	-0.000137	20.852435
2681.740042	-2.980500	2.889100	-8.609700	27.867037	-0.000135	20.861542
2682.743405	-2.990600	2.887300	-8.634100	27.889798	-0.000136	20.857424
2683.743380	-2.984800	2.885800	-8.612900	27.897021	-0.000137	20.857107
2684.746602	-3.020100	2.883400	-8.707900	27.898730	-0.000135	20.855034
2685.743931	-3.002900	2.881200	-8.651600	27.899998	-0.000137	20.865792
2686.744491	-3.012400	2.879400	-8.672500	27.923032	-0.000132	20.838717
2687.745754	-2.998800	2.877200	-8.627200	27.935628	-0.000137	20.863248
2688.744088	-3.034100	2.875000	-8.722200	27.943119	-0.000134	20.845184
2689.745842	-2.993100	2.874100	-8.602200	27.954501	-0.000136	20.868968
2690.742811	-2.989600	2.872100	-8.584900	27.952694	-0.000135	20.847235
2691.744269	-2.990600	2.869700	-8.581000	27.948654	-0.000136	20.867823
2692.744744	-3.001400	2.866900	-8.603500	27.952795	-0.000138	20.865354
2693.746488	-2.985700	2.866900	-8.558600	27.966111	-0.000135	20.849360
2694.745564	-3.011700	2.862800	-8.621300	27.949475	-0.000133	20.844944
2695.747739	-3.009800	2.862300	-8.614100	27.982502	-0.000136	20.870125
2696.748942	-2.987100	2.859400	-8.540200	27.990387	-0.000133	20.842975
2697.750227	-2.957100	2.858300	-8.451600	28.006603	-0.000135	20.857401
2698.749645	-2.991200	2.853900	-8.535400	27.978736	-0.000135	20.869179
2699.749634	-2.980600	2.854000	-8.503700	27.999838	-0.000133	20.865290
2700.751853	-3.000900	2.851000	-8.554700	27.993739	-0.000135	20.849194
2701.749051	-3.019900	2.848100	-8.599000	28.004721	-0.000136	20.853136
2702.751364	-3.027200	2.845700	-8.614100	27.976981	-0.000134	20.858404
2703.751151	-3.008800	2.844400	-8.556700	27.990546	-0.000134	20.862574
2704.749175	-2.989600	2.842800	-8.497000	28.010579	-0.000133	20.880368
2705.749226	-3.020600	2.840300	-8.579000	28.017272	-0.000134	20.848226
2706.751318	-3.013100	2.837200	-8.547700	28.008572	-0.000132	20.852270
2707.749474	-2.986300	2.835600	-8.467300	28.016382	-0.000133	20.863925
2708.750034	-3.006200	2.833200	-8.516300	28.028679	-0.000133	20.888155
2709.753469	-3.015500	2.830600	-8.534800	28.040159	-0.000137	20.865099
2710.750953	-3.017800	2.827200	-8.531000	28.015941	-0.000137	20.867748
2711.752422	-2.992800	2.827800	-8.462400	28.032573	-0.000132	20.865524
2712.751877	-3.009000	2.823500	-8.493700	28.033641	-0.000134	20.865650
2713.759943	-3.032600	2.821400	-8.555400	28.044672	-0.000132	20.875805
2714.752009	-2.987700	2.820000	-8.423300	28.075243	-0.000132	20.851578
2715.752138	-3.002900	2.817100	-8.458400	28.054909	-0.000134	20.862403
2716.754591	-3.008200	2.815100	-8.467700	28.058754	-0.000133	20.870066
2717.753352	-3.003600	2.812400	-8.446200	28.052754	-0.000134	20.857863
2718.753487	-2.984400	2.810000	-8.384600	28.066340	-0.000134	20.871538
2719.755876	-2.995700	2.809100	-8.414000	28.048887	-0.000132	20.866298
2720.757835	-2.997800	2.805000	-8.407600	28.085923	-0.000132	20.865648
2721.755431	-2.988500	2.802700	-8.374900	28.085055	-0.000133	20.900807
2722.759930	-2.996900	2.800000	-8.390800	28.098019	-0.000132	20.875927
2723.761285	-2.985400	2.797800	-8.351600	28.086369	-0.000135	20.883640
2724.758977	-3.016600	2.794700	-8.429700	28.070130	-0.000133	20.871561
2725.758978	-3.005700	2.791300	-8.389300	28.087856	-0.000133	20.883714
2726.762837	-3.005500	2.789200	-8.382700	28.085649	-0.000131	20.882440
2727.758343	-3.013000	2.786500	-8.394800	28.111056	-0.000134	20.879094
2728.762284	-3.012400	2.783700	-8.384600	28.114082	-0.000134	20.903949
2729.757809	-2.994700	2.783200	-8.334400	28.127468	-0.000132	20.905570
2730.756083	-3.001300	2.778600	-8.338100	28.124469	-0.000133	20.895440
2731.761322	-2.997900	2.777000	-8.324300	28.134757	-0.000132	20.895366
2732.758595	-2.985200	2.774500	-8.281400	28.152852	-0.000133	20.894142
2733.760958	-3.014100	2.770900	-8.350900	28.139714	-0.000134	20.891821
2734.766907	-3.008600	2.767400	-8.324600	28.141869	-0.000135	20.872181
2735.759177	-3.026700	2.764500	-8.366300	28.162417	-0.000134	20.900452
2736.758906	-2.963000	2.763500	-8.186900	28.167623	-0.000132	20.899054
2737.762155	-2.997400	2.759400	-8.270200	28.165418	-0.000134	20.879293
2738.760684	-2.967900	2.757600	-8.183400	28.186662	-0.000132	20.892618
2739.761574	-3.004700	2.753700	-8.272600	28.214597	-0.000133	20.902249
2740.764458	-3.014600	2.750500	-8.290600	28.215933	-0.000133	20.892215
2741.764694	-2.972700	2.748600	-8.169300	28.234946	-0.000135	20.912778
2742.761521	-3.010700	2.744400	-8.261800	28.218164	-0.000133	20.885928
2743.764212	-2.960800	2.742700	-8.119900	28.222480	-0.000134	20.891694
2744.762332	-2.999700	2.738300	-8.213000	28.239209	-0.000132	20.909484
2745.761286	-3.010300	2.735500	-8.233900	28.251407	-0.000134	20.902326
2746.765142	-3.009200	2.731800	-8.218200	28.238815	-0.000134	20.900553
2747.762228	-2.994800	2.729700	-8.174000	28.263825	-0.000133	20.906766
2748.765499	-3.000900	2.725900	-8.179800	28.282292	-0.000134	20.913032
2749.767671	-2.998700	2.720800	-8.157900	28.272874	-0.000135	20.896438
2750.761941	-3.003200	2.717700	-8.160900	28.281274	-0.000133	20.898257
2751.762878	-3.011100	2.714100	-8.172000	28.292828	-0.000134	20.905622
2752.765931	-2.996600	2.710400	-8.120300	28.290993	-0.000133	20.912310
2753.763910	-2.990100	2.707500	-8.095100	28.310775	-0.000136	20.912312
2754.763292	-2.988900	2.703900	-8.080400	28.312461	-0.000136	20.921596
2755.766065	-2.996100	2.699600	-8.087500	28.313080	-0.000135	20.917478
2756.761997	-2.976600	2.695300	-8.022100	28.332292	-0.000136	20.887038
2757.762037	-2.974700	2.692800	-8.009500	28.335142	-0.000135	20.916458
2758.765931	-2.991800	2.687400	-8.039200	28.354055	-0.000134	20.910846
2759.763498	-3.025700	2.681400	-8.111800	28.342706	-0.000135	20.925970
2760.762797	-3.018000	2.678300	-8.081300	28.351330	-0.000137	20.905258
2761.766153	-3.044000	2.674500	-8.139600	28.368236	-0.000134	20.897151
2762.765265	-3.018700	2.669000	-8.056000	28.353217	-0.000136	20.903839
2763.764436	-2.989600	2.665000	-7.966800	28.374237	-0.000134	20.937803
2764.766658	-3.027600	2.659100	-8.049700	28.385243	-0.000135	20.904792
2765.763826	-3.026900	2.656600	-8.039500	28.395999	-0.000136	20.906140
2766.764965	-3.016000	2.650800	-7.993800	28.402244	-0.000133	20.911953
2767.769252	-2.992100	2.647500	-7.920200	28.403361	-0.000135	20.898381
2768.765058	-2.999500	2.642100	-7.924000	28.408795	-0.000135	20.905274
2769.767812	-2.998700	2.635300	-7.901000	28.412140	-0.000137	20.890152
2770.769493	-2.959700	2.633300	-7.792700	28.419797	-0.000138	20.907345
2771.766322	-3.013600	2.625600	-7.911800	28.438013	-0.000135	20.894869
2772.764759	-2.983800	2.622600	-7.824100	28.427164	-0.000136	20.884893
2773.770195	-2.996500	2.616300	-7.838000	28.425278	-0.000136	20.915707
2774.763983	-2.986400	2.612900	-7.802100	28.440447	-0.000136	20.898742
2775.766615	-3.008600	2.606100	-7.840100	28.438416	-0.000134	20.879154
2776.770630	-2.980000	2.601900	-7.752800	28.451403	-0.000135	20.868525
2777.767487	-3.002800	2.594200	-7.789400	28.468999	-0.000138	20.886718
2778.770638	-2.981000	2.590400	-7.720000	28.464266	-0.000136	20.905657
2779.768508	-2.986800	2.584700	-7.719100	28.510359	-0.000133	20.900867
2780.767226	-3.020600	2.577000	-7.782900	28.482186	-0.000134	20.887669
2781.768984	-2.999400	2.571900	-7.713500	28.486475	-0.000135	20.879187
2782.769225	-2.992300	2.567100	-7.680000	28.505856	-0.000136	20.880212
2783.768179	-2.998900	2.560200	-7.676900	28.483333	-0.000135	20.876497
2784.769956	-2.973100	2.554900	-7.594700	28.526575	-0.000136	20.886853
2785.771499	-3.008900	2.547300	-7.663300	28.521944	-0.000135	20.897360
2786.769260	-2.968700	2.542700	-7.547100	28.508167	-0.000137	20.852195
2787.771086	-3.012400	2.534300	-7.633900	28.532357	-0.000136	20.904527
2788.773472	-3.025300	2.527300	-7.645100	28.541477	-0.000136	20.870093
2789.770642	-3.024000	2.521800	-7.625400	28.544404	-0.000136	20.860238
2790.770693	-3.046500	2.514300	-7.658400	28.568464	-0.000137	20.872141
2791.774440	-3.019000	2.508900	-7.573700	28.593422	-0.000136	20.851285
2792.771729	-3.010200	2.503100	-7.534100	28.601228	-0.000137	20.888068
2793.772746	-2.973300	2.495000	-7.417900	28.599493	-0.000136	20.864985
