LabVIEW Measurement	
Writer_Version	2
Reader_Version	2
Separator	Tab
Decimal_Separator	.
Multi_Headings	No
X_Columns	One
Time_Pref	Absolute
Operator	admin
Description	Clolumns are: time, Current, Voltage, Power, Battery Temp, and Chamber Temp
Date	2024/07/11
Time	12:36:47.8860096931457519531
***End_of_Header***	
	
Channels	6						
Samples	1	1	1	1	1	1	
Date	2024/07/11	2024/07/11	2024/07/11	2024/07/11	2024/07/11	2024/07/11	
Time	18:54:10.6724686622619628906	18:54:10.6765041351318359375	18:54:10.6814665794372558594	18:54:10.6574501991271972656	18:54:10.6574501991271972656	18:54:10.6574501991271972656	
X_Dimension	Time	Time	Time	Time	Time	Time	
X0	0.0000000000000000E+0	0.0000000000000000E+0	0.0000000000000000E+0	0.0000000000000000E+0	0.0000000000000000E+0	0.0000000000000000E+0	
Delta_X	1.000000	1.000000	1.000000	1.000000	1.000000	1.000000	
***End_of_Header***							
X_Value	Untitled	Untitled 1	Untitled 2	Untitled 3	Untitled 4	Untitled 5	Comment
0.000000	-0.001571	3.826100	-0.005909	20.825957	6.105712E-5	20.761472
1.003348	-2.997800	3.723800	-11.162000	20.841154	6.019925E-5	20.753910
2.001819	-3.009500	3.718700	-11.191000	20.836916	6.013326E-5	20.785708
3.000891	-3.012400	3.716500	-11.194000	20.832020	5.798859E-5	20.757104
4.005855	-2.995900	3.713200	-11.124000	20.823413	5.930839E-5	20.753712
5.003232	-3.017700	3.709800	-11.194000	20.837914	6.089215E-5	20.778645
6.004096	-3.006500	3.706200	-11.142000	20.819495	5.818656E-5	20.761173
7.003239	-3.016700	3.704100	-11.172000	20.835691	5.917641E-5	20.750817
8.003335	-3.015400	3.702900	-11.165000	20.837289	5.716372E-5	20.757157
9.006182	-3.022800	3.700900	-11.186000	20.835914	5.798859E-5	20.754833
10.003163	-3.021800	3.698000	-11.174000	20.847293	5.699875E-5	20.755307
11.002605	-2.974800	3.699300	-11.004000	20.830227	5.901144E-5	20.772855
12.006379	-2.991200	3.696400	-11.056000	20.831176	5.600890E-5	20.751992
13.004176	-2.992700	3.694500	-11.056000	20.830572	5.729570E-5	20.767036
14.005778	-3.030700	3.692500	-11.190000	20.835716	5.673479E-5	20.734246
15.005034	-3.011600	3.692900	-11.121000	20.847318	5.614088E-5	20.755807
16.004888	-3.005700	3.691500	-11.095000	20.830572	5.538199E-5	20.753759
17.006518	-2.985100	3.689000	-11.011000	20.846395	5.554697E-5	20.749668
18.006714	-3.010700	3.686900	-11.099000	20.851287	5.656981E-5	20.750293
19.007344	-2.990900	3.685700	-11.022000	20.855551	5.544798E-5	20.729900
20.009343	-2.965300	3.687300	-10.933000	20.847695	5.478809E-5	20.761874
21.006778	-2.993900	3.685200	-11.031000	20.857846	5.531600E-5	20.745472
22.008781	-3.005600	3.683000	-11.069000	20.843974	5.600890E-5	20.733495
23.011129	-3.002100	3.682700	-11.055000	20.857576	5.541499E-5	20.739512
24.010135	-2.993500	3.681700	-11.020000	20.847548	5.350128E-5	20.740389
25.014392	-2.993400	3.680300	-11.014000	20.854606	5.515103E-5	20.725635
26.008858	-2.995800	3.680800	-11.026000	20.854081	5.422717E-5	20.727482
27.010152	-2.984400	3.680300	-10.982000	20.857027	5.435915E-5	20.744653
28.009175	-3.021400	3.678200	-11.111000	20.861445	5.376524E-5	20.732001
29.013135	-3.003800	3.678500	-11.049000	20.859046	5.383123E-5	20.734817
30.011673	-3.031900	3.675300	-11.142000	20.859972	5.594291E-5	20.745702
31.010711	-3.021700	3.674800	-11.103000	20.878786	5.379824E-5	20.761199
32.010769	-3.026800	3.676400	-11.127000	20.874146	5.495306E-5	20.741858
33.012752	-3.018800	3.674600	-11.092000	20.866685	5.376524E-5	20.755735
34.012692	-2.982500	3.673800	-10.957000	20.855159	5.432616E-5	20.740414
35.014133	-3.008200	3.673600	-11.050000	20.890743	5.521702E-5	20.742336
36.015532	-3.011900	3.671600	-11.058000	20.871056	5.465611E-5	20.750149
37.016339	-3.012900	3.671600	-11.062000	20.876796	5.505205E-5	20.738345
38.016777	-3.007700	3.670900	-11.040000	20.870410	5.445814E-5	20.735751
39.016591	-2.994900	3.671100	-10.994000	20.865719	5.261042E-5	20.720627
40.018688	-3.001300	3.670200	-11.013000	20.886831	5.633885E-5	20.739372
41.022245	-3.010800	3.670100	-11.049000	20.879968	5.399621E-5	20.725869
42.019638	-2.998400	3.668700	-10.999000	20.884159	5.409519E-5	20.735751
43.020507	-3.003300	3.669000	-11.018000	20.872159	5.363326E-5	20.717585
44.021305	-3.018500	3.667800	-11.070000	20.898986	5.363326E-5	20.738725
45.020576	-3.018300	3.667900	-11.069000	20.881541	5.393022E-5	20.737874
46.025893	-3.001800	3.666800	-11.006000	20.912060	5.350128E-5	20.738050
47.024935	-2.994100	3.666800	-10.978000	20.910443	5.442514E-5	20.723156
48.021822	-2.976300	3.667300	-10.915000	20.910095	5.129062E-5	20.717592
49.024083	-3.002600	3.666100	-11.006000	20.907724	5.313834E-5	20.728972
50.023003	-2.979200	3.665400	-10.919000	20.915289	5.171956E-5	20.722786
51.021179	-2.981600	3.664100	-10.924000	20.893828	5.201651E-5	20.732618
52.022218	-3.003100	3.663700	-11.001000	20.923100	5.247844E-5	20.717322
53.021879	-2.983300	3.664300	-10.930000	20.903386	5.237946E-5	20.723684
54.029347	-3.023000	3.663900	-11.075000	20.925000	5.383123E-5	20.715903
55.022775	-2.995700	3.663100	-10.973000	20.916919	5.261042E-5	20.728684
56.023707	-2.997100	3.662600	-10.976000	20.922059	5.462311E-5	20.709167
57.027052	-3.036600	3.660900	-11.116000	20.912778	5.290737E-5	20.706049
58.023890	-3.008000	3.661900	-11.013000	20.915270	5.363326E-5	20.729406
59.022963	-3.004500	3.660100	-10.995000	20.894959	5.366626E-5	20.695340
60.024242	-2.993800	3.660900	-10.959000	20.919067	5.254443E-5	20.732729
61.024817	-2.996500	3.660600	-10.967000	20.920191	5.409519E-5	20.721050
62.030920	-2.980800	3.658900	-10.906000	20.938357	5.168656E-5	20.723572
63.026374	-3.012700	3.659500	-11.024000	20.939755	5.297336E-5	20.710270
64.028579	-2.988400	3.659000	-10.933000	20.937531	5.257743E-5	20.711366
65.028700	-3.006100	3.657400	-10.994000	20.941626	5.191753E-5	20.714512
66.027071	-2.985400	3.658300	-10.920000	20.935287	5.046575E-5	20.708646
67.028985	-3.007400	3.658200	-11.001000	20.933067	5.089468E-5	20.715910
68.028037	-2.975800	3.657200	-10.882000	20.948191	5.066372E-5	20.696895
69.028131	-3.015000	3.654800	-11.019000	20.955974	5.214849E-5	20.703258
70.028939	-2.980000	3.656900	-10.897000	20.943073	5.079570E-5	20.710270
71.028532	-2.998800	3.655400	-10.961000	20.952156	5.224748E-5	20.713190
72.029160	-3.004700	3.655400	-10.982000	20.948288	4.987184E-5	20.713589
73.029134	-2.989100	3.653600	-10.920000	20.966454	5.069671E-5	20.709472
74.029669	-3.006400	3.655000	-10.987000	20.941525	5.181854E-5	20.713938
75.029407	-3.010900	3.654300	-11.000000	20.976356	5.208250E-5	20.714160
76.029144	-2.957200	3.655600	-10.809000	20.959365	5.119164E-5	20.734626
77.034755	-2.983400	3.653600	-10.899000	20.939679	5.115864E-5	20.729162
78.031431	-2.987800	3.653200	-10.914000	20.959886	5.214849E-5	20.707644
79.031714	-2.990800	3.652500	-10.922000	20.972366	5.082869E-5	20.709695
80.031542	-2.992500	3.651000	-10.924000	20.977175	5.105966E-5	20.716876
81.030608	-2.998600	3.651200	-10.948000	20.981467	5.026778E-5	20.715479
82.034282	-2.970100	3.652300	-10.847000	20.962403	5.198352E-5	20.705895
83.033049	-3.002900	3.650800	-10.963000	20.971386	5.313834E-5	20.712034
84.032347	-3.010100	3.649200	-10.984000	20.971436	5.188453E-5	20.720620
85.032510	-2.977800	3.650300	-10.868000	20.980390	5.277540E-5	20.710608
86.033433	-2.998100	3.649600	-10.941000	20.995833	5.129062E-5	20.702346
87.039422	-2.992700	3.649600	-10.921000	21.000276	5.023479E-5	20.702996
88.036038	-2.987900	3.649500	-10.903000	20.984729	5.251144E-5	20.670373
89.036142	-3.022500	3.649400	-11.029000	20.974920	5.350128E-5	20.698972
90.037642	-3.010100	3.647900	-10.980000	20.999996	5.152159E-5	20.704612
91.035857	-3.007300	3.647400	-10.967000	20.987372	5.270941E-5	20.705737
92.036085	-3.027900	3.645900	-11.038000	21.005986	5.267641E-5	20.696379
93.038620	-3.011300	3.646000	-10.977000	21.004090	5.399621E-5	20.704440
94.036023	-3.014300	3.646300	-10.990000	20.994156	5.214849E-5	20.715842
95.036728	-3.012800	3.646800	-10.987000	20.999522	5.162057E-5	20.689438
96.038063	-3.042700	3.645100	-11.090000	21.018183	5.006981E-5	20.700043
97.037602	-3.021100	3.645300	-11.012000	21.001314	4.888199E-5	20.704034
98.040088	-3.013900	3.644100	-10.982000	21.015612	4.997083E-5	20.693203
99.038145	-3.007900	3.645000	-10.963000	21.007330	5.234646E-5	20.688238
100.037789	-3.012100	3.644400	-10.976000	21.042285	5.241245E-5	20.697122
101.039689	-3.009800	3.642900	-10.963000	20.994031	5.274240E-5	20.704810
102.039434	-2.997100	3.644000	-10.920000	21.027409	5.039976E-5	20.692201
103.040598	-2.983800	3.644100	-10.871000	21.014459	5.030078E-5	20.694421
104.040747	-2.993300	3.644100	-10.906000	20.997666	5.063072E-5	20.707498
105.040449	-3.018100	3.641900	-10.991000	21.019397	5.010281E-5	20.698887
106.041263	-2.999800	3.641500	-10.921000	21.033967	5.000382E-5	20.702554
107.042425	-3.001600	3.642100	-10.931000	21.031374	5.076270E-5	20.717506
108.043894	-3.001300	3.641300	-10.928000	21.040155	4.937692E-5	20.684086
109.040433	-3.007900	3.640700	-10.950000	21.046867	4.917895E-5	20.687955
110.041884	-2.997100	3.640300	-10.908000	21.043097	4.858504E-5	20.683709
111.041523	-3.020100	3.639600	-10.991000	21.043995	5.099367E-5	20.693143
112.041861	-2.997300	3.640000	-10.909000	21.045966	5.010281E-5	20.693218
113.040941	-3.006200	3.639300	-10.939000	21.051676	5.069671E-5	20.693714
114.044358	-2.998200	3.639600	-10.912000	21.056266	5.135661E-5	20.703521
115.042874	-3.000200	3.639300	-10.917000	21.057164	5.082869E-5	20.699203
116.044696	-3.006000	3.638900	-10.936000	21.063477	4.927793E-5	20.701251
117.042055	-3.005300	3.638000	-10.933000	21.048954	5.000382E-5	20.688146
118.042824	-3.034200	3.637500	-11.036000	21.063352	4.759519E-5	20.695909
119.042912	-2.993500	3.638300	-10.891000	21.056338	5.059773E-5	20.686522
120.041166	-2.989200	3.636200	-10.869000	21.067194	4.881600E-5	20.673198
121.043511	-3.015600	3.635100	-10.961000	21.065370	4.983885E-5	20.712628
122.043769	-2.968800	3.637400	-10.798000	21.091869	4.934392E-5	20.699304
123.043259	-2.985600	3.636100	-10.855000	21.082633	4.983885E-5	20.688167
124.047039	-2.992100	3.634300	-10.873000	21.073203	5.119164E-5	20.688218
125.046175	-3.011100	3.635300	-10.945000	21.070908	4.875001E-5	20.715322
126.046747	-3.010800	3.634000	-10.940000	21.091539	4.931093E-5	20.704190
127.047211	-3.007700	3.635500	-10.934000	21.096976	4.776017E-5	20.700145
128.046106	-2.999400	3.633900	-10.897000	21.098574	4.917895E-5	20.696527
129.050483	-2.994500	3.632900	-10.878000	21.092961	4.782616E-5	20.683325
130.047179	-2.990200	3.634100	-10.866000	21.090218	4.940991E-5	20.705713
131.046924	-3.001900	3.633700	-10.906000	21.094757	4.736423E-5	20.687018
132.046875	-2.999300	3.631300	-10.890000	21.109474	4.884900E-5	20.704585
133.048197	-3.002500	3.630800	-10.900000	21.126815	4.861803E-5	20.689213
134.047330	-3.008700	3.630300	-10.922000	21.119080	4.782616E-5	20.692856
135.049047	-2.993300	3.631500	-10.870000	21.100072	4.733123E-5	20.704190
136.047565	-2.997500	3.629800	-10.879000	21.109502	4.881600E-5	20.699872
137.049631	-3.005700	3.630400	-10.910000	21.120455	4.779316E-5	20.714622
138.049137	-2.977600	3.629300	-10.805000	21.111072	4.700128E-5	20.684370
139.050201	-3.015800	3.628800	-10.942000	21.120631	4.743022E-5	20.678759
140.051971	-3.020400	3.629100	-10.960000	21.121478	4.795814E-5	20.693358
141.051423	-3.021400	3.628100	-10.961000	21.149794	4.805712E-5	20.696552
142.050799	-3.001800	3.629300	-10.894000	21.140848	4.653935E-5	20.689974
143.051356	-3.013700	3.627800	-10.931000	21.155611	4.653935E-5	20.696207
144.052229	-2.986100	3.626600	-10.829000	21.145060	4.617641E-5	20.710785
145.057923	-2.992200	3.626900	-10.851000	21.148551	4.449367E-5	20.698628
146.051334	-2.975200	3.628800	-10.795000	21.136406	4.488961E-5	20.697385
147.052300	-2.984900	3.627500	-10.827000	21.133214	4.353682E-5	20.703201
148.053003	-2.993800	3.626500	-10.857000	21.159683	4.571448E-5	20.700281
149.050451	-2.992900	3.626400	-10.852000	21.153373	4.634138E-5	20.703927
150.052094	-2.975900	3.626200	-10.790000	21.162376	4.545052E-5	20.712933
151.055884	-2.987000	3.627300	-10.834000	21.164775	4.551651E-5	20.703952
152.053191	-2.993300	3.625200	-10.850000	21.159686	4.594545E-5	20.695068
153.051794	-2.995100	3.624600	-10.855000	21.185932	4.465864E-5	20.703305
154.053609	-2.993100	3.625000	-10.849000	21.183936	4.442768E-5	20.697040
155.053768	-2.992100	3.623400	-10.840000	21.179196	4.413072E-5	20.697040
156.057453	-3.008000	3.622500	-10.896000	21.196812	4.535154E-5	20.702335
157.055927	-2.993200	3.623700	-10.845000	21.186111	4.393275E-5	20.703485
158.055524	-3.008300	3.621600	-10.894000	21.188503	4.317387E-5	20.687858
159.056679	-3.010300	3.621600	-10.901000	21.181372	4.363580E-5	20.696846
160.057200	-3.010600	3.621700	-10.903000	21.183418	4.403174E-5	20.703161
161.059681	-2.985000	3.622700	-10.813000	21.189828	4.611042E-5	20.694400
162.058263	-2.994800	3.621500	-10.844000	21.185189	4.413072E-5	20.719158
163.057810	-3.019000	3.620600	-10.930000	21.208838	4.330585E-5	20.701089
164.059465	-3.011900	3.619800	-10.902000	21.194446	4.300890E-5	20.719409
165.058210	-3.021600	3.619500	-10.936000	21.220339	4.393275E-5	20.710224
166.058503	-2.984200	3.619300	-10.800000	21.195796	4.363580E-5	20.716492
167.060513	-2.991900	3.619400	-10.828000	21.225255	4.162311E-5	20.706132
168.061114	-3.002200	3.618000	-10.861000	21.203229	4.370179E-5	20.720609
169.063398	-3.003500	3.618100	-10.865000	21.227129	4.142514E-5	20.723181
170.061471	-3.019300	3.616700	-10.920000	21.237054	4.234900E-5	20.727420
171.060508	-3.012700	3.616300	-10.894000	21.234386	4.188707E-5	20.706732
172.064352	-3.009600	3.617900	-10.887000	21.222637	4.241499E-5	20.717265
173.061599	-3.020200	3.615900	-10.920000	21.244465	4.060027E-5	20.695003
174.061961	-3.014200	3.615900	-10.898000	21.252296	4.310788E-5	20.700941
175.061244	-3.029000	3.615700	-10.951000	21.245011	4.056727E-5	20.705507
176.064193	-2.970900	3.615100	-10.738000	21.247833	4.142514E-5	20.703589
177.064964	-3.000200	3.613700	-10.841000	21.264343	4.241499E-5	20.718684
178.063610	-2.993800	3.614700	-10.821000	21.260027	4.135915E-5	20.715314
179.064697	-3.001600	3.614200	-10.848000	21.240149	4.089722E-5	20.716765
180.063276	-2.997800	3.614300	-10.834000	21.257262	4.168910E-5	20.722506
181.064267	-3.022300	3.613300	-10.920000	21.255413	4.287692E-5	20.715914
182.064888	-2.987800	3.614400	-10.798000	21.273022	3.911549E-5	20.702235
183.063272	-3.013100	3.613100	-10.886000	21.294752	4.168910E-5	20.705956
184.064766	-2.997000	3.613000	-10.827000	21.269779	3.895052E-5	20.718432
185.064319	-3.019300	3.611700	-10.903000	21.290536	3.970940E-5	20.720232
186.065910	-2.980100	3.610900	-10.760000	21.288942	3.984138E-5	20.718637
187.071890	-2.992300	3.611700	-10.806000	21.296522	3.928047E-5	20.722901
188.065867	-2.973900	3.611500	-10.739000	21.299965	3.984138E-5	20.721130
189.065687	-3.002800	3.610000	-10.839000	21.292511	3.888453E-5	20.735011
190.066592	-3.007300	3.609300	-10.854000	21.303186	3.845560E-5	20.729568
191.068208	-3.004800	3.608600	-10.842000	21.295003	3.838961E-5	20.728968
192.071328	-2.992500	3.610200	-10.803000	21.311268	3.967641E-5	20.714420
193.066405	-2.997000	3.609300	-10.816000	21.329701	3.736676E-5	20.752778
194.069183	-2.981900	3.608400	-10.759000	21.321996	3.772971E-5	20.720886
195.069915	-3.014700	3.607400	-10.874000	21.325788	3.832362E-5	20.717092
196.070162	-2.994900	3.607800	-10.805000	21.312043	3.677285E-5	20.736059
197.069569	-2.980400	3.606600	-10.748000	21.333550	3.815864E-5	20.739558
198.069111	-3.008600	3.606100	-10.849000	21.333248	3.538707E-5	20.713651
199.069427	-2.984100	3.605900	-10.759000	21.346073	3.812565E-5	20.725060
200.070123	-2.995200	3.606500	-10.802000	21.354205	3.535407E-5	20.713755
201.069592	-2.989900	3.605000	-10.777000	21.344253	3.571702E-5	20.702848
202.072670	-2.988800	3.605900	-10.776000	21.345053	3.670686E-5	20.708865
203.069649	-3.028200	3.602900	-10.909000	21.358079	3.350636E-5	20.728537
204.070248	-3.017100	3.603800	-10.872000	21.379703	3.614595E-5	20.730732
205.071308	-3.022300	3.604400	-10.892000	21.371169	3.532108E-5	20.725512
206.069997	-3.003700	3.603500	-10.823000	21.367231	3.472717E-5	20.729633
207.073168	-2.995500	3.603200	-10.792000	21.384245	3.380331E-5	20.741440
208.075377	-2.999500	3.603600	-10.808000	21.363917	3.146067E-5	20.740542
209.072459	-3.010800	3.602400	-10.844000	21.394298	3.370433E-5	20.752447
210.074812	-2.990300	3.601500	-10.769000	21.384098	3.231854E-5	20.743190
211.073308	-2.986900	3.602400	-10.760000	21.399317	3.149367E-5	20.729492
212.071886	-2.987000	3.601100	-10.756000	21.397543	3.060280E-5	20.722976
213.075492	-2.976700	3.601300	-10.718000	21.402361	3.155966E-5	20.743919
214.072580	-2.990900	3.599500	-10.765000	21.401636	3.165864E-5	20.730390
215.071695	-2.971100	3.600200	-10.696000	21.403883	3.050382E-5	20.735958
216.073926	-2.976400	3.598900	-10.711000	21.398247	3.116372E-5	20.757346
217.073943	-2.973700	3.600300	-10.705000	21.414683	3.136169E-5	20.735383
218.074869	-2.979700	3.599400	-10.724000	21.425259	3.103174E-5	20.748337
219.072389	-2.970300	3.599900	-10.691000	21.414937	2.971194E-5	20.754605
220.072126	-2.996700	3.597400	-10.779000	21.417853	3.010788E-5	20.739978
221.076602	-3.001400	3.596500	-10.794000	21.431649	2.829316E-5	20.746670
222.074507	-2.988700	3.597600	-10.751000	21.447737	3.050382E-5	20.739058
223.074946	-2.988500	3.596600	-10.748000	21.431154	3.020686E-5	20.756132
224.076200	-3.009400	3.596600	-10.823000	21.431929	2.875509E-5	20.736518
225.074883	-2.993100	3.596100	-10.762000	21.442804	2.740229E-5	20.745028
226.075384	-2.994400	3.595700	-10.766000	21.465406	2.736930E-5	20.756265
227.072855	-2.973300	3.596900	-10.693000	21.461091	2.822717E-5	20.751473
228.074238	-2.987700	3.595400	-10.740000	21.444634	2.736930E-5	20.771517
229.077072	-3.008600	3.594800	-10.814000	21.446257	2.707234E-5	20.773141
230.076093	-2.985400	3.593200	-10.726000	21.465762	2.802920E-5	20.740498
231.075723	-3.024300	3.593200	-10.866000	21.457386	3.017387E-5	20.742549
232.076542	-3.013400	3.593300	-10.827000	21.467266	2.690737E-5	20.745323
233.076381	-3.007500	3.593600	-10.806000	21.458262	2.604950E-5	20.741529
234.080818	-3.004400	3.592200	-10.792000	21.482085	2.700635E-5	20.764893
235.080438	-3.015000	3.592300	-10.830000	21.495684	2.644544E-5	20.744834
236.075998	-3.012600	3.592300	-10.821000	21.491871	2.558757E-5	20.750028
237.078143	-3.030100	3.591000	-10.880000	21.512125	2.862311E-5	20.759390
238.077358	-3.022300	3.589500	-10.847000	21.517237	2.628047E-5	20.756918
239.079643	-3.005500	3.590900	-10.792000	21.515773	2.766625E-5	20.749288
240.077733	-3.009700	3.589700	-10.802000	21.483973	2.505965E-5	20.761092
241.078720	-2.983600	3.589600	-10.709000	21.523010	2.555458E-5	20.761272
242.084014	-3.025200	3.587900	-10.853000	21.530469	2.542260E-5	20.785332
243.078824	-2.988900	3.587700	-10.721000	21.520098	2.446575E-5	20.765945
244.081700	-2.984600	3.588100	-10.709000	21.526434	2.439976E-5	20.752370
245.079729	-2.992200	3.588100	-10.734000	21.516013	2.377285E-5	20.767073
246.079709	-2.993200	3.588400	-10.739000	21.535416	2.347590E-5	20.779376
247.078824	-3.003700	3.586300	-10.771000	21.544746	2.413580E-5	20.768323
248.080491	-3.002900	3.587000	-10.771000	21.537190	2.265102E-5	20.791108
249.084194	-3.007300	3.586300	-10.784000	21.545177	2.377285E-5	20.765909
250.085592	-3.001000	3.585500	-10.760000	21.534203	2.143021E-5	20.781956
251.082146	-2.977400	3.586200	-10.677000	21.548422	2.159519E-5	20.779588
252.085702	-3.008000	3.584500	-10.781000	21.581167	2.070432E-5	20.809510
253.084137	-2.981300	3.585600	-10.689000	21.560146	2.096828E-5	20.775673
254.084095	-2.983300	3.585900	-10.697000	21.562968	2.040737E-5	20.798411
255.087745	-3.007800	3.584700	-10.780000	21.577979	2.007742E-5	20.787829
256.084536	-3.006200	3.584200	-10.773000	21.573891	2.080331E-5	20.787531
257.084123	-2.985700	3.582500	-10.695000	21.583770	1.921955E-5	20.765173
258.084186	-2.993400	3.583400	-10.726000	21.584516	1.879062E-5	20.771610
259.085408	-3.012800	3.581500	-10.790000	21.581623	2.014341E-5	20.773457
260.087097	-3.020000	3.581700	-10.816000	21.595666	1.875762E-5	20.779448
261.084631	-3.002400	3.581600	-10.752000	21.628686	1.799874E-5	20.784517
262.085383	-2.988300	3.581000	-10.700000	21.598857	1.667894E-5	20.782168
263.084810	-2.998100	3.581200	-10.736000	21.610656	1.770178E-5	20.793975
264.084700	-3.016400	3.579700	-10.797000	21.613000	1.720686E-5	20.780673
265.084691	-3.004100	3.580400	-10.755000	21.624795	1.542513E-5	20.767821
266.086938	-3.011500	3.579200	-10.778000	21.626493	1.483122E-5	20.797495
267.086688	-3.017000	3.578800	-10.797000	21.623075	1.674493E-5	20.768945
268.085446	-3.020300	3.578200	-10.806000	21.638934	1.740483E-5	20.785763
269.085744	-3.016700	3.577700	-10.792000	21.652452	1.740483E-5	20.786489
270.086297	-3.000400	3.577600	-10.734000	21.637240	1.509518E-5	20.783120
271.089192	-2.989000	3.577300	-10.691000	21.641529	1.677793E-5	20.795947
272.085206	-3.001600	3.577900	-10.739000	21.643869	1.489721E-5	20.813462
273.085026	-3.017900	3.576300	-10.792000	21.644322	1.460026E-5	20.785939
274.085995	-2.992100	3.577800	-10.704000	21.668884	1.542513E-5	20.777329
275.086753	-3.020500	3.575100	-10.798000	21.651030	1.555711E-5	20.793601
276.087595	-2.995800	3.576100	-10.712000	21.670431	1.364341E-5	20.779826
277.090676	-2.995100	3.577500	-10.713000	21.679806	1.397336E-5	20.800114
278.088514	-3.018400	3.574000	-10.787000	21.670653	1.466625E-5	20.808023
279.092347	-2.994600	3.574200	-10.703000	21.695491	1.608503E-5	20.802535
280.087133	-3.010600	3.573900	-10.758000	21.678460	1.324747E-5	20.783120
281.087352	-3.004200	3.573800	-10.735000	21.687365	1.149874E-5	20.810049
282.091912	-3.014900	3.572300	-10.770000	21.680032	1.130077E-5	20.798443
283.088572	-3.018200	3.573000	-10.783000	21.696166	1.199366E-5	20.807477
284.089225	-3.005500	3.572500	-10.736000	21.698388	1.215863E-5	20.814442
285.089514	-2.997800	3.572400	-10.708000	21.697516	1.123478E-5	20.788439
286.089013	-2.989400	3.572400	-10.679000	21.721230	1.113579E-5	20.804586
287.090826	-2.994900	3.572500	-10.699000	21.709360	1.014594E-5	20.782750
288.091456	-3.003000	3.572100	-10.726000	21.705796	1.225762E-5	20.805735
289.089863	-3.008900	3.569800	-10.740000	21.733476	1.199366E-5	20.803566
290.094338	-3.025000	3.569000	-10.796000	21.722156	1.113579E-5	20.796504
291.091612	-2.986700	3.570700	-10.664000	21.715875	9.255080E-6	20.812503
292.090788	-2.994000	3.568200	-10.682000	21.730734	1.004696E-5	20.801770
293.094536	-3.005200	3.568600	-10.723000	21.750309	1.130077E-5	20.810929
294.092689	-3.003100	3.568000	-10.715000	21.732705	1.007995E-5	20.800423
295.093926	-3.039300	3.565800	-10.837000	21.745399	9.947974E-6	20.802697
296.092430	-3.002100	3.566200	-10.705000	21.747470	1.050889E-5	20.810459
297.092813	-3.000300	3.568100	-10.704000	21.761561	9.057110E-6	20.825984
298.095757	-2.999700	3.567100	-10.699000	21.764953	1.040990E-5	20.807567
299.093714	-2.993900	3.566200	-10.676000	21.759494	7.869293E-6	20.812535
300.093695	-3.009000	3.565600	-10.727000	21.758819	9.222085E-6	20.816601
301.094376	-3.001500	3.565100	-10.700000	21.781240	7.869293E-6	20.818653
302.095223	-3.017100	3.564800	-10.755000	21.787697	6.747465E-6	20.813261
303.096545	-2.988900	3.565500	-10.656000	21.778121	8.463202E-6	20.811738
304.096014	-2.986100	3.562600	-10.638000	21.805799	5.427667E-6	20.810517
305.094095	-2.978900	3.564900	-10.618000	21.797875	5.394672E-6	20.814913
306.097835	-3.016200	3.563800	-10.749000	21.817646	7.407364E-6	20.825693
307.095050	-2.972700	3.562600	-10.589000	21.791964	9.486045E-6	20.805678
308.102296	-3.008200	3.562800	-10.717000	21.801191	6.549495E-6	20.815387
309.098124	-2.996600	3.563800	-10.678000	21.797473	5.196703E-6	20.814511
310.099483	-3.001400	3.562200	-10.690000	21.818921	4.635789E-6	20.815115
311.100946	-3.001500	3.562100	-10.691000	21.822560	6.384520E-6	20.823972
312.098888	-2.995400	3.561800	-10.668000	21.827096	5.328682E-6	20.805754
313.099000	-2.988100	3.562600	-10.645000	21.823084	4.305839E-6	20.831609
314.101375	-3.023400	3.559600	-10.761000	21.839266	3.348986E-6	20.835952
315.098594	-2.995200	3.559900	-10.662000	21.859560	4.536804E-6	20.832083
316.097998	-3.011200	3.559500	-10.717000	21.843131	5.163708E-6	20.809001
317.099690	-3.000500	3.559600	-10.680000	21.842209	3.447971E-6	20.826569
318.100847	-3.007300	3.559800	-10.704000	21.836025	3.414976E-6	20.824648
319.103023	-2.993500	3.557900	-10.649000	21.867639	3.480966E-6	20.834479
320.100787	-3.003500	3.558500	-10.687000	21.861782	1.402285E-6	20.818186
321.101224	-3.019000	3.556900	-10.737000	21.856693	3.184012E-6	20.823523
322.100744	-3.006700	3.556900	-10.694000	21.878861	3.282996E-6	20.828168
323.102258	-2.993300	3.557300	-10.646000	21.888058	2.623098E-6	20.825046
324.102885	-3.007600	3.555500	-10.693000	21.875868	1.633249E-6	20.821379
325.101538	-3.009900	3.556100	-10.702000	21.874325	1.303300E-6	20.832162
326.101851	-2.997300	3.556300	-10.658000	21.862478	-1.154823E-7	20.833107
327.101526	-3.004500	3.555200	-10.680000	21.908327	1.303300E-6	20.823049
328.101120	-2.996800	3.556400	-10.657000	21.896463	1.649747E-8	20.834407
329.102712	-2.997200	3.555600	-10.656000	21.916179	-1.435280E-6	20.842288
330.103331	-3.007100	3.554800	-10.689000	21.881003	-2.326143E-6	20.839321
331.102394	-3.002100	3.554000	-10.669000	21.898304	1.649747E-8	20.834827
332.104574	-2.968900	3.554600	-10.553000	21.915181	-2.293148E-6	20.843660
333.103339	-3.021700	3.552000	-10.732000	21.919620	-1.649747E-8	20.853319
334.103947	-3.018300	3.552300	-10.721000	21.919943	-2.623098E-6	20.838944
335.104019	-2.996600	3.552300	-10.644000	21.935679	-3.744926E-6	20.846160
336.103939	-2.996700	3.552900	-10.646000	21.921838	-1.963199E-6	20.852219
337.104053	-3.024900	3.550500	-10.739000	21.950636	-2.128174E-6	20.834579
338.104380	-3.002200	3.549600	-10.655000	21.941636	-3.118022E-6	20.854967
339.106500	-2.975700	3.551200	-10.566000	21.951357	-2.755077E-6	20.854267
340.109635	-2.988900	3.550700	-10.612000	21.958739	-3.546956E-6	20.831311
341.105987	-2.972800	3.551300	-10.556000	21.952954	-3.513961E-6	20.844960
342.106128	-3.000600	3.549700	-10.650000	21.955972	-5.262693E-6	20.842291
343.105866	-2.997000	3.549800	-10.637000	21.954170	-6.813455E-6	20.847600
344.105970	-2.996200	3.549100	-10.632000	21.965941	-5.229698E-6	20.852744
345.108530	-2.977600	3.549800	-10.569000	21.971356	-5.394673E-6	20.842992
346.106693	-2.997400	3.548900	-10.636000	21.970408	-6.318531E-6	20.854845
347.107438	-2.993700	3.547400	-10.619000	21.966246	-4.437819E-6	20.842618
348.108450	-2.979000	3.548100	-10.569000	21.996331	-5.922592E-6	20.849500
349.108544	-2.987900	3.548100	-10.600000	22.006130	-7.143404E-6	20.834181
350.109210	-3.015100	3.545800	-10.691000	21.985738	-5.064723E-6	20.854069
351.107884	-2.994200	3.546600	-10.618000	22.008352	-5.757617E-6	20.890455
352.107203	-2.995300	3.546800	-10.623000	22.026874	-5.856602E-6	20.862058
353.111959	-2.997100	3.545300	-10.625000	22.000224	-6.978430E-6	20.864303
354.108968	-2.983300	3.547100	-10.581000	21.998229	-8.265232E-6	20.854245
355.110697	-2.995900	3.544100	-10.617000	22.021434	-6.087566E-6	20.850923
356.112411	-2.985900	3.545100	-10.584000	22.040359	-9.354065E-6	20.867970
357.110908	-2.996200	3.545000	-10.621000	22.006507	-8.496197E-6	20.870118
358.111835	-2.972100	3.545200	-10.535000	22.030710	-7.539344E-6	20.860682
359.112170	-2.988500	3.543300	-10.588000	22.012812	-9.024116E-6	20.856990
360.111367	-3.011700	3.542200	-10.667000	22.055867	-8.067263E-6	20.861684
361.114174	-3.012900	3.542000	-10.671000	22.027994	-8.496197E-6	20.863652
362.110849	-2.987500	3.542200	-10.581000	22.055293	-8.133253E-6	20.863006
363.111773	-3.005100	3.541800	-10.643000	22.051525	-8.628177E-6	20.864450
364.111640	-2.995600	3.541100	-10.607000	22.053423	-1.050889E-5	20.857342
365.111812	-2.997500	3.540500	-10.612000	22.056340	-7.902288E-6	20.859788
366.112632	-3.034700	3.537900	-10.736000	22.051252	-9.618025E-6	20.866073
367.111074	-3.000600	3.540200	-10.622000	22.055515	-8.925131E-6	20.858961
368.113409	-3.014700	3.540400	-10.672000	22.082239	-9.024116E-6	20.865326
369.112203	-3.033200	3.539000	-10.733000	22.082211	-9.189091E-6	20.867194
370.115542	-2.992900	3.538900	-10.590000	22.092760	-1.186168E-5	20.866375
371.111760	-3.004500	3.538200	-10.629000	22.081242	-1.027792E-5	20.869543
372.112295	-3.018400	3.536800	-10.675000	22.082315	-1.001396E-5	20.862083
373.118007	-3.017400	3.537500	-10.673000	22.103875	-1.037691E-5	20.860434
374.114147	-3.011300	3.537000	-10.650000	22.115342	-7.407364E-6	20.849156
375.113824	-2.983000	3.537000	-10.550000	22.092860	-1.100381E-5	20.851778
376.116150	-2.984200	3.537300	-10.555000	22.114994	-1.196067E-5	20.862557
377.114062	-3.004800	3.537200	-10.627000	22.116017	-1.133376E-5	20.870218
378.114595	-2.981200	3.536800	-10.543000	22.107546	-1.149874E-5	20.856049
379.114058	-3.010700	3.535100	-10.642000	22.104822	-1.024493E-5	20.859486
380.113325	-2.990000	3.535800	-10.571000	22.116017	-1.232361E-5	20.856469
381.116082	-2.988400	3.534500	-10.562000	22.122023	-1.024493E-5	20.845887
382.113720	-2.994600	3.533900	-10.581000	22.129630	-1.080584E-5	20.853028
383.114676	-2.998200	3.532700	-10.590000	22.129177	-1.331346E-5	20.859213
384.115228	-3.014200	3.533100	-10.648000	22.146726	-1.225762E-5	20.852126
385.115132	-2.985500	3.533000	-10.547000	22.140770	-1.097082E-5	20.876034
386.116297	-2.986200	3.533800	-10.551000	22.138599	-1.242259E-5	20.851102
387.117577	-3.006400	3.531500	-10.616000	22.139148	-1.314848E-5	20.852600
388.116498	-3.006100	3.531700	-10.615000	22.139819	-1.337945E-5	20.854694
389.114907	-2.977800	3.531900	-10.516000	22.151960	-1.262056E-5	20.846936
390.116608	-3.008200	3.531900	-10.623000	22.155774	-1.440229E-5	20.838427
391.119084	-2.992500	3.531200	-10.566000	22.163650	-1.202666E-5	20.839673
392.116414	-3.011600	3.529800	-10.630000	22.166222	-1.318148E-5	20.841300
393.116817	-2.994800	3.530100	-10.571000	22.161285	-1.427031E-5	20.852478
394.116663	-2.993000	3.530000	-10.564000	22.175095	-1.417133E-5	20.865829
395.117042	-3.002100	3.530300	-10.598000	22.175618	-1.446828E-5	20.847389
396.119864	-3.000300	3.530000	-10.589000	22.164676	-1.420432E-5	20.839278
397.116617	-2.998100	3.529300	-10.580000	22.188556	-1.634899E-5	20.827152
398.115887	-3.005400	3.527800	-10.601000	22.193145	-1.555711E-5	20.844073
399.118837	-2.976400	3.529000	-10.502000	22.192072	-1.413833E-5	20.841577
400.116166	-3.010600	3.527000	-10.617000	22.209569	-1.592006E-5	20.818793
401.116893	-3.006100	3.525400	-10.597000	22.194888	-1.539214E-5	20.846293
402.119270	-3.009700	3.526700	-10.613000	22.203735	-1.592006E-5	20.846142
403.119511	-3.004500	3.526300	-10.594000	22.196837	-1.502920E-5	20.811735
404.118422	-3.009900	3.527000	-10.614000	22.217649	-1.601904E-5	20.843003
405.118466	-3.049600	3.524500	-10.747000	22.214384	-1.657996E-5	20.832148
406.118374	-2.991700	3.527100	-10.551000	22.222657	-1.684392E-5	20.825733
407.123769	-3.003900	3.525500	-10.588000	22.231357	-1.723986E-5	20.833021
408.120543	-2.986800	3.524900	-10.527000	22.207076	-1.674493E-5	20.843323
409.120263	-2.976600	3.525100	-10.492000	22.225498	-1.783377E-5	20.825733
410.120118	-2.990000	3.524200	-10.536000	22.227590	-1.601904E-5	20.826879
411.120352	-2.964100	3.525000	-10.448000	22.236587	-1.710788E-5	20.819766
412.121592	-2.996700	3.524800	-10.562000	22.248401	-1.895559E-5	20.848664
413.122202	-2.997300	3.522300	-10.557000	22.249348	-1.912057E-5	20.831121
414.120454	-2.982100	3.523200	-10.506000	22.245632	-1.773478E-5	20.840675
415.123126	-2.993700	3.522300	-10.544000	22.258916	-1.997844E-5	20.837381
416.122338	-2.981800	3.523200	-10.503000	22.265244	-1.978047E-5	20.821433
417.121604	-3.019000	3.521000	-10.629000	22.248548	-1.974747E-5	20.827475
418.123314	-2.985000	3.523000	-10.515000	22.255103	-1.945052E-5	20.823132
419.122231	-2.986700	3.521600	-10.517000	22.254877	-1.925255E-5	20.827173
420.123806	-3.002300	3.520800	-10.568000	22.260706	-1.902158E-5	20.815941
421.123545	-3.007800	3.520300	-10.588000	22.272997	-2.096828E-5	20.831092
422.123637	-3.005700	3.519400	-10.577000	22.272444	-2.195813E-5	20.837651
423.127728	-2.983000	3.519800	-10.499000	22.284803	-2.077032E-5	20.834378
424.123422	-2.998500	3.519700	-10.553000	22.282636	-2.162818E-5	20.826993
425.123384	-2.990100	3.519100	-10.521000	22.291684	-2.294798E-5	20.840794
426.125133	-3.007000	3.519200	-10.581000	22.297689	-2.212311E-5	20.830686
427.123466	-2.987800	3.517700	-10.509000	22.284782	-2.086930E-5	20.819658
428.123475	-2.983800	3.517300	-10.494000	22.274661	-2.222209E-5	20.807155
429.127800	-3.001200	3.516900	-10.554000	22.316630	-2.364088E-5	20.822151
430.124931	-3.019800	3.515600	-10.616000	22.314560	-2.324494E-5	20.832880
431.127484	-3.001500	3.514800	-10.548000	22.328816	-2.476270E-5	20.805905
432.123725	-2.997500	3.516800	-10.541000	22.304118	-2.430077E-5	20.823847
433.125259	-2.978700	3.516500	-10.473000	22.312343	-2.337692E-5	20.805531
434.128159	-2.985300	3.515500	-10.494000	22.310299	-2.251905E-5	20.818656
435.125314	-3.000600	3.515300	-10.547000	22.319342	-2.453174E-5	20.806849
436.125005	-2.989100	3.515800	-10.508000	22.325046	-2.397082E-5	20.816354
437.126384	-2.992400	3.515000	-10.518000	22.325817	-2.552159E-5	20.822341
438.126347	-3.005600	3.513900	-10.561000	22.362952	-2.637946E-5	20.797413
439.126215	-2.992000	3.514800	-10.515000	22.343337	-2.667641E-5	20.810962
440.126231	-2.987700	3.513400	-10.496000	22.330405	-2.529062E-5	20.807970
441.124205	-3.005600	3.513300	-10.558000	22.351609	-2.595052E-5	20.787477
442.128384	-2.988600	3.512000	-10.495000	22.357091	-2.555458E-5	20.799604
443.125297	-3.006900	3.512500	-10.560000	22.354572	-2.703935E-5	20.808462
444.125891	-3.022800	3.511500	-10.614000	22.343753	-2.555458E-5	20.816120
445.127732	-3.015500	3.511000	-10.586000	22.350160	-2.631347E-5	20.815423
446.127320	-2.998600	3.511700	-10.529000	22.359031	-2.977793E-5	20.802021
447.131789	-2.994700	3.511500	-10.514000	22.359426	-2.532362E-5	20.796252
448.128772	-3.003900	3.510800	-10.545000	22.387513	-2.608250E-5	20.816317
449.131134	-2.990900	3.510200	-10.498000	22.356983	-3.004189E-5	20.803763
450.130781	-2.981300	3.509300	-10.461000	22.369689	-2.746829E-5	20.799891
451.129667	-3.002100	3.509500	-10.535000	22.385192	-2.670941E-5	20.783648
452.131615	-3.038400	3.508600	-10.660000	22.380626	-2.835915E-5	20.789032
453.129722	-3.008900	3.509100	-10.558000	22.388973	-2.948098E-5	20.793123
454.135614	-3.005700	3.508400	-10.544000	22.384234	-2.878809E-5	20.802603
455.130751	-2.986300	3.508300	-10.476000	22.391362	-2.865611E-5	20.821594
456.131855	-3.011700	3.507400	-10.563000	22.370503	-2.984392E-5	20.810189
457.135425	-2.975400	3.507400	-10.435000	22.401154	-2.931601E-5	20.808641
458.131319	-3.011000	3.507600	-10.560000	22.414735	-3.020687E-5	20.782886
459.134914	-2.998200	3.506200	-10.511000	22.410499	-3.037184E-5	20.792868
460.133397	-2.985100	3.506400	-10.467000	22.408476	-2.905205E-5	20.792739
461.132696	-3.008900	3.505400	-10.547000	22.404989	-2.892007E-5	20.796360
462.131727	-2.999100	3.504100	-10.509000	22.403791	-3.020687E-5	20.795160
463.132296	-2.995500	3.504100	-10.495000	22.408476	-3.010788E-5	20.789420
464.134847	-2.997300	3.505500	-10.506000	22.414606	-2.938200E-5	20.796033
465.132668	-3.011100	3.504900	-10.552000	22.423075	-2.954697E-5	20.786022
466.137492	-3.000800	3.504600	-10.515000	22.421256	-3.070179E-5	20.793210
467.134803	-3.003500	3.502800	-10.520000	22.436981	-2.951398E-5	20.773870
468.134934	-3.006200	3.503800	-10.532000	22.441687	-3.109773E-5	20.795652
469.138608	-2.998100	3.503900	-10.504000	22.451580	-3.179063E-5	20.793705
470.137208	-3.019700	3.503100	-10.577000	22.443778	-2.987692E-5	20.805333
471.139696	-2.998300	3.502300	-10.500000	22.436153	-3.126271E-5	20.781575
472.138347	-3.001100	3.502300	-10.509000	22.461993	-3.010788E-5	20.780899
473.138918	-3.003000	3.502400	-10.517000	22.448036	-3.093276E-5	20.785889
474.138969	-3.014800	3.501300	-10.555000	22.463539	-3.188961E-5	20.785767
475.138491	-2.994100	3.501700	-10.483000	22.481778	-3.172464E-5	20.777006
476.138707	-3.020100	3.499900	-10.569000	22.464507	-3.047083E-5	20.796694
477.137790	-3.010800	3.499000	-10.533000	22.490049	-3.066880E-5	20.766797
478.139583	-2.962300	3.499800	-10.366000	22.478610	-3.179063E-5	20.797542
479.143118	-2.961700	3.501600	-10.370000	22.469263	-3.070179E-5	20.757834
480.140911	-2.973700	3.501100	-10.410000	22.478481	-3.149367E-5	20.765169
481.143074	-3.008900	3.498500	-10.525000	22.491268	-3.146068E-5	20.780820
482.144147	-2.995200	3.499200	-10.481000	22.492294	-3.324240E-5	20.759562
483.144922	-3.018800	3.497500	-10.557000	22.482545	-3.383631E-5	20.790102
484.147142	-3.023800	3.496200	-10.571000	22.497495	-3.149367E-5	20.766193
485.147973	-3.014800	3.496600	-10.540000	22.481444	-3.248352E-5	20.769085
486.145499	-3.033000	3.496900	-10.605000	22.490691	-3.251652E-5	20.776923
487.148213	-2.992500	3.497500	-10.466000	22.508459	-3.423225E-5	20.794244
488.146405	-3.029500	3.495700	-10.589000	22.490762	-3.410027E-5	20.779366
489.147070	-3.014500	3.495800	-10.537000	22.503248	-3.456220E-5	20.775748
490.147754	-3.014500	3.495900	-10.538000	22.500956	-3.334139E-5	20.764444
491.146868	-3.016500	3.493600	-10.538000	22.536762	-3.452921E-5	20.782760
492.147330	-2.997300	3.494400	-10.473000	22.524951	-3.499114E-5	20.779940
493.146945	-2.980500	3.495300	-10.417000	22.526522	-3.466119E-5	20.773453
494.146878	-2.988800	3.493800	-10.441000	22.536837	-3.548606E-5	20.769085
495.152094	-2.998800	3.494800	-10.479000	22.525077	-3.581601E-5	20.769160
496.148101	-2.990700	3.494200	-10.449000	22.540474	-3.568403E-5	20.767511
497.149528	-3.016500	3.494600	-10.541000	22.526644	-3.584900E-5	20.767411
498.150183	-3.001700	3.493400	-10.486000	22.535564	-3.571703E-5	20.775396
499.149852	-2.993300	3.494400	-10.459000	22.531977	-3.670687E-5	20.766114
500.149600	-2.997400	3.492400	-10.467000	22.541718	-3.776271E-5	20.774922
501.151215	-3.018800	3.493100	-10.544000	22.537910	-3.598098E-5	20.765891
502.148172	-2.992900	3.493600	-10.454000	22.544261	-3.815865E-5	20.768460
503.151912	-3.020000	3.491200	-10.542000	22.533351	-3.819165E-5	20.769387
504.148993	-3.016600	3.492300	-10.534000	22.575984	-3.802667E-5	20.771308
505.149864	-2.993000	3.491300	-10.449000	22.551790	-3.584900E-5	20.749446
506.152857	-2.991200	3.491000	-10.442000	22.567413	-3.769672E-5	20.771732
507.149662	-3.002000	3.490900	-10.479000	22.565992	-3.690484E-5	20.755136
508.149374	-3.019200	3.489100	-10.534000	22.573743	-3.970941E-5	20.774279
509.149387	-3.002800	3.489200	-10.477000	22.587848	-3.822464E-5	20.745258
510.149342	-2.989100	3.489800	-10.431000	22.565673	-3.924748E-5	20.765248
511.152464	-3.008600	3.488600	-10.495000	22.590517	-4.119419E-5	20.755043
512.151052	-2.998900	3.487800	-10.459000	22.584140	-3.898352E-5	20.768571
513.150160	-2.994200	3.489400	-10.447000	22.594627	-3.980840E-5	20.756315
514.153313	-3.011400	3.487400	-10.501000	22.594652	-4.096322E-5	20.763927
515.151888	-3.018400	3.488100	-10.528000	22.606566	-4.106221E-5	20.763531
516.151754	-3.015800	3.487100	-10.515000	22.598091	-4.257997E-5	20.750301
517.152926	-2.996700	3.486700	-10.448000	22.623931	-4.116119E-5	20.747733
518.151347	-3.012800	3.486300	-10.502000	22.612796	-3.947845E-5	20.762184
519.151867	-2.985700	3.487100	-10.410000	22.610827	-4.162312E-5	20.748358
520.153142	-2.997200	3.487300	-10.451000	22.637760	-4.178810E-5	20.756369
521.152643	-2.994700	3.486200	-10.439000	22.630509	-4.225002E-5	20.772339
522.155938	-2.966100	3.487800	-10.344000	22.619125	-4.264596E-5	20.742445
523.153925	-3.009900	3.484500	-10.487000	22.609435	-4.459267E-5	20.757870
524.154683	-3.015000	3.484700	-10.506000	22.638015	-4.185409E-5	20.759469
525.154971	-3.000500	3.483600	-10.452000	22.626503	-4.376779E-5	20.754102
526.154760	-3.022200	3.484100	-10.528000	22.626506	-4.455967E-5	20.745570
527.158203	-2.991900	3.483600	-10.422000	22.632807	-4.337185E-5	20.735286
528.154320	-2.981900	3.484700	-10.389000	22.646016	-4.677033E-5	20.748516
529.154049	-3.015000	3.481600	-10.496000	22.639241	-4.403175E-5	20.744101
530.156875	-3.010300	3.483100	-10.484000	22.637549	-4.545053E-5	20.737190
531.154428	-2.992900	3.483100	-10.423000	22.653249	-4.581348E-5	20.767142
532.156761	-2.983900	3.481900	-10.388000	22.642860	-4.297591E-5	20.741087
533.157497	-2.990200	3.482800	-10.413000	22.659525	-4.380079E-5	20.715579
534.157006	-2.992000	3.482500	-10.419000	22.640669	-4.630840E-5	20.747428
535.159445	-3.015900	3.481100	-10.497000	22.660002	-4.505460E-5	20.740240
536.157607	-2.983000	3.481700	-10.384000	22.672457	-4.647338E-5	20.739439
537.158243	-3.015000	3.480000	-10.490000	22.670194	-4.686932E-5	20.746655
538.160240	-2.996300	3.480600	-10.428000	22.669721	-4.696830E-5	20.741439
539.157632	-3.008000	3.478800	-10.463000	22.687315	-4.518657E-5	20.751950
540.157836	-3.021000	3.478900	-10.509000	22.682158	-4.597845E-5	20.737301
541.160003	-3.006300	3.478600	-10.457000	22.681810	-4.871703E-5	20.722253
542.159680	-3.008000	3.478400	-10.462000	22.703115	-4.772719E-5	20.749285
543.163108	-3.009500	3.477700	-10.465000	22.695021	-4.581348E-5	20.730271
544.160564	-2.994300	3.478700	-10.416000	22.684829	-4.809013E-5	20.743771
545.160546	-3.008900	3.478000	-10.464000	22.702645	-4.845307E-5	20.734115
546.160131	-2.989600	3.478400	-10.399000	22.693053	-4.677033E-5	20.728299
547.159986	-2.987600	3.477000	-10.387000	22.717101	-4.894800E-5	20.749544
548.162437	-2.967300	3.478100	-10.320000	22.708082	-4.766120E-5	20.747622
549.163165	-3.002600	3.476200	-10.436000	22.734841	-4.789216E-5	20.743606
550.159675	-3.026300	3.474500	-10.513000	22.706734	-4.875003E-5	20.722562
551.164783	-2.996100	3.475600	-10.412000	22.727669	-4.805714E-5	20.743534
552.161540	-3.009600	3.476300	-10.460000	22.701756	-4.904698E-5	20.728008
553.161834	-2.979400	3.475900	-10.356000	22.744487	-4.858505E-5	20.732880
554.165209	-2.999200	3.475300	-10.422000	22.702685	-4.769419E-5	20.727042
555.160403	-3.023900	3.475500	-10.508000	22.726826	-4.799115E-5	20.743164
556.161994	-3.000800	3.474900	-10.426000	22.740729	-5.181856E-5	20.731012
557.163302	-2.998200	3.474900	-10.417000	22.732711	-4.871703E-5	20.743369
558.163181	-3.002100	3.473700	-10.428000	22.738660	-4.940993E-5	20.720878
559.163811	-3.007000	3.472100	-10.440000	22.726306	-5.043277E-5	20.724625
560.164472	-2.996800	3.473100	-10.407000	22.752369	-4.937693E-5	20.712799
561.164327	-2.997800	3.473800	-10.413000	22.754937	-5.003683E-5	20.728174
562.166333	-2.986900	3.472500	-10.372000	22.749978	-5.096069E-5	20.734586
563.164165	-2.990100	3.472100	-10.381000	22.755486	-5.010282E-5	20.731094
564.165843	-2.992900	3.472000	-10.391000	22.743903	-5.191754E-5	20.723285
565.168731	-3.002800	3.472400	-10.426000	22.760319	-5.013582E-5	20.726453
566.165932	-3.007900	3.471300	-10.440000	22.766096	-5.251145E-5	20.714221
567.168190	-3.006600	3.471300	-10.436000	22.746299	-5.119166E-5	20.709088
568.167788	-2.982400	3.471800	-10.354000	22.757605	-5.294039E-5	20.741279
569.169042	-3.024600	3.470900	-10.498000	22.755314	-5.195054E-5	20.717171
570.170942	-3.002800	3.469700	-10.418000	22.779407	-5.303937E-5	20.704795
571.168301	-2.999700	3.469600	-10.407000	22.774975	-5.201653E-5	20.727858
572.168556	-3.014300	3.468600	-10.454000	22.769220	-5.373227E-5	20.706444
573.168894	-2.996100	3.468700	-10.391000	22.778142	-5.198353E-5	20.701156
574.168602	-3.025100	3.468000	-10.490000	22.805598	-5.195054E-5	20.720602
575.172167	-3.017100	3.468900	-10.465000	22.789351	-5.541501E-5	20.717128
576.169674	-3.007800	3.469000	-10.433000	22.776026	-5.307237E-5	20.720375
577.168914	-3.018900	3.467900	-10.468000	22.806394	-5.340232E-5	20.731831
578.170320	-2.992000	3.468500	-10.377000	22.791725	-5.356729E-5	20.714290
579.169919	-2.993000	3.469000	-10.382000	22.792546	-5.531602E-5	20.721277
580.174506	-3.010800	3.467200	-10.438000	22.796186	-5.709775E-5	20.711646
581.169038	-2.999700	3.467100	-10.400000	22.802540	-5.439217E-5	20.722754
582.169680	-2.988100	3.466500	-10.357000	22.799800	-5.647085E-5	20.711000
583.175270	-3.016900	3.465800	-10.455000	22.825908	-5.518404E-5	20.718662
584.171891	-3.007400	3.465200	-10.420000	22.824588	-5.653684E-5	20.724927
585.175523	-3.021200	3.465300	-10.469000	22.811013	-5.765867E-5	20.708482
586.171561	-3.009600	3.466500	-10.431000	22.828454	-5.571196E-5	20.717894
587.172339	-3.001500	3.464300	-10.396000	22.816894	-5.911044E-5	20.718641
588.173015	-2.982200	3.466200	-10.336000	22.835055	-5.647085E-5	20.730671
589.174661	-3.012800	3.464000	-10.435000	22.847311	-5.716374E-5	20.733466
590.174805	-3.018600	3.464500	-10.457000	22.839914	-5.934141E-5	20.720365
591.174758	-3.002900	3.463800	-10.400000	22.829652	-6.000131E-5	20.710084
592.175307	-3.016000	3.464100	-10.447000	22.840785	-5.716374E-5	20.710806
593.176289	-3.017300	3.464000	-10.450000	22.834410	-5.828557E-5	20.718644
594.175426	-2.994400	3.462500	-10.367000	22.828906	-5.749369E-5	20.695585
595.176507	-3.031100	3.461800	-10.492000	22.827088	-5.960537E-5	20.719370
596.177076	-3.002800	3.462200	-10.395000	22.844278	-5.838455E-5	20.724737
597.175671	-3.006900	3.461600	-10.407000	22.862310	-5.977034E-5	20.705816
598.175988	-2.987000	3.462900	-10.343000	22.855361	-5.930841E-5	20.704545
599.174360	-3.014000	3.460600	-10.429000	22.866820	-6.029826E-5	20.729777
600.175489	-3.001600	3.461000	-10.388000	22.876311	-6.066121E-5	20.712731
601.177979	-3.004400	3.460900	-10.397000	22.890259	-6.138710E-5	20.707264
602.176287	-3.005600	3.462200	-10.405000	22.875938	-5.973735E-5	20.706193
603.176237	-3.009900	3.462400	-10.420000	22.874565	-6.237694E-5	20.716672
604.177598	-3.011900	3.459700	-10.420000	22.862532	-6.112314E-5	20.715523
605.177078	-2.992200	3.459700	-10.352000	22.886992	-6.287187E-5	20.716320
606.179145	-3.007600	3.459500	-10.403000	22.868236	-6.425766E-5	20.697529
607.177270	-2.990600	3.458200	-10.341000	22.900965	-6.175004E-5	20.708032
608.177196	-2.986600	3.459700	-10.332000	22.901564	-6.204699E-5	20.704365
609.177734	-2.987800	3.458800	-10.333000	22.879717	-6.478558E-5	20.700496
610.177091	-2.986100	3.458600	-10.327000	22.884920	-6.290486E-5	20.717563
611.179415	-3.013300	3.458300	-10.420000	22.893736	-6.412568E-5	20.687038
612.178814	-3.013300	3.457000	-10.416000	22.902230	-6.211298E-5	20.715939
613.178384	-2.990200	3.457900	-10.340000	22.894654	-6.405969E-5	20.699813
614.180007	-3.006300	3.456900	-10.391000	22.911495	-6.429065E-5	20.703883
615.177948	-2.997700	3.457000	-10.361000	22.931046	-6.699624E-5	20.700711
616.178070	-3.008300	3.456800	-10.398000	22.892711	-6.399370E-5	20.710195
617.178370	-3.017200	3.456700	-10.429000	22.893507	-6.353177E-5	20.719528
618.180870	-3.015100	3.456200	-10.420000	22.914327	-6.389471E-5	20.692969
619.181574	-3.005500	3.455700	-10.385000	22.925962	-6.729319E-5	20.718378
620.181338	-3.015600	3.453400	-10.413000	22.924668	-6.557745E-5	20.698588
621.181214	-2.969400	3.455300	-10.259000	22.915618	-6.488456E-5	20.680985
622.186969	-3.006100	3.454900	-10.385000	22.951414	-6.580842E-5	20.714954
623.181344	-3.004900	3.454100	-10.378000	22.920551	-6.465360E-5	20.711060
624.181337	-2.998600	3.454500	-10.358000	22.913926	-6.521451E-5	20.709638
625.185232	-2.982500	3.453800	-10.300000	22.948721	-6.739218E-5	20.701824
626.182342	-3.011100	3.452300	-10.395000	22.946255	-6.854700E-5	20.715949
627.184673	-2.999300	3.453600	-10.357000	22.941372	-6.927289E-5	20.711057
628.185566	-3.017000	3.452200	-10.414000	22.951959	-6.726020E-5	20.695110
629.183891	-3.041400	3.451400	-10.497000	22.951737	-6.834903E-5	20.697258
630.186762	-2.990700	3.452500	-10.325000	22.953379	-6.811807E-5	20.735416
631.183891	-3.005400	3.450700	-10.370000	22.967325	-7.019675E-5	20.711455
632.185121	-2.996400	3.451500	-10.341000	22.960872	-6.788710E-5	20.732492
633.188946	-3.003900	3.451000	-10.365000	22.959653	-6.914091E-5	20.703294
634.185348	-2.988800	3.449700	-10.310000	22.985908	-6.732619E-5	20.711581
635.185338	-2.986900	3.450900	-10.306000	22.969369	-6.930588E-5	20.718719
636.187716	-2.994700	3.451600	-10.336000	22.956960	-6.973482E-5	20.734263
637.186790	-3.002300	3.449900	-10.357000	22.967845	-6.999878E-5	20.707708
638.187885	-3.004500	3.450400	-10.366000	22.977884	-6.953685E-5	20.716344
639.186869	-2.988400	3.449600	-10.307000	22.984387	-6.894294E-5	20.714326
640.187223	-2.993900	3.448000	-10.323000	22.993945	-6.986680E-5	20.721057
641.189920	-2.994500	3.449500	-10.328000	22.983362	-7.178051E-5	20.710453
642.187646	-3.012700	3.448000	-10.387000	22.981817	-7.178051E-5	20.723604
643.188359	-3.009300	3.448200	-10.376000	22.975317	-6.956984E-5	20.719937
644.189620	-3.048800	3.446200	-10.506000	23.002639	-6.970182E-5	20.703214
645.187875	-3.010100	3.447100	-10.375000	22.993024	-7.006477E-5	20.706383
646.187671	-3.023400	3.446500	-10.418000	23.010509	-7.055969E-5	20.699245
647.188045	-2.990000	3.447200	-10.306000	23.005002	-7.079066E-5	20.728817
648.187448	-3.027500	3.445600	-10.430000	22.994067	-6.920690E-5	20.707902
649.190439	-3.021600	3.445900	-10.411000	23.009161	-6.980081E-5	20.731087
650.188162	-3.021700	3.445200	-10.409000	23.019102	-7.026274E-5	20.721133
651.188501	-3.007100	3.447200	-10.365000	23.010932	-7.145056E-5	20.709152
652.188770	-3.010400	3.445300	-10.370000	23.029538	-6.970182E-5	20.698397
653.188954	-3.004900	3.445300	-10.351000	23.031453	-7.273736E-5	20.705057
654.192986	-2.997500	3.445300	-10.326000	23.034468	-7.184650E-5	20.731788
655.189686	-3.021700	3.445100	-10.410000	23.026624	-7.214345E-5	20.729618
656.191094	-2.974700	3.446100	-10.249000	23.042043	-7.148355E-5	20.717092
657.191208	-3.003600	3.444900	-10.346000	23.038504	-7.333127E-5	20.705011
658.192362	-2.999900	3.443800	-10.330000	23.039551	-7.112061E-5	20.711276
659.193636	-3.012700	3.441900	-10.368000	23.052005	-7.181350E-5	20.712375
660.193722	-3.015100	3.441900	-10.376000	23.046700	-7.323228E-5	20.715119
661.192735	-2.998100	3.443300	-10.322000	23.057605	-7.412315E-5	20.707554
662.196624	-2.993900	3.443600	-10.309000	23.078430	-7.385919E-5	20.703764
663.192990	-2.988400	3.443100	-10.289000	23.055519	-7.666376E-5	20.724431
664.194946	-3.010600	3.442900	-10.364000	23.053902	-7.323228E-5	20.720914
665.197123	-2.972000	3.441600	-10.227000	23.056365	-7.346325E-5	20.721959
666.194855	-3.016000	3.440300	-10.375000	23.065083	-7.392518E-5	20.730222
667.196006	-3.000700	3.440100	-10.322000	23.059652	-7.362822E-5	20.717192
668.195776	-2.999600	3.440600	-10.319000	23.059903	-7.290233E-5	20.727876
669.196538	-3.011700	3.439400	-10.357000	23.054823	-7.573990E-5	20.717095
670.198735	-3.002900	3.441200	-10.333000	23.065184	-7.613584E-5	20.704716
671.196766	-2.993900	3.440200	-10.298000	23.094576	-7.343025E-5	20.713780
672.200629	-2.998300	3.440500	-10.315000	23.099703	-7.560792E-5	20.717494
673.197212	-2.995500	3.439600	-10.301000	23.084861	-7.521198E-5	20.727280
674.198054	-3.021300	3.438200	-10.386000	23.088073	-7.455208E-5	20.721489
675.201499	-2.978400	3.440100	-10.245000	23.095867	-7.514599E-5	20.727876
676.198010	-2.978300	3.438600	-10.240000	23.109468	-7.696071E-5	20.733918
677.198716	-3.008600	3.437700	-10.341000	23.104610	-7.643279E-5	20.732844
678.198589	-3.021700	3.437900	-10.388000	23.116436	-7.600386E-5	20.725728
679.199059	-3.011500	3.438900	-10.355000	23.097939	-7.735665E-5	20.738962
680.199240	-2.992100	3.438000	-10.286000	23.108772	-7.903940E-5	20.732747
681.198494	-2.990400	3.436500	-10.275000	23.123144	-7.732366E-5	20.724862
682.199754	-2.990400	3.437600	-10.279000	23.104685	-7.765361E-5	20.730548
683.202135	-2.984000	3.437700	-10.257000	23.109722	-7.656477E-5	20.733699
684.199615	-2.988000	3.436800	-10.269000	23.154947	-7.626782E-5	20.724488
685.200656	-3.008900	3.435700	-10.336000	23.126062	-7.923737E-5	20.734425
686.201033	-2.998900	3.435400	-10.302000	23.136819	-7.834650E-5	20.750421
687.200173	-3.007000	3.435400	-10.330000	23.140081	-7.633381E-5	20.723343
688.200520	-2.984900	3.435200	-10.252000	23.148029	-7.623482E-5	20.746955
689.198977	-3.012500	3.434200	-10.345000	23.153008	-7.894041E-5	20.730606
690.199391	-3.013600	3.435300	-10.352000	23.133686	-8.065615E-5	20.721202
691.201671	-3.006400	3.434600	-10.325000	23.176222	-7.870945E-5	20.735377
692.200213	-3.000800	3.434000	-10.304000	23.165791	-7.821452E-5	20.730614
693.199698	-3.003000	3.434600	-10.312000	23.161629	-7.735665E-5	20.748255
694.199762	-3.027800	3.432200	-10.391000	23.172515	-7.814853E-5	20.739249
695.199790	-3.009000	3.433900	-10.332000	23.158496	-7.927036E-5	20.744641
696.204275	-3.012400	3.432900	-10.341000	23.164873	-7.844549E-5	20.742971
697.202644	-3.027700	3.432500	-10.392000	23.171749	-7.910539E-5	20.743697
698.200127	-3.029600	3.431800	-10.395000	23.183649	-7.993026E-5	20.755149
699.202329	-2.989400	3.432600	-10.260000	23.178720	-7.884143E-5	20.749261
700.200323	-2.999500	3.432100	-10.294000	23.197052	-7.943533E-5	20.743923
701.202020	-3.024300	3.430900	-10.376000	23.180767	-7.854447E-5	20.739458
702.206004	-3.000100	3.431300	-10.294000	23.184674	-7.913838E-5	20.750960
703.202686	-3.014000	3.431200	-10.341000	23.196084	-7.880843E-5	20.752911
704.202852	-3.023500	3.429500	-10.368000	23.196582	-7.917138E-5	20.730650
705.203464	-2.984500	3.430100	-10.236000	23.194141	-7.976528E-5	20.712081
706.203503	-3.036300	3.429900	-10.413000	23.207737	-7.950132E-5	20.742777
707.207300	-2.981300	3.430300	-10.226000	23.215562	-8.065615E-5	20.769586
708.203683	-3.000300	3.429800	-10.289000	23.224871	-7.966630E-5	20.742878
709.203448	-3.027800	3.427400	-10.376000	23.224477	-8.167899E-5	20.736319
710.208150	-2.974600	3.429100	-10.199000	23.218376	-8.217392E-5	20.761500
711.202791	-2.994800	3.428900	-10.268000	23.204881	-8.125006E-5	20.764097
712.204394	-3.024000	3.428000	-10.366000	23.208791	-8.049117E-5	20.751895
713.206151	-2.974800	3.429000	-10.199000	23.224556	-8.342772E-5	20.756787
714.203617	-2.997200	3.428300	-10.275000	23.240048	-8.125006E-5	20.759036
715.203259	-3.000100	3.428100	-10.283000	23.233348	-8.263585E-5	20.748055
716.203574	-3.010400	3.426400	-10.313000	23.226406	-8.270184E-5	20.752951
717.204801	-3.017700	3.426700	-10.340000	23.235815	-8.187696E-5	20.755742
718.207036	-2.990000	3.427700	-10.248000	23.218860	-8.408762E-5	20.768150
719.204893	-3.009000	3.427000	-10.311000	23.241148	-8.270184E-5	20.757768
720.205935	-2.998200	3.425900	-10.271000	23.251532	-8.247087E-5	20.738302
721.204536	-3.019600	3.424200	-10.338000	23.248923	-8.421960E-5	20.763189
722.204139	-3.021100	3.425600	-10.348000	23.257812	-8.372468E-5	20.753605
723.206157	-3.004500	3.424900	-10.289000	23.280547	-8.478052E-5	20.747466
724.204216	-3.006800	3.424700	-10.297000	23.258360	-8.415361E-5	20.765061
725.204844	-2.977200	3.423900	-10.193000	23.278604	-8.194295E-5	20.744571
726.205842	-3.004000	3.424400	-10.286000	23.252138	-8.398864E-5	20.754083
727.206499	-2.990400	3.423600	-10.237000	23.267157	-8.448356E-5	20.753961
728.206679	-3.001900	3.423800	-10.276000	23.273131	-8.355970E-5	20.775122
729.204332	-2.977500	3.423200	-10.192000	23.290042	-8.451656E-5	20.751292
730.206467	-3.003100	3.423000	-10.277000	23.296712	-8.659524E-5	20.756554
731.210162	-3.000800	3.422100	-10.267000	23.309368	-8.534143E-5	20.757859
732.206070	-2.982200	3.421800	-10.203000	23.301547	-8.514346E-5	20.764246
733.210183	-2.991700	3.422400	-10.237000	23.296046	-8.497849E-5	20.752093
734.206786	-2.995700	3.421700	-10.248000	23.299956	-8.392265E-5	20.770712
735.207306	-2.990700	3.421400	-10.231000	23.297042	-8.623230E-5	20.779645
736.206621	-2.992400	3.420800	-10.235000	23.317662	-8.550641E-5	20.778974
737.206879	-2.997300	3.420300	-10.250000	23.306479	-8.596834E-5	20.777723
738.208029	-2.993300	3.420600	-10.238000	23.295723	-8.676022E-5	20.760779
739.206063	-2.973900	3.419700	-10.169000	23.307479	-8.474752E-5	20.784890
740.206936	-2.983300	3.421800	-10.207000	23.326877	-8.623230E-5	20.767346
741.208287	-3.004100	3.418800	-10.269000	23.315296	-8.633128E-5	20.775180
742.206469	-2.997600	3.418700	-10.247000	23.311759	-8.481351E-5	20.768790
743.210857	-3.001800	3.418400	-10.260000	23.319085	-8.798103E-5	20.794150
744.207448	-3.000800	3.418400	-10.256000	23.324511	-8.685920E-5	20.770665
745.205892	-2.996100	3.419200	-10.244000	23.345746	-8.808001E-5	20.779146
746.208201	-3.001600	3.417600	-10.258000	23.331181	-8.520945E-5	20.783514
747.207839	-3.001900	3.418100	-10.259000	23.344653	-8.808001E-5	20.778050
748.210954	-3.021800	3.416100	-10.322000	23.331034	-8.732113E-5	20.779099
749.209493	-2.996900	3.418000	-10.242000	23.350753	-8.600133E-5	20.788432
750.210471	-2.963900	3.416900	-10.126000	23.367856	-8.715615E-5	20.783762
751.210065	-3.005300	3.417100	-10.268000	23.346642	-8.712316E-5	20.795217
752.210149	-2.990500	3.416500	-10.216000	23.351248	-8.715615E-5	20.775176
753.208950	-2.999500	3.416800	-10.248000	23.355058	-8.603433E-5	20.774727
754.213710	-2.990300	3.416000	-10.214000	23.360161	-8.755209E-5	20.778420
755.210683	-3.015400	3.414100	-10.294000	23.374078	-8.656225E-5	20.787152
756.213720	-2.999200	3.415500	-10.243000	23.372784	-8.692519E-5	20.787278
757.212381	-2.997100	3.415600	-10.235000	23.395395	-8.821199E-5	20.767267
758.213977	-3.019900	3.414000	-10.309000	23.384811	-8.699118E-5	20.773729
759.214255	-3.020500	3.414500	-10.312000	23.377586	-8.906986E-5	20.775496
760.214541	-3.005900	3.414100	-10.262000	23.382668	-8.751910E-5	20.777745
761.220009	-2.992400	3.414400	-10.217000	23.362799	-8.844296E-5	20.796237
762.214468	-3.016000	3.414800	-10.298000	23.384284	-8.850895E-5	20.787425
763.213085	-3.023800	3.412400	-10.317000	23.400519	-8.860793E-5	20.797059
764.215314	-3.002200	3.413000	-10.245000	23.396241	-8.715615E-5	20.778072
765.213972	-2.990600	3.413000	-10.205000	23.411052	-8.679321E-5	20.792918
766.218827	-2.996600	3.413100	-10.227000	23.417872	-8.867392E-5	20.808762
767.215288	-3.009200	3.412000	-10.266000	23.405895	-8.986174E-5	20.798654
768.218616	-2.978200	3.413300	-10.165000	23.412593	-8.910286E-5	20.807264
769.218122	-3.003800	3.410900	-10.245000	23.395090	-9.048865E-5	20.807264
770.215649	-2.990400	3.409900	-10.196000	23.412740	-8.844296E-5	20.781333
771.219359	-2.993100	3.411600	-10.210000	23.451086	-8.916885E-5	20.801276
772.216888	-2.995300	3.410300	-10.214000	23.421460	-8.834397E-5	20.796237
773.218516	-3.014400	3.410400	-10.280000	23.419388	-8.986174E-5	20.775194
774.221630	-3.014400	3.409200	-10.275000	23.431491	-8.864093E-5	20.787799
775.218948	-3.011800	3.409800	-10.268000	23.467463	-9.167646E-5	20.780234
776.219020	-3.017100	3.409400	-10.286000	23.441450	-8.926783E-5	20.800626
777.219884	-3.005100	3.408900	-10.243000	23.446503	-9.058763E-5	20.789570
778.218717	-2.996000	3.409300	-10.214000	23.452874	-8.953179E-5	20.791215
779.222706	-2.992200	3.409800	-10.203000	23.469481	-9.029068E-5	20.797903
780.217837	-2.993100	3.408000	-10.199000	23.445729	-8.969677E-5	20.792113
781.219415	-3.009800	3.407600	-10.255000	23.461536	-9.068662E-5	20.802268
782.220759	-3.002800	3.407900	-10.233000	23.461113	-8.963078E-5	20.789516
783.218957	-3.015800	3.406200	-10.271000	23.473910	-8.999372E-5	20.805662
784.219122	-3.000200	3.407000	-10.221000	23.478565	-9.154448E-5	20.808906
785.223118	-2.987700	3.407100	-10.179000	23.470248	-9.147849E-5	20.796301
786.219608	-3.001200	3.405500	-10.220000	23.470423	-9.161047E-5	20.808805
787.219179	-3.018000	3.405400	-10.276000	23.479089	-9.286428E-5	20.806111
788.219231	-3.002300	3.406200	-10.226000	23.502117	-9.134651E-5	20.786994
789.219821	-2.997400	3.405500	-10.207000	23.481375	-9.197342E-5	20.814092
790.221674	-2.977000	3.406300	-10.139000	23.495017	-9.230337E-5	20.814491
791.221118	-3.002800	3.405500	-10.224000	23.501263	-9.302926E-5	20.813166
792.221355	-3.010200	3.403900	-10.245000	23.525488	-9.114854E-5	20.802361
793.222166	-2.997300	3.404700	-10.205000	23.496135	-9.299626E-5	20.805655
794.221853	-3.012500	3.403400	-10.252000	23.498576	-9.395312E-5	20.832282
795.224734	-3.013600	3.403900	-10.257000	23.497974	-9.451403E-5	20.812239
796.222994	-3.004300	3.403100	-10.222000	23.524111	-9.283129E-5	20.818999
797.221842	-2.996400	3.403400	-10.197000	23.513906	-9.359017E-5	20.808769
798.223158	-3.009900	3.402300	-10.240000	23.530257	-9.464601E-5	20.834642
799.223039	-3.010300	3.403800	-10.246000	23.529934	-9.335921E-5	20.796387
800.224156	-3.021800	3.401700	-10.278000	23.526569	-9.332621E-5	20.801548
801.225752	-2.996100	3.402700	-10.193000	23.523359	-9.134651E-5	20.817296
802.225179	-3.007600	3.401300	-10.229000	23.518679	-9.335921E-5	20.833941
803.226256	-3.015700	3.399900	-10.252000	23.538864	-9.349119E-5	20.813873
804.226197	-2.982000	3.401100	-10.142000	23.525347	-9.616378E-5	20.801272
805.226087	-3.000300	3.401400	-10.204000	23.533510	-9.593281E-5	20.825575
806.228187	-2.998200	3.400300	-10.193000	23.544565	-9.464601E-5	20.804889
807.226534	-2.987700	3.399900	-10.156000	23.546231	-9.335921E-5	20.818887
808.229339	-2.998800	3.399400	-10.193000	23.565499	-9.395312E-5	20.839149
809.227697	-3.000400	3.400800	-10.203000	23.554892	-9.474500E-5	20.805284
810.226774	-2.987800	3.399100	-10.155000	23.552130	-9.570185E-5	20.840920
811.228954	-2.991700	3.399300	-10.169000	23.558898	-9.448104E-5	20.821628
812.227793	-3.016700	3.399400	-10.255000	23.577868	-9.741759E-5	20.802712
813.228055	-3.033900	3.398000	-10.308000	23.565445	-9.596581E-5	20.830561
814.228920	-2.997100	3.397800	-10.183000	23.580455	-9.613078E-5	20.832332
815.228709	-2.995800	3.398800	-10.181000	23.560966	-9.636175E-5	20.827019
816.229354	-3.016200	3.397800	-10.247000	23.597261	-9.787952E-5	20.815988
817.228972	-3.002700	3.398500	-10.204000	23.589919	-9.754957E-5	20.820956
818.227852	-2.996900	3.396900	-10.179000	23.604334	-9.566885E-5	20.837303
819.229227	-3.018800	3.396800	-10.253000	23.608143	-9.764855E-5	20.823578
820.228565	-3.006900	3.396900	-10.213000	23.593950	-9.814348E-5	20.814566
821.228938	-3.015300	3.396600	-10.241000	23.610006	-9.919931E-5	20.841092
822.230635	-3.018200	3.395800	-10.249000	23.606029	-9.804449E-5	20.829519
823.228486	-2.989100	3.396100	-10.150000	23.602865	-9.768155E-5	20.856692
824.228928	-3.009800	3.395000	-10.216000	23.607695	-9.837444E-5	20.844465
825.228948	-3.002600	3.396100	-10.197000	23.617001	-0.000100	20.844311
826.228622	-3.006500	3.394500	-10.205000	23.616929	-9.949627E-5	20.835230
827.230666	-3.013800	3.395100	-10.231000	23.615933	-9.900134E-5	20.845137
828.228956	-2.993900	3.394700	-10.162000	23.626460	-0.000100	20.834828
829.230668	-3.019000	3.393100	-10.242000	23.633877	-0.000100	20.868815
830.228851	-2.988000	3.394400	-10.142000	23.626657	-0.000100	20.856361
831.228545	-3.001500	3.393500	-10.184000	23.633082	-9.906733E-5	20.842888
832.231936	-3.030200	3.392400	-10.279000	23.648514	-9.989221E-5	20.855988
833.228230	-2.991600	3.392700	-10.149000	23.669722	-9.873739E-5	20.845007
834.229073	-3.008600	3.392600	-10.206000	23.655107	-0.000101	20.851218
835.228503	-3.012900	3.392200	-10.220000	23.649205	-9.985921E-5	20.840086
836.229935	-3.047600	3.390400	-10.331000	23.646317	-9.824246E-5	20.849519
837.230935	-3.006400	3.390300	-10.192000	23.646837	-9.966124E-5	20.844824
838.230290	-2.991800	3.392700	-10.149000	23.665504	-9.811048E-5	20.823710
839.230655	-3.001000	3.392700	-10.180000	23.675888	-9.943028E-5	20.845025
840.230344	-2.997000	3.390100	-10.159000	23.683301	-0.000100	20.841552
841.231076	-2.990600	3.390100	-10.138000	23.684841	-9.840744E-5	20.865380
842.235766	-3.008700	3.389300	-10.196000	23.671000	-9.837444E-5	20.860987
843.232338	-2.970500	3.391200	-10.073000	23.665397	-0.000100	20.848258
844.232814	-2.990000	3.390500	-10.135000	23.691036	-9.979322E-5	20.842669
845.233044	-2.990800	3.390500	-10.139000	23.678313	-0.000102	20.864525
846.232023	-2.991300	3.388700	-10.136000	23.700914	-0.000100	20.871537
847.231602	-2.981300	3.389500	-10.105000	23.707908	-0.000101	20.844411
848.236491	-2.993900	3.389500	-10.147000	23.697252	-0.000101	20.857909
849.234088	-3.014500	3.388300	-10.213000	23.718488	-0.000100	20.840319
850.236650	-2.991500	3.388300	-10.135000	23.735807	-0.000101	20.848674
851.233892	-3.003600	3.388200	-10.176000	23.718054	-0.000100	20.847945
852.236225	-3.005200	3.387000	-10.177000	23.716216	-9.992520E-5	20.863171
853.239120	-2.969500	3.388200	-10.061000	23.724349	-9.939728E-5	20.863738
854.235469	-3.021000	3.387800	-10.233000	23.746953	-9.999119E-5	20.850366
855.234677	-3.021700	3.386800	-10.233000	23.715962	-9.923231E-5	20.850588
856.233926	-3.027100	3.385700	-10.247000	23.737344	-9.962825E-5	20.833146
857.236116	-3.003700	3.385900	-10.170000	23.755390	-0.000101	20.873997
858.237567	-3.005800	3.385200	-10.174000	23.737541	-0.000102	20.849938
859.237112	-2.993100	3.386300	-10.135000	23.769771	-9.890236E-5	20.839579
860.236673	-2.994800	3.385700	-10.139000	23.782464	-9.860541E-5	20.829073
861.241662	-2.998000	3.384900	-10.147000	23.761359	-9.936429E-5	20.859593
862.236904	-3.022000	3.383700	-10.225000	23.741869	-0.000101	20.837683
863.238082	-2.986000	3.384600	-10.105000	23.757375	-0.000100	20.845642
864.240843	-3.006900	3.383400	-10.172000	23.754340	-0.000101	20.835488
865.239246	-3.006800	3.384100	-10.174000	23.754236	-0.000102	20.833487
866.240290	-3.004500	3.383500	-10.166000	23.759668	-0.000101	20.861217
867.238612	-3.036800	3.381500	-10.268000	23.762104	-0.000102	20.839953
868.242001	-3.007500	3.383600	-10.174000	23.782342	-0.000101	20.825632
869.242023	-3.026400	3.382500	-10.236000	23.780949	-9.939728E-5	20.830398
870.241608	-2.988800	3.382600	-10.109000	23.768728	-9.900134E-5	20.829525
871.242548	-2.980600	3.381900	-10.079000	23.780401	-0.000102	20.830797
872.242654	-2.996400	3.380800	-10.129000	23.795985	-0.000102	20.839310
873.242321	-2.989500	3.380800	-10.106000	23.787745	-9.989221E-5	20.835790
874.243079	-2.990400	3.381700	-10.111000	23.801362	-9.982622E-5	20.827158
875.242490	-3.013400	3.380600	-10.186000	23.815750	-0.000102	20.831153
876.246405	-3.000200	3.381400	-10.144000	23.800843	-0.000102	20.830905
877.242626	-3.025000	3.380000	-10.224000	23.794867	-0.000103	20.832974
878.244391	-3.005800	3.379500	-10.157000	23.804372	-0.000101	20.808839
879.244496	-2.973700	3.380600	-10.052000	23.808556	-0.000102	20.822517
880.244710	-2.975200	3.379900	-10.055000	23.819880	-0.000104	20.825337
881.244294	-2.977600	3.379300	-10.062000	23.814800	-0.000101	20.815502
882.244434	-2.994600	3.378000	-10.116000	23.818981	-0.000102	20.821117
883.246372	-2.984900	3.378300	-10.082000	23.836231	-0.000105	20.834145
884.247782	-2.967100	3.380100	-10.028000	23.831749	-0.000103	20.815901
885.244763	-3.009600	3.378100	-10.166000	23.844592	-0.000102	20.829252
886.248431	-3.004200	3.379200	-10.151000	23.862160	-0.000102	20.837385
887.246626	-3.007900	3.378600	-10.161000	23.851434	-0.000104	20.824734
888.246997	-3.011800	3.377000	-10.170000	23.861390	-0.000102	20.828078
889.250823	-3.007200	3.376900	-10.154000	23.836800	-0.000105	20.811009
890.245531	-3.029900	3.374900	-10.225000	23.851209	-0.000104	20.815024
891.245997	-3.027900	3.374400	-10.216000	23.843123	-0.000105	20.796960
892.246402	-3.002400	3.376300	-10.136000	23.849640	-0.000105	20.812029
893.245855	-3.004100	3.376100	-10.141000	23.845187	-0.000105	20.809460
894.248797	-3.004300	3.374500	-10.137000	23.870894	-0.000104	20.816745
895.247959	-3.016800	3.374700	-10.180000	23.858803	-0.000104	20.795139
896.248643	-3.011700	3.374400	-10.162000	23.860197	-0.000103	20.818347
897.250289	-2.977200	3.375500	-10.048000	23.866151	-0.000105	20.799661
898.247756	-3.011000	3.374000	-10.158000	23.889966	-0.000103	20.809317
899.245880	-3.006400	3.374800	-10.145000	23.877621	-0.000104	20.823491
900.250094	-2.991300	3.373600	-10.090000	23.887433	-0.000105	20.801088
901.249210	-3.004500	3.372800	-10.133000	23.904306	-0.000103	20.828911
902.249898	-3.007300	3.373100	-10.142000	23.906247	-0.000104	20.819005
903.250839	-2.999100	3.372600	-10.113000	23.893530	-0.000104	20.810520
904.250238	-3.009400	3.371600	-10.145000	23.899652	-0.000106	20.807650
905.255382	-2.997700	3.373700	-10.112000	23.889056	-0.000106	20.804137
906.253056	-2.995900	3.373700	-10.106000	23.912774	-0.000105	20.807532
907.252616	-3.010700	3.371000	-10.148000	23.911603	-0.000106	20.803986
908.253060	-3.003800	3.371400	-10.126000	23.914469	-0.000108	20.808757
909.252954	-3.027700	3.371300	-10.206000	23.926265	-0.000106	20.824853
910.253856	-3.018000	3.371300	-10.174000	23.928160	-0.000106	20.806839
911.255218	-3.010300	3.370800	-10.147000	23.959363	-0.000106	20.809206
912.253899	-2.946800	3.372100	-9.935500	23.942943	-0.000104	20.815025
913.254818	-2.996600	3.369200	-10.096000	23.943219	-0.000105	20.807715
914.253879	-3.006500	3.370100	-10.131000	23.930850	-0.000106	20.777294
915.254700	-3.014000	3.368900	-10.153000	23.962057	-0.000107	20.808588
916.256582	-3.002200	3.369800	-10.116000	23.957630	-0.000106	20.804148
917.255811	-3.012800	3.368500	-10.148000	23.958203	-0.000106	20.806146
918.254582	-2.972200	3.370600	-10.017000	23.943696	-0.000107	20.795865
919.255895	-3.015600	3.368600	-10.157000	23.952432	-0.000107	20.798936
920.255974	-3.003200	3.368400	-10.116000	23.937502	-0.000107	20.804827
921.261426	-3.010800	3.367000	-10.136000	23.959650	-0.000106	20.790527
922.255206	-3.024700	3.367000	-10.183000	23.966374	-0.000106	20.797744
923.256026	-3.001800	3.367100	-10.107000	23.952561	-0.000108	20.810445
924.258018	-3.011800	3.367800	-10.142000	23.974985	-0.000107	20.787887
925.257263	-2.997200	3.367500	-10.092000	23.994918	-0.000106	20.801239
926.258168	-2.993500	3.366400	-10.077000	23.978148	-0.000107	20.793904
927.260166	-2.977900	3.366900	-10.026000	23.986261	-0.000106	20.789712
928.256248	-2.990600	3.366400	-10.067000	24.016525	-0.000107	20.785923
929.261221	-3.019400	3.364200	-10.157000	23.990692	-0.000107	20.795578
930.258388	-3.007800	3.365200	-10.121000	24.000252	-0.000106	20.796157
931.260737	-3.007500	3.366000	-10.122000	24.005181	-0.000108	20.790194
932.260283	-3.016500	3.364000	-10.146000	23.979746	-0.000106	20.771799
933.258792	-3.021200	3.364200	-10.163000	24.006227	-0.000107	20.774647
934.261053	-3.003200	3.364900	-10.104000	24.003444	-0.000106	20.789400
935.259589	-3.019600	3.362600	-10.153000	23.998042	-0.000108	20.776397
936.259608	-2.985200	3.362500	-10.037000	24.005013	-0.000106	20.765843
937.261765	-2.992100	3.363100	-10.063000	24.005987	-0.000107	20.778200
938.259090	-2.999900	3.362800	-10.087000	24.022586	-0.000110	20.792001
939.261741	-3.003500	3.362000	-10.097000	24.038263	-0.000109	20.784016
940.260289	-2.996900	3.361800	-10.073000	24.018907	-0.000109	20.793054
941.260369	-3.004100	3.360900	-10.096000	24.021300	-0.000109	20.792608
942.266402	-2.983800	3.362800	-10.032000	24.041827	-0.000108	20.779530
943.262462	-2.996400	3.361000	-10.070000	24.039538	-0.000108	20.782450
944.260705	-2.988000	3.361400	-10.043000	24.041856	-0.000107	20.778610
945.262966	-3.005400	3.361000	-10.100000	24.030881	-0.000106	20.787044
946.262481	-3.013200	3.360800	-10.126000	24.041738	-0.000108	20.782285
947.261535	-3.034200	3.358300	-10.188000	24.053286	-0.000109	20.772055
948.264591	-3.015700	3.358800	-10.128000	24.046993	-0.000107	20.777598
949.261098	-3.025900	3.359000	-10.163000	24.057670	-0.000108	20.775029
950.264429	-2.990500	3.359200	-10.044000	24.051699	-0.000108	20.777576
951.262633	-2.955200	3.360700	-9.929700	24.050134	-0.000108	20.760833
952.262876	-2.959200	3.360700	-9.943300	24.045009	-0.000107	20.778453
953.266667	-3.000700	3.358700	-10.078000	24.083509	-0.000110	20.763959
954.262255	-2.992600	3.358700	-10.050000	24.065668	-0.000108	20.773094
955.263384	-2.982500	3.359500	-10.019000	24.058752	-0.000107	20.762838
956.264166	-3.010900	3.357800	-10.109000	24.082492	-0.000109	20.779060
957.264309	-3.000200	3.357700	-10.073000	24.067044	-0.000108	20.784905
958.266703	-3.021200	3.357900	-10.144000	24.087549	-0.000108	20.764218
959.265457	-3.007000	3.356500	-10.092000	24.096260	-0.000110	20.779592
960.265412	-3.006000	3.357300	-10.090000	24.088122	-0.000107	20.774750
961.269984	-2.999200	3.356000	-10.065000	24.114254	-0.000108	20.769190
962.267271	-3.014700	3.355900	-10.117000	24.115049	-0.000109	20.770461
963.266910	-3.012200	3.355500	-10.106000	24.115303	-0.000108	20.773087
964.269041	-3.009400	3.354700	-10.094000	24.090841	-0.000110	20.783167
965.267793	-3.001900	3.353900	-10.067000	24.136828	-0.000109	20.765278
966.268664	-2.998300	3.355000	-10.059000	24.126302	-0.000109	20.764678
967.268648	-3.017800	3.353600	-10.119000	24.117198	-0.000109	20.782575
968.268586	-2.983500	3.353200	-10.003000	24.126729	-0.000110	20.785969
969.271910	-2.996900	3.353600	-10.050000	24.128791	-0.000108	20.770968
970.267905	-3.019900	3.353000	-10.125000	24.147559	-0.000111	20.756126
971.268764	-3.002500	3.353500	-10.067000	24.126013	-0.000109	20.750163
972.267326	-3.007200	3.352400	-10.081000	24.132953	-0.000110	20.779884
973.269226	-2.994200	3.351600	-10.034000	24.154625	-0.000111	20.760368
974.271084	-2.985800	3.352100	-10.008000	24.146738	-0.000109	20.757674
975.270437	-3.007700	3.352300	-10.081000	24.157017	-0.000111	20.771303
976.268762	-2.999700	3.351300	-10.051000	24.155176	-0.000110	20.759025
977.270638	-3.009500	3.351500	-10.085000	24.153235	-0.000109	20.763716
978.268349	-2.988300	3.352700	-10.018000	24.146893	-0.000112	20.756880
979.269517	-3.010200	3.351100	-10.086000	24.161276	-0.000113	20.765617
980.270303	-2.999300	3.350600	-10.049000	24.135898	-0.000111	20.763871
981.269583	-3.002900	3.349500	-10.058000	24.158790	-0.000111	20.778771
982.268620	-3.018000	3.349600	-10.108000	24.172973	-0.000110	20.746054
983.268877	-3.017100	3.349600	-10.105000	24.182975	-0.000110	20.766044
984.269231	-3.010500	3.349600	-10.084000	24.173546	-0.000109	20.762276
985.270082	-2.999600	3.349000	-10.046000	24.182582	-0.000110	20.769917
986.269677	-3.021400	3.348800	-10.117000	24.175068	-0.000111	20.740095
987.270322	-3.004500	3.348500	-10.060000	24.168299	-0.000110	20.755117
988.275301	-2.989900	3.348000	-10.009000	24.186937	-0.000111	20.755793
989.268263	-3.012300	3.348500	-10.085000	24.184326	-0.000111	20.755545
990.269692	-3.010900	3.348500	-10.081000	24.186142	-0.000113	20.754047
991.271919	-2.991900	3.346900	-10.013000	24.191668	-0.000112	20.753900
992.269403	-2.979500	3.347900	-9.974800	24.204381	-0.000114	20.756220
993.269918	-3.022100	3.345500	-10.109000	24.195650	-0.000112	20.730392
994.269748	-3.008800	3.346400	-10.067000	24.206330	-0.000112	20.762917
995.270236	-2.985900	3.345300	-9.987900	24.207229	-0.000110	20.758603
996.273758	-2.997100	3.345600	-10.026000	24.216830	-0.000111	20.754482
997.269763	-3.008000	3.347700	-10.068000	24.217980	-0.000109	20.744730
998.273058	-3.001100	3.345100	-10.039000	24.201460	-0.000111	20.748548
999.271168	-3.004400	3.343700	-10.044000	24.232161	-0.000113	20.749472
1000.271003	-2.988500	3.345000	-9.995500	24.233533	-0.000109	20.753219
1001.273015	-2.995000	3.343900	-10.014000	24.210420	-0.000112	20.753743
1002.271005	-2.975800	3.344000	-9.950100	24.239231	-0.000112	20.743286
1003.270474	-3.008900	3.345000	-10.064000	24.248040	-0.000113	20.744536
1004.270622	-2.991900	3.344000	-10.004000	24.267003	-0.000112	20.763557
1005.270693	-3.019400	3.343200	-10.092000	24.264317	-0.000112	20.728145
1006.274366	-3.011300	3.342800	-10.066000	24.260560	-0.000113	20.741447
1007.271450	-3.023400	3.340700	-10.099000	24.259518	-0.000113	20.743247
1008.273458	-3.021200	3.341700	-10.094000	24.267952	-0.000112	20.768777
1009.278622	-2.991300	3.342900	-9.997000	24.280718	-0.000112	20.753608
1010.272053	-3.023200	3.341700	-10.101000	24.274029	-0.000112	20.744527
1011.271807	-3.005700	3.341500	-10.043000	24.285571	-0.000114	20.760846
1012.274730	-3.004200	3.340200	-10.033000	24.270047	-0.000113	20.746222
1013.270809	-2.998400	3.340200	-10.015000	24.286344	-0.000111	20.739810
1014.273045	-3.020000	3.339000	-10.083000	24.276221	-0.000113	20.753364
1015.272462	-2.989800	3.339700	-9.983900	24.292593	-0.000112	20.738492
1016.273672	-3.009100	3.339400	-10.046000	24.288268	-0.000116	20.746481
1017.276108	-3.020700	3.337900	-10.081000	24.288067	-0.000114	20.748177
1018.272966	-3.004100	3.338300	-10.028000	24.308765	-0.000113	20.752818
1019.274030	-3.019100	3.336800	-10.073000	24.312521	-0.000115	20.735722
1020.273800	-2.991800	3.339100	-9.988400	24.302624	-0.000113	20.738597
1021.273540	-2.991100	3.338300	-9.984800	24.314688	-0.000114	20.722248
1022.277155	-2.987200	3.339300	-9.974000	24.339292	-0.000114	20.745982
1023.277794	-2.966200	3.340100	-9.905900	24.323225	-0.000113	20.727967
1024.274765	-3.013300	3.336900	-10.054000	24.327429	-0.000113	20.748781
1025.276799	-3.010300	3.337200	-10.045000	24.330566	-0.000113	20.736754
1026.275172	-3.007400	3.337000	-10.035000	24.339568	-0.000114	20.744836
1027.274738	-3.008800	3.334900	-10.033000	24.334519	-0.000114	20.733607
1028.278454	-2.991800	3.336700	-9.981800	24.326981	-0.000114	20.740271
1029.275165	-3.002100	3.335300	-10.012000	24.343478	-0.000114	20.730267
1030.275733	-3.002500	3.336000	-10.016000	24.342805	-0.000114	20.725323
1031.276695	-3.009200	3.335400	-10.036000	24.348054	-0.000117	20.733435
1032.276947	-2.986300	3.335000	-9.958400	24.333703	-0.000115	20.742746
1033.277374	-3.001100	3.333300	-10.003000	24.368504	-0.000114	20.737354
1034.277305	-2.993900	3.335100	-9.983900	24.364426	-0.000114	20.738479
1035.276833	-2.985400	3.334400	-9.953500	24.365693	-0.000115	20.742595
1036.281174	-3.016300	3.332900	-10.051000	24.348255	-0.000115	20.749284
1037.277558	-3.011200	3.332800	-10.035000	24.336041	-0.000117	20.737979
1038.280170	-3.007500	3.332300	-10.021000	24.356888	-0.000116	20.743720
1039.278939	-2.995000	3.332500	-9.979900	24.364848	-0.000116	20.716142
1040.277643	-2.999000	3.331600	-9.989300	24.358382	-0.000116	20.729570
1041.276632	-3.013600	3.331400	-10.039000	24.365919	-0.000116	20.737132
1042.278251	-2.986600	3.332800	-9.953000	24.367638	-0.000114	20.738856
1043.280412	-2.986500	3.331300	-9.948200	24.378505	-0.000115	20.711350
1044.278923	-3.006600	3.330800	-10.013000	24.373954	-0.000116	20.733338
1045.277420	-2.992000	3.331100	-9.965700	24.368529	-0.000115	20.719360
1046.279371	-2.998500	3.331000	-9.986900	24.387213	-0.000116	20.722457
1047.276881	-2.995600	3.330500	-9.975900	24.406215	-0.000114	20.715441
1048.278436	-2.986000	3.330800	-9.944900	24.379003	-0.000114	20.725600
1049.281381	-3.045600	3.327800	-10.134000	24.386490	-0.000115	20.729318
1050.278577	-3.015400	3.329000	-10.037000	24.404547	-0.000114	20.715664
1051.280836	-2.981400	3.330400	-9.928500	24.413756	-0.000116	20.718265
1052.281165	-3.014800	3.327600	-10.032000	24.394421	-0.000115	20.736801
1053.281879	-3.015600	3.327200	-10.033000	24.400791	-0.000116	20.718060
1054.286684	-2.994400	3.328900	-9.966900	24.413008	-0.000117	20.728420
1055.281830	-3.002500	3.327000	-9.988300	24.384993	-0.000114	20.708375
1056.280778	-2.992800	3.326600	-9.954900	24.408131	-0.000114	20.698395
1057.283958	-2.996800	3.326800	-9.968600	24.411536	-0.000115	20.731685
1058.281910	-3.021800	3.327000	-10.053000	24.420068	-0.000116	20.725072
1059.281875	-3.012900	3.326600	-10.022000	24.432658	-0.000117	20.728693
1060.283163	-3.003300	3.325600	-9.986000	24.411214	-0.000117	20.728517
1061.280895	-3.021800	3.325500	-10.048000	24.439647	-0.000117	20.714367
1062.280146	-2.992300	3.325900	-9.950600	24.425321	-0.000115	20.727023
1063.281915	-3.036800	3.323700	-10.093000	24.429471	-0.000116	20.708899
1064.280576	-3.025900	3.324600	-10.059000	24.443499	-0.000116	20.713016
1065.283267	-2.989400	3.325000	-9.938300	24.441140	-0.000116	20.731039
1066.280784	-2.995100	3.323900	-9.954700	24.464118	-0.000118	20.710469
1067.282210	-3.007800	3.323900	-9.996000	24.443127	-0.000115	20.733506
1068.280959	-3.001200	3.323100	-9.972300	24.455042	-0.000116	20.703733
1069.281962	-2.989000	3.322700	-9.930200	24.463524	-0.000116	20.714615
1070.282970	-3.004400	3.322500	-9.980000	24.469564	-0.000118	20.715933
1071.281855	-3.008800	3.321300	-9.991900	24.481082	-0.000117	20.714212
1072.281907	-3.008600	3.321600	-9.992900	24.482400	-0.000117	20.713163
1073.280947	-2.992000	3.322300	-9.939900	24.480831	-0.000117	20.706848
1074.282383	-2.999500	3.320500	-9.959700	24.493491	-0.000116	20.710066
1075.284519	-3.023300	3.320200	-10.036000	24.488217	-0.000116	20.701930
1076.284148	-3.012300	3.320300	-10.001000	24.501249	-0.000115	20.691770
1077.286396	-3.004300	3.320100	-9.973800	24.493613	-0.000117	20.708291
1078.284453	-3.024400	3.320000	-10.039000	24.486448	-0.000117	20.740935
1079.285099	-3.009300	3.319000	-9.986800	24.499581	-0.000117	20.714280
1080.283583	-3.013300	3.320100	-10.003000	24.502241	-0.000117	20.708413
1081.285118	-3.006000	3.319800	-9.977800	24.504558	-0.000115	20.703151
1082.285875	-3.023500	3.319000	-10.034000	24.507218	-0.000117	20.707242
1083.284794	-2.994600	3.318700	-9.938100	24.516916	-0.000116	20.704645
1084.285066	-2.992100	3.318600	-9.928200	24.540868	-0.000118	20.702123
1085.286065	-2.975700	3.318800	-9.875500	24.524553	-0.000116	20.700453
1086.285131	-3.001500	3.319500	-9.963100	24.518882	-0.000116	20.702350
1087.285661	-3.026200	3.316800	-10.036000	24.542307	-0.000116	20.698351
1088.285814	-3.010200	3.316700	-9.982800	24.532311	-0.000115	20.714876
1089.285683	-3.007200	3.316500	-9.972900	24.557329	-0.000114	20.725753
1090.286666	-2.991600	3.317500	-9.921900	24.555317	-0.000113	20.723260
1091.286808	-3.017300	3.314800	-10.001000	24.558525	-0.000113	20.716995
1092.289270	-3.030600	3.315800	-10.047000	24.559294	-0.000114	20.683151
1093.286563	-3.010600	3.316600	-9.984000	24.563271	-0.000115	20.726026
1094.287316	-3.003300	3.315500	-9.956500	24.564915	-0.000114	20.732891
1095.290407	-3.003300	3.314200	-9.951700	24.565760	-0.000115	20.698175
1096.286793	-3.004100	3.315600	-9.959200	24.577524	-0.000115	20.711876
1097.287282	-2.989600	3.315500	-9.911000	24.581551	-0.000114	20.717814
1098.288323	-2.995100	3.315000	-9.927400	24.581798	-0.000115	20.726123
1099.287953	-2.989200	3.314200	-9.905500	24.597764	-0.000114	20.692829
1100.287681	-2.996300	3.313900	-9.928300	24.590898	-0.000113	20.709648
1101.287560	-3.001100	3.314000	-9.944800	24.580702	-0.000113	20.723601
1102.288973	-2.985000	3.313900	-9.891500	24.590504	-0.000115	20.714469
1103.287904	-2.989200	3.313600	-9.904300	24.614032	-0.000114	20.717688
1104.289443	-2.998400	3.310700	-9.926400	24.610670	-0.000116	20.720005
1105.292935	-2.988100	3.311300	-9.893400	24.593014	-0.000112	20.723152
1106.291314	-3.004800	3.310400	-9.946400	24.610620	-0.000112	20.708574
1107.291728	-2.982400	3.311200	-9.874200	24.613505	-0.000114	20.729963
1108.290506	-3.029200	3.310700	-10.028000	24.626912	-0.000113	20.732510
1109.291755	-2.999500	3.311300	-9.930900	24.634523	-0.000113	20.711222
1110.293738	-2.998000	3.309800	-9.921500	24.644045	-0.000115	20.727890
1111.294786	-2.999100	3.310600	-9.928500	24.641260	-0.000113	20.726992
1112.291373	-3.029200	3.308700	-10.021000	24.652500	-0.000112	20.714088
1113.294844	-3.005600	3.308500	-9.943400	24.653445	-0.000112	20.718356
1114.292410	-3.012800	3.309100	-9.969100	24.641833	-0.000115	20.716660
1115.293891	-3.025500	3.308900	-10.010000	24.651831	-0.000110	20.697768
1116.293639	-2.998200	3.307800	-9.915300	24.651756	-0.000112	20.712867
1117.295811	-2.975000	3.309000	-9.843200	24.650539	-0.000113	20.720181
1118.296599	-2.965300	3.309300	-9.810800	24.661332	-0.000113	20.697819
1119.294904	-2.996300	3.306400	-9.906200	24.679438	-0.000113	20.694176
1120.294919	-2.977900	3.305800	-9.842900	24.670607	-0.000114	20.735577
1121.297254	-3.004500	3.306500	-9.932200	24.666057	-0.000113	20.707777
1122.295904	-2.987600	3.306700	-9.878400	24.681303	-0.000114	20.724025
1123.295471	-2.984500	3.306400	-9.866500	24.679509	-0.000113	20.726492
1124.296470	-2.982900	3.305100	-9.857900	24.696194	-0.000111	20.720001
1125.297364	-2.983900	3.305700	-9.863500	24.700178	-0.000113	20.729690
1126.299445	-2.998100	3.304600	-9.906600	24.700425	-0.000114	20.710970
1127.298580	-2.994500	3.303100	-9.889400	24.687517	-0.000113	20.716509
1128.296935	-3.005900	3.304900	-9.933300	24.716240	-0.000112	20.718305
1129.296731	-2.996700	3.303000	-9.897000	24.712166	-0.000111	20.721331
1130.298524	-2.999500	3.303400	-9.906900	24.714998	-0.000111	20.720378
1131.300509	-3.025600	3.302900	-9.991900	24.713061	-0.000113	20.725074
1132.299801	-2.978000	3.303500	-9.836100	24.715395	-0.000113	20.711767
1133.299299	-3.003800	3.302600	-9.919600	24.726241	-0.000113	20.731188
1134.301818	-3.002300	3.302500	-9.914000	24.716591	-0.000111	20.731935
1135.300339	-3.029300	3.301200	-9.999800	24.729423	-0.000112	20.719207
1136.300619	-2.985900	3.301900	-9.858300	24.729846	-0.000109	20.736702
1137.302950	-2.999300	3.300700	-9.898800	24.734270	-0.000113	20.727390
1138.300594	-2.998200	3.301600	-9.898500	24.741382	-0.000111	20.725519
1139.300359	-3.014500	3.300000	-9.945900	24.748001	-0.000110	20.703236
1140.302354	-2.987500	3.301400	-9.861500	24.731063	-0.000109	20.710895
1141.302580	-3.008300	3.299200	-9.924300	24.753621	-0.000112	20.724524
1142.304587	-2.981000	3.300000	-9.836700	24.766800	-0.000110	20.726845
1143.303102	-2.975400	3.300200	-9.818100	24.761205	-0.000112	20.727868
1144.304053	-2.998300	3.298100	-9.888000	24.768539	-0.000109	20.725745
1145.306599	-2.989700	3.298300	-9.859600	24.784206	-0.000109	20.734356
1146.304303	-2.991500	3.298500	-9.866300	24.794822	-0.000112	20.736001
1147.304591	-3.026100	3.296900	-9.976100	24.785925	-0.000111	20.745090
1148.306949	-3.025300	3.298500	-9.977500	24.763342	-0.000112	20.722426
1149.304124	-3.011000	3.296500	-9.925400	24.789529	-0.000111	20.742069
1150.305244	-2.991700	3.298100	-9.866200	24.783663	-0.000111	20.741871
1151.304787	-2.997800	3.298300	-9.887000	24.795972	-0.000111	20.743319
1152.308375	-3.029400	3.295700	-9.981700	24.773021	-0.000111	20.749684
1153.307958	-3.023900	3.296300	-9.966600	24.809201	-0.000111	20.723403
1154.306816	-2.986400	3.295400	-9.840400	24.820544	-0.000110	20.718665
1155.308290	-3.011700	3.294400	-9.920700	24.828676	-0.000112	20.739630
1156.307195	-2.998500	3.295600	-9.880300	24.803790	-0.000110	20.734095
1157.306808	-3.019500	3.293200	-9.943100	24.818064	-0.000110	20.726134
1158.308632	-3.013100	3.294100	-9.924600	24.847527	-0.000110	20.739584
1159.306456	-2.995600	3.293700	-9.866100	24.844128	-0.000112	20.731904
1160.308294	-3.004500	3.292800	-9.892700	24.841665	-0.000113	20.754564
1161.307478	-2.997700	3.293500	-9.871800	24.839407	-0.000112	20.734753
1162.307692	-3.000500	3.293800	-9.882000	24.827073	-0.000111	20.732332
1163.311405	-2.980000	3.292400	-9.809900	24.835335	-0.000112	20.730665
1164.310179	-2.976100	3.293800	-9.801400	24.853112	-0.000113	20.750405
1165.309916	-2.990800	3.291200	-9.841900	24.837618	-0.000113	20.732483
1166.312519	-2.993300	3.291900	-9.852500	24.855800	-0.000113	20.746938
1167.310624	-2.994000	3.291500	-9.853400	24.856870	-0.000112	20.769350
1168.310420	-2.987600	3.290800	-9.830700	24.846602	-0.000112	20.745293
1169.313470	-3.014800	3.290300	-9.918700	24.850210	-0.000112	20.734689
1170.311553	-3.013000	3.290300	-9.913000	24.855507	-0.000112	20.770827
1171.313006	-3.010700	3.288400	-9.899500	24.887336	-0.000111	20.732595
1172.310636	-2.975800	3.289000	-9.786300	24.868614	-0.000112	20.781136
1173.313418	-2.994400	3.290500	-9.852200	24.864613	-0.000112	20.747248
1174.313790	-2.993100	3.288200	-9.841300	24.884455	-0.000112	20.758628
1175.312719	-2.987800	3.288400	-9.823700	24.885350	-0.000113	20.760475
1176.312403	-2.989900	3.287700	-9.829300	24.888682	-0.000113	20.745326
1177.314151	-3.003200	3.286200	-9.868200	24.895149	-0.000111	20.744231
1178.313982	-3.000400	3.286500	-9.860200	24.894405	-0.000112	20.759606
1179.314723	-3.004100	3.286400	-9.872300	24.895299	-0.000111	20.760029
1180.313947	-3.002700	3.286500	-9.867300	24.916985	-0.000114	20.768044
1181.314149	-3.012600	3.286800	-9.900500	24.917829	-0.000113	20.761779
1182.314994	-2.997400	3.286200	-9.849600	24.921981	-0.000112	20.746031
1183.314474	-3.003400	3.284400	-9.862500	24.919618	-0.000111	20.785861
1184.314828	-3.002300	3.284900	-9.861300	24.930509	-0.000114	20.761229
1185.318527	-2.972100	3.286900	-9.768100	24.930283	-0.000113	20.749623
1186.314458	-3.014500	3.284300	-9.899300	24.932499	-0.000111	20.757537
1187.314941	-2.994400	3.284100	-9.832100	24.921090	-0.000113	20.768371
1188.315286	-2.988000	3.284000	-9.811500	24.973945	-0.000114	20.785861
1189.314701	-2.989100	3.282200	-9.810100	24.934886	-0.000112	20.767519
1190.317620	-2.992600	3.283200	-9.824400	24.933644	-0.000112	20.745410
1191.317047	-3.001600	3.282200	-9.851000	24.968351	-0.000112	20.773134
1192.315230	-2.997000	3.280800	-9.831600	24.965345	-0.000111	20.767272
1193.318767	-3.013900	3.280500	-9.886400	24.967335	-0.000112	20.770692
1194.313933	-3.017700	3.281900	-9.902800	24.965073	-0.000113	20.768896
1195.315995	-3.017700	3.278700	-9.893300	24.941922	-0.000111	20.749451
1196.318003	-2.981300	3.281100	-9.780800	24.980562	-0.000111	20.767372
1197.316155	-2.994700	3.279800	-9.821000	24.970713	-0.000113	20.794945
1198.316881	-2.975100	3.280800	-9.759900	24.951746	-0.000113	20.775907
1199.316275	-3.013800	3.278500	-9.879500	24.985858	-0.000111	20.767947
1200.318475	-2.967300	3.280800	-9.734700	24.991130	-0.000112	20.791257
1201.319619	-3.013700	3.279000	-9.881300	24.989111	-0.000113	20.759358
1202.319146	-3.012300	3.277500	-9.872100	24.999779	-0.000111	20.778601
1203.318943	-3.002300	3.277900	-9.840200	25.001794	-0.000111	20.789633
1204.320127	-2.982100	3.276700	-9.770800	25.000080	-0.000111	20.771317
1205.321269	-2.996000	3.277300	-9.817900	24.987497	-0.000113	20.765799
1206.321945	-2.967500	3.277500	-9.725500	25.009578	-0.000111	20.773264
1207.321042	-3.013600	3.275700	-9.871300	25.021362	-0.000111	20.783670
1208.322310	-3.015200	3.275500	-9.875400	25.008336	-0.000112	20.778181
1209.328061	-2.997900	3.275800	-9.819900	25.004432	-0.000113	20.770943
1210.323750	-2.979800	3.275400	-9.758500	25.026608	-0.000111	20.793203
1211.324401	-2.966700	3.276000	-9.717600	25.028970	-0.000110	20.798893
1212.326878	-3.004600	3.274500	-9.837700	25.034020	-0.000113	20.757494
1213.324664	-3.018600	3.274000	-9.882000	25.024050	-0.000113	20.789687
1214.325055	-2.991900	3.272700	-9.790600	25.027682	-0.000112	20.765832
1215.325006	-3.015800	3.272600	-9.868000	25.034345	-0.000112	20.765882
1216.323848	-3.012200	3.272300	-9.855700	25.031637	-0.000111	20.802992
1217.325890	-2.999000	3.272500	-9.812900	25.020847	-0.000111	20.768454
1218.325182	-2.996000	3.272400	-9.803500	25.006801	-0.000112	20.788969
1219.325111	-2.993800	3.271500	-9.792600	25.045736	-0.000110	20.782058
1220.326675	-2.972800	3.272400	-9.727300	25.038897	-0.000112	20.791789
1221.325450	-2.978800	3.270800	-9.742700	25.047722	-0.000112	20.795431
1222.328311	-2.986600	3.271900	-9.771300	25.065378	-0.000113	20.789447
1223.329524	-3.009100	3.271100	-9.841900	25.049862	-0.000114	20.796631
1224.324780	-2.972600	3.270800	-9.722200	25.060032	-0.000112	20.775546
1225.328774	-2.999500	3.269000	-9.804600	25.059510	-0.000112	20.784979
1226.324189	-3.009200	3.268700	-9.835500	25.059388	-0.000113	20.802875
1227.325437	-3.012400	3.268900	-9.845900	25.067962	-0.000112	20.773074
1228.327775	-2.977100	3.267800	-9.726900	25.072464	-0.000111	20.772377
1229.326203	-2.995200	3.267900	-9.787000	25.088645	-0.000112	20.790992
1230.327355	-3.013200	3.267800	-9.844800	25.085414	-0.000112	20.792490
1231.328159	-2.996000	3.266100	-9.784600	25.110397	-0.000111	20.799077
1232.327667	-3.013000	3.266100	-9.840300	25.072757	-0.000111	20.815345
1233.328958	-3.012600	3.264500	-9.833400	25.110669	-0.000111	20.791290
1234.329136	-2.985200	3.266200	-9.749100	25.116287	-0.000113	20.806886
1235.328938	-3.011400	3.264800	-9.830900	25.115714	-0.000112	20.807260
1236.331184	-2.991000	3.265000	-9.764900	25.124985	-0.000113	20.803765
1237.328498	-3.010500	3.263500	-9.822800	25.116308	-0.000113	20.794105
1238.328667	-2.992000	3.264000	-9.765000	25.118126	-0.000112	20.808733
1239.330685	-2.978100	3.263800	-9.718700	25.134628	-0.000112	20.813445
1240.328624	-2.994000	3.263600	-9.770600	25.141792	-0.000114	20.806412
1241.328560	-3.005700	3.262500	-9.804200	25.138135	-0.000113	20.815543
1242.329248	-2.981500	3.262200	-9.725200	25.154741	-0.000112	20.811351
1243.329253	-2.985200	3.262400	-9.737900	25.161926	-0.000114	20.802917
1244.333641	-2.985400	3.262600	-9.739500	25.161354	-0.000113	20.807084
1245.330441	-2.998100	3.261600	-9.777400	25.167218	-0.000114	20.808229
1246.329710	-3.012000	3.261200	-9.821400	25.150215	-0.000115	20.812497
1247.329564	-2.996000	3.260100	-9.766400	25.167966	-0.000112	20.823679
1248.330917	-3.005500	3.259300	-9.794800	25.160978	-0.000114	20.810499
1249.334070	-2.997000	3.260000	-9.769200	25.189266	-0.000111	20.808078
1250.333842	-2.997300	3.259100	-9.767300	25.180915	-0.000112	20.829566
1251.332767	-3.001400	3.258500	-9.778100	25.167540	-0.000112	20.808552
1252.332765	-3.030800	3.258000	-9.873200	25.180944	-0.000112	20.803043
1253.331987	-2.983300	3.258900	-9.721000	25.184442	-0.000112	20.816038
1254.333456	-2.983600	3.258400	-9.720800	25.203209	-0.000111	20.800740
1255.332797	-3.012400	3.257800	-9.812500	25.213002	-0.000113	20.802036
1256.332908	-3.006600	3.257900	-9.794400	25.198164	-0.000113	20.812744
1257.336975	-3.003800	3.256500	-9.781000	25.200626	-0.000113	20.812371
1258.331608	-3.028200	3.255000	-9.855900	25.199878	-0.000112	20.829163
1259.335270	-3.012900	3.255400	-9.807200	25.209717	-0.000113	20.830980
1260.332585	-2.992300	3.254800	-9.737800	25.214615	-0.000112	20.802708
1261.332691	-3.010600	3.254900	-9.799100	25.213048	-0.000113	20.798289
1262.332225	-3.014100	3.253400	-9.804400	25.212948	-0.000112	20.838491
1263.331594	-3.006300	3.252100	-9.775300	25.233381	-0.000110	20.830082
1264.334181	-3.049700	3.251800	-9.915800	25.225946	-0.000113	20.814083
1265.337822	-2.991700	3.254300	-9.734900	25.214686	-0.000112	20.822219
1266.334878	-3.004800	3.251300	-9.768900	25.219781	-0.000111	20.805049
1267.336637	-2.994700	3.251000	-9.734400	25.228007	-0.000111	20.826583
1268.334028	-3.016600	3.251600	-9.807700	25.228851	-0.000113	20.821741
1269.335361	-2.980200	3.251700	-9.690600	25.236157	-0.000113	20.843774
1270.336246	-3.003500	3.251000	-9.763900	25.252862	-0.000112	20.830200
1271.336588	-2.987400	3.250800	-9.710700	25.240532	-0.000113	20.832047
1272.337871	-2.999500	3.248700	-9.743100	25.262056	-0.000114	20.829475
1273.338622	-3.002300	3.249200	-9.754000	25.278264	-0.000113	20.829626
1274.338690	-3.007300	3.249200	-9.770200	25.251695	-0.000113	20.854633
1275.342833	-2.988300	3.248800	-9.708200	25.262654	-0.000113	20.834342
1276.339242	-2.984900	3.248100	-9.694100	25.267698	-0.000111	20.841303
1277.339078	-2.975900	3.248100	-9.665000	25.262800	-0.000112	20.833066
1278.338684	-3.004600	3.247000	-9.754300	25.265734	-0.000113	20.832693
1279.337918	-2.982300	3.246400	-9.681000	25.274310	-0.000111	20.831346
1280.341703	-2.992400	3.246600	-9.714100	25.279179	-0.000110	20.847614
1281.339667	-3.006100	3.245500	-9.755700	25.306198	-0.000110	20.820688
1282.339211	-3.025500	3.244900	-9.816300	25.308809	-0.000112	20.821414
1283.338886	-2.982900	3.246200	-9.682100	25.303243	-0.000110	20.832420
1284.338964	-2.987200	3.244300	-9.690700	25.294191	-0.000111	20.830918
1285.342257	-2.988700	3.244200	-9.695400	25.299733	-0.000111	20.845491
1286.339392	-2.994700	3.244700	-9.716100	25.301776	-0.000110	20.827628
1287.341094	-3.019100	3.242800	-9.789300	25.307092	-0.000109	20.848612
1288.340394	-2.974800	3.243700	-9.648700	25.287780	-0.000112	20.826852
1289.340301	-2.980900	3.242500	-9.664800	25.314151	-0.000109	20.846691
1290.345250	-3.003100	3.242500	-9.736700	25.300853	-0.000111	20.836184
1291.340642	-3.016500	3.241400	-9.777300	25.314476	-0.000111	20.863138
1292.340139	-2.971700	3.241900	-9.632700	25.318802	-0.000110	20.857998
1293.343539	-3.003300	3.240800	-9.731900	25.333291	-0.000112	20.844572
1294.343047	-3.005400	3.239000	-9.733400	25.337863	-0.000110	20.843472
1295.343020	-2.997000	3.241200	-9.712700	25.336500	-0.000111	20.850164
1296.348106	-3.008700	3.239100	-9.744300	25.347186	-0.000110	20.829600
1297.343464	-2.990800	3.239300	-9.685900	25.338260	-0.000111	20.846242
1298.345830	-3.002500	3.238200	-9.721000	25.334085	-0.000109	20.850584
1299.344429	-3.002100	3.239100	-9.722900	25.359535	-0.000111	20.844844
1300.343678	-3.003600	3.237800	-9.723400	25.354190	-0.000112	20.856547
1301.347195	-2.987000	3.237000	-9.668200	25.366267	-0.000110	20.851604
1302.344048	-3.027600	3.235900	-9.795900	25.352949	-0.000112	20.858145
1303.343531	-2.998400	3.236800	-9.703600	25.347650	-0.000111	20.862308
1304.343071	-2.989900	3.237700	-9.679200	25.371240	-0.000110	20.855175
1305.342789	-3.018100	3.235300	-9.762100	25.377279	-0.000112	20.868824
1306.345911	-2.997800	3.236400	-9.701300	25.385657	-0.000109	20.841676
1307.343596	-3.029300	3.234200	-9.796500	25.369477	-0.000111	20.851981
1308.344419	-3.003900	3.233300	-9.711900	25.396718	-0.000112	20.860843
1309.343009	-2.999800	3.234000	-9.700300	25.391220	-0.000110	20.863382
1310.342272	-2.995800	3.233100	-9.684900	25.397162	-0.000111	20.870770
1311.348728	-3.003400	3.234000	-9.712200	25.401090	-0.000111	20.850060
1312.343193	-3.002800	3.232900	-9.706800	25.426338	-0.000108	20.862610
1313.343629	-3.005000	3.231900	-9.710400	25.420496	-0.000110	20.842994
1314.344697	-3.018000	3.230300	-9.748900	25.395440	-0.000110	20.840594
1315.344819	-3.018600	3.229900	-9.748000	25.423902	-0.000109	20.878180
1316.344784	-3.009300	3.230900	-9.721600	25.419251	-0.000111	20.869718
1317.349624	-2.991800	3.230500	-9.663800	25.431006	-0.000111	20.851176
1318.346334	-3.001400	3.229400	-9.691000	25.424102	-0.000111	20.840925
1319.346863	-3.007400	3.229900	-9.712300	25.424696	-0.000111	20.842944
1320.345746	-2.997300	3.228500	-9.675900	25.438189	-0.000108	20.865975
1321.349191	-3.017500	3.228300	-9.740400	25.447407	-0.000111	20.855792
1322.347231	-2.994700	3.226900	-9.661600	25.422281	-0.000110	20.862329
1323.347390	-3.021000	3.228000	-9.750100	25.424345	-0.000110	20.866772
1324.347797	-2.989900	3.227000	-9.647800	25.423576	-0.000110	20.853673
1325.347399	-2.977900	3.225500	-9.604800	25.434858	-0.000110	20.857416
1326.348986	-2.983300	3.226100	-9.623300	25.464481	-0.000112	20.860609
1327.349162	-2.990900	3.226400	-9.648800	25.460757	-0.000111	20.848810
1328.349133	-2.982500	3.224700	-9.616400	25.458321	-0.000110	20.842570
1329.352407	-2.989500	3.226000	-9.642900	25.472211	-0.000109	20.856992
1330.349595	-2.990200	3.224300	-9.640300	25.472958	-0.000109	20.853001
1331.349842	-2.995600	3.223300	-9.654100	25.475470	-0.000109	20.826601
1332.351669	-2.964700	3.224500	-9.558600	25.484487	-0.000109	20.849406
1333.349760	-3.004000	3.220500	-9.673300	25.492271	-0.000107	20.856274
1334.351636	-2.993800	3.223100	-9.649000	25.459637	-0.000110	20.853849
1335.350573	-2.963700	3.222800	-9.550400	25.467915	-0.000109	20.837506
1336.351869	-3.017600	3.221000	-9.718400	25.486233	-0.000110	20.842625
1337.353233	-3.005500	3.222300	-9.682900	25.452755	-0.000108	20.826550
1338.352491	-3.007400	3.220600	-9.684000	25.487027	-0.000109	20.841525
1339.353373	-2.999400	3.220300	-9.657700	25.507280	-0.000110	20.827725
1340.353706	-2.983400	3.220200	-9.606300	25.479673	-0.000108	20.825606
1341.353071	-2.994500	3.219500	-9.640300	25.493291	-0.000109	20.828375
1342.354118	-2.990500	3.218800	-9.624300	25.488548	-0.000110	20.843527
1343.354674	-2.996600	3.217900	-9.642000	25.497766	-0.000109	20.825757
1344.351782	-2.994600	3.217300	-9.633600	25.500352	-0.000108	20.834044
1345.354722	-2.981800	3.218300	-9.595600	25.486212	-0.000109	20.814629
1346.353610	-2.985200	3.216700	-9.601400	25.508801	-0.000105	20.831623
1347.353069	-3.002400	3.216300	-9.655400	25.510267	-0.000109	20.828354
1348.354779	-3.007400	3.214600	-9.666200	25.523366	-0.000110	20.812585
1349.353757	-3.001100	3.215200	-9.647800	25.521824	-0.000109	20.834744
1350.353858	-2.995200	3.214500	-9.626600	25.517107	-0.000110	20.830481
1351.354607	-3.016800	3.214400	-9.696300	25.517007	-0.000108	20.820898
1352.354990	-2.996700	3.214700	-9.632700	25.535103	-0.000109	20.828165
1353.357658	-3.008000	3.213200	-9.663700	25.532144	-0.000109	20.825194
1354.353537	-2.990100	3.211300	-9.601300	25.540868	-0.000108	20.822101
1355.355475	-3.009800	3.211700	-9.665400	25.539728	-0.000107	20.812895
1356.357471	-2.995900	3.211900	-9.620800	25.559879	-0.000110	20.832658
1357.355319	-2.987500	3.210800	-9.591100	25.540208	-0.000108	20.832817
1358.355608	-3.005000	3.210400	-9.646500	25.548581	-0.000110	20.817519
1359.359778	-3.000000	3.209200	-9.626000	25.560932	-0.000109	20.810482
1360.358348	-2.985000	3.210900	-9.583400	25.541553	-0.000111	20.808564
1361.357452	-2.989200	3.208600	-9.590300	25.572195	-0.000108	20.808518
1362.359115	-2.989000	3.209200	-9.591700	25.566384	-0.000110	20.826863
1363.359560	-2.986700	3.207800	-9.579900	25.585795	-0.000109	20.836400
1364.361320	-2.998900	3.208200	-9.620100	25.569471	-0.000109	20.819058
1365.359576	-3.001500	3.207800	-9.626400	25.559456	-0.000108	20.830337
1366.364728	-2.991700	3.206700	-9.592400	25.563090	-0.000109	20.837306
1367.360158	-2.991800	3.205400	-9.589200	25.566646	-0.000109	20.811954
1368.360546	-2.980400	3.207000	-9.557200	25.596987	-0.000109	20.824881
1369.359711	-3.007800	3.204800	-9.638600	25.566675	-0.000108	20.792068
1370.361053	-2.985000	3.204200	-9.562800	25.571572	-0.000108	20.814055
1371.361862	-3.015600	3.203000	-9.657600	25.570782	-0.000109	20.810891
1372.360646	-3.016000	3.203000	-9.659100	25.578014	-0.000111	20.813413
1373.360343	-3.017000	3.202400	-9.660000	25.563303	-0.000109	20.809070
1374.362845	-3.028800	3.202800	-9.700000	25.573418	-0.000109	20.808323
1375.359201	-2.993700	3.202600	-9.586300	25.589596	-0.000110	20.787586
1376.361376	-2.990500	3.202100	-9.575300	25.578097	-0.000108	20.815393
1377.360858	-2.998700	3.200900	-9.597900	25.598921	-0.000107	20.822556
1378.361764	-3.013400	3.199700	-9.640700	25.605584	-0.000108	20.797480
1379.363017	-3.008200	3.199600	-9.624500	25.621636	-0.000110	20.806489
1380.362423	-3.006300	3.198700	-9.615700	25.605313	-0.000108	20.810009
1381.360699	-3.002200	3.198300	-9.601000	25.602309	-0.000109	20.812682
1382.362794	-3.020000	3.196900	-9.654100	25.619702	-0.000108	20.822564
1383.361219	-2.993300	3.197000	-9.568900	25.622463	-0.000108	20.804000
1384.364268	-3.001700	3.196100	-9.592100	25.624381	-0.000109	20.809719
1385.364067	-3.002300	3.196200	-9.595000	25.634792	-0.000108	20.801684
1386.361954	-2.995400	3.197300	-9.576700	25.644355	-0.000109	20.817453
1387.362784	-2.996100	3.193800	-9.567600	25.628387	-0.000107	20.807105
1388.363800	-3.006300	3.194900	-9.603600	25.645458	-0.000108	20.786318
1389.363465	-2.996900	3.194500	-9.572200	25.653558	-0.000109	20.821955
1390.363584	-2.986400	3.193000	-9.534500	25.650179	-0.000112	20.819034
1391.363074	-2.980500	3.193300	-9.517000	25.667174	-0.000106	20.810026
1392.365277	-3.009900	3.193700	-9.612000	25.647250	-0.000106	20.806610
1393.365000	-2.986000	3.191600	-9.529000	25.651202	-0.000107	20.802519
1394.364425	-3.002700	3.191100	-9.580300	25.656892	-0.000108	20.797328
1395.366911	-2.987400	3.191800	-9.534100	25.673988	-0.000110	20.831093
1396.364348	-2.994000	3.190300	-9.550600	25.664053	-0.000110	20.806891
1397.364152	-3.001500	3.189700	-9.572500	25.683508	-0.000108	20.801776
1398.364989	-3.008000	3.188600	-9.589800	25.674739	-0.000108	20.812408
1399.364655	-2.997200	3.189400	-9.556900	25.676753	-0.000107	20.794516
1400.368027	-2.995500	3.187900	-9.548700	25.684335	-0.000107	20.800710
1401.364149	-2.984500	3.188100	-9.514600	25.677822	-0.000107	20.788952
1402.364792	-3.003900	3.186800	-9.570800	25.711494	-0.000107	20.818505
1403.365532	-2.985300	3.185900	-9.510100	25.731095	-0.000108	20.807373
1404.365020	-2.977700	3.185900	-9.484700	25.703991	-0.000106	20.786313
1405.368436	-2.987400	3.184800	-9.513000	25.705779	-0.000109	20.795221
1406.367438	-2.987900	3.184700	-9.514600	25.710032	-0.000110	20.808027
1407.365479	-3.005600	3.183800	-9.568100	25.711223	-0.000109	20.797370
1408.367325	-2.998100	3.182900	-9.542200	25.717188	-0.000109	20.793878
1409.367485	-3.002800	3.184200	-9.560600	25.730059	-0.000107	20.790685
1410.365619	-2.998300	3.182100	-9.540100	25.723847	-0.000107	20.791084
1411.367994	-2.976500	3.182900	-9.473500	25.702358	-0.000108	20.783250
1412.368551	-2.972100	3.181100	-9.453800	25.718207	-0.000107	20.802963
1413.368031	-3.015600	3.180000	-9.589100	25.728668	-0.000107	20.802564
1414.369311	-3.006600	3.180200	-9.560500	25.756845	-0.000108	20.779658
1415.368567	-3.000700	3.180400	-9.542600	25.728944	-0.000107	20.799048
1416.372736	-2.995700	3.178000	-9.519000	25.730264	-0.000107	20.820288
1417.369658	-3.028500	3.177200	-9.621000	25.748548	-0.000106	20.791239
1418.370404	-2.986100	3.177600	-9.487600	25.738414	-0.000108	20.797655
1419.376322	-2.980000	3.177200	-9.467700	25.741468	-0.000108	20.792661
1420.370536	-3.005200	3.176200	-9.544200	25.752225	-0.000109	20.793509
1421.370335	-3.010800	3.174400	-9.557300	25.729670	-0.000107	20.806416
1422.373725	-3.019600	3.174400	-9.584500	25.761223	-0.000106	20.809185
1423.371159	-3.010100	3.173900	-9.552300	25.746589	-0.000108	20.777891
1424.373199	-3.029400	3.172900	-9.611500	25.758365	-0.000109	20.776917
1425.372780	-2.998900	3.173700	-9.517400	25.755934	-0.000110	20.798183
1426.372956	-2.988600	3.173400	-9.482900	25.740778	-0.000107	20.798607
1427.376720	-3.024600	3.172000	-9.593100	25.742144	-0.000106	20.773900
1428.373912	-3.013500	3.171400	-9.556200	25.764807	-0.000106	20.774853
1429.373280	-3.024400	3.170700	-9.588700	25.779239	-0.000107	20.786980
1430.374623	-2.988700	3.171200	-9.476500	25.758641	-0.000105	20.792367
1431.375221	-3.019900	3.169900	-9.571200	25.771165	-0.000106	20.789774
1432.376671	-3.009600	3.169400	-9.538300	25.766891	-0.000107	20.765567
1433.376186	-2.999900	3.168000	-9.503100	25.751535	-0.000106	20.775747
1434.375263	-3.020200	3.167600	-9.566000	25.784428	-0.000106	20.799778
1435.374353	-2.996800	3.167900	-9.492400	25.792156	-0.000106	20.786203
1436.374959	-3.002100	3.167300	-9.507300	25.786241	-0.000105	20.797331
1437.373019	-3.004900	3.165100	-9.510000	25.796404	-0.000106	20.798057
1438.376493	-3.027800	3.164400	-9.580000	25.794069	-0.000107	20.788125
1439.374556	-3.015300	3.163700	-9.538500	25.802962	-0.000107	20.771454
1440.375051	-2.983400	3.164200	-9.439000	25.792895	-0.000107	20.790265
1441.375277	-3.007700	3.164700	-9.517800	25.824425	-0.000107	20.774521
1442.374424	-3.012400	3.162300	-9.524900	25.805172	-0.000107	20.802123
1443.376544	-2.997600	3.163000	-9.480100	25.786788	-0.000109	20.768957
1444.374969	-3.027700	3.160500	-9.567600	25.809395	-0.000106	20.794037
1445.374368	-3.033300	3.159200	-9.581900	25.807879	-0.000106	20.757900
1446.377470	-2.989600	3.160700	-9.448700	25.824174	-0.000105	20.771425
1447.374656	-3.003400	3.159900	-9.489400	25.830260	-0.000108	20.753356
1448.375494	-3.005300	3.160000	-9.496400	25.834609	-0.000106	20.786648
1449.379004	-2.997500	3.159200	-9.468900	25.828941	-0.000106	20.760091
1450.374611	-2.994600	3.157600	-9.455000	25.848493	-0.000105	20.769302
1451.379425	-3.001700	3.158300	-9.479600	25.843702	-0.000107	20.765911
1452.376578	-2.986000	3.155600	-9.421000	25.835628	-0.000107	20.770128
1453.377154	-3.009000	3.155300	-9.493100	25.852002	-0.000107	20.770455
1454.380039	-3.011500	3.154000	-9.497300	25.851898	-0.000108	20.750910
1455.376417	-3.013300	3.153700	-9.501800	25.839103	-0.000107	20.754653
1456.376589	-3.018500	3.153700	-9.518300	25.836768	-0.000107	20.759420
1457.376492	-3.004800	3.153800	-9.475800	25.840398	-0.000107	20.773498
1458.378606	-3.010300	3.150900	-9.484400	25.863723	-0.000106	20.770376
1459.378942	-3.011400	3.151000	-9.488100	25.854805	-0.000107	20.767581
1460.377761	-2.995900	3.151200	-9.440000	25.848447	-0.000108	20.755030
1461.378213	-3.008400	3.149600	-9.473800	25.859057	-0.000107	20.759999
1462.381777	-2.994800	3.149000	-9.430100	25.888045	-0.000107	20.763515
1463.379738	-3.034400	3.147400	-9.549000	25.866805	-0.000106	20.730797
1464.381381	-3.000900	3.148200	-9.445900	25.871751	-0.000109	20.747620
1465.382345	-3.019000	3.146600	-9.498900	25.868025	-0.000106	20.756205
1466.381782	-3.014800	3.145500	-9.482100	25.887226	-0.000108	20.728078
1467.381426	-3.002400	3.146400	-9.446000	25.869040	-0.000107	20.738732
1468.381791	-3.033000	3.144500	-9.536200	25.882110	-0.000109	20.765613
1469.382700	-2.991000	3.143700	-9.402500	25.917212	-0.000107	20.754883
1470.382729	-3.015100	3.143400	-9.476900	25.893763	-0.000109	20.751241
1471.381871	-3.026700	3.141300	-9.506700	25.907326	-0.000109	20.738787
1472.383040	-2.993300	3.141500	-9.402500	25.892673	-0.000108	20.752991
1473.383462	-2.991400	3.141700	-9.397500	25.901140	-0.000106	20.758177
1474.382749	-3.005200	3.140200	-9.435000	25.906732	-0.000109	20.741984
1475.387950	-2.994400	3.141300	-9.405400	25.906035	-0.000107	20.743654
1476.388541	-3.013900	3.138600	-9.458200	25.914727	-0.000109	20.756180
1477.386222	-2.993600	3.139000	-9.395200	25.902159	-0.000109	20.760150
1478.385194	-2.966000	3.138900	-9.308800	25.933409	-0.000108	20.757879
1479.386140	-3.004000	3.138000	-9.425100	25.916961	-0.000107	20.765538
1480.387347	-2.985500	3.136300	-9.361700	25.910333	-0.000108	20.761249
1481.387093	-2.963600	3.135900	-9.292100	25.923172	-0.000108	20.763242
1482.387713	-3.001700	3.135200	-9.410100	25.912396	-0.000106	20.752890
1483.391050	-2.989400	3.133900	-9.367400	25.923694	-0.000109	20.744800
1484.387965	-2.988700	3.133400	-9.364500	25.897510	-0.000108	20.749315
1485.387136	-2.979600	3.132200	-9.331700	25.915149	-0.000108	20.752336
1486.389066	-2.981700	3.132600	-9.339300	25.926401	-0.000106	20.746571
1487.388208	-2.992400	3.130200	-9.366100	25.934896	-0.000108	20.747045
1488.388611	-2.990000	3.130000	-9.357400	25.937674	-0.000106	20.745094
1489.389653	-3.011600	3.129900	-9.424800	25.934821	-0.000106	20.740331
1490.389946	-3.010300	3.128600	-9.416800	25.922797	-0.000107	20.728724
1491.394706	-3.001300	3.129500	-9.391600	25.949920	-0.000108	20.735585
1492.391095	-2.966400	3.128200	-9.278400	25.953316	-0.000107	20.743264
1493.391626	-3.008400	3.127400	-9.406900	25.942164	-0.000108	20.725422
1494.391250	-3.010700	3.126400	-9.411300	25.949816	-0.000108	20.723626
1495.393373	-2.986300	3.126000	-9.334000	25.960817	-0.000107	20.721876
1496.396072	-3.004000	3.126000	-9.388700	25.946187	-0.000107	20.739421
1497.397724	-3.021300	3.123800	-9.437100	25.990375	-0.000108	20.743986
1498.393509	-3.014000	3.121800	-9.408100	25.961360	-0.000107	20.743286
1499.394556	-3.001700	3.121600	-9.368700	25.979345	-0.000106	20.722946
1500.392176	-3.024500	3.121100	-9.438800	25.990918	-0.000108	20.713710
1501.393024	-2.983800	3.122100	-9.314700	25.968461	-0.000108	20.718175
1502.396811	-2.997200	3.119700	-9.349100	25.995533	-0.000107	20.740160
1503.395715	-2.994300	3.118900	-9.337900	25.981575	-0.000108	20.727558
1504.394690	-3.024300	3.118200	-9.429000	25.998043	-0.000107	20.718972
1505.394973	-3.008400	3.118100	-9.379900	25.994264	-0.000107	20.738884
1506.394439	-3.010600	3.116800	-9.382600	26.008869	-0.000110	20.724159
1507.393722	-2.995500	3.115100	-9.329900	26.004049	-0.000108	20.711256
1508.394498	-3.006300	3.114500	-9.362200	26.013066	-0.000109	20.741179
1509.394858	-3.019700	3.113500	-9.401100	25.991228	-0.000108	20.714021
1510.401059	-3.016700	3.112800	-9.389600	26.018354	-0.000108	20.716144
1511.395564	-2.991200	3.112600	-9.309300	26.021954	-0.000108	20.731142
1512.394734	-3.006100	3.111900	-9.353200	26.006033	-0.000107	20.717991
1513.397904	-2.982200	3.110300	-9.274300	26.012018	-0.000107	20.738704
1514.395847	-3.000100	3.110400	-9.329600	26.020559	-0.000108	20.719783
1515.395073	-2.984200	3.108500	-9.276000	26.028678	-0.000109	20.731734
1516.395648	-2.982400	3.108500	-9.269300	26.025500	-0.000106	20.727118
1517.396742	-3.000600	3.109300	-9.328300	26.038609	-0.000109	20.702830
1518.398402	-2.997800	3.105800	-9.309700	26.048624	-0.000109	20.729963
1519.397455	-2.996000	3.106800	-9.307000	26.049514	-0.000109	20.707622
1520.397405	-3.006600	3.104100	-9.331800	26.052642	-0.000109	20.706972
1521.398420	-2.988700	3.104300	-9.276600	26.059796	-0.000107	20.708470
1522.399227	-3.014400	3.101900	-9.349600	26.076931	-0.000109	20.701030
1523.401684	-2.973900	3.103700	-9.229000	26.065480	-0.000108	20.717026
1524.401504	-2.989600	3.102200	-9.272700	26.066820	-0.000109	20.725012
1525.401238	-2.988600	3.099100	-9.260500	26.090090	-0.000107	20.728952
1526.402189	-3.003700	3.099000	-9.307800	26.077595	-0.000108	20.721613
1527.401560	-3.012500	3.098300	-9.332100	26.086611	-0.000109	20.724509
1528.402442	-2.993500	3.097900	-9.272400	26.105137	-0.000110	20.710405
1529.404691	-2.990400	3.098000	-9.263600	26.069097	-0.000108	20.704064
1530.402392	-2.998200	3.096100	-9.282100	26.096910	-0.000108	20.722054
1531.403245	-2.972400	3.096200	-9.202100	26.079299	-0.000107	20.698668
1532.404981	-2.977300	3.095300	-9.214100	26.098873	-0.000109	20.712646
1533.405018	-2.998900	3.092400	-9.272300	26.080715	-0.000108	20.705781
1534.408146	-2.994900	3.092800	-9.261100	26.076765	-0.000107	20.705605
1535.404460	-3.007100	3.091400	-9.295100	26.090671	-0.000107	20.728114
1536.405340	-3.009900	3.090600	-9.301200	26.091987	-0.000109	20.720426
1537.404674	-3.035900	3.090400	-9.380100	26.111180	-0.000107	20.725487
1538.406023	-3.017400	3.088100	-9.317500	26.109243	-0.000107	20.716427
1539.410151	-2.990500	3.087900	-9.233300	26.099383	-0.000107	20.703675
1540.411162	-3.000200	3.087700	-9.263000	26.130553	-0.000107	20.700381
1541.407347	-2.988600	3.087600	-9.225600	26.129730	-0.000108	20.741282
1542.410074	-2.980200	3.086200	-9.196000	26.136637	-0.000106	20.717401
1543.408671	-2.991500	3.084600	-9.226700	26.119645	-0.000108	20.699852
1544.408104	-3.010900	3.084000	-9.285000	26.154193	-0.000106	20.722714
1545.412004	-2.997700	3.083700	-9.243200	26.138892	-0.000106	20.712555
1546.408826	-2.996500	3.081000	-9.230800	26.146392	-0.000108	20.721988
1547.408581	-2.984700	3.080400	-9.192500	26.133848	-0.000109	20.725030
1548.407685	-3.015600	3.079700	-9.286900	26.141123	-0.000108	20.728547
1549.408514	-3.017800	3.077700	-9.285800	26.139235	-0.000106	20.712899
1550.409675	-3.021900	3.077200	-9.298200	26.162482	-0.000108	20.715870
1551.408688	-2.993900	3.077400	-9.212800	26.145323	-0.000107	20.726130
1552.408767	-3.005900	3.075300	-9.243400	26.159526	-0.000107	20.728073
1553.411100	-2.991900	3.075000	-9.199400	26.166946	-0.000107	20.728891
1554.408511	-3.017500	3.072400	-9.269400	26.171076	-0.000109	20.722609
1555.408964	-2.997700	3.071900	-9.208300	26.142910	-0.000106	20.718963
1556.410466	-2.975300	3.071100	-9.136400	26.157835	-0.000108	20.722106
1557.409354	-2.992000	3.069200	-9.182600	26.146860	-0.000109	20.717716
1558.409739	-2.998600	3.068400	-9.199900	26.155726	-0.000108	20.710503
1559.409976	-2.990000	3.067300	-9.170100	26.172366	-0.000107	20.718690
1560.410646	-3.012500	3.067000	-9.238500	26.169807	-0.000106	20.723230
1561.414062	-3.001200	3.065600	-9.199400	26.182075	-0.000107	20.715169
1562.409987	-3.000700	3.064100	-9.192400	26.161664	-0.000108	20.697502
1563.411289	-2.999300	3.063400	-9.187300	26.192610	-0.000108	20.721489
1564.410899	-3.001800	3.062300	-9.190800	26.191491	-0.000108	20.717045
1565.409717	-2.978400	3.061900	-9.119300	26.188184	-0.000107	20.732215
1566.413265	-2.981100	3.061100	-9.124400	26.193500	-0.000108	20.721434
1567.413795	-3.010800	3.058700	-9.207800	26.197346	-0.000109	20.730989
1568.410821	-2.997300	3.058400	-9.166300	26.189328	-0.000108	20.718190
1569.414054	-3.012200	3.055800	-9.204400	26.203605	-0.000107	20.710725
1570.412224	-3.024300	3.055200	-9.238600	26.223151	-0.000109	20.719462
1571.412981	-3.004700	3.053500	-9.174600	26.217664	-0.000106	20.708258
1572.411278	-2.985000	3.054100	-9.115900	26.219970	-0.000106	20.720058
1573.411698	-2.989200	3.052500	-9.123800	26.228513	-0.000108	20.732437
1574.412110	-3.003100	3.051900	-9.164200	26.216892	-0.000107	20.734036
1575.412506	-3.010800	3.051200	-9.186000	26.224513	-0.000107	20.701863
1576.413918	-2.968400	3.049700	-9.051600	26.244906	-0.000108	20.726151
1577.412654	-3.008700	3.047400	-9.167500	26.238743	-0.000105	20.718061
1578.412599	-3.018700	3.047100	-9.197200	26.224091	-0.000105	20.724674
1579.415526	-3.013300	3.045300	-9.175300	26.242814	-0.000106	20.716936
1580.411174	-3.012000	3.044000	-9.167900	26.246489	-0.000106	20.724422
1581.412523	-3.009400	3.044600	-9.161400	26.252101	-0.000107	20.736227
1582.415879	-3.013700	3.041800	-9.165600	26.241770	-0.000106	20.720155
1583.412843	-2.980600	3.042400	-9.067000	26.253616	-0.000106	20.735379
1584.413435	-3.003600	3.040200	-9.129900	26.241570	-0.000107	20.731808
1585.412597	-2.992900	3.039000	-9.095000	26.249616	-0.000107	20.726143
1586.414311	-2.995600	3.037800	-9.099000	26.275095	-0.000106	20.724720
1587.417034	-3.032600	3.035600	-9.205300	26.258335	-0.000106	20.727318
1588.414112	-2.997100	3.035300	-9.096100	26.269855	-0.000107	20.719454
1589.413707	-2.964600	3.035800	-8.999700	26.301767	-0.000107	20.704108
1590.413427	-3.010200	3.032000	-9.125300	26.283220	-0.000105	20.747586
1591.413743	-3.008200	3.032700	-9.121900	26.283738	-0.000108	20.733407
1592.417498	-3.008600	3.030700	-9.117200	26.311625	-0.000106	20.742466
1593.417219	-3.040200	3.029000	-9.207500	26.308848	-0.000104	20.727821
1594.416298	-3.007300	3.027900	-9.104900	26.306339	-0.000105	20.748060
1595.416573	-3.002800	3.026600	-9.088300	26.292878	-0.000105	20.742118
1596.415414	-3.001500	3.026700	-9.083200	26.321562	-0.000105	20.719735
1597.415898	-3.002600	3.024500	-9.080300	26.316765	-0.000106	20.726294
1598.416728	-3.008400	3.023500	-9.095300	26.312222	-0.000106	20.745437
1599.416471	-3.011000	3.022500	-9.099900	26.304552	-0.000107	20.738203
1600.417093	-3.010600	3.020700	-9.092900	26.304973	-0.000105	20.748110
1601.417617	-2.999300	3.020100	-9.057800	26.310710	-0.000106	20.730167
1602.416710	-3.003500	3.018300	-9.064200	26.346116	-0.000105	20.734930
1603.420871	-3.025700	3.017800	-9.129900	26.332856	-0.000107	20.729189
1604.418428	-3.007100	3.016100	-9.068500	26.320518	-0.000107	20.740498
1605.419150	-2.997700	3.015800	-9.038600	26.338693	-0.000105	20.735530
1606.419156	-2.996800	3.014600	-9.033000	26.322476	-0.000105	20.735828
1607.420076	-3.013900	3.012800	-9.079100	26.334446	-0.000107	20.747858
1608.419164	-3.016900	3.010500	-9.079800	26.337223	-0.000105	20.744959
1609.421253	-2.984700	3.009800	-8.982500	26.350809	-0.000107	20.734905
1610.422925	-2.990300	3.008200	-8.994400	26.363572	-0.000106	20.730662
1611.420203	-2.981900	3.007100	-8.966500	26.347853	-0.000107	20.744737
1612.421690	-2.954700	3.007400	-8.885400	26.371242	-0.000106	20.750225
1613.424559	-2.990600	3.003700	-8.982200	26.371342	-0.000107	20.747481
1614.421824	-2.995300	3.003500	-8.995600	26.371271	-0.000106	20.728442
1615.423859	-3.018100	3.002900	-9.061500	26.371363	-0.000107	20.733751
1616.423550	-2.980800	3.001700	-8.946300	26.386439	-0.000107	20.740842
1617.424279	-3.006500	2.999500	-9.016200	26.362253	-0.000107	20.767270
1618.426120	-2.985100	2.998700	-8.950800	26.402775	-0.000105	20.749201
1619.423128	-3.010900	2.995200	-9.016900	26.388351	-0.000108	20.737548
1620.423703	-2.985000	2.994300	-8.936600	26.403548	-0.000106	20.749503
1621.423059	-2.986500	2.993600	-8.938600	26.387532	-0.000107	20.761857
1622.423291	-2.985500	2.993800	-8.936400	26.376828	-0.000107	20.742563
1623.428780	-3.011000	2.991300	-9.005600	26.400045	-0.000108	20.738870
1624.424077	-2.978200	2.991700	-8.908200	26.412657	-0.000104	20.744435
1625.424462	-2.989600	2.990400	-8.939000	26.392271	-0.000107	20.750972
1626.424698	-2.986600	2.987900	-8.923100	26.409802	-0.000107	20.755790
1627.424101	-2.956500	2.986500	-8.828400	26.411539	-0.000108	20.749000
1628.426390	-3.001400	2.985500	-8.959000	26.391871	-0.000108	20.748199
1629.426385	-2.999500	2.983900	-8.949400	26.422164	-0.000106	20.756835
1630.426245	-2.975800	2.981600	-8.871400	26.418565	-0.000109	20.755588
1631.428298	-3.022000	2.981500	-9.009400	26.423850	-0.000107	20.738615
1632.426066	-3.004700	2.980200	-8.953800	26.440011	-0.000106	20.746323
1633.427271	-3.010800	2.978500	-8.965500	26.434154	-0.000105	20.753239
1634.428679	-3.010900	2.976200	-8.959600	26.426084	-0.000105	20.764094
1635.426739	-3.037500	2.974700	-9.034900	26.444253	-0.000105	20.760545
1636.427392	-2.980100	2.975100	-8.865000	26.433482	-0.000107	20.751615
1637.428180	-2.992600	2.974400	-8.900100	26.448799	-0.000107	20.743776
1638.427047	-2.990200	2.971200	-8.883500	26.471464	-0.000105	20.780783
1639.430728	-2.992800	2.969800	-8.887200	26.475563	-0.000106	20.764988
1640.428481	-2.995600	2.968600	-8.891700	26.479955	-0.000107	20.783153
1641.427491	-2.971400	2.968400	-8.818600	26.483582	-0.000108	20.765937
1642.427855	-2.977900	2.966900	-8.834300	26.466500	-0.000105	20.759198
1643.429170	-2.972000	2.965800	-8.812900	26.481445	-0.000108	20.767582
1644.427268	-3.007700	2.962100	-8.908100	26.491451	-0.000106	20.756302
1645.429556	-3.003300	2.960800	-8.891400	26.485515	-0.000107	20.768828
1646.427885	-3.021700	2.959200	-8.940700	26.499542	-0.000106	20.743571
1647.431463	-2.981200	2.960300	-8.824300	26.509198	-0.000106	20.765131
1648.427567	-2.987500	2.957600	-8.834700	26.508951	-0.000107	20.764884
1649.429454	-3.001600	2.956400	-8.873200	26.502397	-0.000106	20.770150
1650.428690	-3.000300	2.953400	-8.859900	26.508376	-0.000107	20.772840
1651.430889	-3.004700	2.952900	-8.871800	26.514236	-0.000106	20.769248
1652.432293	-3.016200	2.952100	-8.902800	26.528985	-0.000108	20.762261
1653.428995	-3.023500	2.950500	-8.919300	26.498423	-0.000107	20.757146
1654.430641	-2.959000	2.951100	-8.730600	26.543061	-0.000107	20.761711
1655.431318	-2.969500	2.949300	-8.757100	26.516870	-0.000107	20.761938
1656.430161	-3.003300	2.947700	-8.852700	26.507929	-0.000107	20.788512
1657.432832	-3.004600	2.946100	-8.850900	26.504973	-0.000106	20.785541
1658.429691	-2.992000	2.944600	-8.808900	26.511381	-0.000107	20.773490
1659.429749	-3.001600	2.942000	-8.829400	26.506585	-0.000108	20.768195
1660.435183	-2.998000	2.939600	-8.811500	26.550433	-0.000108	20.758690
1661.431142	-3.010900	2.938400	-8.846000	26.559191	-0.000108	20.771288
1662.430975	-2.989400	2.937700	-8.781300	26.560831	-0.000108	20.774833
1663.431588	-3.010900	2.936600	-8.840900	26.583297	-0.000106	20.784614
1664.434515	-3.001200	2.933700	-8.803200	26.565369	-0.000105	20.768015
1665.433915	-3.032300	2.931800	-8.888400	26.561103	-0.000109	20.779373
1666.432851	-2.996100	2.931600	-8.782800	26.563457	-0.000107	20.758506
1667.433815	-3.019300	2.930900	-8.848600	26.565173	-0.000107	20.776827
1668.435909	-2.986000	2.928400	-8.742800	26.593395	-0.000106	20.776747
1669.433121	-2.995200	2.927200	-8.767000	26.576464	-0.000106	20.763521
1670.435917	-3.012800	2.923600	-8.806900	26.581949	-0.000106	20.777570
1671.435070	-3.008700	2.923000	-8.793800	26.580334	-0.000108	20.776894
1672.436664	-2.991100	2.921600	-8.737700	26.569038	-0.000108	20.764591
1673.437641	-2.986600	2.921800	-8.725500	26.601234	-0.000106	20.782257
1674.438038	-2.995700	2.919900	-8.745900	26.601531	-0.000108	20.787771
1675.437936	-3.006100	2.917100	-8.768200	26.605279	-0.000106	20.777788
1676.436615	-3.002300	2.917100	-8.757000	26.619429	-0.000107	20.779211
1677.439668	-2.997100	2.915200	-8.736000	26.635165	-0.000104	20.765632
1678.436673	-3.001900	2.912700	-8.742900	26.646310	-0.000107	20.788690
1679.439124	-2.999300	2.912000	-8.732400	26.645363	-0.000106	20.791057
1680.440680	-3.019300	2.909200	-8.782400	26.646381	-0.000107	20.782598
1681.440490	-3.008800	2.907900	-8.748000	26.646528	-0.000108	20.796021
1682.439988	-2.976000	2.906300	-8.648300	26.640446	-0.000108	20.783269
1683.441876	-3.011600	2.902700	-8.740500	26.670507	-0.000107	20.769393
1684.439626	-3.002100	2.903200	-8.713700	26.648485	-0.000109	20.766220
1685.440517	-3.004800	2.901300	-8.716500	26.685570	-0.000108	20.794020
1686.445145	-3.013400	2.900100	-8.737700	26.654934	-0.000106	20.804947
1687.441348	-3.006400	2.897100	-8.709200	26.676008	-0.000107	20.790097
1688.440971	-3.040000	2.895900	-8.802100	26.689114	-0.000107	20.791419
1689.443184	-2.999200	2.895500	-8.683200	26.698297	-0.000106	20.764614
1690.440910	-3.004300	2.892700	-8.689500	26.715451	-0.000108	20.785653
1691.442948	-3.038600	2.889900	-8.779300	26.711924	-0.000108	20.781159
1692.444686	-2.995000	2.889600	-8.653000	26.719963	-0.000109	20.784500
1693.441784	-3.030000	2.887700	-8.748600	26.724654	-0.000105	20.778311
1694.441970	-3.006200	2.885100	-8.672000	26.745305	-0.000108	20.797176
1695.445675	-3.038000	2.884200	-8.761500	26.733314	-0.000106	20.785121
1696.441413	-3.027600	2.883300	-8.728900	26.740164	-0.000107	20.800068
1697.442159	-3.022300	2.880600	-8.704500	26.768285	-0.000107	20.797047
1698.445829	-3.013000	2.878700	-8.673100	26.755527	-0.000107	20.783745
1699.441682	-3.041200	2.876100	-8.746100	26.766916	-0.000107	20.805154
1700.443422	-3.030100	2.874800	-8.710400	26.756295	-0.000105	20.784517
1701.444762	-2.976900	2.874000	-8.553900	26.782183	-0.000104	20.785415
1702.441267	-2.994600	2.870500	-8.594500	26.772997	-0.000106	20.814112
1703.441690	-3.017700	2.869600	-8.658500	26.795312	-0.000105	20.803358
1704.445544	-3.011300	2.867800	-8.634300	26.786152	-0.000106	20.805527
1705.442572	-2.984700	2.866400	-8.554100	26.807077	-0.000107	20.790056
1706.442855	-3.007700	2.864200	-8.613600	26.797816	-0.000107	20.773633
1707.447230	-2.960800	2.862800	-8.475400	26.796452	-0.000106	20.779373
1708.441921	-2.989300	2.860800	-8.551300	26.788756	-0.000105	20.813361
1709.442880	-3.028200	2.857000	-8.650500	26.793768	-0.000104	20.818875
1710.444963	-3.015400	2.856100	-8.611300	26.799031	-0.000107	20.803303
1711.442987	-3.024000	2.853600	-8.627200	26.838072	-0.000105	20.804625
1712.441945	-2.996400	2.854000	-8.551000	26.805708	-0.000106	20.802905
1713.446831	-3.048900	2.849000	-8.685600	26.849665	-0.000106	20.806324
1714.442707	-3.001800	2.847900	-8.547700	26.824371	-0.000105	20.798436
1715.444612	-2.979000	2.846800	-8.479800	26.837379	-0.000104	20.799661
1716.444382	-2.989600	2.845200	-8.505200	26.842538	-0.000106	20.820021
1717.445283	-3.014900	2.841900	-8.567400	26.852244	-0.000104	20.803228
1718.444664	-3.033000	2.839600	-8.611100	26.850583	-0.000107	20.794920
1719.446477	-3.002400	2.838400	-8.521000	26.854777	-0.000105	20.819051
1720.441776	-3.010500	2.837100	-8.540400	26.851180	-0.000104	20.820650
1721.442882	-3.017400	2.834800	-8.552100	26.875204	-0.000105	20.823469
1722.446428	-3.002600	2.832500	-8.503800	26.883467	-0.000106	20.827984
1723.445188	-3.013100	2.830600	-8.527200	26.886893	-0.000106	20.830955
1724.444731	-3.024900	2.827100	-8.550900	26.886543	-0.000106	20.798835
1725.446424	-3.001000	2.826000	-8.480300	26.866395	-0.000107	20.831206
1726.444767	-2.972600	2.825200	-8.397600	26.890319	-0.000108	20.814486
1727.446829	-2.995300	2.822500	-8.453100	26.890119	-0.000105	20.808595
1728.444900	-3.011000	2.819900	-8.490200	26.901436	-0.000104	20.823767
1729.443532	-3.017200	2.818100	-8.501700	26.907145	-0.000109	20.815283
1730.443850	-2.964700	2.816600	-8.349400	26.906005	-0.000107	20.800387
1731.445583	-3.042700	2.811300	-8.553800	26.926924	-0.000106	20.817154
1732.446202	-2.978000	2.809900	-8.367000	26.935011	-0.000106	20.842830
1733.448991	-2.991100	2.809500	-8.403000	26.926453	-0.000107	20.835646
1734.448864	-2.995600	2.805700	-8.403500	26.925556	-0.000105	20.831899
1735.445954	-3.015200	2.804200	-8.454600	26.961442	-0.000105	20.839062
1736.446175	-3.017100	2.801100	-8.450500	26.960870	-0.000104	20.836116
1737.450280	-3.000700	2.798900	-8.397600	26.982635	-0.000107	20.841881
1738.449732	-2.998400	2.798500	-8.390500	26.965110	-0.000106	20.828526
1739.446340	-3.034500	2.794300	-8.477600	26.984371	-0.000105	20.823713
1740.451671	-3.023200	2.791000	-8.436100	26.985560	-0.000104	20.822538
1741.449404	-3.005400	2.790300	-8.384600	27.011343	-0.000106	20.830922
1742.448791	-2.979000	2.787900	-8.304500	27.027027	-0.000107	20.841479
1743.449976	-2.994000	2.785200	-8.338200	27.002016	-0.000105	20.844302
1744.449439	-2.999900	2.783900	-8.351000	27.027777	-0.000105	20.848397
1745.449924	-3.006800	2.781100	-8.361500	27.019633	-0.000106	20.848742
1746.450689	-2.991500	2.778200	-8.310000	27.028120	-0.000106	20.827406
1747.452578	-2.976300	2.776100	-8.261900	27.031495	-0.000105	20.818472
1748.450716	-3.027200	2.772400	-8.390700	27.034399	-0.000106	20.847470
1749.453700	-3.027400	2.770400	-8.386500	27.052437	-0.000107	20.842377
1750.450769	-2.987200	2.770000	-8.273800	27.062613	-0.000105	20.828903
1751.452473	-3.003800	2.764900	-8.303200	27.068200	-0.000106	20.832151
1752.458005	-3.013900	2.764300	-8.330600	27.069664	-0.000107	20.853537
1753.456524	-2.983500	2.761400	-8.238400	27.079540	-0.000105	20.862520
1754.456234	-2.976500	2.757900	-8.208100	27.071178	-0.000106	20.859327
1755.454774	-3.027900	2.753800	-8.337200	27.105741	-0.000107	20.856630
1756.455549	-2.979500	2.751400	-8.196900	27.099662	-0.000105	20.831551
1757.454309	-2.983600	2.750200	-8.204200	27.119860	-0.000105	20.845700
1758.454983	-2.997000	2.747500	-8.233600	27.130286	-0.000103	20.860926
1759.455339	-2.989100	2.744400	-8.201800	27.124996	-0.000105	20.860821
1760.457216	-2.985600	2.740900	-8.182200	27.153804	-0.000105	20.846648
1761.456782	-3.020200	2.739000	-8.270500	27.135443	-0.000106	20.844302
1762.458107	-2.994100	2.734500	-8.185800	27.130949	-0.000105	20.840258
1763.455970	-2.992100	2.734000	-8.178100	27.179035	-0.000103	20.874869
1764.455278	-2.985100	2.729000	-8.145200	27.147896	-0.000106	20.853982
1765.455970	-3.019000	2.725800	-8.228500	27.184517	-0.000105	20.850038
1766.456341	-3.010500	2.722000	-8.193800	27.201542	-0.000103	20.851515
1767.458557	-2.995800	2.718900	-8.144600	27.180250	-0.000107	20.874194
1768.457967	-2.990600	2.716500	-8.122800	27.195210	-0.000106	20.860792
1769.458890	-3.005100	2.713600	-8.153700	27.191464	-0.000105	20.871722
1770.461050	-3.013600	2.708700	-8.160300	27.183896	-0.000105	20.855577
1771.460481	-2.983000	2.707700	-8.076100	27.208013	-0.000107	20.844747
1772.458849	-3.022600	2.702100	-8.166600	27.227612	-0.000106	20.853555
1773.460914	-2.986800	2.699600	-8.062400	27.214584	-0.000104	20.840451
1774.457529	-2.993100	2.696300	-8.069300	27.249121	-0.000106	20.854801
1775.459993	-2.973300	2.693900	-8.009000	27.239443	-0.000103	20.853127
1776.459947	-2.972100	2.689300	-7.991900	27.257677	-0.000104	20.852976
1777.463398	-2.970500	2.686700	-7.979800	27.260205	-0.000103	20.855519
1778.462100	-3.006100	2.682200	-8.061900	27.272783	-0.000103	20.843515
1779.459810	-2.977500	2.678600	-7.973900	27.292084	-0.000106	20.854869
1780.464978	-2.969500	2.674300	-7.939600	27.270576	-0.000107	20.842717
1781.461558	-2.972600	2.672000	-7.941500	27.296873	-0.000104	20.843091
1782.462451	-2.985100	2.667600	-7.961500	27.298479	-0.000106	20.844233
1783.468077	-3.011000	2.663600	-8.018700	27.282528	-0.000105	20.834825
1784.462291	-3.010600	2.658600	-8.002300	27.312299	-0.000106	20.821625
1785.464730	-3.003200	2.654600	-7.970600	27.304086	-0.000104	20.822372
1786.468519	-3.072600	2.649000	-8.138800	27.319369	-0.000105	20.834901
1787.464426	-3.005300	2.646500	-7.952000	27.327011	-0.000103	20.826467
1788.465919	-3.000400	2.642900	-7.929000	27.344447	-0.000104	20.852067
1789.467144	-3.031000	2.637100	-7.991700	27.340702	-0.000105	20.844031
1790.468383	-3.028800	2.633800	-7.976700	27.337127	-0.000107	20.825263
1791.465318	-2.977600	2.630300	-7.831600	27.342979	-0.000106	20.823090
1792.467498	-3.014200	2.624800	-7.910500	27.359527	-0.000105	20.818873
1793.467775	-2.991700	2.621300	-7.841700	27.374013	-0.000106	20.832497
1794.469834	-3.010400	2.615500	-7.871900	27.402118	-0.000106	20.828528
1795.470866	-3.003000	2.610000	-7.835500	27.389367	-0.000105	20.827081
1796.467782	-2.987700	2.606200	-7.785700	27.399169	-0.000105	20.843579
1797.468415	-2.985500	2.601000	-7.764200	27.413133	-0.000103	20.841506
1798.468885	-3.007700	2.596800	-7.809900	27.417871	-0.000104	20.811660
1799.472365	-3.000800	2.591700	-7.776100	27.434788	-0.000104	20.820619
1800.471091	-3.015300	2.585800	-7.795800	27.441875	-0.000104	20.810205
1801.470797	-3.001000	2.581200	-7.745500	27.430864	-0.000104	20.824257
1802.471315	-2.992600	2.576600	-7.710100	27.459467	-0.000105	20.812256
1803.469811	-3.012000	2.571500	-7.743200	27.474103	-0.000103	20.827454
1804.471112	-3.002700	2.566200	-7.705300	27.493747	-0.000106	20.811182
1805.475782	-2.972000	2.563800	-7.619300	27.470528	-0.000102	20.807737
1806.471458	-3.011200	2.556400	-7.697000	27.504261	-0.000105	20.801846
1807.471096	-3.032100	2.549200	-7.727600	27.523637	-0.000104	20.826556
1808.476008	-3.007600	2.545500	-7.654800	27.508181	-0.000105	20.819541
1809.473878	-2.982000	2.541700	-7.578000	27.540899	-0.000105	20.815475
1810.473759	-2.962700	2.535600	-7.510300	27.531448	-0.000106	20.799803
1811.479223	-3.017400	2.529000	-7.629300	27.556050	-0.000103	20.812227
1812.474861	-2.997000	2.523200	-7.561400	27.555858	-0.000103	20.826732
1813.475385	-3.028400	2.517200	-7.621500	27.556771	-0.000102	20.814376
1814.475118	-3.026500	2.512000	-7.601000	27.570538	-0.000103	20.819692
1815.477262	-3.004500	2.506200	-7.528300	27.585250	-0.000104	20.805098
1816.473905	-3.018400	2.499000	-7.542000	27.595989	-0.000103	20.815428
