LabVIEW Measurement	
Writer_Version	2
Reader_Version	2
Separator	Tab
Decimal_Separator	.
Multi_Headings	No
X_Columns	One
Time_Pref	Absolute
Operator	admin
Description	Clolumns are: time, Current, Voltage, Power, Battery Temp, and Chamber Temp
Date	2024/08/16
Time	13:59:35.9411449432373046875
***End_of_Header***	
	
Channels	6						
Samples	1	1	1	1	1	1	
Date	2024/09/17	2024/09/17	2024/09/17	2024/09/17	2024/09/17	2024/09/17	
Time	22:54:33.1128230094909667969	22:54:33.1216254234313964844	22:54:33.1286320686340332031	22:54:33.0938062667846679688	22:54:33.0938062667846679688	22:54:33.0938062667846679688	
X_Dimension	Time	Time	Time	Time	Time	Time	
X0	0.0000000000000000E+0	0.0000000000000000E+0	0.0000000000000000E+0	0.0000000000000000E+0	0.0000000000000000E+0	0.0000000000000000E+0	
Delta_X	1.000000	1.000000	1.000000	1.000000	1.000000	1.000000	
***End_of_Header***							
X_Value	Untitled	Untitled 1	Untitled 2	Untitled 3	Untitled 4	Untitled 5	Comment
0.000000	-0.005544	4.097000	-0.022652	20.829558	0.000389	20.858006
0.995960	-3.005400	3.936700	-11.830000	20.836446	0.000387	20.865368
1.996062	-3.008400	3.927800	-11.815000	20.840987	0.000388	20.850943
2.999110	-3.008500	3.923900	-11.804000	20.841563	0.000388	20.860528
4.000513	-2.989100	3.920300	-11.717000	20.838795	0.000387	20.847329
5.001883	-3.003400	3.915700	-11.759000	20.849124	0.000386	20.865244
6.000439	-2.990900	3.912600	-11.701000	20.844959	0.000384	20.838795
7.003630	-3.002100	3.910100	-11.736000	20.855588	0.000385	20.858433
8.001822	-3.017500	3.906800	-11.787000	20.843784	0.000383	20.851371
9.005374	-3.011100	3.906000	-11.761000	20.856487	0.000383	20.856961
10.003340	-3.009000	3.903900	-11.746000	20.863924	0.000379	20.857286
11.001563	-2.988000	3.903300	-11.662000	20.845358	0.000379	20.850100
12.000054	-3.011800	3.901700	-11.750000	20.883261	0.000380	20.849598
13.003673	-3.017800	3.898700	-11.765000	20.876177	0.000379	20.868117
14.004483	-2.989700	3.897500	-11.652000	20.896635	0.000379	20.857283
15.004480	-3.000700	3.895600	-11.689000	20.874451	0.000377	20.871606
16.006267	-2.984700	3.897300	-11.631000	20.888802	0.000377	20.855613
17.005198	-2.985900	3.895700	-11.631000	20.897936	0.000377	20.860007
18.010067	-2.988000	3.894300	-11.635000	20.900933	0.000376	20.876279
19.004735	-2.985800	3.893600	-11.624000	20.915327	0.000375	20.855588
20.008777	-2.999900	3.892300	-11.675000	20.916278	0.000373	20.850375
21.004291	-2.999900	3.891100	-11.672000	20.909489	0.000374	20.873456
22.002504	-3.006000	3.889500	-11.691000	20.924737	0.000372	20.845086
23.006764	-2.999900	3.889300	-11.666000	20.945347	0.000372	20.887980
24.009506	-2.985900	3.888900	-11.611000	20.941752	0.000373	20.877274
25.004231	-3.010900	3.887200	-11.703000	20.918599	0.000372	20.869765
26.007996	-3.000500	3.887400	-11.663000	20.951984	0.000372	20.878972
27.000807	-2.999500	3.886900	-11.657000	20.946744	0.000370	20.871361
28.003396	-2.992700	3.886300	-11.630000	20.952957	0.000369	20.868092
29.007593	-3.001200	3.884200	-11.656000	20.959867	0.000369	20.873106
30.000762	-3.000100	3.884700	-11.654000	20.974539	0.000368	20.886357
31.002580	-2.992500	3.885000	-11.625000	20.983673	0.000369	20.882216
32.007647	-3.000900	3.882700	-11.651000	20.992281	0.000367	20.889877
33.006031	-3.004500	3.883100	-11.665000	20.988885	0.000369	20.877946
34.007931	-3.023400	3.882300	-11.736000	21.008350	0.000367	20.853319
35.008491	-3.013700	3.881500	-11.697000	20.992058	0.000367	20.883016
36.004649	-3.007200	3.881600	-11.672000	21.010720	0.000366	20.866121
37.004951	-3.001500	3.881400	-11.649000	21.018578	0.000367	20.886307
38.009147	-3.011300	3.879600	-11.682000	21.036945	0.000366	20.872436
39.009912	-2.997400	3.879900	-11.628000	21.015262	0.000364	20.882517
40.007931	-2.999600	3.879400	-11.635000	21.037097	0.000364	20.887285
41.007571	-2.988700	3.880400	-11.596000	21.030209	0.000363	20.882293
42.008822	-3.009200	3.879600	-11.674000	21.055011	0.000363	20.883867
43.007685	-2.998300	3.878900	-11.629000	21.058605	0.000364	20.871816
44.010346	-2.999200	3.877100	-11.626000	21.076517	0.000364	20.890679
45.009420	-3.018100	3.876800	-11.699000	21.069134	0.000364	20.878553
46.010448	-2.971600	3.877900	-11.523000	21.073948	0.000362	20.871515
47.013509	-2.986000	3.877400	-11.577000	21.087097	0.000363	20.891779
48.011228	-2.992000	3.877100	-11.599000	21.098976	0.000363	20.883746
49.015716	-2.995600	3.877700	-11.615000	21.077195	0.000362	20.888512
50.010547	-2.998200	3.877800	-11.625000	21.139392	0.000362	20.888137
51.012566	-2.991900	3.877000	-11.599000	21.110901	0.000362	20.892355
52.015345	-3.021900	3.875200	-11.709000	21.115093	0.000361	20.901288
53.009914	-2.992500	3.875900	-11.598000	21.141541	0.000362	20.906881
54.014174	-3.011900	3.874700	-11.670000	21.148751	0.000361	20.887542
55.018253	-3.001100	3.874800	-11.628000	21.152518	0.000362	20.889413
56.016308	-2.996500	3.875000	-11.611000	21.172501	0.000360	20.887117
57.012019	-3.004500	3.874800	-11.641000	21.157732	0.000361	20.899844
58.016726	-2.986700	3.874000	-11.570000	21.166242	0.000361	20.912623
59.011766	-3.010100	3.872500	-11.656000	21.170359	0.000361	20.889717
60.015547	-2.996000	3.872700	-11.602000	21.163125	0.000358	20.894334
61.015598	-2.991000	3.873500	-11.585000	21.189170	0.000361	20.881982
62.014307	-3.015900	3.871500	-11.676000	21.185803	0.000361	20.898526
63.013741	-2.989900	3.873200	-11.579000	21.204313	0.000362	20.916093
64.019448	-3.007600	3.871500	-11.642000	21.211825	0.000360	20.896109
65.013735	-3.008400	3.872300	-11.649000	21.213994	0.000360	20.894960
66.014311	-3.004300	3.871800	-11.632000	21.214468	0.000359	20.908235
67.016649	-2.989200	3.871200	-11.571000	21.235475	0.000361	20.897956
68.013921	-2.987900	3.872500	-11.570000	21.222702	0.000360	20.904618
69.015597	-3.029000	3.872100	-11.727000	21.250267	0.000361	20.890943
70.016145	-2.976200	3.871300	-11.521000	21.258179	0.000361	20.912132
71.017222	-2.993100	3.870400	-11.584000	21.252590	0.000361	20.908439
72.024096	-3.009700	3.869300	-11.644000	21.262395	0.000358	20.908290
73.014173	-2.996700	3.869100	-11.593000	21.274718	0.000359	20.903549
74.018998	-3.019100	3.868400	-11.677000	21.276961	0.000358	20.924283
75.017653	-3.034000	3.869000	-11.737000	21.288809	0.000360	20.902474
76.018687	-2.988300	3.869400	-11.562000	21.288663	0.000359	20.898061
77.021939	-3.014200	3.867000	-11.655000	21.295922	0.000359	20.923337
78.021618	-3.009900	3.867300	-11.639000	21.301537	0.000359	20.910939
79.019433	-3.003200	3.868000	-11.616000	21.314684	0.000359	20.891850
80.019537	-2.966000	3.870600	-11.480000	21.309947	0.000355	20.903232
81.017602	-2.982000	3.869600	-11.538000	21.331126	0.000359	20.925840
82.020364	-2.996600	3.868100	-11.590000	21.320922	0.000357	20.926537
83.017946	-2.984300	3.868500	-11.545000	21.350708	0.000360	20.907028
84.022208	-3.000300	3.868500	-11.605000	21.347892	0.000358	20.918908
85.021011	-2.988600	3.867900	-11.559000	21.349912	0.000359	20.912394
86.019698	-2.984400	3.868400	-11.543000	21.369172	0.000359	20.903215
87.038858	-3.025200	3.866700	-11.696000	21.364957	0.000358	20.912273
88.019566	-3.016600	3.867000	-11.664000	21.361664	0.000358	20.892385
89.024176	-2.985400	3.868000	-11.547000	21.381175	0.000356	20.909059
90.026265	-2.999100	3.867300	-11.597000	21.380552	0.000357	20.902747
91.024334	-2.990300	3.867000	-11.563000	21.409457	0.000359	20.911278
92.022711	-2.998100	3.865400	-11.588000	21.416993	0.000358	20.911231
93.026873	-3.015800	3.864900	-11.654000	21.414874	0.000357	20.924757
94.022730	-3.004500	3.865400	-11.613000	21.411709	0.000357	20.901203
95.019140	-2.989300	3.865900	-11.555000	21.423986	0.000358	20.904952
96.023291	-2.970700	3.867200	-11.488000	21.431590	0.000360	20.901182
97.022751	-2.995400	3.865500	-11.577000	21.446333	0.000358	20.905027
98.027690	-3.033900	3.864300	-11.723000	21.453042	0.000360	20.925488
99.023510	-2.991900	3.866300	-11.567000	21.455291	0.000359	20.886490
100.026249	-3.011300	3.864600	-11.636000	21.453742	0.000358	20.900586
101.024348	-3.015400	3.864900	-11.653000	21.469761	0.000359	20.897174
102.030444	-3.010900	3.864700	-11.636000	21.485597	0.000360	20.906855
103.025863	-3.010100	3.863700	-11.628000	21.485649	0.000358	20.903114
104.022594	-3.012500	3.863900	-11.639000	21.483655	0.000359	20.868879
105.028082	-3.004800	3.864700	-11.611000	21.486250	0.000359	20.882854
106.023641	-2.999000	3.863000	-11.584000	21.501042	0.000360	20.898602
107.026607	-2.993800	3.863500	-11.566000	21.489545	0.000359	20.893737
108.024524	-2.990100	3.862800	-11.549000	21.520197	0.000359	20.894536
109.025788	-2.994300	3.862900	-11.566000	21.500822	0.000358	20.890322
110.023195	-3.003600	3.862300	-11.598000	21.513993	0.000359	20.877898
111.026803	-3.000900	3.862400	-11.590000	21.529107	0.000359	20.880219
112.028267	-2.998900	3.863000	-11.584000	21.519683	0.000358	20.895444
113.026511	-3.006300	3.863200	-11.613000	21.550982	0.000360	20.886460
114.027908	-3.004600	3.862400	-11.605000	21.530160	0.000360	20.862308
115.025079	-2.990500	3.864200	-11.554000	21.547494	0.000361	20.900513
116.026242	-3.007800	3.862000	-11.615000	21.549643	0.000357	20.888440
117.028861	-2.991100	3.860800	-11.547000	21.558646	0.000359	20.877061
118.024845	-3.027800	3.859800	-11.686000	21.583264	0.000360	20.891262
119.027988	-2.978500	3.861500	-11.501000	21.582366	0.000361	20.868080
120.031367	-2.999900	3.861000	-11.581000	21.583840	0.000360	20.854383
121.029808	-3.014700	3.861200	-11.639000	21.600151	0.000362	20.868808
122.026787	-3.011700	3.861000	-11.627000	21.590451	0.000360	20.868111
123.032558	-3.033200	3.859500	-11.706000	21.617360	0.000362	20.860900
124.031092	-3.007500	3.860700	-11.610000	21.610506	0.000361	20.872058
125.032886	-2.986300	3.860400	-11.527000	21.597239	0.000360	20.864947
126.028135	-2.990300	3.860700	-11.544000	21.631104	0.000361	20.863747
127.029823	-2.977200	3.859800	-11.491000	21.629886	0.000362	20.876279
128.030074	-2.993200	3.859300	-11.551000	21.622178	0.000362	20.878048
129.030868	-2.970700	3.860800	-11.468000	21.639090	0.000363	20.857989
130.035082	-2.992400	3.859900	-11.550000	21.643153	0.000361	20.874856
131.031119	-3.006800	3.858500	-11.601000	21.658965	0.000362	20.860809
132.030126	-3.019500	3.858700	-11.650000	21.666672	0.000364	20.896495
133.030011	-3.007800	3.858300	-11.604000	21.666546	0.000364	20.844689
134.028811	-3.007500	3.858100	-11.602000	21.674454	0.000365	20.867301
135.033732	-3.009800	3.858800	-11.613000	21.677969	0.000362	20.846164
136.039412	-3.000200	3.858500	-11.575000	21.682357	0.000364	20.858615
137.029919	-2.988400	3.858400	-11.530000	21.693251	0.000363	20.840595
138.049129	-2.993300	3.858300	-11.549000	21.691359	0.000364	20.850081
139.034335	-3.008100	3.858100	-11.604000	21.699513	0.000363	20.846387
140.034412	-3.001700	3.857500	-11.579000	21.705746	0.000364	20.838875
141.035690	-2.993600	3.858800	-11.551000	21.714023	0.000363	20.850478
142.038804	-3.007300	3.858000	-11.601000	21.717464	0.000365	20.851076
143.035248	-3.008400	3.856500	-11.601000	21.719009	0.000366	20.852622
144.035239	-3.004500	3.855900	-11.584000	21.749033	0.000365	20.859436
145.036820	-3.004600	3.857200	-11.588000	21.727961	0.000365	20.852573
146.033700	-3.008500	3.855300	-11.598000	21.746014	0.000364	20.846458
147.038428	-3.004600	3.855800	-11.584000	21.739979	0.000366	20.856539
148.035185	-3.006600	3.855200	-11.591000	21.747110	0.000366	20.848978
149.035433	-2.994700	3.857100	-11.550000	21.764463	0.000365	20.840267
150.035602	-2.986500	3.855900	-11.515000	21.769222	0.000367	20.832228
151.036835	-3.008900	3.855300	-11.599000	21.784732	0.000366	20.857234
152.036227	-2.984700	3.856500	-11.510000	21.793281	0.000367	20.854411
153.034186	-2.968600	3.856000	-11.446000	21.779942	0.000367	20.844854
154.042171	-3.013400	3.854400	-11.614000	21.777174	0.000368	20.850144
155.032671	-2.994000	3.854800	-11.540000	21.786026	0.000368	20.838141
156.041471	-3.010500	3.854500	-11.602000	21.818764	0.000366	20.858579
157.034136	-2.991200	3.855000	-11.530000	21.806295	0.000367	20.847996
158.037714	-2.998300	3.854300	-11.556000	21.820634	0.000370	20.847175
159.039930	-2.990400	3.854700	-11.526000	21.823950	0.000370	20.847175
160.042767	-2.995700	3.854700	-11.547000	21.844020	0.000368	20.866313
161.039992	-3.018400	3.852400	-11.627000	21.843822	0.000370	20.843357
162.044600	-2.968100	3.854900	-11.441000	21.834921	0.000369	20.835870
163.040676	-2.985600	3.853500	-11.504000	21.844147	0.000367	20.851742
164.043951	-2.977100	3.853600	-11.471000	21.858758	0.000370	20.843134
165.043624	-2.982300	3.853400	-11.490000	21.860157	0.000370	20.848801
166.044347	-2.990100	3.853400	-11.521000	21.868582	0.000369	20.851070
167.038817	-2.988100	3.853100	-11.512000	21.866040	0.000370	20.849474
168.048531	-2.996500	3.854100	-11.547000	21.871053	0.000369	20.845957
169.039074	-2.984900	3.853200	-11.499000	21.885487	0.000370	20.843809
170.043534	-3.000400	3.852800	-11.559000	21.875914	0.000370	20.836124
171.044671	-3.007000	3.851600	-11.581000	21.897330	0.000371	20.832430
172.042357	-2.981800	3.853200	-11.488000	21.905636	0.000371	20.835054
173.043580	-3.002100	3.852100	-11.564000	21.916454	0.000372	20.829287
174.048693	-3.006600	3.852700	-11.583000	21.905485	0.000370	20.847230
175.045582	-3.004900	3.851200	-11.571000	21.921120	0.000370	20.842966
176.041372	-2.984300	3.852100	-11.494000	21.906933	0.000372	20.835404
177.047796	-2.993400	3.851700	-11.528000	21.929822	0.000372	20.845987
178.042333	-3.006500	3.851000	-11.577000	21.952937	0.000373	20.832141
179.045038	-3.011900	3.850900	-11.598000	21.942519	0.000373	20.841627
180.047542	-3.012300	3.849800	-11.596000	21.954884	0.000373	20.819866
181.045806	-2.988300	3.851600	-11.509000	21.954906	0.000375	20.823681
182.046582	-2.979700	3.850300	-11.472000	21.954438	0.000375	20.822264
183.048177	-3.012000	3.850400	-11.596000	21.954537	0.000372	20.838958
184.048534	-3.004400	3.850300	-11.567000	21.959698	0.000376	20.830374
185.048527	-2.992400	3.850500	-11.522000	21.955664	0.000375	20.826810
186.047058	-2.987000	3.850400	-11.500000	21.979421	0.000375	20.812660
187.043947	-3.013400	3.848500	-11.596000	21.995802	0.000376	20.839014
188.050483	-2.991900	3.849000	-11.515000	21.991839	0.000375	20.815607
189.047362	-2.995500	3.850300	-11.533000	22.010510	0.000378	20.820547
190.047198	-2.968600	3.849800	-11.427000	21.988675	0.000375	20.822397
191.048711	-2.998600	3.848800	-11.540000	22.023128	0.000377	20.814687
192.047003	-2.980200	3.849800	-11.472000	22.007547	0.000378	20.803357
193.050375	-2.987800	3.849000	-11.500000	22.035693	0.000377	20.811619
194.046258	-2.985200	3.848500	-11.488000	22.016224	0.000376	20.814888
195.048910	-3.003200	3.848000	-11.555000	22.041104	0.000375	20.801863
196.050092	-2.989300	3.848200	-11.502000	22.046742	0.000376	20.819360
197.055676	-3.019900	3.847800	-11.619000	22.024681	0.000377	20.807707
198.049747	-2.977500	3.848100	-11.455000	22.058140	0.000376	20.825554
199.048860	-2.986700	3.847700	-11.491000	22.036300	0.000378	20.829769
200.050539	-3.007900	3.847700	-11.573000	22.067216	0.000377	20.817571
201.049889	-3.010800	3.847200	-11.581000	22.071528	0.000379	20.831371
202.048552	-2.986200	3.847200	-11.487000	22.054056	0.000380	20.835691
203.052979	-2.986600	3.848800	-11.494000	22.094940	0.000379	20.803127
204.051113	-3.010900	3.845800	-11.578000	22.082604	0.000380	20.826812
205.047317	-3.025500	3.846300	-11.636000	22.084721	0.000378	20.816604
206.054559	-3.030100	3.846500	-11.654000	22.089064	0.000381	20.822374
207.046747	-3.005500	3.846900	-11.561000	22.090460	0.000381	20.829936
208.051243	-3.031200	3.844900	-11.653000	22.098589	0.000380	20.824798
209.060100	-3.018400	3.845400	-11.606000	22.107513	0.000381	20.800542
210.050762	-3.026800	3.845000	-11.637000	22.113002	0.000381	20.804614
211.051238	-2.991200	3.846700	-11.506000	22.123297	0.000382	20.799274
212.055227	-3.016400	3.845300	-11.597000	22.132076	0.000382	20.824184
213.054368	-3.010000	3.844500	-11.571000	22.124325	0.000383	20.784181
214.051378	-2.973700	3.844700	-11.432000	22.140229	0.000383	20.804372
215.054477	-3.006800	3.844500	-11.558000	22.145389	0.000384	20.817598
216.049885	-2.980400	3.844600	-11.456000	22.148011	0.000382	20.820697
217.052860	-2.990800	3.844100	-11.496000	22.157436	0.000384	20.807849
218.049609	-3.010400	3.842800	-11.566000	22.163218	0.000384	20.807474
219.052326	-2.990800	3.844000	-11.496000	22.163642	0.000384	20.808847
220.050823	-2.984300	3.845100	-11.474000	22.173965	0.000382	20.800216
221.058835	-2.996000	3.844500	-11.517000	22.175433	0.000385	20.814487
222.057358	-3.010800	3.842500	-11.568000	22.167412	0.000386	20.813569
223.053872	-2.992400	3.843800	-11.502000	22.189395	0.000387	20.812819
224.060486	-3.012100	3.842600	-11.573000	22.200117	0.000388	20.814545
225.052466	-3.000600	3.842400	-11.528000	22.192512	0.000387	20.795552
226.055844	-2.991200	3.842600	-11.492000	22.207366	0.000387	20.807105
227.062145	-2.996100	3.842700	-11.511000	22.197845	0.000388	20.810374
228.056450	-2.977700	3.842600	-11.442000	22.244781	0.000386	20.791935
229.053258	-2.966400	3.842900	-11.398000	22.219357	0.000389	20.785920
230.056136	-3.000600	3.841200	-11.525000	22.211681	0.000390	20.799571
231.054248	-2.985300	3.843300	-11.472000	22.246524	0.000389	20.791309
232.057308	-3.022100	3.841200	-11.608000	22.251860	0.000390	20.790962
233.063718	-2.977700	3.842200	-11.440000	22.245279	0.000389	20.795279
234.059596	-3.020700	3.841100	-11.601000	22.239396	0.000391	20.797922
235.060201	-2.998200	3.841500	-11.517000	22.254577	0.000390	20.809804
236.060828	-2.998000	3.840300	-11.512000	22.267759	0.000392	20.785071
237.057346	-3.031500	3.839700	-11.639000	22.270452	0.000391	20.792508
238.057782	-2.999800	3.840800	-11.521000	22.265218	0.000391	20.800070
239.058526	-3.003700	3.840300	-11.534000	22.301254	0.000393	20.806280
240.054241	-3.022900	3.839000	-11.604000	22.275782	0.000391	20.799267
241.064339	-2.989800	3.841900	-11.486000	22.292900	0.000391	20.801710
242.060347	-3.006600	3.840900	-11.546000	22.311071	0.000391	20.794774
243.057732	-3.009200	3.839200	-11.552000	22.293151	0.000392	20.823297
244.063834	-3.007800	3.840500	-11.551000	22.297787	0.000392	20.805655
245.057489	-3.001100	3.838600	-11.519000	22.289242	0.000393	20.786667
246.059951	-3.012400	3.839800	-11.566000	22.304045	0.000393	20.802912
247.062898	-2.984000	3.838800	-11.453000	22.328044	0.000395	20.801338
248.060703	-3.013900	3.839400	-11.571000	22.315063	0.000394	20.788814
249.059157	-3.000700	3.838500	-11.517000	22.317279	0.000393	20.792930
250.064819	-2.991100	3.839200	-11.483000	22.334499	0.000395	20.793578
251.066529	-2.990200	3.838900	-11.479000	22.333082	0.000396	20.801167
252.061347	-2.996000	3.838400	-11.498000	22.333732	0.000396	20.798973
253.066043	-2.972000	3.837900	-11.405000	22.359723	0.000397	20.785170
254.059649	-3.000200	3.836900	-11.511000	22.372786	0.000397	20.796354
255.062842	-2.997100	3.837900	-11.502000	22.356736	0.000396	20.794981
256.065310	-3.013800	3.836500	-11.561000	22.359701	0.000396	20.789890
257.068386	-3.006000	3.836100	-11.530000	22.363962	0.000397	20.786096
258.068609	-2.989600	3.838400	-11.474000	22.368998	0.000398	20.781655
259.066463	-2.991700	3.838000	-11.481000	22.391280	0.000397	20.759872
260.063155	-2.980400	3.838800	-11.440000	22.386941	0.000399	20.774967
261.068680	-3.011600	3.837700	-11.556000	22.389383	0.000399	20.777413
262.071028	-3.017700	3.836000	-11.575000	22.380959	0.000398	20.778460
263.064232	-3.000900	3.836300	-11.512000	22.401248	0.000399	20.776018
264.069515	-3.007700	3.837000	-11.540000	22.401545	0.000401	20.784850
265.063168	-2.999300	3.836700	-11.506000	22.397735	0.000402	20.773923
266.066280	-2.998600	3.834700	-11.498000	22.444090	0.000401	20.763445
267.069458	-2.977800	3.835100	-11.419000	22.414035	0.000402	20.766538
268.076388	-3.006600	3.834400	-11.528000	22.415081	0.000402	20.768059
269.065871	-2.982700	3.835700	-11.440000	22.444115	0.000402	20.774850
270.067390	-2.999100	3.835300	-11.501000	22.436564	0.000404	20.773452
271.066066	-2.990300	3.834400	-11.465000	22.437592	0.000403	20.772584
272.067683	-2.999900	3.835800	-11.505000	22.455955	0.000402	20.768214
273.069340	-3.014200	3.835100	-11.560000	22.455457	0.000404	20.770560
274.066492	-3.019600	3.833400	-11.574000	22.461339	0.000406	20.783090
275.065782	-2.996500	3.833900	-11.487000	22.458870	0.000404	20.768763
276.086495	-2.988500	3.834000	-11.458000	22.475896	0.000406	20.768270
277.071070	-2.996600	3.833800	-11.487000	22.487083	0.000407	20.780896
278.067614	-3.003200	3.832300	-11.508000	22.470985	0.000405	20.758136
279.066347	-2.988600	3.832600	-11.453000	22.480705	0.000406	20.773086
280.066207	-2.986000	3.831900	-11.441000	22.484291	0.000405	20.766246
281.069111	-2.996000	3.832200	-11.481000	22.507367	0.000405	20.782718
282.067717	-2.999000	3.832000	-11.491000	22.480683	0.000407	20.772116
283.070384	-2.991900	3.832800	-11.467000	22.486064	0.000407	20.762806
284.069692	-2.995700	3.832700	-11.481000	22.506946	0.000407	20.788461
285.068126	-3.028000	3.832600	-11.603000	22.508115	0.000409	20.757863
286.071507	-3.011600	3.831700	-11.538000	22.529522	0.000408	20.764604
287.072337	-3.002700	3.832100	-11.505000	22.506451	0.000407	20.754773
288.073876	-3.002000	3.831500	-11.502000	22.513125	0.000408	20.758613
289.074380	-3.013700	3.830800	-11.544000	22.525537	0.000409	20.762983
290.072372	-3.002900	3.831300	-11.504000	22.530868	0.000409	20.766900
291.070177	-3.016700	3.831000	-11.556000	22.544026	0.000413	20.774388
292.074440	-3.012100	3.830100	-11.535000	22.547340	0.000412	20.769172
293.072805	-3.007200	3.830200	-11.517000	22.554890	0.000409	20.765828
294.072076	-2.974400	3.831100	-11.394000	22.565453	0.000410	20.777357
295.075589	-2.997200	3.828900	-11.474000	22.556462	0.000411	20.773566
296.073642	-2.994400	3.830400	-11.468000	22.550858	0.000413	20.760841
297.077862	-2.989100	3.829300	-11.445000	22.581902	0.000412	20.754002
298.073612	-2.997200	3.830100	-11.478000	22.568774	0.000412	20.750335
299.073667	-2.991000	3.829300	-11.453000	22.568325	0.000414	20.772646
300.073946	-2.995100	3.829100	-11.468000	22.575801	0.000412	20.763538
301.074727	-2.975000	3.829900	-11.393000	22.585272	0.000413	20.755480
302.071477	-2.999600	3.828300	-11.482000	22.581587	0.000413	20.746573
303.078342	-2.983700	3.828500	-11.422000	22.612832	0.000414	20.762221
304.075409	-3.011300	3.828100	-11.526000	22.613831	0.000415	20.760851
305.073126	-3.000800	3.827800	-11.486000	22.602024	0.000416	20.749973
306.080792	-2.989400	3.828200	-11.443000	22.622229	0.000417	20.770684
307.076234	-2.990800	3.827500	-11.447000	22.612340	0.000416	20.753667
308.081162	-2.993600	3.826500	-11.454000	22.604666	0.000417	20.757361
309.072557	-3.007700	3.828100	-11.513000	22.628838	0.000417	20.779201
310.074903	-3.001800	3.826500	-11.485000	22.634444	0.000416	20.767746
311.074107	-3.008800	3.827200	-11.515000	22.624453	0.000418	20.745411
312.076561	-2.992400	3.827100	-11.452000	22.648101	0.000417	20.766253
313.079598	-2.998600	3.826200	-11.472000	22.647900	0.000420	20.772689
314.081069	-3.022300	3.826700	-11.564000	22.636044	0.000418	20.741847
315.078116	-2.992000	3.826100	-11.447000	22.636093	0.000419	20.754225
316.076975	-2.994400	3.825100	-11.452000	22.656402	0.000419	20.753704
317.079499	-2.976600	3.827500	-11.392000	22.664920	0.000420	20.766978
318.074922	-2.985900	3.825200	-11.421000	22.672794	0.000419	20.738354
319.074984	-2.988800	3.825000	-11.431000	22.653788	0.000421	20.763888
320.077137	-3.010900	3.824900	-11.515000	22.692280	0.000421	20.751708
321.075900	-2.999200	3.825100	-11.471000	22.695668	0.000422	20.763163
322.077319	-3.001500	3.825400	-11.480000	22.692054	0.000422	20.771397
323.074839	-2.999800	3.825400	-11.475000	22.689341	0.000421	20.767257
324.078526	-3.001500	3.824100	-11.477000	22.713359	0.000421	20.751011
325.079984	-3.003800	3.823500	-11.484000	22.700355	0.000423	20.745098
326.081775	-3.007500	3.822600	-11.496000	22.710865	0.000423	20.756100
327.077300	-3.009500	3.823500	-11.507000	22.734907	0.000423	20.752681
328.079064	-2.962400	3.825100	-11.330000	22.704761	0.000424	20.759943
329.084933	-3.008300	3.823500	-11.500000	22.737026	0.000423	20.747218
330.081318	-3.019000	3.822500	-11.539000	22.735733	0.000424	20.772001
331.079650	-3.009900	3.822400	-11.505000	22.747542	0.000423	20.762493
332.081635	-3.009300	3.821800	-11.500000	22.722783	0.000425	20.766141
333.078509	-3.013300	3.821700	-11.515000	22.725298	0.000422	20.735943
334.079384	-2.992100	3.822500	-11.435000	22.740222	0.000425	20.755161
335.085173	-3.006300	3.823000	-11.492000	22.744383	0.000425	20.754588
336.082074	-3.005800	3.820400	-11.483000	22.747347	0.000426	20.757557
337.084094	-3.002300	3.821300	-11.473000	22.745182	0.000427	20.738791
338.083113	-3.020600	3.820900	-11.541000	22.741772	0.000425	20.759084
339.082284	-2.980400	3.821600	-11.389000	22.770324	0.000427	20.756391
340.083678	-2.999600	3.821300	-11.462000	22.776082	0.000426	20.759314
341.082502	-2.988600	3.820600	-11.418000	22.776354	0.000428	20.758164
342.082543	-3.011700	3.820900	-11.507000	22.792500	0.000428	20.773390
343.081783	-3.009000	3.820900	-11.496000	22.794471	0.000427	20.775838
344.082524	-3.001000	3.820100	-11.464000	22.814625	0.000428	20.761415
345.082774	-2.995400	3.819300	-11.439000	22.814873	0.000427	20.763086
346.089366	-2.973900	3.821200	-11.363000	22.808847	0.000427	20.739978
347.088564	-3.002400	3.819600	-11.467000	22.816621	0.000426	20.755353
348.087646	-2.975600	3.819800	-11.366000	22.812262	0.000431	20.741503
349.088910	-2.988700	3.819300	-11.414000	22.824169	0.000428	20.773347
350.088017	-3.019700	3.818100	-11.529000	22.814579	0.000429	20.748092
351.086667	-2.978900	3.819100	-11.376000	22.823399	0.000431	20.732745
352.090280	-2.980300	3.819300	-11.382000	22.825416	0.000431	20.765587
353.084991	-2.991800	3.817800	-11.421000	22.821982	0.000430	20.759302
354.090086	-2.990000	3.819600	-11.420000	22.833490	0.000432	20.759925
355.092406	-3.003900	3.819200	-11.471000	22.847615	0.000431	20.766489
356.089069	-3.000400	3.818200	-11.455000	22.833342	0.000432	20.761198
357.090691	-3.013100	3.818500	-11.505000	22.846347	0.000433	20.741509
358.091957	-3.013300	3.816600	-11.500000	22.857257	0.000434	20.783261
359.092141	-2.994400	3.818200	-11.433000	22.875468	0.000432	20.749347
360.098551	-3.000800	3.816200	-11.451000	22.847392	0.000433	20.737815
361.093604	-2.995900	3.816300	-11.432000	22.878930	0.000433	20.749496
362.089744	-2.985600	3.815900	-11.391000	22.871858	0.000433	20.765646
363.093073	-2.991700	3.815600	-11.414000	22.878785	0.000435	20.746980
364.095006	-2.997900	3.815700	-11.438000	22.902526	0.000434	20.755592
365.091411	-3.000400	3.816400	-11.450000	22.909347	0.000433	20.751994
366.093442	-2.989000	3.815200	-11.403000	22.885340	0.000434	20.760659
367.091595	-3.002800	3.815800	-11.457000	22.906186	0.000433	20.755465
368.095348	-3.006500	3.815800	-11.472000	22.890270	0.000435	20.777928
369.094245	-3.002900	3.814500	-11.453000	22.906387	0.000436	20.777004
370.094406	-2.989100	3.813500	-11.398000	22.915926	0.000435	20.761905
371.094298	-2.996600	3.814800	-11.430000	22.931275	0.000435	20.767326
372.106963	-2.986300	3.815800	-11.393000	22.937156	0.000437	20.773691
373.093007	-2.990300	3.815000	-11.407000	22.909483	0.000436	20.761614
374.091198	-3.015900	3.813400	-11.499000	22.938402	0.000438	20.763560
375.095476	-2.976400	3.814100	-11.351000	22.940970	0.000439	20.769926
376.092612	-3.013800	3.812700	-11.490000	22.946349	0.000439	20.746865
377.097464	-2.996900	3.813400	-11.427000	22.946073	0.000439	20.767453
378.095676	-2.997100	3.813000	-11.427000	22.947994	0.000439	20.764162
379.098651	-2.990800	3.814400	-11.406000	22.944085	0.000437	20.759770
380.093868	-2.995600	3.813400	-11.422000	22.935693	0.000437	20.775071
381.096827	-2.997000	3.812500	-11.424000	22.952783	0.000438	20.800254
382.101253	-3.023300	3.811900	-11.524000	22.952010	0.000439	20.768659
383.095614	-2.991300	3.812300	-11.402000	22.982149	0.000440	20.759501
384.092587	-3.030700	3.809800	-11.546000	22.972684	0.000440	20.770407
385.092839	-3.003800	3.811600	-11.448000	22.965613	0.000440	20.769960
386.101205	-3.016400	3.810500	-11.492000	22.986563	0.000442	20.775778
387.092663	-2.993000	3.812300	-11.409000	22.985567	0.000440	20.764822
388.094530	-3.007000	3.810900	-11.458000	22.990003	0.000441	20.790130
389.099290	-3.005300	3.810300	-11.451000	23.013516	0.000440	20.773385
390.096041	-2.993100	3.811200	-11.407000	23.004376	0.000442	20.797419
391.103975	-3.018800	3.808200	-11.495000	23.025446	0.000444	20.769217
392.099602	-2.990200	3.810300	-11.392000	23.035885	0.000445	20.780625
393.097165	-3.000100	3.809900	-11.429000	23.019424	0.000444	20.766502
394.097372	-3.001800	3.810900	-11.438000	23.031205	0.000444	20.766927
395.097739	-3.017800	3.809200	-11.494000	23.030859	0.000444	20.783650
396.097795	-3.000200	3.808800	-11.426000	23.018280	0.000446	20.773891
397.100155	-3.009000	3.809300	-11.461000	23.043834	0.000446	20.786219
398.100559	-3.002900	3.808200	-11.435000	23.037163	0.000447	20.783327
399.102744	-3.005000	3.809400	-11.446000	23.050113	0.000446	20.773069
400.099085	-2.994500	3.807800	-11.402000	23.065556	0.000444	20.793759
401.096081	-2.985300	3.808600	-11.369000	23.062791	0.000445	20.778186
402.105083	-3.001300	3.808500	-11.429000	23.062917	0.000445	20.769778
403.102096	-3.004200	3.806700	-11.435000	23.088743	0.000446	20.797078
404.104095	-3.011900	3.808200	-11.469000	23.073625	0.000447	20.783352
405.100874	-3.005400	3.807800	-11.444000	23.078410	0.000446	20.775344
406.107552	-2.997800	3.807400	-11.412000	23.082019	0.000447	20.776116
407.101564	-2.999000	3.805300	-11.411000	23.077813	0.000446	20.801773
408.104930	-3.011700	3.805600	-11.460000	23.074602	0.000446	20.790496
409.106482	-3.005400	3.805700	-11.437000	23.098983	0.000446	20.790744
410.103672	-3.022700	3.806200	-11.504000	23.087255	0.000447	20.781837
411.122310	-3.008700	3.805800	-11.450000	23.100854	0.000448	20.775075
412.104461	-2.994800	3.805800	-11.396000	23.102599	0.000450	20.776823
413.109788	-3.017300	3.804500	-11.478000	23.112112	0.000449	20.794890
414.104242	-3.020300	3.803500	-11.487000	23.121826	0.000447	20.813633
415.105878	-2.991400	3.804600	-11.380000	23.131664	0.000447	20.796939
416.112173	-3.029100	3.803500	-11.521000	23.117596	0.000448	20.800859
417.109283	-2.998100	3.803900	-11.404000	23.126011	0.000450	20.805024
418.105815	-3.010000	3.804200	-11.450000	23.127956	0.000449	20.788482
419.112175	-2.981900	3.804800	-11.344000	23.111914	0.000450	20.814607
420.112515	-2.989000	3.803900	-11.369000	23.153681	0.000450	20.778698
421.111866	-3.010800	3.802700	-11.448000	23.134553	0.000449	20.803153
422.114124	-2.999700	3.803000	-11.407000	23.148176	0.000450	20.791674
423.107574	-3.013900	3.803300	-11.462000	23.160803	0.000451	20.798637
424.106650	-3.018300	3.802000	-11.474000	23.167326	0.000450	20.800906
425.109430	-3.002900	3.801700	-11.415000	23.161898	0.000452	20.783139
426.112067	-3.017900	3.800700	-11.469000	23.171263	0.000451	20.818127
427.110691	-3.023000	3.800700	-11.488000	23.191383	0.000451	20.801306
428.111855	-2.992500	3.801300	-11.375000	23.180475	0.000452	20.802703
429.111699	-3.014800	3.801700	-11.459000	23.185705	0.000451	20.819797
430.113742	-3.003100	3.801000	-11.413000	23.201640	0.000451	20.816326
431.114404	-3.011000	3.799400	-11.439000	23.181094	0.000451	20.810435
432.117992	-3.007900	3.800400	-11.429000	23.198703	0.000453	20.818124
433.112926	-3.006400	3.799700	-11.422000	23.194695	0.000454	20.824065
434.113791	-3.003000	3.800000	-11.410000	23.199250	0.000454	20.820095
435.113078	-3.012200	3.799900	-11.445000	23.213098	0.000454	20.822118
436.114660	-3.026400	3.798500	-11.495000	23.206675	0.000454	20.814734
437.115249	-3.005300	3.798700	-11.416000	23.224803	0.000453	20.811563
438.118820	-3.009400	3.798400	-11.430000	23.201817	0.000455	20.819822
439.113507	-2.988000	3.797300	-11.345000	23.227917	0.000454	20.817529
440.113067	-3.001300	3.798300	-11.399000	23.231805	0.000454	20.799614
441.116471	-2.986700	3.797700	-11.342000	23.244279	0.000453	20.829184
442.114791	-3.023000	3.797300	-11.478000	23.256581	0.000454	20.810693
443.114038	-3.008300	3.798200	-11.426000	23.244279	0.000454	20.806425
444.115952	-3.015800	3.797200	-11.450000	23.256432	0.000456	20.810544
445.117806	-2.986200	3.797800	-11.339000	23.258650	0.000454	20.822249
446.114655	-3.024200	3.798500	-11.486000	23.290250	0.000455	20.812667
447.123796	-2.979700	3.798700	-11.318000	23.262011	0.000455	20.819454
448.116771	-3.003100	3.797600	-11.403000	23.257060	0.000455	20.828243
449.114594	-3.022200	3.795600	-11.470000	23.269859	0.000455	20.813095
450.116209	-3.021300	3.794800	-11.464000	23.260870	0.000455	20.799819
451.116983	-3.012500	3.794600	-11.430000	23.282133	0.000455	20.832032
452.113487	-3.033800	3.794400	-11.510000	23.304944	0.000457	20.815540
453.124750	-3.017700	3.794600	-11.450000	23.301756	0.000457	20.825147
454.112448	-3.005400	3.795700	-11.407000	23.291397	0.000453	20.819981
455.113742	-2.990800	3.795300	-11.351000	23.296657	0.000455	20.814347
456.124251	-2.999900	3.792800	-11.377000	23.310124	0.000457	20.832110
457.118020	-3.003700	3.795300	-11.398000	23.307486	0.000457	20.824251
458.119802	-2.995600	3.794300	-11.366000	23.301858	0.000459	20.811973
459.118591	-3.015400	3.793100	-11.436000	23.323099	0.000457	20.820458
460.118773	-3.020700	3.793000	-11.457000	23.321528	0.000458	20.798495
461.119563	-2.990200	3.794000	-11.342000	23.323148	0.000458	20.837102
462.122073	-2.976400	3.792100	-11.286000	23.339406	0.000457	20.807405
463.120053	-2.986400	3.791800	-11.323000	23.315724	0.000460	20.833455
464.121176	-2.996800	3.792600	-11.364000	23.345730	0.000459	20.836501
465.118957	-3.009100	3.792000	-11.409000	23.354743	0.000458	20.848853
466.127126	-3.000500	3.792600	-11.378000	23.341797	0.000459	20.840146
467.122118	-3.007400	3.790900	-11.400000	23.359947	0.000460	20.838422
468.118951	-3.008000	3.791200	-11.403000	23.363531	0.000459	20.829686
469.121356	-2.993400	3.791500	-11.349000	23.351756	0.000459	20.854868
470.124252	-3.027500	3.791400	-11.478000	23.354666	0.000459	20.843086
471.125086	-3.010700	3.790200	-11.409000	23.378097	0.000460	20.844286
472.123235	-3.013800	3.789900	-11.421000	23.376579	0.000458	20.842764
473.123719	-2.998500	3.790100	-11.363000	23.381857	0.000460	20.836675
474.120572	-3.013200	3.789600	-11.417000	23.383453	0.000459	20.831162
475.123510	-3.011000	3.790100	-11.411000	23.386764	0.000458	20.839222
476.124569	-3.000900	3.788700	-11.369000	23.374690	0.000457	20.827595
477.120783	-3.026100	3.789200	-11.465000	23.378376	0.000459	20.853573
478.125309	-3.011700	3.788900	-11.409000	23.392769	0.000460	20.854723
479.126084	-2.973400	3.789200	-11.266000	23.404398	0.000461	20.853577
480.127467	-2.985200	3.789200	-11.309000	23.388985	0.000462	20.845240
481.121497	-2.990400	3.788500	-11.328000	23.390460	0.000459	20.844822
482.124357	-2.986800	3.787900	-11.312000	23.412122	0.000460	20.829551
483.128504	-2.988800	3.787200	-11.318000	23.428756	0.000460	20.836266
484.126220	-2.991100	3.787100	-11.327000	23.408563	0.000460	20.837838
485.126750	-2.997200	3.787500	-11.351000	23.425071	0.000462	20.843003
486.124019	-3.012600	3.785600	-11.403000	23.438514	0.000462	20.847943
487.127330	-3.004100	3.787600	-11.377000	23.438916	0.000461	20.853087
488.125479	-2.994500	3.785900	-11.336000	23.452762	0.000460	20.838517
489.122338	-2.994200	3.786400	-11.337000	23.426348	0.000464	20.861827
490.125803	-2.993000	3.786700	-11.333000	23.430528	0.000465	20.843258
491.129444	-2.984700	3.786400	-11.301000	23.448334	0.000463	20.844036
492.126295	-3.021200	3.784500	-11.433000	23.441761	0.000464	20.839344
493.125106	-2.987600	3.785800	-11.309000	23.453189	0.000464	20.832306
494.128034	-3.002300	3.784800	-11.361000	23.447911	0.000463	20.846930
495.127499	-2.991300	3.784900	-11.321000	23.459267	0.000463	20.862106
496.127291	-2.988400	3.784800	-11.310000	23.449732	0.000463	20.877678
497.129733	-3.002600	3.784500	-11.363000	23.474729	0.000463	20.853897
498.128482	-2.988900	3.784400	-11.310000	23.477020	0.000464	20.868046
499.124044	-3.038300	3.783400	-11.494000	23.485062	0.000463	20.841021
500.131052	-3.003300	3.783800	-11.362000	23.498529	0.000465	20.854994
501.130735	-3.000200	3.782300	-11.347000	23.492602	0.000464	20.868967
502.131054	-2.980700	3.782300	-11.273000	23.521410	0.000463	20.838576
503.128756	-2.986600	3.783100	-11.297000	23.494699	0.000463	20.893351
504.129437	-3.006400	3.781000	-11.366000	23.509860	0.000464	20.863033
505.132177	-3.006800	3.781000	-11.368000	23.521887	0.000464	20.864656
506.132133	-3.013400	3.780300	-11.390000	23.518647	0.000464	20.858564
507.127522	-3.009000	3.781200	-11.377000	23.505402	0.000465	20.877529
508.128192	-3.004700	3.780000	-11.357000	23.533758	0.000465	20.865651
509.135191	-3.002500	3.780900	-11.351000	23.527334	0.000468	20.892400
510.130948	-3.025400	3.779600	-11.433000	23.538591	0.000465	20.887563
511.133564	-2.988300	3.781100	-11.297000	23.534531	0.000466	20.876382
512.133473	-3.012800	3.779300	-11.385000	23.546628	0.000464	20.867647
513.135634	-3.001000	3.779000	-11.340000	23.550165	0.000465	20.870244
514.131224	-3.010300	3.779000	-11.375000	23.548174	0.000465	20.887687
515.135057	-3.010600	3.778400	-11.374000	23.548743	0.000464	20.866447
516.133929	-3.006600	3.779400	-11.362000	23.553822	0.000466	20.865375
517.137474	-3.008700	3.779300	-11.370000	23.556611	0.000466	20.861533
518.137471	-3.002800	3.778600	-11.345000	23.576304	0.000465	20.887436
519.133225	-3.003800	3.777400	-11.345000	23.579516	0.000466	20.869320
520.135987	-3.006700	3.777200	-11.356000	23.590991	0.000466	20.871815
521.140379	-3.002600	3.777400	-11.341000	23.590592	0.000466	20.880897
522.137319	-2.999700	3.776800	-11.329000	23.592385	0.000466	20.880324
523.134353	-2.999700	3.776100	-11.326000	23.581231	0.000468	20.884315
524.139985	-2.996000	3.776700	-11.313000	23.615289	0.000466	20.871517
525.134729	-2.993900	3.775900	-11.304000	23.595894	0.000465	20.894272
526.138318	-2.998900	3.775700	-11.322000	23.592410	0.000466	20.884142
527.135918	-3.013600	3.775600	-11.376000	23.606024	0.000467	20.886410
528.139031	-2.995900	3.775800	-11.311000	23.610210	0.000468	20.884917
529.138252	-2.984200	3.775100	-11.265000	23.612476	0.000465	20.903308
530.135893	-2.996600	3.774300	-11.309000	23.644960	0.000467	20.886088
531.138378	-3.003900	3.775100	-11.339000	23.635303	0.000467	20.865976
532.135521	-3.004900	3.774600	-11.341000	23.612748	0.000468	20.881297
533.140619	-3.001500	3.774800	-11.328000	23.629998	0.000467	20.900011
534.148432	-2.995700	3.774700	-11.307000	23.647600	0.000468	20.879252
535.137502	-3.015400	3.773500	-11.377000	23.638388	0.000466	20.920273
536.138921	-3.007900	3.772600	-11.347000	23.637092	0.000468	20.891002
537.143956	-2.998600	3.773300	-11.313000	23.630594	0.000469	20.903453
538.138866	-3.016900	3.773400	-11.384000	23.625018	0.000467	20.903078
539.139131	-3.028200	3.771600	-11.420000	23.645556	0.000467	20.899961
540.144700	-3.004400	3.771300	-11.330000	23.662378	0.000468	20.925832
541.138961	-3.007100	3.771800	-11.341000	23.674304	0.000468	20.888006
542.141140	-2.994300	3.771300	-11.292000	23.657398	0.000468	20.902350
543.143014	-2.991500	3.772100	-11.281000	23.687194	0.000468	20.906143
544.140559	-2.993900	3.771000	-11.289000	23.685253	0.000468	20.880017
545.142190	-2.982700	3.771400	-11.248000	23.685800	0.000468	20.917072
546.149334	-3.001700	3.770200	-11.315000	23.686069	0.000468	20.925875
547.142205	-3.004300	3.770400	-11.327000	23.678480	0.000471	20.917794
548.138834	-2.994500	3.770000	-11.288000	23.707256	0.000466	20.902074
549.144668	-3.002800	3.768700	-11.316000	23.712006	0.000469	20.902569
550.139132	-2.985000	3.770100	-11.253000	23.716485	0.000468	20.906585
551.141459	-3.024800	3.767500	-11.394000	23.727687	0.000469	20.904540
552.145017	-2.979100	3.768800	-11.227000	23.724575	0.000467	20.923703
553.144820	-2.984400	3.768200	-11.245000	23.713521	0.000467	20.918785
554.142700	-2.998600	3.768600	-11.299000	23.726516	0.000468	20.906210
555.147674	-3.016500	3.767500	-11.364000	23.721857	0.000466	20.916712
556.152015	-3.026800	3.767800	-11.404000	23.729823	0.000467	20.911896
557.144265	-2.982900	3.767300	-11.236000	23.712844	0.000467	20.910046
558.147007	-2.988600	3.767600	-11.259000	23.738879	0.000467	20.902485
559.148058	-2.983300	3.768400	-11.242000	23.746795	0.000469	20.916110
560.147646	-3.007500	3.766700	-11.327000	23.736116	0.000468	20.914412
561.149140	-2.984300	3.766700	-11.239000	23.718586	0.000468	20.907743
562.151549	-2.999900	3.766400	-11.297000	23.741167	0.000468	20.916631
563.151993	-2.982000	3.765900	-11.229000	23.731708	0.000470	20.926587
564.150152	-2.999400	3.765500	-11.293000	23.742632	0.000470	20.910514
565.155793	-2.991400	3.765300	-11.262000	23.757666	0.000470	20.923690
566.146295	-3.001100	3.765500	-11.299000	23.768370	0.000468	20.905026
567.151072	-2.984500	3.764800	-11.235000	23.772824	0.000468	20.893371
568.149565	-3.015200	3.764100	-11.349000	23.770061	0.000468	20.907195
569.152402	-3.010400	3.763700	-11.329000	23.770113	0.000469	20.919101
570.157084	-2.995400	3.763300	-11.271000	23.760355	0.000468	20.925911
571.150346	-2.980800	3.765000	-11.221000	23.770908	0.000470	20.908044
572.153380	-3.020900	3.763700	-11.368000	23.764386	0.000467	20.931374
573.152551	-3.016200	3.762600	-11.347000	23.788955	0.000468	20.928034
574.147888	-3.015400	3.761800	-11.343000	23.777179	0.000468	20.905797
575.152831	-2.988600	3.763300	-11.247000	23.803139	0.000469	20.891050
576.153494	-2.991600	3.763800	-11.257000	23.800027	0.000469	20.914480
577.148736	-2.964100	3.762800	-11.153000	23.770805	0.000471	20.888977
578.151266	-3.013600	3.762100	-11.337000	23.817276	0.000469	20.908543
579.158600	-3.006700	3.762500	-11.311000	23.808390	0.000468	20.885885
580.155625	-2.997000	3.762900	-11.276000	23.829596	0.000470	20.884388
581.153985	-3.010000	3.760700	-11.319000	23.828174	0.000470	20.919469
582.157336	-3.005700	3.759700	-11.299000	23.810575	0.000469	20.915574
583.158492	-2.962100	3.762100	-11.143000	23.819959	0.000467	20.885156
584.153512	-3.001100	3.759300	-11.281000	23.831283	0.000469	20.895088
585.161071	-3.002700	3.759700	-11.288000	23.827970	0.000471	20.911679
586.153269	-3.003100	3.759400	-11.289000	23.831951	0.000469	20.889594
587.154050	-2.997700	3.759300	-11.267000	23.845615	0.000470	20.912301
588.153613	-2.997200	3.760300	-11.269000	23.837672	0.000470	20.901493
589.155738	-2.992200	3.758700	-11.246000	23.811660	0.000468	20.898171
590.155247	-2.991900	3.757900	-11.242000	23.838639	0.000469	20.894403
591.156540	-2.957100	3.760800	-11.119000	23.854414	0.000468	20.894573
592.152898	-3.002700	3.758300	-11.284000	23.855786	0.000470	20.891208
593.151257	-2.984000	3.757800	-11.212000	23.847497	0.000469	20.907551
594.163213	-2.995400	3.759200	-11.259000	23.873777	0.000468	20.889807
595.157282	-3.002700	3.755900	-11.277000	23.855236	0.000468	20.898716
596.156992	-3.009600	3.757300	-11.307000	23.867778	0.000469	20.899438
597.156826	-3.019600	3.756800	-11.342000	23.857173	0.000468	20.886435
598.159132	-3.002300	3.756400	-11.276000	23.887112	0.000467	20.878998
599.157814	-2.989100	3.755500	-11.225000	23.890246	0.000469	20.901105
600.157625	-3.010000	3.755200	-11.303000	23.886065	0.000471	20.894067
601.160439	-2.996200	3.756000	-11.253000	23.887758	0.000470	20.868267
602.157505	-2.997000	3.755300	-11.253000	23.870333	0.000470	20.889199
603.156564	-3.004300	3.754500	-11.278000	23.892505	0.000468	20.893888
604.161407	-2.982500	3.755100	-11.199000	23.887328	0.000468	20.882059
605.159271	-2.999600	3.754100	-11.259000	23.895117	0.000469	20.884179
606.160098	-2.987900	3.753800	-11.216000	23.885455	0.000468	20.870225
607.162975	-2.993900	3.754600	-11.240000	23.872716	0.000471	20.887321
608.163239	-3.007900	3.753000	-11.288000	23.901060	0.000468	20.898198
609.160072	-3.026400	3.752200	-11.355000	23.931149	0.000467	20.868155
610.164400	-3.004400	3.752500	-11.273000	23.898096	0.000470	20.865356
611.165462	-3.003500	3.752100	-11.268000	23.911113	0.000468	20.873667
612.167984	-2.992100	3.751700	-11.224000	23.905287	0.000469	20.866404
613.167655	-2.979000	3.752900	-11.179000	23.918672	0.000469	20.873187
614.170625	-2.995900	3.751200	-11.237000	23.932039	0.000469	20.864306
615.166803	-2.979700	3.752200	-11.180000	23.920910	0.000467	20.885387
616.166436	-2.994900	3.751200	-11.233000	23.931785	0.000468	20.869741
617.168974	-2.990900	3.751300	-11.219000	23.929044	0.000468	20.883586
618.167433	-2.988900	3.750100	-11.208000	23.917374	0.000468	20.882316
619.167333	-3.000400	3.750900	-11.252000	23.932554	0.000470	20.882366
620.168192	-2.983300	3.751000	-11.189000	23.950572	0.000468	20.880519
621.171843	-3.013900	3.749000	-11.298000	23.946613	0.000467	20.890298
622.167296	-2.999300	3.749500	-11.245000	23.937626	0.000468	20.863744
623.165150	-3.024800	3.749200	-11.339000	23.956962	0.000468	20.858005
624.167016	-2.982600	3.748400	-11.179000	23.951285	0.000467	20.877915
625.168268	-2.995800	3.749400	-11.231000	23.957506	0.000470	20.871826
626.169453	-2.986900	3.749000	-11.196000	23.962235	0.000468	20.879412
627.169847	-3.001500	3.747200	-11.246000	23.968455	0.000469	20.871426
628.165292	-2.993800	3.746800	-11.216000	23.958322	0.000469	20.861265
629.167974	-2.997100	3.748700	-11.234000	23.964698	0.000469	20.855331
630.167273	-3.024800	3.746300	-11.331000	23.972581	0.000469	20.859443
631.170576	-2.973400	3.747800	-11.143000	23.968625	0.000469	20.858321
632.168116	-3.024900	3.746900	-11.333000	23.976586	0.000469	20.865830
633.166480	-3.022300	3.745600	-11.319000	23.986441	0.000470	20.852954
634.168169	-2.998000	3.745900	-11.230000	23.979299	0.000470	20.857172
635.175004	-2.990700	3.747300	-11.206000	23.975118	0.000468	20.842548
636.169859	-3.005100	3.745200	-11.253000	23.981710	0.000468	20.858640
637.173987	-2.988100	3.746000	-11.193000	23.992884	0.000468	20.860837
638.168960	-3.004800	3.744100	-11.249000	23.992486	0.000468	20.859964
639.173580	-2.994600	3.744100	-11.211000	23.995767	0.000468	20.858039
640.181531	-3.001500	3.744900	-11.239000	23.981237	0.000467	20.857692
641.174209	-2.968900	3.745900	-11.120000	23.987507	0.000467	20.856868
642.169739	-2.981100	3.743800	-11.160000	23.970609	0.000467	20.853199
643.173492	-3.003800	3.743500	-11.242000	23.997362	0.000467	20.855371
644.176071	-2.999100	3.744100	-11.228000	23.977702	0.000467	20.855569
645.170265	-2.991100	3.743200	-11.196000	24.014708	0.000468	20.862334
646.173917	-2.991500	3.743900	-11.199000	24.006766	0.000466	20.841094
647.169089	-2.994200	3.742800	-11.205000	23.994973	0.000467	20.868622
648.171911	-3.002300	3.742500	-11.235000	24.014235	0.000466	20.853326
649.171421	-3.005700	3.742500	-11.248000	24.000354	0.000466	20.843673
650.174763	-3.010900	3.741300	-11.263000	24.027653	0.000466	20.840704
651.172009	-3.013800	3.741800	-11.276000	24.013839	0.000466	20.860515
652.177276	-3.026200	3.740800	-11.320000	24.012025	0.000467	20.855377
653.175476	-2.998100	3.740700	-11.214000	24.039398	0.000465	20.860543
654.179291	-3.004000	3.741100	-11.238000	24.040922	0.000464	20.847373
655.177144	-3.002800	3.740100	-11.230000	24.050501	0.000466	20.843704
656.171141	-2.983700	3.739800	-11.157000	24.022158	0.000466	20.854160
657.175340	-2.984400	3.741700	-11.165000	24.029053	0.000467	20.848272
658.174924	-3.006600	3.737900	-11.237000	24.038883	0.000466	20.862396
659.175494	-2.988600	3.739600	-11.175000	24.038042	0.000466	20.836899
660.175663	-2.992400	3.738400	-11.187000	24.029059	0.000465	20.849226
661.175340	-2.993800	3.738700	-11.192000	24.045310	0.000465	20.843239
662.179714	-3.003000	3.739000	-11.227000	24.038917	0.000464	20.836828
663.174306	-3.014600	3.737400	-11.266000	24.045338	0.000465	20.848957
664.182771	-3.009300	3.737200	-11.245000	24.043104	0.000466	20.842924
665.181118	-2.992700	3.737600	-11.185000	24.038450	0.000465	20.837308
666.177737	-3.024400	3.737300	-11.302000	24.066793	0.000465	20.863835
667.181634	-3.005000	3.736200	-11.226000	24.052767	0.000465	20.836019
668.182071	-3.007200	3.737700	-11.239000	24.059782	0.000462	20.857278
669.187827	-3.010400	3.737000	-11.249000	24.039458	0.000464	20.847802
670.182386	-3.002000	3.736500	-11.216000	24.028235	0.000463	20.859779
671.175741	-3.004700	3.735000	-11.222000	24.066982	0.000465	20.835102
672.178952	-3.009600	3.735200	-11.241000	24.051881	0.000464	20.848406
673.178955	-3.026200	3.735900	-11.304000	24.052502	0.000465	20.834805
674.175573	-3.009000	3.735100	-11.238000	24.039764	0.000465	20.834359
675.176587	-3.008300	3.735400	-11.235000	24.063308	0.000466	20.830944
676.175716	-2.995200	3.734300	-11.184000	24.067440	0.000463	20.829398
677.176992	-2.977800	3.734500	-11.120000	24.058605	0.000465	20.821486
678.178293	-3.010800	3.732900	-11.238000	24.073910	0.000464	20.834464
679.179252	-2.985000	3.734400	-11.146000	24.081552	0.000464	20.831223
680.180774	-2.983600	3.734200	-11.140000	24.079065	0.000462	20.831099
681.180347	-2.979200	3.734600	-11.126000	24.093950	0.000464	20.837018
682.179951	-2.994400	3.733200	-11.178000	24.092828	0.000463	20.831626
683.185996	-2.989900	3.733500	-11.161000	24.083824	0.000462	20.850096
684.185291	-3.030300	3.730800	-11.304000	24.086113	0.000464	20.829160
685.183696	-2.997400	3.733800	-11.190000	24.120777	0.000461	20.821251
686.182467	-2.990900	3.731600	-11.160000	24.076785	0.000463	20.837821
687.184290	-3.002900	3.731800	-11.205000	24.082211	0.000465	20.800590
688.190065	-3.003900	3.731900	-11.209000	24.091543	0.000463	20.826544
689.191083	-3.005000	3.730600	-11.209000	24.081568	0.000463	20.840722
690.183665	-2.988900	3.731000	-11.151000	24.103489	0.000462	20.848956
691.188570	-2.998300	3.731900	-11.188000	24.077264	0.000462	20.818388
692.185953	-3.006700	3.731100	-11.218000	24.097272	0.000462	20.814273
693.187048	-2.997800	3.731700	-11.186000	24.083590	0.000463	20.816671
694.188589	-2.987600	3.731200	-11.146000	24.084458	0.000463	20.824654
695.190630	-2.990100	3.729500	-11.150000	24.075104	0.000462	20.818593
696.189028	-3.007600	3.728500	-11.212000	24.088148	0.000462	20.828829
697.192519	-3.013500	3.728400	-11.235000	24.117357	0.000461	20.809761
698.191967	-3.000900	3.728500	-11.188000	24.107231	0.000462	20.828528
699.191808	-2.982300	3.729700	-11.121000	24.115071	0.000463	20.799881
700.192076	-2.990100	3.728300	-11.147000	24.121217	0.000462	20.820270
701.189449	-3.013100	3.727400	-11.230000	24.130072	0.000463	20.816349
702.196707	-2.993600	3.728200	-11.159000	24.129430	0.000461	20.820920
703.189817	-2.999400	3.727400	-11.179000	24.116242	0.000460	20.814332
704.195124	-2.990600	3.727100	-11.145000	24.132513	0.000461	20.817849
705.198172	-3.007300	3.726900	-11.207000	24.140102	0.000459	20.829253
706.194479	-3.011300	3.727100	-11.223000	24.132714	0.000459	20.827534
707.200948	-3.014000	3.725500	-11.228000	24.144360	0.000460	20.830679
708.194637	-3.010500	3.726800	-11.219000	24.143238	0.000459	20.791148
709.190976	-3.008800	3.725400	-11.207000	24.141153	0.000461	20.795695
710.194251	-2.984200	3.726400	-11.119000	24.153744	0.000461	20.798366
711.204815	-3.002600	3.725900	-11.187000	24.135409	0.000459	20.802736
712.201942	-2.981300	3.726300	-11.106000	24.133493	0.000459	20.811246
713.200948	-2.979600	3.725100	-11.098000	24.139145	0.000459	20.794629
714.197297	-3.032200	3.722800	-11.288000	24.146808	0.000460	20.819858
715.193309	-2.999400	3.724000	-11.169000	24.155688	0.000462	20.799367
716.193448	-3.013700	3.723800	-11.222000	24.177635	0.000458	20.821380
717.196965	-3.001600	3.724600	-11.179000	24.150142	0.000461	20.819883
718.197238	-2.988200	3.723300	-11.124000	24.152858	0.000458	20.775666
719.193583	-2.994300	3.724400	-11.150000	24.166367	0.000458	20.807707
720.197207	-2.998700	3.721900	-11.159000	24.158580	0.000457	20.818389
721.199147	-3.003800	3.721700	-11.178000	24.161893	0.000457	20.778564
722.200113	-2.977400	3.722800	-11.083000	24.155525	0.000456	20.793040
723.197400	-2.993500	3.721900	-11.141000	24.167167	0.000458	20.798553
724.202178	-3.016600	3.720900	-11.223000	24.177147	0.000456	20.810934
725.202790	-2.985500	3.722300	-11.112000	24.192250	0.000456	20.800952
726.198478	-3.018500	3.721100	-11.230000	24.197527	0.000457	20.798659
727.200625	-2.993800	3.721800	-11.142000	24.182375	0.000457	20.797686
728.199969	-3.023400	3.721500	-11.251000	24.194793	0.000456	20.787381
729.201602	-2.993000	3.721600	-11.137000	24.166778	0.000457	20.806224
730.202541	-2.998500	3.720000	-11.153000	24.201288	0.000456	20.792473
731.197874	-3.005600	3.720500	-11.182000	24.186362	0.000457	20.799313
732.200918	-2.990400	3.719600	-11.123000	24.204078	0.000456	20.783418
733.201663	-3.002100	3.719700	-11.166000	24.217141	0.000456	20.777080
734.200594	-3.021500	3.719600	-11.238000	24.193502	0.000456	20.788931
735.205377	-2.995500	3.719900	-11.142000	24.220725	0.000457	20.803435
736.201188	-2.974200	3.719600	-11.062000	24.202737	0.000456	20.776857
737.208719	-2.993500	3.718500	-11.130000	24.206745	0.000454	20.800317
738.206352	-2.994500	3.718100	-11.134000	24.215652	0.000454	20.771319
739.202458	-2.994000	3.717900	-11.130000	24.200800	0.000454	20.788191
740.203513	-3.005400	3.718200	-11.174000	24.199082	0.000455	20.793106
741.206084	-3.001900	3.718000	-11.159000	24.227925	0.000455	20.788371
742.205237	-2.985100	3.718600	-11.099000	24.194161	0.000453	20.791015
743.202021	-2.995300	3.717400	-11.134000	24.189635	0.000454	20.781733
744.208322	-3.005700	3.717200	-11.171000	24.196630	0.000452	20.776896
745.204566	-2.991000	3.717300	-11.118000	24.228948	0.000454	20.791768
746.210648	-2.993100	3.716200	-11.121000	24.215338	0.000453	20.789022
747.203519	-2.978500	3.716100	-11.067000	24.228101	0.000454	20.773375
748.205903	-2.999600	3.716100	-11.146000	24.228454	0.000455	20.765194
749.209817	-3.001200	3.716200	-11.152000	24.215638	0.000455	20.764192
750.207098	-2.988500	3.715600	-11.103000	24.211288	0.000453	20.767890
751.208046	-3.004100	3.714900	-11.159000	24.219695	0.000452	20.766839
752.207762	-2.988500	3.714900	-11.101000	24.215419	0.000454	20.771085
753.208118	-2.995200	3.714500	-11.125000	24.231445	0.000454	20.765823
754.205898	-2.975300	3.715000	-11.052000	24.238257	0.000453	20.764595
755.213380	-2.992300	3.714600	-11.114000	24.234504	0.000451	20.778374
756.208076	-2.983400	3.714100	-11.080000	24.218781	0.000452	20.762129
757.209240	-2.995600	3.713200	-11.122000	24.247662	0.000453	20.778297
758.213241	-3.003200	3.712600	-11.148000	24.222439	0.000453	20.778127
759.210058	-2.982500	3.713100	-11.073000	24.229678	0.000451	20.762628
760.211947	-2.980800	3.714100	-11.069000	24.236701	0.000452	20.772044
761.213630	-3.014200	3.713200	-11.191000	24.254833	0.000451	20.775533
762.217238	-2.982900	3.712900	-11.073000	24.256307	0.000452	20.764209
763.209316	-3.022700	3.712200	-11.220000	24.235311	0.000451	20.759269
764.209532	-3.002700	3.712200	-11.146000	24.246928	0.000452	20.771870
765.213154	-3.008500	3.711400	-11.164000	24.242599	0.000453	20.765632
766.210011	-2.984300	3.711900	-11.076000	24.259200	0.000449	20.757627
767.213027	-2.991000	3.712100	-11.101000	24.262907	0.000451	20.767510
768.209300	-3.004300	3.710800	-11.146000	24.258600	0.000449	20.759871
769.211227	-3.011300	3.710100	-11.171000	24.273480	0.000449	20.765787
770.213573	-3.019500	3.708200	-11.196000	24.276217	0.000451	20.748144
771.212284	-3.010800	3.709000	-11.167000	24.256910	0.000450	20.767185
772.218082	-2.995500	3.709900	-11.111000	24.255122	0.000448	20.727457
773.214368	-3.024800	3.708500	-11.216000	24.273980	0.000447	20.760599
774.211983	-2.999100	3.710500	-11.127000	24.275645	0.000447	20.750415
775.217762	-3.003200	3.709100	-11.139000	24.251640	0.000448	20.766640
776.212718	-3.006400	3.709600	-11.151000	24.270823	0.000448	20.761700
777.214935	-3.014700	3.708300	-11.178000	24.272961	0.000447	20.752938
778.220252	-3.000400	3.707900	-11.124000	24.289904	0.000449	20.757606
779.216402	-2.994800	3.708100	-11.103000	24.256818	0.000449	20.765670
780.213341	-3.019900	3.706900	-11.193000	24.284908	0.000448	20.761130
781.228692	-2.970800	3.708600	-11.016000	24.281275	0.000448	20.771710
782.216352	-3.003000	3.706700	-11.130000	24.283391	0.000448	20.752496
783.214386	-2.993400	3.706500	-11.095000	24.280485	0.000447	20.756218
784.225284	-3.025500	3.706500	-11.213000	24.298373	0.000447	20.740022
785.216416	-3.001900	3.706400	-11.125000	24.294263	0.000447	20.757712
786.217343	-2.980900	3.707100	-11.049000	24.286231	0.000446	20.761982
787.220141	-3.028400	3.705500	-11.221000	24.301808	0.000446	20.770970
788.215203	-2.977300	3.705800	-11.031000	24.309770	0.000446	20.766154
789.216212	-3.019600	3.704600	-11.186000	24.307685	0.000445	20.748415
790.215314	-3.007100	3.705700	-11.142000	24.297684	0.000445	20.737435
791.216008	-2.987900	3.706700	-11.075000	24.292457	0.000445	20.759219
792.220842	-3.006200	3.703000	-11.130000	24.273454	0.000444	20.745846
793.217913	-2.981600	3.703100	-11.040000	24.292711	0.000447	20.743351
794.218670	-2.981000	3.704100	-11.042000	24.304750	0.000444	20.759696
795.219320	-3.009200	3.704200	-11.146000	24.297391	0.000445	20.745202
796.219104	-3.003000	3.702700	-11.118000	24.289783	0.000444	20.760803
797.219552	-3.018800	3.702800	-11.177000	24.302944	0.000444	20.738917
798.221642	-3.013400	3.703400	-11.159000	24.314337	0.000443	20.758882
799.217816	-2.992600	3.702700	-11.080000	24.310930	0.000446	20.747877
800.223019	-2.999000	3.703000	-11.105000	24.337004	0.000445	20.748903
801.223268	-2.986100	3.701900	-11.053000	24.308471	0.000444	20.733556
802.222056	-3.016600	3.701800	-11.166000	24.298619	0.000446	20.743114
803.222483	-2.989100	3.702500	-11.066000	24.310683	0.000444	20.732930
804.236274	-3.029100	3.701200	-11.210000	24.333251	0.000442	20.756044
805.225655	-3.001500	3.701600	-11.109000	24.307554	0.000441	20.740697
806.228091	-2.986900	3.701900	-11.056000	24.317455	0.000443	20.750630
807.221866	-3.022700	3.700500	-11.184000	24.330764	0.000443	20.752601
808.226726	-3.021500	3.699100	-11.176000	24.317603	0.000443	20.742243
809.234419	-2.995500	3.699700	-11.082000	24.335812	0.000443	20.739646
810.223772	-2.982600	3.699900	-11.034000	24.306958	0.000441	20.734883
811.226646	-3.013900	3.700400	-11.152000	24.324073	0.000441	20.740198
812.224650	-3.005200	3.698900	-11.115000	24.345240	0.000441	20.761433
813.221008	-2.988500	3.699500	-11.055000	24.334422	0.000442	20.755322
814.228269	-3.004100	3.697900	-11.106000	24.331438	0.000441	20.746164
815.233522	-3.008400	3.699700	-11.129000	24.342031	0.000440	20.760110
816.226832	-3.020900	3.697200	-11.168000	24.334295	0.000442	20.725796
817.229225	-2.991100	3.698300	-11.061000	24.348376	0.000441	20.746086
818.230842	-2.995500	3.698500	-11.078000	24.358101	0.000439	20.750626
819.231155	-3.006900	3.698100	-11.119000	24.342775	0.000439	20.736199
820.230098	-3.006300	3.697200	-11.113000	24.363445	0.000439	20.755987
821.233810	-3.017900	3.697400	-11.158000	24.331505	0.000439	20.739593
822.226535	-3.006300	3.696700	-11.112000	24.333766	0.000439	20.732378
823.231611	-3.015100	3.697300	-11.146000	24.328165	0.000437	20.755683
824.237571	-2.979600	3.697700	-11.017000	24.346306	0.000438	20.765347
825.230528	-2.998700	3.696900	-11.083000	24.369364	0.000439	20.740588
826.231159	-2.985500	3.696100	-11.033000	24.342172	0.000439	20.737017
827.235258	-3.025300	3.695600	-11.179000	24.371822	0.000438	20.752538
828.231217	-2.988800	3.697500	-11.050000	24.355079	0.000438	20.756129
829.233500	-3.001800	3.695900	-11.092000	24.359530	0.000437	20.756802
830.230981	-3.003700	3.695700	-11.099000	24.355301	0.000438	20.762516
831.230723	-3.016000	3.694100	-11.141000	24.351146	0.000438	20.748865
832.237851	-2.990500	3.694500	-11.047000	24.356348	0.000437	20.746497
833.239741	-3.036900	3.694800	-11.220000	24.356638	0.000435	20.760539
834.234696	-3.007100	3.694000	-11.107000	24.370422	0.000436	20.755401
835.242491	-3.007800	3.693900	-11.110000	24.353086	0.000435	20.754130
836.235120	-3.003800	3.693400	-11.094000	24.361636	0.000437	20.761285
837.235812	-2.998000	3.693000	-11.070000	24.368056	0.000436	20.750655
838.239867	-2.990100	3.693300	-11.042000	24.363922	0.000434	20.756940
839.237843	-2.984900	3.692500	-11.021000	24.373449	0.000435	20.750850
840.241287	-2.981000	3.693800	-11.011000	24.387057	0.000433	20.757389
841.238224	-2.992600	3.691700	-11.047000	24.400513	0.000433	20.757612
842.234295	-2.988400	3.692700	-11.034000	24.385985	0.000431	20.754417
843.243378	-3.007200	3.691300	-11.100000	24.393046	0.000435	20.742535
844.241735	-2.984600	3.692800	-11.020000	24.410033	0.000432	20.752938
845.237322	-3.007100	3.691600	-11.099000	24.381749	0.000434	20.767238
846.235380	-2.990400	3.691600	-11.038000	24.399907	0.000433	20.748943
847.242354	-3.008400	3.691200	-11.104000	24.397643	0.000432	20.776544
848.240371	-3.014100	3.690400	-11.122000	24.395128	0.000432	20.773073
849.237772	-3.007000	3.690500	-11.097000	24.414107	0.000432	20.757500
850.242110	-3.025000	3.689700	-11.161000	24.424629	0.000431	20.764736
851.239046	-3.024000	3.689300	-11.156000	24.402066	0.000432	20.778611
852.239193	-3.006600	3.690300	-11.094000	24.408334	0.000431	20.754078
853.237897	-3.012300	3.689600	-11.113000	24.413674	0.000432	20.776980
854.243072	-2.997400	3.689100	-11.056000	24.395541	0.000431	20.772539
855.241645	-3.014200	3.689700	-11.121000	24.426559	0.000431	20.771414
856.247184	-3.012400	3.689600	-11.114000	24.419247	0.000432	20.778303
857.238376	-2.971500	3.689200	-10.961000	24.422549	0.000432	20.768339
858.237968	-2.998300	3.688500	-11.058000	24.416725	0.000430	20.763446
859.242913	-3.016600	3.688400	-11.125000	24.439909	0.000430	20.759677
860.238296	-2.995000	3.687800	-11.044000	24.420157	0.000429	20.765940
861.239298	-2.974000	3.689200	-10.971000	24.412867	0.000428	20.766687
862.239097	-3.011600	3.686100	-11.100000	24.417618	0.000429	20.761022
863.241704	-2.996600	3.687700	-11.049000	24.458930	0.000429	20.781132
864.242493	-2.999300	3.687800	-11.059000	24.429430	0.000427	20.778088
865.242215	-2.986100	3.687900	-11.012000	24.452416	0.000429	20.785027
866.242086	-3.012000	3.686600	-11.102000	24.450970	0.000428	20.794482
867.238289	-2.991500	3.686600	-11.028000	24.426866	0.000427	20.769352
868.240682	-3.014900	3.685700	-11.111000	24.435920	0.000428	20.796453
869.244720	-2.993300	3.686400	-11.034000	24.446318	0.000428	20.792186
870.244105	-3.022000	3.686200	-11.138000	24.446766	0.000427	20.769401
871.246589	-2.997400	3.685800	-11.047000	24.442435	0.000428	20.775488
872.244195	-3.004100	3.684200	-11.067000	24.460994	0.000427	20.790314
873.241708	-3.035600	3.683400	-11.180000	24.450173	0.000424	20.772820
874.249327	-3.013900	3.684500	-11.103000	24.446692	0.000426	20.797777
875.244204	-2.982200	3.685900	-10.991000	24.443958	0.000424	20.786025
876.247884	-2.988000	3.685100	-11.011000	24.455421	0.000425	20.773818
877.248741	-2.996300	3.684200	-11.037000	24.464580	0.000423	20.789645
878.245388	-2.999200	3.684700	-11.050000	24.459579	0.000424	20.809758
879.249517	-3.003700	3.683000	-11.062000	24.450649	0.000425	20.791789
880.247404	-3.009000	3.682200	-11.079000	24.455728	0.000421	20.778392
881.246205	-3.007600	3.681700	-11.071000	24.463215	0.000424	20.782585
882.247922	-3.008600	3.682600	-11.079000	24.461025	0.000422	20.803148
883.247840	-3.008800	3.682200	-11.078000	24.465755	0.000425	20.789875
884.245487	-2.995800	3.682900	-11.033000	24.487819	0.000423	20.791623
885.249967	-2.983700	3.682500	-10.986000	24.471605	0.000421	20.803331
886.250148	-2.991700	3.683000	-11.017000	24.468421	0.000423	20.792075
887.250660	-2.981600	3.682000	-10.978000	24.477650	0.000423	20.790430
888.245935	-3.010200	3.680900	-11.079000	24.492975	0.000422	20.783519
889.253372	-2.992100	3.682500	-11.017000	24.499143	0.000421	20.805829
890.244860	-3.000900	3.680200	-11.041000	24.486958	0.000420	20.795500
891.249991	-2.975900	3.681300	-10.954000	24.482232	0.000422	20.765154
892.255413	-3.001300	3.680200	-11.044000	24.464107	0.000421	20.786799
893.257020	-3.009300	3.680300	-11.074000	24.490622	0.000420	20.770253
894.251930	-3.005400	3.680700	-11.062000	24.504627	0.000421	20.779088
895.250307	-3.017600	3.680100	-11.104000	24.493584	0.000420	20.784605
896.251120	-2.990100	3.679400	-11.001000	24.482344	0.000421	20.796561
897.251579	-2.998200	3.678900	-11.028000	24.475308	0.000419	20.802778
898.250600	-3.018700	3.678000	-11.101000	24.494339	0.000421	20.781094
899.246920	-3.000700	3.678600	-11.037000	24.510583	0.000419	20.782219
900.252889	-2.981700	3.678500	-10.967000	24.498225	0.000417	20.784045
901.249910	-2.996700	3.678400	-11.022000	24.501484	0.000419	20.799169
902.253383	-2.996000	3.678300	-11.018000	24.486914	0.000418	20.779809
903.253484	-3.009900	3.676800	-11.066000	24.484752	0.000417	20.801822
904.249270	-2.963000	3.679100	-10.900000	24.511175	0.000416	20.787555
905.259151	-2.993600	3.676500	-11.005000	24.517989	0.000417	20.791072
906.247805	-3.002200	3.676600	-11.036000	24.521201	0.000417	20.810891
907.251856	-2.992000	3.676600	-10.999000	24.518196	0.000417	20.785591
908.249900	-3.006800	3.675900	-11.052000	24.509894	0.000415	20.798598
909.249141	-3.011600	3.676400	-11.071000	24.528128	0.000416	20.778959
910.248200	-2.989100	3.676200	-10.987000	24.537459	0.000414	20.809659
911.250031	-2.986100	3.675100	-10.972000	24.529775	0.000415	20.808587
912.261545	-3.008400	3.674800	-11.054000	24.524184	0.000414	20.814832
913.253231	-3.007200	3.675000	-11.051000	24.535156	0.000414	20.786960
914.253351	-3.001900	3.674400	-11.028000	24.531255	0.000414	20.791581
915.251649	-2.979200	3.674800	-10.946000	24.530638	0.000414	20.795703
916.252617	-3.003200	3.674600	-11.035000	24.522488	0.000415	20.800802
917.251529	-2.990900	3.674000	-10.987000	24.546268	0.000412	20.791471
918.255207	-2.997600	3.673000	-11.010000	24.532916	0.000413	20.803204
919.255698	-3.012800	3.674500	-11.070000	24.552444	0.000415	20.801460
920.254026	-3.007200	3.672000	-11.042000	24.537797	0.000413	20.791506
921.251241	-3.006400	3.673300	-11.042000	24.550662	0.000412	20.824803
922.254227	-3.003600	3.672100	-11.028000	24.539275	0.000411	20.789195
923.252674	-3.011800	3.671100	-11.056000	24.519306	0.000412	20.793817
924.249949	-3.017100	3.672700	-11.080000	24.516972	0.000411	20.794319
925.252316	-2.990000	3.673000	-10.982000	24.522029	0.000411	20.804609
926.253869	-2.999700	3.671700	-11.013000	24.558023	0.000412	20.817015
927.253609	-2.995300	3.671800	-10.997000	24.522283	0.000411	20.798226
928.253666	-3.013400	3.670200	-11.058000	24.538182	0.000410	20.796159
929.256844	-3.029100	3.670000	-11.116000	24.543835	0.000413	20.801831
930.252534	-3.001800	3.670900	-11.019000	24.556746	0.000410	20.818579
931.254765	-3.028400	3.670100	-11.113000	24.547672	0.000410	20.792879
932.251683	-2.995900	3.670100	-10.994000	24.543003	0.000410	20.809531
933.251410	-3.008800	3.670100	-11.041000	24.556930	0.000410	20.791736
934.264412	-3.002000	3.670500	-11.017000	24.554577	0.000410	20.801230
935.251491	-3.000400	3.669700	-11.009000	24.548438	0.000408	20.802656
936.254171	-3.023300	3.667800	-11.088000	24.551851	0.000409	20.828366
937.259729	-2.992000	3.669200	-10.977000	24.565535	0.000408	20.804638
938.259991	-2.999000	3.668900	-11.002000	24.566558	0.000408	20.807561
939.253827	-2.994000	3.668500	-10.982000	24.590193	0.000407	20.816577
940.258647	-2.994900	3.667700	-10.984000	24.567983	0.000407	20.799507
941.253423	-3.003400	3.668500	-11.017000	24.586695	0.000408	20.803584
942.253889	-2.997000	3.668400	-10.993000	24.560831	0.000407	20.810349
943.258652	-2.999500	3.667600	-11.000000	24.554966	0.000407	20.810155
944.255084	-3.019100	3.666900	-11.069000	24.594965	0.000406	20.810459
945.255419	-3.005800	3.667100	-11.022000	24.578479	0.000406	20.825211
946.258842	-3.001000	3.667100	-11.004000	24.592511	0.000405	20.816532
947.257756	-2.973800	3.668500	-10.909000	24.586199	0.000406	20.798818
948.258544	-3.018500	3.666000	-11.066000	24.570304	0.000406	20.828863
949.257734	-3.008100	3.666200	-11.027000	24.562155	0.000405	20.821160
950.256018	-3.012400	3.665800	-11.042000	24.583667	0.000405	20.799597
951.260209	-3.026500	3.665200	-11.092000	24.610560	0.000405	20.814728
952.259016	-3.009500	3.665100	-11.029000	24.590314	0.000405	20.826656
953.258733	-3.000500	3.665700	-10.998000	24.593083	0.000406	20.834649
954.257900	-2.994200	3.664300	-10.970000	24.614948	0.000404	20.812492
955.258755	-3.002300	3.664800	-11.001000	24.595996	0.000404	20.819080
956.263648	-3.013700	3.664700	-11.044000	24.607888	0.000405	20.807779
957.262066	-3.011700	3.663400	-11.031000	24.593637	0.000403	20.806756
958.261784	-2.987700	3.663900	-10.945000	24.607476	0.000401	20.802150
959.263314	-3.016200	3.663000	-11.047000	24.597700	0.000402	20.815574
960.263034	-2.984100	3.664300	-10.934000	24.614095	0.000402	20.809740
961.265275	-3.001900	3.663500	-10.996000	24.602980	0.000403	20.813760
962.265059	-3.017700	3.662500	-11.050000	24.615467	0.000401	20.829134
963.261372	-2.997800	3.662100	-10.976000	24.613355	0.000402	20.822273
964.264294	-3.001100	3.662800	-10.991000	24.627584	0.000401	20.835128
965.268378	-3.000300	3.661900	-10.986000	24.642159	0.000401	20.819407
966.265702	-2.981600	3.661400	-10.916000	24.616867	0.000401	20.828168
967.265966	-2.984700	3.661600	-10.928000	24.629379	0.000400	20.819860
968.265115	-2.986000	3.661300	-10.932000	24.634725	0.000398	20.821431
969.262497	-2.979200	3.661500	-10.907000	24.631425	0.000398	20.836611
970.268774	-3.013400	3.660300	-11.030000	24.635152	0.000399	20.816644
971.264129	-2.981800	3.660700	-10.914000	24.646994	0.000399	20.837061
972.264140	-2.993400	3.660700	-10.957000	24.622172	0.000399	20.826378
973.270009	-2.999300	3.659400	-10.974000	24.637223	0.000398	20.843851
974.264436	-3.015900	3.661200	-11.041000	24.662020	0.000398	20.808991
975.263563	-2.994800	3.659800	-10.959000	24.650905	0.000398	20.831028
976.268951	-2.999400	3.659400	-10.975000	24.650260	0.000397	20.847924
977.263987	-2.990600	3.659700	-10.944000	24.634522	0.000396	20.827865
978.266207	-3.008200	3.658000	-11.003000	24.656756	0.000395	20.829787
979.273228	-3.052800	3.657000	-11.163000	24.662902	0.000396	20.832161
980.267980	-3.007500	3.657800	-10.999000	24.659792	0.000396	20.841842
981.271231	-3.004000	3.657800	-10.987000	24.648385	0.000397	20.809059
982.267308	-2.999300	3.658700	-10.972000	24.672533	0.000396	20.837083
983.263151	-2.998800	3.658000	-10.969000	24.663855	0.000395	20.836910
984.273360	-3.009100	3.657100	-11.003000	24.646350	0.000394	20.823139
985.267803	-2.997900	3.656600	-10.962000	24.667495	0.000395	20.827286
986.264300	-2.999300	3.657300	-10.967000	24.645483	0.000395	20.839338
987.268249	-3.004600	3.656700	-10.984000	24.679188	0.000395	20.858459
988.270305	-2.997800	3.656300	-10.960000	24.676406	0.000393	20.829116
989.271307	-3.004300	3.657000	-10.986000	24.676505	0.000394	20.847707
990.272308	-3.002200	3.656400	-10.976000	24.681385	0.000394	20.863509
991.270675	-3.003200	3.656400	-10.980000	24.681336	0.000394	20.826477
992.272284	-2.989200	3.655400	-10.926000	24.668257	0.000392	20.838957
993.273297	-2.986800	3.656200	-10.919000	24.698954	0.000393	20.835147
994.269269	-3.003400	3.654700	-10.975000	24.687018	0.000393	20.847351
995.271082	-2.977300	3.655900	-10.884000	24.691673	0.000391	20.845384
996.277610	-2.983600	3.655000	-10.904000	24.685805	0.000391	20.839970
997.273748	-3.007300	3.654500	-10.989000	24.702816	0.000391	20.843763
998.276633	-3.009700	3.653900	-10.996000	24.691253	0.000392	20.852075
999.280087	-2.995000	3.653600	-10.941000	24.683257	0.000393	20.848792
1000.274061	-3.038700	3.652800	-11.098000	24.710243	0.000390	20.839837
1001.275658	-3.020100	3.653300	-11.032000	24.691219	0.000388	20.842084
1002.274036	-3.011500	3.652300	-10.998000	24.701840	0.000391	20.848948
1003.279265	-2.996400	3.652700	-10.945000	24.676850	0.000390	20.824821
1004.278874	-2.992900	3.652800	-10.932000	24.693861	0.000389	20.840467
1005.273791	-2.978200	3.652700	-10.878000	24.701573	0.000389	20.845835
1006.274575	-2.985300	3.651900	-10.900000	24.706471	0.000388	20.862129
1007.278653	-3.011600	3.651300	-10.996000	24.702994	0.000390	20.847261
1008.276371	-3.005200	3.650200	-10.969000	24.700858	0.000389	20.834212
1009.281174	-3.011300	3.649700	-10.990000	24.710685	0.000387	20.848815
1010.288426	-3.021100	3.650800	-11.028000	24.725460	0.000387	20.851314
1011.278306	-3.011100	3.650200	-10.989000	24.697463	0.000387	20.848823
1012.275228	-2.995500	3.651900	-10.938000	24.716564	0.000388	20.849499
1013.278331	-3.009500	3.649900	-10.983000	24.701152	0.000387	20.841146
1014.275381	-3.012000	3.649900	-10.992000	24.725772	0.000384	20.852574
1015.274940	-3.006600	3.648900	-10.970000	24.729954	0.000385	20.861987
1016.274019	-2.996200	3.649400	-10.934000	24.730944	0.000384	20.867722
1017.278290	-2.996300	3.648800	-10.932000	24.719415	0.000386	20.872747
1018.280130	-3.002700	3.648400	-10.954000	24.738487	0.000385	20.875765
1019.274979	-3.004400	3.647700	-10.958000	24.718774	0.000383	20.854087
1020.277505	-2.988600	3.648600	-10.903000	24.724965	0.000383	20.868360
1021.281646	-3.003400	3.648600	-10.957000	24.731284	0.000384	20.887976
1022.278129	-2.996500	3.648400	-10.932000	24.727681	0.000384	20.869188
1023.279393	-2.998300	3.647200	-10.935000	24.727434	0.000385	20.851398
1024.277579	-3.006900	3.647000	-10.965000	24.744399	0.000383	20.881697
1025.275931	-2.992600	3.647300	-10.914000	24.756433	0.000383	20.867696
1026.277356	-3.032200	3.646000	-11.054000	24.757834	0.000384	20.871472
1027.278425	-3.004700	3.645700	-10.953000	24.750824	0.000383	20.872972
1028.278663	-2.996400	3.646400	-10.925000	24.759177	0.000381	20.866182
1029.277087	-3.003700	3.645700	-10.950000	24.744982	0.000382	20.871377
1030.276772	-2.988500	3.645300	-10.894000	24.773006	0.000381	20.878637
1031.281411	-3.008700	3.644900	-10.966000	24.772784	0.000380	20.858027
1032.280427	-2.995200	3.646200	-10.920000	24.754633	0.000379	20.863993
1033.279235	-2.978600	3.644600	-10.855000	24.762126	0.000378	20.853496
1034.286827	-3.004900	3.644000	-10.948000	24.771551	0.000378	20.866746
1035.278503	-3.007200	3.645000	-10.960000	24.769316	0.000378	20.852650
1036.278934	-2.997300	3.644100	-10.921000	24.769768	0.000379	20.848362
1037.282700	-3.035300	3.642900	-11.055000	24.772233	0.000377	20.889240
1038.282560	-3.007200	3.643400	-10.955000	24.771662	0.000378	20.836039
1039.287744	-3.019800	3.642500	-10.999000	24.785766	0.000377	20.854460
1040.284647	-2.995800	3.642400	-10.911000	24.789694	0.000375	20.858401
1041.285107	-3.002300	3.642000	-10.933000	24.788777	0.000378	20.865068
1042.287471	-3.014800	3.643600	-10.984000	24.801287	0.000378	20.851545
1043.291213	-3.009700	3.641900	-10.960000	24.810317	0.000377	20.844960
1044.282495	-2.996500	3.641500	-10.910000	24.798884	0.000375	20.857667
1045.285754	-3.006100	3.642700	-10.950000	24.780186	0.000375	20.855972
1046.284493	-3.008800	3.641400	-10.955000	24.803817	0.000375	20.838437
1047.283123	-3.019100	3.640700	-10.990000	24.777556	0.000374	20.834842
1048.287748	-2.973300	3.641700	-10.826000	24.784820	0.000373	20.858726
1049.292410	-2.988000	3.641000	-10.878000	24.784549	0.000374	20.863195
1050.286035	-2.966000	3.642700	-10.803000	24.769882	0.000375	20.831408
1051.290164	-2.995100	3.640000	-10.901000	24.791171	0.000375	20.838074
1052.293220	-3.019100	3.639400	-10.987000	24.800198	0.000375	20.850451
1053.286747	-3.003800	3.640100	-10.933000	24.776907	0.000371	20.826130
1054.294611	-2.997800	3.640900	-10.914000	24.788345	0.000372	20.832393
1055.287400	-3.010400	3.639600	-10.956000	24.794815	0.000372	20.820869
1056.289378	-3.008500	3.638900	-10.946000	24.786459	0.000371	20.850414
1057.292560	-3.013600	3.639100	-10.965000	24.787708	0.000371	20.806624
1058.287798	-3.000600	3.638400	-10.916000	24.814983	0.000371	20.837315
1059.286744	-3.016900	3.638100	-10.975000	24.802802	0.000370	20.824616
1060.293133	-2.993300	3.637300	-10.887000	24.805813	0.000372	20.843285
1061.291262	-3.004900	3.636700	-10.926000	24.811388	0.000371	20.819957
1062.296119	-2.996400	3.637000	-10.897000	24.813204	0.000371	20.827469
1063.293698	-3.011500	3.635600	-10.947000	24.800895	0.000370	20.834083
1064.288928	-3.011900	3.636900	-10.953000	24.793936	0.000370	20.820460
1065.293292	-2.981100	3.636100	-10.839000	24.804207	0.000369	20.808957
1066.306592	-2.991600	3.635700	-10.875000	24.800505	0.000370	20.831320
1067.289303	-3.011900	3.634800	-10.946000	24.817242	0.000369	20.816824
1068.296364	-2.993300	3.636600	-10.885000	24.821195	0.000368	20.843075
1069.289676	-2.996300	3.636100	-10.894000	24.822316	0.000370	20.838036
1070.295517	-3.002900	3.634900	-10.914000	24.817740	0.000369	20.826805
1071.292371	-3.005800	3.635100	-10.925000	24.836494	0.000366	20.829980
1072.291692	-2.991600	3.634600	-10.872000	24.824535	0.000368	20.810866
1073.294645	-3.001500	3.634000	-10.907000	24.828162	0.000366	20.821619
1074.294024	-2.990400	3.634700	-10.868000	24.809391	0.000366	20.844505
1075.291284	-2.992700	3.633500	-10.872000	24.838889	0.000367	20.825746
1076.290280	-3.008800	3.633500	-10.931000	24.861813	0.000365	20.818407
1077.293845	-2.963400	3.634200	-10.769000	24.835578	0.000365	20.804879
1078.291994	-2.997800	3.633500	-10.892000	24.842820	0.000365	20.821157
1079.297421	-2.992300	3.632200	-10.868000	24.845454	0.000365	20.813843
1080.305423	-3.013100	3.631900	-10.942000	24.847767	0.000364	20.822802
1081.291581	-2.977200	3.632700	-10.815000	24.850979	0.000362	20.810853
1082.295811	-2.983000	3.632200	-10.834000	24.844891	0.000363	20.810907
1083.295491	-3.007500	3.631500	-10.920000	24.832977	0.000363	20.818390
1084.291671	-2.997700	3.631400	-10.885000	24.861829	0.000362	20.818423
1085.295931	-2.981100	3.633300	-10.830000	24.868221	0.000362	20.799709
1086.296971	-2.972200	3.631700	-10.792000	24.872621	0.000361	20.820720
1087.297720	-2.970600	3.630000	-10.781000	24.832887	0.000360	20.814032
1088.297420	-3.008500	3.628500	-10.914000	24.849278	0.000361	20.789706
1089.297042	-2.964400	3.631600	-10.765000	24.864922	0.000360	20.821053
1090.298398	-2.975500	3.630200	-10.800000	24.828819	0.000359	20.800467
1091.298118	-3.008600	3.629000	-10.917000	24.858690	0.000361	20.797255
1092.305180	-2.994300	3.629000	-10.864000	24.856722	0.000358	20.803815
1093.298790	-2.987400	3.628900	-10.840000	24.849192	0.000359	20.797680
1094.294552	-3.002600	3.628200	-10.892000	24.841760	0.000358	20.808239
1095.298446	-2.993800	3.628000	-10.860000	24.832640	0.000359	20.794819
1096.297888	-2.987000	3.627600	-10.835000	24.843757	0.000358	20.801708
1097.296426	-2.992100	3.627800	-10.853000	24.851936	0.000359	20.805176
1098.296537	-2.994100	3.627200	-10.859000	24.862511	0.000355	20.802512
1099.296139	-3.000900	3.627300	-10.884000	24.846674	0.000358	20.783299
1100.296139	-3.003600	3.625300	-10.888000	24.864631	0.000356	20.798002
1101.294738	-2.982200	3.626600	-10.814000	24.860132	0.000356	20.787797
1102.296731	-2.996300	3.626200	-10.864000	24.864466	0.000355	20.771758
1103.299981	-2.980400	3.625900	-10.805000	24.850885	0.000356	20.797956
1104.299101	-3.007800	3.626200	-10.906000	24.855046	0.000354	20.777951
1105.306747	-2.992800	3.626400	-10.852000	24.867901	0.000354	20.786585
1106.298199	-3.014000	3.623800	-10.921000	24.863825	0.000352	20.811418
1107.300175	-2.998400	3.624400	-10.866000	24.866418	0.000356	20.786045
1108.305200	-2.990200	3.624000	-10.836000	24.871368	0.000354	20.782478
1109.299972	-2.989600	3.623900	-10.833000	24.877485	0.000354	20.790514
1110.304187	-3.000100	3.624000	-10.872000	24.878533	0.000354	20.771651
1111.301571	-2.998200	3.622600	-10.860000	24.863518	0.000355	20.781237
1112.306333	-2.984300	3.623300	-10.812000	24.880431	0.000353	20.794893
1113.303256	-2.981200	3.623400	-10.800000	24.872054	0.000348	20.778900
1114.301014	-2.996200	3.623000	-10.854000	24.875164	0.000353	20.769693
1115.305143	-2.986000	3.623400	-10.819000	24.893466	0.000349	20.784268
1116.304005	-3.003400	3.622100	-10.876000	24.884691	0.000351	20.786367
1117.304730	-2.999600	3.622500	-10.865000	24.891182	0.000350	20.781027
1118.306210	-2.997500	3.622200	-10.855000	24.909660	0.000349	20.779184
1119.307469	-3.006600	3.621100	-10.886000	24.891712	0.000351	20.786301
1120.302531	-3.008600	3.620700	-10.892000	24.897903	0.000349	20.761694
1121.308856	-2.973700	3.620600	-10.764000	24.870305	0.000349	20.788997
1122.303164	-3.018600	3.619800	-10.926000	24.886819	0.000349	20.779494
1123.305306	-2.994600	3.619100	-10.837000	24.895372	0.000349	20.772431
1124.307481	-3.006500	3.619000	-10.879000	24.893191	0.000347	20.786837
1125.303475	-3.021000	3.618500	-10.930000	24.880160	0.000346	20.767594
1126.302552	-2.995000	3.618600	-10.836000	24.890878	0.000344	20.770765
1127.306096	-3.013300	3.618000	-10.901000	24.887974	0.000349	20.776385
1128.306647	-2.993200	3.618400	-10.829000	24.892525	0.000348	20.781428
1129.308054	-3.004700	3.618100	-10.870000	24.897131	0.000346	20.775618
1130.305940	-3.011200	3.617800	-10.893000	24.889395	0.000345	20.797252
1131.311009	-3.009900	3.616500	-10.884000	24.910334	0.000344	20.760420
1132.308298	-2.986900	3.616900	-10.802000	24.884330	0.000345	20.765616
1133.309128	-3.006300	3.616600	-10.872000	24.888414	0.000346	20.750273
1134.308543	-2.980900	3.616700	-10.779000	24.903876	0.000344	20.763422
1135.306061	-2.976500	3.617800	-10.768000	24.881455	0.000344	20.756091
1136.310083	-2.991700	3.616700	-10.820000	24.888969	0.000342	20.763633
1137.308892	-3.020000	3.615500	-10.917000	24.897674	0.000342	20.777586
1138.311122	-3.012400	3.616200	-10.893000	24.903072	0.000342	20.779210
1139.311506	-3.007400	3.615900	-10.872000	24.910158	0.000343	20.777313
1140.311017	-3.047000	3.614200	-11.012000	24.891187	0.000341	20.797628
1141.309487	-2.993700	3.615900	-10.823000	24.894026	0.000342	20.763967
1142.305718	-2.982800	3.615500	-10.784000	24.904846	0.000341	20.764870
1143.306999	-3.006500	3.614500	-10.866000	24.900521	0.000341	20.778547
1144.306121	-3.004400	3.614500	-10.858000	24.903458	0.000341	20.756838
1145.309445	-3.018800	3.612900	-10.905000	24.908511	0.000339	20.760013
1146.308601	-3.000800	3.613700	-10.843000	24.900677	0.000339	20.750254
1147.309144	-2.985900	3.613600	-10.789000	24.913613	0.000341	20.776514
1148.306148	-3.005300	3.611900	-10.854000	24.910705	0.000340	20.744671
1149.311503	-3.012500	3.612000	-10.880000	24.920581	0.000341	20.751264
1150.311468	-3.013800	3.612600	-10.887000	24.891812	0.000337	20.763168
1151.309510	-3.003700	3.611100	-10.846000	24.911531	0.000336	20.767786
1152.309990	-2.997900	3.611500	-10.825000	24.921156	0.000337	20.774127
1153.308836	-3.005700	3.612300	-10.857000	24.914493	0.000337	20.768388
1154.312755	-2.995800	3.610700	-10.816000	24.896319	0.000334	20.766269
1155.309667	-3.000300	3.610800	-10.833000	24.916637	0.000335	20.759635
1156.314479	-3.009400	3.609600	-10.862000	24.917040	0.000334	20.765255
1157.313303	-3.015000	3.609600	-10.882000	24.928875	0.000336	20.737778
1158.315878	-2.997100	3.610100	-10.818000	24.947500	0.000334	20.739402
1159.317759	-2.999900	3.608300	-10.823000	24.935119	0.000333	20.742623
1160.318897	-3.004600	3.610100	-10.846000	24.928280	0.000334	20.741922
1161.316733	-2.994000	3.608700	-10.804000	24.936492	0.000334	20.749216
1162.311922	-3.003600	3.608900	-10.839000	24.933534	0.000334	20.747196
1163.318090	-3.019500	3.608600	-10.895000	24.952278	0.000333	20.751785
1164.312895	-3.008400	3.608000	-10.854000	24.934976	0.000332	20.754333
1165.316340	-3.012500	3.607000	-10.866000	24.942834	0.000331	20.760324
1166.318806	-3.033800	3.607500	-10.943000	24.934040	0.000332	20.743435
1167.318122	-3.004600	3.606500	-10.835000	24.942046	0.000331	20.739143
1168.320219	-2.997300	3.607100	-10.810000	24.935013	0.000330	20.748680
1169.319568	-2.994400	3.606400	-10.798000	24.918282	0.000330	20.751802
1170.318779	-2.990400	3.606600	-10.784000	24.931456	0.000332	20.756016
1171.316916	-2.995600	3.605700	-10.800000	24.956198	0.000329	20.739597
1172.316733	-2.984900	3.605500	-10.761000	24.938329	0.000329	20.742051
1173.316467	-2.993100	3.605500	-10.791000	24.967794	0.000331	20.755031
1174.319992	-2.996200	3.605300	-10.800000	24.938978	0.000328	20.745073
1175.321097	-3.015600	3.605600	-10.872000	24.936916	0.000328	20.727830
1176.318500	-3.007400	3.604300	-10.838000	24.940744	0.000330	20.732621
1177.320013	-3.015400	3.602800	-10.862000	24.956210	0.000326	20.743878
1178.320939	-3.000500	3.604400	-10.814000	24.952633	0.000327	20.742657
1179.321021	-3.010900	3.602800	-10.846000	24.928540	0.000329	20.728432
1180.323467	-2.973300	3.602900	-10.711000	24.945699	0.000325	20.742336
1181.323611	-2.995400	3.602600	-10.790000	24.939931	0.000325	20.757884
1182.319483	-2.984400	3.602700	-10.750000	24.958778	0.000327	20.721323
1183.324281	-2.979300	3.602300	-10.731000	24.952037	0.000326	20.750594
1184.323479	-2.988100	3.601600	-10.761000	24.947814	0.000325	20.751572
1185.326628	-3.015100	3.601200	-10.856000	24.932422	0.000324	20.739915
1186.319632	-3.017000	3.600700	-10.862000	24.949006	0.000323	20.739016
1187.326200	-2.998900	3.600800	-10.798000	24.971385	0.000326	20.732555
1188.329125	-3.004800	3.600500	-10.818000	24.964427	0.000324	20.734580
1189.324705	-2.987100	3.600400	-10.753000	24.938642	0.000324	20.727191
1190.324632	-2.983200	3.599400	-10.737000	24.948414	0.000323	20.718982
1191.326174	-3.018100	3.598400	-10.860000	24.950673	0.000323	20.750174
1192.327383	-3.029800	3.599100	-10.903000	24.963979	0.000321	20.727966
1193.322956	-2.993800	3.599400	-10.775000	24.945108	0.000321	20.751700
1194.327241	-3.016800	3.599000	-10.857000	24.968806	0.000321	20.750356
1195.325542	-3.023100	3.597300	-10.873000	24.964973	0.000320	20.736551
1196.326175	-2.967500	3.598500	-10.677000	24.969422	0.000318	20.733430
1197.326100	-3.017900	3.598100	-10.857000	24.952764	0.000321	20.753221
1198.329271	-2.996800	3.598600	-10.783000	24.962660	0.000320	20.726643
1199.325544	-3.023700	3.596700	-10.874000	24.973525	0.000319	20.734704
1200.325848	-2.987600	3.598300	-10.749000	24.971114	0.000319	20.747457
1201.328799	-2.992300	3.597200	-10.762000	24.969023	0.000319	20.729236
1202.325367	-3.023100	3.595400	-10.868000	24.966961	0.000320	20.720054
1203.326223	-2.996700	3.595200	-10.772000	24.962110	0.000319	20.736048
1204.331925	-2.979200	3.595900	-10.712000	24.972157	0.000318	20.720054
1205.329338	-2.978900	3.594700	-10.708000	24.976778	0.000317	20.717105
1206.328820	-2.993400	3.596000	-10.762000	24.955796	0.000315	20.724020
1207.334206	-2.995800	3.594900	-10.769000	24.975410	0.000316	20.751770
1208.331330	-2.984700	3.595100	-10.729000	24.978397	0.000314	20.732007
1209.327619	-2.996900	3.594400	-10.771000	24.967257	0.000316	20.715134
1210.335146	-3.011300	3.594800	-10.824000	24.989931	0.000312	20.727463
1211.329812	-2.975100	3.594600	-10.693000	24.978590	0.000315	20.725562
1212.331178	-3.019100	3.593600	-10.847000	24.979908	0.000315	20.726886
1213.331721	-3.018300	3.593000	-10.844000	24.991241	0.000314	20.725459
1214.332890	-2.994400	3.593800	-10.761000	24.976351	0.000312	20.734221
1215.334524	-3.031800	3.590200	-10.884000	24.981724	0.000312	20.731553
1216.331400	-3.009500	3.591800	-10.809000	24.993677	0.000312	20.722688
1217.332392	-2.986500	3.591400	-10.725000	24.969413	0.000312	20.718247
1218.330947	-2.991700	3.591100	-10.742000	25.004743	0.000312	20.722416
1219.328334	-2.999100	3.591300	-10.770000	24.980549	0.000312	20.711880
1220.331340	-3.006100	3.590400	-10.792000	24.994622	0.000312	20.725533
1221.332242	-3.019800	3.589200	-10.838000	24.985942	0.000310	20.719191
1222.329762	-2.984700	3.591000	-10.716000	25.010403	0.000312	20.702491
1223.333141	-2.977800	3.589600	-10.688000	24.994987	0.000313	20.710726
1224.331064	-3.019600	3.588100	-10.834000	24.993599	0.000308	20.729722
1225.332543	-2.988800	3.589900	-10.729000	24.992900	0.000309	20.722382
1226.330079	-2.976400	3.589000	-10.681000	25.000134	0.000308	20.716366
1227.332917	-2.971700	3.589100	-10.665000	24.996006	0.000311	20.692780
1228.334382	-2.978400	3.589600	-10.690000	24.988246	0.000308	20.716288
1229.333274	-2.986800	3.587800	-10.715000	25.002762	0.000309	20.712366
1230.335588	-3.008200	3.587400	-10.790000	25.000877	0.000307	20.728019
1231.332119	-3.015900	3.587100	-10.816000	25.010320	0.000306	20.717108
1232.333557	-2.990700	3.588300	-10.731000	25.024442	0.000306	20.716110
1233.331511	-2.989600	3.586700	-10.721000	25.006665	0.000306	20.694471
1234.338772	-2.998700	3.586300	-10.753000	25.030903	0.000305	20.716906
1235.334687	-2.996100	3.587200	-10.746000	25.022278	0.000304	20.692599
1236.340297	-3.000500	3.585500	-10.757000	25.009671	0.000303	20.724992
1237.338828	-3.010700	3.585400	-10.794000	25.013627	0.000305	20.694821
1238.337127	-2.997100	3.584300	-10.740000	25.015935	0.000304	20.717054
1239.338488	-2.991100	3.584900	-10.723000	25.010365	0.000304	20.720947
1240.337681	-2.990700	3.583500	-10.715000	25.027449	0.000302	20.712016
1241.337988	-3.000600	3.584300	-10.754000	25.023292	0.000304	20.720172
1242.338716	-2.981800	3.583400	-10.684000	25.013253	0.000303	20.724794
1243.343105	-3.002300	3.583200	-10.757000	25.047111	0.000302	20.706622
1244.339191	-3.003100	3.582500	-10.758000	25.036990	0.000303	20.718275
1245.337480	-3.002400	3.583600	-10.759000	25.011832	0.000300	20.720522
1246.344578	-2.997800	3.582100	-10.737000	25.025678	0.000300	20.710713
1247.341340	-3.017000	3.581700	-10.804000	25.017673	0.000303	20.701254
1248.340024	-3.002400	3.581800	-10.754000	24.997336	0.000300	20.732999
1249.347665	-3.003000	3.581600	-10.755000	25.036518	0.000300	20.710688
1250.340317	-3.003100	3.581800	-10.756000	25.006139	0.000299	20.705323
1251.338007	-3.009300	3.580400	-10.774000	25.038461	0.000300	20.707897
1252.345262	-3.014500	3.580200	-10.791000	25.018149	0.000299	20.711690
1253.340362	-3.016000	3.579700	-10.796000	25.041197	0.000299	20.709220
1254.342984	-2.966800	3.580800	-10.622000	25.027498	0.000296	20.722497
1255.341357	-3.021100	3.579000	-10.811000	25.019267	0.000297	20.726563
1256.344887	-2.998700	3.579500	-10.733000	25.032596	0.000298	20.725718
1257.349371	-2.990000	3.579600	-10.703000	25.012506	0.000298	20.706499
1258.344984	-3.010400	3.579300	-10.774000	25.026755	0.000297	20.719380
1259.346921	-3.008200	3.577900	-10.762000	25.004249	0.000295	20.727610
1260.342196	-3.009700	3.578100	-10.767000	25.024015	0.000296	20.720423
1261.346490	-3.014900	3.577800	-10.785000	25.029285	0.000294	20.710540
1262.345831	-2.985900	3.578100	-10.682000	25.035229	0.000294	20.708919
1263.348846	-3.013300	3.576400	-10.776000	25.026229	0.000294	20.732604
1264.345980	-2.975200	3.578500	-10.645000	25.009371	0.000294	20.712836
1265.352995	-2.982600	3.576900	-10.668000	25.029034	0.000293	20.715978
1266.349185	-2.999600	3.575900	-10.726000	25.031819	0.000292	20.732051
1267.350807	-2.984600	3.576500	-10.673000	25.030845	0.000293	20.705467
1268.348864	-2.991500	3.576000	-10.696000	25.041936	0.000290	20.703323
1269.345418	-2.994600	3.574600	-10.703000	25.041168	0.000291	20.746177
1270.350876	-2.998400	3.575200	-10.719000	25.039151	0.000289	20.708589
1271.350970	-2.996900	3.574600	-10.712000	25.041410	0.000290	20.724134
1272.349121	-3.036000	3.573200	-10.847000	25.046557	0.000290	20.734516
1273.347643	-2.998600	3.574900	-10.718000	25.026919	0.000289	20.720493
1274.351403	-3.013500	3.573500	-10.768000	25.067936	0.000289	20.714724
1275.346373	-2.988500	3.574400	-10.681000	25.040785	0.000289	20.711178
1276.353558	-3.010000	3.573000	-10.753000	25.038296	0.000288	20.735708
1277.347670	-2.994900	3.573300	-10.700000	25.050730	0.000288	20.740602
1278.348632	-3.029000	3.572400	-10.819000	25.040461	0.000288	20.724604
1279.353528	-2.990600	3.572700	-10.683000	25.081256	0.000288	20.737580
1280.351079	-3.003200	3.571300	-10.724000	25.051173	0.000286	20.715916
1281.355423	-2.996400	3.570800	-10.698000	25.046675	0.000287	20.713772
1282.346873	-2.985400	3.571700	-10.662000	25.049189	0.000287	20.721037
1283.351942	-2.997600	3.570700	-10.702000	25.077226	0.000283	20.726896
1284.357480	-2.995100	3.570500	-10.694000	25.052044	0.000286	20.713471
1285.354004	-3.023300	3.569000	-10.790000	25.060846	0.000285	20.718514
1286.353028	-3.005700	3.569800	-10.729000	25.046371	0.000283	20.725321
1287.351853	-3.016700	3.568900	-10.766000	25.041849	0.000284	20.715091
1288.354523	-3.024300	3.568800	-10.792000	25.060123	0.000284	20.714943
1289.353225	-3.005100	3.568200	-10.721000	25.033523	0.000283	20.730442
1290.354740	-2.999400	3.567900	-10.701000	25.053132	0.000282	20.721676
1291.353590	-3.003600	3.566900	-10.712000	25.071110	0.000283	20.699418
1292.352139	-3.008600	3.567800	-10.733000	25.068970	0.000284	20.726669
1293.353268	-3.023200	3.566400	-10.781000	25.054327	0.000284	20.730463
1294.354471	-3.028800	3.566200	-10.800000	25.038916	0.000281	20.719260
1295.352375	-3.010200	3.565800	-10.732000	25.079362	0.000279	20.738050
1296.352315	-3.007200	3.567000	-10.725000	25.087289	0.000282	20.723247
1297.354266	-3.007300	3.566100	-10.723000	25.070810	0.000280	20.748432
1298.352675	-3.000800	3.566500	-10.700000	25.070835	0.000282	20.720006
1299.355275	-3.000000	3.566500	-10.697000	25.081301	0.000279	20.723874
1300.359682	-3.006100	3.565700	-10.718000	25.084307	0.000278	20.734953
1301.355231	-2.993700	3.566300	-10.675000	25.093080	0.000277	20.736173
1302.359217	-2.993700	3.565400	-10.672000	25.077990	0.000277	20.739991
1303.357763	-2.984900	3.565100	-10.641000	25.101036	0.000278	20.750324
1304.359851	-3.007100	3.564900	-10.719000	25.067003	0.000278	20.745084
1305.355958	-2.987400	3.564700	-10.648000	25.089872	0.000276	20.731056
1306.364934	-2.983000	3.563800	-10.630000	25.092209	0.000277	20.735773
1307.359351	-3.013000	3.563700	-10.737000	25.079929	0.000276	20.748576
1308.359290	-2.984800	3.563200	-10.635000	25.080224	0.000276	20.728957
1309.362290	-2.994400	3.561700	-10.664000	25.079234	0.000275	20.736499
1310.361283	-2.993500	3.562300	-10.663000	25.094990	0.000273	20.727184
1311.359278	-2.999000	3.561800	-10.681000	25.069065	0.000276	20.737670
1312.364544	-2.994800	3.561900	-10.667000	25.092530	0.000273	20.760278
1313.367510	-3.021100	3.561100	-10.757000	25.078655	0.000272	20.752039
1314.368112	-2.976400	3.561300	-10.599000	25.083013	0.000274	20.736499
1315.364132	-2.988900	3.561500	-10.644000	25.079904	0.000273	20.740490
1316.365056	-3.016500	3.560500	-10.740000	25.068371	0.000274	20.747879
1317.362247	-3.014900	3.559100	-10.729000	25.071324	0.000273	20.738515
1318.365173	-2.996700	3.560600	-10.669000	25.062275	0.000270	20.750770
1319.374104	-3.013700	3.558400	-10.722000	25.092530	0.000270	20.750794
1320.363325	-3.009800	3.559200	-10.711000	25.073291	0.000271	20.742387
1321.366377	-2.994000	3.559400	-10.656000	25.069065	0.000271	20.738618
1322.372968	-3.018700	3.557700	-10.739000	25.085794	0.000269	20.740239
1323.365760	-2.998200	3.557500	-10.665000	25.087482	0.000270	20.768013
1324.366637	-2.966000	3.558900	-10.555000	25.088529	0.000270	20.753891
1325.372049	-2.986800	3.558200	-10.627000	25.104215	0.000268	20.752567
1326.369235	-3.002700	3.557500	-10.681000	25.084972	0.000267	20.754113
1327.380120	-2.998600	3.557300	-10.665000	25.084352	0.000268	20.743059
1328.384525	-3.000100	3.557300	-10.670000	25.087958	0.000267	20.739093
1329.367070	-3.000300	3.556400	-10.669000	25.103841	0.000265	20.731803
1330.369129	-3.017700	3.556200	-10.730000	25.095088	0.000265	20.759527
1331.371831	-2.980700	3.556000	-10.598000	25.094542	0.000266	20.762772
1332.367290	-3.004200	3.555000	-10.679000	25.097076	0.000267	20.754410
1333.366692	-3.003400	3.554800	-10.676000	25.098493	0.000266	20.745401
1334.373744	-2.997600	3.555300	-10.656000	25.097992	0.000264	20.752010
1335.373607	-2.978200	3.555800	-10.589000	25.111394	0.000264	20.749343
1336.372360	-2.965100	3.554700	-10.539000	25.091346	0.000264	20.744865
1337.371378	-3.009200	3.553700	-10.693000	25.112055	0.000263	20.764231
1338.368949	-3.010100	3.552800	-10.694000	25.112724	0.000263	20.759687
1339.371683	-3.013100	3.552000	-10.701000	25.092094	0.000262	20.775013
1340.373073	-3.030000	3.551600	-10.760000	25.101089	0.000262	20.757016
1341.371325	-3.004000	3.552500	-10.671000	25.088483	0.000263	20.759061
1342.372965	-3.006400	3.551700	-10.677000	25.111899	0.000261	20.770239
1343.369115	-2.972600	3.552500	-10.559000	25.103446	0.000260	20.757960
1344.369738	-2.968000	3.551400	-10.540000	25.082166	0.000259	20.751297
1345.373164	-3.003100	3.551100	-10.663000	25.104888	0.000259	20.736647
1346.374012	-3.006000	3.551100	-10.674000	25.091925	0.000257	20.771999
1347.374374	-3.010300	3.550100	-10.685000	25.109997	0.000258	20.761217
1348.374173	-3.015000	3.550300	-10.704000	25.091354	0.000258	20.759572
1349.375431	-3.017000	3.549000	-10.705000	25.117254	0.000261	20.759019
1350.370736	-3.017800	3.549700	-10.711000	25.099203	0.000258	20.761287
1351.376695	-3.005800	3.549800	-10.669000	25.113397	0.000256	20.768424
1352.375060	-2.986600	3.549400	-10.599000	25.118293	0.000258	20.777132
1353.376561	-3.021500	3.546700	-10.715000	25.124261	0.000256	20.766053
1354.378968	-2.982900	3.548300	-10.584000	25.120026	0.000258	20.763698
1355.374276	-2.993100	3.547900	-10.618000	25.108444	0.000257	20.763925
1356.379121	-3.003300	3.547400	-10.653000	25.128306	0.000258	20.753992
1357.373180	-3.033900	3.545700	-10.755000	25.101379	0.000255	20.762523
1358.383177	-3.012300	3.547100	-10.684000	25.143141	0.000255	20.763669
1359.385100	-2.995600	3.547800	-10.626000	25.100706	0.000257	20.778443
1360.380869	-2.991000	3.546200	-10.606000	25.118104	0.000254	20.770304
1361.381820	-2.993400	3.546800	-10.616000	25.133616	0.000254	20.782558
1362.380529	-2.996800	3.546900	-10.629000	25.108678	0.000251	20.777911
1363.377945	-3.004200	3.544200	-10.647000	25.123915	0.000254	20.781353
1364.380962	-3.005100	3.545700	-10.655000	25.143970	0.000253	20.776830
1365.377318	-3.000400	3.544400	-10.634000	25.133230	0.000252	20.792601
1366.381275	-2.996900	3.544400	-10.621000	25.131957	0.000252	20.795590
1367.390058	-2.999900	3.544400	-10.631000	25.142574	0.000252	20.780170
1368.377226	-3.024400	3.544000	-10.717000	25.129817	0.000253	20.769734
1369.382564	-3.002400	3.544800	-10.642000	25.127952	0.000249	20.779716
1370.377959	-3.007800	3.543000	-10.656000	25.138738	0.000250	20.780112
1371.383892	-2.996500	3.544000	-10.619000	25.121409	0.000249	20.794959
1372.378823	-2.975300	3.544200	-10.544000	25.138360	0.000248	20.803915
1373.377146	-2.990900	3.543600	-10.598000	25.141489	0.000247	20.797099
1374.378936	-3.013900	3.543000	-10.678000	25.132909	0.000249	20.795598
1375.381223	-2.999900	3.541100	-10.621000	25.150336	0.000248	20.790807
1376.378747	-2.981800	3.542600	-10.562000	25.160308	0.000246	20.769524
1377.382367	-2.995300	3.541600	-10.607000	25.129874	0.000247	20.789232
1378.381012	-2.992800	3.540500	-10.595000	25.163556	0.000248	20.788432
1379.378844	-3.006700	3.540000	-10.642000	25.135263	0.000246	20.805073
1380.387514	-2.992900	3.540700	-10.596000	25.164472	0.000245	20.802628
1381.384305	-2.997600	3.539900	-10.610000	25.151818	0.000247	20.801304
1382.383403	-2.975400	3.540100	-10.532000	25.158008	0.000245	20.782388
1383.381533	-2.984900	3.539000	-10.563000	25.148734	0.000246	20.791096
1384.383425	-3.000400	3.538600	-10.616000	25.153827	0.000243	20.793363
1385.381876	-2.984200	3.538900	-10.560000	25.140425	0.000243	20.794134
1386.383148	-2.988700	3.538600	-10.575000	25.147707	0.000243	20.801444
1387.381634	-3.005000	3.538400	-10.631000	25.178284	0.000245	20.801321
1388.381391	-2.985500	3.539600	-10.567000	25.161946	0.000243	20.788238
1389.385524	-3.008800	3.537700	-10.643000	25.171869	0.000243	20.794881
1390.384926	-3.030200	3.537200	-10.717000	25.172932	0.000242	20.809699
1391.384388	-2.981400	3.538100	-10.548000	25.170222	0.000244	20.814090
1392.387218	-3.006500	3.536400	-10.632000	25.149814	0.000241	20.806879
1393.392701	-3.023700	3.536100	-10.692000	25.173626	0.000242	20.813240
1394.385291	-3.034100	3.535000	-10.725000	25.175988	0.000240	20.809447
1395.383218	-3.032700	3.534900	-10.720000	25.179048	0.000241	20.822002
1396.390935	-2.983900	3.535500	-10.549000	25.157317	0.000240	20.803980
1397.383225	-2.989600	3.535000	-10.567000	25.181056	0.000238	20.827337
1398.386755	-2.990200	3.535000	-10.570000	25.185385	0.000239	20.820777
1399.388298	-2.974900	3.535800	-10.518000	25.182818	0.000239	20.817252
1400.385359	-3.007700	3.534300	-10.628000	25.166484	0.000238	20.830252
1401.387351	-2.996500	3.534300	-10.589000	25.174637	0.000236	20.795289
1402.391269	-3.024400	3.532900	-10.683000	25.171335	0.000239	20.803353
1403.387251	-3.002500	3.534000	-10.610000	25.163449	0.000238	20.814403
1404.387804	-3.015200	3.533000	-10.652000	25.179163	0.000237	20.808841
1405.388566	-3.005700	3.532200	-10.616000	25.184456	0.000234	20.799457
1406.388988	-3.005900	3.531600	-10.614000	25.194551	0.000236	20.803902
1407.384513	-3.009000	3.532800	-10.629000	25.172522	0.000237	20.798381
1408.399369	-2.997100	3.531600	-10.584000	25.190670	0.000235	20.814230
1409.389530	-2.998600	3.531900	-10.589000	25.203471	0.000233	20.815228
1410.392516	-3.009700	3.530800	-10.626000	25.191163	0.000235	20.797655
1411.391240	-3.024700	3.531500	-10.680000	25.189919	0.000234	20.814424
1412.395066	-3.003000	3.530100	-10.600000	25.200358	0.000233	20.833913
1413.389993	-2.982100	3.530800	-10.528000	25.219270	0.000234	20.810226
1414.388964	-2.995100	3.529900	-10.572000	25.186682	0.000234	20.811649
1415.389835	-3.006000	3.528500	-10.605000	25.180892	0.000230	20.834284
1416.393396	-3.023100	3.528700	-10.666000	25.208453	0.000230	20.828289
1417.389735	-2.993400	3.529500	-10.564000	25.199607	0.000231	20.815615
1418.395378	-3.000300	3.527900	-10.584000	25.195106	0.000227	20.814415
1419.393585	-3.028800	3.528100	-10.683000	25.211361	0.000229	20.831208
1420.392399	-2.999400	3.528300	-10.581000	25.208100	0.000229	20.820348
1421.395015	-2.999800	3.528000	-10.583000	25.203948	0.000228	20.832301
1422.392829	-2.993500	3.527600	-10.559000	25.211332	0.000227	20.838766
1423.389811	-3.001300	3.526300	-10.582000	25.182744	0.000229	20.841359
1424.398557	-2.996200	3.526300	-10.564000	25.191019	0.000229	20.816477
1425.394022	-3.003500	3.526600	-10.591000	25.201188	0.000228	20.824789
1426.391798	-3.003300	3.526900	-10.591000	25.233451	0.000228	20.853860
1427.399310	-2.988600	3.525700	-10.536000	25.203718	0.000226	20.837285
1428.399443	-3.004100	3.525000	-10.589000	25.199714	0.000226	20.820938
1429.400580	-3.025000	3.524700	-10.662000	25.198198	0.000227	20.860666
1430.395437	-3.005200	3.524500	-10.591000	25.201677	0.000225	20.835711
1431.402390	-3.007100	3.524500	-10.597000	25.206449	0.000227	20.849984
1432.397071	-2.977400	3.526600	-10.499000	25.224917	0.000224	20.832965
1433.397612	-3.023100	3.523600	-10.651000	25.232445	0.000224	20.855220
1434.402728	-3.012500	3.522900	-10.612000	25.209751	0.000226	20.849980
1435.394558	-2.999600	3.523500	-10.568000	25.214975	0.000223	20.840052
1436.397679	-3.024200	3.522800	-10.653000	25.224145	0.000224	20.835034
1437.396035	-3.035300	3.522000	-10.689000	25.220166	0.000224	20.833884
1438.401084	-3.008500	3.521800	-10.595000	25.209870	0.000223	20.856737
1439.395722	-2.985800	3.523100	-10.518000	25.223246	0.000222	20.845511
1440.398170	-2.992600	3.522600	-10.541000	25.227870	0.000220	20.848731
1441.400156	-3.005200	3.521900	-10.583000	25.218695	0.000222	20.846158
1442.403970	-2.992600	3.521000	-10.536000	25.241016	0.000222	20.850549
1443.401010	-3.014900	3.520700	-10.614000	25.206613	0.000220	20.845408
1444.395966	-2.989100	3.520500	-10.523000	25.233932	0.000219	20.850549
1445.402222	-3.017200	3.519100	-10.617000	25.237558	0.000220	20.851345
1446.400684	-3.007900	3.519400	-10.584000	25.233751	0.000219	20.865066
1447.400431	-3.034100	3.518700	-10.675000	25.244367	0.000220	20.862448
1448.403156	-3.008100	3.518600	-10.583000	25.240289	0.000219	20.859302
1449.400043	-2.996700	3.519200	-10.545000	25.259381	0.000219	20.839116
1450.400974	-3.023300	3.518200	-10.636000	25.248416	0.000219	20.855134
1451.398642	-3.002300	3.518500	-10.563000	25.228983	0.000219	20.841314
1452.403652	-3.002100	3.518300	-10.561000	25.233969	0.000217	20.858646
1453.403670	-3.013300	3.517500	-10.598000	25.242745	0.000216	20.868879
1454.400072	-3.018400	3.517100	-10.615000	25.244305	0.000216	20.846740
1455.405379	-2.996000	3.517900	-10.539000	25.248260	0.000215	20.850710
1456.404889	-3.008200	3.517500	-10.581000	25.237492	0.000215	20.847486
1457.402358	-2.986500	3.517100	-10.503000	25.238264	0.000215	20.850157
1458.408616	-3.021700	3.515300	-10.621000	25.267837	0.000215	20.857562
1459.403450	-3.006400	3.514200	-10.564000	25.247008	0.000215	20.853720
1460.406901	-2.990200	3.517000	-10.516000	25.251180	0.000214	20.874503
1461.405530	-3.015200	3.515400	-10.599000	25.260227	0.000214	20.866043
1462.407457	-2.981600	3.515100	-10.479000	25.260379	0.000214	20.871885
1463.407588	-2.997100	3.514100	-10.531000	25.265866	0.000212	20.881660
1464.406430	-3.014700	3.512600	-10.587000	25.254979	0.000215	20.864567
1465.406492	-2.999700	3.514300	-10.541000	25.240983	0.000212	20.870430
1466.406858	-2.995000	3.513500	-10.522000	25.257365	0.000212	20.889720
1467.405607	-3.000900	3.513700	-10.544000	25.249603	0.000210	20.863437
1468.409669	-2.997500	3.513100	-10.530000	25.256761	0.000210	20.877261
1469.404243	-3.000900	3.512400	-10.539000	25.257028	0.000212	20.875159
1470.404737	-3.015900	3.510900	-10.587000	25.250971	0.000210	20.870026
1471.415234	-3.008200	3.512000	-10.564000	25.263270	0.000210	20.877158
1472.404714	-3.003100	3.512200	-10.547000	25.242310	0.000210	20.885037
1473.411232	-3.001000	3.511600	-10.536000	25.237115	0.000208	20.883615
1474.408983	-2.996000	3.511700	-10.520000	25.244946	0.000207	20.877253
1475.405676	-3.012000	3.510100	-10.571000	25.269648	0.000207	20.887828
1476.408013	-3.009900	3.509900	-10.564000	25.256351	0.000207	20.878746
1477.406295	-3.018500	3.510300	-10.595000	25.287220	0.000209	20.885557
1478.405716	-2.992900	3.511400	-10.509000	25.271927	0.000208	20.882531
1479.414059	-3.005400	3.509700	-10.546000	25.260642	0.000207	20.875468
1480.406155	-3.018900	3.509200	-10.592000	25.288851	0.000206	20.905210
1481.405274	-2.994400	3.509500	-10.508000	25.272568	0.000205	20.894079
1482.410146	-3.000400	3.508600	-10.527000	25.278905	0.000205	20.878631
1483.407198	-2.984700	3.508400	-10.471000	25.292378	0.000205	20.875563
1484.409591	-3.001000	3.508900	-10.529000	25.302936	0.000204	20.882844
1485.409497	-2.997200	3.508200	-10.514000	25.281036	0.000203	20.874607
1486.413519	-2.995900	3.507700	-10.508000	25.293684	0.000204	20.893469
1487.413126	-2.998000	3.507500	-10.514000	25.289808	0.000202	20.881991
1488.408747	-3.018900	3.506300	-10.584000	25.288687	0.000203	20.894615
1489.412930	-3.026700	3.506000	-10.611000	25.280552	0.000203	20.879336
1490.414239	-3.029900	3.505300	-10.619000	25.283611	0.000202	20.877666
1491.412649	-3.041300	3.504200	-10.656000	25.291414	0.000202	20.876017
1492.413464	-2.989000	3.505900	-10.478000	25.303364	0.000201	20.886592
1493.417586	-3.010600	3.504000	-10.548000	25.291061	0.000202	20.870922
1494.415643	-2.969600	3.506200	-10.411000	25.276787	0.000201	20.868918
1495.417255	-3.009500	3.505900	-10.550000	25.295607	0.000203	20.893028
1496.415523	-3.007000	3.504800	-10.537000	25.284142	0.000201	20.890052
1497.415876	-2.997600	3.503600	-10.502000	25.298211	0.000201	20.856290
1498.423389	-3.021500	3.502600	-10.582000	25.294905	0.000197	20.865298
1499.414576	-2.983800	3.504600	-10.456000	25.283768	0.000198	20.869763
1500.419779	-3.008900	3.503500	-10.541000	25.276286	0.000197	20.856088
1501.413443	-2.987900	3.502800	-10.466000	25.301188	0.000199	20.875874
1502.420792	-2.994700	3.502000	-10.487000	25.286696	0.000198	20.864643
1503.412367	-2.993400	3.502900	-10.485000	25.282643	0.000198	20.861522
1504.418064	-3.014000	3.502000	-10.555000	25.285423	0.000195	20.869055
1505.415333	-3.007600	3.501300	-10.530000	25.313811	0.000194	20.855358
1506.417572	-2.997700	3.500500	-10.493000	25.297899	0.000198	20.855029
1507.419971	-3.014000	3.499900	-10.547000	25.307989	0.000195	20.852357
1508.414825	-3.044000	3.498700	-10.649000	25.290811	0.000196	20.861189
1509.417887	-3.005700	3.500000	-10.519000	25.318399	0.000194	20.868973
1510.420358	-3.015100	3.499200	-10.549000	25.297049	0.000194	20.855124
1511.418699	-2.989800	3.500100	-10.464000	25.295604	0.000194	20.864578
1512.419532	-3.018600	3.498300	-10.559000	25.312773	0.000194	20.847204
1513.418941	-2.992400	3.500100	-10.473000	25.299850	0.000192	20.850350
1514.418388	-2.990300	3.499800	-10.464000	25.302983	0.000192	20.845435
1515.421493	-2.983600	3.498500	-10.437000	25.293887	0.000192	20.866173
1516.417816	-2.974400	3.497800	-10.403000	25.290081	0.000193	20.865196
1517.417908	-2.991600	3.496800	-10.460000	25.305414	0.000190	20.855937
1518.422489	-2.994600	3.497300	-10.472000	25.310609	0.000191	20.834601
1519.417157	-3.015900	3.496300	-10.543000	25.300914	0.000191	20.849996
1520.419411	-3.006000	3.497500	-10.513000	25.317960	0.000191	20.838662
1521.424315	-3.008600	3.496200	-10.517000	25.318510	0.000190	20.851542
1522.421802	-2.997000	3.496800	-10.479000	25.306182	0.000190	20.857656
1523.421681	-2.980800	3.496300	-10.421000	25.294520	0.000189	20.844999
1524.422644	-3.010400	3.495800	-10.522000	25.291765	0.000189	20.826586
1525.421825	-2.978200	3.495900	-10.410000	25.307690	0.000191	20.836411
1526.423947	-2.995000	3.495500	-10.467000	25.299958	0.000190	20.860889
1527.422611	-2.992900	3.496100	-10.463000	25.319369	0.000188	20.856197
1528.423750	-2.998100	3.493400	-10.472000	25.327368	0.000189	20.830091
1529.426458	-3.000100	3.493300	-10.479000	25.304853	0.000187	20.851105
1530.420403	-3.000600	3.492900	-10.480000	25.295531	0.000188	20.826574
1531.420764	-3.028200	3.490700	-10.569000	25.303087	0.000187	20.843643
1532.420588	-2.989600	3.493800	-10.444000	25.294016	0.000185	20.862983
1533.429445	-3.018100	3.492800	-10.541000	25.300824	0.000185	20.836156
1534.426279	-2.997300	3.492400	-10.467000	25.292422	0.000188	20.818237
1535.421694	-2.997400	3.491400	-10.463000	25.310516	0.000185	20.825024
1536.428353	-3.011700	3.491200	-10.513000	25.304077	0.000185	20.849852
1537.425187	-2.987500	3.491300	-10.429000	25.309000	0.000185	20.825873
1538.423912	-2.999800	3.491600	-10.473000	25.311358	0.000183	20.833455
1539.424557	-2.979500	3.492100	-10.404000	25.313669	0.000185	20.854742
1540.424986	-2.990200	3.491500	-10.439000	25.326646	0.000183	20.836477
1541.425138	-3.000000	3.491300	-10.472000	25.307559	0.000181	20.841021
1542.431580	-2.998800	3.489700	-10.463000	25.317796	0.000182	20.838972
1543.427017	-3.017100	3.488900	-10.525000	25.318991	0.000181	20.835430
1544.423726	-3.022500	3.487800	-10.540000	25.335315	0.000178	20.846604
1545.429502	-2.991100	3.489200	-10.436000	25.317821	0.000180	20.836626
1546.427312	-2.994000	3.488300	-10.443000	25.334078	0.000180	20.817862
1547.426278	-2.998700	3.487300	-10.457000	25.339146	0.000181	20.820105
1548.427262	-3.014400	3.487300	-10.511000	25.315513	0.000177	20.850903
1549.428497	-2.991200	3.487600	-10.431000	25.337306	0.000180	20.836750
1550.428116	-2.984100	3.486600	-10.401000	25.316602	0.000180	20.806479
1551.429917	-3.017700	3.485200	-10.516000	25.325352	0.000178	20.843239
1552.427264	-2.966800	3.487000	-10.344000	25.320158	0.000180	20.837075
1553.428836	-3.016500	3.486400	-10.516000	25.328555	0.000180	20.842188
1554.428750	-2.976500	3.487100	-10.378000	25.322293	0.000178	20.827840
1555.428277	-2.991900	3.486300	-10.430000	25.324108	0.000177	20.846257
1556.427471	-3.031300	3.483500	-10.558000	25.314811	0.000178	20.829337
1557.425587	-3.010200	3.484400	-10.488000	25.328900	0.000177	20.818353
1558.429514	-2.974600	3.483800	-10.362000	25.323455	0.000177	20.829007
1559.429594	-3.019800	3.483300	-10.518000	25.328498	0.000174	20.811785
1560.430079	-2.990400	3.482700	-10.413000	25.330933	0.000174	20.825610
1561.441438	-3.002000	3.483400	-10.457000	25.330391	0.000175	20.810367
1562.433410	-2.997400	3.483100	-10.439000	25.322454	0.000174	20.827527
1563.432385	-2.984800	3.484400	-10.399000	25.319148	0.000176	20.840329
1564.434402	-3.003900	3.483900	-10.465000	25.326478	0.000174	20.824930
1565.433940	-2.985300	3.483100	-10.398000	25.318031	0.000173	20.802698
1566.432253	-2.999300	3.481600	-10.442000	25.340698	0.000174	20.814552
1567.436107	-3.017500	3.480400	-10.501000	25.346160	0.000174	20.824303
1568.430385	-2.973000	3.482600	-10.353000	25.319962	0.000170	20.827870
1569.432197	-2.998300	3.482100	-10.439000	25.330848	0.000171	20.808455
1570.434452	-2.973000	3.480300	-10.346000	25.339270	0.000170	20.820230
1571.435812	-3.017400	3.480800	-10.503000	25.333057	0.000170	20.830587
1572.436668	-3.006100	3.480100	-10.461000	25.303482	0.000171	20.817014
1573.435696	-3.000200	3.479200	-10.438000	25.353905	0.000170	20.814537
1574.431823	-3.028600	3.478800	-10.534000	25.317741	0.000170	20.827536
1575.437638	-2.979600	3.479000	-10.365000	25.331633	0.000170	20.826786
1576.433210	-2.963400	3.479100	-10.309000	25.336954	0.000167	20.823595
1577.439275	-2.994700	3.478500	-10.416000	25.342917	0.000169	20.812038
1578.434094	-3.009900	3.477700	-10.467000	25.313141	0.000168	20.822919
1579.433908	-3.020700	3.477100	-10.503000	25.323954	0.000168	20.804852
1580.441410	-2.998000	3.477200	-10.424000	25.329165	0.000167	20.784480
1581.437735	-3.009100	3.477200	-10.463000	25.329740	0.000166	20.806394
1582.437932	-3.000700	3.476900	-10.432000	25.343583	0.000168	20.822189
1583.441207	-3.001200	3.477700	-10.436000	25.323650	0.000166	20.803125
1584.436979	-2.993500	3.477000	-10.407000	25.358049	0.000166	20.822016
1585.438691	-3.018900	3.476000	-10.493000	25.343135	0.000167	20.801826
1586.438883	-3.009700	3.476400	-10.462000	25.330582	0.000166	20.837110
1587.437401	-2.997700	3.475100	-10.416000	25.344351	0.000164	20.775071
1588.435330	-3.008500	3.475200	-10.455000	25.336347	0.000164	20.798330
1589.436281	-3.014100	3.475300	-10.474000	25.334857	0.000163	20.808687
1590.438269	-3.003600	3.474100	-10.433000	25.342289	0.000165	20.812830
1591.439302	-3.009200	3.474200	-10.454000	25.329362	0.000164	20.781833
1592.436435	-2.986400	3.474500	-10.374000	25.362891	0.000165	20.805541
1593.438704	-2.996300	3.473900	-10.408000	25.354189	0.000164	20.800123
1594.437161	-2.989300	3.473200	-10.382000	25.351808	0.000162	20.809111
1595.435440	-3.006100	3.472600	-10.438000	25.343628	0.000161	20.804217
1596.437183	-2.994800	3.473000	-10.400000	25.343180	0.000161	20.803294
1597.438155	-3.008600	3.471700	-10.444000	25.364385	0.000161	20.822688
1598.444963	-2.989000	3.472100	-10.378000	25.346909	0.000161	20.801822
1599.441556	-2.976900	3.472600	-10.337000	25.347209	0.000159	20.796433
1600.442938	-2.974900	3.471900	-10.327000	25.335103	0.000159	20.806563
1601.440105	-2.973300	3.472300	-10.323000	25.324467	0.000158	20.798730
1602.444304	-2.998400	3.469800	-10.403000	25.338832	0.000158	20.790867
1603.444410	-2.978900	3.471200	-10.340000	25.332820	0.000158	20.796210
1604.441861	-3.000800	3.468600	-10.408000	25.330409	0.000159	20.800902
1605.443113	-3.003600	3.469400	-10.420000	25.328964	0.000158	20.803244
1606.441636	-3.014000	3.469600	-10.457000	25.350937	0.000157	20.798280
1607.442403	-2.984200	3.470000	-10.354000	25.340400	0.000158	20.788174
1608.445115	-2.978700	3.469700	-10.334000	25.355635	0.000156	20.800152
1609.446619	-2.982500	3.468000	-10.343000	25.357749	0.000155	20.790896
1610.441477	-3.002700	3.468000	-10.413000	25.364135	0.000156	20.797781
1611.444031	-2.993700	3.468200	-10.382000	25.342983	0.000154	20.793139
1612.447645	-2.978200	3.468700	-10.330000	25.359236	0.000155	20.805190
1613.445426	-2.991400	3.466500	-10.369000	25.353717	0.000155	20.796804
1614.447999	-3.013500	3.465800	-10.443000	25.363539	0.000155	20.789123
1615.446279	-3.009700	3.466900	-10.433000	25.348728	0.000154	20.790372
1616.446554	-3.029900	3.464700	-10.496000	25.379541	0.000156	20.813251
1617.443381	-3.001200	3.466700	-10.403000	25.357326	0.000151	20.788100
1618.446638	-2.971000	3.467100	-10.300000	25.362619	0.000153	20.798156
1619.446786	-3.034300	3.463400	-10.508000	25.352058	0.000154	20.801302
1620.441796	-2.999000	3.465800	-10.393000	25.336175	0.000152	20.800053
1621.445294	-2.987900	3.464600	-10.351000	25.352530	0.000153	20.781388
1622.444136	-3.005200	3.463300	-10.408000	25.350391	0.000152	20.782085
1623.445345	-3.013000	3.464100	-10.437000	25.358866	0.000151	20.794388
1624.449097	-3.008500	3.462800	-10.417000	25.353569	0.000152	20.787173
1625.450476	-2.994800	3.463600	-10.372000	25.364558	0.000150	20.771179
1626.448245	-3.007200	3.462300	-10.412000	25.362020	0.000148	20.789494
1627.451148	-3.015800	3.461800	-10.439000	25.358912	0.000150	20.799649
1628.453731	-3.015800	3.461700	-10.439000	25.341394	0.000149	20.771154
1629.451025	-3.013500	3.461600	-10.430000	25.344918	0.000149	20.784175
1630.449857	-3.017700	3.461600	-10.445000	25.336742	0.000149	20.799200
1631.450323	-3.013600	3.462100	-10.432000	25.350683	0.000147	20.774791
1632.454031	-2.983600	3.461300	-10.326000	25.328763	0.000149	20.785025
1633.449275	-3.011100	3.460900	-10.420000	25.373448	0.000148	20.787692
1634.450459	-2.992900	3.459900	-10.354000	25.334549	0.000147	20.765704
1635.452977	-2.993200	3.460600	-10.357000	25.352046	0.000147	20.795127
1636.453606	-2.991800	3.459900	-10.350000	25.333827	0.000146	20.777781
1637.450456	-3.012700	3.458600	-10.418000	25.340836	0.000144	20.793354
1638.458582	-3.017700	3.459200	-10.438000	25.361113	0.000145	20.791428
1639.457417	-2.999300	3.459400	-10.375000	25.348437	0.000144	20.786287
1640.454118	-3.006300	3.457700	-10.393000	25.350597	0.000144	20.793197
1641.460665	-2.987200	3.458500	-10.330000	25.355373	0.000144	20.779974
1642.452598	-2.995200	3.457300	-10.354000	25.366258	0.000143	20.771464
1643.453870	-3.011900	3.457800	-10.414000	25.355397	0.000143	20.779999
1644.453551	-3.010600	3.458100	-10.410000	25.337699	0.000142	20.789256
1645.454502	-2.985500	3.457000	-10.320000	25.343338	0.000142	20.780692
1646.450410	-2.983900	3.457400	-10.316000	25.336406	0.000142	20.796966
1647.453517	-2.999200	3.456700	-10.367000	25.346795	0.000142	20.765197
1648.456001	-2.999400	3.456000	-10.365000	25.362001	0.000141	20.754387
1649.458691	-3.007800	3.455500	-10.391000	25.352359	0.000143	20.785009
1650.458474	-2.967800	3.455800	-10.255000	25.356782	0.000139	20.773803
1651.459229	-2.982300	3.456300	-10.305000	25.342935	0.000139	20.773176
1652.463041	-3.017700	3.454400	-10.423000	25.359287	0.000140	20.792439
1653.455348	-3.027000	3.453100	-10.452000	25.350044	0.000141	20.756131
1654.459241	-3.011900	3.454700	-10.405000	25.375593	0.000140	20.753335
1655.459338	-3.017000	3.452600	-10.416000	25.363414	0.000139	20.773823
1656.456500	-3.002300	3.453600	-10.368000	25.360429	0.000137	20.766085
1657.457992	-3.010300	3.453200	-10.394000	25.344549	0.000138	20.759149
1658.465511	-3.012300	3.452000	-10.398000	25.363681	0.000139	20.764134
1659.457595	-3.010800	3.451000	-10.390000	25.358064	0.000135	20.758494
1660.462660	-3.013900	3.451600	-10.401000	25.380184	0.000137	20.738030
1661.460855	-3.038900	3.451600	-10.487000	25.341684	0.000137	20.774290
1662.461887	-2.996400	3.451700	-10.342000	25.357337	0.000136	20.777680
1663.461874	-3.017600	3.449900	-10.410000	25.341807	0.000136	20.749757
1664.465115	-3.005200	3.451500	-10.372000	25.349729	0.000134	20.773833
1665.464744	-3.004700	3.449300	-10.362000	25.375849	0.000135	20.782990
1666.458609	-3.018800	3.448900	-10.411000	25.345277	0.000135	20.774105
1667.461069	-3.002400	3.449600	-10.356000	25.363740	0.000134	20.764193
1668.463331	-2.987800	3.449700	-10.306000	25.352731	0.000135	20.768787
1669.463839	-3.012300	3.448900	-10.387000	25.350464	0.000133	20.771253
1670.467973	-3.017800	3.448300	-10.405000	25.366626	0.000134	20.762350
1671.463691	-2.998200	3.448700	-10.340000	25.375940	0.000134	20.768383
1672.465152	-2.960100	3.448700	-10.208000	25.374474	0.000134	20.796783
1673.459359	-2.988000	3.447200	-10.299000	25.365551	0.000132	20.755580
1674.463573	-2.989100	3.448300	-10.306000	25.368726	0.000133	20.764932
1675.463775	-2.993100	3.447300	-10.317000	25.346584	0.000132	20.767356
1676.461336	-2.983900	3.447600	-10.287000	25.365318	0.000132	20.761510
1677.460542	-2.988100	3.445800	-10.295000	25.377077	0.000131	20.762413
1678.463302	-2.996600	3.446200	-10.326000	25.395363	0.000133	20.768920
1679.460898	-3.017700	3.444500	-10.394000	25.373341	0.000132	20.756765
1680.464625	-3.003400	3.444800	-10.345000	25.379604	0.000129	20.746931
1681.467286	-3.003900	3.445000	-10.347000	25.367252	0.000127	20.764875
1682.466810	-3.032600	3.443900	-10.443000	25.368267	0.000129	20.748824
1683.466687	-3.012000	3.444300	-10.373000	25.365828	0.000130	20.753488
1684.464500	-2.997100	3.444700	-10.323000	25.384565	0.000130	20.757603
1685.464898	-3.015200	3.442800	-10.380000	25.376960	0.000127	20.745225
1686.470700	-3.004200	3.443500	-10.345000	25.400965	0.000128	20.744673
1687.469748	-3.011500	3.443300	-10.368000	25.387542	0.000128	20.774343
1688.467417	-3.047100	3.442300	-10.488000	25.396982	0.000125	20.758692
1689.468245	-3.007100	3.442800	-10.351000	25.402727	0.000126	20.751658
1690.463308	-3.001400	3.441800	-10.329000	25.394991	0.000126	20.742467
1691.466418	-3.011800	3.441900	-10.366000	25.380504	0.000126	20.769647
1692.470726	-2.988400	3.442300	-10.286000	25.395911	0.000123	20.762832
1693.466490	-3.018000	3.440600	-10.383000	25.388553	0.000126	20.742167
1694.470426	-3.005900	3.440900	-10.342000	25.401771	0.000125	20.740740
1695.463520	-2.997000	3.441400	-10.312000	25.386935	0.000123	20.742913
1696.467211	-2.977600	3.439600	-10.241000	25.375348	0.000125	20.742184
1697.468834	-2.985100	3.440600	-10.270000	25.390660	0.000122	20.753766
1698.468143	-3.008800	3.439700	-10.348000	25.385067	0.000122	20.750995
1699.465188	-3.003500	3.438200	-10.325000	25.386181	0.000122	20.761122
1700.471649	-3.009800	3.439000	-10.350000	25.370076	0.000120	20.773401
1701.468219	-3.017100	3.438100	-10.372000	25.412821	0.000122	20.764639
1702.470403	-3.015400	3.437900	-10.365000	25.398031	0.000121	20.769229
1703.471116	-2.986800	3.439400	-10.271000	25.418512	0.000122	20.738110
1704.467069	-3.003800	3.438000	-10.326000	25.380954	0.000119	20.762512
1705.472374	-3.040800	3.437200	-10.451000	25.401686	0.000120	20.731645
1706.467045	-3.005800	3.436300	-10.328000	25.400857	0.000122	20.738874
1707.466612	-3.005600	3.437200	-10.330000	25.392608	0.000121	20.756670
1708.471233	-2.989800	3.436000	-10.272000	25.378589	0.000118	20.747809
1709.470538	-3.016200	3.435700	-10.363000	25.380873	0.000117	20.738722
1710.468408	-2.997300	3.436600	-10.299000	25.388601	0.000118	20.754069
1711.472208	-2.986800	3.436200	-10.262000	25.384774	0.000119	20.729836
1712.469332	-3.002300	3.435100	-10.312000	25.393989	0.000119	20.742883
1713.476159	-3.004800	3.434800	-10.319000	25.391927	0.000116	20.756935
1714.472217	-3.005900	3.433600	-10.320000	25.387057	0.000116	20.781917
1715.471931	-2.996000	3.433900	-10.287000	25.415611	0.000117	20.720498
1716.473806	-2.972600	3.433700	-10.207000	25.415657	0.000116	20.732398
1717.477160	-2.995700	3.432600	-10.282000	25.414487	0.000117	20.741655
1718.472198	-2.998400	3.432200	-10.290000	25.399725	0.000116	20.732996
1719.476767	-2.998000	3.432000	-10.289000	25.379494	0.000113	20.734967
1720.469751	-3.004900	3.431800	-10.312000	25.398580	0.000115	20.748916
1721.476369	-2.976700	3.432700	-10.217000	25.396412	0.000115	20.742946
1722.472117	-2.989100	3.431400	-10.256000	25.391120	0.000113	20.753753
1723.474347	-2.995000	3.432100	-10.279000	25.400490	0.000115	20.756524
1724.474415	-2.985100	3.430500	-10.239000	25.387564	0.000115	20.747338
1725.472987	-2.982800	3.431100	-10.233000	25.398421	0.000112	20.735954
1726.471280	-3.019300	3.429300	-10.353000	25.399369	0.000113	20.747812
1727.470961	-2.991600	3.430300	-10.262000	25.407516	0.000111	20.757415
1728.474894	-3.008000	3.430100	-10.317000	25.412763	0.000113	20.746088
1729.475548	-3.015100	3.428300	-10.336000	25.391436	0.000112	20.739846
1730.472801	-3.012200	3.428500	-10.326000	25.417404	0.000113	20.740317
1731.473553	-3.012700	3.429300	-10.330000	25.392127	0.000111	20.749549
1732.474068	-3.016100	3.428700	-10.339000	25.388226	0.000109	20.740416
1733.476699	-3.006100	3.427600	-10.303000	25.401000	0.000109	20.739018
1734.477022	-3.009700	3.426500	-10.312000	25.409123	0.000108	20.750019
1735.477507	-3.009500	3.426400	-10.310000	25.416054	0.000110	20.758402
1736.478909	-2.986200	3.428200	-10.237000	25.388346	0.000111	20.739587
1737.478172	-2.991900	3.426900	-10.251000	25.416501	0.000109	20.757429
1738.480528	-2.993300	3.427300	-10.258000	25.420275	0.000108	20.737510
1739.481737	-2.993900	3.426000	-10.256000	25.458297	0.000108	20.752457
1740.481529	-2.993300	3.425200	-10.252000	25.442144	0.000107	20.736236
1741.480026	-2.972600	3.425700	-10.183000	25.435332	0.000108	20.734138
1742.480128	-2.987300	3.425800	-10.232000	25.417911	0.000106	20.741774
1743.480310	-2.983600	3.425400	-10.218000	25.427749	0.000105	20.757344
1744.481324	-3.010600	3.424300	-10.307000	25.440051	0.000107	20.757368
1745.483065	-3.002300	3.423600	-10.277000	25.422974	0.000104	20.763455
1746.479826	-3.020300	3.422400	-10.336000	25.428641	0.000104	20.757765
1747.481951	-2.991800	3.423600	-10.241000	25.431597	0.000105	20.747457
1748.481554	-2.993500	3.422600	-10.245000	25.440019	0.000105	20.756862
1749.483389	-2.985900	3.423000	-10.219000	25.426695	0.000104	20.755337
1750.481762	-3.026600	3.421400	-10.354000	25.423242	0.000103	20.748550
1751.486239	-3.003700	3.422200	-10.279000	25.441354	0.000101	20.735917
1752.483299	-2.981100	3.422200	-10.201000	25.418040	0.000105	20.767983
1753.484136	-2.963900	3.422400	-10.143000	25.415380	0.000103	20.751561
1754.483763	-2.992200	3.420900	-10.235000	25.402208	0.000101	20.763465
1755.478175	-3.014000	3.420700	-10.309000	25.423629	0.000102	20.749413
1756.486988	-3.002100	3.420000	-10.266000	25.442094	0.000102	20.741876
1757.485161	-2.986500	3.420100	-10.213000	25.420990	0.000102	20.735856
1758.483914	-3.002000	3.419000	-10.262000	25.420965	9.857235E-5	20.750057
1759.483897	-3.004900	3.419800	-10.276000	25.432026	0.000101	20.751681
1760.494801	-2.979900	3.419900	-10.190000	25.409949	0.000101	20.765549
1761.487452	-2.991600	3.419100	-10.227000	25.440296	9.956220E-5	20.767099
1762.486907	-2.993500	3.418400	-10.233000	25.452668	0.000100	20.747279
1763.486283	-2.973300	3.418600	-10.164000	25.447622	9.850636E-5	20.764023
1764.486286	-2.992600	3.418000	-10.228000	25.451276	9.748352E-5	20.762951
1765.483206	-2.987400	3.416900	-10.207000	25.428978	9.886930E-5	20.753361
1766.482750	-2.989500	3.417500	-10.215000	25.423139	9.883631E-5	20.777845
1767.486412	-3.019500	3.416100	-10.314000	25.420224	9.642768E-5	20.772073
1768.484015	-3.009000	3.416600	-10.280000	25.434193	9.421702E-5	20.766659
1769.484080	-2.997900	3.415900	-10.239000	25.414829	9.685661E-5	20.778984
1770.485113	-3.006600	3.415000	-10.266000	25.435680	9.629570E-5	20.754876
1771.483270	-3.000500	3.414800	-10.245000	25.453845	9.520687E-5	20.763634
1772.490089	-2.978500	3.415400	-10.172000	25.432269	9.649367E-5	20.756666
1773.483459	-3.022300	3.413600	-10.314000	25.428741	9.586676E-5	20.755021
1774.486292	-2.994500	3.414700	-10.225000	25.430207	9.504189E-5	20.765502
1775.486146	-3.009300	3.413000	-10.269000	25.433583	9.316118E-5	20.773634
1776.487082	-3.015300	3.413300	-10.291000	25.435496	9.401905E-5	20.764175
1777.487914	-3.015600	3.413000	-10.291000	25.444633	9.359011E-5	20.766712
1778.486337	-3.003600	3.413000	-10.251000	25.438470	9.335915E-5	20.764791
1779.494983	-3.009000	3.411400	-10.264000	25.441476	9.200636E-5	20.760696
1780.487765	-2.973000	3.413500	-10.147000	25.444010	9.279824E-5	20.775095
1781.488434	-2.992200	3.414000	-10.214000	25.447607	9.269925E-5	20.772543
1782.485127	-3.008400	3.411600	-10.262000	25.451709	9.164341E-5	20.771921
1783.488807	-2.997800	3.411000	-10.223000	25.436395	9.012565E-5	20.766025
1784.488664	-3.011100	3.410900	-10.270000	25.452449	8.953174E-5	20.758439
1785.489316	-3.005000	3.409800	-10.246000	25.468299	8.672717E-5	20.771984
1786.490835	-2.990800	3.409900	-10.197000	25.473521	8.992768E-5	20.772487
1787.491218	-3.004800	3.409700	-10.244000	25.470385	9.022463E-5	20.789252
1788.495112	-3.010700	3.410300	-10.266000	25.444313	9.164341E-5	20.771131
1789.489121	-3.009400	3.409900	-10.261000	25.453182	8.906981E-5	20.789047
1790.489886	-2.993400	3.409500	-10.205000	25.471625	8.834392E-5	20.762048
1791.488731	-2.979100	3.409900	-10.157000	25.473831	8.867387E-5	20.777540
1792.492208	-3.009700	3.406800	-10.252000	25.474676	8.883885E-5	20.773647
1793.495290	-3.008700	3.408100	-10.253000	25.484018	8.715611E-5	20.765958
1794.498908	-2.996300	3.408500	-10.212000	25.469253	8.732108E-5	20.784797
1795.491391	-3.006600	3.408300	-10.246000	25.468979	8.705712E-5	20.769348
1796.500441	-3.002500	3.406100	-10.226000	25.461695	8.540737E-5	20.771043
1797.494925	-3.008000	3.406000	-10.244000	25.474218	8.454951E-5	20.764652
1798.494499	-3.000200	3.407700	-10.223000	25.462981	8.553935E-5	20.804103
1799.496974	-2.998400	3.406100	-10.212000	25.470487	8.478047E-5	20.785087
1800.507454	-2.983000	3.406100	-10.159000	25.467950	8.346067E-5	20.775901
1801.497431	-3.017300	3.405800	-10.276000	25.497471	8.289976E-5	20.778520
1802.496691	-3.004200	3.404300	-10.226000	25.460966	8.332869E-5	20.787854
1803.496428	-2.989500	3.404700	-10.176000	25.482358	8.329570E-5	20.775197
1804.496961	-2.994900	3.404200	-10.193000	25.483426	8.263580E-5	20.787649
1805.494974	-2.998500	3.404700	-10.208000	25.496770	8.283377E-5	20.795359
1806.492558	-2.972800	3.403300	-10.116000	25.487478	8.075509E-5	20.793615
1807.496284	-3.006600	3.403100	-10.231000	25.478006	8.227286E-5	20.798328
1808.497303	-2.981400	3.403900	-10.147000	25.485684	8.098606E-5	20.794185
1809.498734	-3.002700	3.404000	-10.219000	25.515427	8.059012E-5	20.779008
1810.495324	-2.993100	3.401900	-10.181000	25.516297	7.907235E-5	20.793159
1811.492985	-2.995400	3.402500	-10.191000	25.497608	7.973225E-5	20.778184
1812.499287	-2.999300	3.401700	-10.202000	25.497358	8.141499E-5	20.782200
1813.495225	-2.999100	3.401500	-10.201000	25.491047	7.999621E-5	20.788665
1814.493133	-3.015400	3.401300	-10.256000	25.490325	8.049113E-5	20.816388
1815.495411	-3.020700	3.400500	-10.270000	25.497555	7.976524E-5	20.784295
1816.494586	-3.025700	3.400100	-10.286000	25.509877	8.002920E-5	20.805678
1817.494951	-3.015500	3.400600	-10.253000	25.508588	7.930331E-5	20.779727
1818.497863	-2.986600	3.400400	-10.154000	25.495018	7.798352E-5	20.778428
1819.505143	-3.005000	3.399300	-10.214000	25.505579	7.864342E-5	20.807999
1820.505104	-3.006900	3.398500	-10.218000	25.487985	7.841245E-5	20.798866
1821.500337	-3.001600	3.399800	-10.204000	25.497802	7.580585E-5	20.795922
1822.501215	-3.006800	3.398100	-10.216000	25.495015	7.392514E-5	20.797865
1823.501082	-3.021500	3.396600	-10.262000	25.499162	7.821448E-5	20.799659
1824.500546	-2.991200	3.398000	-10.164000	25.523468	7.524494E-5	20.770013
1825.507075	-2.996500	3.397000	-10.178000	25.522048	7.653174E-5	20.807468
1826.502791	-2.989700	3.397200	-10.156000	25.546226	7.488199E-5	20.812783
1827.504011	-3.007600	3.397000	-10.217000	25.522245	7.333123E-5	20.801977
1828.508077	-2.982300	3.398100	-10.134000	25.528330	7.428809E-5	20.812355
1829.504532	-3.003600	3.396800	-10.201000	25.540729	7.405712E-5	20.812953
1830.504984	-2.986000	3.395200	-10.137000	25.548756	7.286930E-5	20.805366
1831.504647	-2.991200	3.396500	-10.159000	25.525071	7.319925E-5	20.818091
1832.503799	-2.975800	3.394900	-10.102000	25.509141	7.379316E-5	20.796878
1833.503476	-3.013800	3.393600	-10.227000	25.545817	6.914088E-5	20.800045
1834.507029	-2.999100	3.394100	-10.178000	25.520695	7.062565E-5	20.817963
1835.508005	-2.992300	3.393700	-10.154000	25.530635	7.135154E-5	20.801393
1836.508978	-3.006300	3.394000	-10.203000	25.524620	7.088961E-5	20.810051
1837.504272	-3.002900	3.393600	-10.189000	25.536445	6.854697E-5	20.796322
1838.504669	-2.994000	3.394300	-10.161000	25.523052	7.052667E-5	20.810848
1839.508166	-2.996100	3.393400	-10.166000	25.529909	6.927286E-5	20.816785
1840.510489	-2.987600	3.392000	-10.133000	25.539130	6.877793E-5	20.807079
1841.506188	-2.989600	3.391800	-10.139000	25.539500	6.940484E-5	20.807925
1842.515688	-2.994800	3.392200	-10.159000	25.519074	6.798606E-5	20.800215
1843.507002	-2.983400	3.392000	-10.118000	25.544270	6.831601E-5	20.817932
1844.507727	-2.976700	3.392100	-10.097000	25.543453	6.646829E-5	20.818533
1845.504994	-2.989800	3.391100	-10.137000	25.537040	6.782108E-5	20.819679
1846.510530	-3.022100	3.391500	-10.248000	25.532220	6.584139E-5	20.822899
1847.516932	-3.003000	3.389800	-10.178000	25.539722	6.752413E-5	20.816208
1848.509293	-3.010400	3.389300	-10.202000	25.550951	6.660027E-5	20.806623
1849.513555	-3.010900	3.389100	-10.203000	25.561539	6.752413E-5	20.821049
1850.512618	-3.004400	3.389900	-10.184000	25.560594	6.531347E-5	20.809669
1851.517247	-3.016200	3.388900	-10.220000	25.574135	6.396068E-5	20.792922
1852.512039	-2.990400	3.390100	-10.137000	25.546603	6.316880E-5	20.828809
1853.514351	-3.001000	3.388200	-10.167000	25.562007	6.478555E-5	20.825313
1854.517926	-3.001800	3.387700	-10.168000	25.556218	6.425763E-5	20.812861
1855.517695	-2.996000	3.388300	-10.150000	25.555768	6.287184E-5	20.821417
1856.512965	-2.992500	3.388100	-10.137000	25.554950	6.458758E-5	20.805898
1857.517211	-3.019600	3.386800	-10.226000	25.549108	6.273986E-5	20.829428
1858.520388	-3.014800	3.386100	-10.207000	25.566155	6.379570E-5	20.833745
1859.512672	-3.005600	3.386000	-10.175000	25.577232	6.214595E-5	20.831119
1860.516031	-3.010200	3.385700	-10.191000	25.553773	6.165103E-5	20.820837
1861.515882	-3.030700	3.384800	-10.257000	25.567567	6.132108E-5	20.832319
1862.517349	-3.008300	3.386200	-10.185000	25.557822	6.194798E-5	20.838653
1863.517818	-3.017200	3.385400	-10.213000	25.572779	6.142007E-5	20.842768
1864.525867	-3.018000	3.384300	-10.213000	25.569375	6.313580E-5	20.818013
1865.516743	-3.011600	3.384800	-10.193000	25.587390	6.293783E-5	20.831838
1866.516395	-3.008300	3.384700	-10.181000	25.573124	6.006727E-5	20.830313
1867.516599	-3.009500	3.383700	-10.182000	25.573794	6.036423E-5	20.843787
1868.519218	-2.983800	3.384000	-10.096000	25.573719	6.161804E-5	20.840394
1869.523070	-3.025000	3.382700	-10.231000	25.561715	5.831854E-5	20.842563
1870.519235	-2.981100	3.382600	-10.082000	25.578163	5.838453E-5	20.838692
1871.521404	-2.991500	3.383500	-10.120000	25.591407	5.802159E-5	20.841087
1872.521187	-2.982400	3.382700	-10.086000	25.596149	5.676778E-5	20.832100
1873.526020	-3.007700	3.381900	-10.171000	25.578230	5.821956E-5	20.837811
1874.521507	-2.984100	3.382600	-10.092000	25.611377	5.614088E-5	20.837910
1875.521914	-3.000600	3.381900	-10.147000	25.599951	5.689976E-5	20.849668
1876.522458	-2.984800	3.380900	-10.090000	25.601614	5.670179E-5	20.837588
1877.519231	-2.992600	3.380800	-10.116000	25.591051	5.452413E-5	20.833144
1878.519642	-2.970900	3.381800	-10.046000	25.596516	5.452413E-5	20.848115
1879.523136	-2.989400	3.380600	-10.105000	25.608097	5.465611E-5	20.846469
1880.525737	-2.999600	3.379600	-10.137000	25.581556	5.412819E-5	20.832617
1881.524751	-3.010500	3.379600	-10.173000	25.614354	5.422717E-5	20.837581
1882.526707	-3.004600	3.378900	-10.151000	25.604834	5.462311E-5	20.851253
1883.524659	-3.006800	3.379200	-10.160000	25.623895	5.284139E-5	20.838154
1884.525004	-3.039200	3.377500	-10.263000	25.607667	5.303935E-5	20.841296
1885.528344	-3.016300	3.378900	-10.192000	25.619294	5.277540E-5	20.849180
1886.527316	-3.010600	3.377900	-10.168000	25.609478	5.402920E-5	20.866348
1887.531240	-3.013500	3.378100	-10.179000	25.616306	5.231347E-5	20.852818
1888.527451	-3.002100	3.377900	-10.140000	25.621129	5.069671E-5	20.862877
1889.537443	-3.006000	3.377300	-10.150000	25.601946	4.944291E-5	20.847404
1890.529781	-3.000300	3.378200	-10.135000	25.614146	5.063072E-5	20.847804
1891.525116	-2.986600	3.377200	-10.086000	25.621077	5.076270E-5	20.866143
1892.527990	-2.993500	3.375800	-10.105000	25.621098	5.135661E-5	20.859526
1893.532335	-3.003700	3.376300	-10.141000	25.631213	4.904697E-5	20.848823
1894.525194	-3.012500	3.375200	-10.167000	25.650368	4.891499E-5	20.856681
1895.528942	-2.988000	3.375600	-10.085000	25.636131	4.868402E-5	20.859452
1896.526604	-3.001100	3.375100	-10.128000	25.628948	4.848605E-5	20.884478
1897.528831	-3.007500	3.374000	-10.146000	25.640007	4.782616E-5	20.859551
1898.527604	-2.988700	3.375000	-10.086000	25.634838	4.663834E-5	20.865265
1899.526767	-3.004300	3.374600	-10.138000	25.635829	4.700128E-5	20.864837
1900.530732	-3.003600	3.373800	-10.133000	25.636523	4.518656E-5	20.857000
1901.528847	-2.991700	3.373900	-10.093000	25.633841	4.482362E-5	20.886548
1902.529004	-2.993000	3.374200	-10.098000	25.626781	4.528555E-5	20.865708
1903.530536	-2.998700	3.374600	-10.118000	25.653543	4.568149E-5	20.875990
1904.530478	-3.001000	3.373700	-10.123000	25.647007	4.380077E-5	20.860892
1905.529105	-3.016100	3.371600	-10.169000	25.644524	4.432869E-5	20.860768
1906.533302	-3.022900	3.370900	-10.189000	25.663654	4.462565E-5	20.862913
1907.530985	-2.976800	3.373300	-10.041000	25.643597	4.290991E-5	20.881648
1908.527948	-2.983100	3.372400	-10.058000	25.652620	4.347083E-5	20.865581
1909.535503	-2.988500	3.371300	-10.074000	25.634208	4.300890E-5	20.868425
1910.532460	-2.987000	3.370200	-10.066000	25.644217	4.089722E-5	20.878952
1911.533988	-2.971000	3.371300	-10.015000	25.645609	4.086423E-5	20.870393
1912.533846	-3.003200	3.369100	-10.117000	25.639447	3.871956E-5	20.876058
1913.534782	-3.007300	3.369400	-10.131000	25.641410	4.257996E-5	20.867598
1914.535516	-3.013900	3.369400	-10.155000	25.645930	4.149113E-5	20.857439
1915.538163	-2.998700	3.368600	-10.101000	25.644189	4.175509E-5	20.860907
1916.532272	-2.996700	3.368900	-10.095000	25.670154	3.990737E-5	20.859010
1917.538969	-2.958600	3.370200	-9.970600	25.655548	4.000636E-5	20.872314
1918.539325	-2.994300	3.368900	-10.087000	25.674925	4.036930E-5	20.880870
1919.537550	-3.013000	3.367400	-10.145000	25.671870	4.089722E-5	20.864052
1920.537026	-2.982300	3.369000	-10.047000	25.684286	3.825763E-5	20.876996
1921.540020	-3.029900	3.366500	-10.199000	25.682721	3.934646E-5	20.881588
1922.541759	-2.995000	3.367900	-10.086000	25.684934	3.918148E-5	20.877647
1923.541478	-3.010200	3.365900	-10.131000	25.690296	3.723478E-5	20.889195
1924.540462	-3.010400	3.365400	-10.131000	25.690518	3.865357E-5	20.880410
1925.539094	-2.988700	3.365500	-10.058000	25.681348	3.743275E-5	20.893958
1926.541043	-3.010400	3.364300	-10.126000	25.694640	3.604697E-5	20.892136
1927.537148	-2.981500	3.364600	-10.031000	25.693100	3.476016E-5	20.898650
1928.541545	-3.007700	3.365700	-10.123000	25.676701	3.571702E-5	20.882179
1929.539849	-3.007400	3.363600	-10.114000	25.690018	3.538707E-5	20.896976
1930.537379	-3.000600	3.363900	-10.093000	25.694041	3.637692E-5	20.896276
1931.536607	-3.018000	3.363800	-10.151000	25.703507	3.532108E-5	20.889663
1932.538939	-3.004800	3.363100	-10.104000	25.703828	3.492514E-5	20.877658
1933.541746	-3.024200	3.362300	-10.167000	25.700922	3.518910E-5	20.904134
1934.539499	-3.002600	3.362000	-10.094000	25.702859	3.254950E-5	20.898494
1935.538470	-2.983800	3.362700	-10.033000	25.706756	3.330839E-5	20.901934
1936.539437	-3.010300	3.360500	-10.115000	25.697290	3.215356E-5	20.887211
1937.542217	-2.975600	3.362000	-10.003000	25.712769	3.304443E-5	20.919826
1938.538896	-2.995000	3.361400	-10.067000	25.696666	3.043783E-5	20.886111
1939.544131	-3.007700	3.361900	-10.110000	25.718008	2.964595E-5	20.915605
1940.540302	-2.998900	3.361400	-10.080000	25.709708	2.885407E-5	20.905373
1941.538958	-3.033600	3.360300	-10.193000	25.730803	2.990991E-5	20.901905
1942.543406	-3.007300	3.359500	-10.102000	25.717807	3.083377E-5	20.886957
1943.539707	-3.023400	3.359700	-10.156000	25.717681	2.826016E-5	20.901527
1944.545547	-2.999600	3.359600	-10.077000	25.704191	2.987691E-5	20.899832
1945.542462	-2.996500	3.360100	-10.068000	25.705086	3.060280E-5	20.895990
1946.543435	-3.002400	3.359600	-10.086000	25.734946	2.898605E-5	20.918868
1947.539808	-2.994500	3.358600	-10.056000	25.743715	2.941498E-5	20.880263
1948.544504	-3.003000	3.358400	-10.084000	25.711491	2.647844E-5	20.899578
1949.545938	-3.009700	3.357700	-10.105000	25.719044	2.611549E-5	20.891518
1950.546921	-3.000200	3.357400	-10.072000	25.744437	2.822717E-5	20.912754
1951.545517	-2.994300	3.356500	-10.050000	25.748485	2.529062E-5	20.884105
1952.546687	-3.003200	3.357100	-10.081000	25.733798	2.492767E-5	20.866510
1953.545610	-3.012100	3.355300	-10.105000	25.736853	2.548859E-5	20.892810
1954.544563	-3.000900	3.355900	-10.069000	25.745624	2.644544E-5	20.903516
1955.550022	-3.012200	3.355300	-10.106000	25.736754	2.443275E-5	20.879435
1956.544163	-3.003700	3.355100	-10.077000	25.741002	2.410280E-5	20.881332
1957.551991	-2.997600	3.355500	-10.057000	25.720602	2.380585E-5	20.889289
1958.543676	-2.996900	3.355900	-10.057000	25.756531	2.360788E-5	20.863266
1959.546986	-3.012000	3.354900	-10.104000	25.769350	2.301397E-5	20.868081
1960.545992	-3.022500	3.353500	-10.135000	25.750193	2.436676E-5	20.855478
1961.546546	-3.006700	3.355100	-10.087000	25.747633	2.212310E-5	20.871871
1962.547852	-2.992800	3.354900	-10.039000	25.774888	2.152920E-5	20.863213
1963.544091	-3.003800	3.353200	-10.072000	25.772151	2.106727E-5	20.864257
1964.545997	-3.000100	3.353300	-10.059000	25.778565	2.116625E-5	20.870700
1965.549854	-3.007100	3.351800	-10.079000	25.775829	1.892260E-5	20.890234
1966.546375	-2.992800	3.353200	-10.034000	25.763704	1.931854E-5	20.879952
1967.549195	-2.971800	3.352700	-9.962800	25.774042	1.961549E-5	20.885121
1968.550250	-2.994700	3.351200	-10.035000	25.755034	1.928554E-5	20.848487
1969.543596	-2.990800	3.351500	-10.023000	25.790881	1.885661E-5	20.870268
1970.560587	-3.028800	3.351100	-10.148000	25.799427	1.859265E-5	20.848982
1971.548558	-3.000500	3.350700	-10.053000	25.768847	1.611803E-5	20.868050
1972.547926	-3.001200	3.351700	-10.058000	25.797018	1.737183E-5	20.865053
1973.550295	-3.001700	3.350500	-10.055000	25.775579	1.667894E-5	20.868174
1974.546990	-2.996400	3.349700	-10.035000	25.780345	1.717386E-5	20.862530
1975.548239	-3.020000	3.349200	-10.114000	25.774684	1.595305E-5	20.871068
1976.546001	-2.992600	3.349300	-10.022000	25.797662	1.780077E-5	20.869968
1977.548335	-2.995700	3.349000	-10.031000	25.788394	1.641498E-5	20.865874
1978.548589	-2.989800	3.349500	-10.014000	25.798557	1.512818E-5	20.871340
1979.549065	-2.993200	3.347200	-10.018000	25.809664	1.433630E-5	20.866850
1980.546310	-2.993800	3.349200	-10.026000	25.796916	1.608503E-5	20.841718
1981.550208	-2.999600	3.346700	-10.037000	25.806134	1.288452E-5	20.847185
1982.546263	-2.994600	3.347500	-10.024000	25.796842	1.321447E-5	20.858713
1983.550607	-2.991000	3.348600	-10.015000	25.796968	1.347843E-5	20.838926
1984.552018	-3.004200	3.348100	-10.058000	25.794929	1.433630E-5	20.859162
1985.551086	-3.037900	3.346000	-10.164000	25.786657	1.268655E-5	20.841371
1986.550628	-3.004500	3.346200	-10.053000	25.793812	1.080584E-5	20.837652
1987.548428	-2.999500	3.345900	-10.035000	25.804718	1.328046E-5	20.856667
1988.551623	-3.001000	3.346000	-10.040000	25.797092	1.080584E-5	20.850429
1989.549215	-2.996900	3.344200	-10.021000	25.797141	1.116879E-5	20.821556
1990.550033	-3.003100	3.343900	-10.042000	25.810432	1.037691E-5	20.862406
1991.551833	-3.010700	3.345200	-10.070000	25.824712	1.024493E-5	20.847829
1992.555045	-2.998200	3.344500	-10.026000	25.789610	9.255080E-6	20.832009
1993.554227	-3.005100	3.343100	-10.044000	25.821186	1.060787E-5	20.854718
1994.554640	-3.010600	3.343300	-10.065000	25.822007	9.848989E-6	20.840370
1995.556183	-3.024200	3.342500	-10.108000	25.830855	8.694166E-6	20.848784
1996.552324	-3.002000	3.342800	-10.034000	25.820443	8.496196E-6	20.836428
1997.559898	-2.988300	3.341400	-9.984400	25.819893	8.331222E-6	20.834454
1998.559276	-3.003200	3.342100	-10.036000	25.812517	8.760156E-6	20.845062
1999.557148	-2.988000	3.341800	-9.983300	25.820964	8.595181E-6	20.840745
2000.560442	-3.000100	3.342000	-10.025000	25.825339	5.526652E-6	20.827596
2001.559466	-3.003900	3.342800	-10.041000	25.836791	5.658632E-6	20.828669
2002.556996	-3.001700	3.340400	-10.026000	25.839197	5.988581E-6	20.843887
2003.562115	-3.008800	3.340800	-10.050000	25.834903	6.021576E-6	20.825350
2004.561131	-2.993000	3.341300	-9.999200	25.843498	4.008885E-6	20.840621
2005.560592	-3.002700	3.342300	-10.035000	25.841187	4.635789E-6	20.825972
2006.560690	-2.987000	3.340700	-9.977800	25.864537	4.338834E-6	20.826670
2007.567081	-3.025700	3.338500	-10.100000	25.813264	4.437819E-6	20.833959
2008.563612	-3.002600	3.338800	-10.025000	25.836467	1.897209E-6	20.817438
2009.560913	-3.010600	3.337700	-10.047000	25.857112	2.953047E-6	20.832012
2010.562708	-2.971900	3.339100	-9.922600	25.860838	7.753811E-7	20.831963
2011.561975	-2.995600	3.339200	-10.002000	25.868091	5.444165E-7	20.828343
2012.563744	-2.988800	3.337400	-9.973600	25.874798	2.557108E-6	20.816115
2013.560841	-3.030400	3.335900	-10.108000	25.849683	-1.336295E-6	20.845412
2014.563615	-3.021400	3.336300	-10.080000	25.860662	8.413709E-7	20.817088
2015.565654	-3.011100	3.336200	-10.045000	25.884682	1.484772E-7	20.829362
2016.568297	-2.987900	3.336400	-9.967400	25.873607	6.434013E-7	20.813970
2017.565714	-3.000100	3.335900	-10.006000	25.872015	9.403557E-7	20.826121
2018.567454	-3.002300	3.336400	-10.017000	25.867718	-1.237310E-6	20.833184
2019.570267	-3.023400	3.336000	-10.085000	25.868834	-3.019037E-6	20.832409
2020.563627	-2.996300	3.335300	-9.992800	25.881004	-2.161168E-6	20.812867
2021.567647	-2.976500	3.334900	-9.925700	25.869831	-1.864214E-6	20.830091
2022.564291	-3.010100	3.334600	-10.037000	25.894470	-4.239850E-6	20.817859
2023.568830	-2.966500	3.335200	-9.892600	25.878299	-2.557108E-6	20.810623
2024.565969	-3.027600	3.334100	-10.093000	25.890444	-5.097718E-6	20.813815
2025.569476	-3.003800	3.333000	-10.011000	25.883266	-3.381981E-6	20.812767
2026.567015	-3.000200	3.333400	-10.000000	25.880261	-5.493657E-6	20.819706
2027.566658	-3.020200	3.332100	-10.062000	25.910120	-4.338834E-6	20.811295
2028.568783	-2.991700	3.331900	-9.967100	25.884058	-6.252541E-6	20.834426
2029.566316	-3.008300	3.331400	-10.021000	25.893501	-4.470814E-6	20.810248
2030.571464	-2.993300	3.330800	-9.968700	25.899289	-4.998733E-6	20.817958
2031.570002	-3.015300	3.331300	-10.044000	25.881575	-7.836298E-6	20.786887
2032.569251	-3.002600	3.331400	-10.002000	25.885178	-6.219546E-6	20.810422
2033.566570	-3.005100	3.331800	-10.011000	25.891138	-5.955587E-6	20.813564
2034.571671	-3.005100	3.329900	-10.005000	25.878447	-8.034268E-6	20.801289
2035.574074	-3.002100	3.331100	-9.999300	25.915709	-8.727161E-6	20.822126
2036.578573	-3.006200	3.329700	-10.009000	25.919436	-8.034268E-6	20.802163
2037.568273	-3.015600	3.330500	-10.042000	25.903808	-9.387060E-6	20.804955
2038.570510	-3.008500	3.328700	-10.014000	25.916481	-1.001396E-5	20.795875
2039.568723	-3.008000	3.329200	-10.013000	25.915086	-1.004696E-5	20.807750
2040.570289	-2.994400	3.329600	-9.969300	25.921398	-9.947974E-6	20.808875
2041.572481	-3.002400	3.328300	-9.992000	25.901747	-1.271955E-5	20.819480
2042.569520	-3.032400	3.326400	-10.086000	25.916104	-1.103681E-5	20.806876
2043.574360	-3.004000	3.327900	-9.995900	25.926882	-1.044290E-5	20.810118
2044.569838	-3.013500	3.327600	-10.026000	25.929816	-1.298351E-5	20.815910
2045.574221	-2.991500	3.327100	-9.951900	25.949586	-1.344544E-5	20.797839
2046.575632	-3.006800	3.326600	-10.002000	25.923578	-1.407234E-5	20.797315
2047.573879	-2.995900	3.325900	-9.963300	25.946832	-1.308249E-5	20.808822
2048.574616	-3.015600	3.327200	-10.032000	25.914487	-1.644798E-5	20.791028
2049.575296	-2.992100	3.325800	-9.950800	25.943352	-1.499620E-5	20.806749
2050.574836	-3.009400	3.325200	-10.005000	25.943003	-1.707488E-5	20.801183
2051.570785	-3.022300	3.325200	-10.050000	25.941443	-1.611803E-5	20.797244
2052.574450	-2.996000	3.325500	-9.961800	25.942010	-1.615102E-5	20.819625
2053.573364	-2.994700	3.325000	-9.956700	25.980288	-1.638199E-5	20.797864
2054.574951	-2.994200	3.325400	-9.955700	25.949191	-1.697590E-5	20.792227
2055.572908	-3.004000	3.323600	-9.982700	25.946754	-1.671194E-5	20.806374
2056.575346	-2.993600	3.324700	-9.951600	25.935850	-1.763580E-5	20.795893
2057.580116	-3.001500	3.322900	-9.971800	25.969831	-1.915356E-5	20.812014
2058.576860	-3.008000	3.323200	-9.995400	25.947152	-1.915356E-5	20.798713
2059.576522	-2.997400	3.322800	-9.958500	25.972687	-1.799874E-5	20.812039
2060.574027	-2.996400	3.322800	-9.955100	25.958427	-1.654696E-5	20.824738
2061.574302	-2.963600	3.321800	-9.842800	25.966277	-1.958250E-5	20.807022
2062.581029	-2.989300	3.322400	-9.931000	25.965879	-2.096828E-5	20.778172
2063.575677	-2.999800	3.322100	-9.964400	25.974325	-2.060534E-5	20.773381
2064.573035	-2.983300	3.322400	-9.910400	25.971518	-2.129823E-5	20.792847
2065.577324	-2.995400	3.322100	-9.949000	25.947072	-2.169417E-5	20.798158
2066.576995	-2.977300	3.320500	-9.885100	25.983638	-2.228808E-5	20.798859
2067.575471	-2.994100	3.320900	-9.941500	25.961653	-2.337692E-5	20.798109
2068.576566	-3.007600	3.320600	-9.985400	25.985349	-2.278301E-5	20.796311
2069.572441	-3.016900	3.319000	-10.012000	25.987413	-2.113326E-5	20.797910
2070.574212	-2.989900	3.319700	-9.924700	25.981750	-2.321194E-5	20.786531
2071.576641	-2.969100	3.320000	-9.856700	25.977422	-2.298098E-5	20.790717
2072.577219	-2.978600	3.320200	-9.888200	25.980303	-2.360788E-5	20.782706
2073.576490	-2.991300	3.319100	-9.927800	25.988576	-2.529062E-5	20.810932
2074.576992	-2.991100	3.318700	-9.925700	26.008795	-2.479570E-5	20.797107
2075.573087	-2.993800	3.317000	-9.929200	25.984948	-2.578555E-5	20.794960
2076.580002	-3.016400	3.317100	-10.005000	26.002234	-2.565357E-5	20.793835
2077.573594	-3.005900	3.316100	-9.967000	26.004474	-2.595052E-5	20.787076
2078.575656	-3.014100	3.316100	-9.994900	25.990735	-2.677539E-5	20.778962
2079.576799	-2.998700	3.315800	-9.941800	26.007971	-2.707235E-5	20.783952
2080.576553	-3.002600	3.316000	-9.955500	26.000642	-2.852413E-5	20.779433
2081.578384	-2.978800	3.316000	-9.877100	26.017682	-2.789722E-5	20.804613
2082.578749	-3.017400	3.315000	-10.001000	26.012543	-3.093276E-5	20.813675
2083.577406	-2.990500	3.313800	-9.909300	26.001657	-3.010788E-5	20.791832
2084.575939	-3.013100	3.314500	-9.986300	26.026423	-2.954697E-5	20.795378
2085.576310	-3.006600	3.314200	-9.963100	26.002552	-2.981093E-5	20.776610
2086.576607	-3.013100	3.313700	-9.983500	26.033129	-3.027286E-5	20.814443
2087.577934	-3.002200	3.314100	-9.948000	26.047508	-3.185662E-5	20.780527
2088.577437	-2.978800	3.313000	-9.867400	26.025599	-2.934900E-5	20.779851
2089.580633	-2.993600	3.313300	-9.916700	26.038915	-3.212058E-5	20.788014
2090.579228	-3.029600	3.312600	-10.035000	26.038465	-3.080078E-5	20.778553
2091.580566	-2.988100	3.312100	-9.895600	26.047255	-3.485916E-5	20.782169
2092.586195	-3.019700	3.312000	-9.999800	26.062131	-3.344037E-5	20.772460
2093.575832	-3.013400	3.311500	-9.977300	26.045568	-3.419926E-5	20.786164
2094.587080	-2.993600	3.312100	-9.914700	26.038335	-3.426525E-5	20.785535
2095.579866	-3.004200	3.311500	-9.947200	26.043378	-3.542007E-5	20.777799
2096.578759	-2.988800	3.311000	-9.894900	26.062205	-3.637692E-5	20.776801
2097.577391	-3.008800	3.309500	-9.957000	26.037638	-3.677286E-5	20.769187
2098.577341	-3.004500	3.310400	-9.945400	26.066992	-3.561804E-5	20.764541
2099.577757	-3.000500	3.309900	-9.931100	26.055891	-3.647591E-5	20.784682
2100.578924	-3.021000	3.309500	-9.997000	26.070267	-3.631093E-5	20.778264
2101.577219	-3.015100	3.309500	-9.976200	26.051743	-3.865358E-5	20.771505
2102.577487	-3.017600	3.308700	-9.984100	26.090186	-3.796068E-5	20.786424
2103.582537	-3.021600	3.308500	-9.995700	26.085865	-4.076525E-5	20.765960
2104.577927	-2.994700	3.307200	-9.903900	26.100990	-3.829063E-5	20.779262
2105.582125	-2.973000	3.308800	-9.836000	26.078463	-3.974241E-5	20.766109
2106.583457	-2.980000	3.307000	-9.852300	26.106576	-3.957743E-5	20.776813
2107.581462	-2.998900	3.306200	-9.914400	26.080970	-4.155713E-5	20.792811
2108.583917	-2.981200	3.307200	-9.858200	26.105706	-4.106221E-5	20.774517
2109.585967	-2.994800	3.305600	-9.898600	26.086084	-3.911550E-5	20.769499
2110.580894	-3.009400	3.306500	-9.950100	26.100688	-4.234901E-5	20.796027
2111.589956	-3.002600	3.305500	-9.924500	26.101857	-4.366881E-5	20.777761
2112.580310	-3.001800	3.304500	-9.918500	26.099494	-4.320688E-5	20.774439
2113.584393	-2.970800	3.306400	-9.821200	26.105231	-4.356982E-5	20.751753
2114.586531	-2.990800	3.306300	-9.888300	26.130910	-4.538454E-5	20.783247
2115.582659	-2.976000	3.304500	-9.833100	26.112605	-4.462566E-5	20.759638
2116.586785	-3.014900	3.304200	-9.960100	26.119036	-4.597845E-5	20.760409
2117.591505	-3.012500	3.303600	-9.951700	26.122142	-4.680333E-5	20.757366
2118.588315	-3.010900	3.303400	-9.944700	26.114712	-4.594546E-5	20.772660
2119.590307	-3.028100	3.303800	-10.002000	26.126386	-4.815612E-5	20.769217
2120.588123	-2.980700	3.303700	-9.845200	26.108081	-4.713328E-5	20.765523
2121.588730	-3.015000	3.302000	-9.954500	26.133711	-4.594546E-5	20.768042
2122.596143	-3.013900	3.302300	-9.952300	26.111285	-4.617642E-5	20.772062
2123.586780	-2.976100	3.303300	-9.830200	26.113145	-4.739724E-5	20.774879
2124.589015	-3.005500	3.301600	-9.921900	26.111257	-4.769419E-5	20.742635
2125.589976	-2.996700	3.301600	-9.893200	26.152635	-5.026780E-5	20.773308
2126.588123	-2.987800	3.302200	-9.865200	26.141483	-5.036678E-5	20.761627
2127.593219	-2.984800	3.301200	-9.853000	26.139941	-4.878302E-5	20.761500
2128.593651	-2.998400	3.300600	-9.895500	26.159013	-5.195054E-5	20.772604
2129.592884	-3.000600	3.299700	-9.900100	26.130130	-5.254445E-5	20.770134
2130.595532	-2.991300	3.300100	-9.870600	26.144906	-5.171957E-5	20.757480
2131.592186	-2.987000	3.299800	-9.855800	26.160678	-5.171957E-5	20.765268
2132.593742	-2.997400	3.299200	-9.888500	26.148854	-5.274242E-5	20.777094
2133.592255	-2.993300	3.298600	-9.873000	26.159929	-5.501907E-5	20.757403
2134.590840	-3.014300	3.297800	-9.939100	26.168644	-5.386425E-5	20.779911
2135.592512	-3.000400	3.297400	-9.893000	26.171158	-5.327034E-5	20.742607
2136.591465	-3.030300	3.297000	-9.989900	26.148379	-5.567897E-5	20.768082
2137.592215	-3.003400	3.296900	-9.901200	26.152974	-5.673481E-5	20.760372
2138.598149	-2.984300	3.296400	-9.836300	26.152101	-5.528303E-5	20.780358
2139.594860	-2.985200	3.296600	-9.840400	26.149763	-5.693278E-5	20.763309
2140.595212	-2.993100	3.296000	-9.864100	26.163923	-5.729572E-5	20.764261
2141.596510	-2.990700	3.295800	-9.855300	26.143308	-5.795562E-5	20.737856
2142.596794	-2.998600	3.294700	-9.877800	26.174776	-5.812060E-5	20.744820
2143.593913	-3.004500	3.295400	-9.899900	26.180459	-5.742770E-5	20.769498
2144.597558	-2.988600	3.294500	-9.845500	26.192031	-5.719674E-5	20.739873
2145.592866	-3.018900	3.292900	-9.939700	26.192499	-6.036425E-5	20.752199
2146.597258	-3.001000	3.293800	-9.882900	26.177924	-6.000131E-5	20.767425
2147.596204	-2.976900	3.294200	-9.805600	26.197119	-6.033126E-5	20.765376
2148.594369	-2.998800	3.293400	-9.875200	26.208718	-6.010029E-5	20.735779
2149.600950	-3.005000	3.292900	-9.893800	26.190362	-5.970435E-5	20.750525
2150.597015	-3.019700	3.293100	-9.942800	26.216810	-6.356476E-5	20.742963
2151.598834	-2.990300	3.293600	-9.847800	26.207025	-6.293786E-5	20.744510
2152.599798	-2.979000	3.293900	-9.811500	26.216113	-6.059522E-5	20.743211
2153.598002	-3.008900	3.291400	-9.902900	26.216931	-6.115613E-5	20.732652
2154.598896	-2.997000	3.289900	-9.859000	26.213430	-6.178303E-5	20.739092
2155.598011	-3.019000	3.289800	-9.931100	26.219836	-6.264090E-5	20.750745
2156.596261	-3.000100	3.289200	-9.866000	26.207790	-6.452162E-5	20.732949
2157.602950	-3.003900	3.288600	-9.877800	26.213998	-6.501654E-5	20.735395
2158.595154	-3.014700	3.288400	-9.912800	26.220153	-6.386172E-5	20.732571
2159.596607	-3.042800	3.287600	-10.002000	26.229266	-6.363075E-5	20.731297
2160.600671	-3.004600	3.288500	-9.878900	26.209224	-6.580842E-5	20.759996
2161.597506	-3.014900	3.288700	-9.914100	26.234728	-6.749116E-5	20.737735
2162.597990	-3.013200	3.288700	-9.908700	26.226855	-6.719421E-5	20.735512
2163.596997	-2.994900	3.288200	-9.846500	26.222682	-6.759015E-5	20.747441
2164.597023	-2.981600	3.288400	-9.804000	26.227123	-6.923989E-5	20.752852
2165.601108	-3.003700	3.286500	-9.871000	26.244630	-6.660030E-5	20.722080
2166.600574	-2.989300	3.286700	-9.823900	26.237599	-6.828304E-5	20.740145
2167.603893	-2.998000	3.287000	-9.853800	26.251680	-6.857999E-5	20.728217
2168.597068	-2.983000	3.286900	-9.803400	26.247606	-6.881096E-5	20.727916
2169.600175	-3.002700	3.286400	-9.866700	26.250184	-6.930588E-5	20.746629
2170.601944	-3.042900	3.284800	-9.994100	26.250138	-7.079066E-5	20.720503
2171.600955	-2.992300	3.284600	-9.828300	26.259966	-6.966883E-5	20.758356
2172.600087	-3.013500	3.284200	-9.896100	26.280057	-7.115360E-5	20.730181
2173.600724	-3.005900	3.283300	-9.868000	26.272705	-7.174751E-5	20.744605
2174.597311	-3.014800	3.283600	-9.898300	26.282860	-7.290233E-5	20.736318
2175.602744	-3.014800	3.283300	-9.897900	26.269026	-7.356223E-5	20.735692
2176.598404	-3.007400	3.281500	-9.867500	26.276702	-7.280335E-5	20.735819
2177.602791	-3.007500	3.283000	-9.872200	26.281593	-7.573990E-5	20.753063
2178.619517	-2.993200	3.283500	-9.827000	26.286357	-7.409015E-5	20.739358
2179.604533	-2.983900	3.282300	-9.792300	26.262192	-7.521198E-5	20.749213
2180.604910	-3.029400	3.281500	-9.939900	26.297603	-7.557493E-5	20.744971
2181.608407	-2.989500	3.281500	-9.809200	26.266960	-7.765361E-5	20.732193
2182.600601	-3.015700	3.281300	-9.894700	26.300554	-7.672975E-5	20.746514
2183.603206	-3.006400	3.278800	-9.856800	26.282798	-7.715868E-5	20.741472
2184.603052	-3.000100	3.279600	-9.838200	26.310339	-7.676274E-5	20.743545
2185.603868	-2.994900	3.280000	-9.822300	26.299830	-7.785158E-5	20.759537
2186.604712	-2.988200	3.281400	-9.804800	26.286687	-7.666376E-5	20.730206
2187.614297	-2.985300	3.280700	-9.792000	26.301538	-7.762061E-5	20.759831
2188.604469	-2.986300	3.278400	-9.789700	26.299330	-8.111808E-5	20.759035
2189.603247	-3.012500	3.278200	-9.872600	26.295775	-8.085412E-5	20.744555
2190.606296	-3.008900	3.277000	-9.859000	26.305060	-7.966630E-5	20.743929
2191.608077	-3.006100	3.276900	-9.849900	26.293635	-8.029320E-5	20.764691
2192.604052	-2.979400	3.277800	-9.764600	26.308655	-8.164600E-5	20.745172
2193.605637	-3.013300	3.275900	-9.869700	26.300983	-8.230590E-5	20.745996
2194.605546	-2.989300	3.276100	-9.792500	26.309025	-8.435158E-5	20.748863
2195.607919	-2.999500	3.276600	-9.827000	26.336683	-8.379067E-5	20.731139
2196.605952	-2.973400	3.275700	-9.739300	26.329831	-8.276783E-5	20.752229
2197.607294	-3.003400	3.276400	-9.839500	26.330078	-8.445057E-5	20.764331
2198.607326	-3.012200	3.276500	-9.868600	26.339535	-8.223991E-5	20.763879
2199.610530	-3.015400	3.273900	-9.870900	26.349070	-8.398864E-5	20.757814
2200.610266	-3.000700	3.274300	-9.824500	26.343155	-8.540742E-5	20.756611
2201.608418	-2.958200	3.276200	-9.690200	26.336550	-8.385666E-5	20.758508
2202.614699	-3.006000	3.272000	-9.833600	26.344395	-8.606732E-5	20.735097
2203.616156	-3.007100	3.272900	-9.840000	26.351197	-8.560539E-5	20.739089
2204.613186	-3.015500	3.272000	-9.865600	26.338977	-9.058763E-5	20.792242
2205.614934	-2.976200	3.273600	-9.741800	26.329988	-8.873991E-5	20.755232
2206.610249	-2.996200	3.273400	-9.807100	26.354666	-8.742011E-5	20.743049
2207.609970	-3.008600	3.272600	-9.844700	26.364127	-8.692519E-5	20.759670
2208.616890	-3.017200	3.269900	-9.864600	26.352304	-8.804702E-5	20.769600
2209.609927	-3.001000	3.270800	-9.814400	26.383892	-8.996073E-5	20.747766
2210.611991	-2.995100	3.271200	-9.796300	26.363877	-8.794803E-5	20.744720
2211.616119	-2.990600	3.269300	-9.776200	26.397170	-8.933382E-5	20.753051
2212.610069	-2.976400	3.270100	-9.732600	26.386266	-9.180844E-5	20.774335
2213.613961	-3.019700	3.268500	-9.868300	26.376612	-9.200641E-5	20.762735
2214.610035	-2.992800	3.269300	-9.782800	26.386566	-9.131352E-5	20.759937
2215.611249	-3.009400	3.267700	-9.832600	26.391579	-9.052164E-5	20.769244
2216.613283	-3.013500	3.267400	-9.844800	26.398307	-9.187443E-5	20.757988
2217.612974	-3.000600	3.267800	-9.803600	26.389143	-9.289728E-5	20.756364
2218.614136	-2.975200	3.267400	-9.720000	26.377596	-9.296327E-5	20.751870
2219.618258	-3.030200	3.265400	-9.894200	26.421270	-9.296327E-5	20.790550
2220.613762	-2.994600	3.267600	-9.783800	26.392890	-9.164347E-5	20.749697
2221.615588	-2.991600	3.265700	-9.768700	26.403642	-9.319423E-5	20.763823
2222.618176	-3.011800	3.265000	-9.830800	26.424520	-9.454703E-5	20.762522
2223.613609	-3.025000	3.263800	-9.871700	26.433905	-9.484398E-5	20.765791
2224.620817	-3.024000	3.263600	-9.868300	26.421020	-9.464601E-5	20.762798
2225.617490	-2.998400	3.264100	-9.786500	26.416299	-9.471200E-5	20.765165
2226.616823	-3.001100	3.264700	-9.796500	26.429882	-9.533890E-5	20.761747
2227.618106	-2.985600	3.264600	-9.746100	26.429579	-9.530591E-5	20.773298
2228.615168	-3.026200	3.262500	-9.871600	26.437898	-9.708764E-5	20.771227
2229.616612	-3.002100	3.262100	-9.792100	26.456740	-9.583383E-5	20.772148
2230.617326	-2.994200	3.262000	-9.766200	26.442240	-9.629576E-5	20.758995
2231.615246	-2.987600	3.262400	-9.745600	26.444771	-9.797850E-5	20.763910
2232.620950	-2.995600	3.261300	-9.768900	26.441592	-0.000100	20.781104
2233.620641	-2.994300	3.262000	-9.766200	26.434861	-9.764855E-5	20.753950
2234.616987	-2.984700	3.262100	-9.735100	26.462321	-9.916632E-5	20.789611
2235.622833	-2.995400	3.262200	-9.770500	26.446680	-0.000101	20.768200
2236.617744	-2.987000	3.260700	-9.738300	26.464430	-9.910033E-5	20.777506
2237.618860	-2.999300	3.259900	-9.776100	26.474485	-9.943028E-5	20.768646
2238.618829	-3.008300	3.259700	-9.805800	26.476045	-9.956226E-5	20.760731
2239.626196	-3.003100	3.259100	-9.785400	26.480910	-9.613078E-5	20.767044
2240.615716	-3.013400	3.259000	-9.819600	26.493077	-0.000103	20.783541
2241.618318	-2.986700	3.258700	-9.731600	26.493619	-0.000101	20.775551
2242.620862	-3.001200	3.257600	-9.775300	26.490715	-0.000103	20.782589
2243.617758	-3.000800	3.257700	-9.774200	26.507993	-0.000101	20.781938
2244.623479	-3.013100	3.256300	-9.810700	26.527383	-0.000103	20.769660
2245.626905	-2.990300	3.256900	-9.737800	26.517474	-0.000101	20.787201
2246.621479	-2.994700	3.256700	-9.752000	26.518614	-0.000101	20.781709
2247.623555	-2.995500	3.256100	-9.752700	26.523578	-0.000106	20.780061
2248.620852	-2.998500	3.254900	-9.758700	26.495747	-0.000105	20.774845
2249.621880	-3.020500	3.254100	-9.828000	26.525909	-0.000107	20.771972
2250.625406	-3.001800	3.253900	-9.766800	26.533380	-0.000105	20.782326
2251.618883	-3.006700	3.253000	-9.780300	26.514859	-0.000104	20.777935
2252.622464	-2.989500	3.253600	-9.726000	26.519725	-0.000105	20.765755
2253.625046	-3.002500	3.253600	-9.768500	26.539660	-0.000107	20.770621
2254.620423	-2.987900	3.253100	-9.718800	26.525358	-0.000103	20.797022
2255.625978	-2.992100	3.252100	-9.728700	26.529156	-0.000105	20.794676
2256.628380	-2.982500	3.252400	-9.698500	26.537274	-0.000105	20.804733
2257.624868	-3.005700	3.250900	-9.769100	26.538834	-0.000106	20.781171
2258.626417	-3.013800	3.250500	-9.795600	26.554822	-0.000106	20.797717
2259.626577	-3.020400	3.249900	-9.814700	26.556956	-0.000107	20.788007
2260.628798	-2.996700	3.250900	-9.741100	26.565517	-0.000107	20.798510
2261.628767	-2.993500	3.249100	-9.724500	26.555565	-0.000110	20.790877
2262.625367	-3.024800	3.249000	-9.826800	26.573138	-0.000107	20.803800
2263.626998	-3.010800	3.247700	-9.777000	26.550673	-0.000109	20.794494
2264.624500	-3.025600	3.246700	-9.822600	26.563082	-0.000107	20.801752
2265.624959	-2.961900	3.249600	-9.623800	26.567975	-0.000109	20.779643
2266.627113	-2.999300	3.247500	-9.739500	26.565339	-0.000109	20.811133
2267.624348	-3.004300	3.247700	-9.755700	26.559009	-0.000112	20.795762
2268.626926	-3.003300	3.247400	-9.751600	26.543959	-0.000112	20.792486
2269.625564	-2.954700	3.246700	-9.592000	26.604264	-0.000110	20.792415
2270.625526	-2.987300	3.247200	-9.699600	26.584425	-0.000110	20.788120
2271.640286	-3.038100	3.244100	-9.854800	26.582637	-0.000111	20.790115
2272.627492	-3.001600	3.245000	-9.738600	26.597953	-0.000111	20.802667
2273.625814	-2.993000	3.244000	-9.708600	26.606616	-0.000112	20.817539
2274.629572	-2.987200	3.245300	-9.693600	26.610165	-0.000111	20.808304
2275.631273	-2.984700	3.245400	-9.685700	26.613784	-0.000111	20.809572
2276.626849	-2.986600	3.243200	-9.685500	26.609289	-0.000110	20.817855
2277.635738	-2.997200	3.243700	-9.721800	26.619022	-0.000111	20.806302
2278.635530	-3.006700	3.241400	-9.743600	26.612342	-0.000112	20.794845
2279.642489	-3.002400	3.243700	-9.736600	26.618544	-0.000112	20.819573
2280.634853	-3.006500	3.241500	-9.744000	26.620332	-0.000111	20.821844
2281.632860	-2.990000	3.242300	-9.693200	26.619038	-0.000113	20.822439
2282.634877	-2.986000	3.241800	-9.678400	26.617993	-0.000115	20.804794
2283.633828	-2.977200	3.240900	-9.647000	26.633086	-0.000115	20.804794
2284.631177	-2.996600	3.241900	-9.714000	26.638469	-0.000114	20.805938
2285.632439	-2.983600	3.240200	-9.666900	26.599617	-0.000114	20.827572
2286.640679	-2.995100	3.239100	-9.701100	26.627917	-0.000115	20.825201
2287.632372	-3.005600	3.239400	-9.735800	26.641019	-0.000116	20.824148
2288.630386	-3.001200	3.238900	-9.719200	26.632507	-0.000116	20.806108
2289.633007	-3.000200	3.236900	-9.710500	26.640723	-0.000113	20.816738
2290.640891	-2.981300	3.237600	-9.650400	26.626592	-0.000115	20.821499
2291.634262	-2.995800	3.237100	-9.696700	26.636272	-0.000115	20.827910
2292.633466	-2.997500	3.237100	-9.703000	26.626913	-0.000116	20.827985
2293.632300	-3.006900	3.236400	-9.730700	26.626392	-0.000115	20.811340
2294.632430	-3.008900	3.234500	-9.731900	26.641531	-0.000116	20.796214
2295.633306	-3.000300	3.236400	-9.709700	26.664023	-0.000115	20.817876
2296.635571	-2.993900	3.234100	-9.681300	26.675710	-0.000113	20.815875
2297.632212	-2.995900	3.234800	-9.689700	26.681545	-0.000118	20.831224
2298.638641	-2.986800	3.235700	-9.663200	26.676181	-0.000116	20.815875
2299.633033	-3.016700	3.233000	-9.752900	26.690158	-0.000117	20.824236
2300.635586	-3.028200	3.232600	-9.788200	26.663123	-0.000118	20.834515
2301.633646	-2.999900	3.232600	-9.696000	26.692812	-0.000119	20.830223
2302.635663	-2.997000	3.233400	-9.689600	26.689335	-0.000117	20.822460
2303.638994	-3.009700	3.233100	-9.728500	26.691841	-0.000119	20.854850
2304.637392	-3.013800	3.231200	-9.737000	26.717880	-0.000119	20.820812
2305.637274	-3.017100	3.231400	-9.748700	26.698641	-0.000119	20.814273
2306.637032	-2.993600	3.230600	-9.670300	26.691219	-0.000119	20.830518
2307.632919	-3.001900	3.230800	-9.697100	26.702313	-0.000119	20.827447
2308.638165	-3.021600	3.228300	-9.752700	26.713086	-0.000121	20.847760
2309.637187	-3.010000	3.229200	-9.719300	26.696601	-0.000120	20.833558
2310.638647	-3.036700	3.228200	-9.802100	26.702982	-0.000121	20.830964
2311.636049	-3.025500	3.226300	-9.760200	26.703204	-0.000121	20.833084
2312.636150	-2.990500	3.227900	-9.651700	26.735620	-0.000120	20.843388
2313.637311	-2.984300	3.227500	-9.631200	26.737904	-0.000121	20.827193
2314.636112	-3.011500	3.226500	-9.716100	26.743042	-0.000121	20.833781
2315.636078	-3.020400	3.226100	-9.742800	26.733160	-0.000121	20.834278
2316.638331	-3.009800	3.225200	-9.706800	26.751254	-0.000122	20.827813
2317.640035	-3.032600	3.223600	-9.775000	26.745123	-0.000123	20.823546
2318.635833	-3.037800	3.225000	-9.795400	26.736511	-0.000121	20.824370
2319.638615	-2.994200	3.224900	-9.655300	26.770141	-0.000122	20.838740
2320.640969	-2.986600	3.222800	-9.624800	26.782599	-0.000124	20.837516
2321.639174	-3.012200	3.223400	-9.709100	26.765619	-0.000122	20.834669
2322.638566	-3.018600	3.222600	-9.726400	26.780510	-0.000124	20.853907
2323.640840	-2.993200	3.221900	-9.643400	26.764599	-0.000123	20.839807
2324.637077	-2.991400	3.221900	-9.637300	26.786860	-0.000121	20.840378
2325.639595	-2.988800	3.221400	-9.626500	26.784900	-0.000122	20.860217
2326.638041	-3.013100	3.219500	-9.699600	26.787504	-0.000123	20.829172
2327.637237	-3.000800	3.221500	-9.666500	26.796514	-0.000123	20.845816
2328.638844	-3.013000	3.220300	-9.700800	26.806864	-0.000124	20.853378
2329.638000	-2.992500	3.219300	-9.632500	26.799119	-0.000125	20.863133
2330.642545	-3.016800	3.217800	-9.706900	26.788220	-0.000125	20.854546
2331.642563	-2.992800	3.219200	-9.632900	26.802839	-0.000124	20.848383
2332.640534	-3.019700	3.217900	-9.716900	26.805622	-0.000125	20.847388
2333.646449	-2.991200	3.217700	-9.624300	26.829991	-0.000124	20.857190
2334.643205	-3.023600	3.217300	-9.726400	26.818500	-0.000127	20.879774
2335.641511	-3.005000	3.217200	-9.666400	26.824304	-0.000125	20.847680
2336.647638	-3.008100	3.216200	-9.673600	26.816112	-0.000125	20.854615
2337.642220	-3.019300	3.215200	-9.706000	26.818001	-0.000125	20.844187
2338.646703	-2.991800	3.215400	-9.618700	26.818766	-0.000126	20.870085
2339.646460	-2.994800	3.214800	-9.627000	26.831773	-0.000125	20.870835
2340.649210	-2.978600	3.215100	-9.575800	26.828518	-0.000125	20.868511
2341.651255	-2.996900	3.214500	-9.632000	26.831743	-0.000125	20.844253
2342.647913	-3.009200	3.214500	-9.672100	26.827224	-0.000125	20.873373
2343.653334	-3.015400	3.212600	-9.686600	26.852122	-0.000126	20.864269
2344.651084	-2.991700	3.211800	-9.607700	26.853161	-0.000126	20.866736
2345.649512	-3.006500	3.211600	-9.654900	26.850230	-0.000126	20.858574
2346.644691	-2.998300	3.210200	-9.623900	26.855217	-0.000126	20.865958
2347.649008	-3.025900	3.210600	-9.714200	26.843104	-0.000128	20.880805
2348.646023	-2.997800	3.210800	-9.623800	26.860747	-0.000126	20.871044
2349.652865	-2.982000	3.212300	-9.577700	26.867398	-0.000126	20.866352
2350.649554	-3.016700	3.208700	-9.678400	26.873383	-0.000126	20.873318
2351.647664	-3.018400	3.208900	-9.684800	26.870277	-0.000128	20.878255
2352.653746	-3.014100	3.208400	-9.669000	26.899335	-0.000129	20.870016
2353.651193	-2.989900	3.208600	-9.591600	26.880100	-0.000128	20.881968
2354.650557	-3.024900	3.206400	-9.698700	26.884865	-0.000127	20.881070
2355.652559	-2.987800	3.207200	-9.580900	26.887346	-0.000126	20.898262
2356.650899	-2.990300	3.206600	-9.587200	26.898784	-0.000128	20.873255
2357.652339	-2.994300	3.205900	-9.598300	26.889898	-0.000128	20.865269
2358.657792	-2.995700	3.205100	-9.600500	26.904390	-0.000127	20.887426
2359.649522	-2.986800	3.203600	-9.567300	26.911189	-0.000127	20.871979
2360.652441	-2.972300	3.205500	-9.526600	26.900837	-0.000130	20.900448
2361.654207	-2.976500	3.204400	-9.537200	26.903241	-0.000126	20.888642
2362.653011	-2.995100	3.202600	-9.590700	26.921656	-0.000127	20.890089
2363.657479	-3.000800	3.202600	-9.610000	26.920266	-0.000129	20.917612
2364.654207	-2.979900	3.202300	-9.541800	26.937291	-0.000128	20.901068
2365.652591	-2.980800	3.202300	-9.544600	26.907930	-0.000128	20.899993
2366.651008	-2.966900	3.202600	-9.500800	26.917758	-0.000129	20.887117
2367.653558	-3.016900	3.199800	-9.652700	26.943146	-0.000129	20.885147
2368.651461	-3.006200	3.200400	-9.619300	26.923191	-0.000129	20.893529
2369.654154	-3.000700	3.199700	-9.600400	26.923435	-0.000128	20.897567
2370.651248	-3.001900	3.199300	-9.603000	26.928598	-0.000129	20.893750
2371.655533	-2.972200	3.199800	-9.509600	26.931350	-0.000131	20.903155
2372.653399	-2.983300	3.198700	-9.541500	26.936934	-0.000130	20.885064
2373.653630	-3.010200	3.196400	-9.621000	26.952646	-0.000130	20.900387
2374.655406	-3.020800	3.197000	-9.657100	26.930955	-0.000129	20.894698
2375.653564	-3.002800	3.196500	-9.597400	26.952393	-0.000129	20.912935
2376.651146	-3.015400	3.196000	-9.636600	26.949937	-0.000129	20.882018
2377.652972	-3.012200	3.194900	-9.623100	26.950209	-0.000129	20.915479
2378.654856	-3.025800	3.194400	-9.664800	26.966141	-0.000130	20.890252
2379.669443	-2.985300	3.195100	-9.537800	26.972863	-0.000130	20.914553
2380.651770	-2.982800	3.194000	-9.525900	26.957580	-0.000131	20.909142
2381.656287	-3.008800	3.193700	-9.608300	26.972320	-0.000132	20.899309
2382.656112	-2.979800	3.192900	-9.513400	26.968644	-0.000132	20.889450
2383.658288	-3.007800	3.191800	-9.599700	26.984056	-0.000131	20.911584
2384.659576	-2.973800	3.192900	-9.494200	26.977504	-0.000132	20.906418
2385.659978	-3.002200	3.191500	-9.580300	26.982814	-0.000129	20.906068
2386.653741	-2.988200	3.191900	-9.537200	26.997853	-0.000131	20.930198
2387.657910	-2.984900	3.190400	-9.522100	26.983883	-0.000131	20.895765
2388.654308	-3.029500	3.190200	-9.662400	26.997406	-0.000131	20.909362
2389.658512	-3.013600	3.189400	-9.610700	27.016540	-0.000133	20.913905
2390.657148	-2.990100	3.189400	-9.536200	26.966139	-0.000132	20.909213
2391.655474	-3.015500	3.187600	-9.611400	26.991077	-0.000130	20.896834
2392.659067	-3.019300	3.187300	-9.622300	27.005619	-0.000131	20.910983
2393.658416	-2.969000	3.188100	-9.464700	26.999687	-0.000132	20.907389
2394.660677	-3.007600	3.188600	-9.589200	27.012719	-0.000132	20.894891
2395.661125	-3.022400	3.186400	-9.629500	27.015249	-0.000132	20.910236
2396.658686	-2.985900	3.185400	-9.510100	26.993160	-0.000132	20.913627
2397.659115	-3.036000	3.185000	-9.668400	27.024180	-0.000133	20.914950
2398.659010	-3.017800	3.184200	-9.608200	27.024057	-0.000132	20.908188
2399.657690	-3.009300	3.184700	-9.583300	27.019863	-0.000134	20.926728
2400.661786	-2.985400	3.184000	-9.504500	27.025521	-0.000133	20.914401
2401.659308	-3.004000	3.183300	-9.562000	27.018942	-0.000134	20.936232
2402.658276	-3.001500	3.182900	-9.551900	27.039613	-0.000132	20.917193
2403.664380	-2.989300	3.182600	-9.512900	27.053958	-0.000131	20.933040
2404.662076	-2.990400	3.180200	-9.509600	27.047628	-0.000134	20.921934
2405.659924	-3.000200	3.182000	-9.546000	27.061773	-0.000133	20.919090
2406.666361	-3.001400	3.181700	-9.548000	27.056759	-0.000133	20.943443
2407.661038	-2.983900	3.179700	-9.487400	27.054128	-0.000133	20.925625
2408.667085	-3.022200	3.178800	-9.605500	27.049065	-0.000133	20.920534
2409.659800	-2.986700	3.178800	-9.493200	27.074127	-0.000134	20.922505
2410.659968	-2.987900	3.179200	-9.498200	27.085171	-0.000132	20.944515
2411.659931	-2.993700	3.178300	-9.514500	27.092986	-0.000131	20.918712
2412.659809	-3.006900	3.177200	-9.553300	27.079014	-0.000131	20.917464
2413.661827	-2.986700	3.177000	-9.486600	27.083433	-0.000133	20.921907
2414.666328	-3.013300	3.175700	-9.567600	27.095192	-0.000133	20.915716
2415.664151	-3.013400	3.174800	-9.566600	27.103158	-0.000136	20.934156
2416.664846	-2.997600	3.175200	-9.517300	27.083652	-0.000133	20.923076
2417.664892	-3.030200	3.174300	-9.617900	27.080725	-0.000132	20.912546
2418.664413	-3.012800	3.173600	-9.560800	27.086380	-0.000134	20.888364
2419.665862	-3.043800	3.171100	-9.651400	27.104172	-0.000134	20.934702
2420.666020	-3.012200	3.171600	-9.552100	27.097149	-0.000134	20.921951
2421.661776	-3.003600	3.171200	-9.522900	27.113625	-0.000134	20.909126
2422.664020	-2.998700	3.171700	-9.510100	27.089655	-0.000135	20.900192
2423.659660	-2.990200	3.170800	-9.480700	27.104095	-0.000131	20.911868
2424.668128	-2.972700	3.170900	-9.425000	27.108017	-0.000134	20.906331
2425.664742	-3.004400	3.170000	-9.522400	27.107272	-0.000134	20.908425
2426.665722	-3.020000	3.168200	-9.566900	27.124217	-0.000130	20.906502
2427.669476	-3.008600	3.167900	-9.530200	27.124167	-0.000133	20.910719
2428.665576	-3.002200	3.167100	-9.508200	27.136176	-0.000135	20.900038
2429.663941	-3.008700	3.166500	-9.526100	27.143074	-0.000133	20.884218
2430.667599	-3.000400	3.165600	-9.497300	27.129973	-0.000134	20.899015
2431.665847	-2.992200	3.166200	-9.472600	27.135827	-0.000133	20.901110
2432.664317	-3.013200	3.165200	-9.536600	27.134761	-0.000134	20.903356
2433.666119	-3.008000	3.165700	-9.520700	27.127443	-0.000135	20.888411
2434.665119	-2.989000	3.164300	-9.456300	27.141682	-0.000132	20.896093
2435.664836	-3.015800	3.161300	-9.532700	27.174880	-0.000133	20.895818
2436.666950	-2.981200	3.162600	-9.427500	27.154186	-0.000134	20.905824
2437.667578	-3.019800	3.162400	-9.549000	27.172525	-0.000133	20.914785
2438.667399	-2.987700	3.162900	-9.449000	27.182472	-0.000135	20.896815
2439.666998	-2.993300	3.161700	-9.462700	27.164311	-0.000134	20.902257
2440.668114	-3.002700	3.160900	-9.490000	27.173389	-0.000133	20.878672
2441.668166	-3.017500	3.159000	-9.531500	27.168403	-0.000135	20.912061
2442.669132	-2.991900	3.158700	-9.450000	27.176069	-0.000134	20.904600
2443.667041	-3.024700	3.157800	-9.549900	27.184281	-0.000132	20.892471
2444.667383	-2.992600	3.157600	-9.448800	27.168354	-0.000133	20.909167
2445.665260	-3.000000	3.157900	-9.473400	27.172021	-0.000134	20.878245
2446.668487	-2.987600	3.157700	-9.432900	27.174976	-0.000135	20.892595
2447.667485	-3.005300	3.155900	-9.483700	27.175647	-0.000135	20.893271
2448.666899	-2.986700	3.155300	-9.422900	27.192468	-0.000134	20.875103
2449.670147	-3.004000	3.156000	-9.480100	27.168252	-0.000134	20.882515
2450.670561	-2.999500	3.153900	-9.459100	27.174280	-0.000133	20.886680
2451.670335	-3.009200	3.153200	-9.487600	27.186811	-0.000135	20.879844
2452.672736	-3.031600	3.152100	-9.555200	27.206111	-0.000134	20.883135
2453.669835	-3.009800	3.152700	-9.487200	27.173013	-0.000134	20.875450
2454.671629	-3.020200	3.151200	-9.515000	27.175990	-0.000133	20.870858
2455.674728	-2.990900	3.150800	-9.423000	27.209386	-0.000134	20.871732
2456.670573	-2.995600	3.149300	-9.433000	27.211069	-0.000134	20.889070
2457.670963	-2.999700	3.149900	-9.447500	27.198717	-0.000134	20.877121
2458.673159	-2.993100	3.151100	-9.430200	27.204324	-0.000134	20.886553
2459.673005	-2.969900	3.149700	-9.353400	27.215959	-0.000135	20.867437
2460.677608	-2.995600	3.147500	-9.428300	27.220248	-0.000134	20.867958
2461.672181	-3.004000	3.146500	-9.451400	27.214989	-0.000134	20.879737
2462.681523	-3.011700	3.146800	-9.476100	27.214317	-0.000134	20.878113
2463.671776	-3.001400	3.145300	-9.438900	27.224589	-0.000134	20.861894
2464.673047	-3.018000	3.145300	-9.491900	27.230792	-0.000134	20.877614
2465.677231	-3.010500	3.143600	-9.462700	27.236670	-0.000136	20.864562
2466.677585	-3.001000	3.142100	-9.428400	27.224691	-0.000136	20.868159
2467.677018	-2.987000	3.143300	-9.388600	27.238605	-0.000134	20.871249
2468.677393	-3.014700	3.141900	-9.471100	27.231036	-0.000135	20.875489
2469.677335	-3.016100	3.140500	-9.471500	27.230192	-0.000133	20.877485
2470.674677	-2.994000	3.141000	-9.402900	27.244931	-0.000136	20.890887
2471.675240	-3.021500	3.140800	-9.489500	27.242201	-0.000135	20.859220
2472.679163	-3.005800	3.140900	-9.439300	27.222274	-0.000135	20.900339
2473.681240	-3.007300	3.139200	-9.439600	27.240661	-0.000133	20.874739
2474.678883	-2.991700	3.138100	-9.387300	27.238797	-0.000134	20.900838
2475.676713	-2.985200	3.137600	-9.365800	27.236068	-0.000135	20.859689
2476.677387	-2.994200	3.137400	-9.393300	27.235821	-0.000135	20.878406
2477.679670	-3.005500	3.135200	-9.421600	27.256387	-0.000135	20.864006
2478.679114	-2.986700	3.135800	-9.365000	27.250728	-0.000134	20.853098
2479.679147	-2.975200	3.134100	-9.323200	27.285040	-0.000135	20.906574
2480.676376	-2.992400	3.133800	-9.376800	27.270997	-0.000135	20.888183
2481.680099	-3.000700	3.133100	-9.400600	27.292009	-0.000133	20.875655
2482.678850	-3.011500	3.130300	-9.426700	27.293125	-0.000136	20.870139
2483.680174	-3.000800	3.132600	-9.399800	27.291809	-0.000137	20.891100
2484.676760	-3.028500	3.130100	-9.478800	27.284169	-0.000137	20.872984
2485.678030	-2.996800	3.131300	-9.383200	27.297885	-0.000135	20.858807
2486.685175	-3.002400	3.128000	-9.390100	27.299176	-0.000136	20.854416
2487.676927	-3.003800	3.129100	-9.398200	27.324257	-0.000135	20.862575
2488.681421	-2.991400	3.129700	-9.360700	27.314805	-0.000135	20.850223
2489.681447	-3.006000	3.125900	-9.395400	27.336983	-0.000136	20.875851
2490.680923	-3.011200	3.124900	-9.407600	27.313191	-0.000134	20.864720
2491.680425	-2.970300	3.126800	-9.286300	27.316764	-0.000134	20.857884
2492.679978	-3.011400	3.125100	-9.409700	27.325964	-0.000135	20.871879
2493.681614	-2.986400	3.124800	-9.331300	27.336581	-0.000136	20.853636
2494.686748	-2.978300	3.123500	-9.301400	27.339683	-0.000137	20.860075
2495.682964	-2.982200	3.124200	-9.315700	27.353996	-0.000136	20.849818
2496.678110	-3.011300	3.121600	-9.398900	27.335687	-0.000136	20.845151
2497.685268	-3.017100	3.120500	-9.413500	27.336035	-0.000135	20.846924
2498.681986	-3.008000	3.120700	-9.386500	27.370814	-0.000137	20.850615
2499.681300	-2.986800	3.119300	-9.315600	27.369350	-0.000137	20.850565
2500.680064	-3.011400	3.117100	-9.386200	27.361088	-0.000135	20.837513
2501.682665	-3.006700	3.116800	-9.370400	27.368109	-0.000136	20.845050
2502.685596	-3.005300	3.116300	-9.365000	27.380314	-0.000134	20.864439
2503.681555	-3.003200	3.115900	-9.356900	27.370164	-0.000134	20.841902
2504.681103	-2.992300	3.114600	-9.319000	27.369424	-0.000137	20.842580
2505.684940	-3.016100	3.112600	-9.386700	27.360765	-0.000137	20.849989
2506.681962	-3.013700	3.111900	-9.377800	27.386242	-0.000135	20.849066
2507.686901	-2.993800	3.112400	-9.317700	27.370512	-0.000137	20.843200
2508.689716	-2.992700	3.112200	-9.313300	27.403678	-0.000138	20.860443
2509.681281	-3.002300	3.111900	-9.341800	27.396808	-0.000138	20.865385
2510.686550	-2.998500	3.111600	-9.329200	27.412362	-0.000137	20.842627
2511.682656	-2.979700	3.108800	-9.262500	27.409956	-0.000136	20.841629
2512.680530	-2.974700	3.108300	-9.246100	27.412885	-0.000136	20.843153
2513.684550	-2.992800	3.109900	-9.306100	27.406407	-0.000136	20.839956
2514.682231	-3.004400	3.108300	-9.337600	27.393835	-0.000137	20.848644
2515.682644	-3.008700	3.108200	-9.351200	27.417820	-0.000134	20.850963
2516.684680	-2.997400	3.104900	-9.306200	27.394800	-0.000138	20.842028
2517.684211	-2.994700	3.105300	-9.298700	27.406805	-0.000136	20.852683
2518.690305	-2.983300	3.103700	-9.258700	27.405887	-0.000134	20.845121
2519.694882	-2.999100	3.102100	-9.303200	27.415066	-0.000135	20.838235
2520.687165	-3.004700	3.102600	-9.320400	27.434538	-0.000134	20.845496
2521.687234	-2.996900	3.100400	-9.290800	27.428685	-0.000137	20.843875
2522.689543	-3.004400	3.098200	-9.307800	27.425978	-0.000136	20.845419
2523.688341	-3.017100	3.097700	-9.345300	27.424221	-0.000137	20.842704
2524.690003	-3.016200	3.098000	-9.343500	27.425235	-0.000135	20.848939
2525.684729	-3.000400	3.095500	-9.287100	27.434089	-0.000137	20.842200
2526.687300	-2.993800	3.095500	-9.266300	27.449941	-0.000137	20.824483
2527.691226	-3.002600	3.094800	-9.291000	27.430269	-0.000136	20.845469
2528.685474	-3.014300	3.092400	-9.320500	27.437983	-0.000135	20.843746
2529.688331	-3.034200	3.092200	-9.381100	27.445302	-0.000136	20.859643
2530.685833	-3.010600	3.091500	-9.306800	27.462863	-0.000136	20.844121
2531.688869	-3.000500	3.089900	-9.270300	27.471916	-0.000136	20.841375
2532.691883	-3.004900	3.089700	-9.282900	27.479978	-0.000135	20.845692
2533.685406	-3.012400	3.089600	-9.305900	27.457876	-0.000137	20.841949
2534.688542	-2.996300	3.086900	-9.247900	27.468469	-0.000136	20.839330
2535.689227	-2.958600	3.087300	-9.133100	27.459934	-0.000134	20.845441
2536.691310	-2.964400	3.085900	-9.146900	27.462964	-0.000136	20.848016
2537.689713	-2.998800	3.084900	-9.249500	27.460109	-0.000132	20.836135
2538.686907	-3.012700	3.083200	-9.287300	27.465913	-0.000136	20.826801
2539.695339	-3.012100	3.081900	-9.281800	27.444803	-0.000136	20.826426
2540.690189	-2.992200	3.082100	-9.221300	27.476059	-0.000133	20.828000
2541.691844	-3.006400	3.081000	-9.262100	27.469705	-0.000135	20.838677
2542.692168	-3.003400	3.080000	-9.248200	27.495357	-0.000135	20.815648
2543.691999	-2.991700	3.077700	-9.206100	27.468442	-0.000136	20.834561
2544.692700	-3.013500	3.076900	-9.271000	27.504358	-0.000136	20.809531
2545.695294	-3.016900	3.074900	-9.275900	27.490691	-0.000137	20.831816
2546.691542	-3.003700	3.074400	-9.233600	27.487269	-0.000138	20.856346
2547.690706	-3.002100	3.073200	-9.225300	27.499147	-0.000135	20.853124
2548.691418	-2.994200	3.071700	-9.196500	27.495253	-0.000138	20.833087
2549.691535	-3.018100	3.071200	-9.267800	27.490168	-0.000137	20.828444
2550.691127	-3.025600	3.069400	-9.286200	27.498034	-0.000136	20.847264
2551.693857	-3.025500	3.069100	-9.284800	27.513535	-0.000135	20.816866
2552.689773	-3.014700	3.066600	-9.244200	27.515491	-0.000137	20.833533
2553.690789	-3.013600	3.067400	-9.243000	27.496769	-0.000137	20.842671
2554.692429	-3.004300	3.065500	-9.209000	27.494185	-0.000138	20.830115
2555.690009	-2.999400	3.064000	-9.189200	27.514971	-0.000137	20.834432
2556.697084	-3.002100	3.064000	-9.198000	27.521149	-0.000136	20.822631
2557.694728	-3.001600	3.061500	-9.187900	27.521642	-0.000135	20.838774
2558.694462	-2.998600	3.061500	-9.178600	27.535186	-0.000134	20.837227
2559.694548	-3.000500	3.059800	-9.180200	27.536627	-0.000135	20.818763
2560.690845	-3.000500	3.059200	-9.178300	27.547414	-0.000136	20.839099
2561.695150	-3.008400	3.057400	-9.197000	27.523626	-0.000136	20.830813
2562.701324	-2.968200	3.059000	-9.078000	27.551529	-0.000135	20.853670
2563.696863	-3.018200	3.056100	-9.221900	27.554855	-0.000135	20.827146
2564.695592	-2.998100	3.055200	-9.158600	27.572440	-0.000137	20.805958
2565.692998	-2.996800	3.053500	-9.149500	27.575462	-0.000134	20.833655
2566.696990	-3.009000	3.050600	-9.178300	27.576478	-0.000136	20.825195
2567.701713	-2.970500	3.051800	-9.064400	27.589202	-0.000135	20.840841
2568.696371	-3.007000	3.047800	-9.163600	27.609117	-0.000136	20.827690
2569.694484	-3.005200	3.046500	-9.154200	27.599621	-0.000135	20.830462
2570.693768	-2.999300	3.047200	-9.138400	27.597136	-0.000136	20.815635
2571.692969	-2.992500	3.045500	-9.112200	27.631684	-0.000138	20.825267
2572.700137	-2.995100	3.043900	-9.115500	27.600682	-0.000135	20.817780
2573.707985	-2.993600	3.042300	-9.107200	27.596939	-0.000135	20.847678
2574.697661	-2.994400	3.041600	-9.105600	27.604227	-0.000134	20.825140
2575.702098	-3.012700	3.039500	-9.155000	27.601920	-0.000135	20.836569
2576.700010	-2.987100	3.039800	-9.079700	27.616353	-0.000136	20.838289
2577.698266	-2.996200	3.037400	-9.100000	27.614616	-0.000135	20.825636
2578.703938	-3.004700	3.036100	-9.121600	27.610474	-0.000137	20.820520
2579.695632	-3.034000	3.033600	-9.202000	27.621534	-0.000133	20.838287
2580.699770	-2.996000	3.034100	-9.088900	27.632424	-0.000138	20.825537
2581.696853	-3.007600	3.032200	-9.118800	27.624731	-0.000135	20.817797
2582.697897	-2.991700	3.030800	-9.066100	27.647402	-0.000135	20.827332
2583.704046	-3.003400	3.030000	-9.099500	27.617315	-0.000134	20.811757
2584.702670	-2.983300	3.028800	-9.035300	27.616197	-0.000137	20.803046
2585.701546	-3.001200	3.026600	-9.081800	27.652657	-0.000136	20.810335
2586.702344	-2.982000	3.025700	-9.021600	27.654243	-0.000135	20.800077
2587.702823	-3.003000	3.026200	-9.086600	27.659448	-0.000135	20.826177
2588.700097	-2.999000	3.024000	-9.067400	27.650397	-0.000137	20.806638
2589.707247	-2.998900	3.023100	-9.064500	27.659744	-0.000136	20.812725
2590.700045	-2.997000	3.021100	-9.053400	27.663021	-0.000137	20.813177
2591.703861	-3.036800	3.018600	-9.165700	27.658133	-0.000135	20.811578
2592.704865	-3.001200	3.017100	-9.054000	27.667582	-0.000137	20.793585
2593.700306	-2.994200	3.018800	-9.038200	27.662051	-0.000135	20.823107
2594.708843	-2.972800	3.016500	-8.966000	27.658901	-0.000135	20.800496
2595.705431	-2.990100	3.015100	-9.014200	27.671127	-0.000138	20.820386
2596.702916	-2.985200	3.013400	-8.994900	27.667604	-0.000137	20.800246
2597.702758	-3.008500	3.010300	-9.055800	27.662049	-0.000138	20.837802
2598.705945	-2.975900	3.010400	-8.957600	27.644589	-0.000136	20.817389
2599.705302	-3.024200	3.007500	-9.094600	27.676379	-0.000138	20.810024
2600.710585	-3.008300	3.007800	-9.047900	27.657953	-0.000136	20.793379
2601.704082	-3.012900	3.004900	-9.052300	27.661449	-0.000136	20.799742
2602.702538	-2.994500	3.005600	-8.999000	27.682727	-0.000136	20.818308
2603.704326	-2.999000	3.002300	-9.002800	27.664030	-0.000134	20.816089
2604.701604	-3.022600	3.001700	-9.072000	27.678782	-0.000135	20.801536
2605.704283	-3.005100	3.000900	-9.017400	27.691403	-0.000135	20.817556
2606.705633	-3.013000	2.998200	-9.032600	27.687363	-0.000137	20.802110
2607.700978	-3.006900	2.997000	-9.011300	27.695373	-0.000135	20.791678
2608.701118	-3.021900	2.994900	-9.049300	27.701375	-0.000136	20.792503
2609.701520	-2.996600	2.995200	-8.974400	27.710522	-0.000137	20.786535
2610.707148	-3.001000	2.992300	-8.979600	27.685500	-0.000134	20.791227
2611.703268	-2.961500	2.993500	-8.864300	27.668290	-0.000136	20.792401
2612.705906	-3.006100	2.989900	-8.986700	27.703627	-0.000137	20.799985
2613.702898	-2.987500	2.989300	-8.929200	27.714514	-0.000136	20.801931
2614.707491	-3.022300	2.987900	-9.029800	27.696858	-0.000137	20.797440
2615.709877	-3.001300	2.985800	-8.960400	27.708759	-0.000137	20.805148
2616.704583	-2.995100	2.985800	-8.942100	27.716421	-0.000136	20.795315
2617.709734	-3.003000	2.981800	-8.953100	27.715424	-0.000135	20.802373
2618.708608	-2.982400	2.981900	-8.891800	27.739185	-0.000136	20.805421
2619.710029	-2.981000	2.981000	-8.885200	27.733877	-0.000136	20.796760
2620.711321	-2.999800	2.978000	-8.931300	27.716391	-0.000138	20.787699
2621.712680	-2.993400	2.976800	-8.909600	27.728667	-0.000136	20.781086
2622.713917	-3.020200	2.974600	-8.983700	27.738038	-0.000135	20.799525
2623.711195	-2.996700	2.975700	-8.916100	27.712545	-0.000136	20.792838
2624.707803	-2.998000	2.973700	-8.914200	27.743714	-0.000137	20.775840
2625.711996	-3.009800	2.972100	-8.944700	27.747980	-0.000136	20.770175
2626.714842	-2.992100	2.970000	-8.885500	27.737241	-0.000137	20.798724
2627.711238	-2.987400	2.969200	-8.869000	27.758395	-0.000138	20.790139
2628.713594	-3.015800	2.968200	-8.950600	27.723079	-0.000137	20.783997
2629.711784	-2.998000	2.966300	-8.892100	27.757872	-0.000136	20.801941
2630.710643	-2.992400	2.964700	-8.870500	27.759507	-0.000137	20.787466
2631.716947	-2.973000	2.964300	-8.811600	27.776592	-0.000137	20.790435
2632.714319	-3.003200	2.961500	-8.893500	27.771259	-0.000136	20.775584
2633.716444	-3.012500	2.958700	-8.912400	27.802380	-0.000135	20.783196
2634.714922	-2.982900	2.959300	-8.826200	27.772103	-0.000136	20.784494
2635.713555	-2.976400	2.957200	-8.800600	27.779811	-0.000135	20.782769
2636.720646	-3.030800	2.954100	-8.952400	27.786805	-0.000138	20.774633
2637.718844	-2.981700	2.954800	-8.809500	27.777083	-0.000137	20.794722
2638.721531	-2.986300	2.953600	-8.817900	27.811105	-0.000136	20.779648
2639.720129	-2.994300	2.952100	-8.839100	27.780132	-0.000137	20.793049
2640.716324	-2.960600	2.949800	-8.731600	27.788117	-0.000136	20.788756
2641.720329	-3.014800	2.946500	-8.882500	27.804531	-0.000137	20.795318
2642.722572	-3.004900	2.945400	-8.848500	27.810505	-0.000135	20.789951
2643.715469	-2.998500	2.944000	-8.827100	27.799869	-0.000135	20.767392
2644.718102	-2.992300	2.943800	-8.807800	27.816161	-0.000136	20.775728
2645.722133	-3.020100	2.941500	-8.882100	27.832673	-0.000138	20.753939
2646.722325	-2.997100	2.940400	-8.811500	27.825133	-0.000135	20.791870
2647.726811	-3.008800	2.937800	-8.838900	27.843359	-0.000138	20.776548
2648.726026	-2.996400	2.937300	-8.801100	27.824637	-0.000137	20.766240
2649.724271	-3.031100	2.934500	-8.892800	27.821810	-0.000135	20.754860
2650.727469	-2.998600	2.932900	-8.794100	27.838968	-0.000137	20.773077
2651.723277	-3.021100	2.931100	-8.854600	27.834975	-0.000138	20.765264
2652.727625	-3.020100	2.928700	-8.843900	27.845463	-0.000136	20.781984
2653.722977	-2.997800	2.928100	-8.776700	27.836114	-0.000134	20.752186
2654.724720	-2.985700	2.926200	-8.736100	27.846378	-0.000136	20.769629
2655.723131	-2.998900	2.924800	-8.770500	27.839583	-0.000135	20.767531
2656.724707	-2.975100	2.923400	-8.696900	27.844294	-0.000137	20.775592
2657.726639	-2.993400	2.922900	-8.748400	27.826813	-0.000135	20.756576
2658.732377	-3.002400	2.920300	-8.767500	27.831943	-0.000137	20.778335
2659.732321	-3.001600	2.919200	-8.761100	27.837720	-0.000137	20.775140
2660.735303	-2.992400	2.916600	-8.726300	27.862441	-0.000137	20.777734
2661.728407	-2.985600	2.914600	-8.701200	27.851232	-0.000135	20.765980
2662.729292	-3.003300	2.912200	-8.745600	27.873175	-0.000135	20.776210
2663.730195	-3.004800	2.910800	-8.745700	27.871140	-0.000137	20.761360
2664.731363	-3.017200	2.909500	-8.778000	27.863797	-0.000136	20.757288
2665.732775	-2.981800	2.907700	-8.668700	27.870891	-0.000137	20.770592
2666.729275	-3.052900	2.903600	-8.863500	27.896351	-0.000137	20.759232
2667.729528	-3.027300	2.903700	-8.788500	27.887701	-0.000138	20.762380
2668.732179	-3.022500	2.901900	-8.769600	27.880632	-0.000134	20.775180
2669.735131	-2.982100	2.900900	-8.649100	27.907630	-0.000136	20.763472
2670.734754	-2.978400	2.898000	-8.630100	27.892530	-0.000137	20.783362
2671.734632	-2.981500	2.897000	-8.636600	27.909488	-0.000137	20.751591
2672.735284	-2.987400	2.895600	-8.649100	27.904059	-0.000137	20.761774
2673.737915	-3.032800	2.892400	-8.771100	27.920496	-0.000136	20.755558
2674.731852	-3.007600	2.891100	-8.694400	27.916428	-0.000136	20.742455
2675.733050	-3.001800	2.889000	-8.670100	27.930832	-0.000137	20.763118
2676.736012	-3.017500	2.887100	-8.711000	27.929096	-0.000137	20.747619
2677.734222	-3.020600	2.884000	-8.709800	27.941889	-0.000134	20.753858
2678.740585	-2.975100	2.884000	-8.579400	27.941912	-0.000137	20.747716
2679.736878	-3.001300	2.881600	-8.647700	27.932488	-0.000137	20.769525
2680.739430	-3.001600	2.881300	-8.647700	27.949572	-0.000137	20.764910
2681.739926	-2.980000	2.878200	-8.576100	27.949942	-0.000138	20.776188
2682.739757	-2.997900	2.877200	-8.625000	27.945205	-0.000138	20.760988
2683.741978	-3.001700	2.873400	-8.624400	27.957006	-0.000137	20.769548
2684.743065	-2.993200	2.871300	-8.593400	27.972305	-0.000136	20.742746
2685.738512	-3.018200	2.868900	-8.658100	27.970098	-0.000135	20.783673
2686.741799	-3.017800	2.866700	-8.650200	27.952740	-0.000137	20.769046
2687.742779	-3.038500	2.864700	-8.703300	27.985095	-0.000138	20.745663
2688.739931	-3.014800	2.862300	-8.628200	27.975001	-0.000134	20.751624
2689.746280	-3.028700	2.861500	-8.666500	27.980604	-0.000138	20.769118
2690.747735	-3.008000	2.858100	-8.596700	27.996297	-0.000138	20.780647
2691.745668	-3.019100	2.857200	-8.625300	27.992107	-0.000136	20.755092
2692.750361	-3.027000	2.853800	-8.637300	28.001378	-0.000137	20.749251
2693.744801	-3.004200	2.853000	-8.569800	27.990270	-0.000137	20.758933
2694.742292	-2.992200	2.852600	-8.534900	28.014218	-0.000138	20.766917
2695.750229	-3.001800	2.847800	-8.547000	28.022891	-0.000138	20.767113
2696.744936	-2.960000	2.847700	-8.428000	28.002414	-0.000136	20.762622
2697.754748	-2.985700	2.845600	-8.494900	28.016050	-0.000137	20.760226
2698.745591	-2.979700	2.843100	-8.470200	28.030080	-0.000135	20.779091
2699.743027	-3.018300	2.840000	-8.571000	28.027797	-0.000136	20.765887
2700.750318	-2.985100	2.839000	-8.474100	28.021153	-0.000135	20.759199
2701.745759	-3.005000	2.836000	-8.521500	28.053381	-0.000135	20.779787
2702.743392	-3.006700	2.834600	-8.522500	28.045322	-0.000137	20.784476
2703.751371	-3.002800	2.831500	-8.501600	28.024024	-0.000136	20.759718
2704.744549	-3.007100	2.827700	-8.501100	28.029353	-0.000136	20.784049
2705.747874	-3.019400	2.826100	-8.532600	28.056252	-0.000135	20.783151
2706.746658	-2.993300	2.825300	-8.455800	28.037879	-0.000136	20.759914
2707.745116	-2.977300	2.822800	-8.402700	28.066859	-0.000136	20.772017
2708.743402	-3.018600	2.819600	-8.510200	28.071100	-0.000137	20.781502
2709.750525	-2.996400	2.818700	-8.444900	28.088551	-0.000138	20.784844
2710.743171	-2.996600	2.816300	-8.438400	28.066933	-0.000137	20.760711
2711.749841	-2.998800	2.812300	-8.431700	28.081981	-0.000137	20.766376
2712.744503	-3.011300	2.811800	-8.465600	28.101142	-0.000137	20.770967
2713.743961	-2.985800	2.808200	-8.383600	28.095288	-0.000136	20.770289
2714.743339	-3.009100	2.805600	-8.441700	28.099182	-0.000137	20.775157
2715.746793	-3.042100	2.801800	-8.522900	28.103915	-0.000136	20.763800
2716.749270	-2.994600	2.801500	-8.388800	28.099130	-0.000137	20.769415
2717.748627	-2.989800	2.797400	-8.362600	28.125581	-0.000136	20.760007
2718.751752	-2.983900	2.795500	-8.340200	28.114644	-0.000136	20.765593
2719.745141	-3.007900	2.792000	-8.397400	28.108324	-0.000136	20.766817
2720.743916	-3.018300	2.789700	-8.419100	28.122800	-0.000139	20.764793
2721.754299	-3.007900	2.788100	-8.385500	28.132839	-0.000134	20.794340
2722.746624	-3.005400	2.785600	-8.370600	28.152692	-0.000135	20.777343
2723.747327	-3.021000	2.781800	-8.403300	28.153612	-0.000135	20.751715
2724.750100	-3.015100	2.780100	-8.380800	28.171558	-0.000133	20.784482
2725.745928	-2.968000	2.777500	-8.242300	28.162533	-0.000139	20.770655
2726.748759	-3.007300	2.774300	-8.341800	28.175696	-0.000135	20.793864
2727.752448	-2.989700	2.772000	-8.286700	28.194856	-0.000138	20.745822
2728.747033	-3.004200	2.767900	-8.314800	28.200678	-0.000137	20.791988
2729.750280	-3.016900	2.765800	-8.343000	28.210073	-0.000135	20.779635
2730.749055	-2.977900	2.764300	-8.230200	28.211187	-0.000135	20.773644
2731.748051	-2.993100	2.760100	-8.260000	28.198496	-0.000135	20.793110
2732.745444	-3.020500	2.756600	-8.325300	28.213515	-0.000137	20.790687
2733.765063	-2.996900	2.754800	-8.255100	28.227866	-0.000136	20.798023
2734.749633	-2.997900	2.750800	-8.244900	28.250420	-0.000137	20.792755
2735.750919	-3.003600	2.748600	-8.254800	28.240678	-0.000137	20.796223
2736.747497	-3.001900	2.745300	-8.240300	28.245015	-0.000139	20.765976
2737.750353	-2.989500	2.740600	-8.192500	28.258623	-0.000137	20.784893
2738.754631	-2.975900	2.739500	-8.151100	28.252447	-0.000136	20.806650
2739.747211	-3.023900	2.734100	-8.266500	28.246625	-0.000137	20.780400
2740.750712	-2.997000	2.731900	-8.186600	28.279984	-0.000137	20.792175
2741.748094	-2.981800	2.729400	-8.137200	28.273393	-0.000137	20.795496
2742.751116	-2.986200	2.726300	-8.140400	28.281121	-0.000138	20.777672
2743.754070	-2.992300	2.723000	-8.147100	28.284195	-0.000136	20.782665
2744.757728	-2.984100	2.719300	-8.113700	28.288034	-0.000136	20.807867
2745.750251	-3.008200	2.715600	-8.168400	28.279634	-0.000135	20.794193
2746.755530	-2.998000	2.711500	-8.128100	28.266618	-0.000137	20.794839
2747.749873	-2.988300	2.707100	-8.088200	28.298516	-0.000138	20.787600
2748.752592	-3.012400	2.703200	-8.142200	28.312321	-0.000138	20.810509
2749.752093	-2.975900	2.698600	-8.028700	28.311527	-0.000134	20.792166
2750.754940	-2.981300	2.695000	-8.033600	28.307984	-0.000137	20.807564
2751.757700	-2.977100	2.692000	-8.013200	28.334752	-0.000137	20.791843
2752.751127	-3.030600	2.686400	-8.140500	28.337772	-0.000137	20.806738
2753.760221	-2.999600	2.682300	-8.044600	28.357452	-0.000137	20.795733
2754.757237	-3.013300	2.678000	-8.067300	28.350164	-0.000136	20.813051
2755.754811	-3.007200	2.674100	-8.041100	28.337649	-0.000137	20.777216
2756.751544	-2.997000	2.670100	-8.000000	28.365504	-0.000137	20.815695
2757.761642	-3.017200	2.665600	-8.042400	28.379779	-0.000137	20.789766
2758.755215	-3.010200	2.660600	-8.008300	28.403522	-0.000134	20.789492
2759.755793	-3.034100	2.656100	-8.058000	28.407511	-0.000136	20.805363
2760.755875	-2.987700	2.652800	-7.924800	28.392369	-0.000137	20.812875
2761.752022	-2.967300	2.648700	-7.857700	28.400175	-0.000137	20.802717
2762.754682	-3.008500	2.641800	-7.947100	28.412193	-0.000136	20.797275
2763.754970	-3.002700	2.638300	-7.920500	28.411500	-0.000138	20.807483
2764.754179	-2.992900	2.632300	-7.877800	28.415812	-0.000135	20.808032
2765.756452	-3.014200	2.626900	-7.917000	28.440246	-0.000136	20.806083
2766.755558	-3.013400	2.622400	-7.901100	28.418214	-0.000135	20.806183
2767.753396	-2.983600	2.619100	-7.813200	28.450977	-0.000136	20.796501
2768.755691	-3.025400	2.610300	-7.896300	28.455459	-0.000135	20.805282
2769.757728	-2.995500	2.608000	-7.811300	28.472957	-0.000134	20.785918
2770.760338	-2.961500	2.602200	-7.705200	28.493277	-0.000134	20.804485
2771.759659	-3.020600	2.595100	-7.836500	28.482445	-0.000135	20.808750
2772.754833	-2.978900	2.590700	-7.715500	28.491192	-0.000135	20.810446
2773.763449	-2.990100	2.585500	-7.730500	28.499272	-0.000137	20.809100
2774.754734	-2.990100	2.579000	-7.710700	28.507025	-0.000137	20.803631
2775.757782	-2.997600	2.573300	-7.712800	28.521076	-0.000137	20.810669
2776.755379	-2.987700	2.568500	-7.672700	28.550884	-0.000138	20.807971
2777.754616	-3.039100	2.561300	-7.781800	28.549150	-0.000137	20.823295
2778.753955	-3.015200	2.556200	-7.705500	28.552888	-0.000136	20.821843
2779.754341	-2.998400	2.549800	-7.643800	28.563297	-0.000134	20.814309
2780.755438	-3.023900	2.541200	-7.683900	28.577247	-0.000135	20.810814
2781.757929	-3.023600	2.536700	-7.668400	28.583963	-0.000135	20.822794
2782.758476	-3.003800	2.529900	-7.598200	28.574150	-0.000137	20.829506
2783.756427	-3.011900	2.523000	-7.598100	28.601578	-0.000137	20.812085
2784.757112	-3.007200	2.517100	-7.568400	28.600784	-0.000135	20.822191
2785.757864	-3.030600	2.510600	-7.607300	28.600809	-0.000135	20.821742
2786.759371	-3.033800	2.503500	-7.594300	28.609509	-0.000134	20.820073
2787.763951	-3.043100	2.495800	-7.594200	28.603089	-0.000134	20.827357
