LabVIEW Measurement	
Writer_Version	2
Reader_Version	2
Separator	Tab
Decimal_Separator	.
Multi_Headings	No
X_Columns	One
Time_Pref	Absolute
Operator	admin
Description	Clolumns are: time, Current, Voltage, Power, Battery Temp, and Chamber Temp
Date	2024/08/16
Time	13:59:35.9411449432373046875
***End_of_Header***	
	
Channels	6						
Samples	1	1	1	1	1	1	
Date	2024/08/27	2024/08/27	2024/08/27	2024/08/27	2024/08/27	2024/08/27	
Time	02:08:03.0841073989868164063	02:08:03.0891070365905761719	02:08:03.0952153205871582031	02:08:03.0661063194274902344	02:08:03.0661063194274902344	02:08:03.0661063194274902344	
X_Dimension	Time	Time	Time	Time	Time	Time	
X0	0.0000000000000000E+0	0.0000000000000000E+0	0.0000000000000000E+0	0.0000000000000000E+0	0.0000000000000000E+0	0.0000000000000000E+0	
Delta_X	1.000000	1.000000	1.000000	1.000000	1.000000	1.000000	
***End_of_Header***							
X_Value	Untitled	Untitled 1	Untitled 2	Untitled 3	Untitled 4	Untitled 5	Comment
0.000000	0.029473	4.020300	0.118520	20.937024	0.000319	20.845045
0.997581	-2.997000	3.895200	-11.673000	20.948031	0.000318	20.841355
1.999345	-2.985300	3.890400	-11.614000	20.946326	0.000316	20.823055
3.004066	-3.002400	3.885200	-11.664000	20.955873	0.000317	20.826440
4.003131	-3.005000	3.878500	-11.653000	20.952400	0.000316	20.829604
5.001926	-3.025100	3.874700	-11.721000	20.951735	0.000320	20.838421
5.998480	-2.976000	3.873600	-11.527000	20.961114	0.000318	20.828836
7.006988	-2.987700	3.869900	-11.561000	20.964227	0.000319	20.817725
7.998948	-2.993400	3.868200	-11.578000	20.949441	0.000318	20.833283
9.000385	-2.995500	3.863800	-11.574000	20.954311	0.000319	20.835308
9.999983	-2.982600	3.861500	-11.516000	20.957372	0.000320	20.840741
11.008929	-2.989500	3.859600	-11.537000	20.962690	0.000318	20.840369
12.007263	-3.001900	3.855800	-11.573000	20.968188	0.000318	20.824057
13.009580	-3.020900	3.854400	-11.643000	20.956707	0.000320	20.850032
14.007199	-3.005800	3.851700	-11.577000	20.967842	0.000320	20.832246
15.011769	-2.983700	3.851000	-11.489000	20.970507	0.000321	20.832540
16.006627	-3.021600	3.849600	-11.631000	20.968636	0.000320	20.834463
17.000579	-2.985800	3.849000	-11.491000	20.972366	0.000321	20.834874
18.002860	-2.985200	3.846200	-11.480000	20.969341	0.000319	20.819995
19.016953	-3.004200	3.844300	-11.549000	20.989495	0.000322	20.826876
20.003972	-2.985100	3.843100	-11.471000	21.004154	0.000322	20.856235
21.002500	-3.002200	3.841900	-11.533000	21.014981	0.000323	20.830081
22.015271	-2.979800	3.840600	-11.444000	21.011637	0.000322	20.828159
23.009165	-2.974300	3.840800	-11.422000	20.995621	0.000323	20.828736
24.015990	-3.000400	3.838500	-11.516000	20.987036	0.000322	20.825839
25.012173	-3.003600	3.835900	-11.521000	20.992085	0.000322	20.809078
26.011874	-3.000000	3.835300	-11.505000	21.020438	0.000323	20.819893
27.004981	-2.991100	3.833700	-11.466000	21.031316	0.000325	20.820341
28.005020	-3.006800	3.832200	-11.521000	21.017274	0.000324	20.817202
29.013349	-2.982400	3.832300	-11.428000	21.012585	0.000324	20.818202
30.007541	-3.031300	3.830600	-11.610000	21.036825	0.000325	20.821584
31.006553	-2.997200	3.829100	-11.476000	21.044270	0.000324	20.815754
32.018102	-3.001300	3.829000	-11.491000	21.023014	0.000324	20.833374
33.007727	-3.010400	3.827900	-11.522000	21.053340	0.000326	20.812498
34.007442	-3.004500	3.826700	-11.496000	21.057774	0.000326	20.804606
35.019156	-3.009400	3.825600	-11.511000	21.060759	0.000327	20.806168
36.016420	-2.994100	3.825400	-11.453000	21.062335	0.000327	20.791624
37.007897	-2.988200	3.823500	-11.424000	21.062143	0.000327	20.805182
38.020712	-2.997300	3.823500	-11.458000	21.056121	0.000328	20.812435
39.012078	-2.982600	3.822900	-11.401000	21.068280	0.000327	20.821278
40.006667	-3.001300	3.821300	-11.468000	21.060156	0.000326	20.814574
41.007199	-3.011100	3.820400	-11.502000	21.072315	0.000328	20.813460
42.012663	-3.017500	3.820000	-11.525000	21.105409	0.000329	20.807682
43.008418	-2.996800	3.819300	-11.445000	21.094738	0.000327	20.809810
44.011535	-2.976100	3.818700	-11.364000	21.087947	0.000329	20.818190
45.014919	-2.992900	3.818400	-11.427000	21.118348	0.000329	20.809718
46.014403	-2.999100	3.817900	-11.449000	21.115364	0.000329	20.798673
47.013034	-3.010900	3.816400	-11.489000	21.115172	0.000332	20.806542
48.019805	-3.000100	3.815500	-11.446000	21.102873	0.000331	20.818421
49.011292	-3.004800	3.815000	-11.463000	21.112622	0.000331	20.803517
50.016014	-2.982300	3.815500	-11.377000	21.113328	0.000332	20.796636
51.008517	-3.001200	3.814800	-11.448000	21.131558	0.000332	20.812974
52.008923	-3.005900	3.813500	-11.462000	21.143882	0.000334	20.810604
53.016019	-3.008200	3.811300	-11.465000	21.129482	0.000333	20.819433
54.027357	-3.016700	3.811400	-11.496000	21.127560	0.000333	20.816088
55.014678	-3.011400	3.811200	-11.476000	21.124370	0.000333	20.795828
56.014462	-2.992600	3.811200	-11.405000	21.143793	0.000333	20.788704
57.013800	-3.023700	3.808900	-11.516000	21.158730	0.000334	20.808387
58.012771	-3.027200	3.809800	-11.532000	21.163624	0.000334	20.800481
59.017653	-3.016200	3.810300	-11.491000	21.160281	0.000335	20.796662
60.024824	-2.989500	3.808200	-11.384000	21.168210	0.000335	20.803171
61.019906	-3.007800	3.808900	-11.454000	21.176871	0.000335	20.804722
62.022334	-3.003100	3.808600	-11.437000	21.187696	0.000336	20.802275
63.018890	-3.009900	3.807200	-11.458000	21.175166	0.000337	20.808233
64.022769	-2.991700	3.805500	-11.384000	21.189989	0.000338	20.805042
65.020744	-3.023100	3.805100	-11.502000	21.178484	0.000336	20.784051
66.018453	-3.022200	3.804800	-11.498000	21.175257	0.000337	20.789358
67.019180	-3.020900	3.804200	-11.491000	21.197804	0.000339	20.822343
68.023972	-2.997300	3.803500	-11.398000	21.210998	0.000338	20.792394
69.023563	-2.990500	3.805100	-11.378000	21.218262	0.000340	20.791600
70.019121	-2.966800	3.804200	-11.286000	21.207809	0.000340	20.803428
71.021075	-3.015200	3.801600	-11.462000	21.223207	0.000338	20.804134
72.024126	-2.992700	3.801900	-11.377000	21.228907	0.000342	20.785179
73.017657	-2.988500	3.801700	-11.360000	21.213842	0.000341	20.809938
74.028944	-3.018800	3.800800	-11.473000	21.234134	0.000342	20.807004
75.019247	-3.002600	3.799500	-11.408000	21.222682	0.000342	20.816410
76.026987	-3.008300	3.799000	-11.428000	21.239540	0.000342	20.793920
77.019094	-3.009800	3.799800	-11.436000	21.242806	0.000342	20.778221
78.028734	-3.001300	3.798600	-11.400000	21.245895	0.000343	20.796010
79.031128	-3.002100	3.797000	-11.397000	21.254067	0.000342	20.791857
80.024841	-3.007600	3.797200	-11.420000	21.252876	0.000342	20.802046
81.019034	-2.992500	3.797400	-11.363000	21.265993	0.000342	20.805685
82.022224	-2.995600	3.797800	-11.375000	21.288232	0.000344	20.808018
83.026758	-3.004500	3.794800	-11.401000	21.273731	0.000343	20.807261
84.023488	-3.024400	3.794500	-11.474000	21.287015	0.000343	20.801586
85.021274	-2.991600	3.794700	-11.352000	21.293125	0.000345	20.798689
86.037766	-3.015400	3.793500	-11.438000	21.281431	0.000345	20.802163
87.022478	-3.023400	3.793200	-11.467000	21.278382	0.000344	20.817130
88.021503	-3.012000	3.793600	-11.425000	21.300837	0.000347	20.797870
89.024324	-3.020000	3.792600	-11.453000	21.298610	0.000345	20.791848
90.025980	-3.013300	3.792200	-11.427000	21.315863	0.000347	20.800574
91.019474	-2.997700	3.793000	-11.368000	21.316491	0.000345	20.811634
92.025972	-2.994800	3.792800	-11.358000	21.310484	0.000346	20.803253
93.042456	-2.995800	3.790800	-11.356000	21.314136	0.000346	20.791260
94.030567	-2.983600	3.791600	-11.312000	21.323703	0.000347	20.806995
95.027189	-2.998000	3.789800	-11.362000	21.336271	0.000348	20.805818
96.026240	-2.995000	3.789200	-11.348000	21.332862	0.000345	20.800511
97.041366	-3.010200	3.788900	-11.404000	21.349629	0.000348	20.809226
98.031131	-2.986500	3.788400	-11.313000	21.358737	0.000349	20.802691
99.029216	-3.014000	3.786800	-11.412000	21.347722	0.000349	20.827706
100.028527	-3.004800	3.788000	-11.382000	21.333478	0.000348	20.803025
101.035493	-3.019900	3.787500	-11.437000	21.361018	0.000349	20.823939
102.037178	-3.005300	3.785800	-11.376000	21.366245	0.000350	20.800719
103.029000	-2.975100	3.786700	-11.264000	21.384471	0.000349	20.809471
104.042582	-3.002400	3.786100	-11.367000	21.363170	0.000349	20.811868
105.028964	-2.978600	3.785700	-11.275000	21.399073	0.000350	20.819814
106.027112	-3.013700	3.784000	-11.403000	21.392413	0.000349	20.810305
107.025546	-2.998800	3.783300	-11.345000	21.404595	0.000351	20.805898
108.026496	-3.016400	3.784200	-11.413000	21.397383	0.000351	20.811485
109.026696	-2.980500	3.782000	-11.271000	21.394194	0.000350	20.822519
110.038187	-2.998600	3.782300	-11.341000	21.427136	0.000349	20.817546
111.029560	-2.980400	3.782900	-11.273000	21.417775	0.000350	20.811025
112.028177	-2.981400	3.781900	-11.273000	21.407118	0.000351	20.810793
113.032706	-2.985000	3.781300	-11.286000	21.438806	0.000350	20.812627
114.039134	-2.992600	3.780300	-11.311000	21.430713	0.000351	20.814960
115.034541	-3.012000	3.780100	-11.385000	21.424846	0.000350	20.814306
116.047493	-2.993700	3.781200	-11.319000	21.435158	0.000352	20.817037
117.044797	-3.003400	3.779100	-11.349000	21.445147	0.000352	20.802850
118.030258	-3.015900	3.779200	-11.397000	21.445786	0.000354	20.822456
119.037895	-3.019900	3.777900	-11.407000	21.466100	0.000351	20.830927
120.038952	-2.992200	3.779000	-11.306000	21.468510	0.000353	20.833812
121.030044	-2.978300	3.777400	-11.249000	21.462309	0.000354	20.825237
122.035849	-3.040100	3.776100	-11.478000	21.480907	0.000355	20.837682
123.031360	-3.005500	3.777400	-11.352000	21.484801	0.000355	20.830673
124.032825	-2.993200	3.775800	-11.301000	21.482046	0.000353	20.803735
125.044547	-3.010100	3.774900	-11.362000	21.473965	0.000354	20.828365
126.036391	-3.018300	3.774600	-11.392000	21.503051	0.000354	20.816691
127.042198	-2.998800	3.775700	-11.322000	21.503385	0.000354	20.814655
128.036014	-2.990700	3.774200	-11.287000	21.510621	0.000354	20.819050
129.035161	-3.014000	3.773400	-11.373000	21.500644	0.000353	20.841309
130.043606	-3.016500	3.773300	-11.381000	21.516935	0.000354	20.822049
131.038095	-3.002600	3.772100	-11.326000	21.520469	0.000355	20.824637
132.033291	-3.009300	3.772200	-11.350000	21.536517	0.000355	20.832635
133.033985	-2.998800	3.772300	-11.312000	21.524940	0.000352	20.822946
134.033992	-2.978000	3.773000	-11.235000	21.539398	0.000353	20.819396
135.039776	-3.020900	3.770500	-11.388000	21.541590	0.000354	20.821589
136.037792	-3.010500	3.770100	-11.347000	21.539335	0.000356	20.855842
137.037744	-2.992100	3.769400	-11.278000	21.550593	0.000357	20.829176
138.036568	-2.994700	3.769500	-11.288000	21.560198	0.000357	20.812235
139.041002	-3.001400	3.770600	-11.316000	21.570431	0.000358	20.841440
140.060339	-3.006800	3.769300	-11.332000	21.549057	0.000357	20.837596
141.043788	-3.016600	3.768000	-11.366000	21.571890	0.000357	20.836736
142.040308	-2.995800	3.768100	-11.287000	21.566974	0.000356	20.855998
143.041138	-2.994800	3.767500	-11.283000	21.586310	0.000354	20.832200
144.045271	-3.010200	3.766900	-11.338000	21.579999	0.000357	20.833471
145.042122	-2.974900	3.767900	-11.208000	21.580153	0.000357	20.839315
146.043783	-2.986300	3.766000	-11.245000	21.580396	0.000357	20.854730
147.045079	-2.997700	3.765800	-11.287000	21.601692	0.000358	20.832894
148.042773	-3.003100	3.765400	-11.307000	21.623719	0.000356	20.841660
149.049023	-2.991100	3.764200	-11.258000	21.605380	0.000357	20.837533
150.041609	-3.000100	3.764600	-11.293000	21.629879	0.000357	20.852091
151.046109	-2.982800	3.764800	-11.228000	21.626856	0.000357	20.850015
152.050540	-2.975000	3.764300	-11.198000	21.644772	0.000356	20.831909
153.045830	-2.993300	3.764300	-11.266000	21.634334	0.000358	20.838058
154.045325	-3.001300	3.763000	-11.293000	21.634925	0.000358	20.869468
155.045992	-3.009200	3.762200	-11.320000	21.625295	0.000357	20.859831
156.047673	-3.003900	3.762100	-11.300000	21.649100	0.000355	20.845722
157.044532	-3.002500	3.760900	-11.292000	21.692780	0.000356	20.860037
158.048316	-3.015200	3.760100	-11.336000	21.645783	0.000356	20.840980
159.043714	-3.011300	3.760300	-11.323000	21.655016	0.000356	20.846901
160.045010	-2.999200	3.760500	-11.278000	21.672393	0.000359	20.855756
161.044881	-3.017700	3.759900	-11.345000	21.685199	0.000358	20.856718
162.047567	-2.997500	3.760000	-11.269000	21.683099	0.000356	20.866469
163.047678	-3.012300	3.757700	-11.318000	21.679077	0.000357	20.857703
164.045709	-3.000800	3.758900	-11.279000	21.688990	0.000358	20.850080
165.046479	-3.027600	3.758000	-11.376000	21.712742	0.000357	20.857729
166.050135	-2.999000	3.757700	-11.269000	21.693982	0.000358	20.863136
167.047283	-2.997100	3.758000	-11.263000	21.709925	0.000356	20.857755
168.051384	-2.997700	3.756000	-11.259000	21.706942	0.000358	20.850503
169.059771	-3.010300	3.756700	-11.308000	21.702998	0.000359	20.860305
170.057162	-2.997600	3.755700	-11.256000	21.734664	0.000358	20.864495
171.048983	-3.009700	3.755200	-11.301000	21.733305	0.000356	20.867403
172.049897	-3.007100	3.755000	-11.291000	21.730502	0.000359	20.871236
173.051610	-3.001400	3.756000	-11.272000	21.756868	0.000356	20.861588
174.053719	-2.990000	3.755300	-11.227000	21.742167	0.000358	20.866315
175.057251	-2.994200	3.755100	-11.242000	21.746148	0.000358	20.859869
176.061049	-3.005200	3.753100	-11.277000	21.755778	0.000357	20.871876
177.053843	-3.013600	3.752900	-11.309000	21.766508	0.000358	20.844211
178.054502	-2.986600	3.752700	-11.207000	21.758223	0.000356	20.874798
179.053978	-3.000400	3.752400	-11.257000	21.758965	0.000358	20.884549
180.055274	-3.033200	3.751400	-11.379000	21.792039	0.000358	20.871185
181.053450	-3.002000	3.753000	-11.265000	21.795010	0.000358	20.863253
182.056018	-2.991400	3.751300	-11.220000	21.817904	0.000356	20.868148
183.054118	-2.994400	3.751100	-11.232000	21.799365	0.000358	20.875671
184.055906	-2.989300	3.750700	-11.211000	21.801466	0.000357	20.865446
185.064892	-3.002300	3.750700	-11.259000	21.786523	0.000357	20.880835
186.055034	-2.994100	3.750500	-11.228000	21.806842	0.000356	20.879836
187.057534	-3.004500	3.748500	-11.261000	21.814922	0.000357	20.885077
188.055009	-3.000800	3.749400	-11.250000	21.828571	0.000358	20.897789
189.061450	-2.996700	3.748700	-11.233000	21.842361	0.000357	20.879350
190.055902	-3.015500	3.748500	-11.303000	21.833169	0.000356	20.866831
191.055337	-2.999300	3.748600	-11.242000	21.824564	0.000360	20.880504
192.055462	-2.981900	3.749400	-11.179000	21.856113	0.000357	20.895010
193.060065	-2.968100	3.749400	-11.128000	21.831645	0.000356	20.858669
194.056832	-3.021100	3.746600	-11.316000	21.852003	0.000356	20.881889
195.056796	-3.009800	3.746900	-11.276000	21.855294	0.000355	20.881389
196.059443	-3.001900	3.747300	-11.248000	21.861760	0.000357	20.870793
197.057426	-2.994500	3.747700	-11.221000	21.874716	0.000357	20.897983
198.057695	-2.990000	3.746000	-11.199000	21.892486	0.000357	20.885899
199.057106	-3.003300	3.744300	-11.244000	21.881719	0.000356	20.867537
200.058599	-3.007300	3.745300	-11.263000	21.882361	0.000358	20.882403
201.060054	-2.991100	3.745400	-11.201000	21.900079	0.000357	20.887810
202.059576	-2.986800	3.745300	-11.186000	21.902742	0.000359	20.891897
203.057947	-2.999800	3.744700	-11.232000	21.914712	0.000356	20.893448
204.058045	-2.998800	3.744600	-11.227000	21.908389	0.000358	20.896127
205.060090	-3.008200	3.743300	-11.259000	21.919053	0.000356	20.889732
206.059617	-2.999100	3.742800	-11.224000	21.926914	0.000357	20.871050
207.062602	-3.024800	3.741700	-11.317000	21.931331	0.000357	20.883531
208.061572	-3.008400	3.741700	-11.256000	21.927670	0.000356	20.888401
209.061229	-2.982000	3.742500	-11.159000	21.946655	0.000356	20.880852
210.059094	-3.004900	3.740900	-11.240000	21.944888	0.000355	20.886670
211.059746	-2.977900	3.742900	-11.145000	21.935657	0.000358	20.882172
212.073410	-2.997000	3.740800	-11.211000	21.967753	0.000356	20.899600
213.060208	-2.999600	3.740600	-11.219000	21.961302	0.000357	20.908788
214.060325	-2.983200	3.740400	-11.158000	21.972567	0.000357	20.918167
215.064000	-3.010500	3.738400	-11.254000	21.972387	0.000355	20.889066
216.058982	-2.995400	3.740000	-11.201000	21.982348	0.000356	20.898089
217.062991	-2.979900	3.740200	-11.145000	21.974961	0.000356	20.899702
218.061830	-3.044600	3.736900	-11.376000	21.985139	0.000355	20.892348
219.064324	-3.003400	3.738800	-11.228000	22.003560	0.000355	20.879021
220.061956	-3.012800	3.737200	-11.258000	21.993588	0.000355	20.906020
221.066538	-3.012200	3.737600	-11.258000	22.028804	0.000355	20.918038
222.062244	-3.014700	3.737700	-11.267000	22.006542	0.000355	20.923254
223.062938	-2.987700	3.737300	-11.165000	22.005213	0.000355	20.902010
224.062856	-3.002000	3.736900	-11.218000	22.031980	0.000355	20.887555
225.065973	-3.000000	3.737000	-11.211000	22.010742	0.000353	20.911812
226.064078	-3.017900	3.736800	-11.277000	22.029509	0.000354	20.923011
227.065940	-3.003900	3.735800	-11.221000	22.048865	0.000354	20.916310
228.068746	-3.000900	3.736600	-11.212000	22.040750	0.000353	20.923833
229.064795	-3.015500	3.734100	-11.259000	22.045909	0.000353	20.910033
230.067556	-2.988400	3.736400	-11.165000	22.035797	0.000353	20.911289
231.067472	-3.014300	3.733900	-11.254000	22.046383	0.000352	20.917618
232.065830	-2.945000	3.736800	-11.003000	22.060874	0.000352	20.915531
233.076640	-3.007000	3.734100	-11.228000	22.058403	0.000355	20.941029
234.070885	-3.011400	3.733500	-11.242000	22.079691	0.000353	20.915876
235.067637	-3.002200	3.733500	-11.206000	22.074595	0.000352	20.904612
236.071096	-2.984800	3.732500	-11.140000	22.074404	0.000354	20.946615
237.066980	-3.001300	3.731900	-11.199000	22.081919	0.000352	20.938019
238.066262	-2.986500	3.733000	-11.147000	22.092442	0.000354	20.925321
239.076914	-2.989600	3.732500	-11.157000	22.102975	0.000351	20.922591
240.076141	-3.012600	3.731800	-11.242000	22.072972	0.000354	20.939493
241.069120	-2.998100	3.729800	-11.181000	22.120102	0.000352	20.920771
242.069726	-3.005400	3.731000	-11.212000	22.105178	0.000354	20.928114
243.069984	-2.993500	3.730200	-11.165000	22.125800	0.000353	20.921260
244.080230	-2.999100	3.729100	-11.182000	22.113218	0.000353	20.940429
245.070106	-2.982700	3.729600	-11.123000	22.111272	0.000351	20.929000
246.071297	-2.990600	3.729700	-11.153000	22.119786	0.000351	20.952693
247.077617	-3.022500	3.728500	-11.268000	22.155919	0.000352	20.931973
248.071777	-3.005600	3.728900	-11.207000	22.155394	0.000350	20.944248
249.073012	-2.999200	3.729600	-11.185000	22.128142	0.000351	20.930716
250.075649	-2.998600	3.728200	-11.178000	22.144285	0.000351	20.937393
251.074360	-3.013900	3.727400	-11.233000	22.143249	0.000351	20.937305
252.073424	-2.998500	3.727700	-11.176000	22.162153	0.000353	20.948169
253.076657	-3.002000	3.726800	-11.187000	22.191977	0.000351	20.932512
254.081996	-2.968800	3.727900	-11.067000	22.177436	0.000350	20.940238
255.078382	-2.977200	3.726700	-11.094000	22.179370	0.000350	20.929374
256.075816	-2.985200	3.726600	-11.123000	22.172714	0.000350	20.958742
257.076263	-2.983200	3.725800	-11.114000	22.181827	0.000350	20.940840
258.078457	-2.989600	3.726100	-11.139000	22.194128	0.000349	20.942251
259.079233	-2.989600	3.724600	-11.135000	22.195204	0.000349	20.944750
260.078556	-2.977200	3.725600	-11.091000	22.208116	0.000351	20.947721
261.077704	-3.006600	3.723500	-11.194000	22.229888	0.000350	20.956243
262.081760	-3.021500	3.723200	-11.249000	22.222990	0.000351	20.934166
263.078102	-3.001100	3.723300	-11.173000	22.237300	0.000350	20.963662
264.078273	-2.994300	3.724000	-11.150000	22.236441	0.000351	20.966595
265.080380	-2.998400	3.723500	-11.163000	22.222057	0.000349	20.973055
266.079189	-3.001700	3.723300	-11.174000	22.234319	0.000348	20.942188
267.078424	-2.994600	3.722300	-11.146000	22.243174	0.000349	20.973335
268.078345	-2.986500	3.722000	-11.115000	22.250919	0.000349	20.966867
269.078597	-3.003400	3.722500	-11.179000	22.267019	0.000348	20.954066
270.079939	-3.001200	3.722800	-11.172000	22.252659	0.000349	20.964342
271.085856	-3.027700	3.720700	-11.263000	22.267659	0.000346	20.949491
272.077734	-2.996700	3.722400	-11.154000	22.277309	0.000347	20.951567
273.079176	-3.012900	3.720900	-11.209000	22.259123	0.000350	20.965599
274.088431	-3.007200	3.721300	-11.190000	22.286332	0.000348	20.958704
275.079105	-2.983800	3.720500	-11.099000	22.269655	0.000347	20.974246
276.079802	-3.008300	3.719900	-11.190000	22.304238	0.000347	20.978527
277.082334	-3.008100	3.718900	-11.187000	22.288905	0.000348	20.982140
278.083259	-2.997400	3.719900	-11.149000	22.312006	0.000346	20.952170
279.079091	-3.017900	3.719700	-11.224000	22.296328	0.000346	20.980090
280.078605	-3.020600	3.718400	-11.230000	22.295532	0.000348	20.969811
281.078969	-3.019000	3.718100	-11.224000	22.315794	0.000346	20.986304
282.081002	-3.004700	3.718900	-11.173000	22.340058	0.000345	20.969351
283.081895	-3.014300	3.717500	-11.204000	22.304492	0.000344	20.960766
284.084001	-3.009500	3.717000	-11.185000	22.321308	0.000344	20.971913
285.080529	-2.999500	3.717200	-11.148000	22.336780	0.000343	20.956114
286.078877	-3.011200	3.715800	-11.189000	22.318096	0.000344	20.989557
287.081558	-3.017500	3.717700	-11.217000	22.351639	0.000346	20.986635
288.081593	-3.011200	3.714800	-11.185000	22.324674	0.000345	20.971491
289.082227	-3.000100	3.715000	-11.144000	22.350064	0.000344	20.995489
290.081878	-2.991900	3.716100	-11.117000	22.353738	0.000343	20.987789
291.085173	-2.984300	3.716700	-11.091000	22.357358	0.000344	20.986198
292.081992	-2.977400	3.716300	-11.064000	22.365191	0.000344	20.991670
293.084835	-3.006000	3.713800	-11.162000	22.377873	0.000343	20.976397
294.086130	-2.991200	3.714900	-11.111000	22.384014	0.000343	20.992501
295.084133	-2.981400	3.716100	-11.076000	22.354414	0.000344	20.985148
296.085342	-3.023400	3.713600	-11.227000	22.392794	0.000343	20.984699
297.085582	-3.019700	3.713000	-11.211000	22.385038	0.000345	21.004904
298.091004	-2.999400	3.712200	-11.134000	22.383900	0.000344	20.998550
299.085998	-3.027900	3.713000	-11.241000	22.417261	0.000342	20.994501
300.084868	-3.008000	3.714200	-11.171000	22.406679	0.000343	20.991964
301.088126	-3.000900	3.712600	-11.139000	22.420998	0.000342	20.987812
302.085424	-3.014100	3.711200	-11.185000	22.426280	0.000344	20.973190
303.088327	-3.015800	3.710900	-11.190000	22.400689	0.000342	20.985019
304.088872	-3.005800	3.712100	-11.157000	22.418182	0.000342	20.994475
305.086944	-2.991400	3.710500	-11.099000	22.394713	0.000340	20.987569
306.092234	-2.981000	3.711600	-11.064000	22.445119	0.000339	20.967875
307.087374	-2.993000	3.710300	-11.104000	22.451517	0.000340	20.983288
308.090593	-2.986300	3.710500	-11.080000	22.455088	0.000339	20.956523
309.091706	-3.020200	3.710200	-11.205000	22.450698	0.000340	20.981047
310.088453	-2.994500	3.709700	-11.108000	22.450481	0.000341	20.963762
311.096122	-3.018700	3.708600	-11.193000	22.447116	0.000340	20.955178
312.088941	-3.009700	3.707900	-11.158000	22.447461	0.000339	20.963583
313.088717	-3.015800	3.709300	-11.186000	22.469049	0.000340	20.963865
314.092171	-3.002400	3.709300	-11.135000	22.454346	0.000338	20.962891
315.091274	-2.979400	3.710000	-11.053000	22.464443	0.000341	20.963046
316.091809	-3.001800	3.707800	-11.129000	22.473094	0.000339	20.957485
317.092673	-2.997500	3.707900	-11.114000	22.478210	0.000338	20.953127
318.093216	-3.003500	3.708000	-11.136000	22.467170	0.000339	20.950605
319.093689	-3.020300	3.707500	-11.197000	22.475857	0.000338	20.964993
320.092122	-2.995900	3.706900	-11.105000	22.479671	0.000339	20.938944
321.091624	-3.007300	3.706900	-11.147000	22.505365	0.000338	20.962303
322.092495	-2.978100	3.706900	-11.039000	22.513363	0.000339	20.939021
323.092829	-2.978100	3.707900	-11.041000	22.490534	0.000338	20.946978
324.101352	-2.984600	3.707100	-11.062000	22.522971	0.000337	20.939635
325.095650	-3.000700	3.705500	-11.117000	22.495423	0.000336	20.941917
326.093374	-2.989400	3.705900	-11.077000	22.520362	0.000337	20.943185
327.093882	-2.990200	3.705000	-11.077000	22.515025	0.000338	20.943057
328.094757	-3.004600	3.704700	-11.131000	22.522024	0.000336	20.957651
329.096117	-3.024900	3.703000	-11.199000	22.525915	0.000336	20.943057
330.107156	-3.008000	3.703000	-11.138000	22.530726	0.000336	20.932230
331.098803	-2.997200	3.703700	-11.099000	22.533541	0.000334	20.942160
332.098125	-3.020500	3.702400	-11.181000	22.534308	0.000334	20.931076
333.104529	-3.001600	3.702600	-11.113000	22.540910	0.000335	20.938162
334.097139	-2.983000	3.703000	-11.044000	22.549395	0.000334	20.938124
335.108393	-2.998500	3.704100	-11.106000	22.570443	0.000334	20.952564
336.105385	-2.982300	3.703600	-11.044000	22.556636	0.000332	20.917404
337.095512	-2.983900	3.701600	-11.044000	22.562805	0.000332	20.940175
338.097725	-3.012600	3.701500	-11.150000	22.564787	0.000332	20.920825
339.096689	-3.013100	3.701700	-11.153000	22.572644	0.000332	20.923953
340.096365	-2.994100	3.702400	-11.085000	22.570072	0.000331	20.921851
341.097778	-3.019400	3.700100	-11.172000	22.566923	0.000332	20.923439
342.098692	-2.997900	3.702200	-11.097000	22.575048	0.000332	20.936791
343.097411	-3.015200	3.700600	-11.156000	22.596147	0.000330	20.930422
344.099435	-2.956500	3.701100	-10.941000	22.592781	0.000332	20.924207
345.102959	-2.976200	3.699700	-11.010000	22.600088	0.000334	20.925361
346.098950	-3.000100	3.700200	-11.100000	22.589493	0.000330	20.911432
347.101182	-2.984700	3.699100	-11.039000	22.621802	0.000329	20.913445
348.098841	-2.993200	3.698600	-11.070000	22.604528	0.000330	20.911792
349.099661	-3.012000	3.699700	-11.141000	22.630910	0.000330	20.906922
350.099685	-2.992500	3.698800	-11.066000	22.606947	0.000329	20.944556
351.099704	-2.995300	3.698800	-11.078000	22.625332	0.000330	20.934523
352.106976	-3.006600	3.699200	-11.121000	22.607508	0.000330	20.933266
353.100628	-3.020300	3.697200	-11.166000	22.634800	0.000329	20.923619
354.099405	-2.994700	3.698400	-11.075000	22.643974	0.000327	20.922850
355.102660	-2.998400	3.696600	-11.084000	22.646686	0.000327	20.930782
356.099758	-3.018500	3.697200	-11.158000	22.633406	0.000327	20.907051
357.103768	-2.992700	3.696500	-11.061000	22.651420	0.000327	20.917033
358.102022	-3.011900	3.696300	-11.132000	22.661655	0.000328	20.907371
359.100482	-3.005200	3.696500	-11.108000	22.651035	0.000328	20.929922
360.106864	-2.995300	3.696100	-11.069000	22.645702	0.000327	20.909410
361.112153	-2.996000	3.695300	-11.069000	22.639138	0.000326	20.924644
362.101573	-3.012800	3.695100	-11.132000	22.642220	0.000327	20.914457
363.112159	-3.006200	3.694200	-11.105000	22.660543	0.000327	20.906257
364.106000	-3.007800	3.695000	-11.113000	22.659864	0.000326	20.916481
365.104877	-3.018000	3.694900	-11.151000	22.683918	0.000326	20.927297
366.110533	-3.000300	3.693000	-11.079000	22.679016	0.000326	20.897260
367.105745	-2.992200	3.693600	-11.051000	22.678237	0.000325	20.923978
368.107265	-3.003700	3.693100	-11.092000	22.687639	0.000324	20.914905
369.105690	-2.993500	3.693700	-11.056000	22.694626	0.000324	20.921428
370.110645	-2.990300	3.693700	-11.044000	22.702430	0.000324	20.896532
371.109165	-2.992700	3.694700	-11.056000	22.699040	0.000324	20.881757
372.107822	-3.001900	3.692000	-11.082000	22.683125	0.000324	20.916547
373.109339	-2.973800	3.693600	-10.983000	22.699142	0.000323	20.919789
374.110399	-2.972200	3.693200	-10.974000	22.714239	0.000322	20.907885
375.109529	-3.009200	3.690800	-11.105000	22.725867	0.000322	20.907679
376.107717	-3.008500	3.689200	-11.098000	22.718217	0.000323	20.915662
377.112365	-2.999600	3.690900	-11.069000	22.722733	0.000321	20.894584
378.110411	-2.980600	3.689600	-10.997000	22.733236	0.000323	20.902732
379.115265	-3.002400	3.691100	-11.081000	22.734542	0.000320	20.899299
380.113488	-3.004300	3.690400	-11.086000	22.716668	0.000322	20.897517
381.108863	-3.011700	3.690400	-11.112000	22.739877	0.000321	20.907488
382.111473	-2.997000	3.689700	-11.057000	22.755817	0.000322	20.897377
383.110166	-3.001800	3.689100	-11.073000	22.738174	0.000320	20.904834
384.118472	-2.990600	3.689300	-11.033000	22.751850	0.000321	20.895301
385.117045	-2.997600	3.688800	-11.057000	22.751340	0.000319	20.903798
386.111264	-3.013900	3.688200	-11.115000	22.762865	0.000319	20.883102
387.114481	-3.000800	3.688700	-11.068000	22.752760	0.000320	20.900479
388.112375	-2.999900	3.688900	-11.065000	22.760487	0.000320	20.910115
389.116859	-2.996100	3.689000	-11.051000	22.790549	0.000319	20.907987
390.116411	-2.999700	3.687600	-11.061000	22.767125	0.000321	20.906808
391.114878	-3.033700	3.687100	-11.184000	22.781633	0.000318	20.915176
392.114470	-2.975800	3.688500	-10.975000	22.773869	0.000320	20.884167
393.112368	-2.994100	3.687300	-11.040000	22.802012	0.000319	20.909987
394.114109	-3.016800	3.685400	-11.117000	22.783618	0.000318	20.880183
395.115904	-3.024000	3.686400	-11.146000	22.780880	0.000318	20.909681
396.116330	-2.953700	3.686700	-10.888000	22.794325	0.000318	20.908450
397.115408	-3.006300	3.686300	-11.081000	22.814395	0.000318	20.891573
398.120505	-2.999600	3.685600	-11.055000	22.803013	0.000318	20.901507
399.114949	-3.016300	3.684800	-11.113000	22.818093	0.000314	20.905708
400.118890	-3.016200	3.684900	-11.112000	22.832127	0.000318	20.880414
401.116309	-3.004500	3.685300	-11.071000	22.791102	0.000317	20.890525
402.115325	-2.999200	3.684900	-11.051000	22.823864	0.000318	20.884939
403.115368	-2.975600	3.685700	-10.966000	22.806620	0.000315	20.896112
404.115164	-3.006500	3.683900	-11.074000	22.818441	0.000315	20.898471
405.122392	-3.001700	3.684300	-11.058000	22.840481	0.000315	20.881671
406.124926	-2.994500	3.683400	-11.029000	22.827089	0.000313	20.900022
407.115795	-3.001800	3.684300	-11.059000	22.835851	0.000313	20.908798
408.115008	-2.982100	3.684000	-10.985000	22.839344	0.000316	20.898548
409.116259	-3.008600	3.683700	-11.082000	22.838870	0.000313	20.892384
410.118957	-2.996300	3.682400	-11.033000	22.833319	0.000313	20.876867
411.121458	-3.001500	3.683100	-11.054000	22.850281	0.000313	20.891013
412.121585	-2.994300	3.683100	-11.027000	22.856345	0.000312	20.880020
413.120067	-3.018200	3.681300	-11.110000	22.857560	0.000313	20.859901
414.120517	-3.019600	3.681900	-11.117000	22.867858	0.000313	20.906251
415.118993	-3.004000	3.680000	-11.054000	22.886816	0.000314	20.890631
416.117777	-3.000800	3.680300	-11.043000	22.850934	0.000313	20.877444
417.121688	-3.004200	3.681200	-11.058000	22.883374	0.000312	20.893821
418.119541	-2.997600	3.680800	-11.033000	22.870211	0.000312	20.895332
419.118466	-3.015700	3.680800	-11.099000	22.882696	0.000311	20.890771
420.118895	-2.981000	3.681300	-10.973000	22.883118	0.000310	20.897357
421.119641	-3.008200	3.679400	-11.068000	22.884079	0.000309	20.898319
422.123186	-3.002600	3.679900	-11.049000	22.891791	0.000308	20.865271
423.120470	-3.003400	3.678600	-11.046000	22.891982	0.000309	20.887272
424.119369	-3.002200	3.678500	-11.042000	22.898699	0.000310	20.877407
425.120467	-2.997800	3.678700	-11.027000	22.904122	0.000308	20.890425
426.119484	-2.999600	3.678400	-11.033000	22.908969	0.000310	20.870152
427.119206	-3.014800	3.678100	-11.088000	22.899338	0.000309	20.881365
428.125967	-2.982600	3.677900	-10.968000	22.925867	0.000309	20.893244
429.119492	-2.987800	3.678800	-10.990000	22.926902	0.000309	20.871997
430.120015	-3.010600	3.678200	-11.073000	22.912421	0.000307	20.885464
431.122403	-3.019300	3.678100	-11.104000	22.915275	0.000308	20.849445
432.120100	-3.003500	3.676300	-11.041000	22.907138	0.000308	20.875905
433.125690	-3.005300	3.676400	-11.048000	22.933553	0.000308	20.887195
434.130181	-3.001100	3.678500	-11.039000	22.928487	0.000306	20.865051
435.121953	-3.013300	3.676000	-11.075000	22.937952	0.000304	20.876430
436.126080	-2.999200	3.677200	-11.028000	22.948467	0.000306	20.872266
437.138209	-3.006000	3.676700	-11.051000	22.945510	0.000308	20.883528
438.121276	-3.005000	3.676000	-11.046000	22.957752	0.000305	20.879198
439.129408	-2.996900	3.676400	-11.017000	22.946483	0.000305	20.880235
440.122267	-2.983400	3.676000	-10.966000	22.971833	0.000304	20.866753
441.123152	-2.987400	3.674200	-10.976000	22.983242	0.000305	20.872968
442.123240	-3.007500	3.673400	-11.047000	22.979265	0.000305	20.872303
443.130460	-3.000300	3.674800	-11.024000	22.974635	0.000304	20.882362
444.133170	-2.998200	3.674300	-11.015000	22.967651	0.000303	20.877735
445.128146	-2.994000	3.674100	-11.000000	22.954822	0.000302	20.866779
446.129611	-3.001900	3.673100	-11.025000	22.986504	0.000303	20.865331
447.124149	-3.002500	3.673100	-11.027000	23.008849	0.000304	20.882028
448.132590	-2.989700	3.674300	-10.984000	22.991057	0.000303	20.876530
449.135266	-2.992400	3.673600	-10.991000	22.975861	0.000303	20.866048
450.124564	-2.988500	3.672500	-10.974000	22.986310	0.000303	20.882205
451.125974	-3.003900	3.671000	-11.027000	23.012774	0.000303	20.852772
452.132542	-3.000100	3.673900	-11.021000	23.004242	0.000301	20.866982
453.127875	-3.001900	3.671200	-11.020000	23.007631	0.000301	20.862318
454.127781	-3.016900	3.671900	-11.077000	22.999803	0.000303	20.864432
455.131017	-3.006000	3.670800	-11.034000	23.004535	0.000302	20.858268
456.127557	-2.988000	3.671000	-10.969000	23.014473	0.000301	20.865380
457.129114	-3.000500	3.670000	-11.011000	23.021674	0.000299	20.842724
458.129699	-3.009100	3.670900	-11.046000	23.026521	0.000300	20.852795
459.136647	-3.003100	3.671100	-11.024000	23.028582	0.000299	20.860550
460.133056	-2.995500	3.671100	-10.995000	23.019819	0.000299	20.855563
461.129677	-2.983000	3.670700	-10.949000	23.026777	0.000299	20.866328
462.129978	-3.006700	3.670100	-11.034000	23.024961	0.000298	20.852181
463.132214	-2.999100	3.670500	-11.007000	23.023413	0.000297	20.871966
464.131066	-3.015100	3.669700	-11.063000	23.042328	0.000299	20.870055
465.144118	-2.998400	3.669300	-11.001000	23.032225	0.000296	20.863726
466.133637	-3.017900	3.668300	-11.069000	23.046961	0.000298	20.863792
467.131664	-2.995900	3.669600	-10.993000	23.052254	0.000297	20.858191
468.137836	-2.998000	3.668400	-10.997000	23.052790	0.000296	20.852564
469.132345	-3.003400	3.667700	-11.015000	23.063751	0.000297	20.846478
470.133301	-2.983300	3.667000	-10.939000	23.057702	0.000296	20.855115
471.136796	-2.974400	3.669100	-10.912000	23.058227	0.000296	20.873657
472.135712	-2.959700	3.668900	-10.857000	23.071630	0.000297	20.841096
473.135774	-3.002000	3.665800	-11.004000	23.084290	0.000297	20.852359
474.136321	-3.021300	3.666200	-11.076000	23.087591	0.000295	20.865149
475.136513	-2.992700	3.666600	-10.972000	23.059492	0.000295	20.861650
476.139863	-3.011300	3.665700	-11.038000	23.084276	0.000295	20.845707
477.135842	-3.022400	3.665400	-11.077000	23.098281	0.000293	20.857368
478.136437	-3.013800	3.665800	-11.047000	23.095416	0.000296	20.836007
479.140864	-2.987500	3.665800	-10.950000	23.087885	0.000294	20.859753
480.138978	-2.992800	3.664700	-10.967000	23.129588	0.000293	20.851756
481.139430	-3.004400	3.664700	-11.008000	23.108614	0.000295	20.834059
482.141897	-3.012700	3.664000	-11.038000	23.115521	0.000294	20.841928
483.139838	-2.994200	3.665500	-10.974000	23.107209	0.000292	20.862995
484.138883	-2.982700	3.665000	-10.930000	23.114472	0.000291	20.847514
485.138544	-2.997900	3.664900	-10.986000	23.128719	0.000290	20.848988
486.139663	-2.981900	3.663600	-10.924000	23.125968	0.000291	20.835801
487.142573	-3.031900	3.661800	-11.100000	23.114318	0.000290	20.844990
488.138274	-2.976400	3.664100	-10.905000	23.134614	0.000292	20.854895
489.140758	-3.007400	3.663100	-11.015000	23.130139	0.000292	20.848040
490.141308	-3.000900	3.660700	-10.984000	23.130073	0.000291	20.835647
491.142160	-3.002400	3.662400	-10.995000	23.153387	0.000292	20.857111
492.140604	-2.992700	3.661300	-10.956000	23.149282	0.000290	20.844938
493.142808	-3.041800	3.661300	-11.135000	23.161112	0.000290	20.828343
494.145012	-2.990400	3.661200	-10.947000	23.163338	0.000288	20.835790
495.141667	-2.985200	3.661900	-10.931000	23.142096	0.000290	20.816875
496.141411	-2.987500	3.660800	-10.936000	23.150947	0.000289	20.865097
497.140242	-3.003000	3.659400	-10.988000	23.177251	0.000290	20.845683
498.150984	-2.994400	3.659600	-10.957000	23.151956	0.000288	20.841453
499.142099	-2.982200	3.660800	-10.916000	23.170820	0.000288	20.839020
500.141369	-3.010600	3.659400	-11.016000	23.148977	0.000286	20.843684
501.142883	-3.001400	3.659300	-10.982000	23.152814	0.000288	20.837098
502.142905	-3.017100	3.658300	-11.036000	23.187612	0.000289	20.836406
503.144410	-3.008400	3.659600	-11.009000	23.180924	0.000286	20.835395
504.144269	-3.001400	3.660400	-10.986000	23.184314	0.000284	20.834050
505.144523	-3.024200	3.657900	-11.061000	23.192691	0.000285	20.816367
506.149365	-3.003600	3.658200	-10.987000	23.197972	0.000286	20.831616
507.143585	-2.998800	3.658800	-10.971000	23.197602	0.000285	20.826504
508.148951	-2.998000	3.659200	-10.970000	23.190886	0.000284	20.827361
509.147381	-2.984000	3.658200	-10.914000	23.206988	0.000286	20.821685
510.145366	-3.007000	3.657000	-10.995000	23.205876	0.000286	20.819623
511.144553	-3.009100	3.657100	-11.003000	23.189558	0.000283	20.828400
512.144913	-3.013400	3.655400	-11.015000	23.220760	0.000283	20.827900
513.144915	-2.974500	3.658200	-10.881000	23.195339	0.000284	20.824710
514.147470	-2.992700	3.657300	-10.945000	23.211286	0.000285	20.837846
515.145692	-2.983900	3.657500	-10.914000	23.202667	0.000283	20.816881
516.146420	-2.992000	3.655800	-10.937000	23.236517	0.000283	20.835629
517.146708	-2.986300	3.656900	-10.919000	23.210890	0.000282	20.836975
518.148878	-2.999500	3.656400	-10.966000	23.213831	0.000281	20.814793
519.151904	-2.985600	3.656200	-10.915000	23.224420	0.000282	20.822085
520.150691	-3.009000	3.655200	-10.998000	23.223078	0.000281	20.822636
521.147406	-2.983900	3.656600	-10.910000	23.234037	0.000280	20.838360
522.149113	-2.992000	3.655100	-10.935000	23.244127	0.000281	20.829031
523.149056	-3.018200	3.652500	-11.024000	23.248333	0.000282	20.841782
524.153922	-3.010800	3.654500	-11.002000	23.235507	0.000280	20.827980
525.153476	-2.971400	3.654600	-10.858000	23.224255	0.000279	20.808643
526.152833	-3.000400	3.653300	-10.960000	23.254664	0.000281	20.809720
527.150926	-2.993000	3.653800	-10.935000	23.267336	0.000279	20.820996
528.152123	-3.011700	3.653100	-11.001000	23.257055	0.000280	20.810694
529.151479	-3.025700	3.651700	-11.048000	23.265035	0.000279	20.828648
530.153821	-3.011700	3.651600	-10.997000	23.274293	0.000279	20.814693
531.151974	-2.984400	3.652900	-10.901000	23.276952	0.000278	20.814039
532.150597	-2.994800	3.652600	-10.936000	23.273743	0.000279	20.819831
533.156970	-3.009600	3.652500	-10.992000	23.274293	0.000280	20.819434
534.155087	-2.994200	3.651500	-10.932000	23.288691	0.000278	20.816795
535.152837	-3.012000	3.650200	-10.994000	23.289803	0.000276	20.811745
536.156942	-2.999000	3.650600	-10.947000	23.284830	0.000277	20.803442
537.154696	-3.007000	3.651300	-10.979000	23.306644	0.000276	20.803019
538.154569	-3.026300	3.650000	-11.045000	23.280135	0.000277	20.807272
539.154418	-3.014100	3.650800	-11.003000	23.295135	0.000276	20.824675
540.162619	-3.010500	3.649900	-10.986000	23.300633	0.000275	20.816909
541.155068	-3.013100	3.648500	-10.993000	23.300890	0.000277	20.816218
542.153537	-2.989900	3.649000	-10.909000	23.322473	0.000272	20.798494
543.153170	-3.008500	3.649500	-10.979000	23.318600	0.000274	20.795087
544.153995	-3.012600	3.648400	-10.991000	23.305071	0.000275	20.804761
545.154157	-3.020800	3.648100	-11.019000	23.315197	0.000275	20.814910
546.156116	-2.993700	3.647900	-10.920000	23.301950	0.000272	20.802582
547.155788	-2.979000	3.649500	-10.871000	23.325682	0.000274	20.806452
548.154171	-2.980400	3.647600	-10.871000	23.331180	0.000273	20.807221
549.163633	-2.991800	3.647800	-10.913000	23.324351	0.000271	20.810808
550.160001	-3.007600	3.646400	-10.966000	23.328623	0.000271	20.808926
551.155045	-3.019200	3.646500	-11.008000	23.323610	0.000273	20.800108
552.158569	-2.992700	3.647800	-10.917000	23.354119	0.000271	20.791331
553.154964	-3.016300	3.646100	-10.996000	23.339530	0.000270	20.798046
554.155102	-3.004500	3.645000	-10.951000	23.360141	0.000271	20.815858
555.154895	-2.985700	3.645900	-10.884000	23.337407	0.000270	20.801608
556.157230	-2.983100	3.646900	-10.878000	23.358696	0.000270	20.795444
557.156438	-2.991400	3.646300	-10.906000	23.342611	0.000270	20.791176
558.156896	-3.010800	3.644500	-10.972000	23.365140	0.000269	20.800954
559.157508	-2.975600	3.645900	-10.848000	23.358223	0.000269	20.792599
560.163340	-3.000800	3.643700	-10.933000	23.369169	0.000270	20.795984
561.159171	-2.997900	3.644300	-10.924000	23.352190	0.000269	20.790819
562.158802	-3.024400	3.645000	-11.022000	23.369745	0.000266	20.792767
563.160480	-3.008700	3.644000	-10.962000	23.371458	0.000268	20.796381
564.157449	-3.015100	3.644100	-10.987000	23.368055	0.000269	20.791548
565.158353	-3.004900	3.643900	-10.949000	23.379346	0.000267	20.802390
566.159522	-2.993500	3.643800	-10.907000	23.359924	0.000267	20.809003
567.163605	-2.996100	3.641600	-10.910000	23.391301	0.000267	20.805838
568.163339	-2.985800	3.643200	-10.877000	23.396300	0.000264	20.798520
569.158272	-2.989400	3.642200	-10.887000	23.386200	0.000267	20.810682
570.158655	-2.995400	3.642500	-10.910000	23.393348	0.000266	20.780862
571.159234	-2.999300	3.642400	-10.924000	23.422498	0.000265	20.796329
572.159467	-3.009300	3.641200	-10.957000	23.417602	0.000266	20.790474
573.158083	-3.008100	3.639800	-10.948000	23.409893	0.000266	20.799343
574.160984	-3.002100	3.641000	-10.930000	23.410429	0.000263	20.775698
575.159544	-3.004300	3.640700	-10.937000	23.419648	0.000263	20.811016
576.158798	-3.035600	3.639200	-11.045000	23.427243	0.000262	20.798240
577.160750	-3.016900	3.640600	-10.982000	23.421848	0.000264	20.771970
578.159292	-2.999900	3.639900	-10.918000	23.415262	0.000265	20.789551
579.162970	-2.997400	3.639600	-10.909000	23.436385	0.000265	20.797920
580.161234	-3.000100	3.639400	-10.918000	23.430605	0.000263	20.778851
581.159418	-3.023300	3.637600	-10.997000	23.435746	0.000262	20.794435
582.159484	-3.001400	3.638800	-10.921000	23.435222	0.000262	20.796281
583.159049	-2.987000	3.638700	-10.868000	23.447176	0.000263	20.781710
584.163272	-2.995000	3.638000	-10.894000	23.436373	0.000260	20.803599
585.163660	-2.986500	3.638600	-10.866000	23.427231	0.000262	20.800599
586.170273	-2.994100	3.637500	-10.890000	23.443788	0.000261	20.791116
587.163785	-2.981300	3.637000	-10.841000	23.445373	0.000259	20.804084
588.163126	-2.992700	3.636200	-10.881000	23.447664	0.000261	20.800217
589.160677	-2.989800	3.635900	-10.869000	23.451217	0.000262	20.799985
590.165622	-2.992900	3.636900	-10.884000	23.461317	0.000258	20.805367
591.163318	-3.014500	3.636700	-10.961000	23.473348	0.000261	20.794193
592.162333	-3.001400	3.637300	-10.915000	23.451665	0.000260	20.795692
593.162903	-3.008400	3.635000	-10.935000	23.484088	0.000258	20.800217
594.164617	-2.996400	3.635300	-10.892000	23.495529	0.000260	20.805521
595.167823	-3.015800	3.634900	-10.961000	23.473208	0.000259	20.804958
596.164126	-3.003100	3.635600	-10.916000	23.514259	0.000258	20.809597
597.163503	-3.000900	3.634700	-10.906000	23.481748	0.000258	20.785544
598.166748	-3.014800	3.633800	-10.954000	23.480762	0.000258	20.822961
599.164017	-3.023500	3.634600	-10.988000	23.467059	0.000256	20.806381
600.165426	-2.999900	3.633800	-10.899000	23.489764	0.000256	20.810174
601.167208	-3.003000	3.632900	-10.909000	23.502433	0.000257	20.803907
602.163373	-3.002300	3.634000	-10.910000	23.502128	0.000256	20.812610
603.171661	-3.007000	3.632800	-10.922000	23.493996	0.000254	20.797820
604.163968	-3.004500	3.632200	-10.912000	23.531276	0.000257	20.801525
605.165056	-3.010800	3.631700	-10.933000	23.509606	0.000256	20.787863
606.172139	-3.004300	3.631600	-10.909000	23.516037	0.000255	20.801422
607.165795	-2.995100	3.632500	-10.879000	23.508175	0.000255	20.815352
608.168192	-3.013000	3.631300	-10.941000	23.513646	0.000254	20.796655
609.167177	-2.993500	3.632300	-10.872000	23.540212	0.000253	20.803370
610.167791	-3.003300	3.630200	-10.902000	23.533769	0.000252	20.806395
611.172638	-3.002100	3.630200	-10.897000	23.548125	0.000252	20.806086
612.168748	-3.010200	3.631400	-10.931000	23.543050	0.000252	20.829922
613.168240	-3.013400	3.629600	-10.936000	23.537209	0.000252	20.821222
614.172864	-2.987600	3.629500	-10.842000	23.545250	0.000252	20.818851
615.170549	-2.985500	3.629600	-10.835000	23.545748	0.000250	20.786635
616.171313	-3.003700	3.629100	-10.899000	23.528375	0.000252	20.800039
617.170977	-3.003800	3.628600	-10.899000	23.556231	0.000251	20.808049
618.172888	-2.984700	3.629600	-10.832000	23.573336	0.000251	20.819979
619.177926	-2.999400	3.628600	-10.882000	23.560884	0.000250	20.824567
620.174085	-3.013500	3.628300	-10.933000	23.565475	0.000249	20.791710
621.170660	-3.009200	3.628700	-10.918000	23.572786	0.000248	20.817057
622.173497	-3.010300	3.627100	-10.918000	23.566139	0.000249	20.840739
623.170470	-3.009700	3.626800	-10.915000	23.574678	0.000248	20.809471
624.173108	-2.973400	3.628900	-10.788000	23.567803	0.000248	20.826286
625.172596	-2.991800	3.627400	-10.851000	23.583882	0.000251	20.813955
626.170961	-2.999200	3.626800	-10.876000	23.605143	0.000249	20.810614
627.171466	-2.986900	3.626500	-10.831000	23.587717	0.000248	20.807369
628.175110	-2.993200	3.626600	-10.854000	23.601473	0.000246	20.807409
629.171540	-2.993200	3.626200	-10.853000	23.597715	0.000246	20.829719
630.174385	-3.017300	3.624700	-10.936000	23.594609	0.000246	20.833244
631.172361	-2.980400	3.625700	-10.805000	23.610027	0.000246	20.825466
632.174420	-2.998700	3.624100	-10.866000	23.609975	0.000246	20.837268
633.179169	-3.002100	3.624500	-10.880000	23.613682	0.000244	20.816803
634.172746	-3.015500	3.624200	-10.928000	23.603445	0.000247	20.807963
635.174690	-3.017900	3.624500	-10.938000	23.615768	0.000244	20.817946
636.176673	-2.995400	3.624100	-10.854000	23.633804	0.000243	20.817534
637.181984	-2.998000	3.622400	-10.858000	23.618389	0.000244	20.826737
638.175985	-3.026100	3.623000	-10.963000	23.632527	0.000243	20.848496
639.180906	-2.982400	3.623300	-10.805000	23.627555	0.000244	20.821228
640.180464	-2.993700	3.621700	-10.841000	23.625945	0.000243	20.818665
641.180890	-2.998300	3.622400	-10.860000	23.622506	0.000244	20.812373
642.189405	-2.995700	3.622300	-10.851000	23.640813	0.000244	20.830250
643.177872	-3.005100	3.620300	-10.878000	23.626099	0.000242	20.824984
644.181316	-2.993300	3.621500	-10.839000	23.640838	0.000241	20.825535
645.187365	-3.021800	3.620900	-10.941000	23.671236	0.000243	20.843206
646.183531	-2.979600	3.622200	-10.792000	23.646616	0.000243	20.845551
647.181460	-2.996100	3.621300	-10.849000	23.652600	0.000242	20.825472
648.185340	-3.016100	3.620700	-10.920000	23.650260	0.000240	20.830239
649.183665	-2.993700	3.620700	-10.839000	23.669358	0.000238	20.837531
650.183035	-3.012700	3.620100	-10.906000	23.682230	0.000238	20.841901
651.186344	-3.001900	3.618800	-10.861000	23.674905	0.000239	20.835032
652.182197	-3.001500	3.620000	-10.864000	23.656603	0.000240	20.835649
653.182173	-3.022000	3.617300	-10.931000	23.681145	0.000239	20.819477
654.185392	-3.015300	3.618900	-10.911000	23.687345	0.000239	20.832330
655.183920	-3.005400	3.617800	-10.872000	23.681860	0.000238	20.829202
656.184646	-3.033200	3.618300	-10.974000	23.681772	0.000237	20.818683
657.184399	-2.984100	3.618000	-10.795000	23.685951	0.000236	20.834252
658.192594	-2.970400	3.617600	-10.745000	23.709547	0.000237	20.812864
659.185365	-2.962600	3.618400	-10.718000	23.690527	0.000236	20.851167
660.188878	-2.991600	3.617400	-10.821000	23.712205	0.000236	20.842081
661.185478	-3.000300	3.617300	-10.852000	23.705125	0.000236	20.842569
662.186445	-3.005200	3.616800	-10.869000	23.695385	0.000235	20.834701
663.187706	-3.012800	3.615200	-10.891000	23.712308	0.000236	20.856408
664.187987	-3.002800	3.615600	-10.856000	23.709932	0.000235	20.853078
665.188011	-2.997400	3.616200	-10.837000	23.723570	0.000234	20.834509
666.189721	-3.006700	3.615300	-10.869000	23.719416	0.000234	20.854051
667.190911	-3.013100	3.614300	-10.889000	23.723302	0.000234	20.834715
668.197424	-3.001000	3.614100	-10.844000	23.740353	0.000233	20.851335
669.199304	-3.014000	3.613700	-10.891000	23.719379	0.000233	20.855437
670.191782	-3.004400	3.614600	-10.858000	23.737592	0.000233	20.846671
671.196235	-3.007300	3.612700	-10.864000	23.733912	0.000232	20.849145
672.192456	-3.006200	3.612400	-10.858000	23.736148	0.000232	20.826732
673.193650	-2.998200	3.612500	-10.830000	23.748891	0.000232	20.849464
674.193985	-2.995300	3.612200	-10.818000	23.739356	0.000232	20.838956
675.193477	-2.998400	3.613400	-10.833000	23.757418	0.000231	20.863703
676.196893	-2.994900	3.612100	-10.817000	23.741504	0.000232	20.843481
677.195932	-3.024900	3.611700	-10.924000	23.759156	0.000230	20.855962
678.195223	-3.004000	3.610800	-10.846000	23.761520	0.000230	20.855488
679.201646	-3.009700	3.611400	-10.868000	23.762646	0.000229	20.851401
680.195223	-3.001700	3.612800	-10.844000	23.774827	0.000229	20.840856
681.197190	-2.999000	3.609900	-10.825000	23.781551	0.000229	20.866088
682.196868	-3.018100	3.609400	-10.893000	23.784553	0.000229	20.853452
683.196978	-3.004700	3.609200	-10.843000	23.778534	0.000228	20.863537
684.198678	-2.999900	3.611700	-10.833000	23.791328	0.000229	20.856451
685.197172	-2.995700	3.609600	-10.812000	23.800851	0.000225	20.865525
686.198993	-3.020500	3.609200	-10.900000	23.784120	0.000226	20.876724
687.201648	-2.993300	3.608300	-10.800000	23.791738	0.000225	20.859233
688.200262	-3.002000	3.607900	-10.830000	23.802230	0.000228	20.864537
689.199427	-2.999500	3.608500	-10.823000	23.799649	0.000225	20.843932
690.200028	-3.012300	3.608200	-10.868000	23.797196	0.000226	20.879877
691.200260	-3.000600	3.608500	-10.827000	23.807805	0.000225	20.870600
692.203860	-3.002900	3.607100	-10.830000	23.791969	0.000224	20.868947
693.200256	-2.985600	3.607700	-10.770000	23.821365	0.000225	20.865231
694.199857	-2.978700	3.606400	-10.741000	23.810962	0.000224	20.874239
695.200280	-2.992100	3.608700	-10.797000	23.822490	0.000224	20.894806
696.200267	-2.998700	3.606400	-10.814000	23.810144	0.000224	20.883850
697.201428	-2.992300	3.605800	-10.788000	23.814503	0.000223	20.885849
698.204456	-2.983900	3.607500	-10.762000	23.829099	0.000222	20.869192
699.201628	-2.979500	3.606500	-10.744000	23.822644	0.000222	20.880263
700.204006	-3.004900	3.604800	-10.832000	23.824140	0.000222	20.889822
701.200947	-2.997900	3.605000	-10.805000	23.841944	0.000221	20.891553
702.202307	-2.980400	3.604400	-10.741000	23.832908	0.000220	20.868270
703.205956	-2.979600	3.604200	-10.738000	23.844283	0.000221	20.891527
704.202277	-2.984200	3.603700	-10.753000	23.867850	0.000223	20.880071
705.202249	-2.990300	3.603900	-10.776000	23.852450	0.000220	20.882648
706.202461	-2.996100	3.602900	-10.794000	23.867710	0.000222	20.881828
707.204372	-2.989400	3.603700	-10.772000	23.856336	0.000220	20.906930
708.206734	-2.991200	3.602200	-10.774000	23.857281	0.000221	20.878483
709.203456	-3.012000	3.602000	-10.848000	23.865448	0.000219	20.881457
710.202479	-2.981600	3.602700	-10.740000	23.864440	0.000219	20.896566
711.206810	-3.005400	3.601900	-10.824000	23.868491	0.000216	20.857482
712.203966	-3.021500	3.601100	-10.879000	23.872299	0.000217	20.902075
713.205073	-3.028200	3.600700	-10.902000	23.865067	0.000218	20.898616
714.208076	-2.992900	3.602000	-10.780000	23.883699	0.000218	20.892170
715.207161	-2.996200	3.600400	-10.786000	23.876250	0.000216	20.904140
716.207170	-3.023200	3.599200	-10.880000	23.896033	0.000217	20.877986
717.208108	-3.003400	3.599200	-10.809000	23.905055	0.000214	20.901255
718.208530	-2.990700	3.600400	-10.766000	23.912891	0.000215	20.905794
719.210480	-2.980700	3.600500	-10.731000	23.896902	0.000215	20.895926
720.207774	-3.002300	3.599500	-10.804000	23.900674	0.000213	20.893544
721.207996	-2.984500	3.598600	-10.739000	23.901964	0.000215	20.899105
722.207423	-2.991800	3.598100	-10.763000	23.904200	0.000213	20.928371
723.207425	-3.008900	3.597800	-10.825000	23.910413	0.000214	20.895723
724.211197	-3.010200	3.597200	-10.828000	23.901671	0.000214	20.913982
725.211414	-2.989600	3.597600	-10.755000	23.914361	0.000210	20.896837
726.209113	-3.006200	3.596700	-10.811000	23.905736	0.000212	20.923273
727.209073	-2.992800	3.597600	-10.766000	23.925658	0.000212	20.917172
728.209234	-3.015000	3.595800	-10.840000	23.953313	0.000213	20.909818
729.212202	-3.001100	3.595600	-10.789000	23.924470	0.000212	20.898439
730.211173	-2.988700	3.596600	-10.747000	23.919243	0.000212	20.904577
731.209115	-3.001400	3.595800	-10.791000	23.946195	0.000209	20.925912
732.209128	-3.004100	3.595700	-10.801000	23.927450	0.000210	20.890996
733.209136	-2.995500	3.594700	-10.767000	23.918502	0.000209	20.900516
734.209047	-2.989800	3.595400	-10.748000	23.949798	0.000209	20.897285
735.213778	-3.002800	3.593800	-10.790000	23.963499	0.000209	20.904860
736.213155	-3.005500	3.594600	-10.803000	23.941646	0.000209	20.895275
737.209478	-2.983300	3.594800	-10.723000	23.966068	0.000209	20.916444
738.210993	-2.979100	3.594300	-10.707000	23.972673	0.000209	20.923541
739.209851	-3.000700	3.593200	-10.781000	23.964991	0.000209	20.922002
740.211430	-2.990900	3.594400	-10.750000	23.958514	0.000209	20.915981
741.214719	-3.016600	3.592900	-10.837000	23.988442	0.000207	20.922284
742.211428	-3.008600	3.592100	-10.805000	23.958030	0.000208	20.900798
743.209510	-3.006000	3.591900	-10.797000	23.971383	0.000205	20.927463
744.211534	-3.020400	3.590400	-10.843000	23.972967	0.000208	20.929999
745.212910	-2.985000	3.592000	-10.721000	23.976595	0.000204	20.904243
746.212982	-2.988600	3.590600	-10.730000	23.983471	0.000206	20.918249
747.211523	-2.994400	3.590100	-10.749000	23.974397	0.000204	20.923847
748.212477	-2.994000	3.589900	-10.747000	24.004887	0.000205	20.916967
749.217004	-2.992600	3.590100	-10.743000	23.973861	0.000205	20.930421
750.212104	-2.980300	3.590100	-10.698000	23.986576	0.000203	20.932740
751.213018	-2.988600	3.589700	-10.728000	23.973975	0.000203	20.943336
752.214707	-2.994700	3.588600	-10.745000	23.988544	0.000202	20.952255
753.215219	-3.018500	3.589300	-10.834000	23.984480	0.000204	20.921156
754.215540	-3.013200	3.587700	-10.809000	24.006958	0.000202	20.927577
755.215409	-3.019300	3.586100	-10.826000	24.000746	0.000202	20.903806
756.215988	-2.979200	3.588500	-10.690000	24.010114	0.000200	20.918889
757.219609	-3.007800	3.588300	-10.791000	24.027556	0.000203	20.923104
758.217650	-2.997100	3.587800	-10.752000	24.015352	0.000202	20.920822
759.215997	-2.990500	3.586200	-10.724000	24.019903	0.000200	20.917801
760.217339	-3.007600	3.586400	-10.786000	24.028693	0.000199	20.923770
761.217345	-3.017800	3.586100	-10.821000	24.023877	0.000199	20.932215
762.228253	-3.018300	3.585200	-10.820000	24.045255	0.000200	20.915724
763.220439	-3.013100	3.585000	-10.801000	24.038955	0.000201	20.944016
764.218932	-3.006600	3.585800	-10.780000	24.051170	0.000197	20.925449
765.219443	-3.012700	3.584500	-10.797000	24.041025	0.000198	20.933292
766.217934	-3.011800	3.585500	-10.799000	24.043785	0.000198	20.939378
767.222330	-3.019700	3.582900	-10.818000	24.035198	0.000197	20.938352
768.218690	-3.015900	3.583700	-10.807000	24.045101	0.000197	20.950653
769.218378	-3.027400	3.583400	-10.847000	24.051236	0.000196	20.931204
770.220146	-2.979900	3.585300	-10.683000	24.057510	0.000196	20.956933
771.217840	-3.018600	3.583100	-10.815000	24.060168	0.000197	20.947746
772.217958	-3.016200	3.582700	-10.805000	24.086808	0.000197	20.937481
773.222702	-3.000100	3.582500	-10.747000	24.087959	0.000196	20.949539
774.220246	-3.003300	3.582700	-10.759000	24.087486	0.000195	20.953332
775.220053	-2.973500	3.582300	-10.651000	24.051951	0.000193	20.960840
776.220541	-2.996600	3.581500	-10.732000	24.092712	0.000193	20.956676
777.218870	-3.008500	3.581900	-10.775000	24.095805	0.000195	20.979215
778.219982	-3.005200	3.580400	-10.759000	24.100929	0.000191	20.964916
779.223815	-3.008700	3.581400	-10.775000	24.078976	0.000192	20.970399
780.221696	-3.001800	3.581800	-10.751000	24.088227	0.000191	20.951704
781.224738	-3.006800	3.579900	-10.763000	24.088201	0.000191	20.969220
782.222219	-3.019500	3.580900	-10.812000	24.079156	0.000193	20.953038
783.223496	-3.002700	3.580200	-10.749000	24.097799	0.000191	20.964148
784.226641	-2.991200	3.579000	-10.705000	24.098782	0.000191	20.957547
785.223457	-3.003400	3.577200	-10.743000	24.103919	0.000190	20.943262
786.223470	-2.989600	3.578700	-10.697000	24.102475	0.000190	20.949399
787.222552	-2.983800	3.579300	-10.680000	24.122599	0.000190	20.960572
788.223078	-2.980600	3.578600	-10.665000	24.116530	0.000189	20.976294
789.225179	-2.997900	3.579100	-10.729000	24.094732	0.000188	20.972924
790.225008	-2.991900	3.577700	-10.703000	24.122522	0.000190	20.955754
791.225432	-3.004300	3.576200	-10.742000	24.119110	0.000189	20.940006
792.226713	-3.004600	3.576600	-10.745000	24.127686	0.000189	20.946235
793.225675	-3.016700	3.577500	-10.791000	24.126766	0.000189	20.965224
794.227606	-3.009200	3.575100	-10.758000	24.122394	0.000187	20.981226
795.228823	-3.000900	3.576100	-10.730000	24.116633	0.000190	20.965493
796.227572	-2.975200	3.576200	-10.638000	24.128081	0.000184	20.949951
797.227335	-3.000700	3.574900	-10.727000	24.143594	0.000186	21.000589
798.227322	-2.967500	3.575500	-10.609000	24.154313	0.000185	20.971990
799.227475	-2.984600	3.575500	-10.670000	24.143862	0.000186	20.976205
800.231449	-3.028800	3.574400	-10.824000	24.153995	0.000186	20.996322
801.229494	-3.008200	3.574700	-10.752000	24.142737	0.000183	20.983137
802.229723	-3.008700	3.573600	-10.751000	24.146035	0.000184	20.976014
803.233713	-2.990800	3.573800	-10.688000	24.164856	0.000183	20.995363
804.230416	-3.017300	3.573600	-10.782000	24.175217	0.000184	20.981100
805.229452	-2.977200	3.574700	-10.641000	24.171449	0.000182	20.985381
806.233428	-2.993300	3.571800	-10.691000	24.174055	0.000181	20.986572
807.230145	-2.997800	3.572000	-10.707000	24.153254	0.000182	21.000320
808.232969	-2.986500	3.572900	-10.670000	24.168484	0.000185	20.993786
809.232049	-3.004600	3.572600	-10.733000	24.171845	0.000181	20.978667
810.232030	-3.005900	3.571000	-10.733000	24.180827	0.000182	20.999526
811.234325	-2.981400	3.572000	-10.648000	24.170210	0.000179	20.999784
812.233563	-3.026400	3.569900	-10.803000	24.194217	0.000180	21.002051
813.233230	-2.986100	3.571000	-10.662000	24.185785	0.000180	20.984113
814.234067	-2.978100	3.572600	-10.638000	24.190486	0.000180	20.991673
815.233402	-2.989000	3.570600	-10.672000	24.199878	0.000179	20.992558
816.234057	-3.002100	3.570300	-10.718000	24.200069	0.000179	21.005075
817.235386	-3.012700	3.569300	-10.752000	24.208168	0.000178	20.976694
818.234696	-2.990500	3.569100	-10.672000	24.226325	0.000180	20.978310
819.237992	-2.982400	3.568500	-10.641000	24.229480	0.000179	20.989060
820.234989	-3.004900	3.567500	-10.718000	24.223438	0.000180	20.971622
821.235382	-3.000600	3.567400	-10.702000	24.214353	0.000178	20.986689
822.244689	-3.001700	3.568000	-10.708000	24.229506	0.000178	20.997145
823.235218	-2.981000	3.567400	-10.633000	24.225775	0.000178	20.991507
824.235409	-3.015400	3.565400	-10.750000	24.223042	0.000178	20.984499
825.235469	-3.001800	3.566700	-10.705000	24.235831	0.000176	20.962243
826.236621	-3.021000	3.565500	-10.770000	24.221382	0.000174	20.982360
827.239543	-3.027700	3.565600	-10.795000	24.246831	0.000175	20.988446
828.236463	-3.003200	3.565500	-10.707000	24.222518	0.000175	20.975914
829.238075	-2.997900	3.566000	-10.690000	24.244328	0.000173	20.985936
830.238537	-3.014400	3.566100	-10.749000	24.238809	0.000174	20.987038
831.238365	-2.994100	3.565300	-10.674000	24.243548	0.000175	20.954812
832.242898	-2.999400	3.565300	-10.693000	24.251250	0.000171	20.970122
833.244059	-3.008500	3.562900	-10.718000	24.240942	0.000173	20.984910
834.240669	-3.010000	3.564400	-10.727000	24.243024	0.000172	20.979413
835.241402	-2.992400	3.564900	-10.666000	24.258483	0.000171	20.962206
836.238523	-3.001900	3.563600	-10.696000	24.279410	0.000170	20.986987
837.248491	-2.993100	3.563100	-10.663000	24.273240	0.000170	20.988857
838.241761	-3.004800	3.562200	-10.702000	24.270224	0.000170	20.961181
839.239501	-2.974600	3.563800	-10.600000	24.282540	0.000169	20.966421
840.239648	-2.974900	3.561400	-10.594000	24.280880	0.000169	20.948637
841.241158	-2.974100	3.563000	-10.594000	24.261562	0.000168	20.968612
842.240750	-2.999400	3.561100	-10.680000	24.258700	0.000167	20.960526
843.242639	-2.987800	3.561600	-10.640000	24.270070	0.000169	20.964345
844.241418	-3.010700	3.561100	-10.720000	24.265625	0.000167	20.941397
845.240910	-3.004000	3.560400	-10.693000	24.266237	0.000168	20.945804
846.241411	-2.989000	3.561000	-10.643000	24.281964	0.000169	20.949251
847.239835	-2.985200	3.558900	-10.624000	24.267542	0.000166	20.944268
848.241840	-2.983300	3.561400	-10.624000	24.292466	0.000167	20.979695
849.244172	-3.004700	3.559600	-10.694000	24.276790	0.000168	20.951647
850.241828	-3.003000	3.559000	-10.686000	24.283855	0.000166	20.951148
851.243940	-3.005200	3.559700	-10.696000	24.276343	0.000166	20.960207
852.244411	-2.997700	3.558200	-10.665000	24.291777	0.000166	20.939181
853.245328	-3.003700	3.557800	-10.686000	24.298024	0.000165	20.962514
854.246716	-2.997100	3.558100	-10.663000	24.290857	0.000165	20.951533
855.245261	-2.990200	3.556100	-10.633000	24.296951	0.000164	20.951008
856.244757	-3.014000	3.557400	-10.721000	24.298292	0.000163	20.943345
857.245586	-2.993600	3.557000	-10.647000	24.299058	0.000165	20.944113
858.245020	-2.997600	3.556900	-10.661000	24.296658	0.000163	20.961618
859.247653	-2.999500	3.556700	-10.667000	24.293719	0.000165	20.953455
860.248528	-2.990900	3.556300	-10.636000	24.299479	0.000163	20.941217
861.246014	-2.982700	3.557000	-10.609000	24.312766	0.000163	20.943639
862.246649	-3.007500	3.554800	-10.690000	24.292569	0.000163	20.921959
863.244945	-2.996200	3.555200	-10.652000	24.331112	0.000162	20.941180
864.245045	-2.987700	3.555300	-10.621000	24.321977	0.000161	20.938181
865.247731	-2.996300	3.553700	-10.647000	24.313751	0.000160	20.938464
866.247208	-2.975400	3.554100	-10.574000	24.309431	0.000160	20.944088
867.246231	-2.985100	3.554100	-10.609000	24.314861	0.000161	20.950008
868.246632	-2.971700	3.553900	-10.561000	24.316470	0.000159	20.937873
869.246689	-2.993300	3.553200	-10.635000	24.341994	0.000159	20.937399
870.250048	-2.980400	3.553500	-10.589000	24.330907	0.000159	20.927700
871.245410	-3.002200	3.553000	-10.666000	24.328313	0.000160	20.914194
872.244643	-3.000600	3.550800	-10.653000	24.327979	0.000158	20.924290
873.249044	-2.983700	3.552700	-10.599000	24.342709	0.000157	20.943331
874.246565	-3.002700	3.551800	-10.664000	24.349224	0.000155	20.929005
875.247873	-3.007700	3.551100	-10.680000	24.310234	0.000156	20.912180
876.250122	-3.000500	3.550800	-10.653000	24.334150	0.000155	20.946124
877.246816	-2.976000	3.550700	-10.566000	24.344013	0.000157	20.928520
878.247649	-2.973800	3.550900	-10.558000	24.326166	0.000156	20.947598
879.246815	-2.990300	3.549400	-10.613000	24.338671	0.000154	20.933118
880.246692	-3.006700	3.550300	-10.674000	24.332310	0.000154	20.954235
881.251852	-3.019600	3.548100	-10.713000	24.340320	0.000152	20.937616
882.248725	-2.964200	3.550000	-10.522000	24.332475	0.000154	20.919317
883.247496	-3.000800	3.547800	-10.645000	24.337305	0.000154	20.925109
884.249158	-2.974900	3.549000	-10.557000	24.340448	0.000153	20.932055
885.248241	-2.993900	3.547000	-10.619000	24.352749	0.000153	20.921636
886.252615	-2.999300	3.547600	-10.639000	24.361946	0.000154	20.931335
887.257993	-3.023600	3.546600	-10.722000	24.355559	0.000153	20.909758
888.248251	-2.990100	3.546200	-10.602000	24.349352	0.000151	20.918229
889.251174	-3.018500	3.547500	-10.706000	24.349414	0.000150	20.909284
890.250742	-3.010700	3.546700	-10.676000	24.358318	0.000149	20.924852
891.250551	-2.969200	3.545600	-10.526000	24.328603	0.000151	20.922070
892.250654	-2.985100	3.545700	-10.584000	24.347114	0.000152	20.941111
893.250718	-2.989000	3.544700	-10.594000	24.346527	0.000150	20.917292
894.252892	-3.011600	3.544000	-10.671000	24.362111	0.000149	20.921545
895.252731	-3.028000	3.543900	-10.730000	24.367273	0.000151	20.926723
896.250840	-2.991800	3.545500	-10.606000	24.380251	0.000148	20.929310
897.254660	-3.011200	3.543000	-10.668000	24.381489	0.000147	20.914433
898.252621	-2.984300	3.543800	-10.575000	24.365280	0.000146	20.928042
899.250941	-2.999400	3.543000	-10.626000	24.376763	0.000147	20.911115
900.255976	-2.975500	3.544800	-10.547000	24.367629	0.000148	20.921865
901.255285	-2.989900	3.543000	-10.592000	24.378360	0.000147	20.912717
902.255479	-3.007400	3.542400	-10.652000	24.365431	0.000146	20.917289
903.259015	-3.008900	3.542400	-10.657000	24.368039	0.000145	20.915165
904.256413	-2.999000	3.542000	-10.621000	24.386956	0.000145	20.928451
905.258378	-3.004600	3.541300	-10.639000	24.384618	0.000145	20.934166
906.256558	-2.999200	3.541800	-10.621000	24.378206	0.000145	20.922519
907.255881	-2.991700	3.541800	-10.594000	24.372330	0.000145	20.901927
908.260818	-2.985700	3.542000	-10.574000	24.418930	0.000145	20.915484
909.256930	-2.987700	3.539800	-10.575000	24.384607	0.000144	20.910923
910.258765	-2.991600	3.540600	-10.591000	24.400882	0.000143	20.934360
911.257295	-2.998400	3.539400	-10.611000	24.402120	0.000144	20.923750
912.258686	-3.003500	3.539900	-10.632000	24.417589	0.000142	20.933103
913.262585	-2.991200	3.539000	-10.585000	24.402286	0.000143	20.907796
914.258386	-2.988200	3.538800	-10.573000	24.408495	0.000141	20.927774
915.259122	-2.996200	3.539100	-10.603000	24.423363	0.000141	20.913768
916.260069	-3.004200	3.537800	-10.628000	24.417333	0.000140	20.920994
917.258824	-3.015300	3.537000	-10.664000	24.418714	0.000139	20.920008
918.259813	-3.008000	3.538200	-10.642000	24.415585	0.000141	20.932989
919.261345	-3.002900	3.537400	-10.621000	24.408379	0.000140	20.918175
920.260862	-2.990200	3.537500	-10.576000	24.422597	0.000141	20.928645
921.260428	-3.004400	3.536000	-10.623000	24.410679	0.000140	20.912897
922.260918	-2.999900	3.536100	-10.606000	24.427324	0.000139	20.929119
923.260097	-3.010000	3.536500	-10.644000	24.416453	0.000139	20.925800
924.264704	-3.008200	3.535200	-10.634000	24.422828	0.000138	20.900430
925.262037	-3.011500	3.534600	-10.644000	24.435398	0.000140	20.906402
926.262658	-3.030600	3.535300	-10.713000	24.446906	0.000139	20.920791
927.267208	-3.005600	3.536000	-10.627000	24.424975	0.000138	20.894998
928.261617	-3.009000	3.534700	-10.634000	24.422062	0.000136	20.914359
929.260376	-3.002400	3.535100	-10.612000	24.445349	0.000137	20.903583
930.265276	-3.006400	3.534400	-10.624000	24.438388	0.000136	20.917935
931.262877	-2.995600	3.534600	-10.587000	24.447111	0.000134	20.898714
932.266428	-3.014900	3.533000	-10.650000	24.431976	0.000134	20.915296
933.263923	-3.001800	3.534300	-10.608000	24.428616	0.000136	20.889169
934.265187	-3.002700	3.532200	-10.605000	24.431925	0.000135	20.918563
935.267505	-3.004400	3.533600	-10.615000	24.446807	0.000135	20.907890
936.266307	-2.982500	3.532200	-10.533000	24.420468	0.000134	20.918923
937.264697	-2.969300	3.532300	-10.487000	24.411514	0.000133	20.895244
938.265999	-2.977400	3.531200	-10.512000	24.430137	0.000134	20.895435
939.277514	-3.018400	3.529400	-10.652000	24.432847	0.000134	20.923756
940.267347	-2.990600	3.530500	-10.557000	24.422051	0.000133	20.904392
941.266444	-3.013400	3.529300	-10.634000	24.462659	0.000133	20.925689
942.266113	-3.035000	3.529900	-10.712000	24.441648	0.000132	20.908879
943.269210	-2.994700	3.529900	-10.569000	24.442568	0.000133	20.911698
944.265912	-2.998200	3.530800	-10.585000	24.464348	0.000133	20.905574
945.267193	-3.002000	3.528800	-10.592000	24.452786	0.000132	20.886864
946.268147	-3.015500	3.528800	-10.640000	24.460131	0.000131	20.893284
947.266504	-3.028700	3.529100	-10.688000	24.446924	0.000130	20.898525
948.267410	-3.004600	3.528600	-10.601000	24.457017	0.000130	20.893953
949.267861	-3.018600	3.527200	-10.646000	24.469265	0.000131	20.915722
950.269280	-2.992100	3.528200	-10.556000	24.474987	0.000129	20.902498
951.273667	-2.994200	3.528000	-10.562000	24.473697	0.000129	20.904997
952.270266	-3.024300	3.527300	-10.667000	24.443783	0.000129	20.887315
953.269885	-3.001000	3.527700	-10.586000	24.470122	0.000126	20.913263
954.270665	-2.996100	3.527500	-10.567000	24.470748	0.000127	20.918632
955.272316	-3.014400	3.525000	-10.624000	24.471833	0.000127	20.893644
956.271086	-3.006700	3.526000	-10.600000	24.469265	0.000128	20.914299
957.275330	-3.011300	3.525400	-10.614000	24.490711	0.000126	20.903101
958.271807	-3.011800	3.524800	-10.615000	24.469686	0.000125	20.895758
959.275271	-3.016100	3.524400	-10.629000	24.480046	0.000127	20.895721
960.271768	-3.019200	3.523600	-10.638000	24.497225	0.000125	20.892568
961.273183	-3.006500	3.522900	-10.590000	24.463069	0.000125	20.898128
962.276810	-3.006900	3.523300	-10.593000	24.494276	0.000123	20.903832
963.274870	-2.996100	3.524400	-10.558000	24.475727	0.000124	20.892810
964.273628	-2.991000	3.523800	-10.539000	24.492243	0.000124	20.891362
965.275094	-2.983700	3.522700	-10.510000	24.482344	0.000123	20.893758
966.276580	-3.023500	3.522000	-10.648000	24.502153	0.000125	20.858633
967.276995	-3.018300	3.522700	-10.632000	24.489444	0.000121	20.916053
968.278812	-3.001300	3.523600	-10.573000	24.482674	0.000125	20.892667
969.275448	-2.995600	3.522800	-10.552000	24.483824	0.000122	20.867745
970.277372	-2.998800	3.521500	-10.560000	24.489265	0.000121	20.904969
971.278687	-2.965000	3.521400	-10.440000	24.470694	0.000122	20.879701
972.277344	-3.006500	3.520300	-10.583000	24.492738	0.000122	20.878584
973.278810	-3.012000	3.520700	-10.604000	24.490082	0.000120	20.895358
974.278861	-3.003500	3.521100	-10.574000	24.484462	0.000121	20.873126
975.280025	-3.030700	3.520400	-10.669000	24.485037	0.000120	20.883185
976.279869	-3.017200	3.518700	-10.616000	24.491551	0.000121	20.881186
977.279238	-3.011500	3.519000	-10.597000	24.495101	0.000119	20.880006
978.282235	-3.032000	3.519500	-10.668000	24.519841	0.000118	20.896292
979.279266	-3.023400	3.518200	-10.636000	24.495662	0.000120	20.876776
980.278380	-3.013800	3.518500	-10.603000	24.504450	0.000118	20.880851
981.280100	-2.980400	3.518400	-10.485000	24.507795	0.000118	20.906491
982.278902	-3.004800	3.518400	-10.572000	24.503773	0.000119	20.886809
983.282962	-2.993000	3.518500	-10.530000	24.506594	0.000118	20.877787
984.282444	-3.000100	3.517100	-10.550000	24.507220	0.000117	20.890742
985.278757	-3.010900	3.515700	-10.584000	24.515650	0.000117	20.891139
986.284575	-2.988700	3.516700	-10.509000	24.519468	0.000116	20.900658
987.280898	-3.008300	3.517400	-10.580000	24.512815	0.000116	20.878812
988.281521	-2.997700	3.517500	-10.543000	24.518893	0.000114	20.874479
989.284430	-3.005900	3.516300	-10.569000	24.518599	0.000116	20.892202
990.280787	-3.013800	3.515400	-10.594000	24.533748	0.000116	20.883693
991.282588	-2.995400	3.515400	-10.529000	24.536558	0.000114	20.886038
992.282599	-3.005500	3.513200	-10.558000	24.538639	0.000115	20.890022
993.285867	-2.973100	3.515300	-10.451000	24.525828	0.000115	20.890445
994.283265	-2.997500	3.514200	-10.533000	24.529557	0.000111	20.880437
995.282312	-3.006300	3.514200	-10.564000	24.535279	0.000112	20.895186
996.282692	-3.015800	3.512600	-10.592000	24.532327	0.000113	20.892698
997.285472	-3.021500	3.513000	-10.614000	24.525828	0.000112	20.883333
998.281377	-2.998400	3.512500	-10.531000	24.524945	0.000111	20.880551
999.283411	-3.018900	3.513000	-10.605000	24.543083	0.000114	20.875990
1000.282943	-3.017300	3.511000	-10.592000	24.566660	0.000113	20.876413
1001.282363	-3.025800	3.511900	-10.625000	24.547629	0.000110	20.899516
1002.285847	-3.019100	3.512100	-10.603000	24.549380	0.000112	20.874722
1003.282294	-3.013000	3.512300	-10.581000	24.546786	0.000112	20.867853
1004.285956	-2.971300	3.513300	-10.437000	24.557143	0.000111	20.870658
1005.286467	-3.007000	3.510200	-10.554000	24.541141	0.000110	20.880206
1006.283504	-2.975800	3.511600	-10.448000	24.565675	0.000107	20.866416
1007.282661	-2.980600	3.510500	-10.461000	24.547270	0.000111	20.847951
1008.287353	-3.011600	3.510100	-10.569000	24.558088	0.000111	20.876821
1009.284865	-3.000000	3.509000	-10.526000	24.527689	0.000110	20.875245
1010.286295	-2.982600	3.511100	-10.471000	24.558114	0.000108	20.886329
1011.287885	-3.002000	3.508500	-10.532000	24.553784	0.000107	20.869184
1012.285013	-2.997800	3.508800	-10.518000	24.562788	0.000109	20.869684
1013.288814	-3.003900	3.508100	-10.537000	24.534408	0.000106	20.880089
1014.286579	-3.004700	3.507700	-10.539000	24.557667	0.000107	20.854115
1015.285581	-3.019000	3.506600	-10.585000	24.550883	0.000105	20.868644
1016.291097	-3.013700	3.506900	-10.567000	24.561077	0.000107	20.885510
1017.286323	-2.986600	3.507700	-10.475000	24.537409	0.000106	20.869349
1018.289135	-2.987000	3.506300	-10.472000	24.548047	0.000104	20.845886
1019.288210	-3.014600	3.505100	-10.565000	24.552568	0.000104	20.874602
1020.286350	-3.004200	3.505800	-10.531000	24.565532	0.000103	20.858213
1021.287486	-2.988200	3.507200	-10.480000	24.551777	0.000105	20.850102
1022.293891	-3.027100	3.504300	-10.607000	24.565404	0.000105	20.856188
1023.287745	-2.985300	3.505400	-10.464000	24.557601	0.000103	20.871117
1024.290079	-3.007400	3.504700	-10.539000	24.560921	0.000102	20.841733
1025.285746	-2.998500	3.504500	-10.507000	24.569376	0.000103	20.846897
1026.286741	-2.990000	3.505000	-10.479000	24.574446	0.000104	20.855303
1027.287428	-2.989500	3.505300	-10.477000	24.548099	0.000103	20.850204
1028.291886	-2.995600	3.503600	-10.494000	24.561649	0.000103	20.844361
1029.290078	-2.998300	3.502800	-10.501000	24.568954	0.000101	20.866862
1030.289516	-2.996900	3.502800	-10.497000	24.577702	0.000101	20.846717
1031.294945	-2.983200	3.503200	-10.450000	24.588355	0.000101	20.855034
1032.293078	-3.008000	3.501500	-10.531000	24.584179	0.000102	20.857482
1033.290539	-2.999200	3.501800	-10.502000	24.577116	9.890230E-5	20.832853
1034.291784	-3.005600	3.502100	-10.526000	24.565122	0.000101	20.861121
1035.290659	-2.978700	3.501400	-10.429000	24.578599	9.929824E-5	20.871323
1036.300152	-2.977500	3.501200	-10.424000	24.577526	9.820940E-5	20.861712
1037.293318	-2.991000	3.501000	-10.472000	24.589812	9.906727E-5	20.859815
1038.292758	-2.982100	3.499700	-10.436000	24.598996	9.840737E-5	20.858125
1039.290520	-3.010800	3.499900	-10.536000	24.579302	9.959519E-5	20.845003
1040.293498	-3.010600	3.498600	-10.532000	24.597106	9.939722E-5	20.847694
1041.290076	-3.010900	3.498900	-10.534000	24.594028	9.952920E-5	20.866890
1042.300677	-2.989500	3.499400	-10.460000	24.595193	9.870433E-5	20.837714
1043.293561	-2.983900	3.500000	-10.443000	24.601834	9.738453E-5	20.851964
1044.291719	-2.998900	3.498700	-10.492000	24.598259	9.735154E-5	20.848377
1045.295782	-2.991300	3.497600	-10.461000	24.603724	9.705458E-5	20.821145
1046.292187	-2.983500	3.497200	-10.433000	24.607442	9.632869E-5	20.847160
1047.293277	-3.010100	3.496700	-10.524000	24.615857	9.616372E-5	20.840905
1048.296116	-2.990500	3.496900	-10.456000	24.609014	9.240230E-5	20.847788
1049.292950	-3.005700	3.496100	-10.507000	24.610827	9.411803E-5	20.842970
1050.292626	-2.997500	3.497200	-10.482000	24.622487	9.497590E-5	20.843290
1051.295424	-2.999700	3.496200	-10.486000	24.616959	9.685661E-5	20.847226
1052.292455	-3.000100	3.496900	-10.489000	24.610178	9.533885E-5	20.848482
1053.292452	-3.025000	3.494900	-10.571000	24.578019	9.405204E-5	20.832810
1054.299822	-3.015200	3.496300	-10.541000	24.606947	9.401905E-5	20.831491
1055.295825	-3.015000	3.495100	-10.536000	24.618556	9.157742E-5	20.848828
1056.298148	-2.993000	3.494400	-10.458000	24.635761	9.355712E-5	20.854238
1057.295154	-3.002200	3.494700	-10.490000	24.606438	9.207235E-5	20.853738
1058.296167	-3.004500	3.494600	-10.499000	24.612760	9.154443E-5	20.861504
1059.299597	-3.026900	3.493600	-10.574000	24.642940	9.332616E-5	20.853381
1060.294553	-3.016400	3.493300	-10.536000	24.609518	9.075255E-5	20.843079
1061.297601	-2.996700	3.494400	-10.471000	24.594345	9.180839E-5	20.836863
1062.299032	-3.009000	3.492900	-10.509000	24.629658	9.256727E-5	20.841002
1063.297809	-2.991500	3.493200	-10.449000	24.624079	8.923479E-5	20.846309
1064.297781	-2.990600	3.493800	-10.448000	24.591421	9.131347E-5	20.824447
1065.301457	-3.002000	3.492900	-10.485000	24.605726	8.867387E-5	20.841645
1066.297391	-3.037700	3.492700	-10.609000	24.620401	8.870687E-5	20.828395
1067.299321	-3.004500	3.491000	-10.487000	24.610913	9.048859E-5	20.848271
1068.297122	-2.989000	3.491200	-10.435000	24.609023	8.926778E-5	20.830254
1069.298601	-3.025500	3.490900	-10.560000	24.629624	8.920179E-5	20.830063
1070.300463	-2.999000	3.491100	-10.468000	24.598641	8.715611E-5	20.836907
1071.299091	-3.005600	3.490000	-10.489000	24.611055	8.705712E-5	20.845570
1072.302846	-2.991400	3.489600	-10.438000	24.637506	8.807996E-5	20.821377
1073.300828	-2.986200	3.488900	-10.418000	24.612627	8.897083E-5	20.839086
1074.302093	-2.996800	3.489100	-10.455000	24.629781	8.804697E-5	20.829746
1075.306933	-3.002000	3.489400	-10.473000	24.632502	8.659519E-5	20.826787
1076.308805	-2.966300	3.489500	-10.349000	24.633305	8.649621E-5	20.841342
1077.310560	-2.989800	3.487700	-10.427000	24.625568	8.666118E-5	20.824096
1078.305225	-3.016800	3.487000	-10.519000	24.621403	8.537438E-5	20.816124
1079.302787	-3.016000	3.486200	-10.513000	24.628964	8.557235E-5	20.849314
1080.312093	-3.006600	3.487000	-10.483000	24.631213	8.388961E-5	20.832131
1081.308632	-2.982800	3.487900	-10.402000	24.626949	8.471448E-5	20.825482
1082.304991	-2.994600	3.487200	-10.442000	24.635184	8.441753E-5	20.842753
1083.307391	-3.013700	3.485700	-10.504000	24.639337	8.626524E-5	20.827955
1084.305067	-3.002900	3.486100	-10.468000	24.641125	8.332869E-5	20.822163
1085.306900	-3.006500	3.485300	-10.477000	24.632223	8.293276E-5	20.829826
1086.308951	-3.004100	3.486200	-10.471000	24.637231	8.398859E-5	20.828213
1087.313067	-2.989500	3.484300	-10.416000	24.624128	8.273479E-5	20.839246
1088.310995	-2.994600	3.485800	-10.437000	24.626003	8.223986E-5	20.827853
1089.312905	-3.013900	3.484200	-10.500000	24.622109	8.276778E-5	20.834851
1090.307866	-2.984800	3.485500	-10.402000	24.620820	8.217387E-5	20.841617
1091.309085	-3.002200	3.483600	-10.458000	24.619237	8.316372E-5	20.829598
1092.307261	-2.995400	3.483300	-10.433000	24.641421	8.131600E-5	20.824831
1093.307429	-2.982100	3.484500	-10.390000	24.644307	8.092007E-5	20.841003
1094.312178	-2.989100	3.484400	-10.414000	24.641088	8.240484E-5	20.827816
1095.307974	-2.995500	3.483000	-10.432000	24.638893	8.035915E-5	20.834148
1096.308159	-2.983600	3.483000	-10.391000	24.645560	8.075509E-5	20.815708
1097.310615	-2.991600	3.482800	-10.417000	24.632494	8.068910E-5	20.836262
1098.309016	-3.005800	3.480400	-10.461000	24.665967	8.006220E-5	20.818167
1099.311814	-3.013900	3.481900	-10.493000	24.646952	8.059012E-5	20.824217
1100.309366	-2.974100	3.481400	-10.353000	24.660260	7.917133E-5	20.837096
1101.308892	-2.981500	3.481600	-10.380000	24.644743	7.795052E-5	20.840018
1102.314141	-2.998900	3.480100	-10.436000	24.657080	7.943529E-5	20.835802
1103.309758	-2.987500	3.480100	-10.396000	24.641282	7.814849E-5	20.835122
1104.310254	-2.981800	3.481600	-10.379000	24.648688	8.009519E-5	20.825959
1105.313977	-2.986100	3.479700	-10.390000	24.667322	7.715864E-5	20.827587
1106.313185	-3.012000	3.478000	-10.475000	24.668307	7.527793E-5	20.815774
1107.320167	-2.993400	3.479100	-10.414000	24.657373	7.722463E-5	20.819975
1108.312932	-2.996000	3.478000	-10.419000	24.667080	7.465103E-5	20.836827
1109.311870	-3.001700	3.477500	-10.437000	24.653582	7.808250E-5	20.837507
1110.317945	-3.010800	3.478400	-10.472000	24.665227	7.458504E-5	20.827856
1111.313297	-3.010900	3.476700	-10.467000	24.678523	7.656474E-5	20.822706
1112.316965	-2.996100	3.478600	-10.421000	24.662366	7.715864E-5	20.828778
1113.315292	-3.020900	3.477100	-10.503000	24.658509	7.593783E-5	20.835813
1114.314844	-3.003200	3.477300	-10.442000	24.674307	7.577286E-5	20.830329
1115.317000	-3.000300	3.476800	-10.431000	24.667424	7.540991E-5	20.840966
1116.313746	-2.995300	3.477300	-10.414000	24.678816	7.455205E-5	20.829164
1117.312688	-2.990700	3.476700	-10.397000	24.669556	7.534392E-5	20.852114
1118.324393	-3.026600	3.475300	-10.518000	24.674410	7.379316E-5	20.833277
1119.316104	-3.005500	3.474900	-10.443000	24.660835	7.250636E-5	20.843837
1120.315216	-2.986700	3.475700	-10.380000	24.694728	7.072463E-5	20.858880
1121.328555	-2.983800	3.475400	-10.369000	24.679772	7.382616E-5	20.831546
1122.313744	-3.013200	3.473900	-10.467000	24.685853	7.016372E-5	20.833854
1123.319784	-2.991700	3.475500	-10.396000	24.676926	6.976778E-5	20.829638
1124.316761	-3.008600	3.473400	-10.449000	24.685648	7.168149E-5	20.849295
1125.319579	-3.015800	3.472700	-10.471000	24.673963	7.306727E-5	20.831880
1126.323332	-3.016600	3.473400	-10.477000	24.682201	7.217641E-5	20.821181
1127.319464	-3.011600	3.472200	-10.456000	24.692186	7.280331E-5	20.843528
1128.318703	-3.020200	3.472200	-10.486000	24.698468	6.976778E-5	20.847461
1129.320698	-3.008500	3.472300	-10.446000	24.688380	6.953682E-5	20.852037
1130.322709	-3.004700	3.470700	-10.427000	24.691867	6.953682E-5	20.843682
1131.319003	-2.983000	3.473100	-10.359000	24.705391	6.996575E-5	20.847769
1132.321664	-2.999800	3.471500	-10.413000	24.711405	6.884392E-5	20.857124
1133.319605	-2.975700	3.472200	-10.331000	24.694802	6.867895E-5	20.832877
1134.319754	-3.008100	3.471300	-10.441000	24.693395	6.792007E-5	20.855647
1135.324319	-3.000800	3.469800	-10.411000	24.706512	6.745814E-5	20.852688
1136.321777	-2.989100	3.470200	-10.371000	24.707750	6.722717E-5	20.849663
1137.322728	-2.994900	3.468800	-10.388000	24.709626	6.613834E-5	20.843011
1138.319817	-2.994100	3.469200	-10.385000	24.688721	6.716118E-5	20.842422
1139.325229	-2.999300	3.468800	-10.403000	24.708900	6.745814E-5	20.840860
1140.321417	-2.987000	3.469400	-10.362000	24.708094	6.498352E-5	20.840526
1141.320361	-2.994600	3.468600	-10.386000	24.701377	6.673225E-5	20.839949
1142.322692	-3.001400	3.468400	-10.409000	24.718475	6.676524E-5	20.841460
1143.322593	-2.995200	3.467700	-10.386000	24.709728	6.834900E-5	20.853070
1144.335382	-3.020000	3.466100	-10.466000	24.702040	6.617134E-5	20.840140
1145.322416	-3.006000	3.467000	-10.420000	24.714094	6.412565E-5	20.838486
1146.321631	-2.979800	3.467300	-10.331000	24.714299	6.557743E-5	20.853864
1147.322280	-3.002200	3.466200	-10.405000	24.704849	6.396068E-5	20.844856
1148.325150	-3.006400	3.466100	-10.420000	24.716636	6.495052E-5	20.855735
1149.325406	-3.015100	3.465800	-10.448000	24.696370	6.504951E-5	20.846304
1150.321794	-2.972200	3.466200	-10.301000	24.721936	6.412565E-5	20.858209
1151.324760	-2.996100	3.465900	-10.383000	24.726801	6.376271E-5	20.860245
1152.325916	-3.009100	3.464500	-10.424000	24.703073	6.072717E-5	20.857297
1153.323993	-2.980700	3.464900	-10.327000	24.730057	6.379570E-5	20.857349
1154.323669	-3.011300	3.464500	-10.432000	24.706087	6.082616E-5	20.856529
1155.324491	-3.000800	3.464800	-10.396000	24.697238	6.264088E-5	20.850494
1156.329907	-3.003700	3.462600	-10.400000	24.721948	6.118910E-5	20.859168
1157.325858	-3.001900	3.463500	-10.396000	24.731244	6.392768E-5	20.856643
1158.325297	-3.020900	3.461700	-10.456000	24.716736	6.254189E-5	20.866740
1159.327011	-2.991300	3.462200	-10.355000	24.738394	6.168403E-5	20.855284
1160.326746	-3.003000	3.463400	-10.399000	24.745379	5.818656E-5	20.863241
1161.328492	-2.992800	3.462200	-10.361000	24.747972	6.089215E-5	20.869636
1162.331005	-2.996700	3.462700	-10.377000	24.729365	6.043022E-5	20.881309
1163.332838	-3.007000	3.461700	-10.409000	24.748316	5.798859E-5	20.864766
1164.329988	-3.018300	3.459100	-10.440000	24.741445	6.082616E-5	20.851233
1165.327501	-3.007200	3.459200	-10.401000	24.722531	5.812057E-5	20.845529
1166.327384	-3.001200	3.460300	-10.383000	24.755605	5.884646E-5	20.846952
1167.330003	-3.019200	3.459700	-10.445000	24.733321	6.000128E-5	20.862995
1168.327269	-3.025600	3.459500	-10.465000	24.725915	5.944037E-5	20.865994
1169.327880	-2.988500	3.460100	-10.339000	24.731534	5.874748E-5	20.877796
1170.328489	-2.997800	3.459100	-10.369000	24.729453	5.746067E-5	20.867174
1171.326715	-2.988600	3.460900	-10.341000	24.736361	5.818656E-5	20.859408
1172.339912	-2.995700	3.460200	-10.365000	24.741046	5.930839E-5	20.872643
1173.328139	-2.995200	3.457200	-10.354000	24.727754	5.752666E-5	20.864046
1174.328515	-2.997100	3.458400	-10.365000	24.752437	5.534900E-5	20.869376
1175.332887	-3.005700	3.459000	-10.396000	24.743562	5.541499E-5	20.887021
1176.328687	-3.002500	3.456900	-10.378000	24.742643	5.647083E-5	20.845324
1177.336859	-3.024500	3.456100	-10.452000	24.756283	5.660281E-5	20.900733
1178.333760	-2.988000	3.456900	-10.328000	24.752309	5.505205E-5	20.862609
1179.331882	-2.996900	3.456700	-10.359000	24.737969	5.564595E-5	20.860073
1180.334349	-3.003600	3.456100	-10.380000	24.766945	5.366626E-5	20.854064
1181.337985	-3.015400	3.456300	-10.421000	24.767392	5.449113E-5	20.865891
1182.339773	-2.973300	3.456700	-10.277000	24.754814	5.386423E-5	20.881243
1183.336740	-2.984500	3.455100	-10.311000	24.772948	5.105966E-5	20.886164
1184.333965	-2.979100	3.455600	-10.294000	24.762260	5.386423E-5	20.862164
1185.342435	-3.004300	3.453800	-10.376000	24.747038	5.488707E-5	20.885767
1186.336123	-2.992200	3.453700	-10.334000	24.769424	5.340230E-5	20.860819
1187.334680	-3.025100	3.454400	-10.448000	24.762516	5.429316E-5	20.872852
1188.334182	-2.984600	3.455200	-10.311000	24.761967	5.294037E-5	20.895532
1189.339904	-3.021300	3.454600	-10.436000	24.765659	5.204951E-5	20.889281
1190.339505	-2.990500	3.452300	-10.323000	24.762989	5.195052E-5	20.889446
1191.336998	-2.981900	3.452700	-10.295000	24.779679	5.254443E-5	20.879170
1192.334407	-3.008900	3.453100	-10.389000	24.764674	4.937692E-5	20.878810
1193.336084	-2.995400	3.452700	-10.341000	24.773830	5.303935E-5	20.869981
1194.341850	-2.998500	3.451700	-10.349000	24.749312	5.003682E-5	20.893265
1195.337149	-2.999300	3.451200	-10.351000	24.785323	5.023479E-5	20.890049
1196.337577	-2.992500	3.451000	-10.326000	24.780368	5.043276E-5	20.888869
1197.338088	-3.022200	3.450700	-10.428000	24.775376	4.977286E-5	20.895712
1198.336707	-3.000500	3.450600	-10.353000	24.791209	4.901397E-5	20.887895
1199.337765	-3.017600	3.449600	-10.408000	24.773958	4.795814E-5	20.903772
1200.343094	-2.986500	3.449600	-10.301000	24.795106	4.973986E-5	20.897021
1201.339141	-2.980700	3.450600	-10.284000	24.783038	4.818910E-5	20.901031
1202.342999	-2.993500	3.449600	-10.325000	24.789319	4.759519E-5	20.898326
1203.340227	-2.986100	3.449100	-10.298000	24.783038	4.624240E-5	20.911935
1204.343830	-2.992800	3.449700	-10.323000	24.791619	4.756220E-5	20.910116
1205.349469	-3.019700	3.449000	-10.414000	24.791352	4.789215E-5	20.880926
1206.340737	-3.012300	3.447500	-10.383000	24.781888	4.601143E-5	20.897506
1207.340981	-2.984500	3.447600	-10.287000	24.798362	4.607742E-5	20.914037
1208.342221	-2.989400	3.448100	-10.307000	24.811463	4.436169E-5	20.874083
1209.341138	-2.995100	3.448400	-10.327000	24.805972	4.505458E-5	20.901288
1210.343655	-3.006900	3.447800	-10.366000	24.799933	4.604443E-5	20.918458
1211.341887	-2.988700	3.446800	-10.301000	24.801606	4.650636E-5	20.929146
1212.342398	-2.979300	3.446200	-10.267000	24.792091	4.472463E-5	20.887832
1213.342266	-2.975700	3.446700	-10.256000	24.810415	4.492260E-5	20.903375
1214.342175	-2.971900	3.446600	-10.241000	24.805782	4.713326E-5	20.895881
1215.344575	-3.004700	3.445400	-10.352000	24.782580	4.627539E-5	20.892511
1216.345376	-2.980400	3.446100	-10.270000	24.811579	4.406473E-5	20.912603
1217.344027	-2.978500	3.445700	-10.262000	24.823519	4.393275E-5	20.922688
1218.342809	-2.987900	3.443600	-10.288000	24.813930	4.241499E-5	20.902162
1219.342899	-3.022700	3.442600	-10.405000	24.828844	4.314088E-5	20.905749
1220.343509	-2.996700	3.443400	-10.317000	24.828372	4.261296E-5	20.928980
1221.346880	-3.007300	3.442800	-10.352000	24.816586	4.267895E-5	20.908145
1222.348576	-3.025700	3.442900	-10.417000	24.818655	4.192006E-5	20.913540
1223.346338	-2.997100	3.441800	-10.313000	24.815538	4.109519E-5	20.914680
1224.344988	-3.009700	3.441400	-10.357000	24.837872	4.271194E-5	20.918601
1225.348749	-2.991300	3.441900	-10.295000	24.834795	4.241499E-5	20.932582
1226.347448	-2.988300	3.441400	-10.282000	24.836659	4.043529E-5	20.919755
1227.346090	-2.997800	3.441900	-10.316000	24.842457	4.135915E-5	20.924625
1228.347166	-2.986100	3.441000	-10.274000	24.834949	4.086423E-5	20.939373
1229.352582	-2.993100	3.442200	-10.302000	24.846288	4.112819E-5	20.920409
1230.345970	-3.011500	3.441300	-10.363000	24.834898	3.865357E-5	20.926047
1231.349539	-2.976400	3.441400	-10.243000	24.822830	3.891753E-5	20.915834
1232.348638	-2.990300	3.439100	-10.283000	24.813190	4.050128E-5	20.927021
1233.345594	-3.019400	3.438900	-10.383000	24.847258	4.033631E-5	20.930865
1234.346400	-3.017000	3.438900	-10.374000	24.844922	3.832362E-5	20.913349
1235.346041	-3.004900	3.438500	-10.332000	24.835037	3.660788E-5	20.909593
1236.345804	-3.024100	3.437900	-10.395000	24.839022	3.756473E-5	20.920229
1237.348034	-2.992600	3.439000	-10.291000	24.843607	3.789468E-5	20.935261
1238.345973	-2.968100	3.440400	-10.209000	24.865043	3.845560E-5	20.931171
1239.348182	-3.012100	3.436900	-10.351000	24.850232	3.522209E-5	20.921523
1240.346804	-3.000300	3.436800	-10.311000	24.832547	3.631093E-5	20.916102
1241.349202	-3.001500	3.437800	-10.317000	24.875195	3.565103E-5	20.938039
1242.358537	-2.994400	3.437300	-10.291000	24.854829	3.551905E-5	20.953633
1243.347613	-3.007200	3.437500	-10.336000	24.843120	3.538707E-5	20.940461
1244.346406	-2.981500	3.437000	-10.247000	24.847116	3.687184E-5	20.930248
1245.356953	-2.992800	3.435600	-10.281000	24.875385	3.413326E-5	20.942498
1246.347970	-2.980300	3.436300	-10.241000	24.870368	3.340737E-5	20.946470
1247.347726	-2.999500	3.435900	-10.305000	24.861175	3.542006E-5	20.943409
1248.354076	-3.007800	3.435900	-10.333000	24.867738	3.518910E-5	20.945254
1249.358816	-2.990900	3.434500	-10.270000	24.868159	3.499113E-5	20.917704
1250.348089	-3.009300	3.434600	-10.335000	24.889994	3.489214E-5	20.940090
1251.357002	-2.974200	3.436000	-10.218000	24.877799	3.311042E-5	20.954401
1252.348984	-2.983300	3.435700	-10.248000	24.876649	3.466118E-5	20.939973
1253.351854	-3.004000	3.433600	-10.314000	24.876879	3.360534E-5	20.932145
1254.361849	-3.004100	3.433400	-10.313000	24.882420	3.307742E-5	20.947187
1255.350582	-2.998800	3.433600	-10.295000	24.878143	3.043783E-5	20.966125
1256.357291	-3.008100	3.432600	-10.325000	24.887079	3.307742E-5	20.948069
1257.357520	-3.010800	3.433000	-10.336000	24.875320	3.043783E-5	20.951439
1258.351140	-2.989400	3.431500	-10.256000	24.872115	3.162565E-5	20.966239
1259.356990	-2.976200	3.432300	-10.214000	24.886889	3.004189E-5	20.968264
1260.355939	-2.998200	3.430700	-10.285000	24.900933	3.119671E-5	20.962446
1261.349891	-2.995000	3.432400	-10.278000	24.896183	2.987691E-5	20.963369
1262.356988	-2.987100	3.430900	-10.248000	24.881359	2.882108E-5	20.952759
1263.350525	-2.988800	3.431200	-10.255000	24.882087	2.967894E-5	20.962972
1264.352669	-2.980800	3.430800	-10.227000	24.889683	2.694036E-5	20.948312
1265.351778	-2.986300	3.430500	-10.244000	24.892774	2.730331E-5	20.961844
1266.360525	-2.978700	3.430400	-10.216000	24.876799	2.984392E-5	20.953873
1267.354062	-2.998300	3.430100	-10.283000	24.890284	2.740229E-5	20.948915
1268.353857	-2.983600	3.430200	-10.233000	24.875829	2.839214E-5	20.944839
1269.353376	-2.995500	3.430500	-10.275000	24.893463	2.763326E-5	20.980550
1270.357269	-3.012800	3.428200	-10.327000	24.909730	2.829316E-5	20.958948
1271.355130	-3.005900	3.428200	-10.304000	24.895173	2.614849E-5	20.971836
1272.353387	-2.998700	3.427700	-10.278000	24.904328	2.611549E-5	20.961587
1273.363633	-3.007400	3.427000	-10.305000	24.900293	2.598351E-5	20.955640
1274.355670	-3.029400	3.427200	-10.381000	24.897689	2.727031E-5	20.965828
1275.359354	-3.013400	3.427000	-10.325000	24.898275	2.707234E-5	20.993438
1276.357788	-2.975800	3.425800	-10.193000	24.893093	2.657742E-5	20.962164
1277.356535	-3.013900	3.425900	-10.323000	24.899439	2.677539E-5	20.950043
1278.358921	-2.999800	3.426600	-10.278000	24.908071	2.647844E-5	20.980039
1279.360395	-2.991200	3.426000	-10.247000	24.907507	2.713833E-5	20.958139
1280.367997	-2.997700	3.425300	-10.267000	24.924847	2.459772E-5	20.967007
1281.360592	-3.007400	3.423800	-10.296000	24.917607	2.472970E-5	20.972542
1282.362410	-2.994200	3.424400	-10.253000	24.927923	2.314595E-5	20.982895
1283.365057	-2.996100	3.423900	-10.258000	24.921310	2.340991E-5	20.972939
1284.361024	-3.031000	3.423600	-10.376000	24.908389	2.545559E-5	20.975618
1285.360491	-3.013800	3.423500	-10.317000	24.942799	2.347590E-5	20.994030
1286.363821	-3.026100	3.421400	-10.353000	24.925997	2.344290E-5	20.994709
1287.362588	-2.977200	3.422600	-10.189000	24.935456	2.235407E-5	20.986661
1288.361662	-3.007400	3.422600	-10.292000	24.926176	2.080331E-5	20.970237
1289.363032	-2.988600	3.421100	-10.224000	24.922895	2.077031E-5	20.975478
1290.361989	-3.014100	3.421600	-10.312000	24.925627	2.298097E-5	20.975375
1291.367721	-3.010900	3.421000	-10.299000	24.936785	2.288199E-5	20.995580
1292.365645	-2.996400	3.420700	-10.249000	24.935650	2.086930E-5	20.975004
1293.365283	-3.023700	3.420800	-10.342000	24.946145	2.007742E-5	20.984114
1294.371202	-3.001100	3.420000	-10.263000	24.939978	2.133123E-5	20.987407
1295.365432	-2.983100	3.421100	-10.204000	24.940872	2.110026E-5	20.997785
1296.365324	-2.988100	3.419800	-10.217000	24.942187	1.879062E-5	20.986305
1297.366767	-2.992800	3.419200	-10.232000	24.943388	1.849366E-5	20.970443
1298.370400	-2.986400	3.419900	-10.213000	24.943578	1.961549E-5	20.989597
1299.367099	-2.980700	3.420200	-10.194000	24.955044	1.918656E-5	21.001104
1300.365044	-2.994500	3.417300	-10.232000	24.969011	1.908757E-5	20.979091
1301.372649	-2.976000	3.418600	-10.173000	24.951316	1.895559E-5	20.982666
1302.369061	-3.020700	3.417200	-10.321000	24.962756	1.849366E-5	20.979451
1303.365414	-2.997200	3.418200	-10.244000	24.954828	1.836168E-5	20.977183
1304.369229	-2.993100	3.418000	-10.229000	24.977719	1.694290E-5	20.973607
1305.367666	-3.018400	3.417300	-10.314000	24.956410	1.733884E-5	20.970711
1306.367286	-3.029300	3.416200	-10.347000	24.960815	1.605204E-5	20.958539
1307.367333	-3.002000	3.417300	-10.258000	24.971973	1.575508E-5	20.990123
1308.370083	-3.008500	3.415300	-10.274000	24.973442	1.733884E-5	20.972159
1309.366333	-3.002500	3.416200	-10.256000	24.976020	1.539214E-5	20.972376
1310.370544	-3.025200	3.416500	-10.335000	24.959717	1.469924E-5	20.990623
1311.368254	-3.010300	3.414800	-10.278000	24.963482	1.420432E-5	20.982549
1312.368005	-3.007800	3.414900	-10.271000	24.975713	1.562310E-5	20.972542
1313.374804	-2.990000	3.416000	-10.213000	24.984099	1.351143E-5	20.977166
1314.374415	-2.983200	3.415400	-10.188000	24.982926	1.337945E-5	20.967456
1315.369198	-2.994000	3.414200	-10.221000	25.006213	1.153173E-5	20.959062
1316.369318	-2.988200	3.415100	-10.204000	24.994008	1.318148E-5	20.968147
1317.369584	-3.004300	3.412900	-10.252000	24.997684	1.522716E-5	20.956666
1318.370947	-3.002900	3.413700	-10.250000	24.985362	1.255457E-5	20.968004
1319.368696	-2.978700	3.413300	-10.166000	24.966939	1.199366E-5	20.949040
1320.370693	-3.002500	3.412800	-10.245000	25.007297	1.262056E-5	20.964417
1321.373633	-2.988400	3.411900	-10.195000	24.993023	1.262056E-5	20.953410
1322.373091	-3.013700	3.412300	-10.282000	25.008751	1.245559E-5	20.948809
1323.370381	-3.011900	3.410000	-10.269000	24.976193	1.120178E-5	20.953113
1324.372572	-3.009000	3.411600	-10.264000	24.977061	1.044290E-5	20.962991
1325.379690	-3.000400	3.411700	-10.236000	24.991119	1.136676E-5	20.957188
1326.379880	-3.009500	3.410300	-10.262000	24.972465	1.087183E-5	20.940364
1327.372525	-3.017600	3.409200	-10.286000	24.982807	1.275254E-5	20.954061
1328.373518	-3.031100	3.409500	-10.333000	25.011838	7.539343E-6	20.953804
1329.375099	-2.993100	3.410300	-10.207000	24.987058	8.595181E-6	20.937468
1330.373169	-2.986000	3.410600	-10.184000	24.996850	9.848989E-6	20.942554
1331.373218	-2.998100	3.409600	-10.221000	24.998523	9.519039E-6	20.946604
1332.373431	-3.006600	3.408000	-10.246000	25.000717	9.519039E-6	20.949754
1333.373437	-2.999900	3.409700	-10.227000	25.003310	7.935283E-6	20.938607
1334.376925	-3.011000	3.408000	-10.260000	25.013292	9.288075E-6	20.941514
1335.376949	-3.005100	3.407600	-10.239000	25.001867	7.407364E-6	20.919617
1336.379425	-3.015600	3.406500	-10.272000	25.000080	7.077414E-6	20.908816
1337.375531	-2.983200	3.408300	-10.166000	25.022893	7.275384E-6	20.951625
1338.372777	-3.008500	3.406600	-10.248000	25.005009	7.737313E-6	20.935571
1339.373873	-2.995700	3.406200	-10.203000	25.006093	7.275384E-6	20.934289
1340.385853	-3.006800	3.406100	-10.240000	24.990977	5.889596E-6	20.927177
1341.376680	-2.978600	3.406900	-10.145000	25.003028	6.285536E-6	20.924101
1342.374103	-2.979100	3.407600	-10.151000	25.022677	6.153556E-6	20.934814
1343.375382	-3.003500	3.404600	-10.225000	24.998930	5.328682E-6	20.930419
1344.375484	-3.005300	3.403500	-10.228000	24.989955	5.460662E-6	20.955546
1345.381470	-3.019500	3.404200	-10.278000	25.017620	4.140865E-6	20.930213
1346.375465	-3.003800	3.404500	-10.226000	24.997411	4.635789E-6	20.909930
1347.374922	-2.985700	3.404800	-10.165000	24.995265	4.866753E-6	20.930533
1348.381741	-2.994900	3.404400	-10.195000	25.006921	2.359138E-6	20.913311
1349.379709	-2.995100	3.404100	-10.194000	25.020250	2.260153E-6	20.921948
1350.379196	-2.974700	3.403900	-10.125000	25.012171	2.953047E-6	20.924270
1351.380714	-3.015400	3.402200	-10.257000	25.037280	3.151017E-6	20.918655
1352.384081	-2.999600	3.401800	-10.203000	25.012527	3.777920E-6	20.935057
1353.378865	-2.991100	3.402800	-10.177000	25.021655	3.019037E-6	20.913877
1354.383552	-3.011800	3.401800	-10.244000	25.027309	2.458123E-6	20.912914
1355.380442	-3.005900	3.402000	-10.225000	25.027603	1.468275E-6	20.938336
1356.379445	-3.000200	3.402300	-10.206000	25.023875	2.722082E-6	20.926535
1357.380078	-3.000500	3.401100	-10.204000	25.018602	1.435280E-6	20.915553
1358.381944	-2.996600	3.401200	-10.191000	25.017005	-6.763962E-7	20.900676
1359.379488	-2.998000	3.399900	-10.192000	25.025878	-2.144671E-7	20.900573
1360.381774	-3.004600	3.401000	-10.218000	25.033271	-9.073608E-7	20.917001
1361.380551	-2.990900	3.401700	-10.173000	25.045373	-1.006346E-6	20.912080
1362.380436	-2.998600	3.401000	-10.198000	25.028522	2.590103E-6	20.919346
1363.381002	-3.018700	3.398100	-10.257000	25.005962	8.248735E-8	20.904289
1364.381091	-3.021500	3.398300	-10.266000	25.028394	-9.403558E-7	20.924433
1365.381398	-3.007800	3.398300	-10.220000	25.035505	-1.369290E-6	20.913080
1366.384405	-3.026900	3.398100	-10.284000	25.034073	-3.546956E-6	20.927763
1367.382901	-3.011400	3.397800	-10.231000	25.041785	-1.963199E-6	20.906582
1368.383388	-3.007800	3.396800	-10.215000	25.036398	-1.930204E-6	20.904969
1369.385172	-3.039500	3.396500	-10.323000	25.038478	-2.227158E-6	20.895678
1370.384425	-3.005700	3.396500	-10.208000	25.044491	-3.711931E-6	20.894127
1371.386146	-2.984200	3.397600	-10.138000	25.042257	-3.810915E-6	20.913694
1372.386788	-2.995800	3.396700	-10.175000	25.043979	-3.250001E-6	20.883656
1373.385327	-3.011000	3.396200	-10.224000	25.037596	-4.503809E-6	20.908067
1374.387603	-2.988600	3.395700	-10.148000	25.050760	-3.513961E-6	20.912271
1375.384373	-2.966900	3.398200	-10.081000	25.050108	-4.371829E-6	20.904980
1376.386778	-2.997500	3.395800	-10.177000	25.060474	-4.800764E-6	20.901161
1377.387784	-2.978800	3.394600	-10.111000	25.051053	-5.229698E-6	20.912091
1378.386878	-2.988300	3.394900	-10.144000	25.056502	-7.638328E-6	20.917087
1379.385688	-2.995800	3.394500	-10.169000	25.027178	-6.846450E-6	20.892870
1380.387917	-3.021000	3.393900	-10.252000	25.041733	-8.529192E-6	20.912220
1381.388069	-2.993500	3.394900	-10.161000	25.036219	-5.493657E-6	20.889617
1382.390001	-2.961100	3.395700	-10.054000	25.036205	-5.889597E-6	20.894344
1383.388731	-2.988900	3.394000	-10.144000	25.064176	-7.704318E-6	20.900610
1384.388206	-3.002000	3.393300	-10.186000	25.062822	-7.374369E-6	20.897828
1385.391138	-3.034600	3.393100	-10.296000	25.048805	-8.463202E-6	20.909835
1386.388084	-2.995900	3.393900	-10.166000	25.065619	-8.958126E-6	20.888309
1387.389102	-2.995000	3.392400	-10.160000	25.052342	-8.991121E-6	20.915756
1388.391593	-3.001000	3.392900	-10.181000	25.070595	-8.496197E-6	20.900890
1389.388489	-3.013900	3.389900	-10.216000	25.048127	-9.354065E-6	20.894932
1390.391154	-3.008400	3.391500	-10.202000	25.066868	-1.004696E-5	20.892881
1391.390636	-2.996700	3.391500	-10.163000	25.062719	-9.815995E-6	20.891088
1392.391331	-3.014700	3.389800	-10.217000	25.056004	-8.991121E-6	20.890037
1393.394254	-3.004100	3.389700	-10.182000	25.054880	-9.519040E-6	20.911192
1394.393347	-2.988000	3.390300	-10.130000	25.074502	-1.070686E-5	20.892958
1395.393411	-3.005500	3.388700	-10.183000	25.081101	-1.163072E-5	20.895315
1396.394696	-3.016300	3.388000	-10.218000	25.078102	-1.245559E-5	20.882822
1397.394308	-2.977800	3.390600	-10.096000	25.074693	-1.245559E-5	20.878452
1398.394330	-2.999000	3.388600	-10.161000	25.089182	-1.301650E-5	20.887780
1399.394168	-2.983300	3.388000	-10.106000	25.092016	-1.341244E-5	20.888729
1400.395974	-3.018100	3.387500	-10.223000	25.089131	-1.502920E-5	20.892470
1401.398277	-3.005700	3.388300	-10.183000	25.059984	-1.469925E-5	20.889291
1402.396262	-2.998200	3.387000	-10.154000	25.075088	-1.436930E-5	20.876004
1403.398302	-3.004500	3.386900	-10.175000	25.063726	-1.542513E-5	20.888780
1404.397873	-3.000000	3.386900	-10.160000	25.060534	-1.463326E-5	20.881782
1405.397387	-2.997800	3.387000	-10.153000	25.066253	-1.479823E-5	20.900798
1406.400714	-2.996200	3.386300	-10.145000	25.074602	-1.324747E-5	20.879783
1407.399894	-2.995700	3.384500	-10.138000	25.099866	-1.539214E-5	20.880963
1408.398290	-3.023700	3.385800	-10.236000	25.095194	-1.308249E-5	20.875325
1409.403710	-2.992700	3.386400	-10.134000	25.099434	-1.740483E-5	20.893330
1410.402765	-2.973000	3.384700	-10.062000	25.109210	-1.786676E-5	20.887023
1411.402994	-2.991000	3.385700	-10.126000	25.094799	-1.700889E-5	20.882514
1412.403430	-3.024300	3.383600	-10.232000	25.107961	-1.565610E-5	20.889563
1413.403666	-3.010700	3.383200	-10.186000	25.110653	-1.849366E-5	20.873300
1414.406326	-3.013200	3.382800	-10.192000	25.108010	-1.697590E-5	20.882973
1415.403306	-3.016100	3.382900	-10.202000	25.111265	-1.826270E-5	20.882922
1416.403440	-3.021800	3.381900	-10.218000	25.117852	-1.756981E-5	20.880526
1417.404193	-2.999600	3.382700	-10.146000	25.100375	-1.816371E-5	20.886215
1418.404902	-2.987900	3.383500	-10.108000	25.108712	-1.895559E-5	20.893635
1419.404759	-2.991700	3.383300	-10.121000	25.121249	-2.004443E-5	20.878246
1420.404479	-3.013700	3.380600	-10.187000	25.110844	-1.935153E-5	20.881551
1421.404116	-2.997700	3.383000	-10.140000	25.087787	-1.849366E-5	20.865993
1422.407197	-2.993500	3.383300	-10.128000	25.112810	-1.796575E-5	20.882102
1423.405715	-3.009800	3.382000	-10.178000	25.112312	-1.760280E-5	20.856000
1424.406525	-3.009300	3.380700	-10.173000	25.122791	-1.892260E-5	20.866993
1425.405803	-2.995900	3.380600	-10.127000	25.126621	-1.991245E-5	20.872260
1426.405010	-3.022100	3.379100	-10.210000	25.120455	-2.090229E-5	20.861329
1427.406465	-3.018400	3.379700	-10.201000	25.125830	-2.100128E-5	20.874785
1428.407552	-3.018400	3.380300	-10.202000	25.130195	-2.030839E-5	20.868735
1429.409763	-3.021700	3.379100	-10.210000	25.141186	-2.192514E-5	20.868390
1430.407147	-2.969900	3.380100	-10.037000	25.125318	-2.225509E-5	20.881857
1431.406330	-3.008500	3.378900	-10.164000	25.134483	-2.340991E-5	20.873988
1432.409648	-3.021900	3.378500	-10.208000	25.137763	-2.139722E-5	20.883919
1433.407453	-2.998500	3.378000	-10.128000	25.132414	-2.238707E-5	20.874756
1434.411897	-2.979900	3.379800	-10.070000	25.149099	-2.383884E-5	20.891979
1435.411897	-2.971000	3.377800	-10.034000	25.142461	-2.439976E-5	20.871566
1436.408668	-2.993800	3.376800	-10.108000	25.144464	-2.307996E-5	20.865042
1437.411604	-3.000400	3.376900	-10.132000	25.138375	-2.469671E-5	20.879791
1438.409275	-2.989000	3.377600	-10.094000	25.150029	-2.479570E-5	20.875844
1439.408973	-2.981300	3.377400	-10.068000	25.123707	-2.496067E-5	20.884507
1440.411948	-2.996400	3.375600	-10.114000	25.157751	-2.324494E-5	20.864157
1441.409180	-2.983400	3.376300	-10.072000	25.150003	-2.509265E-5	20.871077
1442.409657	-2.989800	3.376100	-10.093000	25.152837	-2.628047E-5	20.878189
1443.408996	-2.975200	3.377300	-10.048000	25.150948	-2.581854E-5	20.862069
1444.409819	-3.005500	3.374300	-10.140000	25.155276	-2.505966E-5	20.870680
1445.411991	-2.979500	3.374800	-10.054000	25.159959	-2.667641E-5	20.888183
1446.409754	-2.980900	3.376400	-10.064000	25.161288	-2.463072E-5	20.872448
1447.407832	-2.968000	3.374100	-10.013000	25.175047	-2.634646E-5	20.887683
1448.409814	-3.013300	3.373000	-10.163000	25.176401	-2.908504E-5	20.871500
1449.409811	-3.008400	3.373600	-10.148000	25.152889	-2.875509E-5	20.851690
1450.410657	-3.005300	3.372800	-10.135000	25.156678	-2.941499E-5	20.874459
1451.412727	-2.993300	3.373600	-10.097000	25.153295	-2.941499E-5	20.871537
1452.411801	-3.024800	3.373400	-10.203000	25.165843	-2.905205E-5	20.861375
1453.413908	-3.022100	3.372400	-10.191000	25.171690	-2.928301E-5	20.852546
1454.411912	-3.013000	3.371400	-10.156000	25.182527	-2.967895E-5	20.864848
1455.412872	-2.996600	3.373300	-10.107000	25.145841	-2.941499E-5	20.878752
1456.414507	-3.008100	3.371200	-10.140000	25.140850	-3.188961E-5	20.869949
1457.412113	-3.016100	3.371300	-10.167000	25.170822	-3.063580E-5	20.862106
1458.412403	-2.991900	3.370000	-10.081000	25.142037	-3.119672E-5	20.851227
1459.412478	-2.989600	3.371500	-10.079000	25.163393	-3.126271E-5	20.850856
1460.412398	-2.998300	3.370300	-10.103000	25.153270	-3.066880E-5	20.870089
1461.415378	-2.997400	3.368900	-10.097000	25.162588	-2.957997E-5	20.857159
1462.414854	-3.012600	3.369500	-10.150000	25.170771	-3.053682E-5	20.849253
1463.412390	-3.003500	3.369900	-10.121000	25.190238	-3.103174E-5	20.844615
1464.415689	-2.978800	3.369300	-10.035000	25.190161	-2.961296E-5	20.846908
1465.412834	-3.010800	3.368800	-10.142000	25.188158	-3.208758E-5	20.857699
1466.412900	-3.010400	3.369300	-10.142000	25.189677	-3.198860E-5	20.852586
1467.413748	-3.000300	3.367100	-10.101000	25.194323	-3.294545E-5	20.856302
1468.412928	-3.009000	3.367400	-10.132000	25.211619	-3.495814E-5	20.830993
1469.414859	-2.972700	3.368000	-10.010000	25.205453	-3.377032E-5	20.857045
1470.415596	-3.012300	3.365800	-10.138000	25.204549	-3.469418E-5	20.858033
1471.415162	-2.978200	3.367100	-10.027000	25.198383	-3.347337E-5	20.848525
1472.418257	-3.014900	3.367300	-10.151000	25.207536	-3.565104E-5	20.831636
1473.415239	-3.010700	3.366300	-10.134000	25.177679	-3.485916E-5	20.849076
1474.415312	-2.986500	3.365900	-10.050000	25.196303	-3.462819E-5	20.850704
1475.419978	-3.006800	3.365300	-10.117000	25.190841	-3.505713E-5	20.860867
1476.415986	-3.006000	3.365400	-10.116000	25.201960	-3.667388E-5	20.855434
1477.416986	-2.989900	3.365700	-10.061000	25.202150	-3.749875E-5	20.835238
1478.418647	-2.999900	3.364300	-10.092000	25.223480	-3.743276E-5	20.855703
1479.416077	-3.025400	3.363800	-10.176000	25.204588	-3.604697E-5	20.817772
1480.416045	-2.998100	3.363600	-10.084000	25.212068	-3.753175E-5	20.851832
1481.417218	-3.016800	3.363800	-10.146000	25.216549	-3.594799E-5	20.860124
1482.417478	-2.974700	3.364900	-10.009000	25.220789	-3.865358E-5	20.850156
1483.420973	-2.993800	3.363700	-10.069000	25.219551	-3.881855E-5	20.864086
1484.417065	-2.981300	3.364400	-10.030000	25.229429	-3.868657E-5	20.834649
1485.417459	-3.007000	3.362900	-10.111000	25.220430	-3.855459E-5	20.838891
1486.417338	-2.983400	3.363800	-10.034000	25.218273	-4.040231E-5	20.857114
1487.418310	-2.985800	3.363500	-10.042000	25.205994	-3.921449E-5	20.854269
1488.419327	-3.003800	3.363000	-10.101000	25.249444	-4.003936E-5	20.851424
1489.418793	-3.020800	3.360500	-10.151000	25.228052	-4.020434E-5	20.862663
1490.419488	-2.994400	3.361800	-10.065000	25.250963	-4.135916E-5	20.852001
1491.418816	-2.993200	3.362100	-10.062000	25.248730	-4.000637E-5	20.848336
1492.418179	-2.995600	3.362200	-10.071000	25.268935	-3.918149E-5	20.850130
1493.425612	-2.993000	3.360600	-10.057000	25.248016	-4.093023E-5	20.823913
1494.418420	-3.004200	3.359400	-10.092000	25.243740	-4.228302E-5	20.834318
1495.417737	-2.979100	3.360500	-10.011000	25.259043	-4.238200E-5	20.843518
1496.419022	-2.995300	3.360600	-10.065000	25.253580	-4.393277E-5	20.833767
1497.421971	-3.004200	3.358100	-10.087000	25.246445	-4.241500E-5	20.845569
1498.420139	-2.993100	3.358400	-10.051000	25.252636	-4.561551E-5	20.828551
1499.418776	-3.012800	3.359700	-10.120000	25.259657	-4.488962E-5	20.836549
1500.420070	-3.008000	3.358400	-10.101000	25.226305	-4.554952E-5	20.826772
1501.421646	-2.980900	3.358700	-10.010000	25.274861	-4.360282E-5	20.827158
1502.419560	-3.004700	3.358900	-10.092000	25.253620	-4.353683E-5	20.815789
1503.422909	-2.990000	3.358500	-10.040000	25.262798	-4.472465E-5	20.839228
1504.423805	-2.983800	3.358300	-10.019000	25.260221	-4.389977E-5	20.818623
1505.420350	-2.999500	3.356900	-10.068000	25.266334	-4.578048E-5	20.845149
1506.420858	-3.020300	3.355300	-10.133000	25.266514	-4.637439E-5	20.824467
1507.420901	-2.987800	3.357200	-10.030000	25.279814	-4.667135E-5	20.830234
1508.420796	-2.989000	3.357300	-10.034000	25.278002	-4.568150E-5	20.809449
1509.422306	-3.017600	3.355200	-10.123000	25.273905	-4.756221E-5	20.827620
1510.420859	-2.991600	3.354300	-10.034000	25.271888	-4.571449E-5	20.821802
1511.420003	-3.000200	3.355500	-10.067000	25.257731	-4.670434E-5	20.845995
1512.420776	-2.973800	3.354400	-9.974800	25.263080	-4.581348E-5	20.830976
1513.424605	-3.000700	3.353600	-10.061000	25.287063	-4.868404E-5	20.837037
1514.423639	-2.981000	3.354300	-9.997800	25.284039	-4.799115E-5	20.836372
1515.420647	-2.997800	3.352900	-10.050000	25.269080	-4.980587E-5	20.813767
1516.421502	-3.007200	3.353200	-10.083000	25.298909	-4.729825E-5	20.834707
1517.422775	-2.991700	3.352900	-10.030000	25.290075	-4.871703E-5	20.824416
1518.423618	-2.997800	3.353100	-10.052000	25.290562	-5.023480E-5	20.829171
1519.422281	-2.999200	3.353100	-10.055000	25.291467	-5.171957E-5	20.823442
1520.426208	-2.998600	3.352800	-10.052000	25.281077	-5.145562E-5	20.806846
1521.422626	-2.995000	3.352500	-10.040000	25.295449	-5.026780E-5	20.803733
1522.423063	-3.008000	3.351500	-10.080000	25.291532	-4.868404E-5	20.813550
1523.422166	-3.004000	3.350400	-10.064000	25.284243	-5.033379E-5	20.827095
1524.422034	-3.000100	3.352200	-10.056000	25.285009	-5.023480E-5	20.826441
1525.427430	-3.003700	3.350400	-10.063000	25.301461	-5.082871E-5	20.815932
1526.424557	-2.991500	3.350100	-10.021000	25.308303	-5.178556E-5	20.810474
1527.424181	-3.037400	3.349200	-10.171000	25.295182	-5.531602E-5	20.813896
1528.426131	-3.005000	3.348700	-10.061000	25.299751	-5.079572E-5	20.813742
1529.426877	-3.022600	3.347900	-10.118000	25.301947	-5.224749E-5	20.827326
1530.427271	-2.986500	3.348800	-10.000000	25.306772	-5.389724E-5	20.821739
1531.429074	-2.981300	3.349600	-9.985200	25.287512	-5.300638E-5	20.821368
1532.427341	-3.004100	3.348700	-10.059000	25.277416	-5.360029E-5	20.822610
1533.428586	-3.025900	3.347400	-10.128000	25.297569	-5.393024E-5	20.824827
1534.428604	-2.994900	3.347300	-10.023000	25.297558	-5.201653E-5	20.822445
1535.429509	-2.971100	3.347400	-9.944400	25.307910	-5.696577E-5	20.809132
1536.429955	-2.981800	3.348100	-9.981600	25.319332	-5.557998E-5	20.813488
1537.429964	-2.991200	3.348000	-10.014000	25.303085	-5.607491E-5	20.812348
1538.430684	-3.011800	3.346300	-10.077000	25.311458	-5.660283E-5	20.840194
1539.430568	-2.991800	3.346600	-10.012000	25.334904	-5.548100E-5	20.799252
1540.431778	-3.001000	3.345100	-10.038000	25.332108	-5.759268E-5	20.809246
1541.435824	-2.997700	3.346500	-10.031000	25.317318	-5.749369E-5	20.811465
1542.433752	-3.004600	3.345000	-10.050000	25.328626	-5.673481E-5	20.801008
1543.434546	-2.985900	3.344900	-9.985700	25.338722	-5.610790E-5	20.822051
1544.436176	-2.987600	3.344300	-9.990400	25.332913	-5.798862E-5	20.831391
1545.434046	-3.005700	3.344700	-10.052000	25.341109	-5.571196E-5	20.804533
1546.436028	-3.010300	3.342700	-10.061000	25.339451	-5.917643E-5	20.818989
1547.436141	-3.017100	3.343800	-10.087000	25.358621	-5.940740E-5	20.799358
1548.433954	-2.986400	3.343500	-9.983900	25.360957	-6.066121E-5	20.815453
1549.433984	-3.008000	3.343600	-10.056000	25.359463	-5.983633E-5	20.818695
1550.432827	-3.034900	3.341600	-10.141000	25.368091	-6.079319E-5	20.812659
1551.434975	-3.013000	3.342500	-10.070000	25.359731	-5.924242E-5	20.782454
1552.437733	-3.015100	3.342000	-10.076000	25.350249	-6.227796E-5	20.813711
1553.435896	-3.025800	3.340800	-10.108000	25.400330	-6.052923E-5	20.808995
1554.436043	-3.030400	3.341700	-10.125000	25.361455	-6.168405E-5	20.811685
1555.436334	-2.991900	3.341300	-9.995600	25.364888	-6.168405E-5	20.812762
1556.436589	-2.991400	3.341500	-9.994500	25.357435	-6.247593E-5	20.804805
1557.438201	-2.999500	3.341000	-10.021000	25.357947	-6.231095E-5	20.786353
1558.437941	-3.011700	3.339400	-10.057000	25.363383	-6.326781E-5	20.785647
1559.437977	-3.014700	3.339500	-10.067000	25.364061	-6.283887E-5	20.795336
1560.438616	-3.003600	3.339500	-10.029000	25.370848	-6.349877E-5	20.795513
1561.438642	-2.999700	3.339400	-10.016000	25.356721	-6.544547E-5	20.788441
1562.440557	-3.000500	3.337700	-10.014000	25.377612	-6.617136E-5	20.802779
1563.438269	-3.020000	3.338100	-10.080000	25.373988	-6.485157E-5	20.806253
1564.438560	-2.996000	3.339600	-10.005000	25.385310	-6.504954E-5	20.798655
1565.443668	-2.987200	3.337700	-9.970200	25.370467	-6.564344E-5	20.793708
1566.441405	-2.997600	3.336600	-10.000000	25.364518	-6.620436E-5	20.789158
1567.437573	-2.985200	3.337600	-9.962900	25.388283	-6.689725E-5	20.794053
1568.441574	-2.998100	3.337700	-10.006000	25.397075	-6.660030E-5	20.805727
1569.439446	-3.017200	3.335600	-10.063000	25.380497	-6.673228E-5	20.802831
1570.440439	-3.000100	3.337700	-10.012000	25.398250	-6.597339E-5	20.794579
1571.440233	-3.007000	3.337200	-10.034000	25.413182	-6.729319E-5	20.787287
1572.441670	-3.015100	3.335400	-10.056000	25.408397	-6.808507E-5	20.781534
1573.443645	-2.995000	3.336700	-9.991900	25.396885	-6.947086E-5	20.817390
1574.441736	-3.002300	3.335800	-10.014000	25.402142	-6.795309E-5	20.789952
1575.441424	-2.996500	3.333900	-9.989500	25.403686	-6.831604E-5	20.804305
1576.445062	-2.996400	3.335500	-9.994100	25.402460	-6.762314E-5	20.797858
1577.441699	-2.997100	3.335100	-9.995200	25.414024	-7.013076E-5	20.820848
1578.443790	-2.996800	3.333300	-9.988600	25.405894	-7.029573E-5	20.806995
1579.444230	-2.992900	3.333500	-9.975700	25.430001	-7.006477E-5	20.804176
1580.441836	-2.994500	3.333300	-9.980800	25.437659	-7.141756E-5	20.801434
1581.445768	-2.993500	3.333200	-9.976300	25.401069	-6.887695E-5	20.784607
1582.443740	-2.999000	3.332100	-9.991800	25.420938	-7.128558E-5	20.811671
1583.443573	-3.007600	3.332700	-10.023000	25.411534	-7.115360E-5	20.814082
1584.445694	-3.015300	3.331300	-10.044000	25.431279	-7.224243E-5	20.802140
1585.444625	-2.991400	3.331900	-9.966400	25.423786	-7.333127E-5	20.793668
1586.443798	-3.008500	3.331100	-10.020000	25.418592	-7.079066E-5	20.781814
1587.445622	-2.995700	3.331500	-9.979800	25.428508	-7.257238E-5	20.804099
1588.444920	-3.001100	3.330900	-9.995500	25.440082	-7.207746E-5	20.790591
1589.449502	-2.988200	3.331100	-9.952900	25.436484	-7.141756E-5	20.795987
1590.447573	-3.007000	3.330200	-10.013000	25.441359	-7.277035E-5	20.788555
1591.445098	-3.017900	3.329600	-10.047000	25.447637	-7.455208E-5	20.806238
1592.449242	-3.001700	3.330000	-9.994800	25.434965	-7.336426E-5	20.807738
1593.446734	-3.004600	3.329100	-10.001000	25.436330	-7.494802E-5	20.792514
1594.446149	-3.039700	3.327400	-10.114000	25.469881	-7.531097E-5	20.812454
1595.450511	-3.010100	3.328100	-10.017000	25.454299	-7.303431E-5	20.818618
1596.446212	-2.994700	3.327600	-9.964300	25.459174	-7.442010E-5	20.817824
1597.448333	-2.975600	3.329400	-9.904800	25.455971	-7.636680E-5	20.803228
1598.449236	-2.994800	3.328600	-9.967800	25.456879	-7.653178E-5	20.808881
1599.449792	-2.993400	3.328300	-9.962700	25.467520	-7.521198E-5	20.800126
1600.450460	-3.022600	3.327100	-10.055000	25.451070	-7.610284E-5	20.806841
1601.449001	-3.033400	3.325900	-10.088000	25.457311	-7.765361E-5	20.822117
1602.448840	-2.993000	3.327400	-9.957900	25.479606	-7.907239E-5	20.795667
1603.448824	-2.993100	3.327100	-9.958200	25.472728	-7.804955E-5	20.779752
1604.449033	-3.025200	3.325200	-10.059000	25.463962	-7.864346E-5	20.810777
1605.450283	-3.015400	3.326000	-10.028000	25.460949	-7.894041E-5	20.805382
1606.448956	-3.006100	3.324400	-9.992200	25.469079	-8.019422E-5	20.815442
1607.449261	-3.000200	3.324000	-9.971700	25.477834	-7.887442E-5	20.831820
1608.451635	-2.991700	3.325100	-9.946100	25.481190	-7.900640E-5	20.801526
1609.450544	-2.981400	3.324300	-9.910300	25.473215	-7.966630E-5	20.808215
1610.453864	-2.996400	3.323900	-9.958400	25.492215	-8.075513E-5	20.809752
1611.456900	-3.001600	3.323800	-9.975700	25.464423	-7.788457E-5	20.808395
1612.452326	-2.984200	3.323500	-9.917100	25.484865	-7.874244E-5	20.798104
1613.452834	-3.015200	3.323300	-10.019000	25.513081	-7.936935E-5	20.805102
1614.452582	-3.002400	3.323900	-9.978600	25.481000	-8.280082E-5	20.815085
1615.451067	-3.017200	3.321200	-10.020000	25.471900	-8.016122E-5	20.823491
1616.454873	-3.005300	3.323400	-9.987000	25.497526	-8.230590E-5	20.819352
1617.452166	-3.023000	3.320900	-10.038000	25.494909	-8.022721E-5	20.813879
1618.453233	-3.001800	3.321500	-9.970200	25.501775	-8.270184E-5	20.824568
1619.453787	-3.012200	3.320500	-10.002000	25.517433	-8.042518E-5	20.810894
1620.454030	-2.982300	3.321300	-9.904100	25.519614	-8.313077E-5	20.804076
1621.459018	-3.026100	3.320200	-10.046000	25.521236	-8.355970E-5	20.801911
1622.454185	-3.003200	3.320200	-9.970300	25.519384	-8.181097E-5	20.820440
1623.457968	-3.008800	3.319300	-9.986600	25.526429	-8.253686E-5	20.810446
1624.454480	-3.010700	3.319300	-9.992700	25.512711	-8.217392E-5	20.820377
1625.455019	-3.009100	3.317800	-9.982600	25.536857	-8.398864E-5	20.807167
1626.456380	-3.000300	3.318200	-9.954700	25.539024	-8.458255E-5	20.816456
1627.454929	-3.012300	3.317700	-9.993000	25.543836	-8.306478E-5	20.799478
1628.455132	-3.002000	3.318800	-9.962300	25.531916	-8.293280E-5	20.827335
1629.458198	-3.006300	3.317100	-9.971800	25.536282	-8.484651E-5	20.820340
1630.457816	-2.987900	3.317500	-9.910000	25.548086	-8.491250E-5	20.825556
1631.456763	-3.002300	3.317100	-9.957900	25.572688	-8.652925E-5	20.812331
1632.457998	-2.999300	3.316900	-9.947300	25.556840	-8.580336E-5	20.819175
1633.458223	-3.029700	3.316900	-10.048000	25.559366	-8.629829E-5	20.810806
1634.456999	-3.004500	3.316600	-9.963500	25.568043	-8.781605E-5	20.832322
1635.457107	-2.987800	3.317100	-9.908800	25.574474	-8.603433E-5	20.842099
1636.458203	-3.012000	3.315800	-9.986300	25.561664	-8.732113E-5	20.808847
1637.460846	-2.995900	3.315400	-9.931900	25.569932	-8.623230E-5	20.826159
1638.458664	-3.013600	3.316400	-9.993400	25.580688	-8.732113E-5	20.838383
1639.458758	-2.985700	3.314700	-9.895300	25.582642	-8.946580E-5	20.828492
1640.462215	-3.012500	3.313700	-9.982100	25.587821	-8.649626E-5	20.804297
1641.459976	-3.018400	3.313400	-10.000000	25.610739	-8.606732E-5	20.841063
1642.464003	-3.008100	3.313900	-9.967700	25.593538	-9.009271E-5	20.820469
1643.463769	-3.000100	3.312500	-9.936700	25.583228	-9.052164E-5	20.844727
1644.461421	-2.989500	3.313400	-9.904800	25.592645	-8.808001E-5	20.836167
1645.465461	-2.984900	3.313800	-9.890400	25.592912	-8.840996E-5	20.828375
1646.463944	-3.021200	3.312400	-10.006000	25.615255	-9.022469E-5	20.847495
1647.463859	-3.010400	3.311800	-9.969200	25.598274	-9.015870E-5	20.853199
1648.467102	-2.979900	3.311700	-9.867500	25.606336	-9.065362E-5	20.860822
1649.465761	-2.999700	3.310600	-9.930000	25.632635	-9.147849E-5	20.851674
1650.466580	-2.983900	3.311500	-9.880200	25.588473	-9.253433E-5	20.842882
1651.466280	-3.001400	3.310600	-9.935500	25.608034	-9.085159E-5	20.833605
1652.465996	-2.996100	3.309200	-9.913600	25.605992	-9.223738E-5	20.844356
1653.470591	-3.014200	3.309600	-9.974900	25.610278	-9.207240E-5	20.828746
1654.467129	-3.013700	3.309900	-9.974200	25.640430	-9.240235E-5	20.855709
1655.467894	-3.006100	3.309700	-9.948500	25.605941	-9.217139E-5	20.851891
1656.470623	-3.019000	3.309400	-9.990500	25.658293	-9.243535E-5	20.829081
1657.467435	-3.004100	3.309900	-9.942700	25.623779	-9.477799E-5	20.832348
1658.466764	-2.995900	3.307600	-9.907600	25.652745	-9.382114E-5	20.852905
1659.470960	-3.009500	3.307500	-9.952700	25.630593	-9.444804E-5	20.837295
1660.466830	-2.996500	3.307600	-9.910500	25.631486	-9.213839E-5	20.843408
1661.467833	-2.990500	3.308100	-9.891500	25.653495	-9.428307E-5	20.838012
1662.470026	-2.981500	3.308200	-9.862000	25.632738	-9.556987E-5	20.847509
1663.468344	-2.995000	3.306800	-9.902800	25.653587	-9.438205E-5	20.850431
1664.471781	-2.990300	3.306800	-9.887600	25.654275	-9.580083E-5	20.863924
1665.469285	-2.999600	3.307800	-9.921600	25.660745	-9.547088E-5	20.854775
1666.468546	-3.012200	3.305700	-9.956600	25.649872	-9.566885E-5	20.847649
1667.470230	-2.978200	3.305600	-9.843500	25.677023	-9.646073E-5	20.864960
1668.471977	-3.010200	3.305100	-9.947600	25.645279	-9.761556E-5	20.861527
1669.468569	-3.004800	3.304800	-9.928500	25.667889	-9.586682E-5	20.861476
1670.470369	-3.004500	3.303100	-9.922700	25.672496	-9.692266E-5	20.857569
1671.471810	-2.985500	3.305000	-9.865600	25.672865	-9.761556E-5	20.859362
1672.473141	-3.012300	3.303200	-9.949000	25.680635	-9.685667E-5	20.843933
1673.471932	-3.018100	3.302800	-9.967900	25.674893	-9.731860E-5	20.872304
1674.476140	-3.001000	3.303800	-9.913500	25.680200	-9.725261E-5	20.864358
1675.474251	-2.968400	3.303400	-9.804800	25.679716	-9.999119E-5	20.870510
1676.474212	-3.011900	3.301800	-9.944000	25.675354	-9.735160E-5	20.867077
1677.474947	-2.976500	3.302800	-9.830000	25.682000	-9.847343E-5	20.860002
1678.474617	-3.012500	3.301800	-9.945700	25.663870	-9.850642E-5	20.853173
1679.477020	-2.976300	3.302200	-9.827600	25.661444	-9.959525E-5	20.856900
1680.475465	-3.008000	3.300700	-9.927200	25.673528	-9.880338E-5	20.858131
1681.477129	-3.000400	3.301600	-9.905500	25.676540	-9.972723E-5	20.871113
1682.479566	-3.026500	3.298800	-9.982100	25.702680	-0.000101	20.865126
1683.478498	-3.009900	3.300500	-9.932700	25.690509	-9.877038E-5	20.884668
1684.481306	-3.001300	3.299400	-9.901800	25.689667	-9.962825E-5	20.856797
1685.482208	-2.987000	3.299600	-9.854600	25.713245	-0.000100	20.879056
1686.479971	-3.000900	3.300200	-9.902900	25.719151	-0.000102	20.881195
1687.481956	-3.003800	3.297800	-9.904800	25.707478	-9.745058E-5	20.863307
1688.480674	-2.980800	3.299600	-9.834100	25.723096	-0.000101	20.856235
1689.481685	-3.013500	3.297800	-9.937200	25.735406	-9.959525E-5	20.865754
1690.485377	-2.997400	3.297800	-9.883700	25.743662	-0.000101	20.865512
1691.482574	-3.008700	3.297100	-9.919400	25.755551	-0.000102	20.858488
1692.482204	-3.012000	3.297800	-9.932700	25.723030	-0.000102	20.885091
1693.482821	-2.999100	3.296700	-9.886200	25.758753	-0.000101	20.873557
1694.482787	-3.006000	3.295800	-9.905800	25.753600	-0.000102	20.858900
1695.487612	-3.012800	3.295700	-9.928400	25.770261	-0.000101	20.874212
1696.483390	-2.992700	3.296500	-9.864100	25.766397	-0.000103	20.852313
1697.484459	-3.005800	3.296100	-9.905500	25.753688	-0.000102	20.874160
1698.488661	-3.000100	3.294500	-9.883300	25.754365	-0.000104	20.864409
1699.486606	-3.014200	3.295000	-9.930400	25.771154	-0.000103	20.855195
1700.485528	-3.021400	3.294200	-9.952300	25.784129	-0.000105	20.872021
1701.490356	-3.000200	3.294800	-9.883900	25.777660	-0.000103	20.865049
1702.486831	-3.017400	3.293700	-9.937500	25.785494	-0.000104	20.879555
1703.487082	-3.006500	3.293700	-9.901400	25.781374	-0.000104	20.866883
1704.487943	-2.987700	3.293000	-9.837100	25.789717	-0.000104	20.865780
1705.489080	-3.000400	3.294000	-9.881500	25.790266	-0.000106	20.872969
1706.490210	-2.981700	3.293300	-9.818800	25.797690	-0.000106	20.874263
1707.489546	-2.988200	3.292100	-9.836200	25.780404	-0.000105	20.894830
1708.489816	-2.994900	3.291200	-9.856100	25.803215	-0.000105	20.890717
1709.490660	-2.982200	3.292300	-9.817400	25.820476	-0.000108	20.877710
1710.489388	-3.013800	3.292300	-9.921300	25.782256	-0.000106	20.899060
1711.492333	-3.020800	3.290100	-9.937700	25.807643	-0.000106	20.889949
1712.492634	-2.972000	3.291400	-9.780800	25.818269	-0.000106	20.906312
1713.492600	-2.994500	3.290900	-9.853800	25.836857	-0.000106	20.892742
1714.494041	-2.991000	3.291800	-9.844600	25.827633	-0.000105	20.872098
1715.492530	-2.989500	3.290400	-9.836000	25.843465	-0.000106	20.897958
1716.492707	-2.997100	3.289800	-9.858800	25.824354	-0.000109	20.886821
1717.494878	-3.000700	3.288100	-9.865700	25.839601	-0.000108	20.884594
1718.493906	-2.995600	3.287800	-9.847600	25.844563	-0.000107	20.909490
1719.494327	-3.015100	3.286700	-9.908800	25.870332	-0.000108	20.897920
1720.495105	-3.002300	3.288200	-9.871500	25.846860	-0.000109	20.881929
1721.494473	-3.005200	3.287400	-9.878300	25.815502	-0.000107	20.903059
1722.494534	-3.025500	3.285800	-9.940500	25.854603	-0.000108	20.904878
1723.495176	-3.011500	3.285400	-9.892500	25.858865	-0.000109	20.907263
1724.498578	-2.974000	3.286000	-9.772000	25.847281	-0.000108	20.893256
1725.499004	-2.997600	3.285900	-9.849000	25.856824	-0.000108	20.903316
1726.498784	-2.994000	3.285800	-9.837500	25.858763	-0.000108	20.899574
1727.499024	-2.999700	3.284500	-9.851400	25.879875	-0.000109	20.910350
1728.497272	-3.023900	3.284100	-9.929300	25.878203	-0.000109	20.910093
1729.497062	-3.002100	3.285100	-9.861300	25.883281	-0.000109	20.900971
1730.497354	-2.993700	3.285000	-9.832800	25.887057	-0.000111	20.899549
1731.495950	-3.008100	3.282600	-9.873400	25.884723	-0.000109	20.922805
1732.500403	-3.005300	3.283400	-9.866100	25.871748	-0.000111	20.904558
1733.498667	-3.014200	3.282800	-9.894200	25.891012	-0.000111	20.919167
1734.498488	-3.004800	3.281400	-9.858900	25.905530	-0.000112	20.915260
1735.498080	-2.996700	3.282900	-9.837000	25.879710	-0.000112	20.916348
1736.498821	-3.006800	3.282200	-9.867200	25.906244	-0.000109	20.921192
1737.504848	-3.008100	3.281700	-9.870700	25.918182	-0.000111	20.895730
1738.499545	-2.998200	3.280700	-9.835300	25.909291	-0.000112	20.924253
1739.500796	-3.014900	3.280800	-9.890000	25.903920	-0.000110	20.917910
1740.502627	-2.970800	3.281800	-9.748900	25.916946	-0.000111	20.904444
1741.501536	-3.015300	3.280100	-9.888900	25.927940	-0.000112	20.908851
1742.500641	-3.019100	3.278500	-9.897200	25.911754	-0.000111	20.916297
1743.505476	-2.973800	3.280000	-9.753400	25.939384	-0.000112	20.915605
1744.501072	-2.992400	3.279600	-9.812100	25.934292	-0.000112	20.932773
1745.501805	-2.997600	3.278300	-9.825600	25.951323	-0.000113	20.900100
1746.502336	-2.976400	3.279400	-9.760100	25.932967	-0.000112	20.918641
1747.502718	-2.998700	3.277800	-9.828700	25.947291	-0.000114	20.926867
1748.505491	-2.985900	3.278100	-9.787100	25.963070	-0.000114	20.914746
1749.503501	-3.002700	3.277300	-9.839300	25.958695	-0.000113	20.923625
1750.504859	-2.993900	3.277500	-9.811700	25.978594	-0.000116	20.946459
1751.506123	-2.977400	3.277500	-9.758000	25.948158	-0.000114	20.922523
1752.505414	-3.004700	3.275800	-9.842600	25.969319	-0.000115	20.946150
1753.507960	-2.992900	3.276100	-9.803900	25.952954	-0.000114	20.912644
1754.505271	-2.985000	3.276100	-9.778000	25.969550	-0.000114	20.948752
1755.506202	-3.003800	3.276600	-9.841100	25.991999	-0.000115	20.927686
1756.506881	-3.014200	3.275200	-9.870200	25.970684	-0.000116	20.934721
1757.506685	-3.012600	3.272900	-9.858900	25.990455	-0.000115	20.932299
1758.512941	-3.004100	3.274300	-9.835300	25.985315	-0.000116	20.931402
1759.508130	-3.004200	3.273500	-9.832800	25.981133	-0.000115	20.938579
1760.507925	-2.980100	3.273100	-9.753600	25.994091	-0.000115	20.930263
1761.507329	-3.001800	3.273200	-9.823400	25.997790	-0.000114	20.940616
1762.507760	-2.998700	3.272400	-9.811300	25.984436	-0.000115	20.961810
1763.511413	-2.984100	3.271800	-9.762600	25.996937	-0.000115	20.944974
1764.510444	-3.005100	3.271400	-9.829900	26.008161	-0.000117	20.948664
1765.508040	-2.993700	3.271300	-9.792400	26.017677	-0.000116	20.945422
1766.507677	-2.988600	3.270200	-9.772800	25.999882	-0.000116	20.931813
1767.507900	-2.999700	3.271200	-9.811900	26.017853	-0.000116	20.933273
1768.512055	-2.981200	3.270800	-9.750300	26.017205	-0.000116	20.943526
1769.511943	-2.993300	3.269000	-9.783200	26.026183	-0.000116	20.959656
1770.511247	-3.005900	3.269300	-9.826200	26.011502	-0.000118	20.949175
1771.513611	-2.999700	3.268500	-9.803400	26.033847	-0.000118	20.950289
1772.511905	-2.998000	3.268800	-9.797800	26.035596	-0.000118	20.939719
1773.512463	-3.008100	3.268400	-9.830100	26.050748	-0.000117	20.953993
1774.514971	-3.000300	3.267400	-9.802200	26.027943	-0.000117	20.951468
1775.512898	-3.012800	3.267400	-9.843000	26.035519	-0.000117	20.937745
1776.512332	-3.030100	3.267700	-9.900600	26.038950	-0.000120	20.929814
1777.512200	-2.999900	3.266600	-9.797800	26.041566	-0.000117	20.955198
1778.511662	-3.015000	3.265200	-9.843700	26.053350	-0.000118	20.947598
1779.514528	-2.983600	3.266800	-9.746100	26.070214	-0.000117	20.963592
1780.514039	-2.974300	3.264400	-9.707400	26.046248	-0.000119	20.958480
1781.513864	-3.023200	3.265100	-9.870500	26.057523	-0.000117	20.969332
1782.514405	-2.992100	3.265700	-9.770300	26.081755	-0.000118	20.959542
1783.513709	-2.995000	3.265500	-9.779900	26.068019	-0.000119	20.968972
1784.517663	-2.994900	3.264000	-9.774500	26.067649	-0.000119	20.959119
1785.516602	-2.970000	3.264900	-9.695100	26.096450	-0.000118	20.963875
1786.516407	-3.005200	3.262000	-9.801600	26.075635	-0.000118	20.992742
1787.517923	-3.003700	3.262200	-9.797600	26.106513	-0.000121	20.952177
1788.517004	-2.997500	3.263000	-9.779300	26.092942	-0.000116	20.970306
1789.518644	-2.998400	3.262000	-9.779700	26.097741	-0.000118	20.975601
1790.517679	-2.995900	3.260800	-9.768000	26.107369	-0.000119	20.983378
1791.517206	-2.992300	3.262300	-9.761200	26.103963	-0.000120	20.979008
1792.520646	-3.009200	3.261200	-9.812400	26.124076	-0.000118	20.964132
1793.517533	-2.971500	3.263300	-9.695800	26.116821	-0.000120	20.966800
1794.518213	-3.013100	3.258100	-9.816300	26.121628	-0.000117	20.995333
1795.519197	-2.990100	3.260900	-9.749800	26.118160	-0.000120	20.971463
1796.518703	-2.987300	3.258800	-9.733300	26.126515	-0.000120	20.979383
1797.519193	-2.979200	3.258900	-9.708100	26.141985	-0.000119	20.986391
1798.519516	-3.000800	3.257000	-9.773700	26.129793	-0.000121	20.976987
1799.520716	-2.999500	3.258500	-9.772200	26.144242	-0.000120	20.978229
1800.523351	-3.026900	3.257600	-9.859500	26.132115	-0.000121	20.981690
1801.523497	-3.014100	3.257000	-9.816100	26.154381	-0.000119	20.989838
1802.522093	-3.015600	3.257000	-9.820300	26.148298	-0.000121	20.972349
1803.523198	-2.988500	3.256000	-9.729900	26.154586	-0.000119	20.989096
1804.521515	-3.005600	3.256900	-9.787200	26.171866	-0.000119	20.976116
1805.521357	-3.021700	3.255300	-9.835400	26.163870	-0.000120	20.986571
1806.525327	-2.990600	3.255600	-9.735900	26.176698	-0.000121	20.971963
1807.523831	-2.997200	3.255200	-9.755400	26.184427	-0.000121	20.982099
1808.523809	-2.986900	3.253600	-9.716600	26.166957	-0.000119	20.983510
1809.524276	-3.000000	3.253500	-9.759300	26.187719	-0.000120	20.971184
1810.524239	-2.999900	3.252500	-9.756000	26.200269	-0.000120	20.973837
1811.528143	-2.987700	3.253000	-9.718500	26.204044	-0.000121	20.980474
1812.522672	-3.007400	3.251800	-9.778000	26.205178	-0.000120	20.990621
1813.523182	-3.000200	3.252900	-9.757700	26.214589	-0.000121	20.976847
1814.524650	-3.017900	3.249200	-9.804800	26.200536	-0.000122	20.971735
1815.523854	-3.017100	3.250000	-9.804000	26.216579	-0.000121	20.954668
1816.525561	-3.022400	3.250400	-9.823400	26.229370	-0.000120	20.957564
1817.524278	-3.008700	3.250100	-9.777900	26.224348	-0.000123	20.959155
1818.524382	-3.000000	3.250500	-9.750300	26.226846	-0.000123	20.955976
1819.525893	-3.013700	3.250600	-9.793900	26.210280	-0.000122	20.976310
1820.524269	-2.998300	3.250100	-9.743300	26.234293	-0.000122	20.961562
1821.524620	-3.026000	3.247300	-9.825600	26.228989	-0.000124	20.950544
1822.526157	-3.013400	3.248900	-9.789700	26.232139	-0.000121	20.940908
1823.525487	-3.011100	3.247900	-9.778500	26.235277	-0.000122	20.945009
1824.530046	-2.991400	3.247700	-9.714300	26.249827	-0.000120	20.965318
1825.527134	-2.996400	3.247700	-9.730500	26.260704	-0.000123	20.946854
1826.527404	-2.992900	3.247700	-9.718900	26.242380	-0.000123	20.953568
1827.531259	-2.991500	3.247200	-9.712500	26.243031	-0.000124	20.948533
1828.529662	-3.002600	3.245600	-9.744000	26.257186	-0.000123	20.941896
1829.528847	-3.015600	3.244800	-9.783700	26.258638	-0.000122	20.948570
1830.532269	-3.014700	3.244400	-9.780000	26.268191	-0.000122	20.965755
1831.529620	-3.027400	3.244100	-9.819800	26.255898	-0.000124	20.942025
1832.532323	-3.005500	3.245200	-9.753300	26.270371	-0.000124	20.952300
1833.532451	-3.018200	3.244300	-9.791000	26.248005	-0.000122	20.935516
1834.530728	-3.005500	3.243200	-9.745900	26.282167	-0.000124	20.929544
1835.530895	-2.995700	3.243000	-9.712900	26.284361	-0.000123	20.941231
1836.530898	-2.993000	3.243200	-9.706200	26.290685	-0.000124	20.958015
1837.531640	-2.986900	3.242800	-9.684800	26.283673	-0.000123	20.936273
1838.535254	-2.997500	3.241500	-9.715500	26.298325	-0.000123	20.950995
1839.530466	-2.989100	3.240700	-9.685400	26.310566	-0.000125	20.950496
1840.531454	-3.013300	3.241500	-9.766000	26.298197	-0.000126	20.938066
1841.530876	-2.995400	3.240200	-9.704800	26.320182	-0.000126	20.930290
1842.531627	-2.995500	3.240200	-9.705400	26.277170	-0.000124	20.920730
1843.531904	-2.981400	3.240300	-9.659000	26.289986	-0.000123	20.934082
1844.530676	-2.992100	3.240000	-9.692900	26.304638	-0.000122	20.917514
1845.533256	-2.995400	3.239000	-9.701200	26.300695	-0.000125	20.922087
1846.533586	-2.987200	3.237200	-9.669100	26.306781	-0.000125	20.919194
1847.533698	-3.028200	3.237200	-9.801600	26.325587	-0.000123	20.932877
1848.533525	-2.989600	3.237100	-9.677000	26.309393	-0.000125	20.918974
1849.534972	-3.015700	3.236700	-9.760100	26.326633	-0.000125	20.899318
1850.532371	-3.014400	3.235200	-9.750700	26.318408	-0.000125	20.932774
1851.535261	-3.005400	3.236600	-9.726100	26.321176	-0.000127	20.940771
1852.534316	-2.997800	3.234400	-9.695100	26.315310	-0.000126	20.933928
1853.535081	-2.986900	3.235400	-9.662700	26.313562	-0.000124	20.920793
1854.537305	-3.016600	3.234700	-9.757200	26.320244	-0.000127	20.919922
1855.535285	-3.012400	3.233100	-9.738600	26.311700	-0.000125	20.917026
1856.535308	-2.991500	3.234700	-9.675100	26.315003	-0.000123	20.910863
1857.538436	-2.993000	3.233700	-9.677900	26.330916	-0.000125	20.927802
1858.536500	-3.013000	3.233100	-9.740300	26.309316	-0.000123	20.938809
1859.539629	-3.008600	3.231700	-9.722400	26.323532	-0.000126	20.924174
1860.540191	-2.995600	3.231500	-9.679700	26.344712	-0.000125	20.913693
1861.536960	-2.988100	3.232500	-9.658100	26.334625	-0.000125	20.938640
1862.536972	-3.000300	3.230400	-9.690800	26.339650	-0.000128	20.923777
1863.537601	-2.982300	3.230300	-9.632900	26.354696	-0.000124	20.929415
1864.536573	-3.010200	3.229500	-9.720400	26.346906	-0.000126	20.921113
1865.541057	-2.996300	3.229200	-9.674200	26.363060	-0.000127	20.926442
1866.537853	-3.035400	3.227400	-9.796200	26.363774	-0.000123	20.923366
1867.536860	-3.011600	3.228700	-9.723000	26.361415	-0.000124	20.918625
1868.537245	-3.014200	3.227500	-9.727600	26.371231	-0.000127	20.917111
1869.537726	-3.013200	3.227900	-9.724900	26.355000	-0.000126	20.909617
1870.540293	-2.999000	3.226000	-9.673300	26.350154	-0.000126	20.929118
1871.537313	-3.026100	3.226600	-9.762600	26.359093	-0.000126	20.912973
1872.537754	-2.987300	3.227000	-9.639400	26.390383	-0.000126	20.902223
1873.536658	-2.981800	3.226300	-9.617700	26.357842	-0.000126	20.920250
1874.537080	-2.984500	3.225800	-9.626700	26.402507	-0.000126	20.909820
1875.538990	-2.978700	3.224800	-9.605000	26.374431	-0.000124	20.915586
1876.536426	-2.979300	3.224500	-9.606300	26.364370	-0.000126	20.914009
1877.537135	-2.974600	3.224500	-9.591100	26.370529	-0.000125	20.923517
1878.539366	-3.015100	3.223500	-9.718600	26.376381	-0.000125	20.919442
1879.537740	-2.996800	3.222400	-9.656800	26.380231	-0.000124	20.912407
1880.540896	-3.025800	3.222100	-9.749400	26.393913	-0.000125	20.894865
1881.540386	-3.000100	3.222400	-9.666300	26.407261	-0.000124	20.905435
1882.541862	-3.008200	3.220100	-9.685400	26.393785	-0.000127	20.917494
1883.541529	-3.018000	3.221000	-9.719700	26.399344	-0.000126	20.906012
1884.538553	-3.000700	3.220300	-9.662500	26.384196	-0.000128	20.901220
1885.539136	-2.987300	3.219900	-9.618300	26.399764	-0.000125	20.925399
1886.541342	-3.031800	3.218200	-9.755400	26.389869	-0.000125	20.922092
1887.540416	-2.995600	3.219400	-9.643100	26.421553	-0.000125	20.899412
1888.541603	-3.004700	3.218400	-9.669100	26.403206	-0.000128	20.900411
1889.541949	-2.986500	3.219700	-9.614800	26.402785	-0.000125	20.895722
1890.540014	-3.000300	3.218500	-9.655200	26.420596	-0.000127	20.911250
1891.549282	-2.999100	3.217400	-9.648900	26.413150	-0.000127	20.896656
1892.542621	-3.000800	3.216100	-9.650000	26.398130	-0.000126	20.904793
1893.541511	-3.010000	3.216400	-9.679900	26.416299	-0.000124	20.907880
1894.545004	-2.999500	3.215600	-9.644400	26.411300	-0.000123	20.907123
1895.542533	-3.006000	3.215200	-9.663300	26.419754	-0.000124	20.901871
1896.541506	-2.979100	3.216200	-9.580500	26.409592	-0.000125	20.920104
1897.545247	-2.984900	3.215200	-9.596400	26.423847	-0.000126	20.885597
1898.542686	-2.991600	3.213700	-9.613100	26.423119	-0.000124	20.895770
1899.543064	-2.994400	3.212300	-9.617300	26.423031	-0.000126	20.912275
1900.542911	-2.995700	3.212200	-9.622200	26.432580	-0.000125	20.870667
1901.542176	-2.998300	3.211400	-9.628500	26.425057	-0.000127	20.907674
1902.543689	-2.997100	3.212000	-9.625500	26.441773	-0.000124	20.886545
1903.543226	-3.016100	3.210300	-9.682200	26.440497	-0.000127	20.908968
1904.544441	-3.020800	3.210900	-9.697700	26.442117	-0.000127	20.902062
1905.545340	-3.026900	3.209300	-9.713100	26.431380	-0.000127	20.902176
1906.545471	-2.989600	3.211500	-9.599300	26.430093	-0.000126	20.916054
1907.545846	-3.000100	3.209300	-9.627200	26.429940	-0.000123	20.877971
1908.546788	-2.990900	3.208900	-9.596300	26.440841	-0.000124	20.889875
1909.546920	-2.978300	3.209000	-9.556400	26.443518	-0.000126	20.919115
1910.548979	-3.018700	3.208300	-9.684000	26.460208	-0.000125	20.914080
1911.547179	-2.994200	3.209100	-9.608100	26.449344	-0.000128	20.868551
1912.547196	-3.008600	3.206900	-9.647200	26.465511	-0.000125	20.883377
1913.549519	-3.013700	3.206600	-9.662900	26.484369	-0.000126	20.892848
1914.548414	-3.000900	3.205300	-9.618300	26.476181	-0.000125	20.890783
1915.548654	-3.002100	3.206000	-9.622900	26.499705	-0.000123	20.897832
1916.549083	-3.009800	3.204300	-9.643000	26.481487	-0.000124	20.884737
1917.549080	-2.997900	3.204200	-9.604500	26.480683	-0.000126	20.894359
1918.551210	-2.993000	3.203200	-9.586500	26.486662	-0.000128	20.882826
1919.549099	-2.989100	3.203300	-9.574100	26.494604	-0.000127	20.890809
1920.548634	-2.987500	3.203800	-9.570500	26.492985	-0.000125	20.912412
1921.551520	-3.008500	3.201700	-9.631500	26.478935	-0.000126	20.896395
1922.550932	-3.001800	3.202400	-9.612200	26.486304	-0.000125	20.896215
1923.550326	-2.985000	3.202500	-9.558300	26.490129	-0.000124	20.889155
1924.553729	-2.982400	3.201100	-9.545600	26.481879	-0.000126	20.900776
1925.549575	-3.012600	3.200900	-9.641800	26.476588	-0.000126	20.876020
1926.550327	-2.987300	3.201000	-9.560600	26.474152	-0.000126	20.884477
1927.551921	-3.007700	3.198500	-9.618800	26.491365	-0.000127	20.891820
1928.551210	-3.010800	3.197700	-9.626300	26.491237	-0.000128	20.879838
1929.554430	-2.984600	3.199300	-9.547400	26.499154	-0.000125	20.879735
1930.550568	-3.004900	3.196600	-9.604400	26.510896	-0.000127	20.879210
1931.550996	-3.020000	3.195300	-9.648700	26.519997	-0.000126	20.901159
1932.555878	-3.006500	3.196000	-9.606600	26.503553	-0.000125	20.884631
1933.552975	-3.006900	3.194300	-9.603500	26.513214	-0.000126	20.889126
1934.553759	-3.011300	3.194600	-9.618900	26.525848	-0.000126	20.898032
1935.556458	-2.988400	3.193700	-9.543200	26.519628	-0.000127	20.869496
1936.553183	-3.023200	3.193800	-9.654700	26.519577	-0.000127	20.879875
1937.554951	-3.022500	3.192700	-9.649200	26.530997	-0.000126	20.896569
1938.552373	-3.008000	3.193300	-9.603500	26.534134	-0.000126	20.887395
1939.553706	-3.022000	3.192200	-9.644400	26.544498	-0.000125	20.881692
1940.557301	-3.007000	3.193400	-9.601700	26.528090	-0.000125	20.872312
1941.555796	-3.010700	3.190700	-9.605300	26.547035	-0.000126	20.885190
1942.555943	-2.988000	3.191000	-9.533800	26.562422	-0.000127	20.862727
1943.554803	-2.984300	3.191300	-9.523600	26.561033	-0.000128	20.870338
1944.555160	-3.001800	3.189100	-9.571800	26.553599	-0.000127	20.884676
1945.557146	-2.997200	3.190800	-9.562900	26.545057	-0.000126	20.875616
1946.556777	-2.992500	3.190200	-9.545400	26.557793	-0.000127	20.883202
1947.555862	-3.010900	3.189800	-9.602600	26.574021	-0.000125	20.847834
1948.558044	-3.006000	3.188600	-9.584100	26.553508	-0.000127	20.872258
1949.558150	-2.993700	3.188300	-9.544100	26.572109	-0.000126	20.866300
1950.558728	-2.995700	3.187400	-9.546800	26.569494	-0.000127	20.863672
1951.562304	-2.992600	3.187200	-9.538100	26.563274	-0.000127	20.874014
1952.557385	-3.011700	3.185400	-9.592100	26.581528	-0.000125	20.860596
1953.557896	-3.018800	3.185100	-9.614200	26.586398	-0.000128	20.883034
1954.558866	-3.015900	3.184800	-9.604100	26.576826	-0.000125	20.897117
1955.558787	-3.018800	3.183700	-9.609900	26.585262	-0.000125	20.867668
1956.563184	-3.009900	3.183200	-9.579700	26.574555	-0.000126	20.877767
1957.559552	-2.987600	3.183000	-9.508400	26.597042	-0.000127	20.875716
1958.559921	-2.992200	3.182300	-9.521500	26.571776	-0.000128	20.862646
1959.560916	-2.981200	3.181500	-9.483000	26.583989	-0.000126	20.879664
1960.561909	-3.022900	3.180900	-9.614200	26.598278	-0.000123	20.871743
1961.563456	-3.017700	3.181000	-9.598800	26.576058	-0.000126	20.854623
1962.562912	-3.002400	3.180000	-9.546600	26.603825	-0.000125	20.863569
1963.562365	-2.976300	3.180200	-9.463600	26.606743	-0.000126	20.866028
1964.565997	-3.000400	3.178600	-9.537000	26.594249	-0.000124	20.876702
1965.564120	-2.983400	3.179200	-9.483700	26.618305	-0.000126	20.858685
1966.564448	-2.994000	3.179500	-9.518600	26.608948	-0.000126	20.866348
1967.565946	-3.006900	3.178100	-9.555200	26.605416	-0.000124	20.859479
1968.564435	-3.021700	3.176700	-9.597500	26.620879	-0.000126	20.851790
1969.565141	-3.002200	3.176100	-9.534300	26.618813	-0.000126	20.874368
1970.565780	-2.993400	3.176500	-9.508100	26.619731	-0.000124	20.866282
1971.566285	-2.957300	3.174900	-9.388100	26.611917	-0.000124	20.858902
1972.568339	-3.019800	3.174400	-9.585200	26.634645	-0.000126	20.860413
1973.568387	-3.030400	3.173900	-9.616700	26.638546	-0.000126	20.870498
1974.566608	-3.000700	3.172900	-9.519400	26.620853	-0.000126	20.852712
1975.571067	-2.997400	3.172300	-9.507700	26.632759	-0.000126	20.849508
1976.567117	-2.997300	3.173000	-9.509300	26.652963	-0.000126	20.857491
1977.567743	-2.995300	3.171700	-9.499500	26.649954	-0.000127	20.865371
1978.572318	-2.977700	3.172100	-9.444100	26.655932	-0.000127	20.854312
1979.568100	-3.007000	3.170800	-9.534300	26.650056	-0.000127	20.856465
1980.567889	-3.003800	3.168300	-9.516500	26.659936	-0.000126	20.838897
1981.569094	-2.992800	3.169300	-9.483700	26.667343	-0.000126	20.852507
1982.569289	-3.005300	3.167100	-9.517400	26.657947	-0.000126	20.839742
1983.571235	-3.027700	3.167000	-9.587500	26.662382	-0.000127	20.857951
1984.569246	-2.997200	3.167400	-9.493000	26.652579	-0.000127	20.837666
1985.570625	-2.989500	3.166800	-9.466600	26.661603	-0.000128	20.857642
1986.570533	-3.005300	3.165500	-9.512200	26.659029	-0.000126	20.850787
1987.570493	-3.010800	3.165500	-9.529500	26.654492	-0.000127	20.845278
1988.573155	-3.004900	3.164200	-9.507400	26.667428	-0.000126	20.843584
1989.572366	-3.016800	3.164700	-9.546000	26.641768	-0.000127	20.858091
1990.573548	-2.977900	3.164300	-9.422000	26.668627	-0.000127	20.859013
1991.573230	-2.993600	3.163000	-9.468000	26.681782	-0.000126	20.856591
1992.573642	-3.015200	3.162000	-9.533300	26.672948	-0.000128	20.841073
1993.578398	-2.970700	3.163000	-9.395600	26.671570	-0.000126	20.852489
1994.575136	-2.990400	3.162500	-9.456600	26.681782	-0.000128	20.842367
1995.575153	-2.981000	3.161500	-9.424000	26.675943	-0.000128	20.852618
1996.580934	-2.979900	3.160700	-9.417500	26.696695	-0.000127	20.853566
1997.576642	-2.982500	3.160200	-9.424200	26.681131	-0.000127	20.841713
1998.575489	-3.003500	3.159500	-9.488400	26.688717	-0.000124	20.829900
1999.591531	-3.013100	3.157900	-9.514700	26.689584	-0.000127	20.859693
2000.576930	-3.010700	3.157500	-9.505400	26.669493	-0.000127	20.833333
2001.577454	-2.984500	3.157300	-9.421900	26.687811	-0.000127	20.844635
2002.577028	-3.016800	3.156800	-9.522800	26.686345	-0.000125	20.831782
2003.577106	-3.022200	3.153700	-9.530800	26.694019	-0.000127	20.820057
2004.579190	-2.988400	3.154900	-9.427200	26.713228	-0.000126	20.857385
2005.576426	-3.016700	3.152400	-9.508500	26.701883	-0.000125	20.841713
2006.577149	-2.985100	3.153400	-9.413100	26.710705	-0.000127	20.835409
2007.576993	-3.008100	3.151500	-9.479200	26.710054	-0.000127	20.839022
2008.577432	-2.979200	3.151800	-9.389300	26.703463	-0.000126	20.839982
2009.579365	-2.995700	3.151400	-9.439600	26.719103	-0.000128	20.839111
2010.577853	-2.999400	3.149400	-9.445200	26.711546	-0.000127	20.840996
2011.577094	-2.990400	3.148800	-9.415700	26.716134	-0.000129	20.828540
2012.578199	-2.993900	3.148500	-9.425700	26.719373	-0.000127	20.845546
2013.577558	-2.990700	3.148700	-9.416000	26.724101	-0.000127	20.837971
2014.577078	-3.002100	3.147700	-9.449100	26.736999	-0.000128	20.830551
2015.578231	-3.012700	3.146400	-9.478000	26.744764	-0.000127	20.844047
2016.576676	-2.996700	3.144600	-9.420800	26.728777	-0.000125	20.839354
2017.578231	-2.998900	3.145500	-9.432100	26.752398	-0.000127	20.835126
2018.577574	-3.005600	3.144700	-9.451200	26.743960	-0.000127	20.835178
2019.579442	-3.005900	3.143500	-9.447600	26.777100	-0.000126	20.842893
2020.580489	-3.013400	3.143300	-9.471200	26.760057	-0.000127	20.843301
2021.579216	-3.019700	3.141800	-9.486400	26.775276	-0.000127	20.832524
2022.578451	-3.008000	3.142100	-9.449400	26.776245	-0.000127	20.818326
2023.582277	-3.011500	3.141800	-9.460100	26.762887	-0.000127	20.838085
2024.579835	-3.000800	3.140700	-9.424300	26.786722	-0.000128	20.835972
2025.581838	-3.016600	3.139200	-9.467900	26.783447	-0.000127	20.826515
2026.582164	-3.004000	3.137300	-9.423900	26.793069	-0.000125	20.829077
2027.579885	-2.991000	3.136900	-9.381000	26.799444	-0.000127	20.825055
2028.578255	-2.986400	3.138300	-9.371300	26.796805	-0.000126	20.840893
2029.579300	-3.000000	3.137100	-9.410600	26.815452	-0.000127	20.822659
2030.578914	-3.019700	3.135400	-9.466700	26.795964	-0.000128	20.816815
2031.582053	-2.993000	3.134700	-9.381000	26.801063	-0.000126	20.808666
2032.578665	-2.995100	3.135400	-9.390300	26.806697	-0.000126	20.822865
2033.580022	-3.006900	3.134000	-9.422600	26.821901	-0.000128	20.826772
2034.579869	-2.994500	3.133200	-9.381300	26.823290	-0.000129	20.825324
2035.580602	-3.010800	3.132500	-9.430200	26.818359	-0.000125	20.814676
2036.584390	-3.023600	3.130400	-9.464800	26.822552	-0.000125	20.818891
2037.580045	-2.994700	3.130900	-9.375200	26.809259	-0.000128	20.837294
2038.580844	-3.016700	3.129500	-9.439100	26.820947	-0.000127	20.811114
2039.581779	-3.021400	3.128700	-9.452300	26.819430	-0.000127	20.818597
2040.580456	-2.996800	3.128800	-9.375400	26.835631	-0.000130	20.826352
2041.581168	-3.016200	3.127100	-9.430500	26.839480	-0.000127	20.820740
2042.583333	-3.001800	3.127800	-9.388300	26.845508	-0.000128	20.829645
2043.582000	-3.010900	3.125600	-9.409600	26.833452	-0.000128	20.822265
2044.582582	-3.013800	3.125000	-9.417000	26.837656	-0.000126	20.816061
2045.582337	-2.996300	3.124400	-9.360900	26.843520	-0.000126	20.810103
2046.581949	-3.010700	3.123200	-9.402400	26.838767	-0.000126	20.823816
2047.584104	-2.999000	3.123900	-9.366500	26.849102	-0.000126	20.823776
2048.582565	-2.971100	3.122900	-9.277300	26.865698	-0.000129	20.797789
2049.582332	-3.005100	3.123000	-9.384300	26.858508	-0.000127	20.810474
2050.584037	-2.997500	3.120900	-9.354600	26.836614	-0.000127	20.812168
2051.583808	-3.001100	3.118300	-9.357800	26.885974	-0.000127	20.825290
2052.585289	-3.000000	3.119100	-9.356500	26.837392	-0.000126	20.817692
2053.584595	-2.992700	3.117100	-9.327600	26.858496	-0.000124	20.816627
2054.584352	-2.994100	3.118500	-9.336900	26.868297	-0.000125	20.813679
2055.586799	-3.010100	3.115200	-9.375600	26.874734	-0.000127	20.799763
2056.586912	-2.983600	3.116600	-9.298500	26.887477	-0.000126	20.802145
2057.587805	-3.010700	3.114000	-9.374200	26.855923	-0.000126	20.811194
2058.587060	-2.995900	3.114800	-9.330800	26.875436	-0.000128	20.804736
2059.587968	-2.995000	3.112900	-9.322000	26.866959	-0.000127	20.796687
2060.589192	-2.984200	3.112400	-9.286700	26.855605	-0.000128	20.827943
2061.587873	-3.017600	3.110200	-9.384500	26.868999	-0.000125	20.810117
2062.589820	-2.985500	3.110600	-9.285400	26.879273	-0.000128	20.802431
2063.589842	-2.957300	3.112100	-9.202900	26.896019	-0.000126	20.808838
2064.590580	-2.994000	3.109700	-9.309900	26.901601	-0.000127	20.805441
2065.593790	-3.019300	3.108900	-9.385100	26.912333	-0.000127	20.805801
2066.591377	-3.017600	3.107900	-9.377300	26.928581	-0.000126	20.812182
2067.593528	-2.995600	3.106400	-9.303600	26.908115	-0.000128	20.812465
2068.594283	-2.992900	3.105400	-9.292500	26.912194	-0.000128	20.795230
2069.593196	-2.988900	3.105600	-9.281400	26.912322	-0.000126	20.808635
2070.596210	-2.997100	3.103600	-9.301100	26.929641	-0.000126	20.799023
2071.592993	-2.993300	3.105000	-9.293300	26.945559	-0.000126	20.813134
2072.594033	-3.010900	3.102300	-9.339700	26.924468	-0.000125	20.799038
2073.597236	-3.004300	3.100600	-9.314200	26.933402	-0.000128	20.781468
2074.594433	-3.032100	3.098900	-9.395100	26.949331	-0.000127	20.824987
2075.593561	-2.988800	3.098200	-9.259100	26.934612	-0.000126	20.815876
2076.593713	-3.000300	3.098600	-9.295600	26.949130	-0.000126	20.803448
2077.594455	-3.003800	3.095900	-9.298200	26.960011	-0.000126	20.818658
2078.600030	-3.000100	3.095500	-9.286500	26.967059	-0.000125	20.817210
2079.594782	-2.996100	3.095700	-9.273800	26.971353	-0.000127	20.801614
2080.594918	-3.011100	3.093500	-9.313600	26.972362	-0.000125	20.815904
2081.599857	-3.000000	3.093800	-9.280600	26.990356	-0.000127	20.807921
2082.595678	-2.990200	3.092100	-9.245400	26.958523	-0.000125	20.818584
2083.595298	-2.971800	3.092700	-9.190200	26.974580	-0.000126	20.802963
2084.597166	-3.000100	3.092000	-9.274900	26.990078	-0.000126	20.816650
2085.596453	-2.995900	3.089600	-9.255400	26.970274	-0.000125	20.798158
2086.597538	-2.992800	3.087500	-9.239500	26.981679	-0.000125	20.802514
2087.598997	-3.012600	3.087900	-9.302100	26.969470	-0.000127	20.799246
2088.598282	-3.027200	3.086400	-9.342200	26.948380	-0.000127	20.802220
2089.603196	-3.028000	3.085300	-9.340700	26.982000	-0.000128	20.806156
2090.600126	-2.973100	3.085600	-9.173500	26.982968	-0.000127	20.792431
2091.600773	-2.990000	3.082600	-9.216000	26.997253	-0.000126	20.800632
2092.600659	-3.017500	3.081100	-9.295600	26.993674	-0.000126	20.832120
2093.601161	-3.009400	3.081600	-9.272800	26.975183	-0.000127	20.792189
2094.603115	-2.978700	3.079400	-9.172000	27.010889	-0.000127	20.802017
2095.601009	-3.006100	3.078400	-9.253300	26.990169	-0.000125	20.812948
2096.600706	-3.013000	3.077300	-9.269900	26.996043	-0.000127	20.806527
2097.603938	-3.007700	3.076200	-9.251500	27.005589	-0.000127	20.805222
2098.603028	-3.008500	3.077500	-9.258200	27.012380	-0.000128	20.820586
2099.602843	-2.988900	3.074500	-9.188400	27.016879	-0.000126	20.812309
2100.606611	-3.010600	3.072200	-9.248600	27.029865	-0.000127	20.820152
2101.604893	-3.004800	3.073400	-9.234200	27.006901	-0.000127	20.821240
2102.604084	-2.973100	3.070200	-9.126700	26.979057	-0.000128	20.803671
2103.603938	-2.994900	3.070500	-9.194800	27.021518	-0.000126	20.816025
2104.604682	-3.003200	3.068300	-9.213500	27.015235	-0.000126	20.806388
2105.606628	-2.970300	3.068700	-9.114200	27.008952	-0.000127	20.811449
2106.604422	-3.006800	3.066900	-9.220700	27.034046	-0.000128	20.818667
2107.604273	-3.006300	3.065200	-9.214500	27.011528	-0.000126	20.818307
2108.610302	-2.967500	3.065800	-9.097000	27.013221	-0.000126	20.803414
2109.604342	-2.994600	3.064000	-9.173300	27.012903	-0.000125	20.813525
2110.610268	-2.995600	3.062500	-9.172000	27.015414	-0.000126	20.808938
2111.608253	-2.977700	3.061400	-9.115300	27.022143	-0.000127	20.801955
2112.605087	-2.973300	3.061900	-9.102100	27.058688	-0.000127	20.796507
2113.605350	-2.982300	3.060600	-9.127200	27.059821	-0.000127	20.803337
2114.605817	-2.994000	3.057600	-9.153900	27.033711	-0.000127	20.808373
2115.605847	-2.991000	3.056900	-9.142300	27.035776	-0.000128	20.836527
2116.609111	-3.012500	3.055200	-9.202400	27.040962	-0.000128	20.826096
2117.605264	-2.983700	3.054600	-9.113300	27.038554	-0.000125	20.812768
2118.607000	-3.022500	3.052600	-9.225000	27.046123	-0.000124	20.819906
2119.606784	-2.976600	3.054100	-9.089500	27.054621	-0.000127	20.831771
2120.605946	-2.995600	3.052200	-9.142300	27.068498	-0.000127	20.817753
2121.607492	-2.984700	3.050000	-9.102100	27.087982	-0.000128	20.824071
2122.605551	-2.993800	3.048300	-9.125100	27.077124	-0.000126	20.820737
2123.606754	-3.031600	3.046000	-9.232900	27.086911	-0.000126	20.838641
2124.607666	-2.994400	3.046100	-9.120300	27.093091	-0.000126	20.832054
2125.605568	-3.037500	3.043000	-9.242200	27.090222	-0.000126	20.827747
2126.607667	-2.974600	3.044700	-9.056000	27.096581	-0.000125	20.821340
2127.609542	-2.993000	3.042600	-9.106200	27.100251	-0.000126	20.836884
2128.608650	-3.002500	3.042000	-9.132200	27.109157	-0.000125	20.810755
2129.608078	-2.999200	3.040300	-9.117400	27.104965	-0.000127	20.843048
2130.612248	-3.012100	3.037000	-9.145400	27.112929	-0.000126	20.808858
2131.608939	-2.980400	3.038000	-9.052800	27.104826	-0.000124	20.824416
2132.613024	-2.975900	3.036500	-9.035600	27.139494	-0.000127	20.818981
2133.608232	-3.009400	3.035000	-9.132600	27.122281	-0.000128	20.852402
2134.610373	-2.987000	3.032100	-9.055500	27.117018	-0.000128	20.813919
2135.612554	-2.984400	3.033400	-9.051600	27.127913	-0.000127	20.836730
2136.609768	-3.008400	3.030100	-9.114800	27.119734	-0.000125	20.838461
2137.608931	-2.976600	3.029800	-9.017800	27.115070	-0.000129	20.828555
2138.613432	-2.995800	3.028400	-9.071700	27.125110	-0.000126	20.825850
2139.610053	-2.989100	3.028000	-9.049800	27.124423	-0.000125	20.830374
2140.611958	-3.029100	3.025500	-9.163800	27.142516	-0.000125	20.823917
2141.611637	-3.015700	3.024300	-9.120300	27.149639	-0.000128	20.828709
2142.612406	-3.017800	3.023500	-9.123700	27.123238	-0.000127	20.854313
2143.615456	-2.971500	3.023400	-8.982700	27.128782	-0.000126	20.845664
2144.613052	-2.995100	3.020000	-9.043000	27.124002	-0.000127	20.836590
2145.612353	-3.012100	3.018700	-9.091300	27.123545	-0.000126	20.839923
2146.612804	-2.970900	3.019400	-8.969000	27.131804	-0.000125	20.849177
2147.613716	-2.989800	3.017000	-9.019200	27.134465	-0.000127	20.862759
2148.615727	-3.028700	3.014800	-9.129500	27.138861	-0.000129	20.857697
2149.614607	-3.019400	3.015300	-9.103000	27.142863	-0.000127	20.836119
2150.615585	-3.028400	3.011900	-9.120300	27.146086	-0.000127	20.846473
2151.616346	-2.993800	3.011300	-9.014100	27.152394	-0.000126	20.855187
2152.614958	-2.992000	3.010800	-9.007800	27.151846	-0.000126	20.842308
2153.615657	-2.994100	3.008100	-9.005800	27.155731	-0.000125	20.872292
2154.616944	-2.972100	3.007000	-8.936500	27.174449	-0.000126	20.847972
2155.615885	-3.017800	3.005200	-9.068400	27.181074	-0.000125	20.858903
2156.615005	-3.003800	3.004900	-9.025800	27.181852	-0.000126	20.878176
2157.615438	-3.008500	3.002000	-9.030500	27.203856	-0.000126	20.861902
2158.615782	-3.001700	3.001500	-9.008400	27.195370	-0.000128	20.861428
2159.618263	-2.990000	2.999000	-8.965800	27.174145	-0.000125	20.866632
2160.615987	-3.004300	3.000000	-9.011000	27.192136	-0.000127	20.866709
2161.616655	-3.005200	2.996800	-9.004500	27.176386	-0.000126	20.834274
2162.619584	-2.999200	2.996300	-8.985900	27.199335	-0.000127	20.852139
2163.616984	-3.019000	2.994200	-9.037700	27.219171	-0.000126	20.879676
2164.618059	-3.012000	2.994000	-9.017600	27.210137	-0.000126	20.832660
2165.619081	-3.003100	2.993100	-8.987500	27.223377	-0.000127	20.872527
2166.616709	-3.000400	2.990200	-8.970800	27.194084	-0.000128	20.865349
2167.621671	-2.982400	2.989000	-8.913400	27.231135	-0.000126	20.852356
2168.618254	-3.022900	2.986600	-9.026700	27.209885	-0.000127	20.847578
2169.618261	-2.998900	2.986900	-8.956300	27.240182	-0.000124	20.860982
2170.619110	-3.000300	2.985200	-8.955300	27.229187	-0.000124	20.857509
2171.619264	-2.974800	2.984800	-8.878400	27.238030	-0.000124	20.855024
2172.619044	-3.019100	2.981300	-8.999800	27.256604	-0.000126	20.855216
2173.618447	-2.992500	2.981300	-8.919400	27.238973	-0.000126	20.865929
2174.619882	-3.003600	2.979100	-8.948000	27.250374	-0.000127	20.861751
2175.622592	-3.000500	2.978700	-8.937200	27.239177	-0.000128	20.882729
2176.619894	-2.999100	2.977400	-8.928700	27.282647	-0.000127	20.854385
2177.619790	-3.002700	2.975800	-8.934200	27.265166	-0.000126	20.853396
2178.623898	-3.018700	2.973600	-8.975100	27.276084	-0.000126	20.879550
2179.621344	-3.013500	2.971200	-8.952400	27.272492	-0.000125	20.876411
2180.621019	-3.017100	2.970600	-8.961100	27.282519	-0.000126	20.874169
2181.622460	-2.998100	2.970000	-8.903200	27.276826	-0.000125	20.867495
2182.620468	-3.011200	2.968900	-8.938500	27.286023	-0.000128	20.880539
2183.620790	-2.987300	2.966200	-8.859000	27.288508	-0.000125	20.870237
2184.620829	-2.992900	2.965800	-8.874900	27.296050	-0.000126	20.872607
2185.621086	-3.008100	2.965600	-8.919400	27.298699	-0.000125	20.879065
2186.622198	-3.016100	2.961600	-8.930800	27.277462	-0.000126	20.870031
2187.619850	-3.030800	2.961400	-8.974500	27.282227	-0.000125	20.877194
2188.620646	-2.980600	2.961200	-8.825500	27.303540	-0.000125	20.875401
2189.620550	-2.988800	2.958300	-8.841000	27.312993	-0.000127	20.863099
2190.620680	-2.989800	2.958400	-8.844100	27.314356	-0.000126	20.866841
2191.622405	-2.997100	2.956100	-8.859000	27.315058	-0.000127	20.889356
2192.622200	-2.991400	2.954300	-8.837200	27.312178	-0.000127	20.897364
2193.622212	-2.995600	2.953800	-8.847400	27.313848	-0.000126	20.872493
2194.624400	-3.008800	2.952200	-8.881800	27.323465	-0.000125	20.867469
2195.622878	-3.036800	2.947900	-8.950700	27.326652	-0.000125	20.874941
2196.624610	-3.008100	2.946800	-8.863200	27.352295	-0.000126	20.892674
2197.625033	-3.007600	2.945200	-8.855900	27.324664	-0.000125	20.879579
2198.624571	-2.993000	2.944600	-8.811700	27.327353	-0.000126	20.901249
2199.626427	-2.984700	2.943800	-8.784900	27.361060	-0.000127	20.891061
2200.625174	-2.977600	2.942700	-8.761000	27.342780	-0.000127	20.898750
2201.629085	-3.000500	2.940700	-8.822800	27.351494	-0.000127	20.889499
2202.625988	-2.977000	2.938700	-8.747500	27.349072	-0.000125	20.899389
2203.625387	-3.020100	2.937500	-8.870400	27.371864	-0.000127	20.900980
2204.629160	-2.998400	2.935500	-8.801600	27.360589	-0.000126	20.911448
2205.628249	-2.982500	2.934500	-8.751400	27.370615	-0.000128	20.907309
2206.628920	-3.025200	2.932600	-8.870700	27.379837	-0.000127	20.904733
2207.627043	-2.997600	2.931200	-8.785600	27.377849	-0.000127	20.894200
2208.626370	-3.000800	2.929400	-8.790100	27.380513	-0.000125	20.914895
2209.628329	-3.008100	2.927200	-8.804500	27.402194	-0.000126	20.897353
2210.629031	-3.026700	2.924700	-8.850900	27.385657	-0.000124	20.891623
2211.630605	-3.016400	2.924200	-8.819500	27.401313	-0.000125	20.907372
2212.629748	-3.000500	2.923600	-8.770600	27.399632	-0.000125	20.902837
2213.627478	-3.000100	2.921600	-8.764200	27.402983	-0.000126	20.916163
2214.630563	-2.994700	2.920600	-8.745600	27.388193	-0.000126	20.911242
2215.629344	-3.009600	2.917800	-8.780900	27.398588	-0.000126	20.901311
2216.630147	-2.996500	2.916000	-8.737400	27.411237	-0.000127	20.898390
2217.631012	-3.004300	2.915200	-8.757400	27.433757	-0.000128	20.912984
2218.631158	-2.967700	2.914500	-8.648700	27.425197	-0.000125	20.894891
2219.629859	-2.985300	2.910500	-8.687700	27.423579	-0.000129	20.888522
2220.632067	-2.994000	2.910900	-8.714300	27.431415	-0.000125	20.915369
2221.631762	-2.981000	2.908700	-8.669500	27.442431	-0.000127	20.913649
2222.633862	-3.008600	2.904500	-8.736500	27.452876	-0.000126	20.908037
2223.632297	-3.033400	2.904200	-8.808400	27.447374	-0.000124	20.902028
2224.632621	-2.989900	2.903700	-8.680400	27.459208	-0.000124	20.888330
2225.634598	-2.999800	2.901200	-8.701900	27.469639	-0.000126	20.910202
2226.632624	-3.022800	2.899200	-8.763000	27.452851	-0.000128	20.920338
2227.634745	-3.024300	2.897200	-8.761200	27.482085	-0.000126	20.899492
2228.634564	-3.016600	2.894800	-8.730900	27.450914	-0.000127	20.909857
2229.632606	-2.994000	2.895400	-8.668200	27.464812	-0.000126	20.908192
2230.635622	-3.007000	2.890200	-8.690100	27.485114	-0.000129	20.914866
2231.633349	-2.977600	2.890600	-8.605700	27.477588	-0.000127	20.922466
2232.634255	-3.009300	2.888200	-8.690600	27.476685	-0.000124	20.911128
2233.634221	-2.996800	2.885800	-8.647000	27.474315	-0.000127	20.926285
2234.634088	-2.984700	2.884800	-8.608300	27.486327	-0.000127	20.926990
2235.634861	-3.008100	2.881800	-8.668200	27.497510	-0.000127	20.930180
2236.636930	-2.999100	2.880900	-8.639300	27.503574	-0.000126	20.907361
2237.635565	-2.998900	2.880100	-8.636400	27.508361	-0.000126	20.920235
2238.639375	-3.006100	2.876400	-8.645600	27.512642	-0.000126	20.926439
2239.637033	-2.994200	2.874600	-8.606100	27.500593	-0.000125	20.927119
2240.637530	-3.023600	2.872700	-8.684900	27.497459	-0.000127	20.928707
2241.642181	-2.985200	2.871800	-8.572100	27.529085	-0.000126	20.917854
2242.637818	-3.005500	2.868300	-8.619600	27.518845	-0.000126	20.929835
2243.639250	-3.006400	2.867800	-8.620800	27.541824	-0.000126	20.942047
2244.642966	-3.017400	2.865100	-8.644600	27.505740	-0.000126	20.922815
2245.638916	-3.017000	2.863200	-8.637100	27.530882	-0.000126	20.926773
2246.639104	-2.996100	2.862500	-8.575900	27.537659	-0.000126	20.919842
2247.639911	-3.024700	2.859400	-8.647900	27.549123	-0.000126	20.935641
2248.639831	-2.996000	2.857200	-8.559400	27.554127	-0.000125	20.923135
2249.645139	-3.003600	2.855900	-8.577200	27.546905	-0.000124	20.932462
2250.643083	-3.007700	2.854700	-8.584700	27.557784	-0.000124	20.925865
2251.642254	-2.990300	2.851800	-8.527000	27.554650	-0.000126	20.947365
2252.641469	-3.016800	2.849400	-8.595200	27.577247	-0.000126	20.946394
2253.642374	-2.998400	2.848600	-8.541000	27.549250	-0.000126	20.929607
2254.643015	-2.999300	2.845700	-8.534000	27.571629	-0.000125	20.937424
2255.643709	-3.018200	2.842800	-8.579000	27.566533	-0.000125	20.952209
2256.644425	-2.974000	2.840900	-8.448300	27.588251	-0.000124	20.936604
2257.646616	-2.988100	2.838200	-8.479600	27.591739	-0.000127	20.935373
2258.643436	-2.998000	2.836300	-8.502100	27.617862	-0.000125	20.942690
2259.651008	-3.005600	2.835300	-8.520000	27.613493	-0.000124	20.950147
2260.647584	-3.017400	2.832000	-8.544200	27.618548	-0.000126	20.964715
2261.647158	-3.007200	2.830100	-8.509900	27.631450	-0.000125	20.938346
2262.647645	-3.007900	2.828900	-8.507400	27.634800	-0.000125	20.945509
2263.648766	-2.996300	2.826000	-8.466600	27.658335	-0.000126	20.937898
2264.647708	-3.007400	2.823800	-8.491300	27.645817	-0.000125	20.950430
2265.650991	-2.987500	2.821500	-8.428300	27.668409	-0.000126	20.936181
2266.648178	-3.004300	2.819800	-8.470300	27.688441	-0.000126	20.940217
2267.649953	-3.014200	2.816300	-8.487500	27.681859	-0.000127	20.947343
2268.648604	-2.985700	2.815500	-8.405600	27.677374	-0.000128	20.962268
2269.649666	-3.021500	2.812800	-8.497500	27.691027	-0.000126	20.965101
2270.650526	-3.012000	2.808400	-8.457200	27.705188	-0.000128	20.949482
2271.648921	-3.034400	2.807400	-8.517200	27.675287	-0.000126	20.959695
2272.648280	-3.027100	2.805800	-8.491600	27.691447	-0.000126	20.976427
2273.648723	-3.004100	2.802500	-8.418100	27.694961	-0.000125	20.981859
2274.648250	-3.014900	2.800700	-8.442400	27.706449	-0.000124	20.967343
2275.651213	-3.024800	2.797100	-8.460100	27.698577	-0.000128	20.957053
2276.649290	-2.998300	2.796200	-8.383100	27.721501	-0.000127	20.957835
2277.648345	-2.988100	2.793700	-8.346600	27.730899	-0.000125	20.969662
2278.651203	-2.951700	2.792400	-8.240400	27.740246	-0.000126	20.973377
2279.651943	-2.985900	2.790500	-8.331800	27.738668	-0.000125	20.961359
2280.654202	-3.013700	2.785000	-8.391500	27.748548	-0.000125	20.954708
2281.651760	-2.955800	2.785100	-8.230300	27.760849	-0.000124	20.972300
2282.651350	-2.986400	2.781100	-8.304100	27.789170	-0.000125	20.972826
2283.652844	-2.997600	2.778400	-8.327800	27.786701	-0.000126	20.983142
2284.651079	-3.007000	2.774900	-8.343900	27.793155	-0.000125	20.971621
2285.651700	-3.009700	2.772600	-8.342700	27.790127	-0.000124	20.988959
2286.658671	-2.974700	2.771200	-8.242200	27.804425	-0.000124	20.978221
2287.650635	-3.021400	2.767100	-8.358800	27.805967	-0.000124	20.992098
2288.650632	-3.027400	2.763800	-8.366500	27.807698	-0.000126	20.987677
2289.651742	-3.013700	2.762500	-8.323800	27.821974	-0.000124	20.981183
2290.654981	-3.012000	2.759400	-8.309300	27.828136	-0.000125	20.967471
2291.651385	-3.027500	2.755500	-8.340300	27.840692	-0.000126	20.985321
2292.651186	-3.022900	2.753200	-8.322000	27.848434	-0.000127	20.976045
2293.650965	-3.016500	2.750600	-8.296500	27.859511	-0.000124	20.986243
2294.650636	-3.068300	2.746100	-8.425200	27.865573	-0.000126	20.988551
2295.652540	-3.014700	2.744200	-8.272600	27.893968	-0.000126	20.987731
2296.650337	-3.011800	2.741500	-8.256700	27.880065	-0.000127	20.991281
2297.651762	-3.012400	2.739200	-8.250300	27.854522	-0.000126	20.981697
2298.653125	-2.990400	2.735500	-8.180000	27.879633	-0.000125	20.971410
2299.651300	-2.995300	2.732400	-8.183200	27.883924	-0.000126	20.989476
2300.653045	-2.992700	2.729700	-8.168400	27.896389	-0.000125	20.960774
2301.655264	-3.015900	2.727400	-8.225100	27.909733	-0.000124	20.968040
2302.653630	-3.016500	2.721600	-8.208600	27.917946	-0.000126	20.968246
2303.652182	-3.010700	2.719100	-8.185600	27.938674	-0.000126	20.967772
2304.654328	-2.999000	2.715400	-8.142900	27.919461	-0.000125	20.959341
2305.654023	-3.000000	2.712900	-8.137900	27.922836	-0.000126	20.948514
2306.656446	-3.012200	2.708000	-8.156000	27.967588	-0.000125	20.961789
2307.654350	-2.995500	2.704300	-8.099700	27.951254	-0.000124	20.964787
2308.653127	-2.991000	2.701700	-8.079500	27.955380	-0.000126	20.988851
2309.657213	-3.018300	2.697300	-8.139600	27.952426	-0.000125	20.956011
2310.654881	-2.967200	2.694000	-7.993200	27.969246	-0.000126	20.961086
2311.655966	-3.003800	2.689500	-8.077000	27.961785	-0.000127	20.951682
2312.656354	-3.001800	2.687000	-8.065100	27.998171	-0.000123	20.962226
2313.655893	-3.002200	2.681900	-8.050800	28.003060	-0.000125	20.955294
2314.655652	-3.012500	2.677900	-8.065900	28.014315	-0.000124	20.965673
2315.655157	-3.009300	2.673800	-8.045300	28.012649	-0.000125	20.959256
2316.654554	-2.996100	2.670700	-8.001100	28.010228	-0.000127	20.937856
2317.657280	-3.009300	2.664300	-8.016600	28.034036	-0.000124	20.950913
2318.655707	-2.992500	2.663200	-7.968100	28.018656	-0.000127	20.935434
2319.655608	-2.978100	2.657400	-7.912400	28.043241	-0.000124	20.955911
2320.654996	-2.980700	2.653900	-7.909900	28.041942	-0.000124	20.940381
2321.655729	-3.030300	2.646600	-8.018400	28.044246	-0.000128	20.947441
2322.656574	-2.989100	2.643300	-7.900400	28.052356	-0.000124	20.939958
2323.656231	-3.030800	2.637700	-7.993000	28.071756	-0.000127	20.933409
2324.655195	-3.024600	2.634400	-7.967200	28.076784	-0.000126	20.944633
2325.656496	-2.988600	2.628900	-7.856000	28.083494	-0.000126	20.921045
2326.655270	-2.985700	2.624500	-7.835600	28.107235	-0.000124	20.952053
2327.655247	-3.004200	2.619700	-7.869400	28.105008	-0.000125	20.952656
2328.658902	-2.997200	2.613900	-7.833700	28.124955	-0.000124	20.944761
2329.657552	-3.029100	2.608500	-7.900200	28.124064	-0.000126	20.932486
2330.658593	-3.015300	2.604900	-7.853300	28.129665	-0.000126	20.935280
2331.657155	-3.009100	2.599000	-7.820000	28.126598	-0.000125	20.939778
2332.660374	-3.000800	2.593200	-7.780500	28.122804	-0.000126	20.907039
2333.663217	-3.011200	2.588200	-7.793100	28.125641	-0.000126	20.914636
2334.659225	-2.997000	2.583700	-7.742800	28.149968	-0.000124	20.941968
2335.662073	-3.031100	2.577900	-7.812000	28.140293	-0.000124	20.926066
2336.659498	-3.009100	2.572800	-7.739800	28.167114	-0.000125	20.925092
2337.658737	-3.000800	2.567000	-7.701900	28.158355	-0.000124	20.940454
2338.660490	-2.995800	2.561600	-7.672400	28.177143	-0.000124	20.913379
2339.659465	-2.999000	2.556400	-7.666000	28.194799	-0.000125	20.927360
2340.659184	-3.003400	2.549500	-7.656300	28.202499	-0.000126	20.932266
2341.658278	-3.005600	2.544000	-7.644900	28.202868	-0.000125	20.928845
2342.659859	-3.008000	2.538800	-7.635600	28.246145	-0.000125	20.920259
2343.665182	-3.025700	2.532000	-7.660400	28.227982	-0.000126	20.922836
2344.660725	-2.995800	2.526200	-7.567000	28.210824	-0.000123	20.919311
2345.660808	-3.008800	2.521200	-7.584900	28.234178	-0.000127	20.927651
2346.663971	-3.037300	2.513800	-7.633500	28.253972	-0.000124	20.901589
2347.661694	-3.017500	2.506000	-7.561000	28.242746	-0.000125	20.919682
2348.661229	-3.026900	2.499300	-7.564400	28.259609	-0.000126	20.912005
