LabVIEW Measurement	
Writer_Version	2
Reader_Version	2
Separator	Tab
Decimal_Separator	.
Multi_Headings	No
X_Columns	One
Time_Pref	Absolute
Operator	admin
Description	Clolumns are: time, Current, Voltage, Power, Battery Temp, and Chamber Temp
Date	2024/08/16
Time	13:59:35.9411449432373046875
***End_of_Header***	
	
Channels	6						
Samples	1	1	1	1	1	1	
Date	2024/09/19	2024/09/19	2024/09/19	2024/09/19	2024/09/19	2024/09/19	
Time	16:51:25.4694895744323730469	16:51:25.47751617431640625	16:51:25.4843688011169433594	16:51:25.4507951736450195313	16:51:25.4507951736450195313	16:51:25.4507951736450195313	
X_Dimension	Time	Time	Time	Time	Time	Time	
X0	0.0000000000000000E+0	0.0000000000000000E+0	0.0000000000000000E+0	0.0000000000000000E+0	0.0000000000000000E+0	0.0000000000000000E+0	
Delta_X	1.000000	1.000000	1.000000	1.000000	1.000000	1.000000	
***End_of_Header***							
X_Value	Untitled	Untitled 1	Untitled 2	Untitled 3	Untitled 4	Untitled 5	Comment
0.000000	0.029770	4.101000	0.122170	20.941817	0.000404	20.910052
0.997475	-2.987300	3.936000	-11.757000	20.919708	0.000405	20.920656
2.002348	-3.002300	3.928700	-11.793000	20.920256	0.000404	20.904137
2.998823	-3.001400	3.923400	-11.775000	20.953490	0.000404	20.913191
3.998811	-2.986100	3.920800	-11.707000	20.912720	0.000403	20.905135
5.002771	-3.001700	3.916500	-11.755000	20.929512	0.000402	20.925245
5.998208	-2.979800	3.915000	-11.665000	20.935976	0.000402	20.919383
6.999125	-2.986100	3.911000	-11.678000	20.933156	0.000402	20.917511
8.000631	-3.017300	3.907200	-11.789000	20.948352	0.000399	20.918010
8.999970	-3.000600	3.906200	-11.718000	20.938319	0.000399	20.915088
9.999562	-3.004400	3.904300	-11.729000	20.952895	0.000398	20.908329
11.006248	-3.015900	3.902000	-11.767000	20.962175	0.000396	20.910024
11.999463	-3.009400	3.902800	-11.744000	20.937451	0.000398	20.923702
12.999272	-3.006200	3.900900	-11.724000	20.952123	0.000396	20.906135
13.999602	-3.005600	3.898400	-11.715000	20.970786	0.000396	20.919584
15.000749	-3.011200	3.897500	-11.735000	20.981194	0.000394	20.917192
16.001958	-3.001200	3.896300	-11.692000	20.971040	0.000395	20.895659
17.000234	-3.003000	3.893800	-11.692000	20.980745	0.000393	20.917217
18.001505	-2.975400	3.894900	-11.588000	20.975356	0.000392	20.915147
18.999603	-3.011300	3.893100	-11.722000	20.995045	0.000392	20.916346
19.999743	-3.033900	3.891000	-11.804000	20.989858	0.000390	20.912107
21.000881	-3.006800	3.890600	-11.697000	20.986341	0.000389	20.897685
21.999880	-3.029900	3.888700	-11.782000	21.000042	0.000390	20.892423
23.001424	-2.996600	3.889600	-11.655000	21.004709	0.000389	20.918899
24.002942	-3.002200	3.888900	-11.674000	21.015011	0.000388	20.925884
25.000944	-3.017700	3.887900	-11.731000	21.018909	0.000388	20.891379
26.001074	-2.993500	3.887600	-11.636000	21.045531	0.000388	20.908522
27.003809	-3.017000	3.886100	-11.723000	21.029112	0.000387	20.925289
28.002110	-3.010800	3.885400	-11.696000	21.044313	0.000387	20.902563
29.005857	-3.015600	3.885600	-11.716000	21.036353	0.000384	20.904084
30.002280	-3.006500	3.884400	-11.678000	21.058736	0.000385	20.879532
31.003446	-2.997200	3.884000	-11.640000	21.059288	0.000382	20.899049
32.006146	-2.993100	3.884100	-11.625000	21.082565	0.000382	20.893409
33.003956	-2.994200	3.883500	-11.626000	21.056372	0.000386	20.886651
34.003464	-2.970000	3.883900	-11.534000	21.059542	0.000383	20.892191
35.006475	-3.002100	3.881900	-11.653000	21.089254	0.000384	20.898677
36.003346	-3.013700	3.881500	-11.697000	21.091978	0.000383	20.869161
37.002630	-3.026800	3.879300	-11.740000	21.085143	0.000383	20.894091
38.009883	-3.003300	3.880800	-11.653000	21.097988	0.000382	20.879914
39.004150	-3.005100	3.880500	-11.660000	21.096591	0.000383	20.907911
40.007139	-3.021200	3.878900	-11.717000	21.105672	0.000381	20.902770
41.003114	-2.988400	3.880000	-11.594000	21.135885	0.000381	20.892690
42.003509	-3.033700	3.878400	-11.765000	21.123961	0.000381	20.878392
43.003844	-2.991400	3.878900	-11.603000	21.142522	0.000377	20.882260
44.004276	-3.008300	3.879000	-11.669000	21.103850	0.000380	20.898578
45.003454	-2.988500	3.877600	-11.587000	21.154050	0.000377	20.870084
46.003858	-3.006700	3.878100	-11.659000	21.152900	0.000378	20.876046
47.003343	-3.000300	3.878300	-11.635000	21.147764	0.000378	20.868538
48.003850	-3.002800	3.876600	-11.640000	21.177852	0.000378	20.880143
49.004430	-2.977900	3.877200	-11.545000	21.157321	0.000379	20.871460
50.005290	-3.003000	3.875700	-11.638000	21.180646	0.000379	20.855913
51.003957	-3.029500	3.874500	-11.737000	21.183320	0.000377	20.864277
52.007535	-2.987600	3.876400	-11.579000	21.175560	0.000377	20.865523
53.004551	-2.976300	3.875300	-11.533000	21.205799	0.000379	20.854996
54.004483	-2.985300	3.876100	-11.570000	21.208420	0.000375	20.863307
55.006848	-3.005400	3.874200	-11.642000	21.203755	0.000376	20.887088
56.006835	-2.995700	3.873300	-11.602000	21.209842	0.000376	20.850506
57.006803	-3.026100	3.873200	-11.720000	21.221815	0.000376	20.867698
58.008298	-3.006400	3.872500	-11.641000	21.226658	0.000377	20.867327
59.006519	-2.977400	3.874600	-11.535000	21.242872	0.000376	20.873589
60.010671	-2.990800	3.873300	-11.584000	21.252726	0.000374	20.864956
61.006729	-3.020900	3.872400	-11.698000	21.255973	0.000374	20.862514
62.006461	-2.999500	3.873000	-11.616000	21.247314	0.000375	20.855275
63.010311	-3.025700	3.871800	-11.714000	21.256468	0.000376	20.865380
64.006458	-2.982700	3.873200	-11.553000	21.264953	0.000374	20.850636
65.006639	-3.019800	3.870900	-11.689000	21.263311	0.000375	20.846149
66.007715	-2.983800	3.872200	-11.552000	21.281697	0.000373	20.859325
67.007495	-2.981100	3.872700	-11.544000	21.281799	0.000373	20.845204
68.009366	-3.000200	3.871700	-11.615000	21.307268	0.000374	20.842235
69.008439	-2.973800	3.871700	-11.513000	21.308492	0.000373	20.865743
70.009010	-3.001200	3.871000	-11.617000	21.299267	0.000371	20.830912
71.012866	-2.996100	3.870500	-11.595000	21.315707	0.000372	20.861582
72.009202	-3.008600	3.870700	-11.645000	21.293484	0.000372	20.859264
73.009706	-2.990500	3.871700	-11.578000	21.325889	0.000372	20.837156
74.014359	-2.996600	3.869300	-11.593000	21.348139	0.000373	20.840925
75.010410	-2.988600	3.871000	-11.569000	21.331579	0.000373	20.871297
76.010774	-3.017100	3.868400	-11.671000	21.336647	0.000373	20.839385
77.010899	-3.006500	3.868400	-11.630000	21.356927	0.000371	20.850665
78.012280	-3.003100	3.869400	-11.618000	21.352117	0.000372	20.826887
79.013480	-3.019800	3.866500	-11.675000	21.372148	0.000373	20.834126
80.012319	-2.988900	3.868600	-11.562000	21.371501	0.000372	20.844858
81.011572	-2.992200	3.868800	-11.575000	21.392830	0.000373	20.839171
82.013915	-2.981900	3.868900	-11.536000	21.381835	0.000371	20.848558
83.013047	-3.007500	3.867600	-11.631000	21.394704	0.000373	20.868072
84.013762	-2.988200	3.868000	-11.558000	21.400094	0.000372	20.835533
85.016923	-3.011000	3.867500	-11.645000	21.393339	0.000371	20.840628
86.013668	-2.988100	3.868000	-11.557000	21.407906	0.000371	20.839082
87.013718	-2.992400	3.867300	-11.571000	21.419775	0.000372	20.848112
88.014214	-3.010900	3.866900	-11.642000	21.434243	0.000374	20.852630
89.015145	-3.001600	3.866800	-11.605000	21.422073	0.000373	20.833343
90.013910	-3.007200	3.867000	-11.628000	21.437563	0.000373	20.832720
91.014563	-2.995700	3.866500	-11.582000	21.436718	0.000372	20.832348
92.015763	-3.007900	3.867600	-11.630000	21.441355	0.000371	20.833194
93.014515	-2.998300	3.866600	-11.593000	21.455773	0.000373	20.807792
94.013138	-2.990700	3.866300	-11.562000	21.461434	0.000373	20.835267
95.014549	-3.008100	3.864700	-11.624000	21.461611	0.000372	20.827384
96.015684	-3.000500	3.865900	-11.598000	21.485305	0.000370	20.829280
97.021506	-2.988100	3.865200	-11.548000	21.485004	0.000371	20.826609
98.018229	-3.000000	3.865800	-11.597000	21.483134	0.000373	20.819521
99.016003	-3.006900	3.863500	-11.617000	21.490772	0.000373	20.828586
100.018666	-3.002800	3.863500	-11.599000	21.511891	0.000374	20.820321
101.015297	-3.004900	3.864100	-11.610000	21.512662	0.000373	20.840058
102.017115	-2.998100	3.863800	-11.583000	21.509097	0.000374	20.837440
103.021880	-3.000900	3.864300	-11.595000	21.539746	0.000375	20.829227
104.017218	-3.005700	3.863200	-11.611000	21.514412	0.000373	20.830430
105.019419	-2.999600	3.863300	-11.587000	21.523737	0.000374	20.821269
106.022378	-2.990800	3.862800	-11.551000	21.546132	0.000371	20.832298
107.018793	-3.004600	3.861500	-11.601000	21.556136	0.000373	20.812437
108.019385	-2.999300	3.863300	-11.587000	21.524985	0.000374	20.817303
109.019813	-2.995000	3.862700	-11.568000	21.538303	0.000372	20.840111
110.020797	-3.003500	3.862900	-11.601000	21.574142	0.000373	20.818601
111.024096	-3.009900	3.862000	-11.623000	21.570277	0.000373	20.823268
112.020697	-2.996400	3.861800	-11.571000	21.574668	0.000371	20.825766
113.022094	-2.985600	3.862500	-11.530000	21.572027	0.000372	20.821700
114.026657	-2.977500	3.862100	-11.497000	21.600255	0.000372	20.821973
115.022278	-3.009900	3.861300	-11.621000	21.590131	0.000372	20.802360
116.021229	-2.970600	3.862900	-11.474000	21.599707	0.000373	20.814312
117.027002	-2.983300	3.861700	-11.520000	21.622103	0.000372	20.815862
118.021506	-3.014000	3.860400	-11.634000	21.608416	0.000372	20.823975
119.022027	-3.016400	3.862000	-11.648000	21.629861	0.000373	20.811297
120.022928	-3.013500	3.861000	-11.634000	21.621032	0.000373	20.819531
121.023864	-3.006700	3.861100	-11.608000	21.651560	0.000372	20.824003
122.024461	-2.990500	3.861000	-11.545000	21.659717	0.000374	20.800873
123.026643	-3.014700	3.859600	-11.635000	21.652009	0.000371	20.799797
124.022477	-2.997200	3.860800	-11.571000	21.646674	0.000374	20.800147
125.029475	-2.998800	3.859700	-11.573000	21.668999	0.000373	20.794988
126.023477	-2.984100	3.859200	-11.515000	21.675557	0.000373	20.805345
127.023834	-3.011200	3.859000	-11.619000	21.655361	0.000376	20.820694
128.023873	-2.986300	3.859800	-11.526000	21.669627	0.000373	20.792298
129.023768	-2.997600	3.859100	-11.567000	21.694119	0.000373	20.825343
130.024403	-2.997900	3.859800	-11.571000	21.681154	0.000373	20.800040
131.023926	-2.998900	3.860000	-11.574000	21.682674	0.000374	20.797768
132.023830	-2.988500	3.858800	-11.532000	21.699285	0.000374	20.813443
133.027580	-2.995200	3.858900	-11.557000	21.689286	0.000376	20.795850
134.025770	-3.017200	3.858600	-11.640000	21.724476	0.000374	20.825852
135.025887	-2.988400	3.859300	-11.532000	21.705574	0.000375	20.802668
136.026099	-2.999800	3.860200	-11.579000	21.713957	0.000376	20.809635
137.026607	-2.985100	3.858500	-11.516000	21.729669	0.000376	20.788850
138.030653	-3.009000	3.857100	-11.606000	21.729743	0.000377	20.800304
139.027250	-2.990100	3.858500	-11.536000	21.738999	0.000375	20.811938
140.026561	-3.005100	3.857600	-11.591000	21.749546	0.000377	20.813010
141.030574	-2.985900	3.857800	-11.518000	21.761917	0.000378	20.795994
142.027145	-3.008400	3.857500	-11.603000	21.748206	0.000379	20.815462
143.027689	-2.993200	3.857600	-11.546000	21.760078	0.000377	20.779455
144.027706	-3.015400	3.855700	-11.626000	21.762697	0.000375	20.797724
145.027620	-3.011800	3.856800	-11.615000	21.777062	0.000378	20.805936
146.029722	-2.982800	3.856500	-11.502000	21.791875	0.000377	20.794684
147.026863	-3.020200	3.855500	-11.643000	21.794046	0.000377	20.793537
148.026524	-3.013200	3.855200	-11.616000	21.805422	0.000378	20.787854
149.030088	-3.010800	3.854900	-11.605000	21.787692	0.000376	20.785756
150.027910	-3.008900	3.855900	-11.601000	21.798840	0.000377	20.768463
151.028139	-3.019500	3.854600	-11.637000	21.798921	0.000377	20.765225
152.030496	-3.016800	3.854900	-11.628000	21.805408	0.000378	20.791159
153.027555	-3.001900	3.855200	-11.572000	21.818128	0.000378	20.783975
154.027090	-3.021800	3.854900	-11.646000	21.815762	0.000377	20.793936
155.035290	-3.004100	3.855100	-11.580000	21.846908	0.000379	20.806143
156.026132	-2.986500	3.854900	-11.512000	21.834669	0.000377	20.799109
157.027704	-2.999400	3.854100	-11.559000	21.857333	0.000380	20.798086
158.033473	-3.009800	3.853900	-11.599000	21.853671	0.000378	20.785411
159.029041	-2.994700	3.855000	-11.544000	21.838964	0.000380	20.775433
160.026992	-2.987300	3.854500	-11.514000	21.873125	0.000379	20.792081
161.031995	-3.001400	3.854000	-11.567000	21.853557	0.000380	20.772021
162.030558	-3.018300	3.852400	-11.627000	21.855455	0.000380	20.790043
163.029844	-2.999700	3.852700	-11.556000	21.874577	0.000379	20.766982
164.030403	-2.993400	3.852400	-11.531000	21.870070	0.000381	20.770057
165.031333	-2.982100	3.854000	-11.492000	21.893158	0.000381	20.785580
166.031175	-2.988800	3.852300	-11.513000	21.881195	0.000381	20.777399
167.035332	-3.005700	3.851800	-11.575000	21.877310	0.000381	20.783468
168.032156	-3.010400	3.851600	-11.593000	21.915732	0.000379	20.798694
169.033193	-3.006700	3.851900	-11.580000	21.903642	0.000381	20.770471
170.036252	-2.992200	3.852300	-11.526000	21.931268	0.000381	20.775838
171.035069	-2.997100	3.851200	-11.542000	21.905664	0.000382	20.761115
172.034218	-2.991900	3.851600	-11.523000	21.929508	0.000382	20.774550
173.033930	-2.997100	3.851000	-11.541000	21.929536	0.000383	20.784536
174.036789	-3.014700	3.851200	-11.608000	21.925499	0.000383	20.794245
175.033596	-2.995800	3.851000	-11.535000	21.936500	0.000381	20.769221
176.033293	-3.014100	3.850200	-11.604000	21.935079	0.000383	20.753573
177.036686	-2.990500	3.850600	-11.515000	21.951159	0.000383	20.766825
178.032879	-2.997200	3.850600	-11.540000	21.939596	0.000384	20.772321
179.033408	-3.005600	3.851400	-11.575000	21.968692	0.000384	20.748340
180.038046	-3.012900	3.849200	-11.596000	21.960668	0.000385	20.776818
181.034565	-3.008500	3.848800	-11.578000	22.005146	0.000384	20.754960
182.035288	-3.019200	3.849600	-11.622000	21.981191	0.000384	20.752791
183.036816	-3.036200	3.848900	-11.684000	22.005998	0.000385	20.759132
184.035983	-3.013500	3.850000	-11.601000	22.000862	0.000385	20.763474
185.037248	-3.009400	3.849500	-11.584000	21.991615	0.000385	20.785038
186.038098	-2.982500	3.849600	-11.480000	22.009968	0.000386	20.774486
187.037398	-3.017700	3.848800	-11.614000	22.013881	0.000387	20.763704
188.043946	-2.997500	3.849600	-11.539000	22.020240	0.000387	20.765802
189.041893	-2.987700	3.849100	-11.499000	22.021088	0.000387	20.748159
190.038662	-2.966100	3.848700	-11.415000	22.039012	0.000389	20.769422
191.041631	-2.993100	3.848700	-11.519000	22.041582	0.000387	20.753502
192.040285	-2.998900	3.848700	-11.541000	22.041030	0.000390	20.752476
193.043066	-2.982500	3.848600	-11.477000	22.048662	0.000391	20.760116
194.039674	-2.980100	3.848400	-11.468000	22.045067	0.000390	20.751775
195.039368	-2.982700	3.847900	-11.476000	22.063638	0.000391	20.771315
196.042196	-2.993200	3.847400	-11.514000	22.038411	0.000390	20.746061
197.039305	-2.982700	3.848000	-11.475000	22.063811	0.000390	20.753470
198.038352	-3.009900	3.846000	-11.575000	22.078992	0.000392	20.758711
199.044868	-2.993200	3.846800	-11.514000	22.080335	0.000394	20.763375
200.038948	-2.984600	3.847900	-11.484000	22.091327	0.000391	20.762052
201.042539	-3.008300	3.846500	-11.571000	22.105158	0.000392	20.755035
202.041572	-2.968300	3.847100	-11.417000	22.098205	0.000393	20.740962
203.041938	-3.002300	3.846000	-11.545000	22.110838	0.000395	20.750764
204.041447	-2.980300	3.847900	-11.467000	22.104235	0.000393	20.746998
205.040823	-2.996000	3.848000	-11.527000	22.114771	0.000394	20.748064
206.045351	-2.983400	3.846300	-11.475000	22.121727	0.000395	20.763089
207.040523	-3.011000	3.845000	-11.576000	22.118956	0.000395	20.729967
208.040976	-2.945900	3.848000	-11.335000	22.141912	0.000395	20.770495
209.044297	-3.000000	3.845200	-11.535000	22.143156	0.000394	20.769844
210.042670	-2.992900	3.845300	-11.507000	22.123936	0.000398	20.770042
211.042958	-2.988100	3.845900	-11.490000	22.158958	0.000395	20.746783
212.042179	-2.973400	3.845500	-11.433000	22.141605	0.000395	20.731305
213.042595	-2.997400	3.844700	-11.522000	22.158453	0.000396	20.751019
214.041382	-2.979600	3.843800	-11.451000	22.164107	0.000396	20.759526
215.042614	-2.987500	3.844300	-11.483000	22.158594	0.000398	20.742151
216.041702	-2.991300	3.843500	-11.497000	22.188981	0.000398	20.757402
217.042007	-2.985400	3.843900	-11.474000	22.162082	0.000398	20.749911
218.046873	-3.010000	3.843100	-11.567000	22.194661	0.000398	20.746019
219.042721	-3.000400	3.843500	-11.530000	22.212427	0.000400	20.738676
220.041941	-2.978800	3.843300	-11.448000	22.193283	0.000401	20.753648
221.047350	-2.984600	3.843500	-11.470000	22.212547	0.000401	20.742590
222.042707	-2.990900	3.843200	-11.494000	22.207607	0.000401	20.749498
223.042478	-3.001400	3.842200	-11.531000	22.217700	0.000402	20.752966
224.046303	-3.006200	3.841700	-11.548000	22.244315	0.000401	20.737888
225.044328	-3.001500	3.842700	-11.533000	22.225299	0.000402	20.746823
226.044419	-2.988600	3.842300	-11.481000	22.245535	0.000401	20.749540
227.044731	-2.980200	3.842900	-11.450000	22.235265	0.000402	20.746370
228.047834	-2.995600	3.842200	-11.509000	22.247496	0.000401	20.763359
229.044466	-2.995200	3.842200	-11.507000	22.244630	0.000403	20.742945
230.044274	-2.985700	3.843400	-11.474000	22.257289	0.000404	20.752775
231.046657	-3.018200	3.840200	-11.590000	22.270622	0.000404	20.745263
232.044527	-3.014800	3.841500	-11.581000	22.259353	0.000404	20.739668
233.049869	-2.999700	3.841600	-11.522000	22.277122	0.000405	20.729010
234.043778	-3.006700	3.841000	-11.547000	22.273256	0.000404	20.754063
235.043678	-3.004900	3.840500	-11.540000	22.302488	0.000405	20.754885
236.048220	-3.012500	3.840100	-11.567000	22.291593	0.000405	20.736388
237.045735	-3.020700	3.839300	-11.596000	22.295855	0.000409	20.718369
238.050970	-3.013600	3.840000	-11.571000	22.297099	0.000405	20.743324
239.046248	-2.997900	3.841300	-11.515000	22.307315	0.000405	20.758296
240.046699	-3.014900	3.839200	-11.574000	22.324656	0.000406	20.733933
241.049858	-3.007900	3.839500	-11.548000	22.304245	0.000408	20.759489
242.045411	-3.008600	3.840000	-11.551000	22.320864	0.000408	20.752897
243.046726	-3.004200	3.839000	-11.533000	22.322306	0.000407	20.764772
244.045655	-3.004800	3.839100	-11.534000	22.331176	0.000408	20.750420
245.048015	-3.015600	3.838600	-11.574000	22.340894	0.000409	20.741658
246.048322	-3.032100	3.838000	-11.637000	22.341689	0.000409	20.755257
247.048202	-3.009800	3.837900	-11.551000	22.344431	0.000409	20.739036
248.048373	-3.005300	3.837300	-11.531000	22.352029	0.000409	20.765611
249.047741	-2.985400	3.839600	-11.462000	22.372835	0.000410	20.756100
250.048084	-2.991900	3.838200	-11.483000	22.363188	0.000412	20.740275
251.048552	-2.999600	3.838100	-11.512000	22.380408	0.000410	20.749458
252.048263	-2.976700	3.837000	-11.421000	22.386764	0.000408	20.746815
253.048583	-2.998400	3.836900	-11.504000	22.364757	0.000411	20.752278
254.048340	-2.993900	3.837100	-11.487000	22.375669	0.000411	20.745187
255.048444	-2.982200	3.836700	-11.441000	22.384394	0.000412	20.745389
256.050507	-2.988600	3.835800	-11.461000	22.395454	0.000412	20.757887
257.051611	-3.009200	3.836000	-11.542000	22.400885	0.000413	20.741040
258.050325	-3.017700	3.836800	-11.578000	22.422814	0.000413	20.755888
259.052634	-2.998900	3.836000	-11.503000	22.413023	0.000412	20.741341
260.050685	-3.007600	3.835000	-11.534000	22.438665	0.000414	20.758486
261.050679	-3.011900	3.836600	-11.555000	22.426775	0.000413	20.756536
262.053700	-3.002600	3.836200	-11.518000	22.418030	0.000413	20.752045
263.054912	-2.995400	3.835400	-11.488000	22.438336	0.000416	20.769063
264.051303	-3.002800	3.835900	-11.518000	22.446088	0.000415	20.754540
265.053581	-2.987300	3.834800	-11.455000	22.448502	0.000416	20.741310
266.051981	-3.025200	3.833800	-11.597000	22.429814	0.000416	20.767166
267.051490	-3.006200	3.834700	-11.527000	22.477581	0.000415	20.746724
268.054585	-3.006100	3.834100	-11.525000	22.453484	0.000416	20.760998
269.052545	-3.003500	3.833600	-11.513000	22.480224	0.000415	20.760276
270.052274	-2.992700	3.835800	-11.478000	22.462657	0.000415	20.768288
271.065314	-2.993700	3.833800	-11.477000	22.487672	0.000416	20.760149
272.054725	-2.999100	3.834200	-11.499000	22.479754	0.000416	20.754116
273.055495	-2.994000	3.833500	-11.477000	22.492813	0.000417	20.759133
274.057968	-2.995300	3.834100	-11.483000	22.496226	0.000419	20.755913
275.055702	-3.010400	3.833600	-11.540000	22.504875	0.000419	20.755566
276.055834	-2.986200	3.834900	-11.451000	22.485813	0.000418	20.772512
277.058187	-3.008400	3.832100	-11.527000	22.507094	0.000418	20.776755
278.056597	-3.002500	3.831500	-11.503000	22.514898	0.000418	20.745215
279.055550	-3.004800	3.831500	-11.511000	22.522498	0.000419	20.744766
280.058591	-2.995600	3.831400	-11.476000	22.500122	0.000418	20.758867
281.056594	-3.029900	3.831000	-11.607000	22.520283	0.000418	20.760566
282.056886	-2.999900	3.831200	-11.493000	22.536485	0.000418	20.770629
283.057451	-2.997100	3.832100	-11.484000	22.524303	0.000419	20.759376
284.058463	-2.989400	3.831600	-11.454000	22.527695	0.000420	20.750445
285.062939	-3.012100	3.831500	-11.539000	22.564173	0.000421	20.775600
286.059935	-3.005100	3.830300	-11.509000	22.561608	0.000420	20.783937
287.061963	-2.999400	3.830900	-11.489000	22.566169	0.000421	20.772384
288.060946	-3.013700	3.830100	-11.542000	22.559347	0.000422	20.772663
289.063953	-2.993400	3.829300	-11.461000	22.574994	0.000421	20.745660
290.060792	-2.987700	3.830800	-11.444000	22.571338	0.000421	20.752429
291.061031	-2.974000	3.831300	-11.393000	22.568423	0.000420	20.751407
292.065645	-2.996300	3.830300	-11.476000	22.577665	0.000423	20.757819
293.063034	-2.989400	3.830000	-11.448000	22.610857	0.000420	20.767355
294.062818	-3.012800	3.829300	-11.536000	22.570846	0.000421	20.760946
295.066626	-2.992600	3.828600	-11.457000	22.586546	0.000423	20.759127
296.064842	-3.013900	3.829000	-11.539000	22.615004	0.000424	20.741162
297.066125	-3.005100	3.828700	-11.505000	22.617473	0.000424	20.769240
298.069953	-3.007300	3.829800	-11.517000	22.605666	0.000423	20.770691
299.069768	-3.002600	3.828900	-11.496000	22.616406	0.000424	20.787138
300.069314	-3.014600	3.827100	-11.536000	22.629788	0.000424	20.759764
301.071328	-2.992600	3.829300	-11.459000	22.622044	0.000427	20.781879
302.065616	-3.019200	3.828200	-11.558000	22.624238	0.000426	20.750411
303.069165	-2.992000	3.828600	-11.454000	22.660668	0.000426	20.776943
304.066241	-2.984300	3.829400	-11.427000	22.640464	0.000426	20.767612
305.068238	-2.997800	3.826700	-11.471000	22.648911	0.000427	20.768012
306.066118	-2.999900	3.827500	-11.480000	22.637655	0.000428	20.765273
307.066201	-3.011200	3.826100	-11.520000	22.665436	0.000429	20.771762
308.073689	-2.985000	3.827500	-11.424000	22.658488	0.000429	20.774759
309.066847	-3.010200	3.826200	-11.516000	22.661607	0.000430	20.763185
310.068014	-2.993300	3.827600	-11.456000	22.685625	0.000429	20.766380
311.067677	-3.004700	3.826700	-11.497000	22.687346	0.000432	20.749611
312.067603	-3.001800	3.825700	-11.483000	22.694174	0.000432	20.751709
313.068777	-3.004500	3.825000	-11.491000	22.704118	0.000431	20.766412
314.066206	-2.989400	3.825800	-11.435000	22.695425	0.000433	20.752961
315.067373	-2.948600	3.827100	-11.283000	22.719241	0.000433	20.753584
316.070037	-2.982200	3.826200	-11.409000	22.697668	0.000432	20.763269
317.068176	-2.997500	3.824700	-11.464000	22.720990	0.000432	20.770983
318.069141	-2.984900	3.825900	-11.418000	22.703751	0.000433	20.780268
319.069064	-2.995300	3.825000	-11.456000	22.730880	0.000434	20.766192
320.070306	-3.002900	3.823700	-11.481000	22.723483	0.000434	20.773481
321.070920	-2.996400	3.825500	-11.461000	22.734568	0.000435	20.779844
322.070731	-3.016600	3.824200	-11.535000	22.735942	0.000434	20.772685
323.070611	-2.988900	3.823600	-11.428000	22.748818	0.000435	20.771358
324.071907	-2.994100	3.824900	-11.452000	22.761150	0.000437	20.768538
325.071336	-2.994300	3.823000	-11.446000	22.756791	0.000437	20.768913
326.070788	-3.003100	3.823000	-11.480000	22.750740	0.000438	20.778973
327.072836	-2.999700	3.821700	-11.463000	22.753032	0.000438	20.755665
328.070770	-2.995400	3.822400	-11.449000	22.750913	0.000437	20.767293
329.071489	-3.004400	3.822700	-11.484000	22.763690	0.000438	20.785781
330.074327	-2.986400	3.823100	-11.416000	22.766431	0.000440	20.794691
331.071373	-2.994400	3.821700	-11.442000	22.783223	0.000437	20.779745
332.073112	-3.017300	3.821500	-11.530000	22.791044	0.000438	20.776199
333.073143	-3.012300	3.821500	-11.510000	22.785064	0.000439	20.800555
334.073596	-2.984700	3.822800	-11.408000	22.791468	0.000440	20.793219
335.074197	-3.005100	3.822000	-11.485000	22.819072	0.000439	20.791001
336.074277	-3.012000	3.821700	-11.509000	22.817451	0.000438	20.801230
337.074069	-3.005100	3.821300	-11.483000	22.822537	0.000440	20.784989
338.078593	-2.987100	3.820400	-11.410000	22.819475	0.000439	20.768644
339.080675	-3.009900	3.821400	-11.501000	22.831032	0.000439	20.788757
340.074526	-2.985200	3.821000	-11.405000	22.829588	0.000441	20.779723
341.078670	-3.005900	3.820400	-11.483000	22.828771	0.000443	20.782225
342.073775	-2.998500	3.819200	-11.450000	22.849272	0.000440	20.794702
343.072730	-3.002200	3.819200	-11.464000	22.830562	0.000441	20.779277
344.074983	-2.987100	3.821000	-11.413000	22.859437	0.000441	20.789238
345.074858	-2.975900	3.820200	-11.367000	22.871220	0.000442	20.790137
346.076066	-2.987000	3.821300	-11.413000	22.870549	0.000442	20.786146
347.075798	-2.981700	3.819600	-11.388000	22.888707	0.000442	20.799121
348.076294	-3.001900	3.818300	-11.462000	22.864820	0.000443	20.772820
349.080792	-2.985000	3.819900	-11.401000	22.886892	0.000442	20.798725
350.077278	-2.973300	3.819700	-11.355000	22.875183	0.000444	20.791262
351.077948	-3.001700	3.818300	-11.460000	22.889813	0.000443	20.796435
352.080586	-2.987900	3.819500	-11.410000	22.900744	0.000445	20.802645
353.078818	-2.989100	3.817900	-11.412000	22.895089	0.000444	20.790816
354.080377	-3.010600	3.818000	-11.494000	22.888912	0.000443	20.782257
355.080032	-2.989100	3.818100	-11.412000	22.888068	0.000445	20.795162
356.080410	-3.008800	3.816200	-11.481000	22.897110	0.000445	20.805168
357.086180	-2.988400	3.818200	-11.408000	22.914324	0.000444	20.793017
358.081237	-3.004600	3.815900	-11.464000	22.890512	0.000446	20.807093
359.082726	-2.999000	3.816900	-11.446000	22.921349	0.000446	20.797210
360.085372	-2.984100	3.817200	-11.389000	22.936543	0.000446	20.795363
361.084134	-2.997600	3.816700	-11.440000	22.939386	0.000448	20.804850
362.086061	-2.996900	3.817300	-11.439000	22.938090	0.000446	20.811138
363.086368	-3.009100	3.815700	-11.481000	22.937313	0.000449	20.810359
364.085465	-3.011800	3.816800	-11.493000	22.947552	0.000448	20.810660
365.086996	-2.988100	3.815600	-11.400000	22.965786	0.000449	20.811385
366.085294	-2.988600	3.816200	-11.404000	22.962798	0.000451	20.792271
367.085580	-2.973100	3.816300	-11.345000	22.969770	0.000449	20.808264
368.087019	-2.981200	3.816300	-11.377000	22.983445	0.000449	20.789723
369.086188	-2.999300	3.814200	-11.439000	22.970441	0.000449	20.795186
370.086940	-2.994600	3.815300	-11.424000	22.969993	0.000450	20.791418
371.089554	-2.975500	3.815100	-11.351000	22.996095	0.000452	20.813777
372.087127	-2.984500	3.814800	-11.384000	23.004663	0.000450	20.807663
373.089046	-3.019800	3.812700	-11.512000	22.977162	0.000452	20.811403
374.090855	-2.981400	3.815300	-11.373000	23.016169	0.000454	20.819191
375.090013	-2.974900	3.814700	-11.347000	22.995417	0.000452	20.811201
376.090029	-2.993400	3.812700	-11.412000	23.008668	0.000452	20.814520
377.092954	-3.012600	3.812000	-11.483000	23.006274	0.000451	20.824449
378.090005	-2.993300	3.812900	-11.412000	23.027124	0.000454	20.817839
379.090920	-2.986600	3.812600	-11.386000	23.011924	0.000452	20.810197
380.091835	-2.982700	3.813000	-11.372000	23.008661	0.000454	20.809298
381.090527	-3.003600	3.811600	-11.447000	23.039121	0.000454	20.810894
382.090380	-3.011800	3.810700	-11.476000	23.027015	0.000454	20.815359
383.090083	-2.993200	3.812100	-11.409000	23.049327	0.000455	20.821594
384.092168	-3.024600	3.810300	-11.524000	23.071766	0.000453	20.820844
385.091238	-2.999400	3.810500	-11.429000	23.047604	0.000455	20.828876
386.092157	-2.995700	3.810900	-11.415000	23.048373	0.000457	20.830596
387.094394	-3.003000	3.811900	-11.446000	23.062570	0.000458	20.842449
388.092322	-3.010200	3.809800	-11.467000	23.080252	0.000458	20.812752
389.096201	-3.000200	3.810600	-11.432000	23.084980	0.000456	20.833136
390.094615	-2.993300	3.809200	-11.402000	23.072373	0.000457	20.820030
391.094610	-2.976100	3.809600	-11.337000	23.089179	0.000459	20.833551
392.094610	-3.005700	3.808900	-11.448000	23.101108	0.000457	20.824641
393.093659	-2.987100	3.810200	-11.381000	23.119036	0.000460	20.840709
394.096326	-2.979300	3.809300	-11.348000	23.107652	0.000459	20.811284
395.094174	-3.009100	3.808800	-11.460000	23.095720	0.000457	20.836785
396.094166	-2.984900	3.810300	-11.372000	23.107172	0.000460	20.825975
397.097475	-3.020400	3.806700	-11.496000	23.108740	0.000459	20.826124
398.097436	-2.977800	3.808000	-11.338000	23.121537	0.000461	20.847007
399.098999	-2.998100	3.807200	-11.413000	23.113889	0.000461	20.829387
400.097380	-3.003500	3.807700	-11.434000	23.122053	0.000461	20.831878
401.096289	-3.008700	3.806700	-11.452000	23.145786	0.000461	20.833375
402.097313	-3.017800	3.806500	-11.486000	23.134448	0.000463	20.837186
403.095787	-3.014300	3.806200	-11.472000	23.165024	0.000462	20.825152
404.095762	-3.013400	3.806800	-11.471000	23.164000	0.000461	20.841195
405.095695	-3.017100	3.805100	-11.480000	23.156327	0.000463	20.825446
406.099522	-2.986900	3.806900	-11.371000	23.192260	0.000463	20.847228
407.097255	-3.022900	3.805500	-11.502000	23.171861	0.000464	20.852865
408.096322	-3.011700	3.804100	-11.456000	23.193002	0.000461	20.845601
409.098746	-3.004200	3.804900	-11.430000	23.193023	0.000460	20.860320
410.095743	-2.987900	3.805300	-11.370000	23.200565	0.000463	20.834215
411.097529	-3.010600	3.803500	-11.450000	23.180291	0.000464	20.860837
412.100675	-2.993100	3.804100	-11.386000	23.167091	0.000463	20.856146
413.098602	-2.984200	3.805600	-11.355000	23.205015	0.000466	20.860484
414.102212	-2.978500	3.806000	-11.335000	23.210866	0.000463	20.839795
415.099052	-2.997400	3.804700	-11.402000	23.224209	0.000464	20.855537
416.099439	-2.994300	3.803700	-11.388000	23.212356	0.000465	20.855513
417.102624	-2.996500	3.804200	-11.398000	23.196813	0.000464	20.859851
418.099267	-3.025200	3.803700	-11.506000	23.230082	0.000462	20.877542
419.098294	-3.005400	3.803300	-11.429000	23.233641	0.000464	20.880161
420.103633	-2.986000	3.803700	-11.356000	23.241261	0.000464	20.866461
421.100934	-2.990800	3.803500	-11.375000	23.255253	0.000466	20.877638
422.099248	-2.996100	3.801700	-11.389000	23.264063	0.000465	20.842372
423.102547	-3.002000	3.802300	-11.414000	23.254106	0.000465	20.861316
424.098251	-2.998900	3.803600	-11.406000	23.253460	0.000465	20.861143
425.097878	-2.990100	3.801900	-11.367000	23.264070	0.000465	20.874146
426.103075	-2.993400	3.801400	-11.378000	23.272385	0.000467	20.883426
427.100007	-2.960200	3.801400	-11.252000	23.279457	0.000466	20.871075
428.100922	-3.011200	3.800900	-11.445000	23.290335	0.000465	20.865856
429.104111	-3.002400	3.800200	-11.408000	23.268946	0.000466	20.879980
430.101958	-2.969300	3.801900	-11.288000	23.284185	0.000467	20.884821
431.102298	-2.986700	3.799600	-11.348000	23.300846	0.000466	20.882078
432.105547	-2.990900	3.799300	-11.362000	23.292030	0.000467	20.877037
433.101670	-2.994000	3.800200	-11.377000	23.278430	0.000468	20.896122
434.101780	-3.003000	3.798700	-11.406000	23.292475	0.000469	20.888861
435.103359	-3.008100	3.799000	-11.427000	23.299173	0.000468	20.878979
436.101838	-3.001300	3.799300	-11.401000	23.315160	0.000470	20.885044
437.104053	-2.986500	3.801300	-11.351000	23.315456	0.000468	20.866850
438.102390	-2.989900	3.799100	-11.358000	23.315555	0.000470	20.879277
439.107675	-3.011200	3.798100	-11.436000	23.315601	0.000469	20.893546
440.102890	-2.988600	3.799400	-11.354000	23.309003	0.000470	20.870339
441.102170	-3.007500	3.797300	-11.419000	23.345827	0.000471	20.908191
442.107436	-3.005300	3.798900	-11.416000	23.346745	0.000469	20.879716
443.103507	-2.985800	3.798700	-11.341000	23.341764	0.000471	20.869983
444.103907	-2.986700	3.797900	-11.343000	23.331430	0.000471	20.890444
445.107091	-2.988200	3.797300	-11.346000	23.337778	0.000471	20.893013
446.104051	-2.991200	3.796900	-11.356000	23.347437	0.000470	20.890366
447.103843	-2.981900	3.796500	-11.320000	23.359342	0.000471	20.877643
448.105033	-2.993200	3.795900	-11.361000	23.370816	0.000469	20.885823
449.103675	-2.975200	3.798200	-11.300000	23.376539	0.000470	20.885396
450.104398	-3.019400	3.794700	-11.457000	23.370711	0.000473	20.884770
451.106561	-3.013200	3.795000	-11.435000	23.385775	0.000472	20.886118
452.106496	-3.012900	3.794800	-11.432000	23.393493	0.000473	20.890059
453.104641	-3.010300	3.794400	-11.423000	23.398817	0.000473	20.905826
454.107675	-2.994900	3.794500	-11.364000	23.385147	0.000472	20.907297
455.103675	-3.008800	3.794200	-11.414000	23.400585	0.000473	20.895745
456.104387	-3.016300	3.793400	-11.441000	23.414527	0.000472	20.902132
457.107984	-3.008200	3.793400	-11.410000	23.405211	0.000472	20.915078
458.106291	-2.998200	3.794600	-11.376000	23.415371	0.000472	20.897762
459.106728	-3.024100	3.793700	-11.471000	23.432973	0.000473	20.904499
460.109531	-2.982900	3.794400	-11.316000	23.423682	0.000471	20.899454
461.106526	-3.025000	3.792800	-11.471000	23.430781	0.000474	20.891397
462.110730	-3.015400	3.792400	-11.435000	23.430332	0.000473	20.906594
463.106562	-3.004400	3.792900	-11.394000	23.437898	0.000473	20.909435
464.106577	-2.983500	3.793000	-11.316000	23.442953	0.000474	20.893167
465.110036	-3.011700	3.792700	-11.421000	23.436256	0.000472	20.908264
466.106870	-3.008500	3.791400	-11.406000	23.441809	0.000473	20.903399
467.107780	-2.985800	3.792900	-11.324000	23.442282	0.000471	20.908140
468.107481	-2.992200	3.792300	-11.347000	23.445594	0.000474	20.898184
469.109604	-2.976800	3.792400	-11.288000	23.468151	0.000474	20.903724
470.113278	-3.007400	3.790200	-11.398000	23.461649	0.000472	20.908586
471.107187	-3.013100	3.789500	-11.417000	23.479578	0.000473	20.926556
472.108317	-3.009100	3.791700	-11.409000	23.483539	0.000474	20.909665
473.109374	-2.968400	3.791200	-11.253000	23.460985	0.000472	20.902231
474.107894	-2.988500	3.791100	-11.329000	23.476069	0.000473	20.919246
475.111143	-2.987800	3.789600	-11.322000	23.481551	0.000474	20.904828
476.111110	-2.983800	3.790000	-11.307000	23.508066	0.000472	20.892526
477.115746	-3.003800	3.788900	-11.380000	23.501044	0.000474	20.915831
478.112034	-2.989600	3.789100	-11.326000	23.502365	0.000476	20.899138
479.117457	-3.013900	3.788800	-11.418000	23.492360	0.000475	20.925143
480.113291	-3.001900	3.788400	-11.372000	23.508867	0.000475	20.903285
481.111893	-2.987000	3.789200	-11.317000	23.529308	0.000475	20.927567
482.110765	-3.002000	3.787300	-11.368000	23.506604	0.000473	20.916662
483.113706	-3.004700	3.788900	-11.384000	23.531130	0.000476	20.905213
484.113203	-3.004300	3.788200	-11.380000	23.540865	0.000475	20.898851
485.113979	-2.990400	3.787700	-11.326000	23.525753	0.000477	20.886075
486.114728	-3.022000	3.786500	-11.440000	23.526103	0.000474	20.916768
487.112547	-3.002700	3.786000	-11.367000	23.533099	0.000475	20.920462
488.113095	-3.005300	3.786400	-11.378000	23.527825	0.000475	20.900478
489.115149	-2.993100	3.787400	-11.335000	23.556876	0.000477	20.896883
490.113625	-3.022700	3.784800	-11.439000	23.538757	0.000477	20.894367
491.114259	-2.983800	3.786600	-11.298000	23.547274	0.000476	20.909542
492.114665	-3.009100	3.784700	-11.388000	23.577472	0.000477	20.904727
493.115820	-3.010300	3.783600	-11.389000	23.580187	0.000478	20.879001
494.116859	-3.014700	3.785200	-11.410000	23.562587	0.000477	20.874160
495.114293	-3.013300	3.784300	-11.403000	23.565474	0.000479	20.885589
496.117620	-3.000500	3.783900	-11.353000	23.577200	0.000478	20.878378
497.116510	-2.979700	3.784900	-11.278000	23.571425	0.000478	20.882546
498.117291	-2.984600	3.783500	-11.291000	23.565354	0.000478	20.884520
499.116426	-2.997800	3.784000	-11.342000	23.582181	0.000479	20.896171
500.116791	-3.010400	3.783400	-11.388000	23.598340	0.000478	20.889611
501.119649	-3.005400	3.783400	-11.370000	23.593684	0.000478	20.870721
502.118134	-2.991100	3.782000	-11.311000	23.597910	0.000478	20.892025
503.118618	-2.991000	3.783400	-11.316000	23.599353	0.000480	20.868818
504.118896	-2.997300	3.781400	-11.333000	23.605901	0.000480	20.881071
505.120012	-3.027100	3.780900	-11.444000	23.602068	0.000478	20.868220
506.122149	-2.998300	3.782400	-11.340000	23.603360	0.000479	20.870937
507.121130	-3.000800	3.780300	-11.343000	23.600568	0.000478	20.879518
508.120387	-3.006500	3.780600	-11.365000	23.609332	0.000481	20.862226
509.122954	-3.001700	3.780300	-11.346000	23.629614	0.000482	20.860274
510.120434	-2.982900	3.781700	-11.280000	23.619533	0.000480	20.863444
511.120565	-2.994400	3.780700	-11.320000	23.613879	0.000480	20.873896
512.124150	-3.004600	3.779600	-11.356000	23.621997	0.000480	20.875396
513.121455	-3.008500	3.780000	-11.371000	23.631951	0.000481	20.876840
514.120878	-2.988900	3.780100	-11.297000	23.623684	0.000481	20.877088
515.123872	-3.007100	3.777900	-11.360000	23.648829	0.000480	20.861045
516.121001	-2.994300	3.778200	-11.312000	23.656069	0.000481	20.856449
517.121730	-2.997400	3.779200	-11.327000	23.659824	0.000482	20.886765
518.126851	-2.985500	3.778200	-11.278000	23.651364	0.000481	20.877336
519.123307	-3.001400	3.778200	-11.340000	23.648847	0.000483	20.871020
520.123518	-2.996200	3.777600	-11.316000	23.653429	0.000480	20.871346
521.124330	-2.988600	3.777100	-11.287000	23.655218	0.000481	20.868872
522.125195	-2.989100	3.778800	-11.293000	23.686235	0.000482	20.861088
523.123624	-2.999300	3.776500	-11.326000	23.673163	0.000482	20.872637
524.124120	-3.001600	3.776600	-11.334000	23.659842	0.000483	20.862603
525.125457	-3.010300	3.776000	-11.365000	23.685731	0.000480	20.855367
526.126158	-2.995000	3.776900	-11.310000	23.677289	0.000480	20.857809
527.123840	-3.006900	3.775700	-11.352000	23.705740	0.000483	20.874478
528.126550	-3.006400	3.774700	-11.347000	23.686123	0.000483	20.863347
529.124481	-2.978500	3.775500	-11.245000	23.698145	0.000481	20.860226
530.123979	-3.002100	3.775100	-11.332000	23.692021	0.000483	20.874949
531.125293	-2.971300	3.774900	-11.215000	23.704537	0.000482	20.850040
532.124339	-2.997000	3.774400	-11.310000	23.699705	0.000483	20.836662
533.126226	-3.005500	3.773600	-11.340000	23.715312	0.000485	20.864161
534.128090	-3.001300	3.773900	-11.326000	23.715655	0.000484	20.868772
535.126119	-2.984300	3.773600	-11.261000	23.720035	0.000483	20.861784
536.126523	-3.010500	3.773200	-11.358000	23.701838	0.000484	20.843067
537.127126	-3.002100	3.773200	-11.326000	23.716965	0.000483	20.836422
538.126093	-3.007100	3.772700	-11.344000	23.731503	0.000484	20.851471
539.129118	-3.005800	3.772100	-11.337000	23.720223	0.000482	20.858654
540.138734	-2.988300	3.773000	-11.274000	23.718106	0.000483	20.857479
541.132480	-3.006900	3.772000	-11.341000	23.744784	0.000483	20.847718
542.129659	-3.007700	3.771500	-11.343000	23.735997	0.000481	20.840330
543.128277	-2.987400	3.771900	-11.267000	23.725567	0.000481	20.855477
544.131864	-3.014600	3.770300	-11.364000	23.754088	0.000485	20.861786
545.129505	-3.007900	3.771300	-11.343000	23.757717	0.000482	20.868269
546.131071	-2.990700	3.769400	-11.273000	23.763218	0.000481	20.837277
547.134348	-2.988700	3.770100	-11.266000	23.749031	0.000481	20.834432
548.133958	-3.020900	3.768900	-11.384000	23.758091	0.000482	20.852050
549.131728	-3.000200	3.769800	-11.310000	23.763064	0.000481	20.837596
550.131226	-3.004400	3.769500	-11.324000	23.766547	0.000481	20.853890
551.134047	-2.992500	3.770000	-11.281000	23.783597	0.000482	20.840165
552.133094	-3.014200	3.767400	-11.355000	23.777226	0.000483	20.866019
553.133118	-2.983800	3.770700	-11.250000	23.790165	0.000481	20.838690
554.132945	-2.999500	3.769000	-11.303000	23.766424	0.000483	20.836223
555.132833	-2.995000	3.768100	-11.284000	23.788551	0.000481	20.847977
556.136197	-2.991600	3.768100	-11.271000	23.777749	0.000483	20.826716
557.133007	-3.004800	3.766900	-11.318000	23.783770	0.000483	20.857881
558.133022	-2.970500	3.767600	-11.191000	23.789970	0.000481	20.851296
559.137405	-2.991900	3.766800	-11.269000	23.785711	0.000483	20.853190
560.134057	-3.004100	3.767300	-11.317000	23.795243	0.000482	20.846626
561.134610	-3.014700	3.765700	-11.352000	23.802114	0.000482	20.859679
562.140802	-3.004100	3.766700	-11.315000	23.794300	0.000483	20.842362
563.135199	-2.987200	3.767300	-11.253000	23.809736	0.000483	20.838873
564.136633	-2.987900	3.765800	-11.251000	23.814638	0.000483	20.836676
565.134544	-3.003900	3.765000	-11.307000	23.818894	0.000482	20.839995
566.134883	-2.993200	3.765500	-11.270000	23.823870	0.000483	20.850199
567.138382	-2.989500	3.765100	-11.255000	23.822804	0.000483	20.841070
568.135624	-2.995200	3.764700	-11.275000	23.824148	0.000483	20.832461
569.136049	-2.970700	3.767300	-11.189000	23.823227	0.000485	20.835331
570.136370	-3.014300	3.763200	-11.343000	23.815562	0.000483	20.842344
571.136631	-2.988700	3.765100	-11.253000	23.838836	0.000481	20.850032
572.137186	-3.012500	3.762600	-11.334000	23.829703	0.000482	20.841823
573.138145	-2.986300	3.764500	-11.241000	23.828086	0.000482	20.820289
574.137252	-2.989100	3.761800	-11.244000	23.833983	0.000483	20.841374
575.140307	-2.987000	3.763000	-11.240000	23.841352	0.000483	20.833115
576.137769	-3.008100	3.761800	-11.315000	23.832716	0.000483	20.835836
577.138269	-2.997400	3.761900	-11.275000	23.845808	0.000484	20.830472
578.139404	-2.998600	3.761700	-11.279000	23.852552	0.000482	20.832018
579.137510	-3.007100	3.760800	-11.308000	23.850241	0.000482	20.833968
580.138293	-3.019400	3.760600	-11.354000	23.850763	0.000484	20.853931
581.145185	-3.014300	3.760400	-11.334000	23.857260	0.000485	20.832471
582.139327	-3.005700	3.759600	-11.299000	23.859448	0.000484	20.849363
583.142181	-3.006100	3.759800	-11.301000	23.851755	0.000483	20.825529
584.138476	-2.998400	3.759400	-11.271000	23.866198	0.000481	20.843804
585.137755	-3.028400	3.759100	-11.384000	23.874632	0.000484	20.835666
586.139333	-3.003700	3.759300	-11.291000	23.875532	0.000485	20.837516
587.138563	-2.982800	3.759100	-11.212000	23.875878	0.000485	20.822691
588.140677	-2.993100	3.760000	-11.253000	23.871773	0.000483	20.837541
589.139270	-2.988400	3.759400	-11.234000	23.868911	0.000483	20.843680
590.141546	-2.972300	3.759200	-11.173000	23.887854	0.000483	20.841337
591.138810	-3.001200	3.758000	-11.277000	23.887285	0.000485	20.824172
592.139117	-2.973800	3.759700	-11.180000	23.881558	0.000481	20.815585
593.142003	-2.991300	3.758400	-11.241000	23.878975	0.000483	20.818210
594.138845	-3.002600	3.757700	-11.282000	23.884402	0.000483	20.818436
595.139946	-3.000500	3.756900	-11.270000	23.894134	0.000482	20.840997
596.141798	-2.985900	3.757800	-11.219000	23.894007	0.000484	20.816214
597.143646	-3.007900	3.757000	-11.299000	23.880799	0.000483	20.825254
598.143126	-3.022700	3.756500	-11.354000	23.892521	0.000484	20.800499
599.143326	-3.001300	3.756200	-11.273000	23.881822	0.000482	20.813478
600.144332	-2.999800	3.755800	-11.265000	23.892351	0.000482	20.829726
601.142131	-2.979900	3.755300	-11.189000	23.885880	0.000484	20.833194
602.145121	-2.998700	3.756000	-11.262000	23.909130	0.000482	20.814783
603.141407	-3.013600	3.755000	-11.316000	23.913862	0.000483	20.817631
604.142710	-3.000000	3.755700	-11.266000	23.910753	0.000482	20.825893
605.146252	-3.021200	3.752600	-11.336000	23.918121	0.000483	20.810997
606.143711	-2.997500	3.753100	-11.249000	23.931336	0.000483	20.808601
607.144238	-2.998200	3.753700	-11.254000	23.948516	0.000480	20.799277
608.142815	-2.986600	3.754100	-11.211000	23.935848	0.000480	20.804591
609.144490	-3.010000	3.753900	-11.298000	23.934211	0.000482	20.801527
610.150832	-2.976000	3.753200	-11.168000	23.929037	0.000483	20.816728
611.145144	-3.022900	3.753100	-11.344000	23.956836	0.000481	20.801930
612.145642	-3.011800	3.752600	-11.301000	23.930360	0.000481	20.805726
613.147885	-3.005500	3.751800	-11.275000	23.951913	0.000482	20.815485
614.145897	-2.983100	3.751700	-11.191000	23.924343	0.000481	20.803012
615.146016	-2.962900	3.753400	-11.120000	23.948236	0.000480	20.786668
616.152599	-3.003100	3.751800	-11.266000	23.957622	0.000479	20.795131
617.146235	-2.993600	3.750400	-11.227000	23.936623	0.000480	20.820540
618.147933	-2.997100	3.750300	-11.239000	23.932843	0.000480	20.798733
619.147437	-3.002300	3.750500	-11.259000	23.966467	0.000479	20.787880
620.147202	-2.996800	3.750000	-11.237000	23.977197	0.000483	20.804804
621.150978	-2.990500	3.751000	-11.217000	23.979589	0.000481	20.800091
622.148960	-3.016200	3.749700	-11.308000	23.966551	0.000481	20.812621
623.147576	-2.998200	3.749500	-11.241000	23.962624	0.000480	20.802518
624.151454	-3.004400	3.749500	-11.264000	23.957973	0.000480	20.788845
625.148038	-2.989200	3.749000	-11.205000	23.980499	0.000482	20.810486
626.148249	-2.994800	3.748500	-11.225000	23.978883	0.000481	20.791796
627.158055	-3.003600	3.748300	-11.256000	23.963508	0.000482	20.777327
628.151334	-3.023500	3.747700	-11.330000	23.986408	0.000484	20.781325
629.150872	-2.997000	3.748400	-11.232000	23.950950	0.000482	20.800295
630.155080	-2.992000	3.747800	-11.212000	23.961581	0.000481	20.799576
631.150663	-3.016100	3.747500	-11.302000	23.979898	0.000482	20.793288
632.151731	-3.005100	3.746900	-11.259000	23.982812	0.000481	20.793366
633.164231	-3.010300	3.746500	-11.277000	23.965049	0.000482	20.783614
634.151616	-2.997500	3.747100	-11.230000	23.997699	0.000480	20.782216
635.153026	-2.997100	3.746100	-11.226000	24.000916	0.000480	20.791607
636.153568	-3.005900	3.745800	-11.258000	23.985264	0.000481	20.794876
637.152063	-2.976700	3.746900	-11.153000	23.998531	0.000479	20.780680
638.152763	-2.994000	3.745100	-11.212000	24.000598	0.000481	20.797452
639.151868	-2.993800	3.745600	-11.213000	23.999483	0.000481	20.790170
640.152056	-3.006900	3.743800	-11.257000	24.003241	0.000479	20.803896
641.155294	-2.989600	3.745800	-11.198000	24.000012	0.000480	20.782166
642.156102	-2.980800	3.744700	-11.162000	23.984886	0.000480	20.785488
643.155314	-3.013200	3.743700	-11.280000	24.020572	0.000480	20.774809
644.158063	-3.003200	3.742100	-11.237000	23.991406	0.000478	20.798191
645.158060	-3.000400	3.743700	-11.232000	24.019182	0.000478	20.767251
646.156846	-2.989900	3.743600	-11.192000	24.023042	0.000478	20.777760
647.155821	-2.997500	3.741800	-11.215000	24.016154	0.000482	20.779862
648.158464	-2.989500	3.742300	-11.186000	24.041089	0.000480	20.777841
649.157221	-3.001400	3.742400	-11.231000	24.017947	0.000479	20.755106
650.156752	-3.005800	3.742500	-11.248000	24.030815	0.000479	20.768959
651.165093	-3.031800	3.741100	-11.342000	24.048287	0.000480	20.790275
652.158811	-2.993500	3.741100	-11.198000	24.027512	0.000479	20.765173
653.160139	-3.004800	3.741400	-11.240000	24.038337	0.000479	20.779822
654.159096	-2.991400	3.740900	-11.190000	24.042546	0.000478	20.772190
655.160460	-3.005600	3.740700	-11.242000	24.046081	0.000479	20.764355
656.163133	-2.986700	3.741000	-11.172000	24.047080	0.000479	20.772469
657.160947	-2.996900	3.740300	-11.208000	24.049102	0.000477	20.771652
658.161136	-3.002300	3.740500	-11.229000	24.033895	0.000476	20.784850
659.162841	-2.992400	3.739700	-11.190000	24.043255	0.000479	20.771004
660.161109	-3.001100	3.739500	-11.221000	24.050647	0.000479	20.769408
661.161336	-3.017200	3.739300	-11.281000	24.047316	0.000476	20.769861
662.168224	-3.011500	3.737800	-11.255000	24.061429	0.000479	20.772635
663.160943	-2.984400	3.738500	-11.157000	24.052471	0.000478	20.779773
664.162299	-3.006500	3.737200	-11.235000	24.069223	0.000479	20.770494
665.164768	-3.007200	3.737100	-11.237000	24.051384	0.000476	20.756397
666.160687	-3.001500	3.739300	-11.222000	24.054249	0.000480	20.768753
667.160466	-2.983900	3.738300	-11.154000	24.067963	0.000477	20.758799
668.162163	-2.999400	3.737600	-11.210000	24.066323	0.000475	20.778966
669.161829	-3.015000	3.735800	-11.262000	24.073414	0.000477	20.760473
670.162457	-2.999500	3.737400	-11.209000	24.042239	0.000478	20.751018
671.163058	-3.007600	3.736400	-11.236000	24.059365	0.000477	20.752073
672.164427	-2.993300	3.735700	-11.181000	24.072430	0.000478	20.759960
673.165126	-2.991600	3.735300	-11.173000	24.092438	0.000477	20.766751
674.164875	-2.990100	3.735200	-11.168000	24.051158	0.000477	20.749532
675.169489	-2.972500	3.737600	-11.108000	24.065395	0.000476	20.771397
676.166477	-2.977300	3.735800	-11.122000	24.093091	0.000477	20.774518
677.164767	-2.984300	3.734900	-11.145000	24.081748	0.000475	20.726630
678.169555	-2.978700	3.735500	-11.126000	24.084387	0.000477	20.745399
679.164122	-2.972400	3.735200	-11.101000	24.075581	0.000477	20.729928
680.164406	-3.000100	3.735000	-11.204000	24.098623	0.000476	20.733598
681.169317	-2.975200	3.735300	-11.113000	24.087231	0.000477	20.753941
682.166218	-3.032800	3.733200	-11.320000	24.097085	0.000478	20.732055
683.168687	-2.996100	3.733800	-11.186000	24.116045	0.000473	20.734949
684.171535	-3.019500	3.732100	-11.268000	24.112468	0.000476	20.741319
685.169680	-3.010200	3.732900	-11.235000	24.097688	0.000474	20.737876
686.169848	-2.999000	3.732800	-11.194000	24.101104	0.000475	20.752681
687.169549	-3.029900	3.731700	-11.306000	24.083636	0.000475	20.734213
688.168687	-2.984600	3.732600	-11.139000	24.089634	0.000475	20.735013
689.169566	-3.022600	3.730400	-11.274000	24.089090	0.000474	20.743952
690.172766	-2.995000	3.732200	-11.177000	24.109963	0.000476	20.741652
691.169495	-3.009300	3.730600	-11.226000	24.107557	0.000475	20.732600
692.168945	-3.012300	3.729900	-11.235000	24.111766	0.000474	20.731606
693.171793	-3.029400	3.730100	-11.299000	24.104650	0.000474	20.757186
694.176087	-2.996400	3.730600	-11.178000	24.093455	0.000474	20.736949
695.169827	-3.005900	3.730000	-11.211000	24.141976	0.000476	20.750527
696.170595	-3.001500	3.730800	-11.196000	24.121771	0.000474	20.744486
697.170842	-2.984300	3.729400	-11.129000	24.116052	0.000475	20.743018
698.169651	-3.003900	3.728700	-11.200000	24.130983	0.000475	20.737604
699.169109	-3.010100	3.727800	-11.221000	24.151065	0.000474	20.729769
700.171641	-2.995100	3.727400	-11.163000	24.140766	0.000475	20.728924
701.172522	-3.013000	3.728100	-11.232000	24.127328	0.000476	20.745318
702.170259	-2.990900	3.727500	-11.148000	24.144845	0.000475	20.746291
703.175907	-2.997700	3.727000	-11.171000	24.147336	0.000474	20.743574
704.170308	-3.003300	3.728200	-11.196000	24.133799	0.000474	20.734738
705.171315	-2.995400	3.727400	-11.165000	24.162266	0.000474	20.732469
706.171200	-3.008000	3.726600	-11.208000	24.146242	0.000475	20.718768
707.170601	-3.021100	3.725600	-11.254000	24.159331	0.000473	20.723835
708.171771	-3.002500	3.725500	-11.184000	24.165324	0.000473	20.737434
709.171863	-3.019300	3.725500	-11.247000	24.145025	0.000472	20.750739
710.171552	-2.977600	3.725400	-11.091000	24.169057	0.000473	20.731220
711.174230	-2.999300	3.727000	-11.177000	24.164453	0.000475	20.733241
712.176986	-3.017000	3.726200	-11.240000	24.154945	0.000475	20.748361
713.173280	-2.989100	3.725300	-11.134000	24.172063	0.000473	20.731390
714.182343	-2.992100	3.724900	-11.144000	24.169350	0.000473	20.701166
715.179873	-3.006500	3.724600	-11.197000	24.180600	0.000474	20.725728
716.177287	-3.006500	3.723800	-11.194000	24.164746	0.000473	20.749182
717.172756	-3.001900	3.724900	-11.181000	24.193978	0.000473	20.741517
718.173300	-2.969500	3.725300	-11.061000	24.175269	0.000473	20.731761
719.176353	-2.993900	3.723900	-11.148000	24.195470	0.000473	20.746808
720.174492	-2.979900	3.723800	-11.095000	24.183870	0.000473	20.734698
721.176013	-3.009000	3.723500	-11.203000	24.183221	0.000473	20.741160
722.179000	-3.002000	3.722100	-11.173000	24.188396	0.000475	20.743980
723.175489	-2.999600	3.722100	-11.164000	24.179164	0.000473	20.746574
724.175447	-2.998500	3.722100	-11.160000	24.168986	0.000473	20.741581
725.189604	-3.004000	3.723100	-11.183000	24.182268	0.000474	20.750636
726.175401	-3.010200	3.720200	-11.198000	24.205975	0.000471	20.756397
727.176564	-2.982000	3.722400	-11.099000	24.206522	0.000470	20.737030
728.175520	-2.991300	3.721200	-11.131000	24.198959	0.000472	20.744143
729.179721	-3.001100	3.721400	-11.167000	24.195671	0.000471	20.731835
730.175582	-3.006900	3.721200	-11.188000	24.206092	0.000471	20.731382
731.176467	-2.987500	3.720300	-11.112000	24.204451	0.000472	20.725469
732.183436	-2.998900	3.719700	-11.154000	24.191257	0.000471	20.727408
733.177107	-2.993900	3.719400	-11.134000	24.198073	0.000472	20.727132
734.184071	-2.999300	3.720100	-11.157000	24.217747	0.000472	20.735013
735.177417	-2.986400	3.719200	-11.106000	24.232521	0.000470	20.748884
736.178684	-3.009500	3.719300	-11.192000	24.212343	0.000474	20.732437
737.181722	-3.008500	3.718900	-11.188000	24.230232	0.000471	20.746114
738.185752	-2.990000	3.717700	-11.114000	24.221321	0.000471	20.733856
739.179815	-2.997300	3.717800	-11.142000	24.240649	0.000471	20.739967
740.184357	-2.997400	3.719300	-11.147000	24.235495	0.000470	20.741910
741.184637	-3.006400	3.716900	-11.174000	24.208720	0.000471	20.758676
742.182074	-2.978700	3.718500	-11.076000	24.229124	0.000471	20.746425
743.180662	-2.983700	3.718200	-11.094000	24.242251	0.000467	20.758170
744.181630	-3.014500	3.716100	-11.201000	24.228941	0.000470	20.740551
745.181690	-2.982700	3.717100	-11.087000	24.226376	0.000471	20.738453
746.180887	-2.993800	3.715800	-11.124000	24.234412	0.000468	20.732288
747.189339	-2.994800	3.716400	-11.129000	24.245824	0.000468	20.745158
748.182830	-3.000500	3.716000	-11.149000	24.261819	0.000470	20.740339
749.182244	-3.010300	3.715300	-11.183000	24.249278	0.000469	20.751942
750.180761	-3.022200	3.713200	-11.221000	24.246886	0.000468	20.734843
751.182243	-3.011800	3.714200	-11.185000	24.268500	0.000469	20.738506
752.181980	-3.013300	3.714100	-11.190000	24.219864	0.000469	20.744723
753.184302	-2.976200	3.714800	-11.055000	24.267029	0.000467	20.755523
754.190054	-2.998700	3.714900	-11.140000	24.267548	0.000469	20.752724
755.183983	-2.982000	3.715500	-11.079000	24.270208	0.000469	20.765350
756.184180	-3.009400	3.712200	-11.171000	24.277270	0.000468	20.751096
757.185095	-3.024200	3.713100	-11.228000	24.280501	0.000468	20.762399
758.187864	-2.987400	3.714600	-11.096000	24.264401	0.000467	20.755258
759.185876	-2.999600	3.712400	-11.135000	24.276614	0.000467	20.775095
760.184944	-2.993600	3.711800	-11.110000	24.287680	0.000465	20.753952
761.188197	-3.009400	3.711600	-11.169000	24.286660	0.000466	20.743446
762.185957	-3.003500	3.711200	-11.146000	24.280784	0.000466	20.751302
763.186861	-3.004800	3.710800	-11.148000	24.273891	0.000466	20.744388
764.190784	-3.001000	3.711300	-11.136000	24.302203	0.000465	20.774211
765.187895	-3.001500	3.710500	-11.137000	24.298866	0.000465	20.776079
766.189333	-2.992100	3.711100	-11.102000	24.299638	0.000464	20.759310
767.192029	-2.986900	3.711200	-11.085000	24.304436	0.000463	20.758907
768.190067	-3.027600	3.710400	-11.232000	24.306401	0.000461	20.767516
769.195997	-3.009000	3.710400	-11.163000	24.300654	0.000463	20.781193
770.191171	-2.999000	3.710400	-11.126000	24.322073	0.000463	20.750046
771.192094	-3.002300	3.709300	-11.136000	24.303713	0.000462	20.770984
772.190404	-2.999400	3.711000	-11.129000	24.313339	0.000463	20.760252
773.190846	-3.016300	3.708300	-11.184000	24.326599	0.000463	20.779243
774.194559	-2.986500	3.710300	-11.080000	24.315999	0.000464	20.764816
775.192992	-2.984300	3.709700	-11.070000	24.313188	0.000460	20.754409
776.193087	-2.996000	3.710400	-11.115000	24.333213	0.000463	20.762644
777.191948	-2.999700	3.708400	-11.124000	24.337294	0.000460	20.762944
778.193977	-3.003800	3.708700	-11.139000	24.334881	0.000459	20.790396
779.191147	-3.000000	3.707600	-11.121000	24.330151	0.000459	20.771901
780.191094	-2.979400	3.708400	-11.048000	24.330871	0.000460	20.765510
781.194376	-3.008000	3.707700	-11.151000	24.328807	0.000461	20.771027
782.191555	-2.997300	3.706500	-11.108000	24.341816	0.000461	20.786922
783.197741	-2.984200	3.706400	-11.059000	24.337262	0.000460	20.768603
784.195294	-2.994700	3.706400	-11.099000	24.332737	0.000459	20.778762
785.194571	-2.987000	3.706800	-11.071000	24.347812	0.000460	20.783454
786.194256	-2.996900	3.706400	-11.106000	24.380443	0.000462	20.771618
787.195263	-2.977500	3.706500	-11.036000	24.345220	0.000461	20.793656
788.194860	-3.019900	3.705400	-11.189000	24.348776	0.000461	20.773040
789.196811	-2.999900	3.704200	-11.112000	24.337407	0.000461	20.783447
790.195417	-3.011600	3.703600	-11.153000	24.351834	0.000459	20.763780
791.196177	-3.014400	3.704000	-11.164000	24.377728	0.000461	20.777902
792.198126	-2.998200	3.703900	-11.104000	24.353245	0.000461	20.781317
793.197336	-2.997500	3.703600	-11.101000	24.359838	0.000462	20.771809
794.198153	-2.996200	3.704100	-11.096000	24.364413	0.000461	20.772606
795.197465	-2.984800	3.704400	-11.056000	24.358638	0.000460	20.792418
796.199149	-3.003300	3.704000	-11.123000	24.362762	0.000458	20.774269
797.199740	-2.995800	3.704000	-11.095000	24.383830	0.000460	20.803939
798.198571	-3.040100	3.702200	-11.255000	24.364575	0.000460	20.786519
799.199124	-2.981400	3.704000	-11.042000	24.369923	0.000457	20.789513
800.201771	-3.004300	3.703600	-11.126000	24.389767	0.000458	20.789981
801.199394	-2.987800	3.703400	-11.063000	24.368519	0.000459	20.807546
802.201261	-2.999200	3.702000	-11.102000	24.376329	0.000457	20.799259
803.201321	-3.004900	3.701800	-11.121000	24.398638	0.000457	20.788449
804.201561	-3.002900	3.702000	-11.116000	24.391697	0.000457	20.799977
805.204546	-3.024600	3.700500	-11.192000	24.380848	0.000458	20.809008
806.202432	-3.011000	3.700500	-11.142000	24.395546	0.000457	20.805261
807.200780	-3.035800	3.700700	-11.234000	24.387631	0.000457	20.808700
808.209648	-3.013700	3.699100	-11.147000	24.401588	0.000458	20.806581
809.203669	-2.972500	3.701400	-11.001000	24.398520	0.000456	20.786907
810.207366	-3.008800	3.699900	-11.131000	24.390182	0.000458	20.810311
811.203842	-3.003800	3.700100	-11.113000	24.410953	0.000457	20.810286
812.204199	-2.991800	3.698900	-11.065000	24.409433	0.000458	20.811606
813.206123	-3.005200	3.699200	-11.116000	24.410971	0.000456	20.811253
814.204266	-3.010200	3.698200	-11.131000	24.411935	0.000457	20.805107
815.205210	-3.022800	3.698500	-11.179000	24.414770	0.000455	20.797046
816.208366	-2.991900	3.699000	-11.066000	24.424971	0.000455	20.789261
817.205317	-2.984300	3.698500	-11.036000	24.424541	0.000455	20.822969
818.206046	-2.995200	3.699300	-11.079000	24.432498	0.000455	20.789227
819.206066	-3.007100	3.697000	-11.116000	24.438667	0.000453	20.800631
820.205312	-2.991100	3.698400	-11.061000	24.435584	0.000455	20.805125
821.210559	-2.983200	3.698700	-11.032000	24.438583	0.000454	20.810504
822.207306	-3.001500	3.698400	-11.099000	24.449880	0.000455	20.791018
823.206548	-2.993500	3.697400	-11.066000	24.437292	0.000454	20.828175
824.211007	-3.000000	3.696700	-11.090000	24.419530	0.000454	20.822209
825.208070	-2.978300	3.698500	-11.014000	24.425201	0.000454	20.826951
826.211690	-3.005300	3.695400	-11.105000	24.437885	0.000453	20.791312
827.207827	-3.001600	3.696100	-11.093000	24.450448	0.000452	20.804390
828.208142	-3.011200	3.696000	-11.128000	24.444597	0.000452	20.817960
829.209997	-3.005500	3.694800	-11.103000	24.461466	0.000452	20.808806
830.205683	-2.999200	3.694900	-11.082000	24.445718	0.000454	20.811025
831.207810	-2.996100	3.696000	-11.072000	24.450692	0.000452	20.832135
832.215396	-2.985800	3.694800	-11.030000	24.461438	0.000452	20.814942
833.210593	-2.987000	3.695300	-11.036000	24.478149	0.000452	20.826017
834.210411	-2.979200	3.694300	-11.006000	24.459396	0.000452	20.821902
835.213877	-2.973600	3.695000	-10.987000	24.461657	0.000451	20.818481
836.211039	-3.021500	3.693100	-11.158000	24.452082	0.000449	20.824046
837.210411	-2.997800	3.693000	-11.070000	24.471557	0.000451	20.846904
838.214278	-3.000600	3.693700	-11.083000	24.460314	0.000449	20.816184
839.210598	-2.997200	3.693200	-11.069000	24.475218	0.000447	20.827818
840.213426	-2.993000	3.694000	-11.055000	24.450018	0.000448	20.825769
841.216431	-2.984800	3.693100	-11.021000	24.484095	0.000447	20.822026
842.211665	-2.991200	3.692500	-11.044000	24.467801	0.000447	20.813265
843.212395	-2.979000	3.692600	-10.999000	24.482628	0.000446	20.839994
844.211659	-3.003500	3.691800	-11.087000	24.487453	0.000446	20.836300
845.212550	-3.028200	3.690400	-11.175000	24.487181	0.000446	20.824174
846.211567	-3.001200	3.692300	-11.080000	24.477532	0.000448	20.832984
847.212152	-2.994400	3.690300	-11.049000	24.491043	0.000447	20.825677
848.211779	-3.007900	3.690800	-11.100000	24.488306	0.000447	20.811077
849.223504	-3.018800	3.689500	-11.137000	24.479401	0.000447	20.839126
850.213290	-3.001300	3.691700	-11.079000	24.493755	0.000445	20.833613
851.214831	-3.023800	3.689400	-11.155000	24.507908	0.000446	20.836433
852.217466	-3.019300	3.688400	-11.134000	24.522762	0.000446	20.824311
853.213501	-3.005500	3.688900	-11.086000	24.515423	0.000444	20.852508
854.213998	-2.989600	3.689800	-11.030000	24.484782	0.000444	20.826982
855.218431	-3.010900	3.687500	-11.101000	24.516199	0.000443	20.832898
856.214317	-2.999600	3.689000	-11.065000	24.488637	0.000444	20.845073
857.216993	-3.017500	3.687100	-11.126000	24.486228	0.000445	20.835544
858.219153	-2.973200	3.688500	-10.966000	24.494837	0.000443	20.833276
859.216608	-3.003700	3.688100	-11.077000	24.537916	0.000444	20.815807
860.215291	-2.989700	3.688400	-11.026000	24.499612	0.000444	20.833326
861.220925	-2.995300	3.687400	-11.044000	24.501301	0.000446	20.835021
862.215859	-2.990200	3.686400	-11.021000	24.507946	0.000445	20.846428
863.220434	-2.980800	3.687100	-10.990000	24.521901	0.000444	20.835300
864.215799	-3.019500	3.685900	-11.129000	24.513642	0.000443	20.843608
865.214756	-3.005100	3.686000	-11.076000	24.524761	0.000444	20.841489
866.215175	-3.008300	3.684700	-11.084000	24.534862	0.000443	20.841665
867.218889	-3.008400	3.685500	-11.086000	24.533821	0.000440	20.843940
868.216227	-3.002500	3.685200	-11.064000	24.511387	0.000440	20.848933
869.216563	-3.007400	3.685300	-11.082000	24.509321	0.000442	20.859661
870.219527	-3.014800	3.685200	-11.110000	24.530111	0.000440	20.852071
871.217449	-3.015200	3.686200	-11.114000	24.535285	0.000441	20.830236
872.219283	-3.022500	3.683500	-11.132000	24.532626	0.000442	20.841318
873.220389	-2.995800	3.685300	-11.039000	24.520839	0.000441	20.832812
874.217699	-3.005700	3.683700	-11.071000	24.513750	0.000441	20.868846
875.220539	-2.993600	3.684300	-11.028000	24.534745	0.000442	20.851505
876.217957	-2.996200	3.684400	-11.038000	24.537083	0.000441	20.849583
877.219285	-3.002900	3.683300	-11.059000	24.536413	0.000440	20.855549
878.222848	-2.996100	3.682500	-11.033000	24.541086	0.000441	20.839376
879.218672	-2.991500	3.682900	-11.017000	24.534674	0.000440	20.838632
880.225706	-3.021000	3.682500	-11.124000	24.531190	0.000441	20.855998
881.219930	-2.996900	3.682400	-11.035000	24.551786	0.000441	20.854378
882.220978	-2.997400	3.682300	-11.036000	24.523255	0.000439	20.871269
883.221038	-2.998500	3.683400	-11.044000	24.556635	0.000440	20.845967
884.220760	-2.993800	3.683200	-11.026000	24.545716	0.000440	20.856823
885.221063	-2.974600	3.683800	-10.957000	24.570339	0.000440	20.867777
886.225412	-2.989300	3.682100	-11.006000	24.573104	0.000439	20.857275
887.222360	-3.018900	3.681800	-11.114000	24.554226	0.000437	20.841180
888.223478	-3.000900	3.681000	-11.046000	24.556413	0.000438	20.850960
889.226308	-2.992600	3.680700	-11.013000	24.573672	0.000438	20.849785
890.224451	-2.986500	3.681200	-10.993000	24.568273	0.000436	20.869971
891.221543	-3.014400	3.680400	-11.093000	24.585362	0.000437	20.858195
892.226345	-2.988800	3.680500	-11.000000	24.574268	0.000436	20.877408
893.224020	-2.985700	3.680300	-10.987000	24.579664	0.000437	20.864805
894.224098	-2.986300	3.680100	-10.989000	24.589760	0.000436	20.864030
895.227699	-2.987900	3.679500	-10.993000	24.593964	0.000437	20.865403
896.224253	-2.994500	3.677900	-11.013000	24.593566	0.000436	20.857417
897.226022	-2.991700	3.678800	-11.004000	24.587045	0.000435	20.865573
898.227999	-3.000000	3.678700	-11.035000	24.607069	0.000438	20.857216
899.224657	-2.999900	3.678200	-11.033000	24.572417	0.000436	20.861328
900.224866	-2.992500	3.679100	-11.008000	24.594680	0.000436	20.879871
901.226494	-3.005000	3.678800	-11.053000	24.572717	0.000434	20.856887
902.225616	-3.005100	3.677300	-11.050000	24.580698	0.000436	20.873429
903.226162	-3.010000	3.676900	-11.067000	24.578579	0.000433	20.870828
904.228221	-3.004100	3.677600	-11.048000	24.597830	0.000435	20.861222
905.225947	-2.997900	3.677400	-11.024000	24.594695	0.000434	20.882731
906.227991	-3.017100	3.676200	-11.091000	24.595563	0.000436	20.865585
907.230301	-3.005700	3.675600	-11.046000	24.610956	0.000435	20.878659
908.227854	-3.004700	3.677000	-11.047000	24.623366	0.000435	20.875464
909.228091	-3.009700	3.675600	-11.061000	24.620055	0.000432	20.857918
910.231230	-2.998500	3.675000	-11.018000	24.619085	0.000432	20.873065
911.229150	-2.996000	3.675400	-11.011000	24.607765	0.000432	20.874509
912.228331	-3.009600	3.674500	-11.057000	24.625496	0.000434	20.871438
913.231514	-3.015200	3.674800	-11.079000	24.629700	0.000435	20.875182
914.226801	-2.967900	3.675900	-10.908000	24.620839	0.000432	20.876247
915.228897	-2.983100	3.674500	-10.961000	24.630364	0.000431	20.897183
916.233883	-2.996000	3.673900	-11.007000	24.603873	0.000433	20.865863
917.230989	-2.998800	3.674100	-11.017000	24.630932	0.000431	20.888744
918.233802	-2.982300	3.674600	-10.958000	24.634437	0.000431	20.879934
919.234966	-2.988800	3.673500	-10.978000	24.626326	0.000430	20.886969
920.234768	-3.010900	3.672600	-11.057000	24.637516	0.000432	20.878757
921.233604	-2.997600	3.673700	-11.011000	24.663382	0.000430	20.910873
922.232628	-2.988100	3.672500	-10.972000	24.640101	0.000430	20.884195
923.231579	-2.976400	3.673400	-10.932000	24.649752	0.000428	20.882026
924.235461	-2.991900	3.672100	-10.986000	24.633038	0.000429	20.895599
925.235268	-2.999300	3.671100	-11.009000	24.642612	0.000429	20.884818
926.235512	-3.011500	3.672500	-11.059000	24.637541	0.000428	20.911495
927.240879	-3.014600	3.670700	-11.064000	24.631920	0.000427	20.910123
928.237587	-2.983600	3.671500	-10.953000	24.663255	0.000429	20.898419
929.234345	-3.024600	3.671500	-11.104000	24.651420	0.000429	20.886070
930.235320	-3.020000	3.670300	-11.084000	24.654079	0.000427	20.911969
931.236095	-2.991200	3.672300	-10.984000	24.674969	0.000428	20.906853
932.234730	-3.009300	3.670700	-11.045000	24.663128	0.000427	20.893076
933.238390	-3.000400	3.671000	-11.013000	24.663378	0.000428	20.916559
934.239690	-3.002800	3.670500	-11.019000	24.664175	0.000427	20.894127
935.233562	-2.994500	3.670000	-10.988000	24.663452	0.000424	20.916633
936.238590	-2.995300	3.669700	-10.991000	24.671235	0.000426	20.911167
937.240464	-3.004000	3.668500	-11.019000	24.691402	0.000425	20.907696
938.236858	-2.992000	3.668800	-10.977000	24.643899	0.000426	20.909815
939.242054	-2.999900	3.669200	-11.006000	24.696596	0.000426	20.902003
940.241457	-3.011600	3.669000	-11.049000	24.696399	0.000427	20.899435
941.241792	-3.020900	3.667800	-11.079000	24.686998	0.000424	20.880994
942.251617	-3.001800	3.668200	-11.010000	24.686843	0.000427	20.899803
943.242530	-2.995900	3.667200	-10.986000	24.659314	0.000425	20.901102
944.242488	-2.984700	3.668600	-10.949000	24.692510	0.000424	20.910230
945.253843	-2.997500	3.668300	-10.995000	24.695617	0.000425	20.919511
946.247640	-3.013800	3.667200	-11.051000	24.704916	0.000425	20.905136
947.244451	-3.003200	3.668000	-11.015000	24.684419	0.000425	20.907801
948.244684	-3.000500	3.667100	-11.002000	24.703319	0.000424	20.913490
949.247488	-3.011600	3.666800	-11.042000	24.697547	0.000423	20.912439
950.243467	-3.031800	3.665100	-11.111000	24.687374	0.000423	20.900336
951.245129	-3.015600	3.666600	-11.056000	24.717114	0.000424	20.902204
952.246432	-2.991600	3.665700	-10.966000	24.717238	0.000424	20.889527
953.246504	-3.015900	3.664300	-11.050000	24.700175	0.000422	20.905120
954.248229	-2.980200	3.665900	-10.925000	24.706663	0.000423	20.918268
955.247020	-2.974100	3.664700	-10.898000	24.717481	0.000422	20.902573
956.251106	-2.992100	3.664900	-10.964000	24.716610	0.000421	20.923982
957.250735	-2.984800	3.664000	-10.936000	24.709964	0.000420	20.899771
958.248646	-3.001400	3.664400	-10.998000	24.726079	0.000421	20.908355
959.249177	-2.978600	3.665300	-10.916000	24.719887	0.000420	20.895504
960.251194	-3.001600	3.664100	-10.997000	24.715779	0.000420	20.879530
961.250203	-2.998300	3.662200	-10.979000	24.710332	0.000420	20.909622
962.252408	-3.009400	3.662500	-11.021000	24.706373	0.000420	20.907072
963.250566	-2.968600	3.664100	-10.876000	24.725770	0.000418	20.914208
964.251732	-2.998400	3.663100	-10.982000	24.716817	0.000419	20.905699
965.249455	-3.003700	3.663100	-11.002000	24.729547	0.000419	20.896189
966.255501	-3.013500	3.662000	-11.035000	24.731461	0.000417	20.897162
967.251046	-3.011300	3.661600	-11.025000	24.733323	0.000418	20.899978
968.250460	-2.995600	3.661600	-10.966000	24.742421	0.000417	20.891091
969.250930	-3.019100	3.661600	-11.054000	24.753912	0.000418	20.883657
970.252243	-3.013000	3.662000	-11.032000	24.743335	0.000416	20.909076
971.252979	-3.002300	3.661100	-10.990000	24.762537	0.000417	20.888993
972.253769	-3.005300	3.662000	-11.004000	24.741025	0.000417	20.891113
973.254702	-3.015900	3.660600	-11.039000	24.749576	0.000417	20.896374
974.252215	-3.014200	3.661100	-11.034000	24.761561	0.000415	20.903186
975.257544	-3.001100	3.660200	-10.983000	24.749030	0.000416	20.874491
976.256231	-3.012100	3.659100	-11.020000	24.763251	0.000415	20.880701
977.255397	-3.043000	3.658300	-11.131000	24.755913	0.000415	20.888984
978.254989	-2.994200	3.659600	-10.957000	24.765088	0.000415	20.887760
979.259197	-3.009200	3.659000	-11.010000	24.750191	0.000415	20.868544
980.257746	-3.019100	3.659200	-11.046000	24.742980	0.000414	20.866523
981.257741	-2.982100	3.659100	-10.911000	24.744147	0.000412	20.860583
982.256319	-2.977500	3.659000	-10.893000	24.757927	0.000413	20.862557
983.259284	-3.016500	3.657500	-11.032000	24.739549	0.000414	20.873986
984.256662	-3.009900	3.656500	-11.005000	24.758943	0.000411	20.858835
985.257505	-2.992800	3.657200	-10.944000	24.758946	0.000413	20.867847
986.261335	-2.986400	3.657400	-10.922000	24.767697	0.000413	20.889904
987.259852	-2.995900	3.657900	-10.958000	24.777098	0.000411	20.886536
988.259500	-3.001200	3.656500	-10.972000	24.781967	0.000411	20.860131
989.266467	-2.984100	3.656300	-10.909000	24.777545	0.000411	20.866124
990.262124	-3.002200	3.655900	-10.974000	24.756732	0.000411	20.862780
991.259028	-2.980800	3.657300	-10.901000	24.761456	0.000409	20.874159
992.263031	-3.016300	3.655200	-11.024000	24.782122	0.000410	20.874035
993.261485	-3.000100	3.655100	-10.965000	24.774911	0.000411	20.851153
994.260455	-2.999300	3.656000	-10.964000	24.786353	0.000409	20.871169
995.269229	-3.015400	3.653200	-11.015000	24.783641	0.000408	20.848060
996.263712	-3.000400	3.654800	-10.964000	24.794709	0.000410	20.851581
997.263203	-3.005000	3.652900	-10.976000	24.790410	0.000409	20.855327
998.263834	-3.000800	3.654000	-10.964000	24.770915	0.000407	20.868479
999.264633	-2.994900	3.654200	-10.943000	24.802299	0.000407	20.834069
1000.266870	-2.996100	3.653300	-10.945000	24.781263	0.000407	20.851364
1001.266822	-3.001400	3.653600	-10.965000	24.804245	0.000407	20.867314
1002.267554	-2.974100	3.654200	-10.867000	24.791735	0.000404	20.849545
1003.266119	-2.982900	3.653500	-10.897000	24.785920	0.000407	20.849873
1004.269251	-3.008000	3.652000	-10.984000	24.797633	0.000406	20.826067
1005.266841	-2.976300	3.652100	-10.868000	24.798655	0.000407	20.849378
1006.267280	-2.966000	3.653100	-10.834000	24.780776	0.000403	20.835702
1007.267973	-2.990200	3.653400	-10.924000	24.780930	0.000406	20.860986
1008.267162	-3.002700	3.652100	-10.965000	24.803383	0.000405	20.848433
1009.268005	-2.998900	3.650800	-10.947000	24.808238	0.000403	20.858045
1010.268882	-3.006300	3.651400	-10.977000	24.809655	0.000403	20.831968
1011.269062	-3.002400	3.649600	-10.957000	24.790534	0.000405	20.840279
1012.267184	-3.009400	3.649500	-10.983000	24.808815	0.000404	20.838237
1013.270050	-3.009000	3.650500	-10.983000	24.800660	0.000403	20.837639
1014.269948	-3.001100	3.649500	-10.952000	24.796957	0.000403	20.848148
1015.271303	-3.000100	3.649300	-10.947000	24.819339	0.000402	20.837894
1016.269287	-3.013500	3.649200	-10.995000	24.811335	0.000402	20.838396
1017.268462	-2.994300	3.648900	-10.925000	24.799626	0.000401	20.823800
1018.268581	-3.013200	3.649000	-10.994000	24.803656	0.000402	20.861981
1019.270374	-2.984100	3.649000	-10.888000	24.824147	0.000400	20.830865
1020.273122	-3.008900	3.647200	-10.973000	24.809579	0.000402	20.821460
1021.267256	-2.993600	3.648200	-10.920000	24.837157	0.000402	20.853404
1022.273251	-2.988300	3.649600	-10.905000	24.839473	0.000399	20.853358
1023.269781	-2.991300	3.647900	-10.911000	24.811848	0.000400	20.834169
1024.272514	-2.993100	3.646900	-10.914000	24.809091	0.000400	20.837566
1025.275793	-3.008500	3.647200	-10.972000	24.824763	0.000399	20.842388
1026.271779	-2.989900	3.647700	-10.905000	24.834730	0.000401	20.840064
1027.269128	-3.019100	3.645900	-11.005000	24.826708	0.000399	20.829642
1028.271401	-2.983900	3.646300	-10.879000	24.816660	0.000399	20.814817
1029.272933	-3.018100	3.646300	-11.004000	24.834663	0.000398	20.823875
1030.270673	-3.014400	3.645000	-10.986000	24.827279	0.000397	20.836853
1031.273497	-3.003300	3.646800	-10.951000	24.830368	0.000397	20.823832
1032.272130	-2.990800	3.645600	-10.902000	24.817861	0.000396	20.817445
1033.273591	-3.012800	3.644500	-10.979000	24.840715	0.000396	20.826156
1034.271604	-2.992200	3.645100	-10.906000	24.847802	0.000396	20.824734
1035.275910	-2.998600	3.644200	-10.926000	24.831587	0.000395	20.820315
1036.271852	-3.001500	3.644700	-10.939000	24.843775	0.000394	20.826383
1037.273503	-3.023700	3.644200	-11.017000	24.838529	0.000396	20.812109
1038.274117	-2.984400	3.644200	-10.875000	24.852632	0.000396	20.830529
1039.271623	-3.009800	3.642900	-10.963000	24.844029	0.000396	20.837068
1040.273118	-3.027100	3.643300	-11.027000	24.824035	0.000392	20.794243
1041.274300	-3.000400	3.643200	-10.930000	24.839280	0.000393	20.804801
1042.272974	-2.972100	3.644300	-10.830000	24.848605	0.000394	20.827436
1043.276236	-3.016100	3.642400	-10.985000	24.850446	0.000394	20.806524
1044.276438	-2.976000	3.642500	-10.839000	24.831844	0.000393	20.812038
1045.272395	-2.988700	3.643500	-10.889000	24.850199	0.000394	20.813389
1046.274769	-2.995600	3.643500	-10.913000	24.846641	0.000392	20.812664
1047.276523	-2.999000	3.641900	-10.921000	24.829683	0.000391	20.789006
1048.273802	-2.991100	3.642000	-10.892000	24.844557	0.000391	20.826693
1049.273712	-2.996100	3.641800	-10.910000	24.839262	0.000392	20.808102
1050.276624	-2.982900	3.641300	-10.861000	24.826079	0.000390	20.820476
1051.274562	-2.979000	3.641400	-10.847000	24.832351	0.000390	20.813969
1052.277873	-2.997700	3.639300	-10.909000	24.820388	0.000388	20.821403
1053.276319	-2.997600	3.639900	-10.911000	24.845008	0.000389	20.822878
1054.276157	-3.002300	3.639400	-10.926000	24.832799	0.000388	20.805883
1055.279323	-3.010500	3.639000	-10.955000	24.839787	0.000389	20.795353
1056.274612	-3.020200	3.639200	-10.991000	24.847469	0.000390	20.822029
1057.275063	-2.996200	3.639400	-10.903000	24.838394	0.000388	20.821930
1058.277084	-3.001100	3.638400	-10.918000	24.854288	0.000389	20.806113
1059.276513	-3.012400	3.638000	-10.958000	24.859157	0.000389	20.799146
1060.274345	-3.014700	3.638300	-10.967000	24.870499	0.000388	20.811003
1061.277920	-2.996000	3.639300	-10.903000	24.856001	0.000388	20.829643
1062.279963	-3.009400	3.637700	-10.946000	24.863190	0.000389	20.812677
1063.276468	-2.988900	3.638100	-10.873000	24.840442	0.000385	20.791743
1064.282980	-3.019600	3.636700	-10.981000	24.879030	0.000385	20.813876
1065.275947	-3.000700	3.636800	-10.912000	24.880997	0.000385	20.818695
1066.276670	-2.988700	3.637000	-10.869000	24.862946	0.000387	20.825234
1067.280962	-2.999900	3.636700	-10.908000	24.873787	0.000385	20.806243
1068.275588	-2.961400	3.637500	-10.771000	24.848477	0.000385	20.793169
1069.275421	-3.000200	3.636200	-10.909000	24.873565	0.000384	20.805072
1070.278337	-3.004100	3.635100	-10.918000	24.870434	0.000385	20.810464
1071.280300	-2.993600	3.635800	-10.883000	24.886275	0.000386	20.798862
1072.276681	-2.982700	3.634400	-10.839000	24.876276	0.000383	20.795939
1073.283914	-2.989900	3.635000	-10.867000	24.886074	0.000382	20.786332
1074.277579	-2.975900	3.634500	-10.815000	24.889261	0.000383	20.790005
1075.275470	-2.998000	3.634000	-10.894000	24.888189	0.000381	20.808844
1076.282081	-3.006200	3.635000	-10.925000	24.901692	0.000382	20.802007
1077.276526	-2.993000	3.632900	-10.873000	24.883662	0.000380	20.801930
1078.276091	-3.002800	3.633500	-10.910000	24.894031	0.000380	20.807121
1079.277583	-3.008000	3.632600	-10.926000	24.895004	0.000379	20.797192
1080.274715	-3.024300	3.632000	-10.983000	24.889758	0.000381	20.793823
1081.279715	-2.988400	3.632400	-10.854000	24.898762	0.000380	20.780100
1082.281577	-3.000000	3.631900	-10.895000	24.876382	0.000381	20.797942
1083.277286	-3.002600	3.633300	-10.908000	24.869175	0.000377	20.790709
1084.275718	-3.015300	3.631400	-10.948000	24.886355	0.000379	20.786141
1085.279437	-2.997500	3.631500	-10.884000	24.873529	0.000378	20.777535
1086.276207	-3.002200	3.631400	-10.901000	24.882928	0.000377	20.806409
1087.277507	-3.017800	3.630700	-10.956000	24.896131	0.000377	20.776038
1088.279230	-3.009800	3.628700	-10.921000	24.906902	0.000377	20.775942
1089.277306	-2.990200	3.630700	-10.855000	24.892556	0.000375	20.802321
1090.277122	-3.002100	3.630200	-10.896000	24.914439	0.000377	20.788249
1091.280941	-2.999400	3.629700	-10.886000	24.862744	0.000374	20.798479
1092.280901	-2.991000	3.629800	-10.856000	24.897855	0.000373	20.771604
1093.277090	-2.986300	3.629800	-10.839000	24.885977	0.000375	20.787183
1094.281689	-3.003500	3.629200	-10.899000	24.881527	0.000374	20.779873
1095.276618	-2.987500	3.628200	-10.838000	24.911019	0.000373	20.799040
1096.276246	-2.968500	3.629900	-10.774000	24.892421	0.000372	20.789384
1097.281163	-3.003600	3.627800	-10.896000	24.900752	0.000373	20.780201
1098.278352	-3.005300	3.627700	-10.901000	24.904186	0.000371	20.777009
1099.276865	-3.024300	3.627300	-10.968000	24.899542	0.000371	20.785625
1100.280106	-2.992100	3.628600	-10.856000	24.904492	0.000371	20.779688
1101.283411	-3.011000	3.627300	-10.921000	24.925899	0.000373	20.792164
1102.279771	-3.020500	3.627100	-10.955000	24.916232	0.000372	20.777720
1103.282969	-3.005200	3.626000	-10.896000	24.899549	0.000370	20.770459
1104.278427	-3.011100	3.625400	-10.915000	24.934737	0.000369	20.771637
1105.279053	-2.986000	3.627500	-10.830000	24.926085	0.000369	20.765798
1106.283138	-2.980600	3.626500	-10.808000	24.916242	0.000369	20.764928
1107.289485	-2.987700	3.624700	-10.829000	24.920448	0.000368	20.765830
1108.279420	-2.973200	3.626300	-10.781000	24.915900	0.000366	20.766955
1109.286658	-3.007500	3.623600	-10.897000	24.910706	0.000367	20.767907
1110.279758	-3.037600	3.623700	-11.005000	24.921205	0.000367	20.756633
1111.281135	-3.020200	3.623900	-10.944000	24.915286	0.000367	20.747372
1112.285747	-3.013200	3.622500	-10.915000	24.910121	0.000368	20.764000
1113.281851	-3.019100	3.623700	-10.939000	24.914422	0.000367	20.767368
1114.279519	-2.983700	3.623200	-10.810000	24.898165	0.000367	20.747258
1115.280906	-3.000000	3.623200	-10.868000	24.919971	0.000366	20.762506
1116.285831	-2.997600	3.621500	-10.854000	24.926264	0.000365	20.762184
1117.282921	-2.992100	3.622700	-10.838000	24.925322	0.000364	20.767878
1118.291752	-2.992000	3.621700	-10.835000	24.901356	0.000365	20.758521
1119.284687	-2.987200	3.622400	-10.820000	24.922297	0.000364	20.757254
1120.285221	-3.017900	3.620200	-10.924000	24.911735	0.000364	20.746653
1121.293552	-2.985100	3.622600	-10.812000	24.930578	0.000363	20.775998
1122.286755	-2.987200	3.620700	-10.815000	24.922702	0.000362	20.763351
1123.288536	-3.000100	3.619900	-10.859000	24.928798	0.000363	20.771366
1124.288973	-2.978900	3.620800	-10.785000	24.934149	0.000362	20.764883
1125.287360	-2.999100	3.619700	-10.855000	24.913638	0.000360	20.759943
1126.290586	-3.001400	3.619700	-10.863000	24.920551	0.000362	20.758821
1127.287038	-3.002700	3.619200	-10.867000	24.932908	0.000361	20.779759
1128.288770	-3.012000	3.619000	-10.900000	24.917125	0.000360	20.744476
1129.293502	-3.006100	3.618400	-10.876000	24.944031	0.000358	20.752041
1130.287579	-3.008700	3.617600	-10.882000	24.924613	0.000361	20.744879
1131.290917	-3.010000	3.617900	-10.889000	24.944108	0.000360	20.742636
1132.300304	-2.994400	3.617900	-10.833000	24.914917	0.000359	20.750322
1133.292747	-2.989300	3.618000	-10.814000	24.945275	0.000359	20.751868
1134.289336	-2.997400	3.618900	-10.847000	24.925243	0.000357	20.756418
1135.293710	-3.004400	3.615500	-10.860000	24.922684	0.000359	20.743892
1136.295090	-2.986800	3.616800	-10.801000	24.929551	0.000358	20.758846
1137.293723	-3.005200	3.617200	-10.870000	24.954166	0.000354	20.749886
1138.297587	-2.984300	3.617000	-10.794000	24.935943	0.000356	20.749139
1139.290876	-3.002500	3.614500	-10.851000	24.931300	0.000356	20.735944
1140.290433	-2.988400	3.617300	-10.808000	24.948084	0.000355	20.757533
1141.292293	-2.978000	3.616400	-10.769000	24.950869	0.000354	20.741361
1142.291796	-2.991700	3.615000	-10.814000	24.942990	0.000354	20.739617
1143.290898	-3.018100	3.613600	-10.904000	24.948839	0.000355	20.751652
1144.299133	-2.989100	3.614700	-10.804000	24.948941	0.000353	20.752228
1145.295869	-3.009700	3.613700	-10.876000	24.928479	0.000353	20.723629
1146.294385	-2.979700	3.613900	-10.768000	24.946829	0.000352	20.739203
1147.300696	-2.985800	3.614200	-10.791000	24.938181	0.000353	20.722461
1148.295121	-3.006500	3.612400	-10.860000	24.914314	0.000354	20.721739
1149.295909	-2.984500	3.613800	-10.783000	24.936246	0.000353	20.765091
1150.298182	-3.002000	3.612100	-10.842000	24.940674	0.000354	20.733024
1151.293737	-3.013400	3.611700	-10.882000	24.958350	0.000353	20.723265
1152.296776	-3.004800	3.611600	-10.850000	24.950051	0.000352	20.745282
1153.294374	-3.018300	3.611500	-10.899000	24.950101	0.000354	20.742961
1154.295475	-3.001900	3.611600	-10.841000	24.945253	0.000354	20.743785
1155.296646	-3.015100	3.610200	-10.885000	24.933098	0.000351	20.727791
1156.294967	-3.004200	3.610100	-10.845000	24.952614	0.000352	20.721301
1157.296140	-3.021500	3.609400	-10.904000	24.970294	0.000353	20.745685
1158.301724	-3.049100	3.608100	-10.999000	24.963204	0.000351	20.715809
1159.295297	-3.008300	3.610300	-10.859000	24.964400	0.000351	20.730759
1160.298073	-3.004100	3.608300	-10.838000	24.953905	0.000351	20.717854
1161.300065	-3.009700	3.608200	-10.858000	24.952093	0.000349	20.734054
1162.298029	-3.006800	3.607900	-10.847000	24.942641	0.000350	20.749224
1163.300062	-3.003700	3.608600	-10.839000	24.963677	0.000348	20.739518
1164.302812	-3.006200	3.607600	-10.844000	24.946945	0.000348	20.709920
1165.300234	-2.983200	3.607500	-10.761000	24.971612	0.000350	20.733732
1166.303504	-2.988300	3.608900	-10.783000	24.960772	0.000347	20.718583
1167.306273	-3.019000	3.606600	-10.887000	24.952967	0.000348	20.730190
1168.301342	-2.997800	3.606700	-10.812000	24.959979	0.000349	20.714467
1169.302033	-3.022400	3.606400	-10.899000	24.963606	0.000345	20.729015
1170.305033	-2.992900	3.606900	-10.794000	24.982555	0.000345	20.722429
1171.302238	-3.002400	3.606500	-10.827000	24.974997	0.000347	20.734284
1172.303713	-3.017700	3.604900	-10.877000	24.980715	0.000345	20.721056
1173.304507	-2.998600	3.606300	-10.812000	24.960056	0.000343	20.717390
1174.304301	-3.004300	3.605400	-10.830000	24.984469	0.000346	20.712022
1175.305985	-2.986500	3.605100	-10.765000	24.978307	0.000345	20.726226
1176.311497	-2.998200	3.604800	-10.807000	24.976943	0.000342	20.711106
1177.304382	-2.995500	3.603500	-10.793000	24.968789	0.000342	20.710982
1178.306802	-3.023700	3.603400	-10.895000	24.976273	0.000343	20.725133
1179.308060	-3.000000	3.604200	-10.811000	24.990370	0.000343	20.729801
1180.306694	-2.992100	3.604100	-10.782000	24.993832	0.000340	20.730905
1181.303694	-2.989900	3.603100	-10.772000	24.982791	0.000339	20.735469
1182.308747	-3.008700	3.602700	-10.838000	24.995672	0.000340	20.725165
1183.310095	-2.993500	3.603200	-10.786000	24.991548	0.000340	20.706325
1184.305670	-3.008500	3.601800	-10.835000	24.985805	0.000339	20.715734
1185.309287	-2.996900	3.601900	-10.793000	24.991629	0.000338	20.721580
1186.307251	-2.998900	3.600200	-10.796000	24.978751	0.000339	20.710076
1187.307491	-2.993100	3.600800	-10.777000	24.983130	0.000340	20.705462
1188.308713	-3.008500	3.601300	-10.833000	24.998200	0.000339	20.706838
1189.308376	-2.996300	3.601700	-10.790000	24.987660	0.000339	20.700051
1190.307587	-2.992100	3.601000	-10.774000	24.991315	0.000338	20.715101
1191.310225	-2.985500	3.601200	-10.750000	24.977168	0.000338	20.710858
1192.310791	-2.960400	3.600200	-10.657000	24.990448	0.000339	20.697160
1193.308108	-2.982000	3.599900	-10.735000	24.991421	0.000339	20.715682
1194.315557	-2.990500	3.599700	-10.765000	24.977546	0.000339	20.707443
1195.309402	-2.955600	3.600100	-10.638000	24.990624	0.000336	20.711088
1196.310124	-2.986200	3.598700	-10.746000	24.985453	0.000337	20.712536
1197.311211	-2.982700	3.599600	-10.735000	24.992292	0.000336	20.716556
1198.311239	-2.987100	3.597700	-10.745000	24.997587	0.000335	20.725664
1199.314408	-2.998000	3.598500	-10.788000	24.997738	0.000335	20.704004
1200.314739	-3.004400	3.598200	-10.810000	25.009946	0.000334	20.721000
1201.315327	-3.000000	3.596300	-10.788000	25.002364	0.000334	20.719079
1202.313570	-3.008300	3.596600	-10.819000	24.986652	0.000334	20.725593
1203.316602	-3.022700	3.595400	-10.867000	24.991552	0.000335	20.734306
1204.314175	-3.029600	3.594700	-10.889000	25.011191	0.000335	20.737423
1205.314566	-2.991600	3.596400	-10.757000	25.000277	0.000334	20.713190
1206.316066	-3.022000	3.594100	-10.860000	24.994686	0.000333	20.713742
1207.315422	-3.009500	3.594900	-10.817000	24.985464	0.000333	20.724401
1208.314398	-3.012900	3.594400	-10.829000	24.989140	0.000334	20.728092
1209.318483	-3.005500	3.594600	-10.803000	24.987547	0.000333	20.739769
1210.316459	-3.001900	3.595200	-10.790000	24.989063	0.000330	20.703356
1211.318675	-2.998900	3.594200	-10.777000	24.994633	0.000331	20.733131
1212.321826	-2.996300	3.594100	-10.768000	24.995648	0.000332	20.722770
1213.317688	-3.011900	3.592500	-10.819000	24.999103	0.000330	20.718651
1214.320077	-2.998800	3.592100	-10.771000	24.994724	0.000332	20.702875
1215.317086	-3.004500	3.593400	-10.796000	25.013270	0.000331	20.729079
1216.323982	-2.990600	3.593000	-10.745000	25.000093	0.000330	20.727232
1217.322839	-3.012100	3.591700	-10.816000	25.016746	0.000328	20.726404
1218.318004	-3.003000	3.592100	-10.785000	25.009883	0.000329	20.725204
1219.317354	-2.987300	3.591700	-10.729000	25.001256	0.000329	20.740728
1220.322382	-3.008100	3.591400	-10.802000	25.021688	0.000328	20.710501
1221.324213	-2.982800	3.590800	-10.710000	25.005924	0.000329	20.713643
1222.320576	-3.010400	3.590500	-10.808000	25.000132	0.000328	20.712097
1223.320666	-3.009400	3.589700	-10.801000	25.012558	0.000329	20.727416
1224.320540	-2.979700	3.591200	-10.699000	25.015290	0.000328	20.703604
1225.322309	-2.985300	3.589400	-10.714000	25.015914	0.000328	20.721775
1226.321527	-2.998700	3.589900	-10.764000	25.009220	0.000326	20.742557
1227.320619	-3.012400	3.588800	-10.810000	25.014761	0.000326	20.730576
1228.320678	-2.999600	3.588000	-10.761000	25.002254	0.000326	20.743152
1229.327417	-3.002000	3.586700	-10.766000	25.017765	0.000324	20.731220
1230.320310	-2.999900	3.588200	-10.763000	25.022160	0.000327	20.729468
1231.324858	-2.988600	3.588100	-10.721000	25.018255	0.000327	20.734556
1232.321705	-3.014400	3.588100	-10.814000	24.999085	0.000325	20.742341
1233.321839	-2.991200	3.587700	-10.730000	25.007436	0.000324	20.723696
1234.322876	-2.988000	3.587500	-10.719000	25.032616	0.000325	20.736644
1235.321036	-3.042100	3.586000	-10.907000	24.999444	0.000325	20.745547
1236.324335	-3.008700	3.585200	-10.786000	25.032905	0.000322	20.734564
1237.324126	-3.007200	3.584900	-10.780000	24.996257	0.000322	20.743297
1238.325841	-2.963700	3.585800	-10.626000	25.016464	0.000320	20.736078
1239.325941	-2.971400	3.585200	-10.652000	25.016485	0.000323	20.736099
1240.322023	-3.002200	3.585600	-10.763000	25.025481	0.000320	20.757459
1241.324791	-2.980700	3.585300	-10.686000	25.032341	0.000323	20.762922
1242.323165	-3.002300	3.584800	-10.762000	25.030868	0.000320	20.727302
1243.323750	-3.024900	3.583200	-10.838000	25.037403	0.000320	20.741450
1244.323336	-3.002500	3.582800	-10.756000	25.050030	0.000319	20.724252
1245.325777	-2.979600	3.583800	-10.677000	25.058275	0.000318	20.739642
1246.326231	-2.992200	3.583100	-10.721000	25.059171	0.000318	20.754292
1247.326234	-2.985300	3.581800	-10.691000	25.061402	0.000317	20.748945
1248.324009	-2.977500	3.583000	-10.667000	25.059703	0.000317	20.746291
1249.325338	-3.003800	3.581500	-10.757000	25.069796	0.000317	20.736981
1250.326557	-2.984900	3.582400	-10.693000	25.042396	0.000317	20.736504
1251.324278	-3.006400	3.581700	-10.767000	25.046220	0.000313	20.762629
1252.324772	-3.026100	3.580000	-10.833000	25.062154	0.000314	20.727413
1253.328035	-3.018600	3.580000	-10.806000	25.075771	0.000313	20.753886
1254.326517	-2.994000	3.580400	-10.719000	25.065774	0.000313	20.756179
1255.325874	-3.003800	3.579500	-10.750000	25.053341	0.000315	20.753656
1256.327302	-2.986800	3.580200	-10.692000	25.067561	0.000314	20.765560
1257.327467	-3.002100	3.578800	-10.743000	25.074964	0.000313	20.744067
1258.328236	-2.979600	3.579700	-10.664000	25.059345	0.000312	20.760631
1259.331934	-3.003600	3.578800	-10.749000	25.071675	0.000311	20.751197
1260.329915	-3.001600	3.579100	-10.742000	25.085596	0.000313	20.758058
1261.329737	-3.009900	3.578600	-10.770000	25.065704	0.000311	20.753264
1262.331025	-2.993800	3.577600	-10.710000	25.081267	0.000312	20.745652
1263.327227	-3.021900	3.576400	-10.807000	25.082656	0.000311	20.745624
1264.327371	-3.012700	3.576500	-10.774000	25.079914	0.000310	20.775589
1265.335512	-3.008400	3.576900	-10.760000	25.049014	0.000310	20.772546
1266.330360	-3.014000	3.575500	-10.775000	25.087746	0.000310	20.769227
1267.331235	-2.988700	3.576200	-10.688000	25.065144	0.000309	20.770720
1268.330654	-3.020400	3.575800	-10.799000	25.085826	0.000309	20.771092
1269.332205	-2.993400	3.575400	-10.703000	25.112146	0.000309	20.772858
1270.331042	-2.992500	3.576100	-10.699000	25.097155	0.000308	20.758757
1271.334862	-3.020700	3.573300	-10.792000	25.094324	0.000308	20.758760
1272.330121	-3.006700	3.574300	-10.746000	25.089918	0.000306	20.767140
1273.334215	-3.004100	3.574100	-10.735000	25.085417	0.000307	20.768785
1274.331819	-3.000200	3.573400	-10.720000	25.104057	0.000306	20.754780
1275.332067	-3.013800	3.573200	-10.768000	25.083799	0.000306	20.776644
1276.338739	-2.990500	3.572600	-10.683000	25.083669	0.000306	20.783626
1277.331003	-3.002700	3.572900	-10.728000	25.103680	0.000304	20.774791
1278.331866	-3.009700	3.573500	-10.755000	25.098386	0.000306	20.761889
1279.335875	-3.022100	3.571800	-10.793000	25.116976	0.000305	20.778655
1280.332368	-3.018000	3.571700	-10.777000	25.087910	0.000305	20.776504
1281.332601	-3.009000	3.571200	-10.745000	25.088309	0.000303	20.777378
1282.337370	-3.002800	3.570600	-10.721000	25.128577	0.000304	20.780817
1283.331178	-3.007500	3.570400	-10.737000	25.101926	0.000304	20.777297
1284.333230	-3.024200	3.570400	-10.797000	25.082733	0.000301	20.782686
1285.340119	-2.979700	3.571700	-10.642000	25.098863	0.000301	20.780386
1286.332109	-2.997600	3.570500	-10.702000	25.097690	0.000300	20.769251
1287.340653	-2.996900	3.569600	-10.697000	25.109523	0.000301	20.773543
1288.335421	-3.007700	3.569300	-10.734000	25.101761	0.000301	20.785192
1289.334620	-3.013300	3.570000	-10.756000	25.094722	0.000299	20.806101
1290.331938	-3.014300	3.569300	-10.758000	25.104317	0.000298	20.783016
1291.337337	-3.005500	3.568900	-10.725000	25.109259	0.000299	20.777072
1292.333234	-2.996800	3.568200	-10.692000	25.109880	0.000299	20.782437
1293.333382	-2.984500	3.567400	-10.646000	25.124148	0.000296	20.795338
1294.334774	-3.005800	3.567300	-10.722000	25.110074	0.000297	20.794960
1295.332265	-2.994300	3.568500	-10.684000	25.130976	0.000297	20.791761
1296.347698	-3.004200	3.566700	-10.714000	25.107382	0.000296	20.802688
1297.341279	-3.006900	3.568000	-10.726000	25.132760	0.000295	20.795449
1298.336097	-3.004800	3.565500	-10.713000	25.118588	0.000296	20.783117
1299.334111	-2.989400	3.566700	-10.661000	25.132510	0.000294	20.799465
1300.338558	-3.008900	3.565100	-10.726000	25.116670	0.000294	20.782615
1301.335206	-3.006000	3.565100	-10.716000	25.122313	0.000295	20.792074
1302.335229	-3.008200	3.564000	-10.720000	25.130812	0.000294	20.804398
1303.337777	-2.994700	3.564800	-10.675000	25.139709	0.000293	20.799579
1304.337739	-2.986100	3.564200	-10.642000	25.133192	0.000294	20.808684
1305.335289	-3.012500	3.562900	-10.731000	25.131503	0.000292	20.788497
1306.340569	-2.985300	3.564500	-10.640000	25.143953	0.000293	20.818064
1307.346437	-3.008100	3.563800	-10.719000	25.135053	0.000293	20.808656
1308.336782	-3.021200	3.562800	-10.762000	25.145219	0.000290	20.793731
1309.343954	-2.980700	3.564300	-10.623000	25.139449	0.000292	20.780352
1310.340468	-2.990000	3.562400	-10.650000	25.131120	0.000290	20.787638
1311.338629	-3.005400	3.563100	-10.707000	25.140415	0.000291	20.790331
1312.341110	-3.000500	3.562300	-10.688000	25.116472	0.000291	20.828883
1313.339715	-2.988100	3.562400	-10.643000	25.148336	0.000289	20.813456
1314.341559	-3.008600	3.560500	-10.711000	25.150571	0.000290	20.830872
1315.342748	-3.019700	3.559900	-10.748000	25.134287	0.000288	20.809309
1316.338774	-3.011100	3.560100	-10.718000	25.167170	0.000289	20.798698
1317.336689	-3.013700	3.560600	-10.730000	25.146931	0.000289	20.789760
1318.343232	-2.990600	3.560500	-10.647000	25.143325	0.000286	20.808900
1319.340947	-2.972400	3.560900	-10.583000	25.122392	0.000288	20.817282
1320.339061	-2.979400	3.560600	-10.607000	25.145357	0.000288	20.800981
1321.343381	-2.994200	3.560000	-10.658000	25.164446	0.000285	20.816353
1322.339622	-3.014600	3.557300	-10.723000	25.146770	0.000289	20.812832
1323.338424	-3.003100	3.557800	-10.684000	25.142766	0.000287	20.798381
1324.345809	-2.971300	3.559200	-10.573000	25.177739	0.000285	20.799825
1325.340003	-2.983000	3.559600	-10.617000	25.178282	0.000285	20.818388
1326.339880	-2.982200	3.558600	-10.611000	25.155562	0.000285	20.804114
1327.341187	-2.996200	3.556700	-10.655000	25.162717	0.000285	20.804660
1328.339885	-2.989300	3.557300	-10.632000	25.170497	0.000285	20.821478
1329.348858	-2.992100	3.557300	-10.643000	25.174102	0.000283	20.799019
1330.345405	-3.000700	3.556800	-10.672000	25.168706	0.000282	20.801189
1331.347765	-2.998600	3.556800	-10.664000	25.158087	0.000282	20.802382
1332.343977	-3.009000	3.555500	-10.697000	25.180310	0.000283	20.813786
1333.350935	-2.998300	3.555800	-10.661000	25.175386	0.000282	20.830180
1334.346069	-2.984800	3.556100	-10.613000	25.181501	0.000282	20.818301
1335.349781	-3.003200	3.554000	-10.672000	25.175482	0.000283	20.807043
1336.347565	-3.006600	3.555000	-10.688000	25.187786	0.000283	20.822240
1337.345336	-3.012000	3.554400	-10.704000	25.151295	0.000279	20.821642
1338.347544	-3.006200	3.554000	-10.683000	25.168666	0.000280	20.826752
1339.350762	-2.990100	3.555300	-10.629000	25.161803	0.000279	20.831243
1340.348042	-2.975600	3.554100	-10.575000	25.164390	0.000278	20.832891
1341.348728	-2.985300	3.553300	-10.607000	25.175648	0.000279	20.829495
1342.348227	-2.994000	3.552900	-10.636000	25.175895	0.000277	20.832587
1343.347206	-3.005200	3.552200	-10.674000	25.186234	0.000278	20.863827
1344.345336	-3.004500	3.553100	-10.675000	25.188944	0.000278	20.837626
1345.348795	-2.994100	3.552300	-10.633000	25.189811	0.000279	20.832807
1346.346308	-2.997500	3.551100	-10.643000	25.163686	0.000274	20.834081
1347.347959	-2.995700	3.550400	-10.634000	25.177581	0.000275	20.828590
1348.346570	-2.985400	3.551600	-10.602000	25.166789	0.000273	20.855687
1349.348580	-3.023400	3.548700	-10.728000	25.193661	0.000274	20.823396
1350.347638	-3.015800	3.549200	-10.703000	25.175587	0.000275	20.820898
1351.349026	-2.991900	3.551100	-10.623000	25.192815	0.000276	20.835349
1352.346973	-3.020100	3.548500	-10.715000	25.183489	0.000276	20.837366
1353.346801	-3.008200	3.549100	-10.675000	25.198680	0.000273	20.840762
1354.356839	-3.008600	3.549000	-10.677000	25.179908	0.000272	20.846573
1355.347711	-3.000700	3.548600	-10.647000	25.188110	0.000271	20.846272
1356.354405	-3.027500	3.547200	-10.738000	25.189351	0.000272	20.860794
1357.347431	-2.996700	3.547900	-10.631000	25.194247	0.000271	20.841054
1358.350920	-3.002100	3.548500	-10.652000	25.178809	0.000272	20.857323
1359.347862	-2.998400	3.546600	-10.632000	25.203665	0.000270	20.840552
1360.350531	-2.997600	3.546600	-10.630000	25.192704	0.000272	20.862263
1361.349959	-3.005900	3.546000	-10.658000	25.195908	0.000270	20.843195
1362.348980	-2.979000	3.545500	-10.561000	25.197223	0.000270	20.838351
1363.351005	-2.990900	3.545000	-10.602000	25.210126	0.000271	20.839452
1364.350426	-2.982400	3.546500	-10.576000	25.180097	0.000268	20.848658
1365.349413	-2.997500	3.545000	-10.625000	25.222526	0.000269	20.833883
1366.349994	-3.009900	3.544500	-10.667000	25.217482	0.000267	20.856319
1367.349702	-2.983700	3.544700	-10.575000	25.196849	0.000268	20.828968
1368.350488	-3.024400	3.542600	-10.714000	25.216210	0.000267	20.845085
1369.358029	-2.995300	3.543500	-10.613000	25.216210	0.000266	20.852197
1370.351192	-2.996000	3.544600	-10.618000	25.205718	0.000267	20.827914
1371.350911	-2.982900	3.543700	-10.570000	25.201912	0.000266	20.866291
1372.351630	-3.015500	3.544000	-10.685000	25.223341	0.000266	20.867416
1373.349908	-2.997800	3.543100	-10.620000	25.219136	0.000264	20.862721
1374.352110	-3.003900	3.542300	-10.640000	25.225795	0.000265	20.860871
1375.353224	-2.955800	3.543100	-10.471000	25.207175	0.000263	20.846446
1376.350439	-3.003000	3.541400	-10.635000	25.239216	0.000263	20.854432
1377.351101	-3.025700	3.540600	-10.712000	25.204986	0.000263	20.871748
1378.353537	-2.991600	3.540700	-10.591000	25.235407	0.000264	20.870995
1379.353077	-3.014500	3.541000	-10.673000	25.211765	0.000263	20.854373
1380.353024	-2.992300	3.540100	-10.593000	25.216908	0.000263	20.851001
1381.357901	-2.980100	3.540800	-10.551000	25.230326	0.000263	20.844085
1382.353637	-3.004400	3.539100	-10.630000	25.222671	0.000263	20.862951
1383.354033	-2.988600	3.540000	-10.578000	25.228910	0.000260	20.858783
1384.357198	-2.980700	3.540800	-10.551000	25.219112	0.000261	20.869335
1385.355722	-3.002900	3.539000	-10.626000	25.240362	0.000261	20.873599
1386.354368	-2.986700	3.539500	-10.570000	25.220100	0.000258	20.894506
1387.356730	-3.029700	3.537900	-10.718000	25.243989	0.000259	20.880559
1388.356201	-3.005000	3.538400	-10.631000	25.229919	0.000259	20.894881
1389.355083	-3.015300	3.537600	-10.666000	25.212238	0.000259	20.877132
1390.356880	-3.017800	3.538100	-10.677000	25.227826	0.000257	20.871919
1391.356210	-3.007900	3.537000	-10.638000	25.237519	0.000257	20.875960
1392.354694	-3.002800	3.537900	-10.622000	25.249746	0.000256	20.883968
1393.358852	-3.002000	3.537800	-10.619000	25.231077	0.000254	20.861433
1394.355686	-3.000100	3.536400	-10.609000	25.248128	0.000253	20.869069
1395.357574	-3.021000	3.536100	-10.682000	25.254567	0.000255	20.861783
1396.356590	-2.991300	3.535900	-10.577000	25.241242	0.000255	20.867845
1397.355656	-2.990800	3.535300	-10.573000	25.252277	0.000253	20.881294
1398.355260	-3.015500	3.534200	-10.656000	25.250088	0.000252	20.879096
1399.358186	-3.005500	3.534700	-10.622000	25.234923	0.000252	20.882363
1400.360050	-3.000700	3.534300	-10.604000	25.255083	0.000252	20.876525
1401.359073	-2.995700	3.535200	-10.589000	25.232312	0.000253	20.886379
1402.359710	-3.007800	3.532600	-10.624000	25.237232	0.000251	20.885155
1403.355714	-3.025700	3.532200	-10.686000	25.243548	0.000250	20.877271
1404.357027	-3.013000	3.533600	-10.646000	25.253564	0.000252	20.884482
1405.359297	-2.986300	3.533100	-10.550000	25.254558	0.000251	20.887377
1406.359264	-3.014900	3.532100	-10.648000	25.249187	0.000250	20.874873
1407.358226	-2.996100	3.532000	-10.581000	25.271483	0.000250	20.884455
1408.358097	-3.006700	3.531300	-10.617000	25.268152	0.000249	20.889171
1409.358272	-2.991700	3.532500	-10.567000	25.243394	0.000250	20.883754
1410.358415	-2.996500	3.531200	-10.581000	25.265766	0.000249	20.910007
1411.361858	-2.997700	3.531300	-10.585000	25.250431	0.000248	20.883234
1412.360117	-2.996700	3.531700	-10.583000	25.275236	0.000247	20.879214
1413.361589	-3.010500	3.531100	-10.629000	25.264223	0.000248	20.897553
1414.359852	-2.995100	3.531600	-10.577000	25.258160	0.000246	20.889571
1415.359692	-2.979200	3.530800	-10.517000	25.282493	0.000247	20.883181
1416.358797	-2.996900	3.528200	-10.572000	25.252320	0.000246	20.891294
1417.358930	-2.989000	3.529700	-10.550000	25.264325	0.000246	20.875372
1418.360316	-3.018300	3.528500	-10.650000	25.267877	0.000246	20.889843
1419.366179	-3.016900	3.527800	-10.642000	25.251154	0.000245	20.891545
1420.364298	-3.010900	3.528300	-10.623000	25.261318	0.000247	20.898904
1421.363867	-2.994200	3.527900	-10.562000	25.265170	0.000243	20.884755
1422.364283	-3.005400	3.528000	-10.602000	25.273943	0.000245	20.904941
1423.365980	-2.989300	3.527200	-10.543000	25.274467	0.000244	20.902623
1424.362752	-3.014700	3.526300	-10.630000	25.262686	0.000244	20.902647
1425.363280	-2.990700	3.527800	-10.549000	25.254086	0.000246	20.900652
1426.365098	-2.999000	3.526400	-10.573000	25.280980	0.000243	20.901101
1427.362495	-2.999100	3.526200	-10.575000	25.283017	0.000242	20.898879
1428.373968	-2.995000	3.526300	-10.560000	25.272776	0.000244	20.890020
1429.367267	-2.992600	3.525900	-10.550000	25.263754	0.000240	20.898979
1430.365802	-2.989700	3.525100	-10.538000	25.264874	0.000243	20.920964
1431.366266	-3.005300	3.525800	-10.595000	25.261917	0.000241	20.905669
1432.368877	-2.985300	3.524200	-10.520000	25.280036	0.000238	20.904420
1433.365472	-3.010400	3.524100	-10.608000	25.264176	0.000238	20.903196
1434.365467	-3.032900	3.522600	-10.683000	25.280878	0.000237	20.929445
1435.369912	-2.995000	3.524200	-10.554000	25.283619	0.000239	20.917974
1436.363759	-2.990600	3.523200	-10.535000	25.258562	0.000238	20.920316
1437.364752	-3.024900	3.521200	-10.650000	25.272655	0.000238	20.926879
1438.367978	-3.019900	3.522300	-10.636000	25.273007	0.000238	20.913484
1439.366580	-3.007500	3.522100	-10.592000	25.279569	0.000236	20.901581
1440.366045	-2.986300	3.522900	-10.520000	25.280887	0.000236	20.937040
1441.370368	-2.991800	3.521900	-10.535000	25.280045	0.000237	20.905377
1442.367146	-2.962300	3.523400	-10.436000	25.264537	0.000236	20.919678
1443.368031	-3.005500	3.520900	-10.581000	25.272689	0.000236	20.915061
1444.372443	-2.998300	3.521400	-10.557000	25.276844	0.000237	20.912594
1445.368049	-2.993300	3.521100	-10.539000	25.272445	0.000236	20.906282
1446.367699	-3.005100	3.521000	-10.580000	25.255641	0.000235	20.906006
1447.371437	-2.987900	3.520500	-10.517000	25.264145	0.000235	20.906483
1448.369435	-2.995300	3.520500	-10.544000	25.277819	0.000233	20.914047
1449.368337	-2.987600	3.519800	-10.515000	25.281128	0.000232	20.919739
1450.370254	-3.005800	3.518800	-10.576000	25.289925	0.000233	20.918615
1451.368425	-3.003800	3.517700	-10.566000	25.286569	0.000231	20.881110
1452.368280	-3.016200	3.518200	-10.610000	25.287168	0.000233	20.907788
1453.369053	-2.987100	3.520300	-10.514000	25.291918	0.000234	20.895963
1454.368406	-2.996500	3.518800	-10.543000	25.295150	0.000231	20.912008
1455.368498	-2.998600	3.519000	-10.551000	25.288489	0.000232	20.900580
1456.371647	-2.997100	3.516700	-10.538000	25.280143	0.000230	20.899312
1457.372733	-3.010700	3.517700	-10.590000	25.289711	0.000230	20.902755
1458.374412	-2.997100	3.515600	-10.536000	25.312802	0.000229	20.888482
1459.372098	-3.007000	3.516400	-10.573000	25.279701	0.000231	20.901714
1460.371191	-3.005400	3.515800	-10.566000	25.301252	0.000229	20.886843
1461.372894	-2.999000	3.515900	-10.543000	25.299959	0.000228	20.896449
1462.371702	-2.982600	3.515700	-10.486000	25.316339	0.000229	20.907205
1463.371592	-2.983300	3.515200	-10.487000	25.302570	0.000228	20.882002
1464.372424	-2.989900	3.515300	-10.509000	25.307468	0.000226	20.891661
1465.372966	-2.996600	3.514700	-10.532000	25.286637	0.000228	20.896824
1466.373603	-3.012900	3.513100	-10.584000	25.296931	0.000228	20.891987
1467.377223	-3.007800	3.513900	-10.568000	25.294745	0.000226	20.884577
1468.375417	-3.016000	3.514100	-10.597000	25.297875	0.000226	20.888668
1469.380790	-3.003300	3.513300	-10.551000	25.290023	0.000226	20.871776
1470.376716	-3.011200	3.513200	-10.578000	25.302672	0.000226	20.897750
1471.377070	-3.003800	3.512300	-10.549000	25.300311	0.000225	20.873570
1472.378156	-2.998600	3.512100	-10.530000	25.270932	0.000225	20.891488
1473.378912	-2.993100	3.511800	-10.510000	25.281695	0.000224	20.880010
1474.380402	-3.002700	3.510800	-10.541000	25.288631	0.000225	20.878913
1475.378248	-3.000400	3.511000	-10.534000	25.291461	0.000224	20.872272
1476.379324	-3.021400	3.509800	-10.603000	25.304585	0.000223	20.848941
1477.377818	-3.002000	3.510300	-10.537000	25.299835	0.000223	20.878309
1478.376490	-2.987100	3.509300	-10.482000	25.301777	0.000222	20.861767
1479.381009	-3.034100	3.508700	-10.645000	25.282933	0.000222	20.883149
1480.380319	-3.027300	3.508800	-10.621000	25.299934	0.000221	20.899269
1481.380978	-2.984100	3.509900	-10.473000	25.297693	0.000221	20.866201
1482.384369	-2.984100	3.508000	-10.467000	25.293718	0.000221	20.872641
1483.378500	-2.995400	3.508700	-10.509000	25.284770	0.000221	20.876459
1484.379552	-2.988500	3.508700	-10.485000	25.324929	0.000222	20.870788
1485.379429	-2.987600	3.508300	-10.480000	25.302833	0.000219	20.858560
1486.377946	-2.997700	3.507800	-10.515000	25.306336	0.000219	20.850698
1487.382647	-2.995100	3.507700	-10.505000	25.299447	0.000218	20.871281
1488.383536	-3.008600	3.506300	-10.548000	25.302502	0.000220	20.877667
1489.378364	-3.013100	3.507300	-10.567000	25.312342	0.000217	20.870478
1490.378985	-3.006400	3.505900	-10.539000	25.291934	0.000219	20.860419
1491.380148	-3.022400	3.504900	-10.592000	25.316812	0.000218	20.856000
1492.379641	-3.030200	3.505000	-10.620000	25.305997	0.000216	20.872641
1493.380111	-2.982900	3.507400	-10.461000	25.321528	0.000218	20.874485
1494.385716	-3.019400	3.505800	-10.584000	25.299231	0.000216	20.862056
1495.378606	-2.988000	3.505500	-10.474000	25.322988	0.000217	20.851297
1496.378307	-2.997000	3.503400	-10.498000	25.311031	0.000216	20.869636
1497.384561	-2.996900	3.504700	-10.503000	25.320174	0.000217	20.870281
1498.378258	-3.011800	3.503600	-10.551000	25.305932	0.000216	20.854560
1499.381063	-2.994900	3.504500	-10.494000	25.307396	0.000215	20.874046
1500.383522	-3.006200	3.503300	-10.531000	25.322032	0.000215	20.847966
1501.380884	-2.996800	3.503100	-10.496000	25.319347	0.000216	20.859020
1502.380678	-2.979400	3.503200	-10.437000	25.306939	0.000214	20.874536
1503.380600	-2.983400	3.502600	-10.449000	25.314492	0.000213	20.876429
1504.378743	-3.007500	3.502400	-10.532000	25.318989	0.000213	20.863876
1505.379478	-3.013400	3.501500	-10.550000	25.337403	0.000214	20.865769
1506.382019	-2.995200	3.501900	-10.488000	25.306406	0.000212	20.839389
1507.384346	-2.998700	3.500300	-10.496000	25.325962	0.000212	20.848119
1508.386586	-2.998100	3.500800	-10.495000	25.340379	0.000213	20.855956
1509.384161	-2.999100	3.500200	-10.496000	25.329959	0.000211	20.857822
1510.384642	-2.987500	3.501100	-10.459000	25.335373	0.000211	20.844292
1511.383870	-3.016400	3.499600	-10.556000	25.307684	0.000209	20.863431
1512.387299	-3.004100	3.498900	-10.510000	25.309422	0.000211	20.874658
1513.382140	-3.007000	3.499300	-10.521000	25.316302	0.000209	20.838894
1514.382206	-3.002200	3.498500	-10.502000	25.323059	0.000209	20.858005
1515.384483	-3.007400	3.498900	-10.522000	25.315923	0.000209	20.885452
1516.383974	-2.998400	3.499300	-10.491000	25.343183	0.000209	20.857349
1517.385864	-3.008000	3.498900	-10.524000	25.337366	0.000207	20.852930
1518.384454	-2.999700	3.498200	-10.492000	25.338035	0.000208	20.861189
1519.385642	-3.024700	3.496900	-10.576000	25.323866	0.000206	20.847910
1520.384531	-3.007200	3.497200	-10.515000	25.353166	0.000207	20.855992
1521.386376	-3.008200	3.497400	-10.519000	25.346203	0.000206	20.847579
1522.386337	-2.996100	3.497300	-10.477000	25.334916	0.000204	20.849522
1523.387090	-2.998700	3.496600	-10.485000	25.342741	0.000204	20.854059
1524.383392	-2.981100	3.497800	-10.426000	25.354941	0.000205	20.849241
1525.386366	-3.001800	3.495700	-10.493000	25.336673	0.000205	20.857924
1526.387768	-2.997000	3.496200	-10.477000	25.339081	0.000205	20.859867
1527.385226	-3.006800	3.494000	-10.505000	25.328963	0.000204	20.866778
1528.388140	-3.000100	3.494600	-10.483000	25.355007	0.000204	20.845988
1529.389165	-3.001900	3.493700	-10.486000	25.317574	0.000201	20.849654
1530.385708	-3.004000	3.494000	-10.495000	25.345458	0.000202	20.862952
1531.386786	-3.022700	3.493000	-10.557000	25.319880	0.000202	20.861452
1532.388313	-2.996200	3.494300	-10.469000	25.348610	0.000203	20.860901
1533.385795	-2.999500	3.493300	-10.478000	25.347440	0.000203	20.834123
1534.386884	-3.013800	3.491600	-10.523000	25.342589	0.000201	20.837312
1535.392701	-3.016600	3.492300	-10.534000	25.345147	0.000200	20.851735
1536.390046	-3.009800	3.492100	-10.509000	25.336595	0.000198	20.846941
1537.386800	-3.009000	3.491100	-10.504000	25.341540	0.000198	20.868500
1538.393331	-3.007100	3.491900	-10.500000	25.330898	0.000200	20.853074
1539.388764	-2.990400	3.491800	-10.441000	25.333753	0.000199	20.843614
1540.392567	-2.999400	3.490800	-10.469000	25.338899	0.000197	20.872486
1541.397323	-3.004800	3.490900	-10.488000	25.356862	0.000197	20.859230
1542.390176	-2.993200	3.490800	-10.448000	25.346847	0.000196	20.843958
1543.391827	-2.990100	3.491500	-10.439000	25.338643	0.000197	20.873652
1544.395800	-2.978200	3.490100	-10.393000	25.331634	0.000195	20.850968
1545.391370	-3.000500	3.487900	-10.465000	25.351292	0.000195	20.850792
1546.390345	-2.997400	3.488000	-10.454000	25.339461	0.000196	20.827534
1547.391198	-3.012300	3.488100	-10.506000	25.346196	0.000193	20.828132
1548.390425	-3.000100	3.488200	-10.464000	25.347758	0.000194	20.852459
1549.386732	-2.992700	3.488500	-10.439000	25.336847	0.000194	20.862841
1550.391831	-2.991800	3.488500	-10.436000	25.344252	0.000191	20.859844
1551.390065	-3.010500	3.486600	-10.496000	25.366869	0.000192	20.835614
1552.395443	-3.002500	3.486500	-10.467000	25.359561	0.000193	20.840603
1553.391987	-3.002200	3.488100	-10.470000	25.339478	0.000191	20.846042
1554.390605	-3.012200	3.487000	-10.501000	25.357672	0.000191	20.845345
1555.393024	-2.989400	3.486300	-10.421000	25.356851	0.000192	20.852581
1556.391767	-3.008400	3.485500	-10.485000	25.341265	0.000188	20.844518
1557.395079	-2.992900	3.485900	-10.432000	25.348996	0.000190	20.845168
1558.390522	-3.021500	3.485100	-10.529000	25.351657	0.000190	20.847839
1559.393164	-3.022300	3.484500	-10.530000	25.338632	0.000190	20.850883
1560.391028	-3.001500	3.484600	-10.458000	25.340771	0.000189	20.837858
1561.393705	-3.025500	3.483100	-10.537000	25.360753	0.000187	20.840851
1562.394020	-2.994300	3.483500	-10.429000	25.352950	0.000187	20.833965
1563.392485	-3.002000	3.484500	-10.459000	25.365527	0.000187	20.826206
1564.392178	-3.008500	3.483200	-10.478000	25.377999	0.000187	20.837306
1565.395786	-3.018100	3.481800	-10.508000	25.370169	0.000187	20.849358
1566.397398	-3.002100	3.481100	-10.450000	25.344400	0.000188	20.844821
1567.394827	-3.006900	3.483000	-10.472000	25.361052	0.000184	20.834514
1568.396616	-2.987200	3.482300	-10.401000	25.354139	0.000184	20.852228
1569.393708	-3.014000	3.480900	-10.490000	25.353345	0.000185	20.837681
1570.397010	-3.014500	3.481600	-10.494000	25.348099	0.000186	20.831465
1571.396251	-3.010000	3.481300	-10.478000	25.359632	0.000183	20.818865
1572.398079	-3.002100	3.479800	-10.446000	25.357197	0.000185	20.832066
1573.395359	-2.999400	3.479400	-10.435000	25.338552	0.000185	20.831363
1574.399877	-2.990700	3.480200	-10.407000	25.329679	0.000185	20.837152
1575.400103	-2.997300	3.480400	-10.431000	25.340839	0.000185	20.836030
1576.398140	-2.996100	3.480200	-10.426000	25.336441	0.000185	20.830666
1577.399378	-2.997100	3.480500	-10.431000	25.346976	0.000183	20.809001
1578.398977	-3.002300	3.479600	-10.445000	25.356643	0.000182	20.826768
1579.404430	-3.007000	3.479300	-10.461000	25.368248	0.000180	20.813291
1580.398685	-3.012300	3.477800	-10.475000	25.359001	0.000182	20.813015
1581.403015	-3.016100	3.477600	-10.488000	25.390911	0.000180	20.830831
1582.399088	-2.993800	3.478900	-10.414000	25.361063	0.000180	20.814611
1583.400443	-3.001000	3.477800	-10.436000	25.357856	0.000181	20.805227
1584.399365	-3.007000	3.477800	-10.457000	25.365609	0.000181	20.824866
1585.399561	-3.033700	3.476400	-10.545000	25.361727	0.000181	20.829028
1586.403847	-3.019600	3.475500	-10.493000	25.376440	0.000181	20.814404
1587.401854	-3.006800	3.475500	-10.450000	25.368536	0.000179	20.825908
1588.402806	-2.996600	3.476400	-10.416000	25.359138	0.000180	20.837808
1589.402276	-2.999100	3.474900	-10.421000	25.354792	0.000178	20.818272
1590.401310	-3.033000	3.474100	-10.536000	25.369055	0.000178	20.826429
1591.400394	-2.992900	3.474700	-10.399000	25.367364	0.000177	20.807662
1592.408901	-2.974700	3.475300	-10.337000	25.375317	0.000176	20.809010
1593.406138	-2.988600	3.474000	-10.382000	25.384188	0.000174	20.820761
1594.405181	-2.995700	3.474500	-10.407000	25.358268	0.000176	20.813701
1595.404259	-2.988500	3.474700	-10.382000	25.394079	0.000177	20.818840
1596.405013	-2.984000	3.473700	-10.364000	25.362614	0.000172	20.793884
1597.406631	-3.006000	3.473400	-10.440000	25.367759	0.000175	20.811852
1598.404546	-3.010100	3.471800	-10.450000	25.364308	0.000174	20.816921
1599.405106	-2.994200	3.473000	-10.398000	25.365796	0.000173	20.831217
1600.402859	-3.010300	3.472200	-10.451000	25.364978	0.000174	20.800999
1601.405148	-3.002900	3.471900	-10.425000	25.368283	0.000174	20.816646
1602.407329	-2.990600	3.470900	-10.379000	25.375592	0.000174	20.809285
1603.404586	-2.983600	3.471300	-10.356000	25.360728	0.000173	20.814275
1604.408289	-3.005400	3.470300	-10.429000	25.358817	0.000172	20.809511
1605.406437	-3.002400	3.470000	-10.417000	25.368234	0.000173	20.815648
1606.412934	-2.993600	3.470300	-10.388000	25.369651	0.000172	20.821812
1607.405572	-3.008400	3.469500	-10.437000	25.356481	0.000171	20.828028
1608.409020	-3.013400	3.470400	-10.457000	25.370348	0.000169	20.814451
1609.408387	-2.989900	3.470200	-10.374000	25.381904	0.000174	20.812778
1610.408827	-2.995800	3.469800	-10.394000	25.382700	0.000171	20.809784
1611.406518	-3.025800	3.467800	-10.492000	25.394381	0.000170	20.800651
1612.410038	-3.006000	3.468400	-10.425000	25.365777	0.000169	20.806068
1613.408400	-3.005900	3.466800	-10.420000	25.391103	0.000167	20.811110
1614.407850	-2.995100	3.468000	-10.386000	25.390082	0.000168	20.799653
1615.412311	-2.991800	3.468700	-10.377000	25.361428	0.000165	20.810236
1616.408238	-3.001100	3.466200	-10.402000	25.382554	0.000168	20.806793
1617.413754	-3.001500	3.467000	-10.405000	25.387252	0.000166	20.795389
1618.408924	-3.037600	3.465500	-10.526000	25.387054	0.000167	20.831225
1619.417015	-3.006300	3.466800	-10.421000	25.378656	0.000165	20.782490
1620.409624	-2.992100	3.466400	-10.371000	25.372517	0.000165	20.817103
1621.408675	-3.013400	3.465400	-10.442000	25.367872	0.000164	20.795844
1622.417481	-3.016900	3.464900	-10.452000	25.390513	0.000164	20.801034
1623.412540	-3.014600	3.464300	-10.442000	25.383779	0.000163	20.802333
1624.416843	-3.015900	3.463800	-10.445000	25.391337	0.000165	20.799965
1625.417347	-3.021700	3.463300	-10.464000	25.372248	0.000164	20.802608
1626.415595	-2.993200	3.462400	-10.363000	25.375284	0.000164	20.784320
1627.412410	-3.029500	3.462300	-10.488000	25.382617	0.000161	20.792632
1628.418963	-3.003900	3.462900	-10.401000	25.386247	0.000162	20.792957
1629.413350	-3.012900	3.462300	-10.430000	25.383515	0.000163	20.794008
1630.415033	-3.003400	3.462600	-10.399000	25.376286	0.000160	20.799077
1631.418890	-2.985300	3.461300	-10.332000	25.381184	0.000161	20.778391
1632.413670	-3.013300	3.461200	-10.428000	25.377384	0.000163	20.789748
1633.416511	-2.995200	3.461300	-10.366000	25.362175	0.000162	20.802926
1634.416614	-2.988200	3.461000	-10.341000	25.379949	0.000161	20.788056
1635.414693	-2.998300	3.460200	-10.373000	25.372418	0.000159	20.799460
1636.425777	-2.985600	3.460200	-10.330000	25.377220	0.000159	20.791954
1637.423169	-3.000900	3.459400	-10.380000	25.371951	0.000158	20.792354
1638.415333	-2.988800	3.458700	-10.336000	25.378864	0.000160	20.787915
1639.417171	-2.994000	3.458900	-10.355000	25.392237	0.000157	20.786170
1640.424288	-2.985200	3.459300	-10.326000	25.370244	0.000156	20.781156
1641.419090	-3.008300	3.458100	-10.402000	25.385185	0.000157	20.792365
1642.422585	-2.996700	3.457600	-10.360000	25.380589	0.000156	20.792966
1643.421141	-3.001300	3.457700	-10.376000	25.377187	0.000155	20.782438
1644.417307	-3.009200	3.457700	-10.404000	25.367990	0.000154	20.768461
1645.417046	-2.983200	3.457600	-10.313000	25.363048	0.000157	20.784362
1646.424504	-3.009800	3.456800	-10.403000	25.376622	0.000153	20.763378
1647.419709	-2.999500	3.456700	-10.368000	25.383112	0.000155	20.766576
1648.421461	-3.005400	3.455700	-10.385000	25.373868	0.000154	20.786692
1649.420297	-3.022900	3.455100	-10.443000	25.395244	0.000151	20.783026
1650.421279	-2.991700	3.455000	-10.335000	25.375788	0.000154	20.769178
1651.423856	-3.007900	3.455100	-10.392000	25.383445	0.000154	20.764065
1652.423181	-3.006900	3.455700	-10.390000	25.375719	0.000153	20.762471
1653.421789	-2.993800	3.455400	-10.344000	25.354423	0.000153	20.770011
1654.421532	-3.000100	3.455100	-10.365000	25.375401	0.000151	20.771635
1655.423665	-3.028500	3.452800	-10.456000	25.373539	0.000152	20.757912
1656.424251	-3.000600	3.453700	-10.360000	25.383061	0.000152	20.776956
1657.430651	-2.997800	3.453600	-10.352000	25.366808	0.000152	20.745937
1658.427813	-2.989400	3.453700	-10.324000	25.347126	0.000150	20.771693
1659.425314	-2.996200	3.453200	-10.346000	25.374094	0.000151	20.773168
1660.427530	-2.994200	3.452700	-10.336000	25.375165	0.000150	20.771399
1661.433971	-2.989500	3.452900	-10.322000	25.353073	0.000151	20.756802
1662.430604	-2.994600	3.450400	-10.331000	25.356554	0.000149	20.757926
1663.428814	-2.972300	3.452800	-10.262000	25.381810	0.000148	20.743456
1664.429687	-2.986100	3.451600	-10.306000	25.372415	0.000147	20.760576
1665.429908	-2.988400	3.450600	-10.311000	25.360063	0.000149	20.773304
1666.432822	-2.994600	3.451200	-10.334000	25.384198	0.000147	20.760080
1667.431180	-3.012100	3.449900	-10.390000	25.384022	0.000148	20.732401
1668.430262	-2.995700	3.449500	-10.333000	25.355044	0.000147	20.742659
1669.429699	-3.001600	3.449900	-10.354000	25.383155	0.000145	20.761877
1670.433965	-2.986800	3.449200	-10.302000	25.384075	0.000145	20.756162
1671.434256	-2.967700	3.450200	-10.239000	25.379600	0.000145	20.757359
1672.435335	-2.992600	3.448700	-10.319000	25.393346	0.000145	20.752195
1673.438618	-3.000400	3.449000	-10.347000	25.385368	0.000146	20.760780
1674.432745	-3.008800	3.448500	-10.375000	25.390112	0.000147	20.751793
1675.433142	-3.010000	3.447300	-10.375000	25.379970	0.000145	20.757731
1676.434403	-2.976900	3.447700	-10.262000	25.386334	0.000146	20.740413
1677.437960	-2.971700	3.447900	-10.245000	25.411756	0.000146	20.760725
1678.433242	-2.984200	3.446000	-10.283000	25.388970	0.000142	20.774829
1679.436059	-2.979300	3.447400	-10.269000	25.388643	0.000144	20.774500
1680.433731	-2.998900	3.445300	-10.332000	25.398334	0.000144	20.736341
1681.439546	-3.005400	3.446000	-10.355000	25.375045	0.000145	20.772226
1682.434228	-2.990800	3.445100	-10.303000	25.385631	0.000146	20.757251
1683.437055	-2.992300	3.445600	-10.309000	25.386575	0.000142	20.750138
1684.437139	-2.989800	3.444900	-10.299000	25.380881	0.000141	20.771448
1685.437907	-3.034400	3.443500	-10.448000	25.393903	0.000140	20.763660
1686.437216	-2.995400	3.444700	-10.317000	25.371061	0.000140	20.738353
1687.435106	-3.001000	3.443200	-10.332000	25.361965	0.000140	20.746764
1688.439144	-3.008400	3.442000	-10.353000	25.388854	0.000139	20.749581
1689.439292	-2.985000	3.443600	-10.278000	25.398171	0.000141	20.752299
1690.438634	-2.989600	3.442900	-10.292000	25.386169	0.000140	20.755420
1691.437935	-2.984000	3.442700	-10.272000	25.393675	0.000140	20.742568
1692.436649	-3.010200	3.440800	-10.357000	25.392801	0.000138	20.763029
1693.436489	-2.984600	3.441300	-10.270000	25.388598	0.000137	20.749324
1694.440608	-3.007000	3.440200	-10.344000	25.386934	0.000137	20.761879
1695.438224	-2.997400	3.441700	-10.314000	25.379579	0.000136	20.771564
1696.436965	-2.998300	3.441500	-10.318000	25.408508	0.000138	20.751298
1697.443128	-2.986500	3.440200	-10.274000	25.397249	0.000137	20.743786
1698.436888	-2.981500	3.440000	-10.255000	25.402542	0.000137	20.767120
1699.438068	-3.015100	3.440200	-10.371000	25.398243	0.000136	20.760906
1700.437096	-2.977300	3.440600	-10.243000	25.422572	0.000136	20.764947
1701.441400	-2.999200	3.439000	-10.314000	25.393644	0.000134	20.754391
1702.440333	-3.010000	3.438400	-10.349000	25.390314	0.000134	20.775704
1703.438764	-2.982300	3.439600	-10.257000	25.404008	0.000132	20.735874
1704.441131	-2.991600	3.438100	-10.285000	25.405125	0.000132	20.790103
1705.440247	-3.014100	3.437000	-10.358000	25.403585	0.000132	20.776228
1706.440523	-2.973100	3.438400	-10.221000	25.395733	0.000131	20.756489
1707.441435	-2.997000	3.437500	-10.301000	25.413205	0.000131	20.784465
1708.441541	-3.007200	3.437100	-10.334000	25.411492	0.000132	20.771365
1709.439824	-2.998100	3.436000	-10.300000	25.390490	0.000130	20.787735
1710.443845	-3.013900	3.434600	-10.350000	25.389946	0.000129	20.767748
1711.440724	-3.006500	3.436700	-10.331000	25.379459	0.000129	20.758166
1712.441128	-2.999100	3.435400	-10.301000	25.395143	0.000130	20.748784
1713.444129	-2.980200	3.437100	-10.242000	25.405060	0.000126	20.765380
1714.441793	-2.991800	3.436200	-10.279000	25.401507	0.000129	20.763710
1715.441445	-3.006000	3.434200	-10.322000	25.393156	0.000125	20.779032
1716.455916	-3.010700	3.433900	-10.337000	25.404587	0.000126	20.791459
1717.442894	-3.021200	3.433700	-10.373000	25.394128	0.000129	20.787120
1718.443912	-3.016800	3.433200	-10.356000	25.408393	0.000128	20.772995
1719.445035	-2.995800	3.433100	-10.284000	25.407204	0.000126	20.766585
1720.441533	-3.026200	3.431600	-10.383000	25.395822	0.000126	20.794511
1721.450145	-3.001100	3.432800	-10.301000	25.388915	0.000123	20.764816
1722.443782	-3.041100	3.430500	-10.432000	25.385359	0.000124	20.760771
1723.443536	-3.001900	3.431500	-10.301000	25.422715	0.000125	20.771256
1724.444422	-2.993900	3.431500	-10.273000	25.406837	0.000124	20.763371
1725.444099	-2.972000	3.430800	-10.195000	25.421228	0.000124	20.769287
1726.445686	-3.003700	3.429400	-10.300000	25.431122	0.000123	20.785861
1727.444611	-3.018200	3.429300	-10.349000	25.410746	0.000122	20.786264
1728.446317	-2.999500	3.430100	-10.288000	25.411394	0.000120	20.779328
1729.442488	-2.998800	3.429700	-10.284000	25.407965	0.000123	20.778730
1730.443949	-3.016400	3.429500	-10.344000	25.425736	0.000122	20.772866
1731.446061	-3.012500	3.429500	-10.330000	25.415178	0.000123	20.774592
1732.443890	-2.977100	3.429800	-10.210000	25.416002	0.000120	20.762617
1733.444631	-2.977300	3.428600	-10.207000	25.411233	0.000122	20.772054
1734.447430	-3.023700	3.427000	-10.361000	25.417794	0.000118	20.792393
1735.443407	-2.985900	3.427800	-10.234000	25.403360	0.000120	20.749922
1736.442586	-3.024800	3.426800	-10.364000	25.424062	0.000118	20.773556
1737.449739	-2.977900	3.427200	-10.205000	25.409007	0.000119	20.769819
1738.442443	-2.992800	3.426900	-10.256000	25.410899	0.000118	20.773141
1739.442829	-2.985100	3.426900	-10.228000	25.404066	0.000120	20.765805
1740.448667	-2.995900	3.426500	-10.264000	25.411874	0.000118	20.783603
1741.444650	-2.985600	3.427000	-10.232000	25.415405	0.000119	20.784303
1742.443376	-2.984500	3.426400	-10.225000	25.400470	0.000120	20.781161
1743.445755	-3.016400	3.424300	-10.328000	25.412874	0.000118	20.781288
1744.444511	-3.026300	3.423900	-10.360000	25.411309	0.000118	20.792045
1745.443482	-2.991700	3.424500	-10.244000	25.408254	0.000118	20.778071
1746.451573	-3.012700	3.423500	-10.313000	25.423691	0.000117	20.794521
1747.444847	-2.995000	3.423700	-10.252000	25.413651	0.000118	20.788707
1748.451061	-2.995000	3.423400	-10.252000	25.429610	0.000118	20.772963
1749.450758	-3.007200	3.422100	-10.289000	25.428937	0.000118	20.778452
1750.446902	-3.004500	3.423100	-10.284000	25.417882	0.000117	20.782524
1751.445304	-3.015300	3.422400	-10.319000	25.412562	0.000117	20.775759
1752.449933	-3.000500	3.421500	-10.265000	25.438733	0.000116	20.774537
1753.447161	-3.001700	3.421400	-10.269000	25.436899	0.000115	20.797353
1754.447958	-3.015300	3.421000	-10.314000	25.435980	0.000115	20.762290
1755.455294	-3.020600	3.421000	-10.332000	25.420499	0.000115	20.775194
1756.447632	-2.987400	3.420600	-10.218000	25.436134	0.000115	20.794213
1757.452168	-2.991600	3.420900	-10.233000	25.412771	0.000113	20.785452
1758.456823	-3.011200	3.419300	-10.295000	25.425672	0.000115	20.788449
1759.452912	-3.011300	3.421000	-10.301000	25.432708	0.000113	20.790773
1760.453474	-3.009000	3.419400	-10.288000	25.432779	0.000112	20.773775
1761.456053	-3.010500	3.419400	-10.293000	25.426023	0.000112	20.789750
1762.450865	-2.995400	3.419300	-10.241000	25.437979	0.000112	20.801282
1763.450498	-2.985900	3.420600	-10.212000	25.412928	0.000111	20.799835
1764.458959	-2.996600	3.418800	-10.243000	25.434825	0.000112	20.796692
1765.453767	-2.987300	3.419400	-10.213000	25.430230	0.000110	20.802035
1766.453806	-3.015700	3.416900	-10.303000	25.418604	0.000109	20.799844
1767.456675	-3.015400	3.416900	-10.302000	25.431480	0.000112	20.791910
1768.452423	-2.981500	3.418700	-10.192000	25.419650	0.000110	20.797101
1769.454221	-3.018700	3.417200	-10.315000	25.442287	0.000108	20.788064
1770.456950	-3.006200	3.416300	-10.269000	25.425863	0.000109	20.799072
1771.453627	-3.008900	3.416400	-10.279000	25.435880	0.000108	20.799648
1772.454861	-3.005500	3.416200	-10.267000	25.425795	0.000108	20.806590
1773.455253	-3.002400	3.415600	-10.254000	25.442892	0.000106	20.790568
1774.453105	-3.003900	3.414500	-10.255000	25.440929	0.000106	20.811831
1775.454032	-2.993000	3.414700	-10.220000	25.429723	0.000107	20.798681
1776.455565	-2.983900	3.414500	-10.188000	25.409570	0.000104	20.809265
1777.454398	-2.994400	3.413600	-10.220000	25.423788	0.000106	20.805050
1778.453602	-3.014900	3.413000	-10.288000	25.432291	0.000107	20.796518
1779.457742	-3.010400	3.413400	-10.274000	25.444120	0.000106	20.797017
1780.456198	-3.017800	3.412900	-10.297000	25.433038	0.000104	20.791104
1781.454682	-3.010100	3.413600	-10.274000	25.401203	0.000102	20.817458
1782.459673	-2.974300	3.413300	-10.151000	25.445913	0.000104	20.805456
1783.454568	-2.990600	3.412000	-10.203000	25.428467	0.000104	20.782721
1784.455171	-3.016500	3.411500	-10.290000	25.446213	0.000101	20.799592
1785.457737	-3.016600	3.411400	-10.290000	25.444528	0.000102	20.799323
1786.454194	-2.986800	3.412500	-10.190000	25.452009	0.000103	20.801619
1787.456788	-3.006600	3.410700	-10.254000	25.443562	0.000102	20.795034
1788.457286	-2.993700	3.410900	-10.210000	25.461008	9.926524E-5	20.813027
1789.455067	-2.978100	3.410200	-10.155000	25.444929	0.000101	20.833864
1790.456526	-2.996800	3.408700	-10.214000	25.444562	0.000100	20.802676
1791.454886	-2.996400	3.409900	-10.217000	25.452737	9.873732E-5	20.813730
1792.456283	-3.000600	3.408900	-10.228000	25.475003	9.827539E-5	20.823762
1793.458097	-3.003700	3.408500	-10.237000	25.452465	9.702159E-5	20.792595
1794.455417	-3.000300	3.407600	-10.222000	25.463279	9.764849E-5	20.816256
1795.462557	-3.001100	3.408700	-10.229000	25.468223	9.820940E-5	20.803203
1796.457186	-3.002200	3.407500	-10.229000	25.462532	9.731854E-5	20.797014
1797.457185	-2.989100	3.407900	-10.186000	25.471306	9.497590E-5	20.812463
1798.457366	-3.014300	3.406200	-10.266000	25.466936	9.679062E-5	20.827040
1799.463125	-3.014300	3.406100	-10.266000	25.458613	9.639468E-5	20.789285
1800.458123	-3.013300	3.406400	-10.263000	25.471809	9.454697E-5	20.799217
1801.458338	-3.002400	3.405600	-10.225000	25.484410	9.599874E-5	20.817086
1802.459048	-3.009400	3.404900	-10.246000	25.474571	9.368910E-5	20.831862
1803.458233	-2.990900	3.405900	-10.185000	25.478574	9.349113E-5	20.813123
1804.456903	-3.017700	3.404900	-10.274000	25.470874	9.431600E-5	20.806339
1805.463079	-2.993400	3.405000	-10.191000	25.493041	9.444798E-5	20.812952
1806.469429	-2.984800	3.404700	-10.161000	25.472146	9.342514E-5	20.816151
1807.459475	-2.991300	3.403500	-10.180000	25.469337	9.091753E-5	20.816175
1808.463844	-2.990100	3.404200	-10.178000	25.486663	9.180839E-5	20.819349
1809.460920	-3.011600	3.402400	-10.245000	25.480623	9.246829E-5	20.813758
1810.462392	-2.991700	3.403400	-10.182000	25.476077	9.147844E-5	20.817728
1811.464072	-2.998800	3.401800	-10.201000	25.508882	9.240230E-5	20.815584
1812.463046	-3.020000	3.401900	-10.271000	25.507145	9.012565E-5	20.814313
1813.463429	-3.009800	3.402000	-10.239000	25.498970	9.220433E-5	20.818906
1814.460861	-2.994300	3.400800	-10.182000	25.492906	9.098352E-5	20.824670
1815.461827	-2.983300	3.401200	-10.146000	25.505009	8.986169E-5	20.841565
1816.463470	-2.977400	3.402100	-10.129000	25.511718	8.939976E-5	20.811319
1817.467409	-3.002700	3.401100	-10.211000	25.517310	8.910281E-5	20.831159
1818.461989	-3.005900	3.399700	-10.218000	25.502877	8.804697E-5	20.825674
1819.462477	-2.992500	3.400500	-10.174000	25.498004	8.979570E-5	20.827419
1820.461962	-2.984100	3.399800	-10.144000	25.514678	8.992768E-5	20.822826
1821.464724	-3.005900	3.398600	-10.215000	25.522556	8.870687E-5	20.829315
1822.465871	-3.001900	3.399700	-10.204000	25.522377	8.880585E-5	20.839092
1823.464715	-3.013200	3.399100	-10.242000	25.523275	8.659519E-5	20.838098
1824.466259	-2.994500	3.399500	-10.179000	25.518652	8.890484E-5	20.842938
1825.468533	-3.011900	3.397200	-10.231000	25.513261	8.821194E-5	20.823774
1826.466555	-2.997100	3.398000	-10.184000	25.508487	8.722210E-5	20.822773
1827.467957	-3.008400	3.398000	-10.222000	25.497032	8.395560E-5	20.825494
1828.469456	-3.032500	3.396900	-10.299000	25.531249	8.520941E-5	20.846579
1829.469851	-3.007800	3.396800	-10.215000	25.497550	8.487946E-5	20.839765
1830.470309	-3.005700	3.396900	-10.208000	25.520442	8.649621E-5	20.833356
1831.471559	-2.982400	3.397400	-10.132000	25.506475	8.441753E-5	20.825494
1832.469610	-2.981200	3.396200	-10.124000	25.502151	8.359265E-5	20.834903
1833.471873	-2.976100	3.396000	-10.105000	25.503568	8.273479E-5	20.831584
1834.469119	-3.000000	3.394900	-10.184000	25.514128	8.131600E-5	20.827016
1835.469521	-2.993500	3.395400	-10.164000	25.535548	8.339468E-5	20.837620
1836.468482	-3.013900	3.393300	-10.226000	25.521066	8.200890E-5	20.847258
1837.473035	-3.024700	3.393300	-10.263000	25.526432	7.983123E-5	20.845061
1838.474298	-2.987500	3.394300	-10.139000	25.545889	7.946829E-5	20.844686
1839.470219	-2.993200	3.392800	-10.155000	25.533912	8.217387E-5	20.844512
1840.474463	-2.989500	3.392900	-10.142000	25.529243	7.979824E-5	20.835557
1841.469799	-3.015400	3.392300	-10.228000	25.532576	8.194291E-5	20.833214
1842.468286	-3.002200	3.394300	-10.189000	25.515230	8.002920E-5	20.842346
1843.471430	-3.003200	3.392300	-10.187000	25.542865	7.969925E-5	20.851132
1844.472069	-3.002800	3.392900	-10.188000	25.519331	7.900636E-5	20.847887
1845.473238	-3.026200	3.392000	-10.264000	25.544806	7.887438E-5	20.838383
1846.470511	-3.002000	3.390200	-10.176000	25.541127	7.795052E-5	20.843698
1847.470459	-3.017100	3.390100	-10.227000	25.558053	7.950128E-5	20.858799
1848.471998	-3.008900	3.390500	-10.201000	25.559621	7.686169E-5	20.862743
1849.473378	-3.003100	3.390700	-10.181000	25.529629	7.834646E-5	20.869133
1850.472705	-3.021900	3.390100	-10.244000	25.540739	7.666372E-5	20.860850
1851.471142	-3.004100	3.389600	-10.182000	25.544840	7.639976E-5	20.830357
1852.471133	-3.011800	3.390500	-10.210000	25.562238	7.616880E-5	20.857785
1853.474393	-3.030400	3.388100	-10.267000	25.543747	7.442007E-5	20.857708
1854.476800	-3.025100	3.389900	-10.253000	25.560396	7.504697E-5	20.848349
1855.476558	-3.013600	3.388200	-10.210000	25.556100	7.501397E-5	20.852570
1856.479327	-3.009800	3.387800	-10.196000	25.572869	7.392514E-5	20.859927
1857.475775	-3.008300	3.389100	-10.194000	25.566438	7.567387E-5	20.842564
1858.481629	-2.992900	3.387100	-10.136000	25.580700	7.402413E-5	20.861154
1859.477666	-3.007800	3.387600	-10.188000	25.565441	7.603682E-5	20.859580
1860.478356	-3.006300	3.387400	-10.182000	25.571955	7.534392E-5	20.846208
1861.480977	-2.991200	3.387500	-10.132000	25.582314	7.277032E-5	20.863249
1862.477031	-3.001100	3.386400	-10.162000	25.566537	7.197844E-5	20.859732
1863.475797	-3.008200	3.385600	-10.184000	25.566984	7.336423E-5	20.854966
1864.474948	-3.009900	3.386000	-10.191000	25.582688	7.161550E-5	20.874054
1865.473942	-2.979300	3.386700	-10.089000	25.573069	7.214342E-5	20.860128
1866.478487	-2.978100	3.385400	-10.081000	25.594562	7.079062E-5	20.858005
1867.478332	-2.989100	3.385100	-10.118000	25.598764	7.092260E-5	20.869338
1868.478390	-2.985600	3.385700	-10.107000	25.601865	6.963580E-5	20.885728
1869.478430	-2.990100	3.384600	-10.120000	25.589541	7.039469E-5	20.873825
1870.480759	-2.986200	3.384600	-10.106000	25.595651	7.131854E-5	20.884228
1871.481797	-2.981100	3.383000	-10.084000	25.601612	6.877793E-5	20.865086
1872.482289	-2.995000	3.383300	-10.131000	25.580268	6.937184E-5	20.860720
1873.486582	-3.001700	3.382900	-10.153000	25.597113	7.006474E-5	20.881429
1874.479922	-2.987300	3.383100	-10.105000	25.587393	6.897590E-5	20.867875
1875.484873	-3.010000	3.381700	-10.177000	25.595169	6.923986E-5	20.867150
1876.479224	-2.991300	3.382100	-10.116000	25.617383	6.897590E-5	20.849632
1877.482857	-2.996200	3.381400	-10.130000	25.602248	6.927286E-5	20.883741
1878.481312	-3.005800	3.380400	-10.160000	25.609101	6.857996E-5	20.888253
1879.480911	-2.991600	3.380500	-10.113000	25.604602	6.854697E-5	20.888002
1880.482426	-3.008300	3.381600	-10.172000	25.580401	6.871194E-5	20.874128
1881.485383	-2.991700	3.381300	-10.116000	25.603334	6.620433E-5	20.888150
1882.494306	-2.980600	3.380700	-10.075000	25.607157	6.663326E-5	20.889619
1883.482306	-2.978100	3.381500	-10.070000	25.618907	6.745814E-5	20.890989
1884.486275	-2.983400	3.380000	-10.083000	25.612918	6.613834E-5	20.891612
1885.482889	-2.995900	3.379600	-10.125000	25.607598	6.481854E-5	20.869201
1886.487910	-3.015100	3.376800	-10.180000	25.613834	6.600636E-5	20.858869
1887.485991	-2.980500	3.379000	-10.070000	25.609357	6.491753E-5	20.890406
1888.485015	-2.994000	3.378900	-10.116000	25.618595	6.775509E-5	20.896365
1889.483393	-2.997800	3.378100	-10.126000	25.626319	6.448859E-5	20.888950
1890.486234	-3.002100	3.376500	-10.136000	25.630889	6.455458E-5	20.897332
1891.486325	-2.989600	3.377000	-10.094000	25.649551	6.359773E-5	20.877196
1892.483390	-2.988200	3.376500	-10.089000	25.653176	6.425763E-5	20.883208
1893.486304	-2.980400	3.376600	-10.063000	25.644175	6.405966E-5	20.897874
1894.483965	-3.008600	3.375900	-10.156000	25.637190	6.313580E-5	20.888488
1895.490998	-2.998700	3.376500	-10.125000	25.653139	6.029824E-5	20.885067
1896.491189	-3.002800	3.373900	-10.129000	25.663797	6.148606E-5	20.896718
1897.486513	-3.014000	3.375600	-10.173000	25.669135	6.092514E-5	20.896390
1898.489015	-2.972300	3.374900	-10.030000	25.664883	6.095814E-5	20.902076
1899.493087	-2.999600	3.374100	-10.120000	25.651911	5.848352E-5	20.893316
1900.487381	-3.001100	3.375400	-10.128000	25.652602	6.000128E-5	20.898277
1901.489583	-2.994500	3.374400	-10.104000	25.657570	6.036423E-5	20.897103
1902.491612	-2.994700	3.373300	-10.101000	25.647576	5.960535E-5	20.912194
1903.488059	-2.993900	3.372900	-10.097000	25.670607	5.904443E-5	20.913040
1904.487344	-3.002500	3.373600	-10.129000	25.658925	5.775763E-5	20.899411
1905.491439	-3.009500	3.371900	-10.147000	25.670054	5.607489E-5	20.912485
1906.493139	-2.987000	3.371400	-10.070000	25.659493	5.732870E-5	20.901878
1907.490861	-2.982100	3.372200	-10.056000	25.658073	5.726271E-5	20.917521
1908.492178	-3.012800	3.370900	-10.154000	25.676158	5.376524E-5	20.914348
1909.488596	-3.016600	3.372200	-10.173000	25.679385	5.439215E-5	20.911900
1910.488977	-3.021600	3.372400	-10.189000	25.657765	5.363326E-5	20.906781
1911.489232	-2.997700	3.370400	-10.103000	25.651801	5.455712E-5	20.947727
1912.487851	-2.982800	3.371200	-10.054000	25.661462	5.264342E-5	20.897692
1913.491574	-2.999900	3.369400	-10.107000	25.671326	5.300636E-5	20.906651
1914.494427	-2.983700	3.369400	-10.051000	25.663921	5.175255E-5	20.917230
1915.492545	-2.995900	3.369900	-10.095000	25.656118	5.086169E-5	20.907497
1916.491398	-3.005600	3.368500	-10.124000	25.672490	5.122463E-5	20.932947
1917.492227	-2.993400	3.369300	-10.085000	25.648685	5.178555E-5	20.918996
1918.494071	-2.995400	3.368300	-10.088000	25.661875	4.993783E-5	20.893367
1919.492903	-2.988300	3.369100	-10.067000	25.675813	4.769418E-5	20.904045
1920.494086	-2.996300	3.367400	-10.089000	25.649675	5.125763E-5	20.901501
1921.491213	-3.006200	3.366700	-10.120000	25.666047	5.039976E-5	20.901349
1922.494262	-3.001400	3.366000	-10.103000	25.667936	4.845306E-5	20.909409
1923.494307	-2.983700	3.367100	-10.045000	25.664455	5.125763E-5	20.892164
1924.492351	-3.013300	3.366400	-10.142000	25.682990	5.142260E-5	20.900348
1925.494984	-2.989400	3.367700	-10.066000	25.695835	4.973986E-5	20.885276
1926.491166	-2.990000	3.366100	-10.063000	25.690639	4.993783E-5	20.898074
1927.491913	-3.051100	3.364800	-10.266000	25.682762	4.627539E-5	20.895852
1928.494957	-2.995500	3.365700	-10.081000	25.711231	4.848605E-5	20.895998
1929.494545	-3.031100	3.364000	-10.196000	25.702932	4.442768E-5	20.884343
1930.495890	-3.013500	3.364200	-10.137000	25.701114	4.795814E-5	20.889630
1931.498311	-2.991300	3.363500	-10.061000	25.687224	4.525255E-5	20.888481
1932.494816	-2.987600	3.364900	-10.052000	25.692241	4.492260E-5	20.887356
1933.495518	-2.982200	3.364400	-10.033000	25.710103	4.545052E-5	20.899131
1934.498020	-3.008100	3.363600	-10.118000	25.705623	4.554951E-5	20.888469
1935.495634	-3.020800	3.362200	-10.156000	25.723040	4.508758E-5	20.889842
1936.500376	-3.029200	3.362600	-10.185000	25.709298	4.521956E-5	20.867505
1937.501414	-2.998900	3.362100	-10.081000	25.714812	4.356981E-5	20.881103
1938.499557	-2.992200	3.362800	-10.061000	25.717295	4.568149E-5	20.883124
1939.497919	-3.012100	3.361400	-10.123000	25.742907	4.340484E-5	20.876133
1940.502707	-2.976400	3.363300	-10.010000	25.724941	4.162311E-5	20.883691
1941.498385	-3.023900	3.359600	-10.158000	25.763699	4.155712E-5	20.894171
1942.498101	-3.007100	3.360600	-10.104000	25.715321	4.380077E-5	20.874503
1943.498512	-3.010000	3.359800	-10.112000	25.725605	3.921448E-5	20.872979
1944.496592	-2.997400	3.359200	-10.068000	25.743472	4.162311E-5	20.878597
1945.496537	-3.012800	3.358800	-10.118000	25.751494	4.020433E-5	20.892343
1946.499503	-2.989100	3.359600	-10.041000	25.723294	4.036930E-5	20.892467
1947.498534	-3.006800	3.359200	-10.099000	25.741405	3.951143E-5	20.885529
1948.500799	-3.008900	3.359200	-10.108000	25.750997	3.766372E-5	20.868613
1949.500028	-2.993100	3.359300	-10.054000	25.737804	3.713580E-5	20.895662
1950.497888	-2.995100	3.358500	-10.058000	25.756807	3.868656E-5	20.878241
1951.498079	-3.014000	3.358100	-10.120000	25.753456	3.746575E-5	20.870134
1952.499501	-3.019300	3.357000	-10.134000	25.765905	3.644291E-5	20.871733
1953.498140	-3.018600	3.356800	-10.132000	25.764613	3.532108E-5	20.865693
1954.500823	-2.993600	3.357700	-10.051000	25.753160	3.647590E-5	20.872207
1955.501521	-2.997900	3.357100	-10.063000	25.763196	3.637692E-5	20.884184
1956.502210	-3.011400	3.355700	-10.105000	25.769660	3.545306E-5	20.871711
1957.501291	-2.995100	3.356300	-10.052000	25.750380	3.380331E-5	20.859932
1958.502724	-2.993400	3.356300	-10.046000	25.750482	3.357235E-5	20.885163
1959.500806	-3.016500	3.355600	-10.121000	25.771523	3.281346E-5	20.867419
1960.500897	-2.986000	3.355000	-10.017000	25.774507	3.241752E-5	20.876105
1961.501011	-2.980600	3.355200	-10.000000	25.774608	3.294544E-5	20.879526
1962.500372	-3.006100	3.354200	-10.082000	25.766062	3.363834E-5	20.855770
1963.500507	-2.994900	3.354600	-10.045000	25.754961	3.073478E-5	20.882550
1964.500462	-2.998800	3.354400	-10.058000	25.771483	3.047082E-5	20.864060
1965.503376	-2.987200	3.354700	-10.020000	25.756602	3.030585E-5	20.848639
1966.500283	-2.994400	3.355000	-10.045000	25.773349	3.043783E-5	20.857400
1967.508531	-2.996800	3.352200	-10.045000	25.752357	3.040483E-5	20.847220
1968.503424	-3.004400	3.351800	-10.068000	25.768832	3.172463E-5	20.861397
1969.503070	-2.993100	3.353700	-10.037000	25.779322	2.997590E-5	20.873355
1970.506270	-2.987600	3.352100	-10.014000	25.765259	2.855712E-5	20.859231
1971.502749	-2.985400	3.351200	-10.003000	25.741783	2.835915E-5	20.850824
1972.501350	-3.023500	3.350400	-10.129000	25.743202	2.707234E-5	20.851301
1973.503847	-2.996600	3.350900	-10.040000	25.764247	2.766625E-5	20.865800
1974.504152	-3.040900	3.349200	-10.183000	25.760918	2.826016E-5	20.850129
1975.504478	-3.005200	3.350200	-10.068000	25.763904	2.604950E-5	20.873990
1976.507331	-3.010600	3.349300	-10.083000	25.770988	2.763326E-5	20.841278
1977.505331	-3.028300	3.348700	-10.140000	25.767986	2.634646E-5	20.854858
1978.505850	-3.009500	3.349700	-10.080000	25.772086	2.390483E-5	20.831002
1979.506128	-3.007800	3.348600	-10.070000	25.758150	2.426778E-5	20.864892
1980.506923	-3.014900	3.347700	-10.092000	25.778700	2.416879E-5	20.834801
1981.506393	-2.968100	3.350600	-9.943200	25.759723	2.449874E-5	20.845610
1982.506514	-3.004100	3.348200	-10.058000	25.776642	2.340991E-5	20.882992
1983.504874	-3.000100	3.348300	-10.044000	25.782038	2.426778E-5	20.850481
1984.506392	-2.996900	3.348200	-10.033000	25.783309	2.390483E-5	20.843224
1985.508071	-3.018400	3.346300	-10.099000	25.772332	1.928554E-5	20.848318
1986.506417	-3.011900	3.347200	-10.081000	25.787962	2.235407E-5	20.836992
1987.504259	-2.990000	3.346300	-10.004000	25.806695	1.981346E-5	20.821196
1988.506054	-2.991500	3.346700	-10.011000	25.801259	2.047336E-5	20.854615
1989.511885	-2.982200	3.346400	-9.978100	25.786730	2.337691E-5	20.838600
1990.506287	-2.993100	3.345600	-10.013000	25.775728	2.202412E-5	20.823756
1991.507867	-2.977200	3.345000	-9.958000	25.805790	2.037437E-5	20.828822
1992.511531	-3.008900	3.344300	-10.062000	25.779810	1.921955E-5	20.823588
1993.510645	-3.005600	3.344500	-10.051000	25.786024	2.037437E-5	20.832200
1994.511408	-2.986800	3.343900	-9.986600	25.771866	1.981346E-5	20.839789
1995.509492	-2.990000	3.343600	-9.996800	25.795174	1.945052E-5	20.835228
1996.511192	-2.985800	3.344700	-9.985800	25.795251	1.875762E-5	20.847159
1997.508655	-3.003800	3.343300	-10.042000	25.798432	1.839468E-5	20.833759
1998.517368	-3.031000	3.342100	-10.128000	25.783454	1.872463E-5	20.836257
1999.512902	-3.009800	3.342400	-10.059000	25.795258	1.674493E-5	20.804492
2000.512389	-2.994000	3.343800	-10.009000	25.784678	1.786676E-5	20.814254
2001.513739	-2.995700	3.342700	-10.013000	25.796081	1.545813E-5	20.822863
2002.510387	-3.013200	3.341200	-10.067000	25.814469	1.674493E-5	20.817151
2003.521165	-2.992400	3.341800	-9.999100	25.802150	1.361041E-5	20.815208
2004.515524	-3.001200	3.341300	-10.026000	25.803742	1.592006E-5	20.822023
2005.513229	-3.010700	3.340600	-10.056000	25.820960	1.641498E-5	20.819404
2006.509837	-2.990100	3.340700	-9.988400	25.813657	1.595305E-5	20.824397
2007.514914	-2.994000	3.340500	-10.001000	25.819078	1.387437E-5	20.819885
2008.511624	-2.995900	3.341200	-10.008000	25.810131	1.483122E-5	20.823225
2009.509437	-3.039600	3.338100	-10.145000	25.855697	1.370940E-5	20.824902
2010.514223	-2.999500	3.339200	-10.015000	25.827426	1.073985E-5	20.819736
2011.510188	-2.989000	3.339000	-9.979500	25.808700	1.509518E-5	20.823684
2012.511211	-3.001200	3.338400	-10.019000	25.827186	1.262056E-5	20.837986
2013.516199	-2.994200	3.337800	-9.993700	25.832899	1.080584E-5	20.829501
2014.510462	-2.999900	3.337100	-10.010000	25.815009	9.980969E-6	20.818642
2015.510895	-2.973300	3.337600	-9.923100	25.844524	1.004696E-5	20.806565
2016.513782	-2.994900	3.336400	-9.991300	25.836006	1.007995E-5	20.816501
2017.511718	-2.987400	3.337300	-9.968900	25.853569	1.057488E-5	20.792892
2018.512055	-2.988900	3.336100	-9.970700	25.846190	7.869293E-6	20.836213
2019.513193	-3.004600	3.336100	-10.023000	25.844101	7.044419E-6	20.805192
2020.513098	-2.984500	3.336200	-9.955700	25.863904	9.189090E-6	20.806119
2021.511597	-2.998300	3.336100	-10.002000	25.852794	8.265232E-6	20.821986
2022.513763	-3.009400	3.335100	-10.035000	25.845270	8.265232E-6	20.805893
2023.511143	-3.004000	3.334300	-10.015000	25.857391	7.440358E-6	20.801948
2024.512067	-2.991400	3.334600	-9.974100	25.853840	5.361677E-6	20.825881
2025.512611	-2.994100	3.333400	-9.979700	25.836052	5.097718E-6	20.791417
2026.511944	-3.022900	3.333400	-10.076000	25.855651	6.648480E-6	20.805890
2027.513031	-2.998600	3.333100	-9.993400	25.842160	3.085027E-6	20.814149
2028.516957	-2.997300	3.334100	-9.992200	25.851826	5.658632E-6	20.803469
2029.513962	-3.012600	3.333100	-10.041000	25.869265	2.293148E-6	20.809134
2030.514376	-3.022500	3.332200	-10.071000	25.863900	4.140865E-6	20.817021
2031.518776	-3.002200	3.331800	-10.002000	25.859751	1.765229E-6	20.807638
2032.518388	-3.032700	3.331900	-10.104000	25.878924	3.348986E-6	20.815044
2033.513670	-3.017000	3.331400	-10.049000	25.890653	1.336295E-6	20.790791
2034.517363	-3.026400	3.331200	-10.081000	25.883299	1.534265E-6	20.801421
2035.515297	-3.024300	3.330900	-10.073000	25.870903	1.831219E-6	20.774270
2036.515354	-3.017100	3.330300	-10.047000	25.878927	3.134519E-7	20.804616
2037.516022	-2.987800	3.331000	-9.951300	25.875080	1.171320E-6	20.798381
2038.518428	-3.011600	3.330300	-10.028000	25.867899	3.794418E-7	20.796856
2039.517351	-3.003400	3.328500	-9.995500	25.868025	-1.534265E-6	20.824958
2040.520002	-2.967300	3.330600	-9.880900	25.863031	-2.293148E-6	20.811406
2041.518797	-3.002400	3.329300	-9.995000	25.870212	-2.557108E-6	20.796810
2042.518331	-3.016700	3.327900	-10.038000	25.885440	-2.227158E-6	20.799778
2043.516643	-3.004400	3.329100	-10.001000	25.889490	-3.480966E-6	20.804796
2044.520424	-2.998100	3.328100	-9.976800	25.883410	-3.315991E-6	20.804852
2045.518878	-2.996400	3.328400	-9.972700	25.879137	-5.097718E-6	20.797715
2046.518037	-2.987300	3.328200	-9.940800	25.893642	-5.823607E-6	20.801855
2047.522816	-3.000500	3.326900	-9.981600	25.884181	-9.090106E-6	20.797566
2048.519249	-3.038400	3.325900	-10.105000	25.875614	-4.734774E-6	20.801762
2049.522803	-2.998800	3.327200	-9.976900	25.879094	-6.450511E-6	20.763532
2050.525593	-2.998700	3.326200	-9.973400	25.893676	-8.166248E-6	20.804734
2051.522269	-3.004600	3.326500	-9.994100	25.906997	-8.859141E-6	20.790141
2052.522401	-3.031000	3.324700	-10.076000	25.899519	-7.044420E-6	20.789741
2053.525419	-3.012300	3.325100	-10.015000	25.914675	-6.780460E-6	20.783630
2054.527563	-2.997300	3.326400	-9.969200	25.895105	-8.694167E-6	20.776297
2055.522709	-2.985800	3.324500	-9.925500	25.927147	-7.275384E-6	20.785728
2056.525621	-3.013500	3.325000	-10.018000	25.903777	-7.077414E-6	20.776948
2057.523324	-3.002800	3.324400	-9.982300	25.907408	-9.750005E-6	20.790553
2058.522518	-2.986800	3.324000	-9.926900	25.919833	-1.235660E-5	20.784544
2059.526831	-3.014500	3.324300	-10.019000	25.907907	-1.021193E-5	20.785365
2060.526295	-3.005000	3.323200	-9.985100	25.925127	-1.027792E-5	20.788440
2061.522925	-2.991600	3.322900	-9.939800	25.924112	-1.017894E-5	20.782205
2062.525422	-3.008000	3.322200	-9.992200	25.896219	-1.255457E-5	20.785477
2063.531326	-2.997900	3.322200	-9.958600	25.925710	-1.314848E-5	20.794716
2064.526575	-2.997200	3.322000	-9.955100	25.906137	-1.248858E-5	20.772682
2065.534672	-3.020700	3.320700	-10.030000	25.924745	-1.377539E-5	20.770512
2066.526965	-3.018800	3.320500	-10.023000	25.937664	-1.469925E-5	20.782543
2067.530443	-2.990200	3.320900	-9.929300	25.926914	-1.314848E-5	20.764156
2068.534785	-2.967900	3.321000	-9.854100	25.937026	-1.403935E-5	20.773841
2069.530369	-2.977300	3.320800	-9.886200	25.950368	-1.440229E-5	20.768752
2070.528263	-2.983500	3.320300	-9.905600	25.949226	-1.562310E-5	20.779934
2071.535967	-2.993600	3.320500	-9.939100	25.946722	-1.578808E-5	20.780737
2072.527304	-2.990000	3.319000	-9.923200	25.958253	-1.592006E-5	20.763872
2073.528534	-2.992100	3.319300	-9.931200	25.950951	-1.625001E-5	20.759855
2074.546082	-2.988100	3.319100	-9.916700	25.968491	-1.595305E-5	20.778425
2075.532096	-2.994000	3.318700	-9.935100	25.952969	-1.641498E-5	20.769469
2076.533103	-3.014300	3.316800	-9.996800	25.938912	-1.984646E-5	20.767675
2077.533831	-2.990200	3.318200	-9.920900	25.958713	-2.034138E-5	20.766231
2078.534272	-2.999800	3.317900	-9.952100	25.960801	-1.888960E-5	20.767381
2079.531553	-2.984300	3.317800	-9.899100	25.961178	-2.070433E-5	20.763017
2080.536614	-3.003000	3.316300	-9.956800	25.962449	-2.057235E-5	20.785158
2081.531267	-3.010400	3.314900	-9.978100	25.953334	-2.050636E-5	20.764146
2082.532574	-3.012200	3.316200	-9.988500	25.966450	-2.047336E-5	20.756460
2083.538732	-2.992100	3.315400	-9.919200	25.946609	-2.278301E-5	20.773512
2084.540178	-2.984000	3.316100	-9.894700	25.952622	-1.987945E-5	20.766275
2085.543012	-2.995500	3.314400	-9.927400	25.972197	-2.020940E-5	20.770769
2086.538567	-3.000900	3.315600	-9.948600	25.984746	-2.265103E-5	20.771997
2087.534770	-2.996100	3.314700	-9.930200	25.973521	-2.364088E-5	20.767832
2088.534997	-3.006100	3.314200	-9.962000	26.000894	-2.238707E-5	20.761193
2089.539511	-2.990500	3.314600	-9.911500	25.975711	-2.235407E-5	20.750591
2090.535670	-3.002000	3.313500	-9.945100	25.987217	-2.529062E-5	20.731805
2091.535670	-3.009400	3.313500	-9.970700	25.991338	-2.519164E-5	20.752541
2092.539802	-3.022200	3.312300	-10.009000	25.992631	-2.588453E-5	20.754788
2093.542832	-2.999000	3.311900	-9.931300	25.976637	-2.205712E-5	20.762428
2094.544186	-2.971800	3.312700	-9.843700	25.988263	-2.235407E-5	20.765573
2095.540041	-2.977000	3.312400	-9.860000	25.990626	-2.760027E-5	20.739497
2096.542880	-3.012700	3.312200	-9.977200	26.005951	-2.647844E-5	20.749204
2097.543926	-2.995500	3.311800	-9.918800	26.011740	-2.957997E-5	20.765453
2098.546503	-2.999400	3.311300	-9.931400	25.972674	-2.868910E-5	20.732841
2099.537797	-3.000900	3.310300	-9.932200	26.003967	-2.819418E-5	20.762385
2100.538345	-3.014600	3.310100	-9.977400	26.003418	-2.901905E-5	20.749979
2101.543924	-2.993500	3.310600	-9.907900	26.011293	-2.892007E-5	20.729914
2102.543839	-3.011800	3.309200	-9.965800	26.020534	-2.921702E-5	20.756744
2103.540706	-3.025300	3.307700	-10.006000	26.021450	-2.928301E-5	20.776157
2104.540160	-3.017200	3.308500	-9.981700	26.022074	-2.717133E-5	20.759239
2105.543365	-3.015100	3.309100	-9.976700	26.014297	-2.938200E-5	20.734356
2106.540393	-2.986700	3.308700	-9.881400	26.019763	-2.783123E-5	20.752650
2107.540722	-2.999300	3.307800	-9.920000	26.025747	-3.159266E-5	20.729263
2108.539961	-2.978000	3.308000	-9.849800	26.039581	-3.271449E-5	20.722299
2109.543602	-2.988100	3.307900	-9.883900	26.028449	-3.304443E-5	20.737194
2110.540833	-2.992700	3.306000	-9.892800	26.034784	-3.182362E-5	20.733602
2111.542695	-2.990500	3.306200	-9.886000	26.036718	-3.443022E-5	20.734597
2112.551943	-2.995800	3.305700	-9.902600	26.038902	-3.307743E-5	20.741058
2113.541583	-3.006200	3.305900	-9.937800	26.042579	-3.311042E-5	20.731002
2114.546730	-3.007000	3.305800	-9.940000	26.006708	-3.353936E-5	20.734317
2115.541142	-3.000600	3.305500	-9.917700	26.029065	-3.416626E-5	20.729752
2116.543253	-3.003900	3.304900	-9.926100	26.051862	-3.532109E-5	20.735114
2117.540596	-2.979400	3.305600	-9.848000	26.057797	-3.495814E-5	20.751508
2118.543858	-3.020500	3.304400	-9.979800	26.051933	-3.535408E-5	20.741823
2119.547639	-3.001900	3.304000	-9.917600	26.048651	-3.575002E-5	20.739000
2120.544291	-3.008800	3.302900	-9.936100	26.070035	-3.640992E-5	20.747209
2121.551411	-3.006600	3.303600	-9.931800	26.046587	-3.822464E-5	20.736926
2122.541996	-2.986800	3.303000	-9.864600	26.061685	-3.657489E-5	20.730284
2123.543350	-3.007800	3.302800	-9.933800	26.074800	-3.802667E-5	20.732082
2124.541672	-3.022800	3.301400	-9.978500	26.076086	-3.749875E-5	20.744280
2125.545308	-3.009600	3.301800	-9.936800	26.079266	-3.845561E-5	20.733724
2126.542793	-2.984800	3.302400	-9.855900	26.076607	-3.891753E-5	20.707344
2127.543136	-3.007700	3.299800	-9.923300	26.073720	-3.871957E-5	20.746170
2128.547884	-3.004400	3.300800	-9.916800	26.063088	-3.944545E-5	20.746393
2129.543926	-2.978400	3.301700	-9.832200	26.070484	-4.017134E-5	20.744816
2130.545199	-3.012200	3.299700	-9.938400	26.072622	-4.023733E-5	20.738428
2131.546072	-2.992400	3.299200	-9.871800	26.102274	-4.102921E-5	20.736454
2132.544734	-2.996500	3.299100	-9.883400	26.078352	-3.957743E-5	20.730909
2133.543491	-2.985100	3.297700	-9.842700	26.082371	-4.330586E-5	20.721670
2134.547591	-2.977700	3.299400	-9.822800	26.090738	-4.175510E-5	20.748097
2135.543727	-2.993900	3.297800	-9.871800	26.080054	-4.073226E-5	20.731671
2136.544229	-3.013500	3.298100	-9.937300	26.090535	-4.518657E-5	20.732244
2137.547218	-3.012200	3.297200	-9.931300	26.099322	-4.528556E-5	20.733961
2138.545334	-2.987100	3.297900	-9.849800	26.103171	-4.310789E-5	20.745416
2139.547438	-3.013800	3.296100	-9.932900	26.098196	-4.719927E-5	20.734726
2140.549425	-2.995300	3.297100	-9.875300	26.110462	-4.389977E-5	20.731404
2141.553629	-2.993300	3.296700	-9.867100	26.120245	-4.637439E-5	20.747399
2142.548886	-2.995200	3.295500	-9.869600	26.112617	-4.581348E-5	20.726931
2143.550654	-2.988200	3.296200	-9.849300	26.122379	-4.657236E-5	20.748595
2144.548869	-2.995000	3.294900	-9.867300	26.127215	-4.667135E-5	20.730694
2145.550435	-3.024300	3.293600	-9.959300	26.140101	-4.789216E-5	20.729417
2146.553955	-3.007800	3.292900	-9.903200	26.128726	-4.809013E-5	20.737902
2147.550794	-3.015000	3.294100	-9.930400	26.147250	-4.911297E-5	20.762206
2148.554261	-2.993200	3.293000	-9.855800	26.135249	-4.921196E-5	20.749199
2149.553759	-2.997300	3.293800	-9.871000	26.151364	-4.921196E-5	20.733148
2150.554111	-2.987800	3.293100	-9.837600	26.134499	-4.967389E-5	20.739436
2151.557232	-2.997800	3.292600	-9.869500	26.160079	-4.983886E-5	20.748545
2152.556657	-3.018900	3.292500	-9.938800	26.150117	-5.300638E-5	20.742802
2153.555306	-3.005800	3.291100	-9.891500	26.156221	-5.274242E-5	20.734235
2154.555407	-2.985400	3.290700	-9.822400	26.174300	-5.138963E-5	20.743394
2155.556775	-3.001500	3.290400	-9.875500	26.172434	-5.267643E-5	20.739148
2156.558401	-2.997600	3.290800	-9.863300	26.176699	-5.393024E-5	20.748650
2157.556314	-2.993300	3.289700	-9.845600	26.160881	-5.432618E-5	20.744608
2158.556654	-2.979000	3.290900	-9.803000	26.155934	-5.409521E-5	20.733473
2159.558162	-2.974200	3.289200	-9.781800	26.186281	-5.501907E-5	20.750218
2160.558011	-2.997900	3.290700	-9.864500	26.178429	-5.366628E-5	20.742327
2161.560310	-2.994700	3.289300	-9.848600	26.180937	-5.680080E-5	20.742476
2162.558438	-3.010100	3.288700	-9.897700	26.175919	-5.551399E-5	20.744546
2163.558181	-3.009100	3.288000	-9.893200	26.188659	-5.693278E-5	20.750710
2164.561284	-3.012900	3.288500	-9.907400	26.176832	-5.765867E-5	20.749731
2165.558676	-2.990900	3.287800	-9.831800	26.175465	-5.795562E-5	20.743616
2166.559771	-3.010800	3.286800	-9.895000	26.195179	-5.881349E-5	20.731656
2167.560422	-3.005500	3.286200	-9.875700	26.197760	-5.732872E-5	20.747527
2168.560476	-3.025200	3.285400	-9.938500	26.192693	-5.722973E-5	20.740065
2169.560387	-2.987600	3.285300	-9.814300	26.210821	-5.864851E-5	20.757333
2170.561551	-2.994900	3.285900	-9.839600	26.217127	-6.138710E-5	20.730953
2171.562042	-3.023100	3.285700	-9.932500	26.232741	-5.963836E-5	20.751860
2172.561451	-3.013800	3.284000	-9.896000	26.214858	-6.118913E-5	20.755700
2173.562015	-3.001900	3.284800	-9.859500	26.238351	-6.135410E-5	20.752282
2174.562839	-2.990000	3.285800	-9.823400	26.239563	-6.280588E-5	20.754922
2175.564798	-3.015700	3.284000	-9.902700	26.237500	-6.349877E-5	20.779876
2176.564499	-2.995900	3.283700	-9.836600	26.229525	-6.508253E-5	20.763724
2177.568317	-3.012500	3.282700	-9.887200	26.243378	-6.396070E-5	20.750670
2178.565402	-3.015000	3.282700	-9.895500	26.235283	-6.689725E-5	20.762001
2179.568119	-3.007300	3.282500	-9.870900	26.255544	-6.653431E-5	20.752015
2180.564663	-3.003300	3.281800	-9.854600	26.262171	-6.570943E-5	20.752985
2181.565294	-3.002500	3.281500	-9.851800	26.231600	-6.854700E-5	20.778689
2182.574526	-3.004800	3.281200	-9.858700	26.247840	-6.844802E-5	20.745696
2183.567338	-3.020500	3.280700	-9.908500	26.243344	-7.029573E-5	20.741652
2184.567553	-2.987300	3.280000	-9.797600	26.246200	-7.022974E-5	20.761592
2185.568546	-2.988500	3.280000	-9.801500	26.272320	-6.966883E-5	20.759391
2186.568454	-3.012400	3.278400	-9.875300	26.255658	-7.075766E-5	20.774416
2187.566954	-2.990700	3.280300	-9.809400	26.277760	-7.055969E-5	20.763436
2188.569133	-3.002100	3.278300	-9.840200	26.256376	-7.148355E-5	20.746688
2189.567507	-3.005500	3.279200	-9.854500	26.265267	-7.217644E-5	20.797349
2190.567293	-2.991500	3.279400	-9.809500	26.273316	-7.296832E-5	20.767505
2191.569122	-2.992600	3.278400	-9.809800	26.280319	-7.428812E-5	20.775017
2192.566497	-2.997600	3.277800	-9.824100	26.285111	-7.468406E-5	20.778411
2193.569695	-3.003500	3.276200	-9.839800	26.298100	-7.540995E-5	20.779610
2194.566036	-3.011500	3.277400	-9.869400	26.277612	-7.402416E-5	20.757597
2195.566968	-2.998400	3.276100	-9.821400	26.294301	-7.603685E-5	20.754929
2196.573411	-3.005500	3.276100	-9.845600	26.314616	-7.498102E-5	20.754956
2197.568175	-2.996600	3.274900	-9.812800	26.308779	-7.531097E-5	20.762366
2198.566975	-3.001000	3.275200	-9.828100	26.301184	-7.636680E-5	20.769907
2199.570450	-3.000800	3.276300	-9.830700	26.301085	-7.745564E-5	20.757479
2200.567528	-2.988400	3.274300	-9.784100	26.296691	-7.910539E-5	20.763020
2201.571632	-3.001700	3.275200	-9.830700	26.307246	-7.920437E-5	20.763197
2202.568506	-2.982200	3.272900	-9.760100	26.328231	-7.762061E-5	20.770536
2203.570493	-2.990200	3.273900	-9.788000	26.320262	-7.913838E-5	20.763950
2204.572870	-3.017200	3.272400	-9.872500	26.319347	-7.884143E-5	20.772987
2205.578119	-2.982200	3.272300	-9.758100	26.313932	-8.088711E-5	20.755217
2206.571318	-2.975400	3.274300	-9.740700	26.337204	-8.118407E-5	20.753001
2207.571915	-3.012300	3.272500	-9.856900	26.325412	-8.065615E-5	20.773393
2208.571810	-3.001300	3.272200	-9.819800	26.327299	-8.260285E-5	20.776238
2209.571402	-3.020500	3.271000	-9.879700	26.329883	-8.233889E-5	20.763187
2210.575695	-2.998800	3.269800	-9.804600	26.342125	-8.270184E-5	20.761266
2211.570766	-3.009500	3.270500	-9.841400	26.357870	-8.326275E-5	20.784203
2212.572006	-3.000300	3.270000	-9.809600	26.365446	-8.214092E-5	20.770006
2213.573344	-3.003300	3.269500	-9.818600	26.343547	-8.346072E-5	20.768859
2214.579267	-3.027700	3.268400	-9.894800	26.359791	-8.379067E-5	20.785185
2215.571556	-3.005600	3.268000	-9.821800	26.359143	-8.184397E-5	20.778370
2216.573433	-3.000100	3.269500	-9.806900	26.361900	-8.415361E-5	20.747475
2217.570683	-3.005700	3.268100	-9.822200	26.367639	-8.421960E-5	20.771735
2218.571662	-3.014200	3.267900	-9.848500	26.351250	-8.755209E-5	20.784187
2219.574066	-2.986400	3.267400	-9.756700	26.377820	-8.276783E-5	20.775330
2220.571341	-3.012300	3.266400	-9.838200	26.381123	-8.382366E-5	20.769166
2221.571302	-3.011800	3.267400	-9.839600	26.377148	-8.629829E-5	20.777973
2222.575586	-3.011700	3.265100	-9.832900	26.387478	-8.692519E-5	20.765596
2223.572048	-3.029000	3.264900	-9.887300	26.388125	-8.600133E-5	20.770988
2224.574204	-3.021100	3.264500	-9.861100	26.374022	-8.672722E-5	20.759658
2225.577403	-3.007200	3.265000	-9.817000	26.403142	-8.771707E-5	20.768062
2226.574277	-3.009100	3.263800	-9.820600	26.406546	-8.840996E-5	20.787131
2227.575259	-2.981800	3.265200	-9.735500	26.385514	-8.639727E-5	20.766941
2228.578105	-2.980400	3.264500	-9.727400	26.394027	-8.788204E-5	20.766488
2229.577262	-3.021900	3.262000	-9.856300	26.396734	-9.038966E-5	20.785331
2230.574923	-2.980400	3.263500	-9.725100	26.391243	-9.062063E-5	20.766535
2231.579854	-2.993100	3.262300	-9.763700	26.413169	-8.804702E-5	20.771502
2232.577430	-2.976600	3.263100	-9.711500	26.399682	-8.877291E-5	20.771224
2233.576840	-3.009700	3.261500	-9.815000	26.398538	-9.164347E-5	20.776238
2234.581342	-3.002200	3.260600	-9.787300	26.406506	-9.137951E-5	20.755796
2235.578066	-2.984800	3.261000	-9.732100	26.420979	-9.012570E-5	20.785042
2236.578298	-3.020800	3.259900	-9.846800	26.413977	-9.029068E-5	20.774685
2237.583075	-3.005900	3.259900	-9.798200	26.421747	-9.035667E-5	20.789607
2238.579575	-3.016200	3.258600	-9.826400	26.412929	-9.197342E-5	20.779322
2239.579414	-3.006200	3.259300	-9.797500	26.421195	-9.365616E-5	20.784785
2240.584702	-2.998500	3.258800	-9.770100	26.449846	-9.359017E-5	20.770908
2241.582207	-3.003500	3.258800	-9.786400	26.426533	-9.616378E-5	20.783512
2242.581231	-3.000400	3.258200	-9.775200	26.431469	-9.530591E-5	20.790844
2243.586895	-3.014600	3.255500	-9.813300	26.448131	-9.134651E-5	20.790522
2244.584105	-2.998600	3.257300	-9.766600	26.440059	-9.392012E-5	20.779563
2245.585175	-3.007800	3.255900	-9.792100	26.449244	-9.533890E-5	20.796856
2246.588305	-3.012900	3.256100	-9.809400	26.457486	-9.520692E-5	20.772897
2247.583096	-2.999300	3.255900	-9.764100	26.463918	-9.520692E-5	20.785526
2248.585214	-2.970900	3.256100	-9.672600	26.482488	-9.659271E-5	20.781432
2249.587274	-3.011700	3.254700	-9.800900	26.478862	-9.662571E-5	20.796280
2250.586667	-3.000900	3.254500	-9.765100	26.474860	-9.725261E-5	20.793680
2251.585957	-3.005600	3.253500	-9.777900	26.489138	-9.606479E-5	20.773418
2252.590904	-2.992200	3.254000	-9.736300	26.471287	-9.817647E-5	20.800045
2253.585742	-3.011200	3.253500	-9.795400	26.462669	-0.000100	20.797547
2254.583763	-3.032700	3.251600	-9.860600	26.490927	-9.708764E-5	20.776638
2255.589815	-3.038800	3.251600	-9.879300	26.482426	-9.972723E-5	20.796069
2256.585058	-3.004400	3.252300	-9.770600	26.485904	-9.873739E-5	20.783918
2257.584837	-3.010300	3.251800	-9.787000	26.504298	-9.837444E-5	20.779647
2258.588535	-3.012200	3.251100	-9.792300	26.476861	-0.000100	20.805174
2259.588230	-2.992100	3.251000	-9.726600	26.466533	-0.000101	20.788154
2260.587263	-2.961800	3.251500	-9.629500	26.500371	-9.900134E-5	20.805097
2261.590783	-2.982300	3.251100	-9.694900	26.484181	-9.962825E-5	20.805893
2262.589412	-3.007000	3.249700	-9.771300	26.490909	-9.992520E-5	20.816449
2263.587655	-3.014500	3.248900	-9.792400	26.531945	-0.000100	20.794161
2264.589880	-3.023200	3.249000	-9.822000	26.503044	-0.000100	20.789292
2265.590202	-2.976600	3.248800	-9.669500	26.500534	-0.000101	20.803839
2266.590900	-3.004800	3.248200	-9.759300	26.525082	-0.000100	20.804806
2267.597274	-3.003000	3.247900	-9.752200	26.518629	-0.000101	20.797371
2268.591012	-3.018200	3.246400	-9.797400	26.526399	-0.000100	20.789534
2269.590032	-2.994500	3.247600	-9.724200	26.552262	-0.000100	20.811265
2270.595082	-2.980100	3.247600	-9.676800	26.538207	-0.000101	20.816576
2271.589884	-3.022900	3.245500	-9.809700	26.532843	-0.000103	20.803124
2272.590088	-2.988300	3.245300	-9.697000	26.552849	-0.000104	20.810905
2273.596379	-2.983900	3.244900	-9.681200	26.561761	-0.000102	20.803269
2274.593368	-2.998400	3.243400	-9.723900	26.575441	-0.000104	20.817020
2275.593728	-2.991800	3.244300	-9.704900	26.550413	-0.000104	20.801345
2276.599711	-2.993300	3.243600	-9.707900	26.566522	-0.000106	20.812796
2277.593957	-2.991800	3.243300	-9.702500	26.582337	-0.000105	20.819211
2278.594312	-3.007100	3.243300	-9.751300	26.561805	-0.000107	20.799520
2279.602884	-2.989000	3.242700	-9.691400	26.580571	-0.000108	20.824073
2280.595534	-3.000600	3.241500	-9.724900	26.574982	-0.000107	20.816559
2281.595924	-2.992600	3.241500	-9.699100	26.578160	-0.000106	20.812641
2282.596253	-3.012300	3.240400	-9.760400	26.580667	-0.000108	20.816583
2283.597402	-3.009800	3.240400	-9.752100	26.594093	-0.000108	20.827709
2284.602616	-3.007400	3.239400	-9.741400	26.583642	-0.000107	20.808669
2285.597216	-3.007800	3.239900	-9.743200	26.586275	-0.000107	20.828384
2286.597070	-3.008000	3.240700	-9.747400	26.577461	-0.000109	20.810042
2287.599835	-3.012300	3.239200	-9.755700	26.597521	-0.000110	20.815034
2288.596658	-3.021400	3.238600	-9.783300	26.613657	-0.000109	20.815133
2289.597284	-3.004400	3.238000	-9.727300	26.611893	-0.000109	20.822369
2290.603823	-3.018000	3.236400	-9.766800	26.593476	-0.000109	20.817606
2291.597827	-2.989700	3.238300	-9.680500	26.627933	-0.000111	20.810993
2292.600275	-2.985100	3.236900	-9.660800	26.625572	-0.000110	20.820947
2293.604154	-3.013600	3.235400	-9.749300	26.598067	-0.000113	20.835496
2294.602375	-3.010100	3.235400	-9.737900	26.606760	-0.000111	20.839494
2295.600230	-3.005100	3.235200	-9.722100	26.645757	-0.000112	20.842661
2296.602802	-3.004500	3.235500	-9.720800	26.617433	-0.000112	20.827464
2297.599684	-3.004100	3.234800	-9.716300	26.630787	-0.000113	20.842785
2298.600761	-2.991100	3.234200	-9.672800	26.613265	-0.000112	20.836076
2299.603820	-3.019200	3.233900	-9.762200	26.621234	-0.000111	20.832707
2300.602719	-2.990500	3.232200	-9.664600	26.646580	-0.000113	20.828316
2301.602005	-3.003900	3.232800	-9.709700	26.615500	-0.000114	20.850176
2302.610001	-3.014700	3.232800	-9.744200	26.631068	-0.000112	20.831213
2303.604889	-3.011800	3.231800	-9.732800	26.623996	-0.000112	20.840225
2304.605592	-3.011900	3.230900	-9.730500	26.642615	-0.000112	20.838555
2305.608771	-2.991200	3.231100	-9.663700	26.626776	-0.000113	20.827374
2306.605921	-3.007400	3.230200	-9.713900	26.626505	-0.000112	20.829946
2307.607363	-3.002400	3.229600	-9.694500	26.664761	-0.000114	20.831895
2308.608711	-3.007100	3.229700	-9.711300	26.638818	-0.000113	20.829047
2309.607548	-2.991300	3.229200	-9.658700	26.664487	-0.000113	20.825455
2310.609723	-3.027200	3.227200	-9.768800	26.656518	-0.000113	20.822660
2311.609309	-2.999200	3.228200	-9.681500	26.660218	-0.000116	20.825430
2312.607570	-3.014000	3.226100	-9.722100	26.675483	-0.000114	20.847414
2313.610691	-2.992700	3.226800	-9.656500	26.663072	-0.000115	20.835886
2314.610840	-3.007500	3.226600	-9.703800	26.674987	-0.000115	20.820838
2315.609690	-2.989600	3.226600	-9.645700	26.667986	-0.000113	20.852679
2316.611393	-3.002600	3.225400	-9.683300	26.678036	-0.000114	20.840024
2317.611600	-2.999500	3.225400	-9.673100	26.680046	-0.000114	20.834932
2318.610477	-2.976400	3.225800	-9.600700	26.669768	-0.000115	20.844988
2319.611897	-2.981600	3.224200	-9.612500	26.684241	-0.000115	20.826348
2320.615919	-3.002100	3.224000	-9.677900	26.710650	-0.000114	20.846259
2321.614750	-2.988400	3.224200	-9.634300	26.700369	-0.000114	20.845407
2322.612272	-3.001900	3.223100	-9.674800	26.691285	-0.000115	20.831059
2323.612321	-2.991500	3.222600	-9.639200	26.712185	-0.000116	20.859655
2324.612171	-2.998500	3.222500	-9.661900	26.724543	-0.000115	20.841735
2325.614847	-2.996200	3.220900	-9.650000	26.723424	-0.000117	20.862420
2326.615819	-2.995900	3.221600	-9.649600	26.718529	-0.000115	20.845172
2327.614727	-2.987800	3.221000	-9.623300	26.728609	-0.000117	20.853409
2328.614386	-3.002800	3.220400	-9.668400	26.737268	-0.000116	20.867329
2329.617093	-2.988000	3.220500	-9.622900	26.726492	-0.000118	20.845590
2330.613724	-3.014800	3.218100	-9.701200	26.734830	-0.000117	20.846387
2331.613628	-2.992500	3.219500	-9.633000	26.742447	-0.000117	20.860682
2332.617267	-2.980400	3.217900	-9.589300	26.752098	-0.000118	20.852368
2333.618746	-3.005800	3.217800	-9.671300	26.759074	-0.000117	20.863174
2334.617249	-3.016300	3.215800	-9.698700	26.740826	-0.000118	20.859053
2335.619577	-3.003600	3.216000	-9.659100	26.754971	-0.000116	20.873748
2336.617976	-3.009000	3.216600	-9.677300	26.766635	-0.000118	20.857501
2337.616913	-3.004100	3.217200	-9.663900	26.762511	-0.000121	20.869001
2338.620210	-2.992700	3.215700	-9.622500	26.769234	-0.000119	20.864855
2339.618534	-3.014100	3.214700	-9.688800	26.770945	-0.000120	20.873212
2340.621668	-3.024800	3.213700	-9.719700	26.774537	-0.000119	20.869711
2341.618681	-3.015300	3.213500	-9.688800	26.807745	-0.000121	20.869910
2342.618961	-3.024400	3.211600	-9.712000	26.791909	-0.000121	20.876272
2343.619431	-3.033300	3.211700	-9.740600	26.803326	-0.000118	20.864518
2344.621710	-3.014800	3.212600	-9.684100	26.798379	-0.000120	20.873769
2345.621429	-3.027700	3.211100	-9.721200	26.807685	-0.000119	20.868900
2346.623345	-2.998100	3.210500	-9.624600	26.812000	-0.000118	20.874661
2347.619390	-3.002400	3.211400	-9.641100	26.809935	-0.000120	20.864051
2348.618189	-3.001000	3.210700	-9.632800	26.806012	-0.000121	20.859159
2349.627644	-3.025000	3.209200	-9.707200	26.796306	-0.000117	20.875003
2350.619329	-3.001300	3.210300	-9.633900	26.798908	-0.000120	20.898006
2351.619424	-2.981000	3.209200	-9.565500	26.813601	-0.000120	20.896658
2352.621532	-3.027000	3.207600	-9.707200	26.816748	-0.000119	20.872798
2353.621429	-2.988400	3.208300	-9.587100	26.831589	-0.000120	20.893408
2354.621830	-2.991200	3.207100	-9.590600	26.820395	-0.000119	20.899221
2355.623470	-3.008100	3.206800	-9.645600	26.841191	-0.000120	20.882674
2356.622170	-2.991100	3.206200	-9.588300	26.836922	-0.000123	20.884546
2357.620476	-3.001800	3.205700	-9.622400	26.839699	-0.000121	20.901087
2358.629246	-2.996800	3.205600	-9.605200	26.835258	-0.000120	20.885717
2359.621330	-3.005900	3.205000	-9.632700	26.837240	-0.000122	20.883443
2360.623502	-2.999600	3.204200	-9.610200	26.837635	-0.000121	20.889529
2361.629221	-2.995900	3.204000	-9.597600	26.865084	-0.000122	20.880620
2362.623090	-3.000400	3.203100	-9.609800	26.854959	-0.000123	20.885612
2363.631483	-3.005500	3.202900	-9.625400	26.860868	-0.000122	20.874959
2364.628206	-2.996100	3.202400	-9.593700	26.833141	-0.000121	20.897813
2365.626068	-2.998900	3.203200	-9.603400	26.874836	-0.000121	20.889003
2366.628055	-3.002700	3.200900	-9.610800	26.878831	-0.000123	20.909139
2367.623279	-3.029000	3.199800	-9.690900	26.884563	-0.000121	20.893093
2368.623698	-3.007900	3.200000	-9.624200	26.895757	-0.000121	20.919045
2369.631652	-2.993400	3.200700	-9.578900	26.898732	-0.000122	20.886952
2370.625073	-2.973900	3.200600	-9.517100	26.878603	-0.000121	20.893264
2371.628483	-2.990300	3.200100	-9.567500	26.910443	-0.000123	20.892090
2372.625067	-3.002200	3.197900	-9.599900	26.899771	-0.000123	20.908384
2373.626374	-2.978700	3.198600	-9.526500	26.899370	-0.000123	20.901344
2374.628152	-3.005200	3.197100	-9.606900	26.902348	-0.000122	20.902441
2375.629213	-2.992600	3.196900	-9.566800	26.891727	-0.000123	20.915468
2376.628538	-3.023200	3.196800	-9.663100	26.918972	-0.000125	20.886916
2377.625451	-2.991400	3.195600	-9.558100	26.912519	-0.000122	20.912667
2378.627654	-3.019600	3.195000	-9.646300	26.931602	-0.000123	20.916683
2379.629519	-3.005200	3.194200	-9.598000	26.939742	-0.000125	20.936719
2380.629761	-3.000000	3.194400	-9.581600	26.914303	-0.000123	20.892652
2381.629391	-3.020400	3.193600	-9.644500	26.944827	-0.000123	20.895844
2382.627500	-2.993100	3.193500	-9.557800	26.963759	-0.000124	20.925311
2383.626611	-3.019700	3.191800	-9.637400	26.938818	-0.000125	20.904974
2384.628995	-2.995300	3.192300	-9.560800	26.957799	-0.000125	20.913629
2385.627709	-2.986600	3.192400	-9.534100	26.948569	-0.000124	20.919519
2386.628188	-2.997300	3.191400	-9.564300	26.942686	-0.000124	20.914078
2387.631379	-3.002900	3.190200	-9.579700	26.949386	-0.000126	20.915126
2388.626694	-2.990600	3.190200	-9.539200	26.918909	-0.000125	20.909610
2389.629272	-2.988700	3.190000	-9.532900	26.919578	-0.000124	20.915972
2390.630845	-2.989900	3.189400	-9.534900	26.960727	-0.000124	20.933640
2391.626617	-2.989400	3.187300	-9.527200	26.948912	-0.000126	20.908011
2392.626685	-2.967300	3.188100	-9.459500	26.960401	-0.000124	20.921460
2393.629370	-3.011900	3.185900	-9.595200	26.969039	-0.000127	20.914026
2394.630979	-3.003500	3.185500	-9.566700	26.968241	-0.000124	20.928869
2395.630555	-2.987800	3.186300	-9.518900	26.975415	-0.000125	20.930393
2396.632652	-3.003000	3.185700	-9.566500	26.972981	-0.000125	20.926524
2397.629866	-3.039800	3.183800	-9.676800	26.976852	-0.000127	20.913822
2398.632193	-2.982300	3.184300	-9.494900	26.992433	-0.000125	20.907207
2399.634551	-2.973000	3.185400	-9.468200	27.011740	-0.000126	20.916190
2400.636273	-2.980500	3.184600	-9.490700	27.003352	-0.000126	20.926719
2401.631549	-2.996700	3.182000	-9.534400	26.999081	-0.000126	20.922425
2402.634474	-3.009800	3.182700	-9.578400	27.021362	-0.000126	20.919702
2403.633153	-3.017100	3.182200	-9.600000	27.003892	-0.000125	20.911617
2404.635669	-3.017600	3.180000	-9.594600	27.007861	-0.000126	20.911341
2405.638394	-2.971400	3.182000	-9.453900	27.000540	-0.000125	20.910616
2406.634716	-3.006000	3.180100	-9.558800	27.012352	-0.000124	20.897366
2407.633315	-2.993200	3.179900	-9.516100	27.007086	-0.000126	20.915777
2408.634376	-3.010800	3.179200	-9.571500	27.020164	-0.000126	20.927031
2409.636133	-3.009200	3.177700	-9.561900	27.018624	-0.000126	20.894191
2410.635730	-3.003400	3.177600	-9.542200	27.044479	-0.000124	20.911182
2411.634939	-3.024100	3.177300	-9.606400	27.038917	-0.000127	20.898003
2412.635266	-2.985600	3.177000	-9.484200	27.044674	-0.000124	20.899525
2413.635496	-3.010900	3.175800	-9.560100	27.021667	-0.000123	20.896302
2414.636774	-2.985900	3.175600	-9.481600	27.046480	-0.000125	20.881428
2415.635829	-2.998200	3.174200	-9.515700	27.050471	-0.000125	20.886864
2416.637177	-2.981400	3.176200	-9.468300	27.058758	-0.000126	20.898042
2417.636308	-3.006600	3.173500	-9.540900	27.049276	-0.000127	20.902731
2418.638061	-3.000000	3.174300	-9.522400	27.044263	-0.000126	20.876354
2419.636946	-3.004300	3.170900	-9.526100	27.026988	-0.000126	20.876525
2420.639861	-2.988600	3.172300	-9.480300	27.039321	-0.000127	20.876599
2421.635367	-2.990200	3.170800	-9.480300	27.042840	-0.000127	20.869234
2422.640107	-2.996000	3.171000	-9.500000	27.056535	-0.000128	20.906237
2423.635469	-2.986900	3.170200	-9.468600	27.049658	-0.000125	20.891262
2424.636601	-2.987500	3.171100	-9.472000	27.052783	-0.000128	20.874491
2425.642445	-3.012900	3.168700	-9.546200	27.069307	-0.000127	20.895849
2426.638001	-2.999200	3.168400	-9.501600	27.046325	-0.000129	20.895970
2427.639327	-2.992800	3.169300	-9.483700	27.053844	-0.000127	20.897368
2428.642491	-2.991400	3.167300	-9.473400	27.070565	-0.000129	20.893795
2429.638150	-3.010300	3.166500	-9.531000	27.075228	-0.000127	20.877623
2430.638944	-2.997800	3.166200	-9.490400	27.061333	-0.000126	20.902528
2431.640501	-2.994200	3.164900	-9.475800	27.098823	-0.000128	20.894714
2432.639064	-3.007600	3.165300	-9.518500	27.072270	-0.000128	20.877494
2433.640947	-3.034800	3.165100	-9.604300	27.088944	-0.000129	20.892365
2434.638668	-3.011400	3.163800	-9.527200	27.078024	-0.000128	20.873324
2435.641151	-3.009700	3.163800	-9.521100	27.106484	-0.000130	20.873497
2436.640399	-3.020300	3.162400	-9.550100	27.122018	-0.000127	20.891489
2437.641831	-3.018700	3.162600	-9.545400	27.088144	-0.000129	20.874967
2438.644604	-2.989900	3.161300	-9.449900	27.099832	-0.000128	20.878660
2439.644763	-3.005200	3.160200	-9.495900	27.101767	-0.000127	20.887244
2440.645176	-3.011300	3.160100	-9.515200	27.093303	-0.000130	20.872569
2441.644122	-2.996400	3.161300	-9.470800	27.111344	-0.000128	20.867480
2442.646791	-3.004300	3.159200	-9.490200	27.122509	-0.000128	20.876337
2443.647895	-3.031700	3.157700	-9.572200	27.118762	-0.000130	20.881577
2444.645125	-2.996800	3.158000	-9.463500	27.139577	-0.000129	20.895872
2445.647675	-2.995300	3.156100	-9.452800	27.124937	-0.000129	20.877831
2446.647585	-3.009100	3.155800	-9.495300	27.139377	-0.000128	20.899938
2447.645315	-3.002700	3.155500	-9.473500	27.119379	-0.000130	20.880775
2448.646317	-2.995100	3.155700	-9.451400	27.122926	-0.000129	20.877704
2449.652153	-2.984900	3.154500	-9.414800	27.133322	-0.000128	20.868721
2450.650747	-2.993100	3.153600	-9.438600	27.131683	-0.000129	20.871814
2451.649073	-3.007000	3.152600	-9.479200	27.130913	-0.000129	20.877203
2452.652876	-2.991700	3.151800	-9.428400	27.152128	-0.000128	20.878625
2453.649222	-2.991500	3.151200	-9.425100	27.148159	-0.000128	20.860884
2454.649621	-3.027300	3.150800	-9.537300	27.162052	-0.000129	20.872012
2455.655224	-2.991000	3.150700	-9.422800	27.160934	-0.000129	20.867095
2456.649507	-2.983500	3.151500	-9.401400	27.179840	-0.000128	20.874730
2457.649273	-3.020000	3.148400	-9.507600	27.170883	-0.000129	20.874256
2458.651564	-3.005900	3.149300	-9.465700	27.172347	-0.000128	20.865772
2459.649454	-2.981400	3.149100	-9.387800	27.186983	-0.000128	20.874802
2460.649991	-3.002000	3.147200	-9.447400	27.173189	-0.000130	20.872308
2461.648997	-3.017900	3.145600	-9.492700	27.182094	-0.000128	20.875574
2462.651608	-2.997400	3.146400	-9.429500	27.177829	-0.000128	20.874130
2463.652417	-2.985600	3.144500	-9.387400	27.200528	-0.000129	20.853814
2464.650865	-3.032700	3.143700	-9.532100	27.181077	-0.000129	20.845156
2465.650960	-3.020100	3.143000	-9.491100	27.210305	-0.000128	20.853216
2466.648903	-2.982600	3.143200	-9.374100	27.221418	-0.000127	20.871032
2467.655843	-2.956800	3.143200	-9.292100	27.206731	-0.000129	20.872854
2468.651535	-3.013400	3.141300	-9.464900	27.213454	-0.000128	20.852116
2469.653262	-2.999400	3.139500	-9.415800	27.228857	-0.000128	20.832997
2470.653029	-2.985900	3.140900	-9.378000	27.246745	-0.000128	20.843403
2471.653147	-3.003000	3.138300	-9.423300	27.225258	-0.000130	20.876790
2472.653547	-2.984600	3.139000	-9.367800	27.223472	-0.000129	20.845597
2473.652079	-2.998700	3.138100	-9.409900	27.234585	-0.000128	20.848715
2474.649760	-2.992100	3.141200	-9.397400	27.229970	-0.000127	20.869202
2475.650219	-3.018400	3.136000	-9.465000	27.241404	-0.000126	20.844195
2476.654544	-2.995000	3.137900	-9.396600	27.242520	-0.000130	20.835834
2477.651720	-2.998100	3.135900	-9.401400	27.237633	-0.000128	20.860789
2478.652365	-2.997800	3.133600	-9.392900	27.270655	-0.000130	20.869822
2479.654736	-3.000500	3.133300	-9.400500	27.253757	-0.000130	20.853774
2480.652671	-2.994400	3.132800	-9.380200	27.260652	-0.000130	20.858813
2481.655844	-3.011500	3.132200	-9.432200	27.240953	-0.000130	20.848482
2482.654697	-3.010700	3.130600	-9.424200	27.273700	-0.000130	20.846334
2483.652203	-2.997500	3.131300	-9.385200	27.257599	-0.000130	20.855268
2484.652123	-3.004200	3.130100	-9.401700	27.269581	-0.000131	20.860208
2485.653880	-3.013300	3.128100	-9.425100	27.278162	-0.000130	20.844184
2486.653718	-3.010400	3.129600	-9.420800	27.274443	-0.000130	20.855616
2487.655075	-3.005600	3.128700	-9.403100	27.281314	-0.000132	20.863949
2488.655226	-2.996200	3.127800	-9.370900	27.280993	-0.000131	20.880221
2489.654004	-3.024100	3.125200	-9.449900	27.287666	-0.000130	20.854218
2490.663555	-3.005200	3.126700	-9.395600	27.271913	-0.000132	20.837899
2491.655332	-2.991800	3.127000	-9.354700	27.282533	-0.000131	20.850477
2492.655260	-3.013000	3.124900	-9.414800	27.293498	-0.000130	20.845386
2493.656655	-3.007700	3.122600	-9.390800	27.286279	-0.000134	20.848082
2494.655747	-3.025700	3.124700	-9.453000	27.301785	-0.000131	20.827170
2495.654317	-3.006700	3.121500	-9.384500	27.275040	-0.000130	20.851001
2496.656379	-3.027400	3.119600	-9.442600	27.277624	-0.000132	20.833212
2497.656741	-3.003100	3.119700	-9.368000	27.271919	-0.000131	20.818464
2498.655234	-2.991400	3.119200	-9.329200	27.292336	-0.000131	20.837579
2499.655664	-2.992300	3.118100	-9.329300	27.284424	-0.000132	20.844319
2500.661676	-2.975700	3.117500	-9.276000	27.304098	-0.000131	20.835660
2501.657063	-3.026000	3.116100	-9.428800	27.288940	-0.000132	20.846965
2502.658319	-3.014300	3.114800	-9.388200	27.289589	-0.000133	20.849514
2503.658926	-2.997000	3.115400	-9.336400	27.296709	-0.000132	20.846245
2504.656897	-3.014100	3.115400	-9.388700	27.304451	-0.000131	20.838386
2505.657492	-2.993700	3.112700	-9.317800	27.291154	-0.000131	20.843028
2506.659567	-3.011600	3.111400	-9.369300	27.310134	-0.000132	20.838413
2507.660342	-2.983900	3.112500	-9.286900	27.340203	-0.000132	20.830254
2508.660094	-3.001100	3.113900	-9.344400	27.322417	-0.000132	20.843656
2509.661122	-2.999900	3.109400	-9.327100	27.330035	-0.000132	20.841363
2510.661814	-3.009700	3.111200	-9.363300	27.340306	-0.000132	20.836048
2511.658100	-3.035900	3.108500	-9.436100	27.362684	-0.000132	20.832481
2512.662174	-2.996000	3.108700	-9.313200	27.331131	-0.000132	20.831086
2513.659471	-2.987800	3.107700	-9.283900	27.339070	-0.000133	20.813468
2514.661125	-2.989400	3.105500	-9.282900	27.348848	-0.000131	20.822355
2515.662621	-2.991900	3.104600	-9.287600	27.357357	-0.000131	20.837552
2516.663843	-2.985400	3.103700	-9.265000	27.354284	-0.000131	20.824031
2517.664561	-3.004100	3.103900	-9.323800	27.347439	-0.000133	20.810981
2518.666928	-3.008700	3.101500	-9.330400	27.360960	-0.000134	20.835961
2519.666767	-3.008800	3.100900	-9.328600	27.362771	-0.000133	20.823559
2520.664501	-3.004700	3.099500	-9.311600	27.347543	-0.000133	20.820094
2521.666158	-3.015900	3.100900	-9.351400	27.348436	-0.000133	20.821941
2522.665332	-3.006200	3.098300	-9.313700	27.360025	-0.000133	20.800882
2523.663915	-2.995200	3.099800	-9.283600	27.367443	-0.000132	20.819724
2524.665418	-3.009700	3.096100	-9.317700	27.367443	-0.000132	20.816405
2525.663733	-2.987100	3.096300	-9.247900	27.371391	-0.000132	20.817532
2526.667401	-3.016700	3.093600	-9.330600	27.351792	-0.000132	20.838119
2527.667837	-3.020400	3.091700	-9.337100	27.374052	-0.000132	20.813097
2528.665340	-3.009200	3.093500	-9.307400	27.367629	-0.000133	20.815170
2529.666754	-3.007800	3.091900	-9.299500	27.379412	-0.000132	20.823230
2530.670210	-2.989600	3.090300	-9.238200	27.372966	-0.000133	20.807737
2531.665706	-3.003400	3.089100	-9.276800	27.385248	-0.000134	20.792592
2532.670368	-3.008900	3.088500	-9.292600	27.399788	-0.000132	20.814331
2533.667742	-3.009800	3.088500	-9.294600	27.385103	-0.000133	20.821369
2534.669405	-3.005300	3.086700	-9.274600	27.399119	-0.000133	20.821719
2535.666059	-2.993400	3.085100	-9.234400	27.395677	-0.000132	20.820627
2536.673302	-2.976600	3.084800	-9.181200	27.414010	-0.000132	20.802086
2537.667130	-3.005300	3.082800	-9.263500	27.391663	-0.000133	20.801416
2538.666538	-2.995300	3.081900	-9.229600	27.408186	-0.000134	20.820409
2539.670436	-3.006200	3.081700	-9.262200	27.419476	-0.000133	20.813275
2540.668164	-3.007200	3.080500	-9.261900	27.411590	-0.000133	20.800599
2541.667471	-3.005200	3.079000	-9.252500	27.415437	-0.000134	20.821065
2542.668704	-3.018800	3.077000	-9.287700	27.427844	-0.000132	20.819323
2543.667777	-2.997400	3.077200	-9.222200	27.407950	-0.000135	20.817801
2544.666698	-2.988000	3.076400	-9.191000	27.440350	-0.000134	20.802981
2545.669382	-3.027100	3.073900	-9.303900	27.427877	-0.000136	20.784268
2546.667675	-3.005400	3.074600	-9.239800	27.440605	-0.000133	20.816039
2547.669296	-2.995100	3.071700	-9.198800	27.425156	-0.000134	20.799549
2548.669511	-3.005700	3.071800	-9.230700	27.445173	-0.000131	20.793608
2549.668347	-2.983600	3.071400	-9.162700	27.450335	-0.000133	20.799750
2550.669294	-2.994700	3.069300	-9.190700	27.425359	-0.000132	20.807813
2551.669554	-3.036300	3.066800	-9.310400	27.436796	-0.000131	20.801776
2552.670330	-2.995800	3.067200	-9.188300	27.443249	-0.000133	20.788354
2553.669075	-3.003200	3.066100	-9.207500	27.443326	-0.000133	20.783689
2554.673622	-2.986000	3.066000	-9.153500	27.451313	-0.000134	20.787932
2555.670747	-3.011400	3.063300	-9.224100	27.482991	-0.000132	20.782344
2556.671414	-3.004100	3.062300	-9.198300	27.473223	-0.000132	20.798595
2557.672708	-3.017700	3.061200	-9.237500	27.462731	-0.000131	20.797522
2558.673553	-2.991500	3.059700	-9.152300	27.479353	-0.000132	20.784847
2559.670562	-3.004400	3.058700	-9.188400	27.459909	-0.000133	20.788045
2560.674540	-2.966000	3.059100	-9.072100	27.471245	-0.000134	20.809406
2561.671895	-2.997500	3.056500	-9.161600	27.468146	-0.000134	20.783055
2562.676196	-2.992800	3.055300	-9.143000	27.481224	-0.000133	20.783411
2563.673893	-3.000000	3.053000	-9.158400	27.480084	-0.000131	20.805498
2564.672448	-3.009700	3.050600	-9.180300	27.473188	-0.000133	20.780541
2565.674148	-3.009700	3.051900	-9.183600	27.493258	-0.000132	20.781294
2566.673622	-3.010300	3.050500	-9.182300	27.475747	-0.000133	20.774581
2567.676951	-2.974400	3.049100	-9.068700	27.477188	-0.000135	20.792152
2568.675669	-2.997800	3.046900	-9.132600	27.493387	-0.000132	20.777156
2569.674619	-2.984600	3.046300	-9.091000	27.490313	-0.000133	20.779278
2570.674483	-2.965100	3.046000	-9.031000	27.498848	-0.000134	20.773641
2571.680216	-3.000100	3.043400	-9.129300	27.509693	-0.000133	20.765586
2572.678253	-2.996000	3.043700	-9.117200	27.510088	-0.000134	20.786372
2573.678570	-3.008200	3.041500	-9.148100	27.523982	-0.000134	20.789445
2574.676973	-3.006500	3.039400	-9.136900	27.520064	-0.000133	20.776020
2575.676746	-2.971500	3.040000	-9.032500	27.503868	-0.000134	20.773002
2576.679371	-2.985500	3.037500	-9.067600	27.526297	-0.000132	20.778025
2577.676261	-3.018100	3.034500	-9.157200	27.501816	-0.000133	20.766669
2578.681308	-3.018900	3.034500	-9.159100	27.501221	-0.000132	20.764649
2579.678118	-3.005600	3.034700	-9.120000	27.524267	-0.000133	20.744213
2580.684011	-2.999000	3.033100	-9.094500	27.515688	-0.000132	20.770670
2581.680926	-3.001200	3.031000	-9.095700	27.495599	-0.000134	20.781278
2582.678782	-2.996500	3.029600	-9.076000	27.502446	-0.000133	20.762562
2583.677599	-2.961100	3.030500	-8.972000	27.497240	-0.000133	20.752108
2584.677446	-2.977700	3.028000	-9.015500	27.510340	-0.000133	20.780936
2585.676408	-2.981000	3.026700	-9.020900	27.526117	-0.000134	20.768360
2586.683047	-3.004400	3.023900	-9.084700	27.523142	-0.000132	20.751615
2587.679792	-3.013400	3.022900	-9.108600	27.523813	-0.000132	20.750868
2588.678421	-3.002800	3.021900	-9.073600	27.516127	-0.000130	20.779646
2589.677610	-2.978700	3.021800	-9.000200	27.522775	-0.000132	20.759307
2590.687408	-3.006500	3.019500	-9.077000	27.529252	-0.000133	20.753496
2591.678010	-3.000600	3.017500	-9.053600	27.521364	-0.000132	20.741291
2592.678498	-3.003800	3.015800	-9.058100	27.545028	-0.000131	20.752773
2593.682057	-2.978600	3.015300	-8.979100	27.539275	-0.000131	20.759787
2594.683375	-2.991100	3.014900	-9.016400	27.540069	-0.000133	20.748732
2595.688646	-2.994300	3.013000	-9.021400	27.536844	-0.000132	20.768721
2596.681046	-3.011700	3.010100	-9.064000	27.542278	-0.000132	20.772292
2597.680991	-3.023500	3.009300	-9.097300	27.545453	-0.000132	20.747511
2598.680199	-3.056100	3.006600	-9.186700	27.558571	-0.000132	20.746959
2599.681019	-3.021800	3.006400	-9.084000	27.550862	-0.000131	20.743469
2600.679719	-2.989300	3.005800	-8.984300	27.562246	-0.000132	20.756821
2601.682642	-3.024200	3.004200	-9.084500	27.549048	-0.000132	20.747334
2602.684992	-3.016000	3.002400	-9.054400	27.572512	-0.000130	20.733484
2603.682253	-3.018900	3.001700	-9.060900	27.562465	-0.000131	20.739022
2604.685606	-3.009100	3.000500	-9.027700	27.564448	-0.000132	20.740544
2605.684102	-3.012000	2.998400	-9.029800	27.577769	-0.000131	20.727868
2606.683064	-3.005000	2.998200	-9.008100	27.594260	-0.000132	20.767696
2607.680824	-3.004800	2.996000	-9.001300	27.601304	-0.000132	20.753920
2608.684315	-2.976400	2.994200	-8.910000	27.601304	-0.000129	20.758188
2609.680389	-3.039300	2.990900	-9.090100	27.594981	-0.000132	20.743764
2610.683465	-2.984500	2.991900	-8.929000	27.589569	-0.000132	20.729784
2611.690224	-2.979600	2.990800	-8.909800	27.616257	-0.000129	20.746681
2612.680931	-2.997800	2.988900	-8.959300	27.620273	-0.000131	20.738868
2613.682847	-3.024100	2.986400	-9.029200	27.625405	-0.000132	20.737867
2614.693481	-2.971300	2.986600	-8.872500	27.629347	-0.000131	20.736144
2615.682137	-3.020700	2.983400	-9.011200	27.638769	-0.000133	20.746573
2616.683208	-2.978500	2.984800	-8.888500	27.625350	-0.000133	20.751563
2617.685662	-2.986800	2.981600	-8.903800	27.630533	-0.000133	20.756304
2618.681027	-2.990300	2.979800	-8.908600	27.625273	-0.000132	20.753382
2619.688522	-3.026500	2.977600	-9.010100	27.625646	-0.000130	20.741903
2620.683371	-3.009700	2.976600	-8.958100	27.665844	-0.000133	20.753429
2621.684795	-2.999800	2.975900	-8.926300	27.670457	-0.000132	20.746691
2622.686796	-3.023800	2.974100	-8.992200	27.657833	-0.000133	20.741574
2623.688807	-2.987100	2.972600	-8.878500	27.673482	-0.000132	20.772021
2624.688671	-2.993800	2.971700	-8.896000	27.692502	-0.000131	20.763185
2625.688218	-2.996400	2.969800	-8.898000	27.667627	-0.000135	20.750956
2626.696430	-3.012600	2.968700	-8.942400	27.662217	-0.000133	20.747408
2627.690051	-3.004100	2.966400	-8.910300	27.649297	-0.000134	20.739622
2628.689551	-2.995300	2.965900	-8.882900	27.648206	-0.000133	20.747060
2629.697624	-2.997200	2.963200	-8.880300	27.659934	-0.000132	20.767871
2630.690742	-3.006900	2.962400	-8.906500	27.666482	-0.000134	20.773038
2631.691526	-3.018300	2.960700	-8.934200	27.669531	-0.000131	20.767571
2632.696222	-2.969100	2.959500	-8.786000	27.655743	-0.000134	20.750851
2633.689392	-3.001400	2.958300	-8.878300	27.659241	-0.000133	20.763855
2634.691674	-3.022500	2.956700	-8.935100	27.661893	-0.000132	20.746608
2635.694581	-3.003200	2.955100	-8.873300	27.674123	-0.000133	20.752751
2636.691645	-2.995900	2.953500	-8.847300	27.676624	-0.000131	20.763802
2637.693717	-2.994600	2.950900	-8.836100	27.670378	-0.000132	20.763207
2638.694094	-2.980900	2.950600	-8.794100	27.676205	-0.000133	20.751052
2639.692762	-3.015000	2.946700	-8.883700	27.700756	-0.000131	20.751102
2640.693315	-3.013000	2.945500	-8.874000	27.688609	-0.000131	20.737930
2641.703305	-2.996000	2.946000	-8.826100	27.704476	-0.000133	20.757217
2642.695411	-2.995500	2.944000	-8.817600	27.716382	-0.000131	20.749282
2643.693521	-3.013100	2.941700	-8.862600	27.709613	-0.000131	20.765705
2644.706625	-3.037800	2.939900	-8.929700	27.719382	-0.000133	20.760836
2645.694998	-3.010400	2.938600	-8.845800	27.730044	-0.000132	20.760186
2646.696430	-3.033900	2.936100	-8.906400	27.726104	-0.000131	20.750531
2647.699270	-3.002100	2.934400	-8.807800	27.733366	-0.000131	20.764952
2648.697627	-2.974300	2.933100	-8.722700	27.736566	-0.000132	20.757266
2649.696008	-3.009700	2.931400	-8.821900	27.733465	-0.000132	20.752249
2650.699667	-2.986300	2.930300	-8.749600	27.745244	-0.000133	20.763629
2651.696090	-3.015400	2.927700	-8.826400	27.721710	-0.000131	20.771240
2652.699852	-3.025300	2.925900	-8.850800	27.723644	-0.000131	20.767971
2653.699011	-3.013200	2.924900	-8.812200	27.725378	-0.000130	20.743636
2654.695529	-2.995800	2.923100	-8.755900	27.730115	-0.000130	20.765473
2655.698537	-2.969700	2.922700	-8.678700	27.718779	-0.000131	20.768765
2656.698246	-2.972600	2.920200	-8.679900	27.737056	-0.000132	20.770088
2657.699236	-2.989900	2.918300	-8.724400	27.747121	-0.000131	20.763620
2658.699169	-2.977200	2.917200	-8.683800	27.737401	-0.000133	20.779918
2659.697427	-3.006800	2.914800	-8.763500	27.772142	-0.000133	20.754661
2660.696261	-3.002300	2.914200	-8.748800	27.754583	-0.000129	20.757379
2661.699339	-3.003500	2.911300	-8.742900	27.776305	-0.000131	20.767386
2662.698525	-3.011800	2.910100	-8.763600	27.786123	-0.000132	20.772999
2663.698818	-2.979800	2.908900	-8.667300	27.778113	-0.000132	20.749765
2664.700146	-2.998900	2.906300	-8.715100	27.786293	-0.000131	20.754677
2665.699615	-2.970200	2.905800	-8.629600	27.767317	-0.000132	20.760237
2666.703972	-3.013600	2.902500	-8.746000	27.797523	-0.000131	20.764557
2667.702534	-2.995700	2.900500	-8.687600	27.792634	-0.000131	20.776706
2668.700816	-2.999300	2.898600	-8.692700	27.790623	-0.000131	20.769941
2669.699782	-2.982100	2.897800	-8.640600	27.799846	-0.000133	20.758360
2670.701422	-3.006200	2.895100	-8.701400	27.805820	-0.000131	20.762950
2671.698386	-3.002700	2.894600	-8.690300	27.814200	-0.000130	20.777073
2672.700080	-3.012200	2.891700	-8.709300	27.822086	-0.000130	20.784061
2673.700652	-3.001400	2.889800	-8.672600	27.822653	-0.000129	20.783684
2674.697481	-2.995400	2.887300	-8.647800	27.813624	-0.000130	20.764640
2675.697738	-2.995600	2.885700	-8.643100	27.814936	-0.000131	20.774495
2676.700342	-2.992500	2.885100	-8.632800	27.825893	-0.000130	20.771298
2677.702703	-3.000100	2.882300	-8.645900	27.837249	-0.000130	20.814969
2678.700902	-2.995000	2.879700	-8.623800	27.841164	-0.000129	20.786192
2679.703450	-3.017600	2.876800	-8.679900	27.842530	-0.000131	20.788990
2680.701114	-3.011200	2.875100	-8.656700	27.850907	-0.000131	20.776557
2681.701872	-2.990300	2.874000	-8.593600	27.866801	-0.000133	20.785917
2682.700763	-2.977600	2.873400	-8.554400	27.876917	-0.000132	20.779976
2683.704991	-2.982200	2.870400	-8.559000	27.876520	-0.000133	20.782895
2684.704186	-3.016700	2.867400	-8.648900	27.890552	-0.000133	20.790380
2685.704746	-3.000800	2.866200	-8.600400	27.901562	-0.000134	20.807626
2686.699981	-3.006800	2.864000	-8.609500	27.892685	-0.000133	20.783044
2687.702616	-2.941100	2.864200	-8.422600	27.898262	-0.000134	20.789131
2688.706382	-2.993000	2.860400	-8.559800	27.912077	-0.000135	20.805881
2689.702835	-3.005800	2.857000	-8.587100	27.912521	-0.000132	20.786413
2690.706499	-2.990200	2.855900	-8.538900	27.923630	-0.000134	20.789533
2691.699859	-3.007500	2.852700	-8.578700	27.942772	-0.000135	20.794575
2692.704730	-3.006600	2.850600	-8.569700	27.909201	-0.000134	20.790658
2693.708390	-2.997500	2.849400	-8.540500	27.941235	-0.000132	20.780701
2694.705669	-3.013800	2.848000	-8.581700	27.931814	-0.000134	20.799193
2695.702673	-2.993100	2.845100	-8.514900	27.958419	-0.000133	20.809850
2696.707819	-2.983700	2.842700	-8.480600	27.939803	-0.000133	20.788742
2697.706621	-3.033700	2.840200	-8.614300	27.939953	-0.000135	20.801222
2698.707538	-3.005200	2.837700	-8.526400	27.958498	-0.000135	20.797128
2699.705669	-2.974300	2.837600	-8.438900	27.942583	-0.000134	20.805765
2700.704632	-3.010100	2.834000	-8.530200	27.944716	-0.000134	20.794162
2701.705970	-2.974700	2.832900	-8.426000	27.959323	-0.000133	20.789897
2702.706520	-2.998300	2.829400	-8.482700	27.984985	-0.000133	20.805296
2703.707490	-2.989500	2.827400	-8.451700	27.981813	-0.000135	20.775077
2704.706744	-2.993600	2.826100	-8.459500	27.983550	-0.000135	20.795791
2705.708884	-3.009600	2.822000	-8.492500	27.973436	-0.000135	20.807896
2706.705416	-3.000200	2.820100	-8.460000	27.961089	-0.000133	20.806848
2707.707755	-3.016000	2.817800	-8.497800	27.946091	-0.000135	20.796020
2708.710366	-3.014800	2.816200	-8.489700	27.971012	-0.000136	20.800241
2709.706713	-2.998600	2.812100	-8.431100	27.958887	-0.000135	20.801313
2710.710200	-3.016900	2.809800	-8.476100	27.990602	-0.000134	20.806209
2711.708843	-3.013800	2.808100	-8.462000	27.977837	-0.000134	20.787196
2712.707725	-2.990700	2.805400	-8.389300	27.994075	-0.000134	20.812075
2713.710039	-2.977700	2.803000	-8.345400	28.005137	-0.000133	20.792390
2714.710975	-2.976700	2.801100	-8.336700	28.016562	-0.000134	20.797252
2715.720988	-3.029000	2.798000	-8.473800	28.025145	-0.000133	20.816323
2716.711721	-2.991400	2.795500	-8.361600	28.044612	-0.000133	20.796089
2717.708189	-2.995400	2.793300	-8.365900	28.027260	-0.000136	20.801856
2718.711013	-2.992300	2.790400	-8.348900	28.036631	-0.000135	20.821247
2719.713240	-3.021500	2.787200	-8.421000	28.065888	-0.000136	20.797118
2720.713560	-2.982800	2.784900	-8.306500	28.060386	-0.000133	20.826666
2721.714527	-3.028300	2.781800	-8.423600	28.070056	-0.000133	20.803684
2722.712702	-2.993000	2.780000	-8.319900	28.046282	-0.000135	20.818634
2723.715632	-3.010200	2.776000	-8.355000	28.071447	-0.000133	20.824051
2724.712522	-2.981500	2.775200	-8.272400	28.059178	-0.000133	20.809330
2725.718066	-2.985900	2.772300	-8.277400	28.067161	-0.000135	20.813573
2726.716666	-2.999600	2.768500	-8.303400	28.109802	-0.000134	20.804341
2727.716855	-2.995300	2.765500	-8.282400	28.088461	-0.000135	20.810358
2728.718706	-2.979400	2.763000	-8.231300	28.102918	-0.000135	20.814006
2729.719514	-2.981300	2.760500	-8.228600	28.107505	-0.000134	20.804399
2730.719205	-2.994200	2.757600	-8.255200	28.095656	-0.000134	20.821394
2731.714866	-3.006100	2.753500	-8.276000	28.109915	-0.000135	20.804928
2732.722010	-3.011000	2.752100	-8.284900	28.124987	-0.000135	20.814885
2733.718323	-2.990700	2.747400	-8.216000	28.109794	-0.000133	20.818557
2734.715410	-3.004600	2.744600	-8.245300	28.134090	-0.000134	20.798445
2735.720953	-3.017600	2.740900	-8.269800	28.128961	-0.000136	20.816989
2736.720883	-2.983300	2.738900	-8.170400	28.133005	-0.000134	20.819638
2737.723713	-2.973600	2.735800	-8.133900	28.144112	-0.000132	20.816595
2738.724016	-2.993600	2.733400	-8.181100	28.145925	-0.000132	20.816523
2739.725714	-2.986600	2.728200	-8.146800	28.172550	-0.000136	20.812981
2740.721254	-2.968500	2.725200	-8.089300	28.178401	-0.000135	20.832148
2741.726545	-3.005900	2.722300	-8.181700	28.178801	-0.000135	20.807421
2742.722239	-3.011900	2.718000	-8.185900	28.174492	-0.000133	20.820626
2743.723746	-2.998400	2.714800	-8.139700	28.197298	-0.000134	20.817508
2744.725859	-3.008400	2.709800	-8.151500	28.155359	-0.000136	20.824598
2745.724058	-3.014400	2.706500	-8.157400	28.201318	-0.000135	20.818710
2746.725821	-3.009900	2.703200	-8.135700	28.198594	-0.000135	20.829718
2747.728894	-3.023600	2.699100	-8.159500	28.189744	-0.000136	20.831713
2748.728890	-2.974100	2.696300	-8.018800	28.203008	-0.000134	20.823730
2749.728104	-3.011700	2.690000	-8.101200	28.186601	-0.000134	20.809109
2750.730382	-2.992500	2.687000	-8.040300	28.192181	-0.000135	20.830848
2751.727541	-3.001000	2.681900	-8.047500	28.197879	-0.000134	20.826628
2752.728802	-2.987100	2.679100	-8.001500	28.212510	-0.000134	20.814331
2753.731142	-3.008800	2.674100	-8.045200	28.209807	-0.000134	20.827731
2754.733556	-2.986900	2.670200	-7.974200	28.226765	-0.000133	20.834372
2755.729176	-3.008200	2.665700	-8.017900	28.229295	-0.000133	20.835496
2756.729458	-2.974400	2.662200	-7.917800	28.261842	-0.000134	20.846454
2757.731745	-3.039300	2.654600	-8.066800	28.267247	-0.000137	20.824396
2758.732680	-2.994400	2.652200	-7.940000	28.271664	-0.000133	20.828843
2759.730653	-3.000600	2.647000	-7.942000	28.294170	-0.000134	20.837278
2760.729482	-2.972000	2.644100	-7.856800	28.291249	-0.000134	20.833863
2761.729194	-2.980100	2.636900	-7.858000	28.300843	-0.000133	20.817918
2762.727222	-2.983500	2.632700	-7.853300	28.326993	-0.000134	20.825756
2763.729403	-2.987000	2.626800	-7.844600	28.347069	-0.000135	20.835065
2764.729518	-2.988200	2.621900	-7.833900	28.345066	-0.000133	20.820720
2765.732947	-2.982900	2.616900	-7.805100	28.337833	-0.000134	20.823394
2766.727560	-2.997500	2.611400	-7.825700	28.351541	-0.000132	20.848576
2767.733000	-3.000500	2.604900	-7.814800	28.357416	-0.000133	20.836000
2768.733924	-3.005500	2.600200	-7.814000	28.371842	-0.000133	20.835827
2769.728795	-2.995200	2.594400	-7.770200	28.389840	-0.000133	20.828346
2770.729445	-3.011800	2.589300	-7.797200	28.393832	-0.000133	20.844218
2771.731005	-2.997500	2.584100	-7.744900	28.410783	-0.000133	20.839951
2772.729477	-2.997500	2.578300	-7.727600	28.415788	-0.000131	20.841197
2773.730787	-3.003500	2.572400	-7.724900	28.420625	-0.000131	20.842275
2774.734122	-2.972200	2.566000	-7.625500	28.448754	-0.000133	20.832194
2775.730456	-2.957700	2.561100	-7.574400	28.450641	-0.000134	20.833620
2776.730490	-2.997700	2.554100	-7.655500	28.458199	-0.000134	20.837912
2777.732488	-2.998500	2.546200	-7.633800	28.468456	-0.000132	20.851086
2778.727717	-3.011500	2.540700	-7.650400	28.461298	-0.000134	20.844826
2779.731229	-2.982800	2.535900	-7.563200	28.468979	-0.000131	20.827905
2780.734379	-3.026300	2.528100	-7.649900	28.472598	-0.000133	20.828705
2781.736133	-3.000700	2.522400	-7.568300	28.475599	-0.000134	20.845476
2782.731361	-2.993400	2.516000	-7.530900	28.477211	-0.000133	20.850419
2783.735299	-3.000400	2.508700	-7.526200	28.491506	-0.000131	20.838736
2784.736032	-2.971500	2.503500	-7.438300	28.499612	-0.000131	20.866812
2785.733283	-3.011400	2.494300	-7.510400	28.496220	-0.000131	20.835423
