LabVIEW Measurement	
Writer_Version	2
Reader_Version	2
Separator	Tab
Decimal_Separator	.
Multi_Headings	No
X_Columns	One
Time_Pref	Absolute
Operator	admin
Description	Clolumns are: time, Current, Voltage, Power, Battery Temp, and Chamber Temp
Date	2024/08/16
Time	13:59:35.9411449432373046875
***End_of_Header***	
	
Channels	6						
Samples	1	1	1	1	1	1	
Date	2024/09/17	2024/09/17	2024/09/17	2024/09/17	2024/09/17	2024/09/17	
Time	19:06:04.3410558700561523437	19:06:04.3471393585205078125	19:06:04.3525981903076171875	19:06:04.3212199211120605469	19:06:04.3212199211120605469	19:06:04.3212199211120605469	
X_Dimension	Time	Time	Time	Time	Time	Time	
X0	0.0000000000000000E+0	0.0000000000000000E+0	0.0000000000000000E+0	0.0000000000000000E+0	0.0000000000000000E+0	0.0000000000000000E+0	
Delta_X	1.000000	1.000000	1.000000	1.000000	1.000000	1.000000	
***End_of_Header***							
X_Value	Untitled	Untitled 1	Untitled 2	Untitled 3	Untitled 4	Untitled 5	Comment
0.000000	0.006424	4.100300	0.026411	20.836287	0.000396	20.821589
0.999094	-3.002300	3.940100	-11.828000	20.825028	0.000395	20.803692
1.996040	-2.999400	3.931000	-11.790000	20.810906	0.000396	20.818493
3.004067	-3.007900	3.926600	-11.810000	20.827728	0.000395	20.804020
3.996881	-2.983700	3.922600	-11.703000	20.822314	0.000395	20.793391
4.995595	-2.988100	3.918600	-11.708000	20.831418	0.000394	20.795857
6.000524	-2.982700	3.917300	-11.682000	20.826599	0.000393	20.782029
6.997644	-2.996000	3.913300	-11.723000	20.825881	0.000389	20.786526
7.994787	-3.011300	3.910600	-11.774000	20.828726	0.000390	20.794113
9.000929	-2.973300	3.908600	-11.621000	20.827477	0.000391	20.782432
9.997624	-3.034100	3.904700	-11.846000	20.838283	0.000389	20.807937
10.995951	-2.997100	3.904400	-11.701000	20.847440	0.000386	20.790068
12.002689	-2.999900	3.903500	-11.709000	20.854881	0.000388	20.789449
12.996696	-2.981600	3.901600	-11.632000	20.852906	0.000385	20.796009
13.997561	-3.007000	3.900300	-11.727000	20.852234	0.000386	20.791544
15.001080	-3.007900	3.897800	-11.723000	20.852489	0.000385	20.795592
15.998571	-2.997900	3.898500	-11.687000	20.857828	0.000384	20.786232
16.998779	-3.014100	3.896100	-11.742000	20.868110	0.000382	20.804102
17.998253	-3.012700	3.894700	-11.733000	20.873750	0.000382	20.806423
18.997439	-2.996000	3.894400	-11.667000	20.875024	0.000381	20.781144
19.996343	-2.982400	3.894400	-11.612000	20.888274	0.000382	20.775429
21.000689	-3.024100	3.892100	-11.769000	20.886505	0.000381	20.799738
22.002893	-3.013700	3.892200	-11.728000	20.879223	0.000381	20.801939
22.999120	-2.998900	3.891900	-11.670000	20.879273	0.000380	20.795825
24.002764	-3.005700	3.889000	-11.688000	20.901584	0.000379	20.776887
25.000882	-3.008500	3.888700	-11.699000	20.902211	0.000378	20.768030
25.996860	-2.982100	3.888500	-11.595000	20.946323	0.000377	20.788914
27.000289	-3.007000	3.888900	-11.693000	20.899391	0.000375	20.767106
28.001836	-3.003500	3.886600	-11.673000	20.921674	0.000375	20.781331
29.000089	-2.983200	3.886800	-11.593000	20.915489	0.000376	20.778939
30.000888	-3.008100	3.885500	-11.686000	20.932008	0.000375	20.787399
31.000141	-3.002800	3.885500	-11.667000	20.936502	0.000373	20.775772
31.999829	-2.975600	3.885700	-11.562000	20.933710	0.000377	20.783411
33.002312	-3.018700	3.883200	-11.721000	20.942647	0.000375	20.788082
33.999952	-2.994600	3.884500	-11.632000	20.963008	0.000374	20.746331
34.999351	-3.021800	3.882300	-11.731000	20.954025	0.000375	20.773383
36.000972	-3.005000	3.883300	-11.668000	20.980224	0.000372	20.772084
36.999271	-3.003100	3.882000	-11.657000	20.974414	0.000371	20.752523
38.000191	-3.002000	3.881100	-11.650000	20.962314	0.000371	20.764130
39.003832	-3.007200	3.880700	-11.669000	20.992482	0.000370	20.770594
39.998878	-3.023500	3.880800	-11.732000	20.967607	0.000371	20.762785
40.997945	-3.012700	3.880600	-11.690000	21.009227	0.000370	20.762212
41.999743	-3.012900	3.880400	-11.689000	21.000223	0.000369	20.755577
42.999215	-2.993300	3.880600	-11.615000	21.018690	0.000370	20.756029
44.002428	-3.020500	3.879300	-11.716000	21.007861	0.000370	20.770329
45.001609	-2.993000	3.879100	-11.609000	21.007539	0.000369	20.772852
46.008911	-3.014400	3.878000	-11.689000	21.028097	0.000369	20.756903
47.004888	-2.982200	3.878700	-11.566000	21.027276	0.000368	20.778368
48.001928	-3.000000	3.878300	-11.634000	21.028599	0.000369	20.755035
49.002821	-3.033800	3.876500	-11.759000	21.037454	0.000367	20.766737
50.005195	-2.999400	3.877600	-11.630000	21.054623	0.000367	20.761150
51.004586	-2.986300	3.877800	-11.579000	21.039035	0.000367	20.762155
52.004923	-2.988400	3.877300	-11.586000	21.057322	0.000366	20.765746
53.005791	-3.010500	3.876600	-11.669000	21.053607	0.000365	20.777678
54.004740	-3.004900	3.875200	-11.644000	21.076213	0.000366	20.752399
55.001454	-3.012300	3.875700	-11.672000	21.085495	0.000366	20.763580
56.003643	-2.982600	3.875500	-11.557000	21.086818	0.000367	20.752576
57.002809	-3.003700	3.875300	-11.639000	21.091810	0.000366	20.747611
58.003716	-2.984500	3.875300	-11.565000	21.088092	0.000365	20.757643
59.004591	-2.988500	3.875300	-11.580000	21.096801	0.000367	20.757820
60.003442	-3.020900	3.874000	-11.702000	21.121026	0.000365	20.734635
61.003047	-3.009400	3.873900	-11.657000	21.116788	0.000364	20.746517
62.008170	-2.994200	3.873600	-11.598000	21.118561	0.000364	20.744497
63.003744	-3.023100	3.872500	-11.706000	21.120478	0.000364	20.742621
64.006606	-3.013100	3.872400	-11.667000	21.142191	0.000365	20.749642
65.009299	-3.014300	3.872100	-11.671000	21.140319	0.000363	20.741606
66.006052	-3.007700	3.872100	-11.645000	21.149202	0.000363	20.741482
67.005775	-3.021900	3.871700	-11.699000	21.152445	0.000365	20.748046
68.005314	-3.030900	3.871700	-11.733000	21.153220	0.000363	20.747872
69.003194	-2.999400	3.872500	-11.614000	21.192513	0.000364	20.735020
70.008653	-2.997000	3.871700	-11.603000	21.174872	0.000365	20.770480
71.008187	-3.015100	3.871200	-11.671000	21.183860	0.000363	20.734426
72.008076	-2.985600	3.872000	-11.559000	21.190270	0.000363	20.734199
73.005798	-2.984900	3.871600	-11.554000	21.174080	0.000364	20.750721
74.008672	-2.988700	3.872000	-11.571000	21.200793	0.000363	20.750417
75.006365	-3.002600	3.870600	-11.621000	21.190348	0.000361	20.739019
76.008388	-3.019600	3.869900	-11.684000	21.201097	0.000361	20.722745
77.013862	-3.016200	3.870000	-11.672000	21.210751	0.000362	20.752791
78.006732	-3.002900	3.869900	-11.619000	21.212201	0.000363	20.765622
79.008560	-3.008900	3.869800	-11.643000	21.221928	0.000362	20.752593
80.010867	-3.013500	3.869200	-11.659000	21.219360	0.000363	20.735799
81.007730	-3.020400	3.868300	-11.683000	21.243009	0.000361	20.730059
82.007253	-2.991600	3.869700	-11.576000	21.256185	0.000360	20.743240
83.011875	-3.007400	3.869000	-11.634000	21.264515	0.000361	20.719804
84.007443	-2.985900	3.868700	-11.551000	21.260129	0.000361	20.742444
85.007675	-2.998600	3.868300	-11.598000	21.278008	0.000363	20.732830
86.013027	-3.019400	3.867100	-11.676000	21.284099	0.000362	20.739872
87.007563	-2.995700	3.869000	-11.589000	21.296425	0.000361	20.723279
88.008718	-2.975400	3.867400	-11.507000	21.285096	0.000361	20.734705
89.010239	-3.004200	3.867300	-11.617000	21.306099	0.000359	20.745760
90.011323	-2.991600	3.866600	-11.567000	21.289967	0.000362	20.736733
91.009807	-2.993500	3.866100	-11.572000	21.317452	0.000360	20.740997
92.010453	-3.005100	3.867100	-11.620000	21.317901	0.000362	20.741920
93.008471	-2.991200	3.866300	-11.564000	21.321445	0.000363	20.735983
94.011490	-3.008400	3.865600	-11.628000	21.325689	0.000361	20.734539
95.009768	-3.007900	3.866700	-11.629000	21.329007	0.000362	20.732168
96.011060	-2.989700	3.866700	-11.560000	21.335996	0.000361	20.752437
97.009534	-3.007700	3.864300	-11.622000	21.327115	0.000361	20.740232
98.022107	-3.015900	3.864900	-11.655000	21.345846	0.000362	20.760870
99.014765	-2.998300	3.865600	-11.589000	21.352781	0.000362	20.731297
100.010338	-3.004700	3.866800	-11.617000	21.372361	0.000361	20.761319
101.018602	-2.989100	3.865900	-11.555000	21.377701	0.000361	20.738686
102.010090	-3.012600	3.864100	-11.640000	21.378971	0.000363	20.742327
103.009840	-3.005000	3.864000	-11.610000	21.384187	0.000360	20.740434
104.011369	-2.999400	3.864800	-11.591000	21.370048	0.000362	20.729606
105.011213	-3.015400	3.863800	-11.650000	21.395416	0.000361	20.723219
106.011409	-2.988800	3.865000	-11.551000	21.396491	0.000361	20.738046
107.014570	-3.015400	3.864300	-11.651000	21.406468	0.000362	20.736174
108.011191	-3.003500	3.864400	-11.606000	21.420759	0.000361	20.732454
109.013083	-2.992900	3.864500	-11.565000	21.427076	0.000362	20.729765
110.015066	-2.977500	3.863300	-11.502000	21.436129	0.000363	20.734556
111.012582	-2.997900	3.863400	-11.581000	21.457429	0.000362	20.734532
112.019992	-3.004800	3.862500	-11.605000	21.425230	0.000363	20.723176
113.016726	-3.009200	3.862300	-11.621000	21.421891	0.000362	20.715094
114.014059	-2.999300	3.862500	-11.584000	21.448680	0.000363	20.735261
115.015099	-2.994300	3.862100	-11.563000	21.435312	0.000363	20.731842
116.016616	-2.968600	3.863500	-11.467000	21.443669	0.000362	20.747317
117.015055	-2.979600	3.864300	-11.513000	21.481827	0.000364	20.732865
118.015355	-3.019000	3.861200	-11.656000	21.457635	0.000363	20.728573
119.028504	-3.005000	3.862100	-11.605000	21.470252	0.000363	20.728396
120.014792	-2.997700	3.861600	-11.575000	21.507045	0.000366	20.738658
121.015791	-2.999800	3.861700	-11.583000	21.477888	0.000363	20.751209
122.018213	-3.000500	3.861600	-11.585000	21.500237	0.000365	20.725682
123.014775	-2.998600	3.861200	-11.577000	21.492708	0.000363	20.739486
124.020832	-2.997800	3.861000	-11.574000	21.525529	0.000365	20.732971
125.015344	-3.001000	3.860200	-11.584000	21.516649	0.000365	20.734518
126.017987	-2.996500	3.862000	-11.571000	21.517250	0.000366	20.728006
127.023135	-3.010300	3.860600	-11.621000	21.550717	0.000364	20.746322
128.016986	-2.978500	3.860800	-11.499000	21.537750	0.000366	20.744252
129.018369	-2.983300	3.861000	-11.517000	21.538549	0.000365	20.747897
130.020707	-2.997900	3.860600	-11.573000	21.553564	0.000363	20.747749
131.016642	-2.990400	3.859400	-11.540000	21.547856	0.000365	20.739192
132.022831	-3.005000	3.860100	-11.599000	21.559225	0.000367	20.734921
133.021705	-2.988300	3.860800	-11.536000	21.585088	0.000363	20.748000
134.017826	-3.016900	3.859500	-11.642000	21.577733	0.000366	20.735424
135.017189	-2.983700	3.859600	-11.514000	21.572026	0.000364	20.746308
136.028831	-3.028900	3.858600	-11.687000	21.595141	0.000366	20.743361
137.016957	-3.012700	3.858800	-11.624000	21.600006	0.000366	20.737798
138.018766	-3.016600	3.857700	-11.636000	21.595767	0.000366	20.737349
139.022218	-3.014300	3.858900	-11.631000	21.601877	0.000367	20.730186
140.020054	-2.969700	3.859800	-11.461000	21.602825	0.000365	20.750102
141.019805	-2.996400	3.859400	-11.564000	21.622824	0.000365	20.749727
142.019795	-3.002500	3.858000	-11.583000	21.614469	0.000365	20.737571
143.017625	-2.976600	3.859100	-11.486000	21.655641	0.000365	20.727090
144.022449	-2.999400	3.856900	-11.568000	21.637113	0.000366	20.764974
145.019045	-3.000000	3.856900	-11.570000	21.667263	0.000366	20.754369
146.027278	-2.991800	3.857800	-11.541000	21.662974	0.000368	20.741542
147.026323	-2.974400	3.856900	-11.471000	21.666163	0.000369	20.756114
148.023545	-2.999300	3.857700	-11.570000	21.658957	0.000367	20.752696
149.022311	-2.995000	3.856800	-11.550000	21.659930	0.000369	20.742288
150.024078	-3.019200	3.856200	-11.641000	21.698232	0.000369	20.740317
151.020438	-2.996100	3.855200	-11.550000	21.677835	0.000369	20.752147
152.024052	-3.010100	3.856700	-11.608000	21.697186	0.000369	20.751599
153.029864	-3.002700	3.854900	-11.573000	21.710625	0.000367	20.747979
154.024922	-2.984900	3.855900	-11.509000	21.704169	0.000369	20.760010
155.026124	-2.997800	3.855700	-11.558000	21.703646	0.000370	20.734829
156.038278	-3.013700	3.855600	-11.618000	21.723067	0.000370	20.756638
157.030361	-3.007600	3.855700	-11.595000	21.720726	0.000369	20.754295
158.027278	-2.989600	3.856100	-11.528000	21.734890	0.000368	20.771790
159.034658	-3.027000	3.853700	-11.665000	21.744843	0.000369	20.733860
160.026283	-2.997100	3.854600	-11.551000	21.736612	0.000368	20.750753
161.027435	-3.000500	3.855400	-11.566000	21.734692	0.000373	20.752625
162.033670	-3.023200	3.854700	-11.653000	21.747084	0.000369	20.766450
163.029289	-3.012600	3.854400	-11.611000	21.762895	0.000370	20.759514
164.028862	-3.003900	3.855500	-11.580000	21.769404	0.000373	20.759865
165.027475	-2.991100	3.854500	-11.528000	21.782619	0.000371	20.742745
166.029594	-2.998700	3.853900	-11.556000	21.769503	0.000372	20.762335
167.028119	-3.000300	3.853500	-11.561000	21.775492	0.000371	20.770226
168.033164	-2.998200	3.853700	-11.553000	21.784741	0.000371	20.757671
169.030704	-3.007300	3.852700	-11.585000	21.802368	0.000371	20.745916
170.030988	-3.026100	3.851600	-11.654000	21.807505	0.000372	20.765282
171.036757	-3.021300	3.851600	-11.635000	21.817033	0.000372	20.774819
172.033540	-2.988600	3.853600	-11.516000	21.837280	0.000376	20.762367
173.029931	-3.009100	3.852100	-11.590000	21.827784	0.000373	20.778941
174.031919	-2.992800	3.851900	-11.528000	21.827459	0.000372	20.740208
175.032729	-3.007800	3.853700	-11.590000	21.839903	0.000374	20.748871
176.034225	-2.997200	3.852500	-11.546000	21.842696	0.000374	20.744079
177.031762	-3.013000	3.851500	-11.603000	21.841876	0.000374	20.773131
178.035205	-2.973700	3.852100	-11.455000	21.828258	0.000375	20.749069
179.030093	-2.992600	3.852100	-11.527000	21.843495	0.000377	20.766217
180.036776	-2.997100	3.850900	-11.540000	21.861895	0.000376	20.744331
181.032214	-3.004000	3.851300	-11.569000	21.880621	0.000376	20.750746
182.031020	-3.016300	3.850600	-11.614000	21.869874	0.000376	20.755636
183.033357	-2.984900	3.850200	-11.492000	21.875612	0.000377	20.770863
184.034011	-2.988800	3.851000	-11.509000	21.894610	0.000377	20.764748
185.033397	-2.998700	3.851900	-11.550000	21.897480	0.000378	20.755293
186.034694	-2.978400	3.851400	-11.470000	21.890396	0.000379	20.753418
187.034171	-2.995600	3.850300	-11.533000	21.916874	0.000378	20.784189
188.036253	-2.990700	3.850800	-11.514000	21.911592	0.000379	20.786963
189.037773	-2.994600	3.850000	-11.527000	21.917001	0.000378	20.780049
190.039838	-3.006300	3.850000	-11.573000	21.918323	0.000377	20.758612
191.038444	-2.996500	3.849500	-11.534000	21.950710	0.000379	20.773489
192.037753	-3.019000	3.849300	-11.620000	21.931314	0.000378	20.745537
193.037587	-2.986700	3.849300	-11.495000	21.932788	0.000379	20.745591
194.039800	-2.996500	3.849300	-11.534000	21.935178	0.000379	20.771691
195.038801	-2.991900	3.849100	-11.515000	21.945800	0.000379	20.760987
196.038538	-3.038700	3.848000	-11.692000	21.962701	0.000382	20.767947
197.042554	-2.994200	3.847900	-11.520000	21.968215	0.000378	20.777261
198.039174	-3.002100	3.848400	-11.552000	21.968113	0.000380	20.773365
199.045245	-3.013600	3.848700	-11.598000	21.966292	0.000382	20.795724
200.037059	-3.001200	3.848000	-11.547000	21.997307	0.000382	20.767501
201.040935	-2.987800	3.847900	-11.496000	21.985045	0.000381	20.759494
202.038832	-2.989500	3.847600	-11.501000	21.996437	0.000382	20.787020
203.038823	-2.993400	3.848600	-11.520000	22.013962	0.000382	20.784175
204.041735	-3.001600	3.847500	-11.547000	22.004687	0.000386	20.778683
205.041779	-2.985500	3.847000	-11.485000	22.022789	0.000384	20.786372
206.040837	-2.982500	3.848200	-11.476000	22.028197	0.000383	20.783251
207.044555	-3.017100	3.846100	-11.604000	22.010325	0.000384	20.766783
208.042584	-3.015600	3.846100	-11.597000	22.032686	0.000386	20.778262
209.042999	-2.980200	3.846200	-11.461000	22.031883	0.000386	20.782675
210.043798	-2.993700	3.846300	-11.513000	22.052554	0.000385	20.769228
211.045608	-3.005100	3.844400	-11.551000	22.054721	0.000384	20.787519
212.047491	-2.974100	3.845900	-11.437000	22.046117	0.000386	20.798346
213.045478	-2.993600	3.846200	-11.513000	22.061450	0.000389	20.770074
214.044580	-3.010300	3.845100	-11.573000	22.071768	0.000385	20.780403
215.043975	-2.989500	3.846300	-11.497000	22.076660	0.000388	20.782929
216.047266	-2.981600	3.846000	-11.467000	22.089868	0.000389	20.777186
217.044127	-3.006700	3.843400	-11.555000	22.091565	0.000386	20.795006
218.043297	-3.012100	3.843800	-11.577000	22.103727	0.000389	20.782052
219.048795	-2.989200	3.844900	-11.491000	22.089564	0.000389	20.799642
220.044622	-2.982200	3.845500	-11.467000	22.112952	0.000391	20.792710
221.046021	-3.013800	3.844100	-11.585000	22.123145	0.000391	20.782526
222.049732	-2.990100	3.843300	-11.491000	22.120031	0.000391	20.773719
223.046430	-2.976000	3.844200	-11.439000	22.118161	0.000391	20.781330
224.049375	-3.000700	3.843100	-11.531000	22.143135	0.000391	20.785944
225.047140	-2.982000	3.844200	-11.463000	22.125488	0.000392	20.790088
226.047753	-3.012200	3.842800	-11.574000	22.136505	0.000393	20.787367
227.050698	-2.995300	3.843800	-11.511000	22.147945	0.000389	20.792182
228.056391	-3.022600	3.841900	-11.611000	22.159711	0.000391	20.788789
229.048908	-2.999200	3.842300	-11.523000	22.164295	0.000390	20.804284
230.050712	-2.991900	3.842800	-11.496000	22.176756	0.000392	20.805381
231.052732	-3.030000	3.841100	-11.637000	22.189889	0.000391	20.794348
232.050342	-3.020000	3.842300	-11.603000	22.183235	0.000394	20.795271
233.053147	-2.984900	3.842100	-11.468000	22.187398	0.000395	20.789008
234.053370	-3.008000	3.841700	-11.554000	22.202899	0.000391	20.792200
235.051642	-2.973200	3.843500	-11.426000	22.191883	0.000394	20.810094
236.053676	-3.011900	3.841200	-11.569000	22.187592	0.000395	20.821919
237.055147	-2.977400	3.842600	-11.439000	22.211221	0.000393	20.801481
238.053292	-3.008300	3.841600	-11.555000	22.208504	0.000397	20.803028
239.050809	-2.981500	3.842200	-11.455000	22.251421	0.000396	20.807592
240.054817	-2.990400	3.841800	-11.487000	22.224972	0.000395	20.814775
241.056457	-3.015900	3.840700	-11.581000	22.243766	0.000396	20.810359
242.060648	-2.974500	3.841200	-11.424000	22.228913	0.000398	20.798332
243.060277	-3.031000	3.838700	-11.634000	22.255527	0.000396	20.825928
244.060547	-3.001200	3.840800	-11.526000	22.245060	0.000396	20.817344
245.060003	-3.005000	3.839600	-11.537000	22.240572	0.000398	20.832764
246.061112	-2.976800	3.840100	-11.431000	22.256644	0.000397	20.811399
247.057150	-3.018100	3.840400	-11.589000	22.286552	0.000398	20.818586
248.058174	-3.000900	3.838500	-11.518000	22.267635	0.000399	20.812447
249.056301	-2.992300	3.839200	-11.486000	22.281145	0.000398	20.822181
250.059460	-2.979800	3.839500	-11.441000	22.281693	0.000398	20.807083
251.055129	-2.964800	3.839600	-11.382000	22.284555	0.000400	20.801888
252.058787	-2.996600	3.838100	-11.500000	22.291308	0.000399	20.813391
253.055179	-2.987800	3.838300	-11.467000	22.324180	0.000400	20.819753
254.056995	-2.998600	3.837100	-11.505000	22.313137	0.000399	20.822446
255.055933	-2.990400	3.837600	-11.475000	22.299379	0.000399	20.814361
256.058921	-3.011800	3.835800	-11.551000	22.319321	0.000400	20.812992
257.059280	-2.994100	3.837200	-11.488000	22.348877	0.000402	20.819354
258.056941	-3.011200	3.837200	-11.553000	22.342000	0.000403	20.803933
259.063461	-2.995300	3.838700	-11.498000	22.326869	0.000400	20.834774
260.054844	-2.995300	3.836800	-11.492000	22.358520	0.000402	20.826165
261.056397	-2.996600	3.837500	-11.498000	22.365845	0.000403	20.818327
262.060277	-3.026300	3.835700	-11.606000	22.369082	0.000402	20.811137
263.057067	-2.982900	3.836900	-11.444000	22.359640	0.000403	20.828709
264.057687	-2.999200	3.836700	-11.506000	22.362032	0.000402	20.809294
265.062667	-2.975400	3.836000	-11.412000	22.379453	0.000403	20.826738
266.055247	-2.992300	3.836400	-11.477000	22.383764	0.000406	20.825365
267.056667	-2.976500	3.835400	-11.415000	22.393803	0.000405	20.832573
268.058663	-3.012900	3.835900	-11.555000	22.397446	0.000406	20.812040
269.057697	-2.999700	3.835100	-11.503000	22.401909	0.000405	20.839268
270.055933	-3.007600	3.834000	-11.530000	22.392262	0.000406	20.832453
271.062875	-3.011700	3.833900	-11.545000	22.406290	0.000407	20.850767
272.059970	-3.000300	3.834900	-11.505000	22.424134	0.000404	20.815532
273.056521	-2.993700	3.836100	-11.484000	22.420795	0.000407	20.829258
274.058667	-3.001400	3.834400	-11.508000	22.440109	0.000407	20.827736
275.058106	-3.007900	3.834000	-11.531000	22.445939	0.000409	20.831204
276.056728	-3.016100	3.833400	-11.562000	22.432579	0.000407	20.826360
277.061320	-3.009700	3.834400	-11.539000	22.447907	0.000409	20.836019
278.056220	-2.997400	3.835400	-11.495000	22.453041	0.000410	20.826936
279.054960	-3.007500	3.833500	-11.528000	22.468945	0.000410	20.836225
280.060556	-2.985300	3.833500	-11.443000	22.459221	0.000408	20.852564
281.058499	-3.023800	3.831900	-11.586000	22.483392	0.000409	20.843581
282.057895	-2.992300	3.833200	-11.469000	22.472852	0.000410	20.833500
283.060558	-2.973100	3.833800	-11.397000	22.484088	0.000409	20.843329
284.057888	-2.983500	3.833400	-11.436000	22.488897	0.000411	20.841033
285.058844	-2.992500	3.832500	-11.468000	22.497917	0.000410	20.853859
286.073237	-3.015000	3.831900	-11.553000	22.486781	0.000411	20.825638
287.059859	-3.013300	3.831500	-11.543000	22.503871	0.000413	20.853184
288.060237	-3.012700	3.831800	-11.543000	22.514661	0.000412	20.843602
289.068375	-2.996600	3.831600	-11.481000	22.515732	0.000414	20.835665
290.059208	-3.016900	3.830800	-11.556000	22.525402	0.000413	20.853410
291.063861	-3.011000	3.830200	-11.532000	22.506556	0.000412	20.825528
292.064962	-3.006600	3.831600	-11.519000	22.527518	0.000414	20.840831
293.064399	-2.982100	3.831200	-11.424000	22.526366	0.000417	20.836833
294.062369	-2.969800	3.832100	-11.380000	22.549420	0.000414	20.841429
295.064376	-3.011900	3.831500	-11.539000	22.540972	0.000416	20.858572
296.062625	-2.991800	3.831200	-11.461000	22.567830	0.000414	20.839954
297.061120	-3.012900	3.829400	-11.537000	22.554673	0.000417	20.847639
298.061433	-3.012500	3.828700	-11.534000	22.558235	0.000416	20.850257
299.062695	-3.015200	3.829300	-11.546000	22.587216	0.000416	20.847515
300.072027	-2.960700	3.831200	-11.342000	22.577023	0.000417	20.864333
301.065852	-3.006000	3.829000	-11.508000	22.579591	0.000417	20.848888
302.065279	-3.009900	3.829600	-11.526000	22.610211	0.000419	20.842098
303.063371	-2.992100	3.828500	-11.455000	22.599870	0.000418	20.863508
304.066066	-3.001100	3.828700	-11.489000	22.604106	0.000419	20.869173
305.062968	-2.996600	3.828100	-11.470000	22.608091	0.000419	20.858940
306.067119	-3.008800	3.828000	-11.517000	22.599355	0.000422	20.850190
307.063703	-3.019300	3.827800	-11.556000	22.632214	0.000418	20.855600
308.063520	-3.009200	3.826900	-11.514000	22.629324	0.000419	20.848439
309.069677	-3.007000	3.828000	-11.510000	22.604407	0.000421	20.853828
310.063468	-3.005600	3.826600	-11.500000	22.629225	0.000421	20.854503
311.069440	-2.998100	3.828000	-11.476000	22.647567	0.000420	20.859124
312.063463	-2.982200	3.827400	-11.414000	22.639841	0.000422	20.885997
313.063471	-3.004900	3.827800	-11.501000	22.649831	0.000420	20.873246
314.066982	-2.991600	3.827400	-11.450000	22.661889	0.000420	20.881528
315.063707	-2.993000	3.827100	-11.454000	22.650132	0.000422	20.859797
316.065187	-3.000400	3.825500	-11.478000	22.681947	0.000422	20.863689
317.070373	-2.995700	3.826100	-11.462000	22.668265	0.000422	20.874165
318.064638	-3.011100	3.825200	-11.517000	22.664856	0.000424	20.875492
319.067437	-3.005100	3.825400	-11.495000	22.667693	0.000423	20.877385
320.069552	-3.007800	3.826900	-11.510000	22.685133	0.000423	20.862139
321.067621	-2.972100	3.825300	-11.368000	22.676984	0.000423	20.873415
322.065043	-3.023300	3.826700	-11.568000	22.690072	0.000425	20.858551
323.072959	-2.968400	3.825000	-11.353000	22.699635	0.000423	20.869552
324.067221	-2.985900	3.825600	-11.422000	22.696145	0.000426	20.880279
325.069083	-2.967800	3.826000	-11.354000	22.716277	0.000425	20.866781
326.068302	-2.966800	3.825900	-11.350000	22.695452	0.000428	20.865836
327.066081	-2.994600	3.824900	-11.452000	22.720788	0.000427	20.856602
328.066933	-2.991900	3.824500	-11.442000	22.737878	0.000426	20.868504
329.071646	-2.991000	3.824600	-11.439000	22.749909	0.000428	20.883400
330.069286	-3.001900	3.823900	-11.477000	22.736165	0.000429	20.879115
331.067499	-2.995200	3.824400	-11.454000	22.731530	0.000429	20.860724
332.078631	-2.991600	3.822900	-11.436000	22.740577	0.000428	20.886854
333.071706	-3.021200	3.822100	-11.546000	22.751460	0.000428	20.845127
334.072744	-2.999000	3.823000	-11.465000	22.753477	0.000429	20.871328
335.077611	-2.983800	3.822900	-11.406000	22.779839	0.000428	20.864071
336.069344	-2.978700	3.822800	-11.385000	22.756822	0.000428	20.860455
337.071397	-2.990400	3.823800	-11.434000	22.756896	0.000429	20.848202
338.073848	-3.001300	3.823300	-11.474000	22.773965	0.000431	20.855342
339.069155	-3.009200	3.821600	-11.499000	22.766218	0.000432	20.844264
340.070442	-2.999300	3.821800	-11.461000	22.752167	0.000430	20.839671
341.075574	-2.987600	3.820800	-11.414000	22.779073	0.000432	20.844338
342.073787	-2.994700	3.821800	-11.445000	22.791704	0.000433	20.838974
343.071301	-3.015600	3.820300	-11.519000	22.802672	0.000431	20.833366
344.076787	-3.019800	3.820600	-11.536000	22.784385	0.000432	20.836384
345.072519	-2.988100	3.820600	-11.416000	22.798539	0.000433	20.838709
346.071971	-3.009300	3.821400	-11.498000	22.820835	0.000433	20.825956
347.073974	-2.984700	3.821200	-11.404000	22.805314	0.000433	20.836012
348.072845	-2.997100	3.819800	-11.447000	22.821658	0.000434	20.849539
349.075970	-3.006500	3.819900	-11.483000	22.822484	0.000432	20.835195
350.077008	-2.994600	3.821400	-11.443000	22.807836	0.000434	20.841384
351.072386	-3.013000	3.819200	-11.507000	22.837309	0.000434	20.841511
352.072332	-3.005500	3.819200	-11.478000	22.831078	0.000435	20.835744
353.077175	-3.001700	3.818700	-11.461000	22.834794	0.000436	20.847526
354.074966	-2.988500	3.819300	-11.413000	22.845828	0.000435	20.835347
355.073297	-3.015500	3.818200	-11.513000	22.853129	0.000438	20.835075
356.076273	-3.025000	3.818000	-11.548000	22.855570	0.000437	20.853166
357.074100	-2.984300	3.819000	-11.395000	22.854722	0.000437	20.833352
358.079695	-2.975900	3.820100	-11.367000	22.884165	0.000439	20.812589
359.073668	-2.992000	3.817300	-11.420000	22.867106	0.000439	20.858085
360.077053	-3.010900	3.818500	-11.496000	22.879983	0.000437	20.832106
361.081100	-2.995700	3.817300	-11.435000	22.876843	0.000437	20.834650
362.076190	-3.013500	3.816600	-11.500000	22.862069	0.000439	20.823168
363.077062	-3.003700	3.817100	-11.464000	22.903972	0.000438	20.834328
364.079875	-3.004800	3.816400	-11.466000	22.876737	0.000437	20.830277
365.075684	-2.996400	3.816600	-11.435000	22.911789	0.000438	20.831728
366.075754	-3.014500	3.816700	-11.505000	22.900656	0.000437	20.831480
367.080591	-2.986100	3.815600	-11.394000	22.914155	0.000438	20.826512
368.076671	-3.002700	3.815200	-11.455000	22.899434	0.000441	20.839264
369.080005	-3.029500	3.815700	-11.559000	22.906907	0.000439	20.808820
370.081550	-2.988600	3.816400	-11.405000	22.896944	0.000441	20.825865
371.079395	-3.021200	3.813900	-11.522000	22.936098	0.000440	20.815780
372.077181	-3.014500	3.816100	-11.503000	22.943547	0.000441	20.808070
373.081413	-3.023900	3.813500	-11.531000	22.928975	0.000440	20.817178
374.078427	-2.978400	3.814400	-11.360000	22.945440	0.000440	20.810441
375.080503	-2.987800	3.814100	-11.395000	22.939111	0.000442	20.811686
376.080651	-3.002700	3.813500	-11.449000	22.941626	0.000441	20.813257
377.081271	-3.006500	3.815100	-11.469000	22.952836	0.000441	20.820695
378.080633	-2.994600	3.814400	-11.422000	22.972659	0.000441	20.812107
379.083685	-2.981600	3.815100	-11.374000	22.960058	0.000443	20.847845
380.089180	-3.018800	3.812700	-11.509000	22.972610	0.000444	20.821541
381.080708	-3.002300	3.813000	-11.447000	22.974178	0.000444	20.822637
382.085034	-2.998100	3.813000	-11.432000	22.975700	0.000443	20.794765
383.081773	-2.993900	3.813100	-11.415000	22.972634	0.000443	20.792168
384.082750	-3.020500	3.810900	-11.510000	22.969474	0.000441	20.816502
385.081921	-3.005400	3.812300	-11.456000	22.990095	0.000444	20.806817
386.081604	-3.017200	3.810300	-11.495000	22.997218	0.000443	20.818696
387.080307	-2.992800	3.811900	-11.408000	23.003868	0.000445	20.818720
388.080891	-3.008900	3.811200	-11.467000	23.010420	0.000444	20.810112
389.081521	-2.998700	3.811800	-11.429000	23.018115	0.000446	20.808339
390.085884	-3.001300	3.810500	-11.435000	23.026608	0.000444	20.808788
391.081927	-2.999900	3.810400	-11.430000	23.024366	0.000447	20.793265
392.082140	-3.009700	3.810100	-11.466000	23.020234	0.000446	20.792444
393.083043	-2.993900	3.810900	-11.408000	23.021699	0.000446	20.801973
394.080615	-3.014300	3.809600	-11.483000	23.033180	0.000446	20.783131
395.081005	-3.003300	3.809700	-11.441000	23.023765	0.000447	20.818267
396.084389	-2.986600	3.809700	-11.377000	23.040229	0.000447	20.822436
397.085385	-3.009800	3.810200	-11.466000	23.024440	0.000446	20.803296
398.082974	-3.005100	3.809700	-11.448000	23.037839	0.000447	20.805342
399.084084	-2.994700	3.810100	-11.409000	23.050368	0.000446	20.793714
400.084258	-2.993700	3.809000	-11.402000	23.069424	0.000447	20.791945
401.083929	-3.012500	3.807500	-11.469000	23.042571	0.000447	20.793488
402.084853	-3.019900	3.808200	-11.499000	23.068824	0.000451	20.779490
403.084363	-2.999400	3.808400	-11.422000	23.076095	0.000448	20.798155
404.082667	-3.006200	3.809300	-11.451000	23.098812	0.000448	20.794840
405.093392	-2.973900	3.808500	-11.325000	23.081127	0.000450	20.793240
406.091346	-3.006900	3.807200	-11.447000	23.074778	0.000448	20.778343
407.086359	-2.989500	3.808100	-11.383000	23.101948	0.000450	20.814103
408.085277	-2.991900	3.808200	-11.392000	23.083444	0.000449	20.790346
409.084667	-2.994200	3.806400	-11.396000	23.110218	0.000448	20.792993
410.085002	-2.994600	3.805300	-11.393000	23.086382	0.000451	20.804669
411.088506	-3.018800	3.805800	-11.488000	23.112909	0.000450	20.800905
412.085365	-2.992200	3.805800	-11.386000	23.109568	0.000451	20.785703
413.085923	-3.011600	3.805700	-11.460000	23.120081	0.000452	20.806669
414.084673	-3.021500	3.806400	-11.500000	23.116542	0.000450	20.774674
415.084837	-2.984200	3.807000	-11.359000	23.131310	0.000452	20.784256
416.088056	-2.988300	3.804700	-11.368000	23.122302	0.000451	20.778549
417.089571	-2.982300	3.806300	-11.350000	23.112905	0.000453	20.811806
418.090000	-2.999000	3.804500	-11.409000	23.127850	0.000451	20.794539
419.090044	-2.982600	3.805400	-11.350000	23.133531	0.000454	20.793594
420.092964	-3.016500	3.804900	-11.476000	23.140276	0.000454	20.799404
421.092103	-2.993400	3.803700	-11.385000	23.138214	0.000453	20.786906
422.091640	-2.990900	3.804200	-11.377000	23.124837	0.000453	20.777296
423.093093	-2.985100	3.804100	-11.354000	23.136865	0.000451	20.787925
424.093906	-3.001500	3.804400	-11.418000	23.157240	0.000455	20.794592
425.094107	-2.996200	3.802100	-11.392000	23.151434	0.000455	20.789249
426.096474	-2.988900	3.802900	-11.365000	23.161593	0.000453	20.786627
427.095005	-2.977500	3.804000	-11.325000	23.168168	0.000454	20.790845
428.094242	-3.021000	3.802400	-11.486000	23.160174	0.000454	20.759599
429.096317	-3.014400	3.801500	-11.459000	23.164906	0.000455	20.792317
430.095976	-3.005600	3.801000	-11.424000	23.164609	0.000457	20.768311
431.097155	-2.982000	3.803200	-11.341000	23.185926	0.000456	20.784458
432.095966	-2.991600	3.802300	-11.374000	23.169563	0.000457	20.777543
433.095103	-2.988900	3.802600	-11.364000	23.201512	0.000456	20.783481
434.095896	-2.996600	3.801700	-11.392000	23.182907	0.000459	20.763888
435.097359	-2.982500	3.800500	-11.334000	23.206268	0.000458	20.781135
436.095327	-3.006500	3.800600	-11.426000	23.218270	0.000456	20.781308
437.094370	-2.997700	3.799800	-11.389000	23.217274	0.000458	20.767508
438.097470	-2.997800	3.800300	-11.391000	23.192123	0.000457	20.775495
439.095378	-2.983100	3.800000	-11.335000	23.222450	0.000457	20.756100
440.099010	-3.012900	3.800000	-11.449000	23.208832	0.000457	20.784178
441.100710	-3.005300	3.799200	-11.417000	23.233908	0.000457	20.783230
442.099132	-3.008900	3.799200	-11.430000	23.229103	0.000458	20.763715
443.097679	-3.004800	3.798200	-11.412000	23.231493	0.000457	20.762317
444.102705	-2.981200	3.799100	-11.325000	23.221956	0.000458	20.760820
445.098368	-2.983900	3.798600	-11.334000	23.231024	0.000459	20.773226
446.101213	-2.997000	3.797200	-11.379000	23.244444	0.000459	20.753011
447.106508	-2.975000	3.798100	-11.298000	23.246909	0.000459	20.768283
448.100341	-2.992400	3.796800	-11.360000	23.235652	0.000458	20.755580
449.099972	-2.980700	3.798000	-11.320000	23.252618	0.000460	20.774953
450.104763	-2.985600	3.796500	-11.334000	23.243579	0.000460	20.787232
451.100976	-3.005900	3.796000	-11.409000	23.245744	0.000457	20.775176
452.101237	-2.992700	3.796200	-11.361000	23.263649	0.000461	20.758506
453.104900	-3.016700	3.797400	-11.454000	23.262233	0.000461	20.765622
454.100512	-2.978600	3.796300	-11.307000	23.279290	0.000462	20.770389
455.100440	-2.989600	3.795700	-11.346000	23.289324	0.000462	20.749624
456.109330	-2.997900	3.794800	-11.376000	23.271872	0.000462	20.756790
457.104037	-2.976900	3.796000	-11.299000	23.293060	0.000461	20.751471
458.102712	-2.977900	3.795500	-11.302000	23.267935	0.000459	20.765647
459.109256	-3.026700	3.794200	-11.482000	23.296975	0.000460	20.767724
460.108438	-2.993200	3.794700	-11.357000	23.290549	0.000463	20.757965
461.101279	-3.002800	3.794500	-11.393000	23.305315	0.000463	20.750003
462.109632	-3.005900	3.794800	-11.406000	23.300209	0.000461	20.768121
463.103472	-2.996800	3.794100	-11.369000	23.315144	0.000461	20.757009
464.106272	-3.009500	3.793600	-11.416000	23.311193	0.000462	20.765852
465.107237	-3.014000	3.793200	-11.431000	23.284424	0.000460	20.769370
466.106152	-2.982700	3.793500	-11.314000	23.306759	0.000462	20.750502
467.111973	-2.986300	3.792700	-11.324000	23.302603	0.000462	20.756769
468.105432	-3.009700	3.792600	-11.414000	23.325757	0.000461	20.759586
469.106047	-2.990000	3.793100	-11.341000	23.305788	0.000462	20.757116
470.110198	-3.001500	3.792700	-11.383000	23.332730	0.000464	20.743340
471.107750	-3.012500	3.792200	-11.423000	23.318138	0.000465	20.745311
472.107220	-2.989600	3.791600	-11.334000	23.341345	0.000464	20.743913
473.109173	-2.998600	3.790900	-11.366000	23.335417	0.000464	20.756464
474.107924	-2.996600	3.791500	-11.361000	23.336116	0.000463	20.771864
475.107656	-2.998400	3.791000	-11.366000	23.355887	0.000463	20.747583
476.110272	-2.985300	3.791000	-11.317000	23.350330	0.000463	20.765247
477.111624	-3.010500	3.789500	-11.408000	23.367213	0.000464	20.760357
478.112385	-3.019100	3.789900	-11.440000	23.348769	0.000464	20.738078
479.110352	-3.012900	3.790000	-11.418000	23.361811	0.000463	20.735976
480.112374	-2.984400	3.790100	-11.310000	23.358351	0.000463	20.765226
481.112360	-3.022700	3.788800	-11.451000	23.374708	0.000465	20.731832
482.114402	-3.021500	3.787900	-11.444000	23.374136	0.000466	20.745958
483.113849	-2.994900	3.788900	-11.347000	23.373218	0.000464	20.731761
484.115034	-2.997900	3.787800	-11.354000	23.390023	0.000466	20.750028
485.119439	-2.983900	3.788600	-11.305000	23.383375	0.000466	20.748106
486.115806	-3.005600	3.788300	-11.386000	23.378295	0.000465	20.747756
487.118487	-3.008500	3.787700	-11.394000	23.400578	0.000466	20.750176
488.116016	-3.015300	3.786800	-11.417000	23.403318	0.000467	20.739171
489.117354	-3.024700	3.787100	-11.454000	23.395827	0.000466	20.721230
490.116432	-2.975900	3.787900	-11.271000	23.404388	0.000464	20.749253
491.119477	-3.017500	3.784900	-11.419000	23.416917	0.000468	20.737629
492.114679	-2.989000	3.786700	-11.318000	23.422113	0.000466	20.747105
493.119378	-3.013500	3.785500	-11.407000	23.403046	0.000468	20.718035
494.122381	-3.004700	3.786000	-11.375000	23.421648	0.000468	20.743319
495.117236	-2.996200	3.786800	-11.345000	23.407608	0.000467	20.744893
496.117711	-3.017500	3.785100	-11.421000	23.424708	0.000468	20.743542
497.124086	-2.993400	3.786200	-11.332000	23.406065	0.000466	20.736234
498.119554	-3.017900	3.784300	-11.420000	23.431688	0.000467	20.738683
499.120562	-2.999600	3.784600	-11.352000	23.443592	0.000468	20.747296
500.124961	-3.001500	3.784700	-11.359000	23.446578	0.000467	20.740806
501.119471	-3.001100	3.785000	-11.358000	23.435024	0.000465	20.741079
502.119394	-3.008900	3.784400	-11.386000	23.424073	0.000468	20.729628
503.124927	-3.007100	3.782600	-11.374000	23.451062	0.000467	20.734394
504.120106	-3.030900	3.782300	-11.463000	23.450486	0.000468	20.730498
505.121041	-2.999900	3.782700	-11.347000	23.445611	0.000469	20.752640
506.125629	-2.988100	3.784000	-11.306000	23.462369	0.000468	20.737668
507.120553	-3.015700	3.781700	-11.403000	23.455796	0.000468	20.741037
508.121792	-3.002700	3.783100	-11.358000	23.442928	0.000467	20.738096
509.124516	-2.978700	3.782700	-11.266000	23.465634	0.000467	20.720551
510.122147	-3.000500	3.781600	-11.345000	23.464046	0.000468	20.729865
511.124355	-2.988000	3.782500	-11.301000	23.476098	0.000468	20.733411
512.123483	-3.011500	3.781300	-11.386000	23.486476	0.000469	20.718683
513.122478	-3.006400	3.781000	-11.367000	23.471993	0.000467	20.738779
514.125290	-3.007900	3.780100	-11.369000	23.473165	0.000468	20.714348
515.123548	-3.012800	3.779200	-11.385000	23.489491	0.000469	20.729766
516.123946	-3.013500	3.780300	-11.391000	23.466941	0.000468	20.723284
517.137217	-3.008600	3.779400	-11.370000	23.497964	0.000466	20.699850
518.127532	-2.988300	3.779400	-11.293000	23.480116	0.000469	20.717049
519.126087	-2.975700	3.780000	-11.247000	23.505461	0.000469	20.725860
520.129370	-3.001700	3.778600	-11.341000	23.503968	0.000469	20.719621
521.129076	-2.982700	3.779400	-11.272000	23.513881	0.000470	20.754215
522.129056	-2.988200	3.779300	-11.292000	23.525932	0.000468	20.748277
523.129855	-2.984400	3.778700	-11.276000	23.518064	0.000469	20.711465
524.126719	-2.983700	3.778400	-11.273000	23.517471	0.000470	20.729838
525.130908	-3.004800	3.777200	-11.349000	23.519564	0.000469	20.724824
526.134016	-2.979400	3.778600	-11.257000	23.522752	0.000468	20.721380
527.130915	-3.000200	3.776100	-11.328000	23.510729	0.000468	20.725450
528.127038	-3.008100	3.776400	-11.359000	23.516980	0.000468	20.721759
529.132705	-2.989800	3.776700	-11.290000	23.530924	0.000470	20.725305
530.126659	-2.977700	3.776700	-11.245000	23.516186	0.000469	20.733292
531.130270	-2.988700	3.777500	-11.287000	23.550017	0.000470	20.732117
532.132849	-3.011000	3.775400	-11.367000	23.540635	0.000471	20.696157
533.128963	-2.991300	3.774900	-11.291000	23.536131	0.000472	20.712506
534.130519	-2.999700	3.773600	-11.319000	23.529586	0.000470	20.706894
535.134921	-3.001000	3.774400	-11.326000	23.553410	0.000470	20.737415
536.132759	-2.995600	3.774200	-11.304000	23.553561	0.000471	20.727609
537.130498	-2.987800	3.774800	-11.278000	23.556198	0.000472	20.720769
538.135354	-3.014500	3.774200	-11.377000	23.544073	0.000471	20.731374
539.131403	-3.015600	3.773500	-11.378000	23.567303	0.000470	20.724789
540.134162	-3.010200	3.773800	-11.358000	23.556696	0.000469	20.721742
541.133060	-2.974200	3.774100	-11.224000	23.564042	0.000471	20.719622
542.134468	-3.015500	3.772200	-11.374000	23.561574	0.000470	20.739435
543.136580	-3.006200	3.772400	-11.340000	23.557518	0.000472	20.732524
544.135794	-3.015000	3.771200	-11.370000	23.565806	0.000472	20.715227
545.136989	-3.001500	3.771900	-11.321000	23.585421	0.000470	20.730150
546.134494	-2.997800	3.772100	-11.308000	23.574744	0.000472	20.709962
547.137722	-3.010300	3.771100	-11.352000	23.573921	0.000471	20.737588
548.132483	-2.974600	3.772600	-11.221000	23.600257	0.000473	20.720839
549.135104	-3.004700	3.770900	-11.329000	23.604312	0.000473	20.732492
550.135632	-2.980000	3.771900	-11.239000	23.573868	0.000472	20.728525
551.137579	-2.990400	3.771300	-11.276000	23.588976	0.000472	20.728023
552.134844	-2.992600	3.770800	-11.283000	23.608142	0.000472	20.731590
553.137612	-3.013500	3.770200	-11.361000	23.594496	0.000473	20.740195
554.136462	-2.998800	3.768800	-11.300000	23.614838	0.000472	20.725025
555.136477	-2.972000	3.770200	-11.204000	23.624442	0.000473	20.732757
556.135830	-3.003300	3.768700	-11.317000	23.634897	0.000473	20.712891
557.139274	-3.001500	3.768700	-11.311000	23.625409	0.000472	20.726140
558.136560	-2.967700	3.768000	-11.181000	23.627449	0.000474	20.746678
559.136780	-2.987600	3.767600	-11.254000	23.614456	0.000473	20.745507
560.137505	-3.002300	3.769100	-11.315000	23.640741	0.000473	20.721122
561.136235	-2.984200	3.767900	-11.243000	23.646586	0.000471	20.731249
562.140951	-2.999400	3.767900	-11.301000	23.622835	0.000471	20.737311
563.139834	-2.982000	3.768600	-11.237000	23.640406	0.000472	20.733588
564.143674	-2.995100	3.766500	-11.280000	23.642696	0.000472	20.741575
565.139075	-2.997000	3.768000	-11.292000	23.651534	0.000472	20.750436
566.139173	-2.995700	3.766300	-11.282000	23.657926	0.000472	20.736929
567.141051	-2.988300	3.766500	-11.255000	23.659419	0.000473	20.728942
568.137641	-2.981800	3.766200	-11.229000	23.658844	0.000472	20.736900
569.138551	-3.003500	3.764400	-11.306000	23.679654	0.000474	20.742590
570.143384	-3.007100	3.765200	-11.322000	23.666683	0.000472	20.732431
571.141414	-3.004700	3.765800	-11.315000	23.679548	0.000473	20.741061
572.145185	-2.999800	3.765100	-11.294000	23.672055	0.000476	20.742558
573.147153	-3.019900	3.764200	-11.366000	23.687115	0.000473	20.742484
574.143982	-3.005300	3.764900	-11.314000	23.694908	0.000471	20.748401
575.145650	-3.012800	3.764300	-11.340000	23.679647	0.000472	20.746851
576.143733	-2.983900	3.764700	-11.233000	23.684496	0.000473	20.740332
577.142009	-3.003600	3.763500	-11.303000	23.696471	0.000473	20.729104
578.144698	-3.004100	3.763000	-11.303000	23.711849	0.000473	20.736935
579.145586	-3.014300	3.763100	-11.341000	23.723968	0.000472	20.755251
580.147631	-3.005600	3.761800	-11.305000	23.708514	0.000472	20.742126
581.146435	-3.009700	3.761300	-11.320000	23.700848	0.000472	20.742027
582.144815	-3.031200	3.762100	-11.403000	23.715484	0.000472	20.724932
583.148522	-3.000100	3.761000	-11.282000	23.721311	0.000473	20.759699
584.147369	-3.008100	3.762100	-11.315000	23.717919	0.000472	20.745392
585.146297	-3.032400	3.761000	-11.404000	23.737214	0.000474	20.762367
586.145295	-2.992500	3.760900	-11.253000	23.735820	0.000474	20.763814
587.146471	-2.989400	3.761900	-11.245000	23.752972	0.000473	20.757303
588.144732	-3.008000	3.760700	-11.311000	23.746027	0.000473	20.748917
589.145222	-3.007300	3.761400	-11.310000	23.755983	0.000471	20.747045
590.153062	-3.002300	3.759800	-11.288000	23.738982	0.000474	20.734267
591.143450	-3.010400	3.758700	-11.314000	23.756081	0.000473	20.745722
592.146572	-3.014400	3.759100	-11.331000	23.735820	0.000473	20.754805
593.149509	-2.993700	3.759700	-11.254000	23.765466	0.000473	20.755131
594.148962	-3.016400	3.759300	-11.339000	23.768776	0.000474	20.736638
595.147404	-2.996700	3.758900	-11.262000	23.757977	0.000471	20.745251
596.157664	-3.015400	3.758200	-11.332000	23.754666	0.000472	20.728655
597.149242	-2.985400	3.758900	-11.221000	23.771642	0.000473	20.779342
598.148438	-2.985900	3.758500	-11.221000	23.779784	0.000474	20.751468
599.150903	-3.032700	3.757100	-11.392000	23.772863	0.000473	20.748323
600.149704	-2.997000	3.757200	-11.259000	23.768681	0.000474	20.744603
601.148329	-3.000400	3.756800	-11.270000	23.770375	0.000473	20.770959
602.150578	-2.991000	3.756600	-11.235000	23.794345	0.000473	20.759904
603.151236	-3.003300	3.756300	-11.279000	23.785286	0.000474	20.736121
604.150887	-2.995500	3.756200	-11.251000	23.791384	0.000472	20.753142
605.151554	-3.018600	3.752900	-11.328000	23.786260	0.000473	20.759384
606.150092	-3.007500	3.754500	-11.290000	23.804752	0.000475	20.773659
607.150060	-3.007100	3.755000	-11.291000	23.801569	0.000472	20.770941
608.152197	-3.000200	3.753700	-11.261000	23.783574	0.000473	20.762382
609.152322	-2.992000	3.754800	-11.234000	23.809855	0.000472	20.743213
610.151870	-3.001800	3.753400	-11.266000	23.794451	0.000473	20.744837
611.156821	-2.981800	3.754300	-11.193000	23.814912	0.000472	20.755397
612.153284	-2.991800	3.753200	-11.228000	23.798735	0.000471	20.771893
613.157715	-3.011700	3.752800	-11.301000	23.819719	0.000473	20.773493
614.154058	-2.993000	3.753900	-11.233000	23.811528	0.000474	20.760064
615.152778	-2.979700	3.753700	-11.184000	23.805582	0.000473	20.762637
616.152648	-2.999300	3.753100	-11.256000	23.804985	0.000471	20.784798
617.153990	-3.000500	3.753000	-11.260000	23.815865	0.000473	20.767732
618.154003	-3.011200	3.751200	-11.294000	23.818999	0.000472	20.768978
619.153845	-2.983300	3.752000	-11.193000	23.823629	0.000472	20.773146
620.155423	-3.005200	3.751900	-11.274000	23.827437	0.000471	20.761317
621.153871	-2.996400	3.751200	-11.239000	23.841052	0.000472	20.759795
622.155121	-3.004900	3.750700	-11.269000	23.844662	0.000473	20.774321
623.155738	-2.990200	3.750600	-11.213000	23.847549	0.000472	20.773896
624.153454	-2.959100	3.751300	-11.099000	23.830402	0.000473	20.765712
625.153355	-2.980600	3.751500	-11.181000	23.849691	0.000473	20.762768
626.155047	-3.009200	3.750200	-11.284000	23.848325	0.000472	20.784632
627.157671	-3.000500	3.749700	-11.250000	23.864925	0.000472	20.768560
628.155892	-3.006300	3.748600	-11.267000	23.871595	0.000470	20.781412
629.161263	-3.002600	3.750200	-11.259000	23.870772	0.000472	20.767311
630.159620	-3.001700	3.748800	-11.252000	23.861393	0.000471	20.751742
631.158839	-2.984600	3.750100	-11.191000	23.861347	0.000472	20.780620
632.160885	-3.014100	3.748200	-11.296000	23.879238	0.000471	20.761575
633.156955	-2.994600	3.747800	-11.223000	23.884789	0.000471	20.770461
634.160212	-3.004500	3.746600	-11.256000	23.888950	0.000473	20.776529
635.160673	-2.986600	3.748500	-11.194000	23.888900	0.000473	20.763677
636.160259	-3.003300	3.746900	-11.251000	23.899102	0.000472	20.769640
637.157221	-3.003100	3.746800	-11.250000	23.875385	0.000469	20.779997
638.162612	-2.990100	3.747100	-11.203000	23.882930	0.000471	20.777605
639.158256	-3.008500	3.745500	-11.268000	23.887634	0.000472	20.784693
640.159178	-3.009100	3.744800	-11.267000	23.900471	0.000471	20.774806
641.159573	-2.979000	3.745700	-11.158000	23.885516	0.000470	20.789682
642.157444	-2.994300	3.746100	-11.216000	23.895792	0.000470	20.780546
643.157583	-3.007900	3.745800	-11.265000	23.889546	0.000471	20.778550
644.158953	-2.997900	3.745100	-11.226000	23.927180	0.000470	20.797796
645.157457	-3.019100	3.744300	-11.304000	23.933920	0.000471	20.792226
646.158800	-2.999700	3.744800	-11.233000	23.924512	0.000472	20.780896
647.161650	-2.994500	3.744500	-11.211000	23.920384	0.000469	20.790507
648.158798	-3.024000	3.743400	-11.318000	23.909727	0.000471	20.786933
649.160274	-3.048500	3.742300	-11.406000	23.934142	0.000470	20.779647
650.163861	-2.985400	3.743500	-11.175000	23.937949	0.000470	20.779672
651.160076	-2.993200	3.742200	-11.200000	23.923069	0.000470	20.795570
652.157390	-3.004500	3.742800	-11.245000	23.939742	0.000471	20.786211
653.162687	-3.012400	3.741900	-11.271000	23.938327	0.000470	20.802336
654.162693	-2.998200	3.743000	-11.222000	23.972836	0.000469	20.791897
655.164010	-2.999500	3.741500	-11.222000	23.936482	0.000469	20.779148
656.163284	-3.004600	3.741900	-11.243000	23.962960	0.000469	20.799537
657.162593	-2.998700	3.742800	-11.222000	23.959054	0.000471	20.800361
658.162615	-3.013600	3.740000	-11.270000	23.955296	0.000470	20.786635
659.165141	-2.998500	3.740300	-11.214000	23.964880	0.000468	20.793401
660.162915	-3.009900	3.740200	-11.256000	23.971178	0.000467	20.790234
661.164760	-3.005500	3.740900	-11.242000	23.972671	0.000471	20.793628
662.170693	-3.000000	3.741400	-11.223000	23.965176	0.000468	20.797966
663.168290	-2.997000	3.740500	-11.209000	23.970233	0.000471	20.773639
664.165517	-2.997500	3.740400	-11.211000	23.973620	0.000468	20.788890
665.173455	-2.999800	3.740400	-11.218000	23.992131	0.000471	20.789909
666.168995	-3.009700	3.738800	-11.252000	23.959732	0.000468	20.779704
667.176659	-3.005500	3.739300	-11.238000	23.983303	0.000468	20.801918
668.171173	-2.995600	3.738800	-11.199000	24.000345	0.000470	20.787715
669.167143	-3.007700	3.738100	-11.243000	23.987258	0.000470	20.806359
670.169147	-2.982400	3.739100	-11.150000	23.987583	0.000469	20.804788
671.170405	-3.031600	3.736000	-11.324000	23.990119	0.000468	20.796427
672.169048	-3.001900	3.737600	-11.219000	23.983281	0.000468	20.780560
673.166884	-3.012200	3.736000	-11.253000	23.975544	0.000468	20.813104
674.173158	-2.990900	3.737200	-11.177000	24.004237	0.000468	20.812007
675.177495	-2.982100	3.737100	-11.144000	24.003316	0.000469	20.783582
676.168914	-3.006800	3.736600	-11.235000	23.996355	0.000466	20.784662
677.173451	-2.974800	3.736700	-11.115000	24.010909	0.000468	20.816801
678.172329	-2.984800	3.735900	-11.149000	24.022260	0.000469	20.789778
679.172647	-3.003700	3.735400	-11.218000	24.024900	0.000466	20.794796
680.177467	-2.995800	3.734800	-11.188000	24.028037	0.000466	20.794623
681.174590	-2.990200	3.735800	-11.168000	24.020175	0.000467	20.816137
682.170981	-2.994200	3.734200	-11.180000	24.010201	0.000468	20.813720
683.177124	-2.993600	3.734800	-11.179000	24.043297	0.000468	20.794280
684.172688	-2.994900	3.733900	-11.181000	24.035707	0.000467	20.808480
685.173983	-3.003100	3.733300	-11.211000	24.049846	0.000466	20.802270
686.173560	-3.005900	3.732300	-11.217000	24.040266	0.000466	20.807836
687.174695	-2.989700	3.733400	-11.161000	24.048456	0.000467	20.818419
688.173650	-3.003000	3.733400	-11.210000	24.035320	0.000467	20.811410
689.175478	-2.972300	3.733000	-11.094000	24.040623	0.000467	20.834272
690.173698	-3.014500	3.733000	-11.252000	24.047789	0.000468	20.805897
691.171985	-2.997000	3.731600	-11.183000	24.045803	0.000467	20.828561
692.177347	-2.996700	3.731800	-11.182000	24.054662	0.000468	20.826540
693.172507	-3.012500	3.731500	-11.240000	24.034879	0.000465	20.813339
694.173767	-2.999500	3.730800	-11.189000	24.058971	0.000466	20.807154
695.177863	-2.993600	3.732000	-11.172000	24.059620	0.000465	20.802115
696.172642	-2.995200	3.730900	-11.174000	24.050612	0.000466	20.816789
697.173335	-2.995200	3.730300	-11.172000	24.077113	0.000466	20.827245
698.176764	-3.002700	3.730600	-11.201000	24.070547	0.000465	20.804065
699.179695	-2.997700	3.728500	-11.176000	24.065646	0.000466	20.821435
700.181991	-3.009500	3.728700	-11.220000	24.062341	0.000466	20.805792
701.176675	-2.999900	3.729200	-11.185000	24.072894	0.000465	20.816376
702.176147	-3.006600	3.728500	-11.209000	24.062570	0.000466	20.833049
703.179271	-3.028800	3.727900	-11.289000	24.083619	0.000466	20.825710
704.174922	-3.004300	3.728600	-11.201000	24.078073	0.000466	20.826786
705.178963	-3.001100	3.728600	-11.188000	24.073547	0.000465	20.815134
706.179890	-2.999400	3.727200	-11.179000	24.095171	0.000465	20.821648
707.176808	-2.997000	3.728000	-11.171000	24.094719	0.000464	20.808867
708.178362	-2.992300	3.728300	-11.154000	24.065111	0.000465	20.813786
709.180138	-3.011900	3.727800	-11.226000	24.084149	0.000465	20.824345
710.187395	-3.008000	3.727100	-11.211000	24.084498	0.000462	20.828014
711.177865	-3.005300	3.727200	-11.200000	24.092864	0.000463	20.827395
712.181632	-3.017800	3.726800	-11.246000	24.099356	0.000465	20.838173
713.177890	-3.000000	3.726800	-11.180000	24.118587	0.000465	20.835176
714.179839	-3.018400	3.725300	-11.243000	24.120852	0.000465	20.837447
715.184156	-2.995600	3.726100	-11.161000	24.121974	0.000463	20.839047
716.179205	-3.010700	3.726400	-11.218000	24.112893	0.000464	20.819034
717.180843	-2.993600	3.724900	-11.150000	24.113066	0.000464	20.821104
718.187422	-2.993200	3.724500	-11.148000	24.106299	0.000462	20.820481
719.180808	-3.027900	3.724000	-11.274000	24.136556	0.000462	20.838498
720.181584	-2.991100	3.724400	-11.139000	24.121678	0.000466	20.843965
721.183618	-3.010800	3.723200	-11.209000	24.109908	0.000465	20.829316
722.184772	-2.969500	3.725000	-11.060000	24.137176	0.000463	20.832483
723.181598	-3.021200	3.722200	-11.245000	24.146956	0.000463	20.832809
724.183869	-2.992700	3.723500	-11.142000	24.139420	0.000463	20.841846
725.181902	-2.971800	3.724400	-11.067000	24.153550	0.000462	20.845586
726.185486	-2.991900	3.722700	-11.137000	24.166462	0.000461	20.826769
727.181445	-3.000100	3.723100	-11.168000	24.162158	0.000464	20.839047
728.180842	-2.995900	3.722400	-11.151000	24.158570	0.000462	20.835922
729.184992	-2.992500	3.722000	-11.137000	24.159219	0.000463	20.839892
730.182922	-2.972600	3.721800	-11.062000	24.159639	0.000461	20.854063
731.184830	-2.991300	3.722700	-11.135000	24.182951	0.000462	20.853263
732.188384	-3.015700	3.719700	-11.217000	24.171799	0.000460	20.840656
733.183242	-2.977000	3.721700	-11.078000	24.185438	0.000462	20.855283
734.185586	-2.995600	3.721800	-11.148000	24.174385	0.000460	20.839456
735.189697	-3.002300	3.720500	-11.169000	24.174656	0.000461	20.851108
736.188719	-2.993600	3.720500	-11.137000	24.178890	0.000461	20.855354
737.185442	-3.007400	3.720700	-11.188000	24.190701	0.000461	20.852028
738.186995	-2.998800	3.719100	-11.152000	24.193960	0.000461	20.851978
739.185138	-2.996700	3.718800	-11.143000	24.182537	0.000461	20.860434
740.198967	-3.008900	3.719100	-11.189000	24.202067	0.000460	20.858686
741.187960	-3.001400	3.720000	-11.164000	24.198409	0.000459	20.851698
742.187684	-3.001900	3.718200	-11.160000	24.208258	0.000458	20.846879
743.188200	-2.971700	3.719400	-11.051000	24.183553	0.000459	20.864772
744.188709	-2.987400	3.718300	-11.108000	24.196214	0.000460	20.867988
745.188903	-3.016300	3.717500	-11.212000	24.192408	0.000458	20.879342
746.187872	-3.009500	3.717700	-11.188000	24.198775	0.000458	20.843057
747.194162	-2.983900	3.717100	-11.091000	24.186579	0.000461	20.842204
748.188132	-3.026300	3.717100	-11.247000	24.202977	0.000458	20.862918
749.187644	-2.994300	3.717300	-11.128000	24.197103	0.000458	20.877888
750.192081	-3.011500	3.715300	-11.188000	24.209517	0.000459	20.855254
751.189900	-3.008000	3.716100	-11.176000	24.211256	0.000460	20.869799
752.189530	-3.020900	3.716200	-11.225000	24.206677	0.000459	20.882275
753.191155	-2.979000	3.716700	-11.071000	24.210463	0.000458	20.881804
754.189515	-3.011900	3.715200	-11.189000	24.203894	0.000458	20.855777
755.188703	-2.975200	3.715900	-11.054000	24.240318	0.000457	20.878086
756.194046	-3.000800	3.713900	-11.144000	24.245489	0.000458	20.861937
757.192314	-3.008900	3.714400	-11.175000	24.245242	0.000457	20.870224
758.191942	-2.986400	3.715800	-11.096000	24.250043	0.000457	20.895426
759.200001	-2.996400	3.714500	-11.130000	24.240716	0.000457	20.874693
760.192847	-2.972600	3.714400	-11.041000	24.232006	0.000457	20.871646
761.193995	-3.002000	3.712600	-11.143000	24.255493	0.000457	20.875291
762.203736	-2.967700	3.714600	-11.023000	24.249274	0.000457	20.887543
763.194428	-2.981900	3.713300	-11.071000	24.250191	0.000457	20.883248
764.192956	-3.005100	3.711800	-11.153000	24.274126	0.000457	20.874540
765.195753	-2.999400	3.713200	-11.137000	24.249048	0.000456	20.867404
766.194053	-2.986100	3.712400	-11.084000	24.242480	0.000456	20.874565
767.198063	-2.996100	3.710900	-11.117000	24.260788	0.000457	20.864955
768.201423	-3.004700	3.712200	-11.153000	24.272955	0.000456	20.881426
769.194223	-2.963900	3.711600	-11.000000	24.268849	0.000455	20.880626
770.195948	-2.992000	3.711800	-11.103000	24.257751	0.000455	20.897468
771.209098	-2.975000	3.711700	-11.041000	24.271636	0.000456	20.872042
772.196584	-2.982500	3.710400	-11.065000	24.273350	0.000454	20.862383
773.197526	-3.007900	3.710400	-11.159000	24.291111	0.000456	20.867870
774.198264	-3.000300	3.710400	-11.132000	24.280683	0.000454	20.876850
775.195259	-2.968200	3.711700	-11.016000	24.274016	0.000453	20.873482
776.194679	-3.021900	3.708600	-11.206000	24.278024	0.000457	20.870390
777.202328	-3.018400	3.707800	-11.191000	24.291329	0.000453	20.872831
778.194663	-2.999500	3.708600	-11.122000	24.286003	0.000454	20.876496
779.195227	-3.022700	3.707800	-11.207000	24.282073	0.000454	20.878718
780.198786	-3.014700	3.708500	-11.180000	24.282669	0.000453	20.882635
781.195977	-2.998600	3.708700	-11.121000	24.305654	0.000451	20.875346
782.194534	-3.000800	3.708200	-11.127000	24.288638	0.000454	20.887673
783.198388	-3.022400	3.707000	-11.203000	24.284609	0.000456	20.863246
784.204059	-2.998100	3.709200	-11.120000	24.297195	0.000453	20.870655
785.209256	-3.009500	3.706700	-11.155000	24.319810	0.000450	20.851615
786.203242	-3.011600	3.707400	-11.163000	24.300204	0.000452	20.876992
787.197809	-3.006200	3.706200	-11.140000	24.304980	0.000452	20.871826
788.198979	-3.024200	3.706400	-11.208000	24.306670	0.000452	20.865934
789.202721	-2.996700	3.707500	-11.110000	24.306148	0.000450	20.853083
790.200775	-3.008900	3.706400	-11.152000	24.312617	0.000452	20.867633
791.199554	-3.005200	3.706200	-11.136000	24.313958	0.000453	20.860917
792.197500	-3.017700	3.705600	-11.181000	24.312638	0.000451	20.870025
793.199120	-3.005700	3.706300	-11.139000	24.308014	0.000450	20.872024
794.201718	-3.009700	3.705400	-11.151000	24.322737	0.000451	20.864034
795.199137	-3.007800	3.705500	-11.145000	24.331648	0.000451	20.852110
796.197760	-2.985400	3.705500	-11.061000	24.323312	0.000452	20.851810
797.202181	-2.997400	3.705100	-11.105000	24.315651	0.000449	20.866409
798.198630	-2.998400	3.704700	-11.107000	24.340903	0.000450	20.869929
799.204610	-3.002400	3.704600	-11.121000	24.333538	0.000450	20.856852
800.202860	-3.005100	3.703300	-11.128000	24.326875	0.000451	20.849694
801.198431	-3.016000	3.703400	-11.168000	24.320155	0.000449	20.865712
802.199333	-3.011200	3.703800	-11.152000	24.351253	0.000447	20.848544
803.201795	-3.002300	3.702800	-11.116000	24.338096	0.000447	20.871854
804.199586	-2.985400	3.704200	-11.057000	24.342374	0.000446	20.838216
805.198630	-2.999200	3.703500	-11.107000	24.345860	0.000447	20.849298
806.201544	-2.988600	3.703700	-11.068000	24.341877	0.000448	20.839139
807.198957	-2.998000	3.702300	-11.099000	24.350364	0.000448	20.854290
808.199786	-3.005300	3.702300	-11.125000	24.359739	0.000447	20.850419
809.201169	-3.012000	3.702300	-11.150000	24.345884	0.000446	20.870184
810.201142	-2.989100	3.702000	-11.065000	24.337951	0.000449	20.827615
811.202956	-3.006800	3.700800	-11.126000	24.346932	0.000447	20.851796
812.203826	-2.999400	3.701200	-11.101000	24.358674	0.000447	20.870213
813.201405	-2.995300	3.701300	-11.084000	24.353228	0.000448	20.867120
814.201292	-3.013700	3.700900	-11.152000	24.358851	0.000446	20.848580
815.201579	-3.010600	3.699300	-11.136000	24.347281	0.000446	20.836026
816.201371	-2.999000	3.700000	-11.095000	24.349793	0.000444	20.860355
817.203080	-2.992800	3.700800	-11.073000	24.349546	0.000448	20.850151
818.205269	-2.979300	3.699900	-11.022000	24.395643	0.000445	20.845187
819.201336	-2.986600	3.700900	-11.051000	24.379224	0.000446	20.845310
820.202630	-3.016100	3.698500	-11.154000	24.368682	0.000446	20.824778
821.204778	-3.001600	3.698800	-11.101000	24.357609	0.000445	20.847334
822.202503	-3.010600	3.698200	-11.133000	24.404377	0.000445	20.831663
823.203014	-3.001600	3.699000	-11.101000	24.378007	0.000445	20.846460
824.202955	-2.992000	3.697700	-11.063000	24.369652	0.000445	20.833337
825.201522	-2.984300	3.698100	-11.034000	24.372636	0.000446	20.841072
826.202555	-3.010800	3.696500	-11.129000	24.386688	0.000445	20.858013
827.207046	-2.989100	3.696600	-11.048000	24.392635	0.000443	20.838375
828.202071	-3.029900	3.696500	-11.198000	24.386963	0.000443	20.845013
829.204550	-2.986600	3.697400	-11.041000	24.365870	0.000444	20.842820
830.203647	-3.003400	3.695500	-11.098000	24.407241	0.000444	20.855398
831.206381	-2.984800	3.696500	-11.032000	24.403834	0.000444	20.854825
832.205292	-2.980700	3.696100	-11.015000	24.391870	0.000443	20.842349
833.204208	-3.008900	3.695600	-11.119000	24.389556	0.000441	20.831019
834.203165	-2.989100	3.696000	-11.046000	24.409114	0.000443	20.838312
835.205218	-2.991000	3.694700	-11.050000	24.405362	0.000438	20.820323
836.205884	-3.010400	3.694300	-11.119000	24.394688	0.000442	20.832849
837.206770	-2.991600	3.694300	-11.050000	24.399468	0.000441	20.832428
838.206369	-3.008100	3.694700	-11.113000	24.399542	0.000440	20.838192
839.205805	-3.024000	3.693900	-11.170000	24.408797	0.000439	20.841313
840.209524	-3.014900	3.694100	-11.137000	24.422384	0.000441	20.837874
841.210080	-3.008100	3.693900	-11.111000	24.403478	0.000440	20.817960
842.209713	-3.011300	3.692300	-11.117000	24.415270	0.000439	20.806082
843.208543	-3.010300	3.692800	-11.116000	24.410674	0.000440	20.829920
844.208443	-3.024900	3.692900	-11.170000	24.405052	0.000438	20.828547
845.208871	-3.006400	3.692800	-11.100000	24.424508	0.000439	20.834315
846.209633	-3.004000	3.692900	-11.092000	24.422518	0.000438	20.825681
847.208139	-3.019300	3.692300	-11.146000	24.466825	0.000438	20.817501
848.207890	-2.977200	3.694000	-10.996000	24.430680	0.000439	20.824387
849.210877	-3.035900	3.690400	-11.202000	24.449539	0.000438	20.828608
850.207994	-3.000700	3.691800	-11.077000	24.447501	0.000438	20.818503
851.208697	-3.017500	3.690200	-11.134000	24.444217	0.000438	20.810467
852.211193	-3.001500	3.692500	-11.082000	24.442528	0.000438	20.823945
853.212966	-3.004800	3.691800	-11.092000	24.427728	0.000437	20.820477
854.211328	-3.025900	3.689200	-11.163000	24.449723	0.000437	20.812198
855.211364	-3.012300	3.690100	-11.114000	24.421338	0.000436	20.825445
856.209821	-2.993600	3.690400	-11.046000	24.441788	0.000437	20.836478
857.209473	-2.993700	3.690800	-11.048000	24.444824	0.000436	20.821507
858.211266	-3.013500	3.689800	-11.119000	24.439774	0.000436	20.821656
859.209407	-3.008700	3.689400	-11.100000	24.450274	0.000435	20.809905
860.212724	-2.991700	3.689600	-11.037000	24.451868	0.000435	20.817194
861.214219	-2.989200	3.689100	-11.027000	24.455423	0.000435	20.809381
862.213428	-2.987900	3.688300	-11.019000	24.442243	0.000436	20.817969
863.225925	-2.991900	3.688300	-11.034000	24.464308	0.000435	20.815924
864.212331	-3.021300	3.688000	-11.142000	24.449061	0.000435	20.821490
865.215933	-2.992000	3.688600	-11.035000	24.438992	0.000433	20.818500
866.212416	-2.989600	3.687500	-11.024000	24.454687	0.000432	20.804375
867.214959	-2.981300	3.688900	-10.997000	24.441679	0.000432	20.834947
868.214548	-2.985800	3.688600	-11.012000	24.451333	0.000433	20.803381
869.215222	-3.013900	3.686300	-11.109000	24.453474	0.000433	20.828288
870.219648	-3.001700	3.687800	-11.069000	24.466033	0.000431	20.810543
871.220186	-3.007100	3.687000	-11.087000	24.429423	0.000433	20.802263
872.228364	-2.998000	3.688000	-11.055000	24.465819	0.000432	20.804638
873.232836	-2.997900	3.685900	-11.049000	24.466045	0.000433	20.812451
874.230434	-3.018700	3.685000	-11.122000	24.465847	0.000432	20.799925
875.235382	-2.968300	3.687200	-10.944000	24.479454	0.000430	20.803145
876.229414	-3.004300	3.685900	-11.072000	24.446079	0.000431	20.787679
877.235161	-2.980600	3.684900	-10.981000	24.463615	0.000428	20.803375
878.228152	-2.983900	3.685900	-10.998000	24.473568	0.000430	20.811939
879.221126	-3.000200	3.684900	-11.054000	24.464737	0.000429	20.807346
880.229314	-3.016100	3.684000	-11.109000	24.465164	0.000428	20.793550
881.227482	-2.994800	3.685200	-11.035000	24.462579	0.000429	20.831733
882.232242	-2.991700	3.684300	-11.022000	24.476412	0.000429	20.786816
883.227143	-2.987200	3.683800	-11.003000	24.476190	0.000428	20.808879
884.225462	-3.013300	3.684300	-11.101000	24.471439	0.000429	20.806957
885.230270	-3.008800	3.682800	-11.080000	24.477907	0.000429	20.795429
886.226219	-2.999400	3.682500	-11.043000	24.487141	0.000425	20.782408
887.224866	-3.000400	3.683500	-11.050000	24.489825	0.000427	20.806437
888.232144	-2.972500	3.682800	-10.945000	24.493532	0.000428	20.811105
889.225749	-2.987200	3.682400	-11.000000	24.488711	0.000426	20.801526
890.222392	-3.014600	3.681900	-11.099000	24.493112	0.000427	20.806891
891.230047	-2.989800	3.681700	-11.007000	24.487022	0.000427	20.812160
892.222346	-3.015000	3.682200	-11.100000	24.486574	0.000427	20.809340
893.230533	-3.004100	3.681200	-11.057000	24.488419	0.000425	20.812613
894.233286	-2.998100	3.682000	-11.038000	24.489808	0.000424	20.789825
895.222476	-2.989600	3.681500	-11.005000	24.507992	0.000424	20.788155
896.228245	-2.997800	3.681000	-11.034000	24.498146	0.000426	20.795820
897.243380	-3.003600	3.680300	-11.053000	24.491805	0.000425	20.810794
898.235770	-2.993300	3.679400	-11.012000	24.497899	0.000424	20.782770
899.233125	-3.011100	3.678900	-11.077000	24.491233	0.000427	20.783669
900.237522	-3.002200	3.680300	-11.049000	24.509714	0.000423	20.786089
901.233233	-3.032300	3.678500	-11.154000	24.495240	0.000425	20.781525
902.228413	-3.007900	3.678400	-11.064000	24.504646	0.000425	20.778160
903.230048	-3.005900	3.678500	-11.057000	24.489893	0.000423	20.768099
904.229963	-3.002600	3.679200	-11.046000	24.512878	0.000424	20.781203
905.235029	-2.997100	3.678000	-11.023000	24.523123	0.000424	20.783421
906.226383	-2.990000	3.676900	-10.993000	24.515491	0.000423	20.793308
907.228096	-2.991400	3.677600	-11.001000	24.514990	0.000423	20.776210
908.247654	-2.996200	3.677200	-11.017000	24.504819	0.000424	20.798248
909.233567	-3.001100	3.677300	-11.035000	24.512832	0.000424	20.784950
910.239594	-3.004700	3.677700	-11.049000	24.509298	0.000425	20.784724
911.234281	-2.988300	3.678800	-10.992000	24.519173	0.000424	20.782778
912.237835	-2.995600	3.677700	-11.016000	24.533002	0.000421	20.771996
913.257539	-2.981200	3.677400	-10.962000	24.510219	0.000420	20.793708
914.240555	-2.989800	3.676500	-10.991000	24.539272	0.000420	20.783503
915.237370	-2.990200	3.675200	-10.989000	24.544968	0.000420	20.789692
916.246425	-2.999500	3.675600	-11.025000	24.543328	0.000419	20.773348
917.236831	-2.986500	3.675100	-10.975000	24.538804	0.000421	20.776869
918.234048	-3.010500	3.674700	-11.062000	24.549952	0.000420	20.791374
919.233817	-2.998200	3.675500	-11.019000	24.540546	0.000420	20.787152
920.237267	-3.003400	3.674700	-11.036000	24.521647	0.000420	20.772457
921.236268	-3.011500	3.674800	-11.065000	24.529434	0.000419	20.797340
922.230967	-3.019500	3.674900	-11.095000	24.537620	0.000419	20.784216
923.231884	-2.998300	3.674300	-11.016000	24.532047	0.000417	20.774831
924.241680	-3.019500	3.672500	-11.088000	24.542448	0.000420	20.782422
925.237954	-3.010200	3.674300	-11.060000	24.552573	0.000421	20.764131
926.236774	-2.982000	3.674500	-10.957000	24.536160	0.000419	20.763311
927.239095	-3.006700	3.673000	-11.043000	24.540064	0.000418	20.775289
928.237763	-2.988100	3.672700	-10.974000	24.553124	0.000419	20.770374
929.247239	-2.995100	3.673500	-11.001000	24.547181	0.000418	20.780533
930.251132	-2.988800	3.673300	-10.978000	24.541757	0.000416	20.785996
931.249177	-2.994100	3.673000	-10.996000	24.556916	0.000418	20.778920
932.241126	-3.007100	3.672500	-11.043000	24.565496	0.000416	20.776150
933.238721	-3.017200	3.670500	-11.074000	24.557639	0.000418	20.788655
934.237908	-3.004600	3.670900	-11.028000	24.560774	0.000416	20.767144
935.238474	-3.011400	3.670100	-11.052000	24.553764	0.000416	20.780499
936.242281	-3.024700	3.669800	-11.100000	24.542077	0.000416	20.790110
937.243302	-2.987000	3.672000	-10.967000	24.559812	0.000414	20.766653
938.243597	-3.009300	3.670400	-11.045000	24.555337	0.000414	20.754102
939.250920	-3.004700	3.670900	-11.028000	24.556036	0.000414	20.759545
940.246572	-3.002400	3.670800	-11.020000	24.589017	0.000415	20.769877
941.244050	-2.998500	3.670200	-11.003000	24.566017	0.000414	20.762447
942.242362	-3.001500	3.670100	-11.015000	24.555674	0.000414	20.772458
943.241126	-3.003400	3.669000	-11.019000	24.560769	0.000416	20.750069
944.244494	-3.008600	3.669200	-11.038000	24.564874	0.000414	20.750869
945.239256	-3.001100	3.669000	-11.010000	24.579105	0.000415	20.753768
946.254652	-2.987200	3.668200	-10.957000	24.582786	0.000414	20.757462
947.245996	-3.004700	3.668700	-11.021000	24.569855	0.000414	20.760608
948.241421	-2.979200	3.668400	-10.928000	24.577066	0.000413	20.757412
949.253892	-2.993200	3.668100	-10.979000	24.583937	0.000412	20.762410
950.242334	-2.985500	3.667700	-10.949000	24.574017	0.000412	20.776164
951.249152	-2.970200	3.668600	-10.895000	24.577921	0.000411	20.733613
952.246088	-2.991000	3.666900	-10.966000	24.582950	0.000412	20.744824
953.242372	-3.002000	3.666800	-11.006000	24.593096	0.000410	20.759271
954.246421	-2.991800	3.666700	-10.969000	24.592003	0.000410	20.766710
955.247558	-3.004400	3.666800	-11.016000	24.578278	0.000409	20.745825
956.242768	-3.010900	3.665300	-11.034000	24.586911	0.000411	20.735047
957.244979	-2.995700	3.666700	-10.983000	24.590071	0.000410	20.726363
958.244382	-2.996300	3.665700	-10.983000	24.580941	0.000409	20.756084
959.253021	-3.020100	3.665500	-11.069000	24.591292	0.000407	20.738494
960.246347	-3.021100	3.665400	-11.072000	24.599925	0.000409	20.738622
961.248422	-2.997600	3.665000	-10.985000	24.589952	0.000409	20.745685
962.250814	-2.998300	3.665200	-10.989000	24.598984	0.000408	20.730565
963.240999	-3.007500	3.665100	-11.022000	24.605155	0.000409	20.742922
964.250842	-3.010700	3.664200	-11.031000	24.585308	0.000410	20.729645
965.252141	-2.992000	3.665000	-10.964000	24.603393	0.000406	20.757275
966.245514	-3.009500	3.662700	-11.021000	24.604687	0.000408	20.741978
967.249146	-2.991700	3.664400	-10.963000	24.598819	0.000407	20.736090
968.247272	-3.023900	3.662400	-11.074000	24.600265	0.000405	20.750344
969.249612	-3.003100	3.662300	-10.997000	24.612851	0.000406	20.760602
970.247843	-3.000400	3.663600	-10.991000	24.624492	0.000405	20.743833
971.254433	-3.015500	3.663100	-11.044000	24.627628	0.000405	20.740340
972.249501	-3.008500	3.662700	-11.018000	24.597019	0.000404	20.730490
973.248709	-2.993900	3.662400	-10.962000	24.630397	0.000406	20.749758
974.240677	-2.969500	3.662500	-10.874000	24.620724	0.000403	20.734361
975.248518	-3.027100	3.661500	-11.083000	24.620227	0.000403	20.738130
976.251196	-3.000700	3.661600	-10.985000	24.618961	0.000404	20.724057
977.262267	-2.995900	3.662400	-10.972000	24.614712	0.000403	20.741132
978.247671	-3.009800	3.660500	-11.016000	24.605512	0.000402	20.722890
979.245715	-3.036900	3.660300	-11.115000	24.625786	0.000401	20.740389
980.242943	-3.000000	3.660800	-10.981000	24.600618	0.000402	20.733627
981.244893	-3.001500	3.660200	-10.985000	24.631087	0.000400	20.711567
982.251085	-2.986900	3.659800	-10.930000	24.619824	0.000399	20.730613
983.250124	-2.977800	3.659800	-10.897000	24.621040	0.000398	20.745585
984.252237	-3.014700	3.659200	-11.031000	24.606301	0.000400	20.738855
985.247595	-2.993900	3.660400	-10.958000	24.629977	0.000402	20.730369
986.247352	-2.991800	3.659200	-10.946000	24.602323	0.000399	20.732967
987.253458	-2.996100	3.659100	-10.962000	24.610903	0.000399	20.725929
988.252539	-3.020000	3.658400	-11.047000	24.620004	0.000400	20.738381
989.254368	-2.993800	3.658200	-10.950000	24.635602	0.000401	20.729376
990.251893	-3.008400	3.658300	-11.004000	24.647321	0.000398	20.725961
991.258178	-3.001200	3.657700	-10.977000	24.633642	0.000399	20.732625
992.261278	-2.994300	3.657400	-10.951000	24.621179	0.000399	20.725335
993.250373	-2.995500	3.657600	-10.956000	24.642324	0.000400	20.732802
994.248404	-3.014500	3.656200	-11.021000	24.627951	0.000397	20.723120
995.254400	-3.002100	3.655900	-10.975000	24.609925	0.000396	20.721628
996.257526	-3.004200	3.656300	-10.983000	24.638626	0.000397	20.744739
997.254038	-3.013600	3.656200	-11.017000	24.633905	0.000397	20.729095
998.257356	-2.997700	3.655300	-10.956000	24.651389	0.000397	20.724827
999.249332	-2.993500	3.654800	-10.939000	24.638906	0.000397	20.720362
1000.261411	-2.989000	3.654700	-10.923000	24.637192	0.000395	20.722910
1001.268777	-2.992800	3.654700	-10.937000	24.657963	0.000396	20.720044
1002.255640	-2.983800	3.656000	-10.908000	24.634340	0.000397	20.722893
1003.261014	-2.999300	3.654600	-10.960000	24.654310	0.000395	20.733449
1004.253498	-3.028100	3.653700	-11.063000	24.660128	0.000392	20.730278
1005.254101	-2.983100	3.654400	-10.901000	24.646454	0.000394	20.721772
1006.266023	-2.987300	3.654900	-10.917000	24.643943	0.000394	20.723520
1007.260891	-3.015400	3.652700	-11.014000	24.650234	0.000395	20.718927
1008.257216	-3.021000	3.653600	-11.037000	24.663222	0.000395	20.733857
1009.259549	-3.007600	3.653300	-10.987000	24.673967	0.000394	20.728992
1010.256899	-3.011900	3.653100	-11.002000	24.668124	0.000393	20.723128
1011.253664	-2.990800	3.653500	-10.926000	24.654844	0.000392	20.710750
1012.252058	-3.020100	3.651400	-11.026000	24.649198	0.000389	20.722629
1013.252502	-3.010100	3.652000	-10.992000	24.652112	0.000392	20.733614
1014.262366	-2.988900	3.652300	-10.916000	24.667187	0.000392	20.721714
1015.255800	-3.001900	3.651300	-10.960000	24.674818	0.000390	20.724629
1016.260591	-2.989100	3.651600	-10.913000	24.672233	0.000392	20.728200
1017.253732	-2.994900	3.651100	-10.933000	24.660847	0.000389	20.712981
1018.260160	-2.997000	3.651000	-10.940000	24.676691	0.000390	20.715603
1019.257171	-3.007800	3.651000	-10.980000	24.694244	0.000388	20.741753
1020.256106	-2.989300	3.651400	-10.914000	24.681683	0.000391	20.713026
1021.258402	-3.005300	3.649900	-10.968000	24.680122	0.000390	20.707666
1022.280529	-3.000800	3.649100	-10.950000	24.680270	0.000389	20.726782
1023.264117	-3.007100	3.650300	-10.976000	24.682608	0.000388	20.725334
1024.262840	-2.947400	3.651300	-10.761000	24.687156	0.000389	20.726580
1025.271620	-2.986100	3.649500	-10.897000	24.683376	0.000387	20.723734
1026.262223	-2.995000	3.650400	-10.931000	24.678429	0.000388	20.702173
1027.257668	-2.992100	3.648300	-10.915000	24.656397	0.000388	20.740760
1028.274002	-2.996500	3.649300	-10.934000	24.675249	0.000389	20.732175
1029.263188	-2.996600	3.648200	-10.931000	24.678055	0.000387	20.725033
1030.264003	-3.020100	3.648400	-11.018000	24.693850	0.000386	20.723339
1031.271077	-2.980100	3.648500	-10.872000	24.730458	0.000388	20.755809
1032.263456	-3.011300	3.646000	-10.979000	24.701159	0.000386	20.724984
1033.277415	-3.022800	3.646300	-11.021000	24.683758	0.000385	20.746404
1034.270161	-2.986600	3.647000	-10.891000	24.714915	0.000387	20.708915
1035.261992	-2.998600	3.647000	-10.935000	24.707109	0.000385	20.713410
1036.266675	-2.993700	3.647700	-10.919000	24.703949	0.000386	20.739638
1037.266572	-3.012100	3.646300	-10.982000	24.695768	0.000384	20.731903
1038.268518	-3.021800	3.646700	-11.017000	24.704939	0.000387	20.727829
1039.269647	-2.988200	3.646400	-10.895000	24.709270	0.000385	20.730752
1040.279077	-2.987300	3.645400	-10.889000	24.712179	0.000384	20.755958
1041.264906	-2.995700	3.645900	-10.920000	24.705888	0.000383	20.736842
1042.269223	-3.016100	3.645200	-10.993000	24.724612	0.000383	20.734768
1043.270988	-2.991400	3.645500	-10.904000	24.701932	0.000382	20.743778
1044.264186	-2.997800	3.644300	-10.923000	24.710786	0.000381	20.722790
1045.273666	-3.014800	3.643000	-10.982000	24.710412	0.000383	20.744701
1046.270266	-3.001700	3.644200	-10.937000	24.691138	0.000380	20.732946
1047.266485	-2.995600	3.643000	-10.912000	24.743388	0.000383	20.717574
1048.275088	-2.987500	3.644000	-10.885000	24.716805	0.000382	20.745427
1049.273930	-3.000600	3.642700	-10.929000	24.715634	0.000384	20.770331
1050.274571	-2.978800	3.643400	-10.851000	24.736104	0.000382	20.732550
1051.270761	-3.004700	3.642100	-10.942000	24.724957	0.000381	20.723734
1052.273226	-2.993700	3.642300	-10.903000	24.732993	0.000378	20.736541
1053.275049	-3.009400	3.641800	-10.959000	24.708801	0.000378	20.745456
1054.270394	-3.010700	3.641700	-10.963000	24.726107	0.000379	20.750495
1055.275397	-2.976500	3.642000	-10.840000	24.724447	0.000379	20.739819
1056.269472	-3.006800	3.640800	-10.947000	24.755451	0.000380	20.743431
1057.274614	-3.010200	3.642200	-10.962000	24.729193	0.000379	20.745056
1058.280815	-2.999700	3.642100	-10.925000	24.750710	0.000380	20.737725
1059.274769	-2.994900	3.640900	-10.903000	24.754091	0.000378	20.741118
1060.280284	-3.002100	3.640600	-10.928000	24.747821	0.000377	20.726291
1061.277928	-3.020300	3.638900	-10.989000	24.760780	0.000377	20.724596
1062.277263	-3.001400	3.640000	-10.924000	24.723601	0.000377	20.735651
1063.275466	-2.990000	3.639900	-10.882000	24.728453	0.000376	20.759961
1064.291015	-2.982800	3.640900	-10.859000	24.743105	0.000376	20.759491
1065.273052	-2.996400	3.640400	-10.907000	24.753327	0.000376	20.744145
1066.282282	-3.003400	3.638600	-10.927000	24.753849	0.000377	20.759368
1067.282337	-2.961500	3.638400	-10.773000	24.756092	0.000373	20.738859
1068.275131	-2.973500	3.640000	-10.822000	24.762855	0.000375	20.770777
1069.278472	-2.997700	3.638000	-10.905000	24.769297	0.000374	20.748318
1070.279487	-3.008200	3.636700	-10.939000	24.781680	0.000372	20.736088
1071.278978	-2.987600	3.637400	-10.866000	24.743035	0.000373	20.748515
1072.279377	-2.990600	3.637100	-10.876000	24.738766	0.000373	20.740438
1073.275661	-2.985600	3.638900	-10.863000	24.742201	0.000372	20.747204
1074.277039	-2.995200	3.637500	-10.894000	24.758261	0.000374	20.764744
1075.278221	-3.019100	3.635300	-10.975000	24.758233	0.000372	20.756181
1076.279112	-2.988100	3.636000	-10.864000	24.765225	0.000372	20.760353
1077.280500	-2.998200	3.635700	-10.900000	24.753035	0.000372	20.760448
1078.275106	-2.988800	3.635900	-10.866000	24.764132	0.000372	20.738867
1079.286187	-2.993800	3.634800	-10.880000	24.776791	0.000371	20.751097
1080.276360	-2.979900	3.635700	-10.833000	24.766893	0.000373	20.742586
1081.281791	-2.997200	3.635000	-10.893000	24.794568	0.000372	20.772257
1082.277943	-2.969700	3.635400	-10.794000	24.776515	0.000371	20.741811
1083.279802	-2.994100	3.634700	-10.880000	24.814732	0.000369	20.747448
1084.277883	-3.021100	3.633400	-10.976000	24.778134	0.000369	20.761454
1085.289647	-2.988100	3.633300	-10.855000	24.768405	0.000368	20.777295
1086.283445	-2.997500	3.632800	-10.888000	24.771043	0.000367	20.755760
1087.283240	-3.019500	3.631500	-10.964000	24.787432	0.000368	20.751344
1088.299356	-3.003400	3.632800	-10.910000	24.801729	0.000369	20.762848
1089.287311	-3.002900	3.632300	-10.906000	24.793648	0.000366	20.772756
1090.285223	-2.994900	3.631800	-10.877000	24.803077	0.000366	20.779373
1091.278123	-3.010700	3.631400	-10.932000	24.786668	0.000367	20.748206
1092.284146	-3.009600	3.631000	-10.927000	24.792978	0.000367	20.770187
1093.288611	-2.999700	3.632000	-10.894000	24.795990	0.000365	20.769416
1094.283733	-3.016700	3.631200	-10.953000	24.801433	0.000365	20.772983
1095.278363	-3.012900	3.629000	-10.933000	24.819765	0.000365	20.764827
1096.279498	-3.013900	3.629900	-10.939000	24.807579	0.000365	20.738846
1097.282927	-3.014500	3.629600	-10.940000	24.802337	0.000366	20.761087
1098.291731	-3.010900	3.628400	-10.924000	24.801441	0.000365	20.775836
1099.279228	-3.021100	3.629800	-10.966000	24.827496	0.000363	20.758836
1100.288994	-2.985500	3.629900	-10.836000	24.789482	0.000363	20.771420
1101.285893	-3.024200	3.629100	-10.973000	24.813730	0.000361	20.763986
1102.286994	-2.971900	3.629200	-10.784000	24.808775	0.000365	20.776083
1103.280571	-2.992900	3.628800	-10.860000	24.824444	0.000363	20.778058
1104.301032	-2.998400	3.627800	-10.877000	24.809403	0.000362	20.794258
1105.296950	-3.006900	3.627500	-10.906000	24.797995	0.000363	20.775222
1106.294240	-3.008100	3.627600	-10.912000	24.818035	0.000362	20.759298
1107.289387	-3.006600	3.626300	-10.902000	24.813035	0.000360	20.773721
1108.283346	-3.015300	3.626700	-10.935000	24.810998	0.000360	20.761244
1109.291943	-3.002900	3.626900	-10.890000	24.792321	0.000358	20.796080
1110.283030	-3.001600	3.627800	-10.887000	24.813808	0.000359	20.779712
1111.306847	-3.011500	3.625900	-10.919000	24.827410	0.000357	20.785303
1112.292598	-2.991000	3.627200	-10.848000	24.829575	0.000358	20.766612
1113.285965	-2.994500	3.625300	-10.855000	24.824259	0.000359	20.771235
1114.296096	-2.994100	3.624600	-10.851000	24.839250	0.000357	20.770158
1115.286621	-3.015900	3.624300	-10.929000	24.835943	0.000358	20.779167
1116.284971	-3.006300	3.625500	-10.899000	24.830027	0.000357	20.776549
1117.285467	-3.024300	3.624400	-10.959000	24.846436	0.000359	20.776421
1118.291708	-2.997500	3.624900	-10.865000	24.817448	0.000356	20.771511
1119.286624	-2.984300	3.625300	-10.818000	24.823639	0.000357	20.770138
1120.288043	-2.994300	3.623000	-10.846000	24.843379	0.000356	20.801329
1121.285787	-2.992900	3.623800	-10.845000	24.838285	0.000354	20.797639
1122.290957	-2.978800	3.623700	-10.793000	24.845343	0.000353	20.796188
1123.291062	-3.002700	3.622500	-10.876000	24.876549	0.000354	20.796687
1124.292210	-2.971800	3.622800	-10.764000	24.823014	0.000353	20.784210
1125.291548	-3.008800	3.621600	-10.895000	24.849373	0.000354	20.779370
1126.291839	-2.993700	3.620900	-10.839000	24.860708	0.000353	20.786004
1127.292770	-2.995700	3.621300	-10.847000	24.822341	0.000355	20.778318
1128.285451	-2.981000	3.621100	-10.793000	24.825673	0.000352	20.763644
1129.284814	-2.991500	3.620600	-10.830000	24.832759	0.000355	20.783559
1130.289712	-3.002000	3.620900	-10.868000	24.860535	0.000352	20.795788
1131.288685	-3.006300	3.620600	-10.884000	24.860309	0.000352	20.793664
1132.291946	-2.995100	3.619300	-10.839000	24.858966	0.000352	20.798954
1133.303567	-2.991200	3.619700	-10.826000	24.850885	0.000352	20.788947
1134.290814	-2.998800	3.620400	-10.856000	24.851160	0.000352	20.784482
1135.291229	-3.001800	3.618600	-10.861000	24.859364	0.000350	20.806466
1136.284852	-2.976700	3.619900	-10.774000	24.861780	0.000351	20.787554
1137.289458	-2.992800	3.618800	-10.829000	24.855515	0.000350	20.824414
1138.291863	-3.008900	3.617600	-10.884000	24.862626	0.000350	20.802154
1139.283662	-2.974900	3.619400	-10.766000	24.872749	0.000351	20.786709
1140.290901	-2.983400	3.618300	-10.794000	24.876824	0.000350	20.797437
1141.298987	-3.014800	3.617100	-10.904000	24.882045	0.000350	20.809315
1142.297050	-2.994200	3.617500	-10.831000	24.871056	0.000348	20.789752
1143.298451	-2.980500	3.617200	-10.780000	24.880681	0.000347	20.798464
1144.294798	-3.002400	3.615800	-10.855000	24.908357	0.000346	20.781196
1145.294079	-2.982300	3.616600	-10.785000	24.873348	0.000347	20.811967
1146.294442	-3.007200	3.617000	-10.876000	24.882152	0.000347	20.823173
1147.295824	-3.001000	3.616300	-10.850000	24.893116	0.000347	20.810944
1148.304374	-3.014300	3.613400	-10.891000	24.877699	0.000348	20.808747
1149.289399	-3.014200	3.614000	-10.892000	24.888372	0.000345	20.809975
1150.293061	-2.999100	3.615800	-10.843000	24.878800	0.000346	20.815067
1151.293313	-3.001800	3.614200	-10.847000	24.891137	0.000345	20.813224
1152.298528	-2.989500	3.615200	-10.805000	24.898301	0.000344	20.800501
1153.306986	-3.021300	3.613100	-10.915000	24.896383	0.000344	20.813748
1154.296178	-2.984000	3.613600	-10.782000	24.869610	0.000344	20.798732
1155.298449	-2.987800	3.613200	-10.793000	24.884408	0.000346	20.792246
1156.302376	-2.997500	3.611900	-10.826000	24.895746	0.000344	20.825437
1157.288454	-3.002300	3.612500	-10.845000	24.892016	0.000345	20.814107
1158.296576	-3.008500	3.612700	-10.868000	24.888614	0.000345	20.812590
1159.306118	-2.986200	3.613600	-10.789000	24.898959	0.000343	20.804480
1160.301125	-2.996300	3.611700	-10.820000	24.918529	0.000342	20.826018
1161.295536	-3.013000	3.611700	-10.880000	24.896403	0.000342	20.803338
1162.292932	-3.000400	3.611200	-10.833000	24.910946	0.000341	20.798019
1163.304842	-2.989100	3.610400	-10.791000	24.912096	0.000341	20.815295
1164.309126	-2.973900	3.610800	-10.737000	24.911554	0.000340	20.819966
1165.301182	-2.976500	3.610800	-10.746000	24.921027	0.000340	20.792490
1166.299351	-2.998200	3.610200	-10.822000	24.914216	0.000339	20.804620
1167.296432	-2.999500	3.609400	-10.826000	24.926302	0.000340	20.809164
1168.314044	-3.011000	3.609900	-10.868000	24.929982	0.000337	20.813332
1169.298696	-2.986700	3.609100	-10.778000	24.923299	0.000339	20.811366
1170.293430	-2.990100	3.610000	-10.793000	24.927924	0.000340	20.802258
1171.304651	-2.991900	3.608300	-10.794000	24.923825	0.000337	20.793402
1172.299120	-3.015500	3.607300	-10.876000	24.930960	0.000339	20.832331
1173.305315	-3.007100	3.607900	-10.849000	24.931116	0.000338	20.823953
1174.308177	-3.001600	3.608100	-10.829000	24.919947	0.000336	20.817959
1175.308603	-2.999100	3.607100	-10.817000	24.921319	0.000337	20.819336
1176.306615	-3.008100	3.607500	-10.851000	24.922909	0.000338	20.820457
1177.304538	-2.994400	3.607500	-10.802000	24.943925	0.000337	20.813576
1178.305155	-2.998900	3.606800	-10.815000	24.911082	0.000335	20.810010
1179.300674	-2.985100	3.606100	-10.764000	24.934678	0.000336	20.807140
1180.303649	-3.015000	3.604600	-10.866000	24.923517	0.000333	20.822016
1181.304284	-3.001100	3.606100	-10.821000	24.944155	0.000336	20.819023
1182.313109	-2.974800	3.606700	-10.728000	24.944184	0.000335	20.814784
1183.315995	-2.991900	3.604100	-10.782000	24.953907	0.000333	20.828337
1184.306823	-3.009400	3.605400	-10.848000	24.924121	0.000334	20.823571
1185.302534	-2.991000	3.604300	-10.780000	24.954532	0.000334	20.827541
1186.308280	-3.003500	3.603200	-10.820000	24.921837	0.000331	20.821278
1187.309721	-3.000200	3.603200	-10.809000	24.935541	0.000331	20.824602
1188.309571	-3.001300	3.604100	-10.816000	24.932391	0.000331	20.818595
1189.309034	-3.012500	3.603400	-10.855000	24.940718	0.000330	20.833116
1190.307523	-3.019400	3.601900	-10.875000	24.944600	0.000330	20.836064
1191.316997	-2.991200	3.601400	-10.771000	24.948905	0.000331	20.809091
1192.310908	-2.995500	3.602600	-10.790000	24.932400	0.000329	20.838991
1193.310828	-2.996600	3.602300	-10.794000	24.956241	0.000330	20.838740
1194.317486	-3.001000	3.601100	-10.806000	24.935608	0.000330	20.828461
1195.316164	-3.016700	3.600100	-10.859000	24.932252	0.000328	20.815136
1196.302689	-2.994200	3.599800	-10.777000	24.956299	0.000327	20.848755
1197.306124	-3.009800	3.600200	-10.834000	24.962564	0.000327	20.832283
1198.310442	-2.989800	3.601100	-10.766000	24.964383	0.000326	20.836007
1199.305394	-2.997900	3.600600	-10.793000	24.965004	0.000327	20.841845
1200.310648	-2.972100	3.600300	-10.699000	24.978333	0.000326	20.854749
1201.303282	-3.012600	3.599200	-10.842000	24.961381	0.000327	20.827303
1202.322477	-3.011800	3.599100	-10.839000	24.948877	0.000327	20.837512
1203.320109	-2.980300	3.599100	-10.724000	24.957154	0.000325	20.863362
1204.311112	-3.018200	3.598200	-10.859000	24.973195	0.000325	20.840584
1205.327852	-2.995500	3.598300	-10.779000	24.968623	0.000325	20.835995
1206.317027	-3.022800	3.596600	-10.871000	24.964643	0.000324	20.842905
1207.307227	-3.011900	3.597000	-10.832000	24.960593	0.000324	20.836469
1208.303449	-3.000800	3.596300	-10.790000	24.982696	0.000323	20.865766
1209.317998	-2.980500	3.596800	-10.719000	24.969774	0.000322	20.841891
1210.301462	-2.994000	3.597300	-10.769000	24.978868	0.000322	20.838217
1211.311250	-2.999100	3.597000	-10.787000	24.995898	0.000324	20.873802
1212.315602	-2.980800	3.596900	-10.721000	24.984192	0.000322	20.835026
1213.304914	-3.008700	3.596600	-10.821000	24.989589	0.000322	20.853720
1214.307746	-2.993100	3.595800	-10.761000	25.010620	0.000322	20.862975
1215.300550	-3.001100	3.595900	-10.790000	24.999633	0.000320	20.843412
1216.308906	-2.997800	3.594900	-10.776000	24.987375	0.000319	20.851497
1217.307746	-2.992500	3.595900	-10.759000	24.997246	0.000320	20.854767
1218.315739	-2.984200	3.595600	-10.729000	24.994884	0.000320	20.850025
1219.306205	-3.011100	3.593900	-10.821000	25.004282	0.000317	20.842390
1220.303164	-2.983100	3.594600	-10.722000	24.982154	0.000317	20.859533
1221.305501	-2.992200	3.594100	-10.754000	24.996572	0.000318	20.866418
1222.307080	-3.001800	3.593400	-10.786000	25.017681	0.000319	20.863425
1223.307543	-2.999800	3.591700	-10.773000	25.017229	0.000317	20.866764
1224.308252	-3.003000	3.592200	-10.787000	24.989162	0.000318	20.856135
1225.314158	-2.983200	3.592400	-10.716000	25.009947	0.000319	20.853765
1226.310526	-3.020400	3.591400	-10.847000	25.025358	0.000318	20.859751
1227.308383	-2.983700	3.592800	-10.719000	24.997562	0.000316	20.866463
1228.323747	-3.019100	3.589500	-10.836000	25.018843	0.000315	20.877867
1229.310506	-3.009900	3.590600	-10.807000	25.023637	0.000316	20.850911
1230.316535	-3.000600	3.590500	-10.773000	25.034452	0.000314	20.878835
1231.313778	-2.989700	3.590100	-10.732000	25.027190	0.000317	20.860167
1232.328279	-3.005300	3.589500	-10.787000	25.026397	0.000315	20.853682
1233.318113	-3.004800	3.588600	-10.781000	25.016945	0.000314	20.857471
1234.311617	-2.982600	3.589300	-10.704000	25.021443	0.000314	20.866726
1235.308451	-3.008800	3.588700	-10.796000	25.029818	0.000314	20.841944
1236.324241	-3.002100	3.588400	-10.772000	25.037125	0.000314	20.852597
1237.311519	-3.024800	3.587800	-10.852000	25.029744	0.000311	20.849456
1238.312916	-3.007500	3.586900	-10.787000	25.031235	0.000312	20.847633
1239.312757	-2.997300	3.587800	-10.752000	25.022905	0.000311	20.850651
1240.314998	-2.996300	3.588100	-10.750000	25.046868	0.000310	20.864747
1241.314004	-3.010300	3.587800	-10.799000	25.012036	0.000309	20.861552
1242.313139	-3.006800	3.585800	-10.780000	25.050840	0.000311	20.856406
1243.316020	-2.999600	3.586500	-10.757000	25.044104	0.000310	20.850119
1244.316524	-3.010500	3.586200	-10.795000	25.041516	0.000308	20.833771
1245.320294	-2.996000	3.587400	-10.747000	25.042608	0.000308	20.838187
1246.312247	-2.997200	3.586100	-10.747000	25.026573	0.000308	20.838686
1247.318601	-2.988000	3.586600	-10.715000	25.051534	0.000306	20.837663
1248.314641	-2.983500	3.586200	-10.699000	25.045590	0.000308	20.842129
1249.330894	-2.968500	3.585700	-10.644000	25.050860	0.000309	20.851211
1250.315857	-2.999100	3.584200	-10.748000	25.042091	0.000306	20.834349
1251.323874	-2.977500	3.585200	-10.673000	25.054742	0.000306	20.831401
1252.321970	-3.000300	3.582600	-10.748000	25.045709	0.000306	20.833239
1253.321672	-2.996900	3.584200	-10.740000	25.031091	0.000305	20.830893
1254.326790	-2.990600	3.583800	-10.717000	25.042752	0.000305	20.828374
1255.327939	-3.023000	3.582000	-10.828000	25.043574	0.000303	20.823983
1256.321466	-3.006600	3.582800	-10.771000	25.052869	0.000304	20.833788
1257.314647	-2.988100	3.582900	-10.705000	25.044514	0.000304	20.849108
1258.325936	-3.025900	3.580800	-10.835000	25.055998	0.000304	20.825550
1259.320068	-2.994300	3.581500	-10.723000	25.060944	0.000306	20.829566
1260.328374	-3.006800	3.581600	-10.768000	25.058533	0.000304	20.836154
1261.322350	-3.005200	3.581400	-10.762000	25.048613	0.000302	20.840895
1262.324863	-2.997300	3.581500	-10.733000	25.062336	0.000301	20.845661
1263.329433	-2.982600	3.580400	-10.678000	25.051295	0.000302	20.819406
1264.329203	-3.002900	3.580200	-10.750000	25.065445	0.000302	20.828869
1265.329570	-2.995400	3.579600	-10.721000	25.042247	0.000301	20.826444
1266.335104	-2.990000	3.579200	-10.701000	25.058553	0.000301	20.843761
1267.331774	-3.019100	3.579400	-10.806000	25.054676	0.000299	20.819955
1268.330038	-3.007400	3.577700	-10.758000	25.067680	0.000301	20.827319
1269.326378	-3.011400	3.577900	-10.773000	25.058430	0.000300	20.807128
1270.323367	-3.014000	3.577300	-10.781000	25.054129	0.000299	20.827467
1271.330218	-3.012000	3.577700	-10.775000	25.056536	0.000298	20.820874
1272.326231	-3.021300	3.577900	-10.809000	25.059522	0.000299	20.819604
1273.330675	-3.011300	3.577200	-10.771000	25.057058	0.000297	20.831829
1274.332287	-2.995000	3.576900	-10.712000	25.077669	0.000295	20.826914
1275.330901	-3.015300	3.575900	-10.780000	25.079258	0.000297	20.822346
1276.328930	-2.995800	3.576500	-10.714000	25.061605	0.000295	20.803677
1277.331475	-2.997900	3.575300	-10.717000	25.064069	0.000297	20.834125
1278.337913	-2.997100	3.573700	-10.710000	25.057559	0.000295	20.819056
1279.330717	-2.988600	3.575300	-10.685000	25.065811	0.000294	20.832555
1280.333602	-2.994500	3.575000	-10.704000	25.066032	0.000295	20.816182
1281.342574	-2.999000	3.574200	-10.718000	25.050667	0.000293	20.811663
1282.355560	-2.999100	3.574500	-10.719000	25.055961	0.000294	20.800857
1283.333549	-2.984500	3.574200	-10.666000	25.063646	0.000294	20.824692
1284.341515	-2.986500	3.574300	-10.674000	25.049820	0.000292	20.796589
1285.338793	-2.999100	3.573900	-10.717000	25.055513	0.000293	20.805149
1286.332368	-2.981900	3.572800	-10.652000	25.063671	0.000293	20.802906
1287.339474	-2.998400	3.572100	-10.710000	25.068567	0.000292	20.814933
1288.333670	-2.996700	3.572500	-10.705000	25.048802	0.000292	20.798412
1289.331949	-3.020800	3.571800	-10.789000	25.067794	0.000290	20.823166
1290.332165	-2.999700	3.571300	-10.712000	25.060734	0.000290	20.792846
1291.343822	-3.017100	3.571200	-10.774000	25.068123	0.000291	20.812591
1292.336450	-2.994200	3.571700	-10.692000	25.065137	0.000290	20.784938
1293.332406	-2.990000	3.572100	-10.679000	25.082215	0.000290	20.799236
1294.348896	-2.992000	3.570500	-10.682000	25.067203	0.000290	20.797917
1295.336981	-3.003600	3.570400	-10.723000	25.061588	0.000287	20.807928
1296.339842	-3.003400	3.571300	-10.724000	25.073545	0.000290	20.795748
1297.343371	-3.009000	3.568700	-10.738000	25.069865	0.000288	20.801063
1298.338827	-2.994100	3.570100	-10.689000	25.086421	0.000290	20.790656
1299.346739	-3.011600	3.569000	-10.747000	25.088237	0.000287	20.781573
1300.350454	-3.013800	3.567500	-10.750000	25.076305	0.000285	20.800416
1301.330913	-2.970200	3.568600	-10.599000	25.083288	0.000286	20.812641
1302.334747	-2.978600	3.568700	-10.629000	25.080437	0.000286	20.795555
1303.362859	-2.989500	3.568100	-10.666000	25.086878	0.000284	20.800597
1304.342045	-3.016400	3.567400	-10.759000	25.069894	0.000285	20.794928
1305.340753	-2.986900	3.566400	-10.651000	25.084191	0.000286	20.810703
1306.341907	-3.013100	3.566500	-10.744000	25.072654	0.000284	20.802914
1307.339875	-2.997900	3.566700	-10.691000	25.085834	0.000285	20.782006
1308.347645	-2.991200	3.566100	-10.666000	25.096801	0.000283	20.798231
1309.345263	-2.989700	3.566500	-10.661000	25.081485	0.000283	20.807038
1310.334549	-2.984900	3.565100	-10.640000	25.085243	0.000282	20.774301
1311.348640	-2.987000	3.566400	-10.652000	25.085888	0.000283	20.784431
1312.344242	-3.007000	3.563500	-10.714000	25.099935	0.000281	20.786204
1313.335727	-3.018300	3.564800	-10.758000	25.078084	0.000282	20.786555
1314.339261	-3.006700	3.564300	-10.716000	25.086837	0.000281	20.781590
1315.335820	-3.009300	3.563500	-10.722000	25.083042	0.000281	20.809075
1316.337276	-2.986300	3.564600	-10.644000	25.099520	0.000280	20.787210
1317.337181	-2.992500	3.562900	-10.661000	25.099225	0.000279	20.804457
1318.338027	-2.983000	3.563900	-10.630000	25.097138	0.000279	20.786716
1319.343357	-3.017900	3.562900	-10.752000	25.093035	0.000280	20.771691
1320.339502	-3.022400	3.561600	-10.764000	25.098428	0.000279	20.782795
1321.346459	-2.986800	3.562400	-10.639000	25.103500	0.000278	20.785990
1322.344384	-3.003900	3.561400	-10.697000	25.107530	0.000279	20.777707
1323.347787	-2.982400	3.562000	-10.622000	25.086727	0.000276	20.790014
1324.340354	-3.004700	3.561500	-10.699000	25.092272	0.000278	20.792736
1325.348170	-3.010400	3.559800	-10.715000	25.092994	0.000276	20.787297
1326.343411	-2.990400	3.560600	-10.646000	25.096798	0.000275	20.784477
1327.349099	-2.990800	3.560900	-10.649000	25.086485	0.000276	20.757528
1328.355938	-3.002000	3.559700	-10.685000	25.084616	0.000275	20.784102
1329.355351	-2.990600	3.558900	-10.642000	25.117999	0.000275	20.783001
1330.343615	-3.006200	3.559900	-10.701000	25.095578	0.000273	20.787994
1331.355042	-2.993800	3.559600	-10.655000	25.117979	0.000275	20.782506
1332.349434	-3.009200	3.558700	-10.707000	25.090111	0.000275	20.776342
1333.344709	-3.000000	3.558900	-10.676000	25.117605	0.000275	20.778338
1334.350107	-2.990700	3.558900	-10.642000	25.113477	0.000273	20.777513
1335.342124	-3.015200	3.557900	-10.727000	25.095730	0.000274	20.764439
1336.352955	-3.002900	3.557900	-10.683000	25.093590	0.000272	20.763713
1337.345697	-3.008900	3.556700	-10.700000	25.103008	0.000271	20.776012
1338.351145	-2.991500	3.556600	-10.639000	25.118619	0.000271	20.765605
1339.349150	-2.987900	3.556900	-10.627000	25.104922	0.000272	20.791210
1340.350395	-2.993200	3.556100	-10.644000	25.090826	0.000269	20.770421
1341.354881	-2.998200	3.556300	-10.662000	25.112155	0.000271	20.781401
1342.349834	-3.005900	3.555400	-10.686000	25.102983	0.000271	20.758443
1343.349886	-2.993800	3.555900	-10.645000	25.095598	0.000270	20.757668
1344.342571	-3.005700	3.554600	-10.683000	25.096465	0.000269	20.761383
1345.356583	-3.029500	3.553200	-10.762000	25.094526	0.000268	20.776507
1346.349706	-3.011600	3.554700	-10.705000	25.122714	0.000270	20.762603
1347.348663	-3.012800	3.553000	-10.703000	25.116352	0.000268	20.780399
1348.344455	-3.002700	3.553700	-10.668000	25.093906	0.000267	20.764030
1349.345629	-2.999100	3.554000	-10.657000	25.105612	0.000268	20.755392
1350.350130	-3.002400	3.553700	-10.669000	25.126365	0.000268	20.772907
1351.348477	-3.014600	3.551300	-10.704000	25.137754	0.000266	20.792875
1352.359646	-2.992200	3.552200	-10.628000	25.121769	0.000267	20.760707
1353.357618	-3.008300	3.551600	-10.683000	25.127831	0.000266	20.765844
1354.351795	-3.010700	3.552400	-10.694000	25.128082	0.000264	20.765621
1355.347578	-3.004900	3.551600	-10.671000	25.129799	0.000264	20.769716
1356.353634	-2.990000	3.551100	-10.616000	25.129248	0.000264	20.771534
1357.356747	-2.983000	3.552400	-10.596000	25.135865	0.000262	20.754468
1358.352176	-2.992800	3.550200	-10.625000	25.117617	0.000262	20.769341
1359.353352	-3.012800	3.549400	-10.693000	25.113395	0.000262	20.764628
1360.349576	-3.002600	3.550500	-10.660000	25.109838	0.000262	20.759635
1361.360369	-2.985900	3.550000	-10.598000	25.122069	0.000261	20.749153
1362.351653	-3.007700	3.547500	-10.668000	25.107624	0.000261	20.754093
1363.358580	-3.018200	3.548500	-10.709000	25.115284	0.000258	20.763680
1364.358122	-2.991200	3.548800	-10.615000	25.110935	0.000260	20.760262
1365.357940	-2.980000	3.549600	-10.577000	25.119042	0.000259	20.772194
1366.352993	-2.961500	3.548400	-10.507000	25.140391	0.000260	20.750951
1367.351703	-3.013800	3.549300	-10.696000	25.125183	0.000261	20.762237
1368.356965	-3.006100	3.548500	-10.666000	25.140543	0.000259	20.756794
1369.353566	-2.972900	3.546900	-10.544000	25.116282	0.000255	20.762311
1370.360171	-3.010600	3.545400	-10.673000	25.119613	0.000257	20.749533
1371.357978	-3.013600	3.546900	-10.688000	25.122649	0.000255	20.744045
1372.365746	-2.991100	3.545900	-10.604000	25.121260	0.000258	20.770628
1373.353437	-3.018600	3.546900	-10.705000	25.117428	0.000256	20.745917
1374.363145	-3.016700	3.545100	-10.693000	25.123150	0.000253	20.752609
1375.358333	-3.006400	3.544800	-10.656000	25.140926	0.000254	20.770455
1376.367188	-2.986400	3.544900	-10.586000	25.141221	0.000255	20.741353
1377.370013	-3.014300	3.544800	-10.684000	25.157033	0.000255	20.764814
1378.356164	-2.990000	3.544900	-10.599000	25.138991	0.000253	20.748598
1379.355598	-3.024400	3.542500	-10.712000	25.144014	0.000253	20.743209
1380.367302	-3.004000	3.543900	-10.645000	25.139193	0.000252	20.748800
1381.359996	-3.002800	3.542600	-10.636000	25.146774	0.000251	20.758782
1382.356337	-2.985300	3.543300	-10.576000	25.135468	0.000251	20.764975
1383.357248	-3.019800	3.542600	-10.696000	25.148964	0.000250	20.764773
1384.355019	-2.999800	3.541800	-10.623000	25.120973	0.000250	20.738096
1385.353654	-2.994500	3.541100	-10.603000	25.150734	0.000251	20.756119
1386.358803	-2.981600	3.540900	-10.557000	25.144771	0.000249	20.777634
1387.359083	-2.991500	3.541700	-10.594000	25.136023	0.000250	20.744669
1388.369733	-2.981900	3.541200	-10.559000	25.138483	0.000250	20.743819
1389.368187	-2.990700	3.541500	-10.589000	25.130404	0.000249	20.729545
1390.363690	-3.011600	3.539800	-10.660000	25.143629	0.000247	20.754676
1391.362074	-3.008900	3.539700	-10.649000	25.125139	0.000248	20.752235
1392.360431	-2.993200	3.539600	-10.593000	25.128396	0.000248	20.748867
1393.370820	-3.008500	3.539000	-10.645000	25.146615	0.000246	20.748664
1394.365335	-3.032000	3.538100	-10.726000	25.129907	0.000247	20.734736
1395.367064	-3.014900	3.538000	-10.665000	25.122050	0.000246	20.741073
1396.360657	-2.982600	3.537800	-10.551000	25.142192	0.000246	20.727627
1397.359487	-2.983500	3.537600	-10.554000	25.144972	0.000246	20.722358
1398.364373	-3.012100	3.537400	-10.654000	25.145198	0.000245	20.733017
1399.377464	-3.000900	3.537900	-10.615000	25.142413	0.000244	20.739705
1400.365174	-3.001800	3.537600	-10.619000	25.142664	0.000244	20.726205
1401.364934	-2.985700	3.536500	-10.558000	25.148229	0.000245	20.739853
1402.364708	-3.008700	3.536200	-10.638000	25.130453	0.000244	20.713946
1403.375375	-3.004400	3.537200	-10.626000	25.141247	0.000245	20.729998
1404.362855	-3.006000	3.536200	-10.629000	25.119914	0.000244	20.730868
1405.363281	-2.998600	3.535600	-10.601000	25.142113	0.000240	20.723281
1406.359481	-3.010000	3.535100	-10.640000	25.126950	0.000241	20.735561
1407.372567	-3.013700	3.535100	-10.653000	25.132766	0.000239	20.745667
1408.366086	-3.007000	3.535200	-10.630000	25.146413	0.000241	20.728547
1409.371128	-3.006900	3.534100	-10.625000	25.153395	0.000241	20.733660
1410.363966	-3.004300	3.534600	-10.618000	25.135526	0.000240	20.730893
1411.374837	-3.017700	3.533800	-10.663000	25.159835	0.000241	20.719261
1412.361958	-2.985400	3.534700	-10.552000	25.142384	0.000241	20.728769
1413.365060	-2.987500	3.534500	-10.559000	25.131098	0.000240	20.731190
1414.367029	-2.999000	3.533500	-10.596000	25.158320	0.000240	20.753777
1415.377174	-2.990900	3.533100	-10.566000	25.151412	0.000238	20.721710
1416.369842	-2.994000	3.531300	-10.572000	25.162949	0.000237	20.736138
1417.362627	-3.001000	3.532400	-10.600000	25.154295	0.000236	20.739779
1418.364325	-3.004200	3.531200	-10.608000	25.122900	0.000236	20.715847
1419.374667	-2.983900	3.532100	-10.538000	25.140873	0.000236	20.722510
1420.374091	-3.001900	3.531200	-10.599000	25.155092	0.000237	20.715921
1421.371654	-2.982800	3.531100	-10.531000	25.148430	0.000237	20.727726
1422.361573	-3.002800	3.530100	-10.599000	25.143752	0.000235	20.724452
1423.365904	-3.001300	3.530900	-10.596000	25.138512	0.000236	20.709233
1424.360729	-2.983900	3.529900	-10.532000	25.134433	0.000235	20.726003
1425.363465	-3.012900	3.529800	-10.634000	25.148229	0.000235	20.706186
1426.372808	-3.004200	3.529700	-10.603000	25.163121	0.000234	20.719241
1427.365309	-2.979100	3.530000	-10.514000	25.150816	0.000234	20.730122
1428.364088	-2.983800	3.529500	-10.530000	25.157252	0.000232	20.734686
1429.368065	-2.986400	3.528400	-10.536000	25.126551	0.000233	20.738480
1430.368010	-2.992300	3.528000	-10.556000	25.137066	0.000233	20.734336
1431.369319	-2.985300	3.528300	-10.532000	25.130847	0.000231	20.730938
1432.368470	-2.993600	3.528500	-10.562000	25.157494	0.000232	20.739671
1433.372612	-2.994200	3.527800	-10.563000	25.146237	0.000232	20.740698
1434.369588	-3.014600	3.526200	-10.628000	25.170669	0.000230	20.719232
1435.378102	-2.992900	3.526900	-10.555000	25.172283	0.000228	20.718956
1436.376356	-3.003200	3.526000	-10.588000	25.151202	0.000229	20.710119
1437.375610	-3.007900	3.525300	-10.603000	25.157494	0.000229	20.716436
1438.374955	-2.992500	3.525600	-10.550000	25.160225	0.000230	20.720126
1439.372165	-3.020500	3.525000	-10.646000	25.171310	0.000229	20.730781
1440.373848	-3.017300	3.523700	-10.631000	25.153485	0.000227	20.725689
1441.385091	-3.008800	3.524300	-10.603000	25.158262	0.000228	20.719578
1442.373590	-2.996400	3.523700	-10.558000	25.184358	0.000228	20.721594
1443.375476	-2.992000	3.525000	-10.546000	25.161888	0.000227	20.752144
1444.377374	-3.014400	3.523400	-10.620000	25.156196	0.000228	20.725565
1445.378565	-3.005100	3.523300	-10.587000	25.155674	0.000226	20.719825
1446.372627	-2.998700	3.524100	-10.566000	25.148664	0.000227	20.723219
1447.393420	-3.027000	3.521400	-10.658000	25.158726	0.000225	20.734269
1448.384951	-2.999900	3.521000	-10.560000	25.149358	0.000227	20.735770
1449.377035	-3.004500	3.521700	-10.579000	25.162110	0.000224	20.723441
1450.375236	-3.007600	3.522000	-10.591000	25.156565	0.000225	20.726884
1451.383459	-2.991100	3.522200	-10.534000	25.163601	0.000224	20.717351
1452.389598	-3.004400	3.521500	-10.579000	25.150052	0.000226	20.726035
1453.380438	-2.987400	3.521100	-10.517000	25.157288	0.000225	20.726662
1454.376945	-3.037700	3.519000	-10.688000	25.141201	0.000222	20.731375
1455.382972	-2.982000	3.521300	-10.500000	25.175860	0.000222	20.733453
1456.385446	-3.012400	3.519800	-10.602000	25.173942	0.000222	20.712086
1457.378831	-3.008500	3.518700	-10.585000	25.169893	0.000222	20.727936
1458.389990	-2.998400	3.518900	-10.549000	25.160673	0.000221	20.731008
1459.389520	-3.009800	3.518600	-10.589000	25.147896	0.000221	20.741889
1460.388099	-2.990600	3.518700	-10.522000	25.177080	0.000220	20.736574
1461.384066	-3.005400	3.518800	-10.575000	25.181282	0.000220	20.718980
1462.383329	-3.009600	3.517000	-10.584000	25.179072	0.000219	20.751377
1463.380464	-3.005600	3.517900	-10.572000	25.145510	0.000217	20.729536
1464.381583	-3.025100	3.516600	-10.637000	25.163811	0.000219	20.734633
1465.395506	-3.012400	3.516500	-10.591000	25.168632	0.000219	20.737577
1466.383828	-3.003500	3.516600	-10.561000	25.154591	0.000217	20.741498
1467.388734	-2.998600	3.516900	-10.544000	25.158418	0.000217	20.737754
1468.379401	-2.997300	3.516600	-10.539000	25.157109	0.000218	20.715101
1469.376463	-2.985900	3.517300	-10.501000	25.158796	0.000218	20.745246
1470.384733	-3.006100	3.515400	-10.567000	25.170884	0.000216	20.726086
1471.385220	-2.998400	3.515500	-10.540000	25.174407	0.000216	20.738633
1472.384105	-3.006500	3.515400	-10.568000	25.178268	0.000215	20.749621
1473.387349	-2.988600	3.515300	-10.505000	25.152365	0.000216	20.746851
1474.396004	-3.002200	3.514500	-10.550000	25.181451	0.000214	20.717728
1475.386078	-2.970200	3.515400	-10.441000	25.173870	0.000214	20.723867
1476.394867	-3.017800	3.514400	-10.604000	25.192392	0.000215	20.722074
1477.386245	-3.002800	3.514000	-10.551000	25.178046	0.000214	20.727587
1478.386999	-3.002100	3.513600	-10.547000	25.168354	0.000213	20.749626
1479.384406	-2.975300	3.513200	-10.452000	25.171738	0.000215	20.727892
1480.386277	-2.999100	3.513500	-10.537000	25.169529	0.000212	20.749383
1481.395950	-3.000600	3.512300	-10.538000	25.182257	0.000211	20.735133
1482.385068	-3.011800	3.511900	-10.577000	25.173977	0.000214	20.751951
1483.390892	-2.995100	3.511500	-10.516000	25.183723	0.000212	20.769323
1484.386511	-2.991400	3.511900	-10.505000	25.168161	0.000210	20.723352
1485.385298	-3.002200	3.510500	-10.539000	25.167566	0.000213	20.744093
1486.399470	-2.983900	3.511100	-10.476000	25.172338	0.000210	20.723752
1487.390584	-2.992000	3.510300	-10.502000	25.151236	0.000209	20.738131
1488.393662	-2.998100	3.509800	-10.522000	25.171944	0.000209	20.722883
1489.393818	-2.989500	3.510300	-10.493000	25.166478	0.000208	20.731620
1490.386776	-3.005200	3.509300	-10.544000	25.178433	0.000209	20.746468
1491.396294	-2.999200	3.509000	-10.523000	25.157011	0.000208	20.723064
1492.393250	-3.009400	3.507600	-10.555000	25.183362	0.000207	20.742881
1493.391110	-2.997600	3.508800	-10.517000	25.207744	0.000207	20.712356
1494.398130	-2.998100	3.508200	-10.517000	25.189949	0.000209	20.732424
1495.394197	-2.981000	3.507500	-10.454000	25.183760	0.000207	20.720520
1496.400098	-2.991700	3.507900	-10.493000	25.179883	0.000207	20.729431
1497.407032	-2.993300	3.506800	-10.497000	25.191169	0.000205	20.736494
1498.391254	-3.019200	3.506600	-10.585000	25.192969	0.000204	20.746362
1499.392667	-3.012200	3.505800	-10.559000	25.198332	0.000205	20.749850
1500.389666	-2.987200	3.506800	-10.475000	25.204870	0.000205	20.756888
1501.396469	-3.002200	3.507100	-10.529000	25.182003	0.000204	20.741517
1502.395346	-3.002400	3.505100	-10.522000	25.209327	0.000205	20.739076
1503.405702	-3.007500	3.504900	-10.540000	25.188846	0.000203	20.738903
1504.386882	-2.975900	3.506500	-10.434000	25.196427	0.000204	20.740350
1505.395569	-3.000900	3.503900	-10.514000	25.197745	0.000203	20.734087
1506.403067	-3.028500	3.503800	-10.610000	25.208760	0.000205	20.746568
1507.394331	-3.022500	3.503200	-10.587000	25.209286	0.000204	20.762270
1508.395368	-2.997300	3.503100	-10.499000	25.189824	0.000201	20.749843
1509.396986	-2.996900	3.503300	-10.497000	25.206752	0.000201	20.765416
1510.396330	-3.019000	3.502500	-10.573000	25.194999	0.000200	20.754564
1511.406310	-2.994800	3.502200	-10.487000	25.193360	0.000202	20.771886
1512.402251	-2.962000	3.503700	-10.377000	25.176608	0.000202	20.748903
1513.402194	-3.009900	3.501500	-10.539000	25.214868	0.000199	20.733260
1514.397336	-3.021400	3.500400	-10.575000	25.186654	0.000197	20.733857
1515.392197	-2.995400	3.501100	-10.486000	25.200954	0.000199	20.763389
1516.398502	-3.001100	3.500100	-10.503000	25.208084	0.000197	20.753476
1517.403352	-3.012700	3.499600	-10.542000	25.199341	0.000199	20.749440
1518.411184	-3.000000	3.501200	-10.502000	25.199242	0.000198	20.741280
1519.403262	-2.977600	3.500800	-10.424000	25.189447	0.000196	20.755629
1520.407714	-2.993300	3.499800	-10.475000	25.200339	0.000197	20.752339
1521.419343	-2.995200	3.499200	-10.479000	25.191940	0.000197	20.767615
1522.405096	-2.987300	3.498600	-10.451000	25.178347	0.000197	20.747804
1523.406762	-2.990200	3.498800	-10.462000	25.182922	0.000196	20.764725
1524.413046	-2.996500	3.498700	-10.483000	25.198980	0.000196	20.762355
1525.411751	-2.997800	3.498700	-10.487000	25.193962	0.000197	20.756842
1526.399079	-2.988200	3.498000	-10.452000	25.195477	0.000195	20.774959
1527.400945	-3.004900	3.497100	-10.508000	25.193888	0.000193	20.754871
1528.411026	-2.986500	3.498200	-10.446000	25.201646	0.000194	20.756496
1529.410872	-3.008600	3.497800	-10.523000	25.196130	0.000195	20.765184
1530.398688	-3.017900	3.495600	-10.548000	25.195034	0.000194	20.755548
1531.401161	-2.996000	3.496700	-10.475000	25.223946	0.000194	20.742848
1532.408380	-3.012000	3.496300	-10.530000	25.199313	0.000192	20.752258
1533.398492	-3.019400	3.495000	-10.552000	25.213851	0.000191	20.751206
1534.403108	-2.995400	3.495500	-10.469000	25.203166	0.000192	20.762289
1535.401083	-2.996300	3.495800	-10.474000	25.209704	0.000191	20.766008
1536.408155	-3.009100	3.493600	-10.511000	25.216439	0.000191	20.751433
1537.410790	-3.012300	3.495000	-10.527000	25.211519	0.000192	20.739855
1538.404705	-3.017100	3.493000	-10.536000	25.235601	0.000192	20.757869
1539.410405	-2.999900	3.494400	-10.482000	25.218427	0.000190	20.763860
1540.407590	-3.016400	3.493900	-10.539000	25.226131	0.000187	20.770173
1541.404644	-3.007500	3.493100	-10.505000	25.217630	0.000190	20.756422
1542.408141	-3.004000	3.492700	-10.492000	25.225034	0.000187	20.759588
1543.413034	-2.994500	3.492700	-10.458000	25.218221	0.000188	20.777404
1544.401313	-2.985000	3.491900	-10.422000	25.234348	0.000190	20.755188
1545.416004	-2.987400	3.491900	-10.431000	25.222870	0.000187	20.777330
1546.403608	-3.027300	3.490800	-10.567000	25.230672	0.000187	20.765723
1547.404450	-3.014000	3.490800	-10.520000	25.224636	0.000187	20.767723
1548.422182	-3.006900	3.490400	-10.494000	25.245785	0.000186	20.765723
1549.406757	-3.008000	3.490800	-10.499000	25.229103	0.000187	20.757035
1550.400340	-3.019400	3.489800	-10.537000	25.236832	0.000187	20.754363
1551.412522	-3.011400	3.489900	-10.509000	25.237555	0.000184	20.777849
1552.408054	-2.983200	3.490300	-10.411000	25.236434	0.000186	20.782413
1553.406376	-3.004300	3.488600	-10.480000	25.226467	0.000184	20.772881
1554.411830	-2.979600	3.488900	-10.395000	25.238372	0.000182	20.766341
1555.403854	-3.003400	3.487800	-10.474000	25.229970	0.000183	20.777820
1556.407851	-2.999300	3.487300	-10.458000	25.238594	0.000183	20.779366
1557.407453	-3.012600	3.488000	-10.507000	25.234988	0.000182	20.779539
1558.415601	-3.010800	3.489100	-10.503000	25.211497	0.000182	20.782034
1559.411107	-3.002800	3.487000	-10.469000	25.216840	0.000183	20.785501
1560.410943	-3.017100	3.486000	-10.516000	25.220166	0.000182	20.775090
1561.404869	-3.013200	3.485900	-10.502000	25.225312	0.000182	20.781679
1562.414163	-2.990100	3.485900	-10.422000	25.208482	0.000180	20.769049
1563.416035	-2.981500	3.486400	-10.393000	25.227468	0.000181	20.792852
1564.417903	-3.008400	3.485200	-10.484000	25.218667	0.000178	20.784964
1565.412901	-3.021900	3.484900	-10.529000	25.223340	0.000179	20.763578
1566.411811	-3.003100	3.485600	-10.467000	25.226395	0.000180	20.783241
1567.413494	-3.008600	3.484600	-10.483000	25.237603	0.000179	20.785958
1568.434364	-2.978100	3.484700	-10.377000	25.219902	0.000178	20.798059
1569.410447	-3.000700	3.484600	-10.454000	25.243590	0.000177	20.789124
1570.415323	-3.015600	3.482900	-10.502000	25.229590	0.000178	20.780758
1571.430495	-2.999300	3.484100	-10.450000	25.236875	0.000176	20.797555
1572.415585	-2.986400	3.483400	-10.402000	25.238165	0.000177	20.814971
1573.415332	-3.022500	3.482700	-10.525000	25.249672	0.000178	20.785273
1574.415579	-3.003600	3.481000	-10.455000	25.242111	0.000178	20.786216
1575.411809	-2.988000	3.482900	-10.406000	25.247183	0.000177	20.777558
1576.417136	-2.981300	3.481800	-10.380000	25.245938	0.000176	20.804758
1577.420280	-3.021700	3.480000	-10.514000	25.237856	0.000176	20.795221
1578.420859	-2.977000	3.482200	-10.366000	25.270442	0.000174	20.799963
1579.421071	-3.016500	3.480400	-10.498000	25.250977	0.000174	20.800808
1580.424156	-2.998900	3.480300	-10.436000	25.248788	0.000175	20.787230
1581.423125	-2.992600	3.480700	-10.415000	25.257293	0.000176	20.797666
1582.411822	-2.971500	3.481600	-10.343000	25.261067	0.000174	20.794343
1583.421760	-3.014200	3.479300	-10.486000	25.277198	0.000171	20.785408
1584.422619	-2.976500	3.480100	-10.358000	25.279313	0.000173	20.788480
1585.422703	-3.015200	3.479500	-10.490000	25.278639	0.000173	20.802976
1586.423282	-2.989000	3.479300	-10.398000	25.271900	0.000172	20.794313
1587.417038	-2.991500	3.478800	-10.406000	25.272672	0.000172	20.799356
1588.422819	-2.993500	3.478600	-10.412000	25.278438	0.000172	20.798507
1589.415766	-3.013400	3.476900	-10.476000	25.281123	0.000173	20.796462
1590.429019	-3.007600	3.477200	-10.457000	25.284084	0.000169	20.798486
1591.420804	-2.977800	3.479000	-10.358000	25.270611	0.000170	20.797761
1592.421738	-3.027400	3.477100	-10.525000	25.288409	0.000169	20.804724
1593.419823	-2.985100	3.476700	-10.377000	25.276405	0.000169	20.792673
1594.424839	-3.005100	3.476400	-10.446000	25.271063	0.000170	20.808171
1595.416557	-3.000100	3.476300	-10.429000	25.272130	0.000168	20.797864
1596.429965	-3.014100	3.475300	-10.474000	25.290150	0.000170	20.805524
1597.423933	-3.013800	3.475600	-10.473000	25.265966	0.000168	20.807322
1598.422733	-2.984400	3.476700	-10.374000	25.274019	0.000168	20.794545
1599.427014	-2.994300	3.474800	-10.403000	25.274545	0.000166	20.803133
1600.440145	-2.985400	3.474100	-10.370000	25.292166	0.000167	20.802333
1601.422531	-2.993900	3.474000	-10.400000	25.285403	0.000167	20.822569
1602.427941	-3.009000	3.472900	-10.449000	25.292043	0.000168	20.809322
1603.427083	-3.004500	3.473300	-10.435000	25.287468	0.000168	20.799987
1604.425162	-2.991000	3.472700	-10.387000	25.282652	0.000166	20.813643
1605.423445	-2.988000	3.473400	-10.377000	25.305147	0.000165	20.823901
1606.424413	-2.993100	3.472600	-10.393000	25.278800	0.000164	20.802189
1607.425706	-2.992000	3.472100	-10.387000	25.288122	0.000162	20.809652
1608.429060	-3.020800	3.471600	-10.486000	25.280073	0.000163	20.804416
1609.437919	-2.989600	3.471500	-10.377000	25.299037	0.000162	20.820137
1610.424778	-2.990000	3.471600	-10.379000	25.321306	0.000163	20.816892
1611.432070	-2.996400	3.471400	-10.400000	25.294422	0.000164	20.814081
1612.437737	-2.972300	3.471000	-10.316000	25.309382	0.000161	20.811083
1613.421755	-3.007500	3.469900	-10.434000	25.323229	0.000161	20.817874
1614.427072	-2.989600	3.471100	-10.377000	25.338168	0.000162	20.775976
1615.432467	-3.012100	3.469700	-10.450000	25.305883	0.000160	20.808045
1616.427851	-3.020700	3.468500	-10.476000	25.310680	0.000158	20.817602
1617.432190	-2.981800	3.469100	-10.343000	25.312470	0.000160	20.812288
1618.440158	-2.984200	3.469900	-10.354000	25.297436	0.000159	20.823746
1619.442957	-2.996600	3.468300	-10.391000	25.281237	0.000156	20.811748
1620.429205	-3.029400	3.467300	-10.502000	25.322888	0.000159	20.816110
1621.424058	-2.975800	3.469300	-10.323000	25.295626	0.000158	20.823824
1622.429969	-3.025700	3.466500	-10.488000	25.305391	0.000158	20.811818
1623.422596	-2.973200	3.467800	-10.309000	25.296295	0.000157	20.837772
1624.432262	-2.994900	3.466300	-10.380000	25.309222	0.000157	20.824674
1625.425007	-2.993900	3.466100	-10.376000	25.316980	0.000158	20.823453
1626.421533	-3.012000	3.465400	-10.437000	25.304681	0.000158	20.828175
1627.426725	-3.018400	3.464200	-10.456000	25.316069	0.000155	20.827280
1628.428669	-2.996100	3.465600	-10.382000	25.286518	0.000154	20.839336
1629.424827	-3.007300	3.465000	-10.419000	25.316915	0.000155	20.835716
1630.433795	-2.993000	3.465000	-10.370000	25.291890	0.000155	20.818651
1631.429079	-2.991800	3.463700	-10.362000	25.300863	0.000155	20.837143
1632.424979	-3.014000	3.463500	-10.437000	25.289976	0.000155	20.815781
1633.427662	-2.999500	3.463800	-10.389000	25.315773	0.000156	20.836940
1634.424380	-3.008500	3.461800	-10.413000	25.307651	0.000153	20.818829
1635.425298	-2.988900	3.463400	-10.351000	25.326319	0.000152	20.802959
1636.442624	-3.010300	3.462500	-10.421000	25.318542	0.000151	20.818858
1637.428762	-3.013900	3.461800	-10.433000	25.326122	0.000155	20.833107
1638.423492	-2.992900	3.461700	-10.360000	25.316657	0.000152	20.819810
1639.442483	-3.034400	3.460200	-10.497000	25.301545	0.000153	20.855845
1640.432843	-3.001900	3.461000	-10.388000	25.299135	0.000153	20.818813
1641.436512	-2.995900	3.461700	-10.370000	25.317331	0.000151	20.840875
1642.431664	-2.982500	3.460900	-10.321000	25.300851	0.000152	20.842347
1643.431503	-2.995200	3.460600	-10.363000	25.309750	0.000151	20.838005
1644.429310	-2.990400	3.459800	-10.344000	25.316838	0.000150	20.835639
1645.439287	-3.023400	3.459700	-10.460000	25.309135	0.000149	20.840232
1646.434124	-3.022900	3.458500	-10.453000	25.301603	0.000150	20.831722
1647.425140	-3.000500	3.458500	-10.376000	25.303940	0.000148	20.841654
1648.433361	-2.997500	3.458100	-10.365000	25.290717	0.000150	20.842603
1649.439548	-3.017900	3.458700	-10.437000	25.324472	0.000148	20.848993
1650.428690	-2.999500	3.458600	-10.372000	25.300536	0.000148	20.851512
1651.433739	-3.002000	3.458500	-10.381000	25.309484	0.000149	20.841057
1652.432602	-2.985100	3.458300	-10.322000	25.314255	0.000147	20.851537
1653.434061	-3.004500	3.457200	-10.386000	25.357454	0.000146	20.832799
1654.431082	-3.027200	3.456700	-10.463000	25.309681	0.000144	20.845522
1655.430831	-3.010000	3.456100	-10.402000	25.314954	0.000145	20.854135
1656.435459	-3.001300	3.456100	-10.372000	25.330435	0.000148	20.851661
1657.442147	-3.014800	3.455700	-10.417000	25.331404	0.000146	20.856901
1658.439686	-3.009600	3.455700	-10.400000	25.339181	0.000144	20.874666
1659.438092	-3.004400	3.454300	-10.378000	25.344548	0.000145	20.859193
1660.440605	-3.008000	3.455400	-10.393000	25.325535	0.000144	20.845794
1661.443946	-3.002900	3.453600	-10.369000	25.346609	0.000145	20.866952
1662.436276	-2.980000	3.455700	-10.297000	25.334808	0.000144	20.856051
1663.438396	-3.006400	3.453900	-10.384000	25.340318	0.000143	20.850679
1664.445805	-2.994100	3.454200	-10.341000	25.337165	0.000144	20.858892
1665.441050	-2.987900	3.454500	-10.321000	25.349134	0.000143	20.841513
1666.439456	-3.039000	3.451500	-10.488000	25.338302	0.000142	20.871412
1667.438179	-3.014600	3.453000	-10.409000	25.320972	0.000141	20.849272
1668.442310	-2.991700	3.452800	-10.329000	25.360610	0.000144	20.892388
1669.450122	-2.994700	3.453700	-10.342000	25.351461	0.000142	20.878936
1670.460812	-3.008200	3.451000	-10.380000	25.348928	0.000141	20.852212
1671.458636	-2.997900	3.450800	-10.345000	25.336124	0.000141	20.881553
1672.441164	-2.991300	3.450300	-10.320000	25.341413	0.000141	20.868373
1673.446674	-2.993800	3.451500	-10.332000	25.307982	0.000140	20.872264
1674.425063	-3.016500	3.450000	-10.406000	25.348890	0.000140	20.862130
1675.431965	-2.992500	3.450500	-10.325000	25.350824	0.000140	20.884459
1676.429420	-3.033500	3.448500	-10.459000	25.332953	0.000141	20.872206
1677.427727	-3.002200	3.450700	-10.358000	25.353751	0.000141	20.878864
1678.429261	-2.986200	3.450200	-10.301000	25.358420	0.000140	20.886870
1679.425587	-2.975700	3.450200	-10.266000	25.367486	0.000141	20.863733
1680.424959	-3.012700	3.448300	-10.388000	25.371880	0.000139	20.889953
1681.430915	-3.017400	3.448900	-10.406000	25.350276	0.000139	20.892443
1682.444076	-3.022300	3.447300	-10.418000	25.361585	0.000138	20.878669
1683.453883	-2.984500	3.446400	-10.285000	25.364447	0.000136	20.884388
1684.444952	-3.001300	3.447500	-10.346000	25.366701	0.000137	20.855833
1685.449524	-3.002000	3.447300	-10.348000	25.355634	0.000137	20.868902
1686.465548	-3.003500	3.445600	-10.348000	25.354016	0.000139	20.878182
1687.441515	-3.027300	3.446400	-10.433000	25.388784	0.000135	20.870893
1688.444430	-3.023500	3.446800	-10.421000	25.378592	0.000135	20.880573
1689.428700	-2.998600	3.446200	-10.333000	25.371977	0.000134	20.886258
1690.429938	-2.979600	3.444700	-10.262000	25.376793	0.000135	20.880663
1691.427071	-3.012600	3.444700	-10.377000	25.391156	0.000134	20.872327
1692.430060	-2.990700	3.444400	-10.301000	25.380439	0.000134	20.883850
1693.432825	-2.982400	3.445000	-10.274000	25.388191	0.000133	20.881203
1694.432323	-3.020800	3.442800	-10.399000	25.391891	0.000133	20.876857
1695.436594	-3.007100	3.443700	-10.355000	25.384557	0.000131	20.867597
1696.449630	-3.010900	3.443400	-10.366000	25.386639	0.000130	20.880118
1697.432430	-3.004800	3.442200	-10.342000	25.393024	0.000132	20.868512
1698.431165	-3.024800	3.442400	-10.412000	25.388819	0.000131	20.872824
1699.435644	-2.987600	3.442500	-10.284000	25.375371	0.000132	20.874494
1700.431771	-2.985600	3.443400	-10.279000	25.413463	0.000129	20.874337
1701.439378	-2.995400	3.441600	-10.308000	25.388732	0.000131	20.891228
1702.438490	-3.004800	3.441100	-10.338000	25.395314	0.000128	20.875079
1703.433064	-3.002600	3.441000	-10.332000	25.396332	0.000128	20.874205
1704.435672	-2.994300	3.440600	-10.302000	25.404897	0.000127	20.875219
1705.430566	-3.022100	3.440200	-10.396000	25.404548	0.000127	20.869179
1706.455668	-2.987800	3.438500	-10.272000	25.421124	0.000128	20.854056
1707.461266	-3.002500	3.439900	-10.327000	25.410013	0.000124	20.867080
1708.435047	-2.987900	3.440200	-10.278000	25.398779	0.000126	20.870972
1709.432107	-2.988600	3.439300	-10.277000	25.398056	0.000127	20.851755
1710.437288	-3.010700	3.438800	-10.352000	25.404958	0.000125	20.878125
1711.432899	-2.987400	3.438600	-10.272000	25.382066	0.000126	20.869364
1712.438589	-2.998700	3.437900	-10.308000	25.405533	0.000124	20.855470
1713.436410	-3.010600	3.437600	-10.348000	25.421732	0.000125	20.883113
1714.435092	-3.001100	3.438300	-10.318000	25.407960	0.000125	20.861699
1715.442485	-2.988100	3.437500	-10.271000	25.413700	0.000124	20.848024
1716.452622	-2.996900	3.436200	-10.297000	25.426277	0.000123	20.885781
1717.454069	-2.990800	3.436400	-10.275000	25.424487	0.000124	20.847475
1718.465038	-2.989500	3.436800	-10.274000	25.409392	0.000123	20.871198
1719.434413	-3.001700	3.435800	-10.312000	25.414517	0.000125	20.870654
1720.440561	-3.001700	3.435000	-10.309000	25.404670	0.000121	20.851759
1721.441065	-2.999700	3.435200	-10.303000	25.412776	0.000123	20.864639
1722.435412	-3.002200	3.434400	-10.310000	25.402954	0.000121	20.859044
1723.439238	-3.003100	3.434300	-10.312000	25.401114	0.000121	20.890859
1724.441929	-3.005200	3.433500	-10.318000	25.398827	0.000118	20.855849
1725.437330	-3.014300	3.432800	-10.347000	25.404966	0.000119	20.863909
1726.434486	-3.005800	3.432900	-10.318000	25.418881	0.000120	20.849433
1727.441218	-2.976600	3.433900	-10.221000	25.397677	0.000120	20.853746
1728.435414	-3.012900	3.431700	-10.338000	25.425315	0.000118	20.855420
1729.454202	-3.011600	3.433600	-10.340000	25.410078	0.000120	20.842016
1730.455101	-3.003100	3.433000	-10.309000	25.419394	0.000117	20.867017
1731.438523	-3.012400	3.430700	-10.334000	25.405972	0.000117	20.853065
1732.438942	-3.000700	3.431800	-10.296000	25.408230	0.000117	20.842057
1733.440860	-3.014800	3.430200	-10.341000	25.420556	0.000117	20.862968
1734.437651	-2.999400	3.431100	-10.290000	25.421423	0.000115	20.839183
1735.438323	-3.004300	3.430200	-10.304000	25.418446	0.000118	20.850418
1736.460650	-2.987400	3.431700	-10.250000	25.436508	0.000116	20.840581
1737.465281	-2.988200	3.430400	-10.249000	25.423311	0.000117	20.849614
1738.456062	-3.009500	3.429600	-10.320000	25.425196	0.000114	20.857196
1739.457833	-3.010500	3.428800	-10.322000	25.429663	0.000116	20.840346
1740.462239	-3.000500	3.429200	-10.288000	25.443110	0.000114	20.856219
1741.462027	-2.995400	3.428300	-10.268000	25.439086	0.000115	20.838903
1742.465544	-3.007400	3.428100	-10.309000	25.428813	0.000113	20.854664
1743.445570	-2.997500	3.427000	-10.271000	25.444022	0.000115	20.866616
1744.476873	-3.021500	3.427200	-10.354000	25.428686	0.000113	20.832726
1745.479179	-3.011000	3.427800	-10.320000	25.431297	0.000115	20.830133
1746.441315	-3.009700	3.427800	-10.316000	25.434746	0.000112	20.850191
1747.442520	-3.025800	3.426500	-10.366000	25.430817	0.000113	20.865210
1748.440753	-3.027500	3.427800	-10.377000	25.417989	0.000113	20.835262
1749.463980	-2.982000	3.426300	-10.217000	25.418486	0.000113	20.836235
1750.465466	-3.008800	3.425900	-10.308000	25.438314	0.000112	20.834334
1751.444648	-3.029900	3.425100	-10.376000	25.435727	0.000111	20.827469
1752.447754	-3.013200	3.425000	-10.320000	25.439180	0.000112	20.823350
1753.443671	-3.002800	3.424100	-10.281000	25.431321	0.000111	20.842959
1754.461994	-3.016900	3.424700	-10.331000	25.432939	0.000109	20.840316
1755.445649	-3.026200	3.423800	-10.359000	25.438326	0.000110	20.841932
1756.444123	-3.016800	3.423400	-10.326000	25.444391	0.000109	20.855608
1757.444917	-3.018500	3.423800	-10.334000	25.437152	0.000108	20.843124
1758.446022	-3.003100	3.423500	-10.279000	25.438622	0.000108	20.837014
1759.445622	-3.012900	3.422600	-10.312000	25.468291	0.000110	20.815599
1760.445059	-3.015700	3.422900	-10.321000	25.443709	0.000108	20.826001
1761.445274	-2.999500	3.422400	-10.265000	25.438860	0.000108	20.836304
1762.448894	-2.978500	3.422200	-10.192000	25.429436	0.000107	20.834903
1763.448750	-2.997400	3.421600	-10.255000	25.452594	0.000107	20.837768
1764.469243	-2.981300	3.421600	-10.199000	25.434031	0.000108	20.845206
1765.464545	-3.002800	3.420000	-10.268000	25.435571	0.000107	20.846752
1766.469755	-2.976600	3.419600	-10.178000	25.449309	0.000107	20.836366
1767.467842	-3.005200	3.419900	-10.276000	25.425347	0.000105	20.850710
1768.466736	-3.025200	3.419200	-10.343000	25.438515	0.000105	20.846389
1769.470102	-2.982100	3.419500	-10.197000	25.464481	0.000104	20.852074
1770.462885	-3.017900	3.419300	-10.318000	25.451658	0.000105	20.837776
1771.474283	-3.002700	3.418600	-10.264000	25.449342	0.000105	20.849675
1772.450773	-2.990900	3.418300	-10.223000	25.446981	0.000102	20.837821
1773.469041	-3.000800	3.418300	-10.256000	25.461939	0.000102	20.858057
1774.474851	-3.003600	3.417300	-10.262000	25.452590	0.000101	20.840609
1775.473927	-2.984900	3.417800	-10.201000	25.450348	0.000103	20.838357
1776.473727	-2.986400	3.416800	-10.203000	25.458991	0.000101	20.829493
1777.447471	-2.985800	3.418200	-10.206000	25.462896	0.000100	20.829147
1778.474228	-3.001700	3.415900	-10.252000	25.442136	0.000101	20.821103
1779.449925	-2.985400	3.415500	-10.196000	25.446833	0.000100	20.832458
1780.474013	-2.999800	3.415500	-10.245000	25.447724	0.000101	20.838568
1781.482286	-3.027500	3.416000	-10.340000	25.453612	0.000101	20.814135
1782.474301	-2.989000	3.416300	-10.210000	25.456860	0.000100	20.828776
1783.474237	-3.001500	3.415200	-10.250000	25.436162	9.857235E-5	20.831225
1784.459061	-2.993000	3.414700	-10.219000	25.432754	9.910027E-5	20.824958
1785.451884	-3.000300	3.414100	-10.242000	25.440703	9.784646E-5	20.843845
1786.451213	-2.998400	3.412800	-10.232000	25.437669	9.860534E-5	20.831790
1787.451780	-2.987300	3.412800	-10.194000	25.449223	9.844037E-5	20.826323
1788.452453	-2.991700	3.414000	-10.213000	25.455559	9.860534E-5	20.836952
1789.457409	-2.979000	3.413300	-10.167000	25.466887	9.616372E-5	20.855913
1790.466426	-2.980900	3.413900	-10.175000	25.446288	9.781346E-5	20.841866
1791.454907	-2.990900	3.410800	-10.201000	25.458634	9.675763E-5	20.816807
1792.453995	-3.001900	3.411300	-10.238000	25.469314	9.507489E-5	20.833221
1793.454722	-3.006100	3.411500	-10.254000	25.476848	9.576778E-5	20.824665
1794.456542	-2.990700	3.411900	-10.203000	25.463101	9.616372E-5	20.843577
1795.454658	-3.003200	3.411500	-10.244000	25.476441	9.434900E-5	20.825680
1796.454856	-2.988600	3.411600	-10.195000	25.472816	9.236930E-5	20.828677
1797.473606	-2.996400	3.410800	-10.219000	25.449453	9.299621E-5	20.836511
1798.462011	-3.007600	3.409900	-10.255000	25.481561	9.302920E-5	20.841252
1799.473346	-3.010700	3.410500	-10.267000	25.469166	9.104951E-5	20.806046
1800.457288	-3.001800	3.408900	-10.232000	25.472389	9.101651E-5	20.822085
1801.483580	-2.993400	3.409200	-10.204000	25.482875	9.075255E-5	20.826451
1802.478346	-3.016100	3.408000	-10.278000	25.471765	9.134646E-5	20.828096
1803.483118	-2.996200	3.408900	-10.213000	25.460084	9.306220E-5	20.825849
1804.479967	-3.017300	3.407400	-10.280000	25.465302	9.019164E-5	20.823503
1805.462164	-2.983700	3.407500	-10.166000	25.469006	8.949875E-5	20.813946
1806.458771	-3.007200	3.406500	-10.243000	25.485708	9.197336E-5	20.818865
1807.459379	-2.975700	3.407500	-10.139000	25.463188	8.893783E-5	20.814268
1808.470854	-2.993500	3.406500	-10.196000	25.477456	8.487946E-5	20.812948
1809.473170	-3.017000	3.406400	-10.276000	25.459538	8.540737E-5	20.820085
1810.480898	-2.987300	3.407000	-10.177000	25.467339	8.712311E-5	20.840721
1811.463004	-2.986400	3.406300	-10.172000	25.480613	8.676017E-5	20.811377
1812.457666	-2.966300	3.406500	-10.103000	25.470619	8.501144E-5	20.812247
1813.478227	-2.995000	3.404300	-10.195000	25.474791	8.695814E-5	20.819281
1814.477956	-3.023900	3.403500	-10.290000	25.459213	8.659519E-5	20.820234
1815.479692	-3.009800	3.404400	-10.246000	25.494105	8.474748E-5	20.840098
1816.489227	-2.999200	3.404500	-10.209000	25.486398	8.613326E-5	20.816713
1817.480536	-3.021800	3.403300	-10.284000	25.481278	8.365864E-5	20.792605
1818.459290	-3.008200	3.403500	-10.237000	25.465101	8.497844E-5	20.823775
1819.459508	-2.994800	3.403700	-10.193000	25.484312	8.319672E-5	20.804187
1820.480945	-2.994500	3.403200	-10.190000	25.485975	8.402159E-5	20.812495
1821.486588	-2.978100	3.403600	-10.136000	25.479710	8.256981E-5	20.812367
1822.481996	-3.005300	3.402000	-10.223000	25.495119	8.134900E-5	20.800814
1823.500252	-3.021800	3.400400	-10.274000	25.511842	8.207489E-5	20.787736
1824.463128	-3.013800	3.401500	-10.251000	25.499143	8.144798E-5	20.804381
1825.464822	-3.017000	3.401000	-10.260000	25.491637	8.157996E-5	20.822922
1826.460377	-3.004900	3.399800	-10.215000	25.487109	7.979824E-5	20.823590
1827.463495	-2.982000	3.401200	-10.141000	25.487482	8.101905E-5	20.805948
1828.469271	-2.999100	3.399100	-10.193000	25.486390	7.841245E-5	20.808644
1829.470671	-2.986500	3.400200	-10.154000	25.475231	8.002920E-5	20.813559
1830.467990	-2.980600	3.400400	-10.134000	25.488628	7.864342E-5	20.799511
1831.467196	-2.990300	3.399200	-10.163000	25.514096	8.075509E-5	20.827931
1832.480135	-3.005600	3.398400	-10.213000	25.492676	7.920433E-5	20.801680
1833.488946	-3.012400	3.398100	-10.235000	25.504230	7.884139E-5	20.797161
1834.483659	-2.986800	3.398100	-10.148000	25.506365	7.851144E-5	20.795512
1835.488831	-3.008400	3.398300	-10.222000	25.501820	7.775255E-5	20.802328
1836.490850	-2.970000	3.398400	-10.092000	25.491601	7.722463E-5	20.805342
1837.479554	-3.004300	3.398500	-10.209000	25.493867	7.712565E-5	20.784384
1838.483822	-2.968300	3.398700	-10.088000	25.525423	7.646575E-5	20.808962
1839.489752	-3.010800	3.396800	-10.226000	25.507978	7.527793E-5	20.803771
1840.488395	-3.026900	3.395100	-10.276000	25.507806	7.623479E-5	20.788899
1841.491144	-2.994100	3.396500	-10.169000	25.530568	7.534392E-5	20.784256
1842.482324	-2.987100	3.395700	-10.142000	25.507629	7.507996E-5	20.811007
1843.492366	-2.993500	3.395200	-10.162000	25.501142	7.399113E-5	20.797380
1844.501576	-2.978900	3.395700	-10.115000	25.483500	7.217641E-5	20.770180
1845.489047	-3.014300	3.395100	-10.233000	25.503207	7.455205E-5	20.782384
1846.492651	-3.012900	3.393600	-10.224000	25.518563	7.310027E-5	20.786425
1847.472432	-3.011600	3.392600	-10.216000	25.513591	7.280331E-5	20.784751
1848.491778	-2.982700	3.393400	-10.121000	25.510163	7.181347E-5	20.780360
1849.501359	-3.003100	3.392400	-10.187000	25.515180	7.135154E-5	20.783976
1850.493423	-3.010400	3.393600	-10.214000	25.499874	7.131854E-5	20.797054
1851.483235	-2.994900	3.393900	-10.163000	25.506702	7.250636E-5	20.784945
1852.503446	-3.005700	3.392000	-10.195000	25.537170	6.871194E-5	20.801318
1853.497894	-3.018900	3.391400	-10.237000	25.501011	7.016372E-5	20.804835
1854.490449	-2.998000	3.392000	-10.169000	25.511493	7.326524E-5	20.788334
1855.470707	-3.010600	3.390600	-10.207000	25.537638	6.887692E-5	20.786141
1856.496251	-2.989900	3.391400	-10.140000	25.531525	6.956981E-5	20.783795
1857.486845	-3.011300	3.390300	-10.209000	25.511042	6.904189E-5	20.788829
1858.485544	-2.994700	3.392000	-10.157000	25.533307	6.805205E-5	20.783213
1859.487573	-3.016600	3.388900	-10.221000	25.509322	6.831601E-5	20.799430
1860.488360	-2.988100	3.390000	-10.128000	25.507880	6.663326E-5	20.787077
1861.487679	-2.975400	3.390400	-10.087000	25.496820	6.831601E-5	20.780237
1862.483763	-2.985200	3.389000	-10.116000	25.486083	6.504951E-5	20.784628
1863.490061	-2.988400	3.390100	-10.131000	25.515205	6.739215E-5	20.773570
1864.493514	-2.988800	3.388300	-10.126000	25.491548	6.636930E-5	20.792487
1865.484533	-3.010200	3.388300	-10.199000	25.511297	6.640230E-5	20.767748
1866.493783	-2.982000	3.388100	-10.102000	25.517111	6.679824E-5	20.794924
1867.470540	-3.001300	3.386800	-10.164000	25.492435	6.722717E-5	20.783894
1868.468866	-2.996600	3.387400	-10.150000	25.518572	6.646829E-5	20.796866
1869.469530	-2.999700	3.387600	-10.160000	25.528487	6.567641E-5	20.783589
1870.490107	-2.981900	3.387500	-10.100000	25.530943	6.462057E-5	20.767089
1871.470902	-2.999700	3.387400	-10.159000	25.534790	6.587438E-5	20.792764
1872.471537	-2.997500	3.387000	-10.151000	25.528923	6.468656E-5	20.775492
1873.473163	-3.005200	3.385500	-10.173000	25.537221	6.283885E-5	20.789515
1874.471916	-3.042200	3.384700	-10.296000	25.549566	6.491753E-5	20.783895
1875.476408	-3.022100	3.384400	-10.226000	25.571929	6.386169E-5	20.782172
1876.473409	-3.030500	3.384300	-10.255000	25.532783	6.339976E-5	20.776049
1877.474034	-3.007200	3.383700	-10.174000	25.543318	6.353174E-5	20.770982
1878.474103	-3.010900	3.384200	-10.189000	25.560139	6.392768E-5	20.755632
1879.491195	-2.990200	3.383700	-10.117000	25.562918	6.310281E-5	20.777864
1880.475285	-3.009000	3.383500	-10.180000	25.552182	6.277286E-5	20.772298
1881.475691	-3.024100	3.382300	-10.226000	25.550590	5.996829E-5	20.756947
1882.476031	-2.998400	3.383100	-10.143000	25.546509	5.930839E-5	20.777032
1883.478525	-3.013400	3.382400	-10.192000	25.541463	6.036423E-5	20.740669
1884.474145	-3.011700	3.381600	-10.184000	25.540663	6.029824E-5	20.765471
1885.474791	-3.021300	3.383200	-10.220000	25.534915	5.871448E-5	20.775820
1886.475774	-3.019300	3.381300	-10.208000	25.544207	5.841753E-5	20.764762
1887.488238	-3.012700	3.382000	-10.188000	25.539604	5.904443E-5	20.784322
1888.492503	-2.992500	3.381100	-10.117000	25.549593	5.627286E-5	20.780603
1889.492813	-3.000600	3.379400	-10.139000	25.554557	5.706474E-5	20.784166
1890.495894	-2.986400	3.380700	-10.095000	25.547077	5.683377E-5	20.767171
1891.476051	-2.997100	3.380800	-10.131000	25.550473	5.538199E-5	20.782909
1892.477232	-2.997700	3.380000	-10.131000	25.552505	5.574494E-5	20.776890
1893.475664	-2.996200	3.379800	-10.125000	25.539183	5.525001E-5	20.784373
1894.476615	-2.995600	3.379400	-10.122000	25.569445	5.511804E-5	20.777781
1895.509662	-3.015800	3.378800	-10.189000	25.551624	5.409519E-5	20.775530
1896.489498	-3.008500	3.377300	-10.160000	25.556239	5.633885E-5	20.771630
1897.503737	-3.007100	3.377500	-10.156000	25.547490	5.416118E-5	20.770430
1898.507747	-3.001200	3.377700	-10.136000	25.559959	5.488707E-5	20.789117
1899.475983	-2.995600	3.378100	-10.119000	25.561572	5.369925E-5	20.772245
1900.478290	-3.000200	3.377700	-10.133000	25.561815	5.313834E-5	20.772963
1901.485148	-2.987400	3.377100	-10.087000	25.565296	5.343529E-5	20.773140
1902.510780	-2.983300	3.376600	-10.073000	25.580622	5.274240E-5	20.781419
1903.493795	-3.003500	3.377600	-10.143000	25.607702	5.228047E-5	20.767364
1904.495407	-3.004700	3.376500	-10.145000	25.573385	5.155458E-5	20.764668
1905.495750	-3.010200	3.375400	-10.160000	25.577412	5.026778E-5	20.769186
1906.505120	-3.028900	3.373100	-10.216000	25.586551	5.089468E-5	20.777417
1907.502826	-3.001500	3.375400	-10.131000	25.587221	5.036677E-5	20.766235
1908.500346	-3.004400	3.374300	-10.137000	25.579741	4.990484E-5	20.772947
1909.502807	-2.989400	3.375400	-10.090000	25.600637	4.861803E-5	20.773071
1910.499497	-2.993400	3.374400	-10.100000	25.599989	5.023479E-5	20.752031
1911.499004	-3.012300	3.373100	-10.160000	25.575784	4.861803E-5	20.768499
1912.487041	-2.999500	3.373300	-10.116000	25.593601	4.776017E-5	20.771220
1913.481063	-2.994400	3.373500	-10.100000	25.601229	4.779316E-5	20.792158
1914.478254	-2.982300	3.373400	-10.060000	25.585649	4.756220E-5	20.773665
1915.478557	-2.999000	3.372000	-10.111000	25.597674	4.624240E-5	20.771043
1916.498161	-2.994900	3.371900	-10.098000	25.593671	4.594545E-5	20.765601
1917.503095	-3.002100	3.370700	-10.118000	25.608504	4.561550E-5	20.765325
1918.490819	-2.979100	3.373300	-10.048000	25.596032	4.779316E-5	20.795473
1919.506600	-2.984000	3.373200	-10.064000	25.603241	4.647336E-5	20.781376
1920.503317	-3.047900	3.369300	-10.268000	25.595908	4.508758E-5	20.775909
1921.501342	-2.995500	3.370700	-10.096000	25.591187	4.399874E-5	20.778279
1922.480176	-2.995500	3.370500	-10.096000	25.589447	4.337184E-5	20.758039
1923.483329	-2.993500	3.369300	-10.085000	25.590909	4.366880E-5	20.768042
1924.482120	-2.991100	3.369400	-10.077000	25.592973	4.446067E-5	20.770590
1925.482906	-2.992100	3.371100	-10.086000	25.609769	4.228301E-5	20.783665
1926.488914	-3.004200	3.368900	-10.120000	25.592198	4.337184E-5	20.779768
1927.481326	-3.000500	3.368800	-10.107000	25.622864	4.116118E-5	20.777377
1928.504817	-3.000300	3.369000	-10.107000	25.619979	4.073225E-5	20.804824
1929.504755	-2.991000	3.367700	-10.071000	25.599054	4.010534E-5	20.790922
1930.495529	-2.986800	3.367800	-10.058000	25.620697	3.947844E-5	20.776149
1931.486685	-3.022800	3.366500	-10.176000	25.613739	3.908250E-5	20.781488
1932.484010	-3.038500	3.366200	-10.226000	25.616846	3.934646E-5	20.774178
1933.483443	-3.009000	3.367200	-10.130000	25.619556	3.974240E-5	20.771209
1934.489566	-2.968500	3.366300	-9.992100	25.616846	4.145813E-5	20.755685
1935.485780	-3.024500	3.366100	-10.180000	25.618210	3.848859E-5	20.769383
1936.488335	-2.991100	3.366600	-10.069000	25.614880	3.779570E-5	20.771255
1937.487629	-2.998900	3.366100	-10.094000	25.626211	3.871956E-5	20.762245
1938.482679	-2.994100	3.364200	-10.072000	25.625045	3.716879E-5	20.768661
1939.489109	-3.005500	3.365200	-10.114000	25.614035	3.687184E-5	20.770879
1940.489566	-2.995800	3.364600	-10.079000	25.602803	3.489214E-5	20.772401
1941.483481	-2.980400	3.365500	-10.030000	25.635029	3.627793E-5	20.783430
1942.484233	-3.018000	3.362300	-10.146000	25.624516	3.565103E-5	20.786148
1943.505939	-2.981100	3.364800	-10.030000	25.632373	3.677285E-5	20.772702
1944.484895	-3.010100	3.364000	-10.124000	25.624122	3.571702E-5	20.772949
1945.484251	-2.997000	3.363000	-10.078000	25.620119	3.423224E-5	20.790267
1946.484513	-3.026800	3.362800	-10.178000	25.618259	3.462818E-5	20.763268
1947.489626	-2.978700	3.362900	-10.016000	25.603349	3.297844E-5	20.783855
1948.487524	-2.988000	3.361600	-10.043000	25.655227	3.350636E-5	20.781905
1949.490092	-2.991600	3.362600	-10.058000	25.636897	3.162565E-5	20.763020
1950.487927	-2.997100	3.360700	-10.071000	25.657616	3.033884E-5	20.779089
1951.490010	-2.994400	3.361400	-10.064000	25.638313	3.076778E-5	20.789099
1952.510050	-2.981900	3.361400	-10.023000	25.628128	3.291245E-5	20.785508
1953.494524	-3.008300	3.360900	-10.110000	25.614408	2.967894E-5	20.771729
1954.511048	-3.004600	3.359700	-10.093000	25.635259	3.103174E-5	20.775600
1955.497796	-3.003800	3.360100	-10.092000	25.612252	3.073478E-5	20.792797
1956.489632	-2.989000	3.360000	-10.042000	25.640829	2.872209E-5	20.782143
1957.492714	-2.979000	3.359900	-10.008000	25.621547	3.169164E-5	20.786959
1958.497840	-3.002300	3.359200	-10.084000	25.640710	2.888707E-5	20.789610
1959.492854	-2.997000	3.358500	-10.063000	25.635492	2.905204E-5	20.786266
1960.494310	-2.992100	3.358500	-10.049000	25.643218	2.783123E-5	20.796870
1961.509142	-2.993300	3.357700	-10.050000	25.626399	2.727031E-5	20.783297
1962.520173	-2.974200	3.358700	-9.988800	25.638850	2.819417E-5	20.793431
1963.521287	-3.009800	3.358800	-10.108000	25.621878	2.664341E-5	20.781602
1964.511605	-3.011900	3.357200	-10.109000	25.638480	2.898605E-5	20.791163
1965.506103	-3.005200	3.356000	-10.085000	25.651399	2.700635E-5	20.798449
1966.496001	-3.001600	3.356700	-10.074000	25.634457	2.687438E-5	20.785700
1967.490770	-3.002900	3.355500	-10.075000	25.655652	2.439976E-5	20.770003
1968.512671	-2.996500	3.355200	-10.052000	25.639650	2.555458E-5	20.781433
1969.492630	-3.009900	3.354100	-10.094000	25.650114	2.410280E-5	20.789097
1970.490651	-3.007800	3.355600	-10.092000	25.667204	2.479569E-5	20.776390
1971.495039	-3.003900	3.355000	-10.077000	25.678611	2.423478E-5	20.805392
1972.491745	-3.031100	3.354000	-10.165000	25.667704	2.390483E-5	20.789221
1973.491316	-2.985500	3.354900	-10.014000	25.684748	2.179316E-5	20.785477
1974.494309	-2.994100	3.354000	-10.041000	25.676571	2.156219E-5	20.793860
1975.494332	-3.002800	3.352600	-10.066000	25.661715	2.136422E-5	20.791266
1976.492765	-3.013400	3.352500	-10.102000	25.665865	2.291498E-5	20.779313
1977.523922	-3.007600	3.352700	-10.082000	25.667207	2.152920E-5	20.776868
1978.510196	-2.999000	3.352900	-10.055000	25.684379	2.011041E-5	20.773726
1979.522674	-2.999900	3.351700	-10.054000	25.669867	1.987945E-5	20.799455
1980.495836	-2.999400	3.353100	-10.057000	25.672232	2.152920E-5	20.766741
1981.496553	-2.996600	3.351600	-10.043000	25.678488	2.024239E-5	20.778715
1982.495473	-3.009500	3.351600	-10.085000	25.673045	1.968148E-5	20.799327
1983.498757	-3.017100	3.350600	-10.108000	25.677146	1.984645E-5	20.794911
1984.499046	-3.005600	3.351000	-10.071000	25.686912	1.984645E-5	20.796659
1985.515691	-3.009800	3.351400	-10.086000	25.691012	2.001143E-5	20.794140
1986.521799	-3.011200	3.349200	-10.084000	25.673964	1.756980E-5	20.785552
1987.511008	-3.025900	3.348100	-10.130000	25.669917	1.796574E-5	20.801401
1988.524985	-3.012300	3.348500	-10.086000	25.714986	1.743782E-5	20.788347
1989.496378	-3.020900	3.347200	-10.111000	25.695602	1.631600E-5	20.806811
1990.521057	-2.982600	3.349000	-9.987800	25.683677	1.565610E-5	20.800997
1991.494169	-2.998000	3.347100	-10.034000	25.713693	1.714087E-5	20.814075
1992.498292	-3.003700	3.347500	-10.053000	25.702536	1.855965E-5	20.822783
1993.498250	-3.002200	3.349000	-10.053000	25.700717	1.667894E-5	20.792034
1994.498759	-2.992900	3.347200	-10.017000	25.685808	1.641498E-5	20.790335
1995.498751	-2.990400	3.347600	-10.010000	25.722704	1.516117E-5	20.800367
1996.498898	-3.006800	3.345200	-10.057000	25.709634	1.535914E-5	20.805731
1997.503671	-2.989800	3.346900	-10.005000	25.738496	1.486422E-5	20.799634
1998.498501	-3.017600	3.344100	-10.089000	25.726945	1.625001E-5	20.793721
1999.499432	-3.006400	3.345000	-10.056000	25.732035	1.427031E-5	20.814481
2000.497766	-2.998800	3.345700	-10.033000	25.732901	1.380838E-5	20.779789
2001.500114	-2.995600	3.344800	-10.019000	25.728132	1.202665E-5	20.819095
2002.513844	-3.022600	3.343800	-10.105000	25.729498	1.337945E-5	20.802450
2003.513211	-3.015000	3.343500	-10.080000	25.737569	1.252158E-5	20.800125
2004.517398	-2.998700	3.343500	-10.025000	25.730985	9.519039E-6	20.800150
2005.515419	-3.015400	3.343300	-10.080000	25.755577	1.209264E-5	20.802092
2006.515191	-2.981300	3.342400	-9.964300	25.723322	1.133376E-5	20.805729
2007.514390	-3.018600	3.341100	-10.085000	25.743776	8.562186E-6	20.803989
2008.517213	-3.016400	3.341000	-10.077000	25.744765	8.826146E-6	20.808302
2009.502455	-3.016700	3.341600	-10.080000	25.761608	9.255080E-6	20.832331
2010.520203	-2.992100	3.342500	-10.000000	25.750455	1.024493E-5	20.812120
2011.517117	-3.017200	3.340800	-10.079000	25.766599	8.595181E-6	20.815060
2012.517534	-2.988100	3.341900	-9.985200	25.762375	8.925131E-6	20.816507
2013.526134	-2.976800	3.341700	-9.946400	25.750472	8.826146E-6	20.812611
2014.525071	-3.012700	3.339700	-10.060000	25.758349	9.848989E-6	20.829532
2015.518003	-2.990700	3.341500	-9.991100	25.773701	6.219546E-6	20.820770
2016.528270	-2.992300	3.340500	-9.995200	25.753998	6.945434E-6	20.820420
2017.514533	-3.013500	3.340000	-10.064000	25.797426	7.077414E-6	20.815679
2018.496705	-2.995500	3.338700	-10.000000	25.769744	3.414976E-6	20.816797
2019.514419	-3.005100	3.337800	-10.030000	25.783962	5.724622E-6	20.820173
2020.542172	-3.028200	3.338000	-10.108000	25.781450	4.305839E-6	20.814331
2021.523323	-3.008400	3.337100	-10.039000	25.765426	5.790612E-6	20.826209
2022.529484	-2.987600	3.338800	-9.972400	25.781200	5.493657E-6	20.813131
2023.529762	-3.032500	3.337000	-10.118000	25.795291	5.064723E-6	20.828233
2024.526106	-3.001200	3.339000	-10.020000	25.792085	2.590103E-6	20.809840
2025.524112	-3.012800	3.337600	-10.055000	25.798792	2.194163E-6	20.821793
2026.530389	-2.987600	3.338600	-9.972700	25.783959	2.029189E-6	20.812582
2027.499495	-3.004300	3.337200	-10.024000	25.771538	2.227158E-6	20.807218
2028.505425	-2.995400	3.336300	-9.993200	25.797225	2.293148E-6	20.823537
2029.502264	-3.008800	3.336100	-10.036000	25.782666	1.765229E-6	20.834991
2030.505114	-2.991600	3.335600	-9.977600	25.804929	1.996194E-6	20.808991
2031.528050	-3.010300	3.333800	-10.035000	25.802445	2.623098E-6	20.808867
2032.517451	-2.977500	3.335700	-9.930500	25.797922	9.733507E-7	20.832298
2033.519815	-3.019500	3.334300	-10.067000	25.795788	1.072335E-6	20.839637
2034.524666	-3.001300	3.335500	-10.010000	25.802273	-1.039341E-6	20.829556
2035.521400	-2.987200	3.335100	-9.961800	25.803263	8.248735E-8	20.845723
2036.526795	-2.995900	3.334100	-9.987200	25.816451	-8.743659E-7	20.827203
2037.523034	-3.003800	3.332700	-10.010000	25.810315	-1.963199E-6	20.845694
2038.531817	-3.002200	3.334000	-10.008000	25.805147	-2.986042E-6	20.833866
2039.529912	-3.014600	3.333800	-10.049000	25.796777	-3.744926E-6	20.816450
2040.500085	-3.024700	3.331400	-10.076000	25.802463	-1.270305E-6	20.823109
2041.504652	-2.992600	3.331300	-9.968100	25.817641	-2.293148E-6	20.842149
2042.503555	-2.992800	3.331700	-9.969300	25.820868	-4.206855E-6	20.834485
2043.504683	-3.008200	3.331500	-10.020000	25.824549	-5.691627E-6	20.843872
2044.508658	-3.008200	3.331100	-10.020000	25.833542	-5.460662E-6	20.854328
2045.523089	-3.002900	3.331000	-10.002000	25.811128	-5.790612E-6	20.831339
2046.514061	-3.006700	3.330700	-10.013000	25.824299	-6.615485E-6	20.845043
2047.506364	-3.005200	3.331000	-10.009000	25.834479	-4.701779E-6	20.836777
2048.506859	-3.002600	3.330100	-9.998200	25.833736	-7.110409E-6	20.848358
2049.507391	-3.013000	3.328700	-10.028000	25.828416	-7.143404E-6	20.836852
2050.526328	-3.005000	3.330500	-10.006000	25.816193	-7.605334E-6	20.838323
2051.528885	-2.994000	3.328000	-9.963100	25.856487	-6.219546E-6	20.831859
2052.504339	-2.991800	3.329500	-9.960500	25.845926	-8.595182E-6	20.837846
2053.505905	-2.969600	3.329700	-9.887000	25.845705	-6.120561E-6	20.845683
2054.504061	-2.995100	3.329400	-9.971200	25.852563	-1.034391E-5	20.818908
2055.509185	-2.980800	3.327300	-9.916600	25.873676	-1.017894E-5	20.861927
2056.504900	-3.007200	3.326300	-10.002000	25.869326	-8.133253E-6	20.848075
2057.513813	-2.989000	3.327100	-9.944000	25.879558	-7.374369E-6	20.860250
2058.507661	-3.040900	3.325300	-10.111000	25.862820	-1.209265E-5	20.855764
2059.505713	-2.995300	3.326400	-9.962900	25.888854	-1.077285E-5	20.840666
2060.533794	-3.026600	3.324800	-10.062000	25.878565	-1.460026E-5	20.844554
2061.508191	-2.977300	3.326800	-9.903600	25.872450	-1.374239E-5	20.850739
2062.521527	-2.974400	3.326000	-9.890500	25.889970	-1.288452E-5	20.842735
2063.527688	-2.989900	3.327100	-9.946600	25.886884	-1.242259E-5	20.856230
2064.534050	-2.992900	3.325000	-9.950700	25.884377	-1.295051E-5	20.854659
2065.506806	-3.006300	3.324900	-9.995600	25.907028	-1.324747E-5	20.843751
2066.508857	-2.995900	3.325100	-9.959600	25.904073	-1.486422E-5	20.855480
2067.506784	-3.008500	3.323700	-9.997500	25.912688	-1.450128E-5	20.866979
2068.515730	-2.988500	3.323000	-9.929700	25.930127	-1.337945E-5	20.859368
2069.505930	-2.985300	3.323400	-9.919700	25.903150	-1.456727E-5	20.846493
2070.509758	-2.985900	3.323400	-9.922400	25.919493	-1.539214E-5	20.845841
2071.511014	-2.994500	3.322000	-9.946800	25.924907	-1.654696E-5	20.864555
2072.513039	-2.981700	3.323500	-9.908700	25.910469	-1.770179E-5	20.848629
2073.507457	-3.004200	3.321400	-9.977000	25.933895	-1.562310E-5	20.856516
2074.533518	-2.994700	3.322100	-9.947700	25.929972	-1.562310E-5	20.859687
2075.507440	-2.989600	3.321900	-9.930300	25.945395	-1.945052E-5	20.858112
2076.523259	-3.000800	3.321100	-9.965300	25.909718	-1.974747E-5	20.868737
2077.507036	-2.989500	3.321100	-9.927900	25.929915	-1.885661E-5	20.852518
2078.511585	-3.004600	3.320200	-9.974300	25.939428	-1.918656E-5	20.858756
2079.512815	-2.998500	3.320300	-9.954300	25.945588	-1.935153E-5	20.857832
2080.508830	-2.988400	3.319300	-9.918100	25.931228	-2.156219E-5	20.859527
2081.508338	-3.018900	3.319100	-10.019000	25.927900	-2.215610E-5	20.884157
2082.514162	-3.005300	3.318500	-9.971600	25.956842	-2.215610E-5	20.844956
2083.513103	-2.995700	3.317900	-9.937800	25.963220	-2.416879E-5	20.893561
2084.535240	-3.014900	3.318000	-10.003000	25.963392	-2.413580E-5	20.879037
2085.534131	-3.019700	3.318200	-10.019000	25.954154	-2.086930E-5	20.851739
2086.536708	-3.008600	3.318600	-9.983400	25.961878	-2.479570E-5	20.862817
2087.529277	-2.977800	3.317800	-9.878400	25.966125	-2.413580E-5	20.870403
2088.535125	-3.018400	3.315900	-10.008000	25.962026	-2.364088E-5	20.878138
2089.511797	-3.018700	3.315900	-10.008000	25.947272	-2.453174E-5	20.861420
2090.518537	-3.022400	3.315400	-10.020000	25.952766	-2.443275E-5	20.865991
2091.521179	-3.018500	3.316000	-10.009000	25.970578	-2.393783E-5	20.853066
2092.520648	-3.006900	3.316300	-9.971300	25.956838	-2.453174E-5	20.890469
2093.515630	-3.001900	3.317000	-9.956100	25.965756	-2.720433E-5	20.874299
2094.542945	-2.992300	3.315900	-9.921300	25.973705	-2.664342E-5	20.857630
2095.516896	-3.018100	3.313500	-9.999400	25.985081	-2.697336E-5	20.849146
2096.519202	-3.029800	3.313500	-10.038000	25.984060	-2.921702E-5	20.875619
2097.534600	-3.004500	3.315500	-9.960400	25.992759	-2.835915E-5	20.879617
2098.517650	-3.015100	3.313500	-9.988800	25.985881	-2.717133E-5	20.875552
2099.515695	-3.008000	3.313200	-9.965500	25.985212	-2.614849E-5	20.883888
2100.518032	-2.985400	3.313800	-9.891800	25.988290	-2.859012E-5	20.877498
2101.526426	-2.978100	3.313800	-9.866800	25.999247	-3.000890E-5	20.896565
2102.515971	-3.003700	3.312600	-9.948600	25.993657	-3.198860E-5	20.888580
2103.519218	-2.997700	3.312900	-9.928900	26.031786	-2.868910E-5	20.872835
2104.535978	-2.984900	3.312500	-9.887000	26.019343	-3.155966E-5	20.892574
2105.513632	-2.996600	3.311500	-9.922700	26.015001	-3.202159E-5	20.888686
2106.523546	-3.022200	3.311100	-10.006000	26.015399	-3.050382E-5	20.893353
2107.514162	-3.012200	3.310600	-9.971200	26.030919	-3.340738E-5	20.882395
2108.518434	-2.979200	3.311800	-9.865800	26.016145	-3.291245E-5	20.872768
2109.538651	-3.010600	3.309800	-9.964000	26.039147	-3.344037E-5	20.889712
2110.518703	-2.996600	3.310300	-9.918200	26.048487	-3.469418E-5	20.893406
2111.517275	-3.026300	3.308100	-10.011000	26.036586	-3.654190E-5	20.884769
2112.518101	-3.000300	3.310100	-9.930000	26.030250	-3.495814E-5	20.889309
2113.513984	-3.003500	3.309700	-9.939500	26.043542	-3.528809E-5	20.900765
2114.531061	-3.013900	3.308300	-9.969900	26.033283	-3.604697E-5	20.893303
2115.540179	-3.016000	3.307900	-9.975200	26.037653	-3.693784E-5	20.892005
2116.540134	-3.026100	3.307600	-10.008000	26.033751	-3.640992E-5	20.912264
2117.545564	-3.002300	3.308100	-9.931000	26.058914	-3.805967E-5	20.889659
2118.544816	-2.983600	3.307100	-9.866400	26.058393	-3.756474E-5	20.875386
2119.516904	-2.993700	3.307400	-9.900700	26.049472	-3.776271E-5	20.891078
2120.517869	-2.992300	3.306900	-9.894300	26.045373	-3.898352E-5	20.897864
2121.515838	-2.993600	3.305700	-9.894900	26.071004	-3.862058E-5	20.914606
2122.519894	-2.981800	3.307000	-9.860200	26.061069	-3.934647E-5	20.876178
2123.517519	-2.967700	3.305800	-9.808800	26.067401	-3.984139E-5	20.896763
2124.537046	-2.998400	3.305500	-9.910100	26.074029	-3.911550E-5	20.893940
2125.520524	-3.004700	3.305100	-9.930100	26.091789	-3.970941E-5	20.889973
2126.536796	-2.982100	3.304400	-9.853100	26.064767	-3.805967E-5	20.907392
2127.546575	-2.967400	3.305800	-9.808700	26.090046	-4.304190E-5	20.897704
2128.518026	-3.013100	3.304000	-9.954400	26.085200	-4.152414E-5	20.887620
2129.521641	-2.986500	3.304300	-9.867400	26.098638	-4.228302E-5	20.907759
2130.522110	-2.982500	3.304000	-9.853200	26.106682	-4.267896E-5	20.904462
2131.521010	-3.003600	3.304200	-9.922900	26.103477	-4.363581E-5	20.899346
2132.517118	-3.005300	3.302500	-9.923700	26.114080	-4.261297E-5	20.911421
2133.521934	-3.000100	3.303000	-9.908600	26.098561	-4.403175E-5	20.914793
2134.544895	-2.978400	3.302600	-9.835500	26.116095	-4.584647E-5	20.910126
2135.541343	-3.029800	3.302200	-10.004000	26.123268	-4.479064E-5	20.899791
2136.551858	-2.995900	3.302300	-9.892200	26.118172	-4.432871E-5	20.900835
2137.547457	-2.975900	3.301500	-9.824300	26.116904	-4.508759E-5	20.916629
2138.539098	-2.982100	3.300900	-9.842400	26.123437	-4.465866E-5	20.909443
2139.534535	-2.991700	3.300600	-9.873300	26.128779	-4.785917E-5	20.920026
2140.533535	-2.980000	3.301400	-9.836600	26.136326	-4.696830E-5	20.895368
2141.552968	-2.969500	3.300800	-9.800900	26.137269	-4.601145E-5	20.920496
2142.552262	-3.017800	3.299700	-9.956100	26.138558	-4.805714E-5	20.896189
2143.538223	-3.013300	3.298600	-9.937500	26.144689	-4.950891E-5	20.922261
2144.542134	-2.987600	3.299100	-9.855800	26.169131	-4.904698E-5	20.912210
2145.544965	-2.995500	3.299200	-9.881200	26.139671	-4.950891E-5	20.913901
2146.555589	-2.995700	3.298100	-9.879100	26.163986	-5.188455E-5	20.913204
2147.544442	-2.991400	3.297500	-9.863000	26.164631	-5.069673E-5	20.902947
2148.542536	-3.024300	3.295600	-9.965600	26.166818	-5.221450E-5	20.891395
2149.543003	-3.019000	3.295900	-9.948800	26.168209	-4.917896E-5	20.897059
2150.521118	-3.003900	3.295800	-9.898100	26.176103	-5.228049E-5	20.907362
2151.521454	-2.979600	3.297000	-9.822600	26.180773	-5.528303E-5	20.918217
2152.521567	-3.027300	3.294600	-9.972500	26.164360	-5.429318E-5	20.911682
2153.556485	-2.986000	3.295000	-9.838300	26.158271	-5.393024E-5	20.921210
2154.551547	-3.020600	3.293300	-9.946400	26.169673	-5.386425E-5	20.912754
2155.549409	-2.966700	3.296200	-9.777100	26.183977	-5.630587E-5	20.910532
2156.525503	-3.015800	3.295100	-9.935800	26.169349	-5.432618E-5	20.901999
2157.526967	-2.995800	3.295300	-9.870600	26.175311	-5.798862E-5	20.920789
2158.526570	-3.011800	3.293800	-9.919800	26.175463	-5.600892E-5	20.890599
2159.527870	-2.996100	3.293900	-9.867900	26.180604	-5.534902E-5	20.921366
2160.533995	-2.998200	3.293400	-9.873200	26.199827	-5.795562E-5	20.898011
2161.527098	-2.980200	3.293200	-9.813400	26.200500	-5.960537E-5	20.859809
2162.526670	-2.978000	3.292800	-9.804700	26.196151	-5.881349E-5	20.904748
2163.543402	-2.992700	3.292100	-9.851000	26.236085	-5.861552E-5	20.894618
2164.557034	-2.974400	3.291000	-9.787900	26.220366	-6.049623E-5	20.900633
2165.546627	-3.002500	3.290000	-9.877600	26.201295	-6.138710E-5	20.883841
2166.527616	-3.004100	3.290400	-9.883900	26.219504	-6.326781E-5	20.898818
2167.526814	-2.986600	3.290400	-9.826700	26.221391	-6.211298E-5	20.893603
2168.528108	-2.996800	3.288900	-9.855500	26.230779	-6.211298E-5	20.872218
2169.528827	-3.008700	3.289400	-9.896400	26.213793	-6.092517E-5	20.892131
2170.532563	-3.014700	3.289200	-9.914500	26.216455	-6.277288E-5	20.883902
2171.527730	-3.009700	3.290000	-9.900800	26.218642	-6.191501E-5	20.890366
2172.528270	-3.000600	3.289600	-9.870400	26.246829	-6.415867E-5	20.886923
2173.531366	-3.007900	3.287300	-9.886500	26.225473	-6.250892E-5	20.878739
2174.542349	-2.993700	3.289200	-9.845700	26.238832	-6.636933E-5	20.876517
2175.545920	-2.976400	3.287500	-9.784100	26.226617	-6.600639E-5	20.887949
2176.551091	-2.982300	3.287000	-9.801600	26.209159	-6.574243E-5	20.877519
2177.554429	-2.988700	3.287500	-9.825000	26.217578	-6.376273E-5	20.876970
2178.542293	-3.014200	3.285700	-9.902900	26.242290	-6.528050E-5	20.842062
2179.546042	-3.008100	3.286500	-9.885300	26.240100	-6.627035E-5	20.864516
2180.551319	-3.007300	3.286200	-9.881500	26.256470	-6.890994E-5	20.855837
2181.533123	-2.979600	3.286600	-9.790500	26.268315	-6.617136E-5	20.873903
2182.528773	-2.999000	3.284500	-9.849400	26.256671	-6.775512E-5	20.879270
2183.530646	-3.022500	3.284100	-9.925200	26.281850	-6.867898E-5	20.877547
2184.533306	-2.983600	3.286400	-9.803800	26.258336	-6.989979E-5	20.872884
2185.532771	-2.985000	3.285500	-9.806200	26.264667	-7.013076E-5	20.861229
2186.550168	-3.007200	3.284000	-9.874700	26.271970	-7.171452E-5	20.884213
2187.560969	-2.989100	3.283300	-9.812700	26.277037	-7.389218E-5	20.862754
2188.553575	-2.973400	3.283600	-9.762800	26.273607	-7.187949E-5	20.848877
2189.547387	-3.004600	3.282000	-9.859800	26.269565	-7.174751E-5	20.859987
2190.554449	-2.982100	3.282500	-9.787500	26.293751	-7.366122E-5	20.867697
2191.553230	-2.996200	3.282800	-9.835000	26.282202	-7.478305E-5	20.855143
2192.537671	-3.014700	3.280800	-9.889200	26.284913	-7.564092E-5	20.850282
2193.528144	-3.011600	3.280600	-9.878000	26.273044	-7.636680E-5	20.874388
2194.530502	-2.981600	3.282800	-9.787100	26.289385	-7.597086E-5	20.862836
2195.532244	-2.972500	3.281000	-9.751900	26.292762	-7.359523E-5	20.857695
2196.529845	-2.982900	3.281700	-9.787800	26.308081	-7.646579E-5	20.863607
2197.554803	-3.027800	3.278600	-9.926000	26.313000	-7.455208E-5	20.851956
2198.533503	-3.003600	3.279700	-9.849900	26.301899	-7.560792E-5	20.860713
2199.551262	-2.987800	3.278900	-9.795700	26.326732	-7.537696E-5	20.833514
2200.534788	-3.022100	3.277600	-9.904600	26.312257	-7.831351E-5	20.840304
2201.533146	-3.016000	3.278100	-9.886100	26.318563	-7.771960E-5	20.864184
2202.532463	-3.032400	3.277400	-9.936800	26.343121	-7.804955E-5	20.838606
2203.555299	-2.997400	3.278200	-9.825600	26.335900	-7.864346E-5	20.864538
2204.558365	-3.006800	3.276700	-9.851000	26.329295	-7.903940E-5	20.856952
2205.532828	-2.988900	3.276900	-9.793400	26.320556	-7.956731E-5	20.834420
2206.536800	-2.969400	3.277900	-9.731900	26.334834	-7.993026E-5	20.841182
2207.537600	-3.008100	3.275700	-9.852700	26.324803	-7.946833E-5	20.843429
2208.540504	-3.030200	3.274800	-9.922400	26.343182	-8.108508E-5	20.844830
2209.538144	-3.018600	3.275000	-9.884800	26.344150	-8.253686E-5	20.852441
2210.536534	-2.984900	3.276100	-9.778000	26.348593	-8.131605E-5	20.846475
2211.542085	-3.006900	3.274000	-9.843500	26.357934	-8.154701E-5	20.844009
2212.568810	-2.990200	3.274900	-9.791500	26.358402	-8.177798E-5	20.856807
2213.539763	-2.993900	3.273700	-9.800100	26.373327	-8.421960E-5	20.848574
2214.537555	-2.974300	3.274100	-9.736600	26.362824	-8.187696E-5	20.853191
2215.537170	-2.999100	3.272800	-9.813500	26.369503	-8.372468E-5	20.839990
2216.537396	-3.002400	3.272400	-9.823300	26.375907	-8.270184E-5	20.830305
2217.541618	-2.998000	3.271400	-9.806700	26.372140	-8.501148E-5	20.826045
2218.543078	-2.986800	3.271800	-9.771000	26.384304	-8.438458E-5	20.839693
2219.547658	-3.009100	3.271200	-9.842700	26.388698	-8.487950E-5	20.832255
2220.580625	-3.011600	3.270500	-9.848000	26.369208	-8.520945E-5	20.837322
2221.541245	-3.006400	3.271000	-9.833400	26.361589	-8.771707E-5	20.838200
2222.545356	-2.998300	3.270300	-9.805100	26.386983	-8.718915E-5	20.815833
2223.544210	-2.995000	3.271000	-9.795700	26.383361	-8.633128E-5	20.841115
2224.549430	-3.005400	3.269200	-9.824800	26.392895	-8.705717E-5	20.839792
2225.546067	-2.982900	3.270100	-9.753400	26.395775	-8.685920E-5	20.830358
2226.565983	-2.999300	3.268600	-9.802600	26.408755	-8.676022E-5	20.839137
2227.547453	-3.006000	3.268100	-9.822900	26.409276	-9.032367E-5	20.836341
2228.547080	-2.993800	3.266900	-9.779000	26.411959	-8.781605E-5	20.848520
2229.545131	-3.000700	3.268000	-9.805500	26.416282	-8.956479E-5	20.831055
2230.572007	-2.985200	3.267900	-9.754500	26.410466	-8.847595E-5	20.837063
2231.568029	-3.000400	3.266500	-9.800100	26.396781	-8.989474E-5	20.803869
2232.567715	-2.985100	3.267000	-9.751500	26.419028	-9.154448E-5	20.835237
2233.574462	-2.993800	3.265800	-9.776600	26.415056	-9.065362E-5	20.837410
2234.546662	-2.997600	3.265500	-9.787400	26.427822	-9.223738E-5	20.833171
2235.545386	-2.966500	3.265200	-9.684900	26.420918	-9.299626E-5	20.817698
2236.562374	-3.008600	3.264700	-9.821000	26.424837	-9.075261E-5	20.831593
2237.551805	-2.987200	3.264200	-9.749600	26.419823	-9.147849E-5	20.824658
2238.549416	-2.981800	3.264100	-9.732100	26.428090	-9.368916E-5	20.843871
2239.550523	-3.002500	3.263500	-9.797300	26.419126	-9.530591E-5	20.833914
2240.549753	-2.995300	3.263000	-9.773000	26.438275	-9.388713E-5	20.834194
2241.565079	-2.984100	3.263700	-9.737800	26.433677	-9.441505E-5	20.841426
2242.548419	-2.986300	3.261600	-9.739200	26.436130	-9.580083E-5	20.831090
2243.548864	-2.993100	3.263100	-9.765600	26.443780	-9.461302E-5	20.834512
2244.548611	-2.995300	3.261800	-9.768700	26.443756	-9.385413E-5	20.835435
2245.552065	-2.990700	3.261500	-9.753700	26.441295	-9.467901E-5	20.849082
2246.553423	-3.023300	3.261600	-9.860200	26.429603	-9.428307E-5	20.834013
2247.549291	-3.010000	3.260400	-9.813300	26.446931	-9.642774E-5	20.838627
2248.551572	-3.026600	3.259400	-9.864000	26.453786	-9.599880E-5	20.834611
2249.549149	-3.007100	3.258900	-9.799000	26.459820	-9.745058E-5	20.827874
2250.556417	-3.005700	3.260300	-9.798500	26.453613	-9.566885E-5	20.832067
2251.552688	-3.023400	3.258400	-9.850300	26.451755	-9.560286E-5	20.821664
2252.553365	-3.006200	3.257300	-9.790500	26.441073	-9.804449E-5	20.824204
2253.548841	-2.989100	3.259100	-9.741300	26.460591	-9.900134E-5	20.831019
2254.564283	-3.011000	3.257300	-9.806800	26.479657	-9.966124E-5	20.825528
2255.568217	-3.003300	3.257500	-9.781900	26.460094	-0.000102	20.832891
2256.568887	-2.980600	3.257200	-9.708000	26.472089	-0.000101	20.820765
2257.568802	-2.978700	3.257100	-9.700800	26.463523	-9.989221E-5	20.839657
2258.571077	-3.015600	3.256700	-9.819900	26.470275	-0.000100	20.837909
2259.581502	-2.985800	3.256700	-9.722700	26.483857	-0.000100	20.811732
2260.583952	-3.013600	3.255500	-9.809200	26.466555	-0.000101	20.823738
2261.579658	-2.997300	3.253500	-9.750900	26.479344	-0.000102	20.833274
2262.580182	-2.994900	3.253900	-9.744500	26.496372	-0.000103	20.824785
2263.585946	-3.017000	3.253800	-9.816600	26.497245	-0.000101	20.825663
2264.579942	-3.001800	3.254500	-9.768800	26.495432	-0.000101	20.816254
2265.588118	-2.990100	3.253800	-9.728000	26.514083	-0.000102	20.816509
2266.580760	-2.994300	3.251900	-9.735500	26.514178	-0.000102	20.806647
2267.570387	-3.010400	3.253000	-9.791800	26.503353	-0.000102	20.795293
2268.563536	-3.000300	3.251600	-9.754500	26.500083	-0.000102	20.811446
2269.558211	-3.011100	3.250200	-9.785700	26.547603	-0.000103	20.804210
2270.559846	-2.990100	3.252700	-9.724800	26.517090	-0.000104	20.829962
2271.586572	-3.013400	3.251000	-9.795100	26.504681	-0.000103	20.805162
2272.560599	-3.005000	3.249600	-9.764100	26.527048	-0.000105	20.803463
2273.567435	-2.975600	3.250400	-9.670900	26.535941	-0.000106	20.791539
2274.570004	-3.008100	3.249200	-9.773000	26.540732	-0.000103	20.799674
2275.584665	-3.011600	3.247700	-9.780600	26.528320	-0.000106	20.796680
2276.590586	-2.992700	3.248000	-9.719400	26.542196	-0.000104	20.806362
2277.578276	-3.015300	3.246400	-9.787700	26.535768	-0.000107	20.798478
2278.585886	-2.973700	3.248100	-9.657400	26.548082	-0.000107	20.805640
2279.587600	-3.013200	3.247000	-9.783600	26.549107	-0.000105	20.805247
2280.577973	-3.007100	3.246400	-9.761600	26.547744	-0.000106	20.813361
2281.583090	-3.027700	3.247100	-9.830400	26.552585	-0.000105	20.797838
2282.561588	-2.983800	3.246200	-9.685200	26.555542	-0.000108	20.787534
2283.569879	-2.984300	3.246700	-9.688400	26.559488	-0.000108	20.803829
2284.566457	-3.005100	3.244800	-9.749700	26.554725	-0.000109	20.811369
2285.584057	-3.003900	3.244800	-9.746100	26.581189	-0.000109	20.810471
2286.586102	-3.003800	3.243400	-9.742000	26.567609	-0.000107	20.784965
2287.580811	-3.019400	3.243700	-9.792000	26.563839	-0.000107	20.810099
2288.567283	-3.016100	3.242400	-9.778600	26.589035	-0.000110	20.806030
2289.569554	-3.009800	3.242900	-9.758300	26.559893	-0.000108	20.801391
2290.569821	-3.024800	3.241700	-9.804800	26.585093	-0.000108	20.822456
2291.572094	-3.025300	3.241500	-9.806200	26.621409	-0.000110	20.805857
2292.581136	-2.985200	3.242500	-9.678000	26.606294	-0.000112	20.795878
2293.568882	-2.997900	3.241200	-9.714800	26.602447	-0.000110	20.807184
2294.570266	-2.994500	3.240800	-9.703900	26.602602	-0.000110	20.782684
2295.569088	-3.017000	3.241500	-9.778000	26.608878	-0.000111	20.788044
2296.589319	-2.995100	3.239400	-9.700700	26.628790	-0.000109	20.799053
2297.595534	-3.003600	3.238900	-9.726900	26.598234	-0.000113	20.770706
2298.590666	-3.010000	3.239400	-9.749400	26.626112	-0.000112	20.787351
2299.576123	-3.004400	3.238000	-9.726500	26.626686	-0.000111	20.796937
2300.584269	-2.994200	3.238100	-9.695500	26.617897	-0.000112	20.777196
2301.590627	-2.998700	3.237800	-9.707900	26.643719	-0.000112	20.801258
2302.588322	-2.989400	3.237000	-9.675500	26.617154	-0.000114	20.793993
2303.583896	-3.011600	3.236200	-9.745300	26.623585	-0.000114	20.800932
2304.595087	-2.997400	3.236700	-9.700100	26.615817	-0.000113	20.793597
2305.588480	-3.027200	3.236500	-9.797100	26.630311	-0.000113	20.768813
2306.572521	-3.017900	3.235800	-9.764200	26.637767	-0.000115	20.780102
2307.573956	-2.996800	3.235000	-9.693200	26.629950	-0.000117	20.786468
2308.570789	-2.982600	3.234700	-9.646800	26.625307	-0.000115	20.767101
2309.574731	-2.993400	3.234200	-9.680400	26.615476	-0.000112	20.762434
2310.576537	-2.990200	3.233500	-9.667900	26.638292	-0.000115	20.785845
2311.574059	-3.017700	3.232300	-9.752800	26.663983	-0.000116	20.784171
2312.569993	-2.976000	3.233100	-9.620300	26.613621	-0.000116	20.756776
2313.573992	-2.997900	3.231900	-9.687900	26.623449	-0.000116	20.776613
2314.573465	-3.006800	3.232000	-9.717000	26.661710	-0.000117	20.782360
2315.595365	-3.000300	3.231700	-9.695400	26.629440	-0.000118	20.771731
2316.577706	-2.985000	3.231500	-9.645000	26.641502	-0.000116	20.776745
2317.606411	-3.015200	3.230400	-9.738800	26.670626	-0.000114	20.759080
2318.606864	-2.997700	3.230500	-9.683500	26.673558	-0.000117	20.762502
2319.594221	-3.012700	3.228700	-9.726600	26.681674	-0.000119	20.753592
2320.586231	-3.015800	3.229200	-9.737500	26.692128	-0.000118	20.776904
2321.575350	-2.985700	3.229000	-9.640000	26.666565	-0.000117	20.762584
2322.611138	-2.982900	3.229300	-9.631600	26.684491	-0.000116	20.781555
2323.597631	-3.006500	3.228100	-9.703600	26.665998	-0.000118	20.777188
2324.597364	-3.004900	3.226600	-9.694500	26.663738	-0.000118	20.751682
2325.598113	-3.008900	3.226600	-9.707800	26.696236	-0.000119	20.776767
2326.598903	-3.032800	3.226200	-9.782900	26.679803	-0.000118	20.772574
2327.604014	-2.998300	3.226100	-9.672100	26.687275	-0.000118	20.763965
2328.600731	-3.014000	3.225500	-9.720000	26.682066	-0.000119	20.764892
2329.598120	-2.988800	3.223800	-9.633800	26.700464	-0.000119	20.761103
2330.592963	-3.027200	3.224200	-9.759500	26.698352	-0.000120	20.772256
2331.610822	-3.007400	3.223400	-9.693000	26.694804	-0.000119	20.772957
2332.610661	-2.970400	3.224100	-9.575700	26.700246	-0.000121	20.761832
2333.599137	-3.010800	3.222000	-9.700200	26.684781	-0.000118	20.767621
2334.604936	-3.015700	3.222700	-9.717100	26.705561	-0.000119	20.765753
2335.577845	-2.992000	3.222700	-9.640800	26.714547	-0.000118	20.746811
2336.580639	-2.994200	3.222100	-9.646800	26.705734	-0.000120	20.773987
2337.581663	-3.004200	3.221500	-9.675900	26.708813	-0.000120	20.750530
2338.580134	-2.979800	3.220800	-9.596300	26.707501	-0.000120	20.762962
2339.596343	-3.013300	3.220600	-9.703400	26.711495	-0.000121	20.754649
2340.601143	-2.978500	3.220200	-9.590100	26.699779	-0.000120	20.762310
2341.578190	-2.967800	3.219600	-9.554100	26.740937	-0.000120	20.770025
2342.583105	-2.976200	3.219700	-9.581500	26.716113	-0.000119	20.752180
2343.581080	-3.002200	3.218400	-9.661200	26.707603	-0.000122	20.771125
2344.581336	-2.996100	3.219100	-9.642800	26.724504	-0.000121	20.752081
2345.591248	-2.999600	3.218400	-9.652900	26.718201	-0.000119	20.747640
2346.578295	-2.998200	3.216500	-9.642400	26.736897	-0.000122	20.756480
2347.581696	-2.997400	3.216700	-9.641000	26.717360	-0.000122	20.748691
2348.608225	-2.999800	3.215800	-9.645700	26.720911	-0.000121	20.746572
2349.601239	-3.003100	3.215400	-9.655100	26.735901	-0.000124	20.765910
2350.599043	-2.996400	3.215400	-9.633700	26.756955	-0.000121	20.758154
2351.595122	-3.012000	3.213900	-9.679400	26.762015	-0.000121	20.763242
2352.606189	-3.031700	3.213600	-9.742200	26.741789	-0.000121	20.769933
2353.600021	-2.995400	3.213700	-9.625400	26.736056	-0.000122	20.747573
2354.597659	-2.996600	3.214000	-9.630500	26.768745	-0.000123	20.767163
2355.578249	-3.001200	3.212200	-9.639800	26.760407	-0.000122	20.774428
2356.581172	-3.024400	3.211800	-9.713000	26.752021	-0.000123	20.765521
2357.580256	-3.008800	3.212300	-9.664700	26.762269	-0.000121	20.744056
2358.584995	-3.020600	3.210600	-9.697200	26.744000	-0.000121	20.760302
2359.605192	-2.980700	3.211000	-9.569900	26.748519	-0.000121	20.761052
2360.605461	-2.980900	3.210500	-9.569000	26.771033	-0.000122	20.744806
2361.606503	-3.000600	3.209400	-9.629100	26.775306	-0.000125	20.758586
2362.607494	-3.023500	3.209300	-9.702500	26.784135	-0.000122	20.762722
2363.606544	-3.005700	3.208400	-9.642300	26.780764	-0.000124	20.755539
2364.604630	-3.018300	3.207800	-9.681200	26.788355	-0.000122	20.747050
2365.585030	-3.031400	3.206800	-9.719100	26.790639	-0.000125	20.755036
2366.587772	-3.014400	3.206500	-9.664500	26.793296	-0.000125	20.742060
2367.603104	-2.991400	3.206900	-9.591800	26.803474	-0.000125	20.751346
2368.582040	-3.020900	3.205700	-9.683400	26.789774	-0.000123	20.759856
2369.589474	-3.001600	3.205100	-9.620100	26.794760	-0.000124	20.743058
2370.588718	-2.999300	3.205600	-9.613100	26.812308	-0.000123	20.764021
2371.585295	-2.995200	3.205400	-9.599300	26.802527	-0.000126	20.754661
2372.605360	-2.991900	3.204700	-9.587000	26.831966	-0.000125	20.757708
2373.600224	-2.979900	3.205000	-9.548900	26.823822	-0.000125	20.752839
2374.613694	-3.011000	3.202800	-9.643200	26.826705	-0.000124	20.753840
2375.613290	-3.019400	3.202700	-9.669400	26.848418	-0.000127	20.767612
2376.622725	-3.036700	3.201300	-9.720500	26.818188	-0.000126	20.737216
2377.607797	-3.005600	3.201700	-9.620900	26.823375	-0.000127	20.754286
2378.613252	-3.008100	3.200600	-9.626400	26.851198	-0.000125	20.748122
2379.608974	-3.006900	3.200300	-9.621900	26.839877	-0.000126	20.752860
2380.608279	-3.003400	3.200100	-9.609800	26.833701	-0.000127	20.737640
2381.591951	-3.019700	3.199800	-9.660100	26.827193	-0.000128	20.768082
2382.605811	-2.988700	3.201000	-9.566000	26.829977	-0.000126	20.743380
2383.585755	-3.023100	3.199300	-9.671400	26.839430	-0.000127	20.758100
2384.586247	-2.997000	3.198400	-9.584100	26.854569	-0.000124	20.757676
2385.594291	-2.995600	3.197500	-9.578000	26.839229	-0.000127	20.773072
2386.588003	-2.998000	3.196900	-9.583400	26.840225	-0.000125	20.763168
2387.586973	-3.001800	3.197300	-9.596900	26.852933	-0.000126	20.740383
2388.586550	-2.979200	3.195300	-9.518900	26.865862	-0.000125	20.763341
2389.587195	-3.021600	3.195400	-9.654600	26.843875	-0.000124	20.752612
2390.591141	-2.987800	3.195400	-9.545500	26.849083	-0.000128	20.752159
2391.603810	-2.999700	3.194700	-9.582500	26.849431	-0.000128	20.755828
2392.603338	-3.006900	3.194800	-9.605300	26.874252	-0.000128	20.766087
2393.603202	-2.986800	3.193500	-9.537600	26.862959	-0.000128	20.760422
2394.606883	-3.024100	3.192500	-9.653300	26.884749	-0.000129	20.770952
2395.609170	-3.027900	3.192200	-9.664900	26.872070	-0.000127	20.764841
2396.592276	-2.995100	3.192900	-9.562400	26.858764	-0.000125	20.768058
2397.590312	-2.995800	3.192200	-9.561800	26.864377	-0.000128	20.771331
2398.594192	-3.002500	3.189800	-9.576800	26.882219	-0.000129	20.765089
2399.593619	-2.982200	3.190000	-9.513500	26.858989	-0.000126	20.771603
2400.590816	-2.993300	3.188600	-9.543000	26.867555	-0.000127	20.758879
2401.597036	-2.997600	3.188900	-9.558500	26.873587	-0.000127	20.770160
2402.615115	-2.972200	3.189100	-9.477500	26.876191	-0.000128	20.744328
2403.610080	-3.024900	3.188300	-9.642700	26.890313	-0.000127	20.768960
2404.607887	-3.018000	3.186400	-9.615500	26.880980	-0.000128	20.775224
2405.597652	-2.986100	3.187500	-9.517200	26.881882	-0.000128	20.759060
2406.596538	-2.974100	3.187300	-9.478600	26.904365	-0.000129	20.772184
2407.589523	-2.979300	3.186400	-9.491500	26.896250	-0.000128	20.736048
2408.594037	-2.979200	3.185100	-9.488000	26.904938	-0.000127	20.766597
2409.597322	-3.023200	3.184500	-9.626200	26.901859	-0.000128	20.758759
2410.591967	-3.000600	3.183900	-9.552400	26.931812	-0.000129	20.759481
2411.591448	-2.981600	3.183600	-9.491600	26.905086	-0.000128	20.751572
2412.594951	-2.994400	3.183300	-9.531500	26.916575	-0.000127	20.775454
2413.589930	-2.999300	3.182800	-9.546000	26.925088	-0.000130	20.765996
2414.597538	-3.020800	3.182000	-9.610800	26.917223	-0.000129	20.764725
2415.594512	-2.992800	3.182100	-9.521900	26.906353	-0.000130	20.764701
2416.596033	-2.991600	3.180700	-9.514600	26.897193	-0.000129	20.761654
2417.613399	-2.981300	3.180300	-9.481100	26.923874	-0.000129	20.758611
2418.616092	-3.016900	3.180500	-9.594300	26.931816	-0.000128	20.768968
2419.611384	-2.994800	3.179400	-9.521000	26.921615	-0.000129	20.762029
2420.618808	-2.987900	3.178700	-9.496600	26.945663	-0.000128	20.762977
2421.617060	-3.030100	3.177200	-9.626000	26.935318	-0.000129	20.773912
2422.615376	-2.992400	3.177500	-9.506500	26.932464	-0.000128	20.781474
2423.620532	-2.987200	3.177700	-9.491100	26.944178	-0.000130	20.779977
2424.597631	-2.999300	3.176500	-9.526500	26.951276	-0.000128	20.778579
2425.601403	-3.004000	3.175500	-9.537900	26.955544	-0.000128	20.775759
2426.604425	-2.995700	3.176500	-9.514500	26.953584	-0.000129	20.774736
2427.601945	-3.013600	3.174300	-9.565500	26.968201	-0.000130	20.780900
2428.623234	-3.014800	3.174200	-9.567700	26.967656	-0.000130	20.790783
2429.603669	-2.999500	3.175100	-9.523000	26.981953	-0.000131	20.795677
2430.605058	-3.021500	3.171700	-9.582200	27.013892	-0.000131	20.765682
2431.602524	-2.981800	3.173400	-9.460600	26.992051	-0.000131	20.767900
2432.603891	-3.003000	3.171500	-9.523300	27.003293	-0.000132	20.767826
2433.610206	-3.033700	3.170500	-9.617400	27.013272	-0.000133	20.767904
2434.623860	-3.008100	3.169700	-9.534600	26.970689	-0.000132	20.777713
2435.630419	-3.023400	3.169400	-9.581900	27.003002	-0.000132	20.775119
2436.619394	-2.986500	3.169500	-9.465000	26.992850	-0.000130	20.787670
2437.629746	-2.998600	3.168900	-9.501400	26.996770	-0.000129	20.796828
2438.611219	-3.008900	3.167900	-9.531200	26.992256	-0.000130	20.771425
2439.628971	-3.003400	3.167500	-9.512100	26.996130	-0.000132	20.769631
2440.637095	-3.012700	3.167200	-9.540800	27.007696	-0.000130	20.794539
2441.635027	-2.967800	3.167400	-9.398700	27.026060	-0.000131	20.767013
2442.631684	-3.003900	3.165800	-9.509000	27.016757	-0.000131	20.809815
2443.608770	-2.993500	3.165200	-9.472600	27.027052	-0.000131	20.786029
2444.607872	-3.003000	3.164900	-9.502900	27.041693	-0.000130	20.784631
2445.628452	-3.002500	3.164100	-9.499300	27.022693	-0.000130	20.800138
2446.629014	-3.006100	3.165700	-9.515400	27.028077	-0.000130	20.786585
2447.633927	-3.000200	3.162800	-9.488500	27.029811	-0.000131	20.799235
2448.633645	-3.002400	3.161800	-9.492500	27.040733	-0.000132	20.768019
2449.614341	-3.016400	3.161700	-9.535100	27.047780	-0.000129	20.796443
2450.607733	-2.996500	3.161700	-9.472600	27.045923	-0.000132	20.787463
2451.629328	-3.006700	3.159200	-9.498500	27.021529	-0.000131	20.782371
2452.629256	-3.022700	3.158300	-9.544700	27.044828	-0.000130	20.774508
2453.630529	-3.013300	3.158800	-9.517400	27.055156	-0.000130	20.795326
2454.610868	-3.002600	3.158500	-9.482800	27.045902	-0.000130	20.786494
2455.625762	-3.001800	3.156400	-9.473900	27.061957	-0.000132	20.774665
2456.613074	-2.997300	3.157600	-9.462700	27.077716	-0.000132	20.800945
2457.630965	-3.040100	3.155500	-9.592500	27.068435	-0.000131	20.786869
2458.613870	-2.968300	3.156800	-9.369200	27.049649	-0.000130	20.815867
2459.609979	-3.002500	3.153300	-9.467200	27.078286	-0.000130	20.780181
2460.610910	-2.996400	3.154900	-9.452300	27.086748	-0.000132	20.791536
2461.610854	-3.001600	3.154700	-9.468300	27.062703	-0.000131	20.793433
2462.608323	-2.964800	3.153800	-9.349300	27.072038	-0.000130	20.793338
2463.613089	-2.988600	3.154100	-9.424300	27.091442	-0.000132	20.800524
2464.623880	-2.991800	3.152900	-9.430800	27.094791	-0.000131	20.795358
2465.632483	-3.013300	3.150500	-9.491800	27.097276	-0.000131	20.786951
2466.637637	-3.006800	3.150900	-9.473200	27.089011	-0.000131	20.797605
2467.644071	-2.995300	3.152100	-9.440700	27.097321	-0.000131	20.798851
2468.651254	-2.961800	3.150100	-9.329000	27.101814	-0.000131	20.785352
2469.623863	-2.980700	3.148900	-9.384600	27.080102	-0.000130	20.799077
2470.631444	-3.012600	3.147000	-9.479900	27.101216	-0.000131	20.782853
2471.641878	-3.015900	3.147200	-9.489900	27.116823	-0.000131	20.798550
2472.632839	-2.997500	3.145700	-9.428800	27.110694	-0.000128	20.805188
2473.632903	-3.024400	3.145900	-9.513600	27.112650	-0.000130	20.800042
2474.633390	-3.005600	3.145600	-9.453300	27.097735	-0.000130	20.813492
2475.635507	-2.993900	3.144400	-9.413600	27.133270	-0.000128	20.803712
2476.614272	-3.009400	3.143500	-9.459500	27.135525	-0.000132	20.804557
2477.637320	-2.970400	3.143300	-9.336000	27.133959	-0.000129	20.806776
2478.614077	-3.008700	3.141800	-9.452100	27.147033	-0.000131	20.829407
2479.615944	-3.008300	3.141100	-9.448700	27.148598	-0.000131	20.806800
2480.615475	-3.012100	3.141100	-9.459900	27.151755	-0.000131	20.802388
2481.618930	-3.006800	3.140000	-9.440300	27.127310	-0.000131	20.826640
2482.617746	-2.995800	3.140700	-9.406800	27.165172	-0.000129	20.835797
2483.619465	-2.970100	3.139400	-9.323600	27.160479	-0.000131	20.802154
2484.617835	-2.989600	3.138000	-9.379700	27.169038	-0.000131	20.825936
2485.620746	-3.004800	3.137800	-9.427500	27.177545	-0.000131	20.810310
2486.628083	-3.009500	3.135900	-9.435600	27.167944	-0.000130	20.814404
2487.620782	-3.018000	3.135800	-9.463300	27.151493	-0.000130	20.798806
2488.639887	-2.975000	3.136000	-9.328500	27.167842	-0.000130	20.819991
2489.654810	-3.013400	3.133300	-9.440600	27.186301	-0.000129	20.800625
2490.644067	-2.997700	3.133800	-9.393200	27.198775	-0.000130	20.821232
2491.642523	-2.996600	3.133000	-9.387800	27.197984	-0.000130	20.831815
2492.640670	-3.008000	3.131900	-9.419600	27.185797	-0.000130	20.824300
2493.642013	-3.013000	3.130400	-9.430900	27.182296	-0.000131	20.815089
2494.627552	-2.984000	3.131500	-9.343300	27.189167	-0.000131	20.849025
2495.617063	-2.970600	3.131000	-9.300200	27.202838	-0.000132	20.810620
2496.619568	-3.008500	3.128200	-9.410700	27.189290	-0.000132	20.816433
2497.652875	-2.980600	3.127700	-9.321500	27.213180	-0.000131	20.827186
2498.643109	-3.013900	3.127600	-9.425300	27.214046	-0.000128	20.834694
2499.647811	-2.986700	3.126600	-9.336800	27.204839	-0.000129	20.840607
2500.639498	-2.988900	3.126000	-9.342300	27.212332	-0.000133	20.842454
2501.637691	-2.995900	3.124400	-9.360200	27.228331	-0.000131	20.835787
2502.647637	-2.981300	3.125700	-9.317800	27.233714	-0.000130	20.812278
2503.621631	-2.991700	3.124300	-9.346500	27.243335	-0.000132	20.830490
2504.646675	-3.021400	3.122100	-9.432300	27.241794	-0.000130	20.836526
2505.646011	-2.983900	3.123300	-9.319000	27.220831	-0.000129	20.837725
2506.655095	-3.008800	3.122400	-9.394400	27.257206	-0.000132	20.832588
2507.645387	-3.024300	3.119800	-9.434100	27.256702	-0.000133	20.834926
2508.646605	-2.989100	3.119500	-9.324000	27.245438	-0.000132	20.829286
2509.627901	-2.981000	3.120000	-9.299100	27.245118	-0.000131	20.821378
2510.625010	-3.001400	3.117900	-9.357500	27.259203	-0.000132	20.835071
2511.626296	-2.994700	3.117200	-9.334100	27.270069	-0.000131	20.829406
2512.629155	-3.018200	3.116500	-9.405800	27.262728	-0.000131	20.833401
2513.628993	-3.026800	3.115300	-9.428200	27.273516	-0.000130	20.827658
2514.651624	-3.002000	3.115300	-9.351400	27.275943	-0.000130	20.840056
2515.639395	-3.013800	3.115300	-9.387500	27.275029	-0.000130	20.826334
2516.660089	-3.005000	3.114400	-9.357300	27.267065	-0.000131	20.827332
2517.627084	-3.012400	3.111700	-9.371700	27.268352	-0.000131	20.836687
2518.631956	-3.001300	3.110900	-9.336100	27.268324	-0.000131	20.848038
2519.626383	-3.003600	3.112400	-9.347800	27.284818	-0.000133	20.865577
2520.626667	-3.005500	3.109000	-9.342900	27.287974	-0.000131	20.839829
2521.633786	-2.994400	3.109200	-9.308200	27.300275	-0.000130	20.850780
2522.634335	-2.991700	3.108500	-9.298900	27.287446	-0.000132	20.853522
2523.627847	-2.997100	3.107900	-9.313800	27.296176	-0.000130	20.841916
2524.632074	-3.015800	3.105700	-9.364600	27.311977	-0.000132	20.865870
2525.628747	-3.003400	3.108200	-9.333300	27.317011	-0.000130	20.850546
2526.653158	-3.006200	3.106100	-9.336700	27.314650	-0.000130	20.871878
2527.660545	-3.008900	3.104700	-9.340700	27.326578	-0.000130	20.840256
2528.658181	-2.970500	3.102700	-9.215900	27.316307	-0.000132	20.853156
2529.656853	-3.000400	3.101100	-9.303800	27.345502	-0.000130	20.859291
2530.632807	-3.012800	3.099500	-9.337300	27.326272	-0.000130	20.857016
2531.634642	-3.008900	3.098500	-9.321200	27.327784	-0.000132	20.861382
2532.635272	-2.995800	3.100600	-9.288200	27.343412	-0.000128	20.845810
2533.642118	-2.979500	3.099800	-9.234300	27.350996	-0.000131	20.862447
2534.632474	-2.969700	3.096800	-9.195300	27.377218	-0.000130	20.872230
2535.636179	-3.026400	3.096300	-9.369400	27.354541	-0.000130	20.863642
2536.631774	-2.994000	3.094800	-9.265000	27.359328	-0.000131	20.857553
2537.661361	-3.005500	3.094500	-9.299900	27.373792	-0.000130	20.846025
2538.654297	-2.995100	3.093300	-9.263900	27.362948	-0.000129	20.880633
2539.646018	-3.008200	3.092100	-9.301100	27.390785	-0.000129	20.868334
2540.640147	-3.007500	3.090700	-9.294500	27.377932	-0.000128	20.864414
2541.658187	-2.978700	3.091000	-9.204800	27.389912	-0.000130	20.862241
2542.655391	-2.999600	3.088900	-9.264400	27.405884	-0.000129	20.884946
2543.654071	-3.014000	3.089300	-9.309900	27.396978	-0.000131	20.881202
2544.648978	-2.978800	3.087400	-9.195500	27.411885	-0.000131	20.872965
2545.661510	-2.995300	3.088000	-9.248600	27.421831	-0.000129	20.854524
2546.650563	-3.001300	3.084900	-9.257800	27.417291	-0.000130	20.877455
2547.640528	-2.984900	3.085400	-9.208800	27.440831	-0.000131	20.869844
2548.639657	-2.997000	3.082900	-9.238500	27.424086	-0.000131	20.888558
2549.635162	-3.015300	3.083200	-9.295500	27.440135	-0.000131	20.871514
2550.639457	-3.009500	3.081300	-9.271800	27.413266	-0.000131	20.863450
2551.657550	-3.028700	3.078900	-9.323100	27.410094	-0.000132	20.865948
2552.666887	-3.004100	3.078000	-9.245700	27.425176	-0.000131	20.854095
2553.651853	-3.013200	3.079400	-9.276700	27.435963	-0.000130	20.860206
2554.659196	-3.000100	3.076900	-9.230500	27.429091	-0.000133	20.873679
2555.656847	-3.015700	3.076100	-9.275400	27.451959	-0.000132	20.884831
2556.646330	-2.984700	3.074700	-9.176100	27.434053	-0.000132	20.874879
2557.658427	-3.018900	3.072800	-9.276100	27.442509	-0.000133	20.881014
2558.660735	-3.013000	3.072100	-9.255900	27.441098	-0.000130	20.875802
2559.655793	-3.016100	3.070300	-9.259000	27.444967	-0.000131	20.898185
2560.644355	-2.994300	3.070700	-9.193200	27.445340	-0.000135	20.886707
2561.642157	-3.015800	3.067800	-9.250800	27.456672	-0.000132	20.881038
2562.660001	-2.997600	3.067600	-9.194500	27.454397	-0.000133	20.890603
2563.657193	-3.002200	3.064700	-9.200000	27.456623	-0.000130	20.884308
2564.639362	-3.006200	3.065000	-9.212800	27.497601	-0.000133	20.873852
2565.644829	-3.018000	3.063100	-9.243800	27.484556	-0.000133	20.878746
2566.636679	-2.999400	3.063500	-9.186900	27.495223	-0.000134	20.889951
2567.647106	-3.012800	3.061400	-9.221400	27.492691	-0.000133	20.904472
2568.644061	-2.968700	3.060900	-9.086200	27.515263	-0.000132	20.917697
2569.660398	-2.978500	3.059700	-9.111800	27.495867	-0.000131	20.913830
2570.641666	-3.010400	3.057700	-9.203600	27.523229	-0.000133	20.896317
2571.640831	-2.989200	3.056100	-9.134100	27.513677	-0.000133	20.917050
2572.646043	-2.991600	3.056900	-9.144100	27.496314	-0.000134	20.896738
2573.642070	-2.991100	3.055200	-9.137100	27.518910	-0.000134	20.907617
2574.645738	-3.000700	3.054100	-9.163300	27.532675	-0.000136	20.908190
2575.653115	-2.990800	3.053400	-9.131400	27.532102	-0.000135	20.889597
2576.645352	-2.982100	3.052400	-9.101200	27.535548	-0.000133	20.900176
2577.660217	-2.976900	3.050900	-9.080400	27.523619	-0.000132	20.906665
2578.678553	-2.998500	3.049400	-9.142600	27.531782	-0.000133	20.914403
2579.672724	-3.006800	3.046200	-9.158900	27.539867	-0.000133	20.916374
2580.662963	-2.987800	3.046500	-9.101100	27.553509	-0.000134	20.905919
2581.644024	-3.027800	3.043700	-9.214800	27.557427	-0.000133	20.895637
2582.662273	-3.014300	3.043100	-9.171600	27.554673	-0.000134	20.916098
2583.663906	-2.956900	3.041400	-8.992200	27.566922	-0.000133	20.896182
2584.666382	-3.006600	3.041800	-9.144000	27.560894	-0.000134	20.900074
2585.669972	-2.967400	3.039800	-9.019900	27.558292	-0.000133	20.905989
2586.671799	-3.024100	3.036900	-9.183300	27.564889	-0.000133	20.909308
2587.648321	-2.999800	3.037700	-9.111800	27.553699	-0.000132	20.907058
2588.646786	-3.026400	3.034600	-9.183100	27.552113	-0.000132	20.904988
2589.650263	-2.995200	3.035600	-9.091100	27.562107	-0.000133	20.907458
2590.653155	-2.997200	3.031900	-9.085900	27.569721	-0.000130	20.929815
2591.651823	-3.029400	3.031000	-9.180200	27.590530	-0.000133	20.904287
2592.648749	-3.012400	3.031600	-9.130900	27.590874	-0.000132	20.911271
2593.646513	-3.007900	3.028600	-9.108900	27.595263	-0.000131	20.909524
2594.650796	-2.992200	3.027500	-9.057600	27.588891	-0.000132	20.920654
2595.646784	-2.967100	3.029300	-8.988200	27.607712	-0.000133	20.939116
2596.649148	-3.001100	3.025700	-9.079200	27.610908	-0.000133	20.919101
2597.648869	-2.966600	3.025000	-8.973500	27.585957	-0.000129	20.919126
2598.648854	-2.999800	3.023000	-9.067800	27.623160	-0.000131	20.915782
2599.657139	-3.030500	3.020400	-9.152500	27.624599	-0.000129	20.917703
2600.666139	-3.000600	3.020500	-9.062300	27.616018	-0.000131	20.921397
2601.669295	-3.030400	3.017700	-9.144000	27.613314	-0.000130	20.905875
2602.670317	-3.007900	3.017100	-9.074200	27.607364	-0.000131	20.915535
2603.669629	-3.018300	3.016000	-9.102000	27.630601	-0.000131	20.919002
2604.670535	-2.992500	3.015100	-9.021700	27.646148	-0.000132	20.904775
2605.668718	-2.970200	3.015600	-8.955100	27.614703	-0.000132	20.905851
2606.681141	-3.011000	3.010900	-9.064800	27.636055	-0.000132	20.883716
2607.690858	-3.015700	3.010900	-9.078700	27.629434	-0.000132	20.896492
2608.653122	-3.011400	3.010500	-9.064300	27.632908	-0.000133	20.910893
2609.656799	-3.022900	3.007900	-9.092100	27.633499	-0.000131	20.919072
2610.658069	-2.988400	3.007200	-8.985500	27.629258	-0.000130	20.902953
2611.655810	-3.005500	3.006300	-9.033900	27.651802	-0.000131	20.892922
2612.658551	-3.042900	3.002000	-9.133400	27.656240	-0.000131	20.878897
2613.655240	-2.999200	3.001400	-8.999900	27.669954	-0.000132	20.900756
2614.655866	-3.003400	3.000800	-9.011300	27.658748	-0.000131	20.888531
2615.672584	-3.025900	2.998700	-9.072100	27.681784	-0.000130	20.907443
2616.656843	-3.018700	2.997300	-9.046700	27.647628	-0.000132	20.906264
2617.658583	-2.978700	2.997000	-8.926500	27.671389	-0.000131	20.889872
2618.654564	-2.991600	2.996700	-8.963400	27.663136	-0.000132	20.888680
2619.658115	-3.015500	2.993100	-9.024700	27.688774	-0.000130	20.903098
2620.662061	-2.992600	2.992700	-8.955100	27.690114	-0.000132	20.891645
2621.657735	-3.005500	2.990700	-8.987700	27.685500	-0.000132	20.888425
2622.661283	-3.006800	2.988900	-8.986300	27.693957	-0.000129	20.885081
2623.668000	-2.993000	2.988700	-8.944900	27.695711	-0.000131	20.884950
2624.657657	-2.971500	2.986500	-8.873000	27.698461	-0.000132	20.885820
2625.659763	-2.993000	2.985000	-8.933600	27.685370	-0.000131	20.874544
2626.667196	-2.992600	2.984400	-8.930100	27.698408	-0.000132	20.895249
2627.686031	-3.000300	2.983100	-8.948800	27.698310	-0.000131	20.871918
2628.673524	-3.030500	2.980000	-9.030100	27.704288	-0.000132	20.892157
2629.662992	-3.012000	2.979800	-8.974300	27.700637	-0.000132	20.869994
2630.682601	-3.027400	2.977900	-9.013700	27.715367	-0.000130	20.890030
2631.669346	-2.999600	2.976100	-8.926400	27.693963	-0.000132	20.879398
2632.692601	-2.991400	2.974100	-8.895900	27.712958	-0.000131	20.883814
2633.689931	-3.026600	2.972000	-8.993800	27.709284	-0.000132	20.883435
2634.683361	-3.007700	2.971700	-8.937800	27.699807	-0.000131	20.881011
2635.685102	-2.990900	2.970800	-8.883800	27.714983	-0.000131	20.883481
2636.704359	-2.973600	2.970300	-8.830900	27.721183	-0.000131	20.893511
2637.686748	-2.973600	2.967500	-8.823100	27.720085	-0.000132	20.890511
2638.686723	-3.002200	2.966900	-8.906200	27.717304	-0.000132	20.899091
2639.698871	-3.006800	2.964900	-8.913800	27.716259	-0.000130	20.902307
2640.662672	-2.987300	2.963900	-8.853100	27.739097	-0.000134	20.877875
2641.677574	-3.009000	2.960700	-8.908000	27.743412	-0.000130	20.897863
2642.668501	-2.996400	2.960200	-8.869000	27.734730	-0.000134	20.898609
2643.684098	-3.001900	2.959100	-8.881800	27.740082	-0.000132	20.869383
2644.663132	-2.997800	2.956200	-8.861200	27.747244	-0.000132	20.875642
2645.667499	-3.006000	2.956200	-8.885600	27.742676	-0.000130	20.855874
2646.676062	-3.000800	2.954400	-8.864800	27.741681	-0.000130	20.865778
2647.688582	-3.002000	2.953000	-8.863600	27.741976	-0.000132	20.859911
2648.688986	-3.017900	2.949900	-8.901400	27.752514	-0.000131	20.883316
2649.666247	-3.043300	2.948400	-8.971600	27.752757	-0.000132	20.859854
2650.686882	-3.014900	2.948300	-8.886600	27.736434	-0.000131	20.879937
2651.666028	-3.007900	2.945200	-8.857500	27.762890	-0.000132	20.880008
2652.665651	-3.006300	2.943100	-8.847000	27.763038	-0.000131	20.870200
2653.670312	-3.009700	2.942000	-8.853800	27.772753	-0.000132	20.879976
2654.695146	-2.973300	2.941900	-8.746800	27.786142	-0.000133	20.864054
2655.681738	-3.006800	2.940200	-8.839000	27.785745	-0.000132	20.862232
2656.687923	-3.018200	2.938000	-8.866600	27.791367	-0.000133	20.878794
2657.667173	-3.004200	2.938000	-8.823900	27.810181	-0.000132	20.867383
2658.682541	-3.006800	2.933900	-8.820600	27.822409	-0.000132	20.865939
2659.692962	-2.988400	2.933900	-8.766700	27.825356	-0.000130	20.880757
2660.685290	-3.006800	2.931100	-8.812600	27.827092	-0.000131	20.874445
2661.667058	-2.979700	2.930600	-8.731900	27.811939	-0.000131	20.870100
2662.681079	-2.985300	2.928300	-8.741100	27.838347	-0.000132	20.861591
2663.671739	-2.988000	2.927300	-8.746000	27.827089	-0.000133	20.871123
2664.677848	-3.000900	2.924500	-8.775000	27.842362	-0.000131	20.882226
2665.670630	-2.973900	2.925500	-8.699100	27.848532	-0.000133	20.852402
2666.671982	-3.012500	2.921800	-8.800300	27.836606	-0.000134	20.875960
2667.669952	-2.991300	2.920100	-8.733100	27.841289	-0.000133	20.872138
2668.677032	-2.987200	2.919000	-8.718800	27.860212	-0.000132	20.859415
2669.673744	-2.991800	2.916300	-8.723100	27.850540	-0.000133	20.859638
2670.693809	-2.996300	2.914800	-8.732500	27.869880	-0.000134	20.862033
2671.692634	-3.012000	2.912100	-8.769800	27.893808	-0.000134	20.854822
2672.697989	-2.959400	2.912300	-8.617200	27.873477	-0.000132	20.850006
2673.676169	-3.033200	2.909100	-8.822100	27.883100	-0.000134	20.863958
2674.680718	-2.998500	2.908000	-8.718600	27.877249	-0.000132	20.855225
2675.689237	-2.998900	2.906000	-8.713900	27.893221	-0.000133	20.856128
2676.703029	-3.003200	2.905200	-8.723700	27.907625	-0.000133	20.866831
2677.692466	-3.020600	2.901200	-8.762500	27.897261	-0.000133	20.862564
2678.674837	-3.009300	2.900900	-8.729000	27.874377	-0.000133	20.863240
2679.675942	-3.009500	2.897800	-8.720400	27.881563	-0.000131	20.848188
2680.676987	-3.057600	2.894700	-8.850100	27.894290	-0.000133	20.835867
2681.674733	-3.004000	2.895500	-8.696700	27.902148	-0.000134	20.845672
2682.672291	-2.984400	2.893600	-8.634900	27.904953	-0.000132	20.861297
2683.676373	-3.026200	2.890800	-8.746900	27.906838	-0.000133	20.852763
2684.677852	-2.984200	2.889800	-8.622600	27.924416	-0.000132	20.843903
2685.678180	-2.989000	2.887400	-8.629000	27.890574	-0.000133	20.845877
2686.696250	-2.994900	2.886700	-8.643500	27.907309	-0.000132	20.847547
2687.697800	-3.010300	2.884100	-8.680900	27.905055	-0.000132	20.846228
2688.700418	-3.001300	2.881900	-8.648500	27.908803	-0.000132	20.850000
2689.675834	-2.990000	2.880000	-8.610100	27.901786	-0.000133	20.869488
2690.704210	-2.974600	2.880300	-8.567000	27.915198	-0.000133	20.834151
2691.677329	-3.006400	2.876400	-8.647000	27.924746	-0.000133	20.841391
2692.702734	-2.991500	2.874600	-8.598000	27.924996	-0.000134	20.845435
2693.676688	-3.011500	2.872000	-8.647400	27.932931	-0.000131	20.842516
2694.693566	-3.013100	2.869500	-8.644600	27.909077	-0.000133	20.835577
2695.701182	-3.035900	2.868500	-8.706900	27.921997	-0.000132	20.831512
2696.677411	-3.015700	2.865400	-8.640100	27.935160	-0.000132	20.841915
2697.677205	-2.970400	2.865900	-8.511500	27.930002	-0.000133	20.850948
2698.680151	-3.005900	2.862100	-8.602600	27.942771	-0.000132	20.833929
2699.676635	-3.003300	2.860400	-8.590200	27.959832	-0.000133	20.847307
2700.695429	-3.009600	2.857900	-8.599900	27.952913	-0.000132	20.834654
2701.698375	-3.007300	2.856100	-8.589100	27.968184	-0.000132	20.840068
2702.698606	-2.991300	2.854400	-8.536600	27.980112	-0.000133	20.833108
2703.701677	-2.997500	2.852800	-8.550200	27.976611	-0.000133	20.826264
2704.680467	-2.985000	2.850700	-8.507300	27.992848	-0.000132	20.846401
2705.680498	-2.990100	2.847200	-8.511500	27.993766	-0.000129	20.831204
2706.683946	-2.993800	2.843900	-8.513100	27.994659	-0.000131	20.835422
2707.682031	-3.018100	2.842100	-8.577400	27.992304	-0.000132	20.838741
2708.683681	-2.983000	2.840500	-8.472200	28.009508	-0.000132	20.838514
2709.703949	-3.003900	2.837600	-8.522000	28.007894	-0.000132	20.845424
2710.699653	-3.039800	2.834000	-8.614000	28.011163	-0.000131	20.834491
2711.683819	-3.001500	2.834100	-8.505700	28.027133	-0.000132	20.842979
2712.706605	-2.997800	2.831300	-8.486600	28.026532	-0.000131	20.841900
2713.707212	-3.015300	2.829400	-8.530900	28.042994	-0.000129	20.826229
2714.689772	-3.011000	2.825800	-8.506900	28.035056	-0.000131	20.822981
2715.708914	-2.999000	2.823900	-8.468100	28.035183	-0.000131	20.833539
2716.705414	-2.997500	2.822800	-8.460500	28.032476	-0.000129	20.838875
2717.687101	-2.994800	2.820000	-8.444700	28.070753	-0.000131	20.829042
2718.712214	-2.997200	2.817900	-8.444600	28.051539	-0.000130	20.827718
2719.707923	-2.988200	2.815900	-8.413800	28.071270	-0.000132	20.828614
2720.710088	-2.991900	2.813300	-8.416000	28.070451	-0.000132	20.828263
2721.703331	-3.027300	2.809000	-8.502600	28.097717	-0.000131	20.823469
2722.685858	-2.983700	2.809600	-8.381900	28.093949	-0.000134	20.831529
2723.705267	-2.972300	2.808200	-8.345800	28.095162	-0.000132	20.846974
2724.704123	-2.980500	2.803600	-8.354000	28.096054	-0.000131	20.824166
2725.706194	-3.013300	2.800900	-8.439500	28.097316	-0.000131	20.826858
2726.702663	-2.980100	2.798100	-8.337500	28.113946	-0.000132	20.813728
2727.690551	-3.001200	2.795200	-8.387700	28.111517	-0.000132	20.826929
2728.689219	-3.001000	2.792700	-8.379800	28.106733	-0.000131	20.824484
2729.712051	-3.020400	2.789600	-8.423700	28.121601	-0.000133	20.829495
2730.691633	-3.033600	2.787900	-8.456100	28.102589	-0.000132	20.816045
2731.691179	-3.001900	2.785000	-8.359000	28.104371	-0.000132	20.841072
2732.694656	-3.011400	2.782800	-8.379600	28.137738	-0.000131	20.815394
2733.699680	-2.983900	2.780500	-8.295500	28.127893	-0.000133	20.841044
2734.693062	-3.029100	2.776100	-8.407800	28.134933	-0.000131	20.812570
2735.693480	-2.976000	2.774600	-8.256700	28.144796	-0.000131	20.832930
2736.692041	-2.962200	2.772700	-8.212400	28.132554	-0.000131	20.821080
2737.693892	-2.996400	2.768800	-8.295400	28.136839	-0.000131	20.823971
2738.694664	-2.988800	2.766100	-8.266400	28.159741	-0.000132	20.828061
2739.695366	-3.016600	2.763800	-8.336700	28.175108	-0.000132	20.819824
2740.695045	-3.025000	2.759500	-8.346600	28.195708	-0.000131	20.824442
2741.695715	-2.992100	2.757800	-8.251100	28.175083	-0.000129	20.815058
2742.692860	-3.000300	2.754300	-8.261900	28.182788	-0.000132	20.825185
2743.692386	-3.004400	2.751100	-8.264200	28.175477	-0.000134	20.831575
2744.696761	-2.989800	2.748200	-8.215800	28.213678	-0.000133	20.807921
2745.694077	-2.989500	2.745900	-8.208600	28.192854	-0.000132	20.827732
2746.696335	-2.997200	2.741800	-8.216700	28.215112	-0.000133	20.808416
2747.697307	-3.005800	2.738900	-8.232100	28.230355	-0.000133	20.812383
2748.693547	-3.002900	2.735200	-8.212400	28.210354	-0.000133	20.823065
2749.697937	-2.991400	2.732200	-8.172100	28.234619	-0.000133	20.802925
2750.693001	-2.995100	2.729100	-8.173300	28.213475	-0.000132	20.809612
2751.695351	-3.035700	2.724400	-8.269700	28.270312	-0.000132	20.824636
2752.694528	-2.999000	2.721700	-8.159600	28.271900	-0.000132	20.830977
2753.710825	-2.991700	2.719200	-8.134400	28.242379	-0.000134	20.828281
2754.711691	-2.988000	2.715300	-8.112300	28.225372	-0.000133	20.801201
2755.694854	-3.010600	2.710900	-8.161000	28.242677	-0.000133	20.795391
2756.696186	-3.008000	2.707300	-8.142900	28.268210	-0.000133	20.804977
2757.693034	-2.992800	2.704600	-8.093800	28.263346	-0.000134	20.802451
2758.693037	-2.977400	2.700600	-8.039500	28.296118	-0.000134	20.808420
2759.694844	-2.984000	2.696300	-8.043600	28.269300	-0.000132	20.800858
2760.697537	-2.981800	2.693200	-8.030100	28.279439	-0.000132	20.828136
2761.697401	-3.003700	2.687300	-8.071100	28.295324	-0.000133	20.800508
2762.707867	-3.017800	2.682700	-8.094900	28.303948	-0.000133	20.808717
2763.715835	-3.011100	2.677800	-8.062500	28.299313	-0.000134	20.794093
2764.717562	-2.973000	2.675100	-7.952000	28.295426	-0.000132	20.792550
2765.696538	-3.013400	2.671200	-8.049000	28.319640	-0.000132	20.814085
2766.693815	-3.023600	2.665100	-8.056700	28.316765	-0.000131	20.798863
2767.692598	-3.012600	2.661100	-8.016300	28.338104	-0.000130	20.798537
2768.696178	-3.015800	2.656100	-8.008900	28.355256	-0.000130	20.800635
2769.711419	-2.994700	2.651500	-7.939200	28.372135	-0.000134	20.805777
2770.729170	-2.988000	2.646600	-7.907000	28.339544	-0.000132	20.797143
2771.723368	-3.027900	2.641900	-7.998400	28.392334	-0.000132	20.789132
2772.710098	-2.989100	2.637700	-7.883400	28.375087	-0.000134	20.819180
2773.713873	-3.003900	2.631900	-7.904800	28.398406	-0.000135	20.786237
2774.714719	-2.986700	2.627600	-7.846300	28.389090	-0.000133	20.797245
2775.696952	-3.020100	2.621400	-7.915900	28.385569	-0.000133	20.802235
2776.701016	-3.026600	2.616400	-7.917800	28.410926	-0.000134	20.777982
2777.695753	-2.995400	2.612100	-7.823400	28.413871	-0.000133	20.798965
2778.695278	-3.018800	2.606900	-7.869000	28.418408	-0.000134	20.802585
2779.696064	-3.030200	2.600400	-7.878800	28.403712	-0.000133	20.784468
2780.698015	-3.019400	2.594900	-7.833600	28.432709	-0.000133	20.790908
2781.702303	-3.016900	2.590500	-7.814400	28.449042	-0.000133	20.785070
2782.696999	-2.998700	2.583700	-7.747100	28.453898	-0.000133	20.799917
2783.723629	-2.989100	2.578100	-7.705000	28.460915	-0.000134	20.795129
2784.695685	-3.002500	2.573800	-7.726100	28.447556	-0.000134	20.794478
2785.699330	-3.016100	2.565100	-7.735900	28.438065	-0.000133	20.792507
2786.701985	-2.964000	2.560900	-7.589900	28.447261	-0.000131	20.799871
2787.699916	-2.994600	2.555800	-7.652200	28.470902	-0.000133	20.772943
2788.699670	-2.968500	2.549100	-7.566000	28.459106	-0.000133	20.786195
2789.699190	-2.965700	2.543300	-7.542000	28.479872	-0.000131	20.794779
2790.701650	-2.978800	2.536600	-7.554700	28.476134	-0.000132	20.780583
2791.717968	-2.997600	2.529200	-7.580400	28.502546	-0.000133	20.792957
2792.739694	-2.954400	2.524000	-7.455700	28.496053	-0.000132	20.778831
2793.718719	-2.999400	2.516200	-7.546000	28.512508	-0.000131	20.783074
2794.721862	-3.021800	2.510000	-7.583700	28.541407	-0.000132	20.780884
2795.715336	-3.004200	2.502700	-7.518000	28.536098	-0.000134	20.789287
2796.715565	-2.993800	2.495200	-7.469200	28.545142	-0.000135	20.776110
