LabVIEW Measurement	
Writer_Version	2
Reader_Version	2
Separator	Tab
Decimal_Separator	.
Multi_Headings	No
X_Columns	One
Time_Pref	Absolute
Operator	admin
Description	Clolumns are: time, Current, Voltage, Power, Battery Temp, and Chamber Temp
Date	2024/08/16
Time	13:59:35.9411449432373046875
***End_of_Header***	
	
Channels	6						
Samples	1	1	1	1	1	1	
Date	2024/09/18	2024/09/18	2024/09/18	2024/09/18	2024/09/18	2024/09/18	
Time	14:09:45.9815478324890136719	14:09:45.9863781929016113281	14:09:45.9933190345764160157	14:09:45.9624905586242675781	14:09:45.9624905586242675781	14:09:45.9624905586242675781	
X_Dimension	Time	Time	Time	Time	Time	Time	
X0	0.0000000000000000E+0	0.0000000000000000E+0	0.0000000000000000E+0	0.0000000000000000E+0	0.0000000000000000E+0	0.0000000000000000E+0	
Delta_X	1.000000	1.000000	1.000000	1.000000	1.000000	1.000000	
***End_of_Header***							
X_Value	Untitled	Untitled 1	Untitled 2	Untitled 3	Untitled 4	Untitled 5	Comment
0.000000	0.030550	4.100100	0.125270	20.807687	0.000397	20.783979
1.000243	-2.995400	3.937100	-11.792000	20.813974	0.000398	20.792163
2.008009	-2.975300	3.930600	-11.693000	20.802239	0.000398	20.779954
3.003213	-2.983600	3.925500	-11.710000	20.798174	0.000396	20.795804
4.007159	-3.000000	3.919900	-11.757000	20.810996	0.000397	20.798194
5.005222	-3.000300	3.917600	-11.753000	20.793586	0.000394	20.787896
6.002050	-3.008600	3.914400	-11.776000	20.797819	0.000395	20.792603
7.011451	-3.014200	3.911700	-11.789000	20.798417	0.000394	20.796520
8.003554	-3.015600	3.908900	-11.787000	20.815886	0.000391	20.773212
8.999962	-3.016300	3.906300	-11.782000	20.819531	0.000390	20.792505
10.007727	-3.007700	3.905800	-11.745000	20.814014	0.000390	20.787462
11.003676	-2.992400	3.904900	-11.684000	20.822796	0.000391	20.796718
12.000663	-2.971600	3.903400	-11.597000	20.827636	0.000388	20.788756
13.003158	-3.000400	3.901600	-11.705000	20.816879	0.000387	20.796965
14.004451	-3.013900	3.899500	-11.750000	20.831054	0.000386	20.792648
15.003838	-3.009900	3.898500	-11.733000	20.832906	0.000385	20.781224
16.005649	-2.997400	3.896500	-11.678000	20.845080	0.000387	20.794821
17.006084	-2.970500	3.896300	-11.573000	20.839341	0.000385	20.787659
18.003237	-3.007800	3.893300	-11.709000	20.857635	0.000384	20.783194
19.001752	-3.007500	3.892900	-11.707000	20.842532	0.000383	20.791799
20.009466	-2.995300	3.893100	-11.660000	20.868787	0.000382	20.779174
21.006012	-2.989400	3.891100	-11.632000	20.860026	0.000383	20.789378
22.007492	-2.997600	3.892100	-11.665000	20.871177	0.000380	20.779668
23.010743	-3.003300	3.889900	-11.682000	20.856805	0.000382	20.786632
24.008713	-3.000900	3.889100	-11.670000	20.878793	0.000381	20.803879
25.006731	-3.003400	3.888100	-11.676000	20.877993	0.000380	20.789803
26.010195	-2.992400	3.887100	-11.630000	20.886552	0.000380	20.780819
27.009835	-3.003700	3.886400	-11.672000	20.889816	0.000379	20.775549
28.009933	-3.011300	3.885400	-11.699000	20.903664	0.000378	20.768061
29.010879	-2.998900	3.886900	-11.654000	20.916762	0.000378	20.780212
30.011614	-2.978000	3.886400	-11.573000	20.903931	0.000378	20.785398
31.009387	-3.015000	3.883500	-11.707000	20.912421	0.000376	20.771603
32.008601	-3.008000	3.883700	-11.681000	20.927810	0.000378	20.798847
33.009679	-2.996200	3.883900	-11.636000	20.913364	0.000377	20.780133
34.009627	-3.032000	3.882200	-11.769000	20.929780	0.000376	20.767153
35.015755	-2.997900	3.883700	-11.643000	20.951811	0.000373	20.785393
36.010312	-3.001300	3.882900	-11.652000	20.955080	0.000374	20.782973
37.011956	-2.996100	3.881000	-11.627000	20.961796	0.000373	20.795380
38.016054	-3.010100	3.880700	-11.681000	20.970606	0.000374	20.778587
39.012987	-2.993100	3.881600	-11.617000	20.960922	0.000373	20.769375
40.015996	-2.993500	3.879800	-11.614000	20.980883	0.000371	20.780330
41.016540	-2.990400	3.880600	-11.604000	20.987293	0.000371	20.767775
42.014290	-2.986600	3.880300	-11.588000	20.969653	0.000372	20.795652
43.017382	-2.999600	3.879200	-11.636000	21.003589	0.000372	20.782652
44.013980	-2.998000	3.879400	-11.629000	21.009204	0.000370	20.768827
45.011261	-3.003800	3.878700	-11.650000	21.005140	0.000371	20.789892
46.018017	-3.031100	3.877600	-11.753000	21.003243	0.000369	20.756227
47.013636	-3.005300	3.877400	-11.652000	21.021662	0.000371	20.761848
48.013936	-3.002000	3.877500	-11.639000	21.011377	0.000369	20.765310
49.015888	-3.014800	3.876100	-11.685000	21.026556	0.000370	20.757733
50.010657	-2.999900	3.877000	-11.630000	21.038185	0.000370	20.761778
51.014286	-3.020500	3.875800	-11.705000	21.038032	0.000369	20.773953
52.015637	-3.008100	3.875700	-11.657000	21.053409	0.000367	20.776057
53.013926	-2.976600	3.877200	-11.540000	21.046752	0.000369	20.763235
54.010994	-3.014100	3.874800	-11.678000	21.059527	0.000369	20.756572
55.013415	-3.005200	3.875200	-11.644000	21.082557	0.000367	20.763012
56.013778	-3.018500	3.873600	-11.691000	21.075555	0.000366	20.761698
57.015759	-2.998000	3.875300	-11.617000	21.110629	0.000367	20.742253
58.017035	-2.989100	3.875300	-11.583000	21.083940	0.000366	20.770559
59.016262	-3.005600	3.873900	-11.643000	21.094526	0.000365	20.752699
60.019483	-2.995000	3.872600	-11.597000	21.115087	0.000366	20.752402
61.018125	-2.984700	3.874600	-11.564000	21.104584	0.000364	20.779355
62.015871	-3.005100	3.873400	-11.639000	21.123925	0.000365	20.756976
63.013175	-3.028300	3.872300	-11.725000	21.127169	0.000366	20.752634
64.027203	-3.015800	3.872400	-11.678000	21.130739	0.000366	20.755257
65.017666	-3.010900	3.872500	-11.659000	21.116849	0.000365	20.742785
66.016348	-3.014500	3.872700	-11.674000	21.155743	0.000364	20.749922
67.014673	-2.997200	3.872500	-11.606000	21.153155	0.000363	20.755395
68.019178	-3.011000	3.871100	-11.655000	21.149892	0.000364	20.755923
69.017113	-2.998200	3.872300	-11.607000	21.152212	0.000365	20.763934
70.019691	-2.982300	3.872400	-11.548000	21.162991	0.000364	20.766656
71.019009	-3.015100	3.870300	-11.668000	21.176865	0.000364	20.743076
72.018805	-3.021700	3.871200	-11.697000	21.187150	0.000365	20.760002
73.024604	-2.999500	3.871200	-11.611000	21.190621	0.000365	20.768216
74.021584	-3.004100	3.870200	-11.625000	21.176727	0.000364	20.755740
75.018243	-2.996500	3.869800	-11.594000	21.220981	0.000364	20.750697
76.024628	-3.021800	3.869000	-11.690000	21.220862	0.000364	20.750578
77.036842	-3.000200	3.870100	-11.609000	21.201734	0.000363	20.760842
78.028384	-3.004500	3.870200	-11.627000	21.207743	0.000362	20.741248
79.025464	-3.005500	3.869300	-11.628000	21.231645	0.000364	20.731492
80.021073	-2.999200	3.868900	-11.603000	21.209442	0.000363	20.752430
81.026537	-2.996500	3.868600	-11.591000	21.220323	0.000362	20.741030
82.031869	-2.995300	3.869200	-11.589000	21.245024	0.000361	20.754835
83.021464	-3.010500	3.868300	-11.645000	21.245849	0.000366	20.749496
84.023975	-3.014300	3.868500	-11.659000	21.254509	0.000363	20.743460
85.023970	-2.994500	3.868600	-11.584000	21.253857	0.000366	20.740911
86.031911	-3.008000	3.867700	-11.632000	21.258300	0.000363	20.756263
87.030188	-3.010400	3.867500	-11.642000	21.297318	0.000364	20.753097
88.029403	-3.011400	3.867800	-11.647000	21.293230	0.000364	20.739997
89.024532	-3.010700	3.867700	-11.643000	21.281406	0.000364	20.735280
90.029591	-3.003400	3.867800	-11.616000	21.285548	0.000363	20.742744
91.033073	-2.998000	3.868000	-11.595000	21.302215	0.000364	20.741400
92.030583	-3.008900	3.865900	-11.631000	21.321197	0.000363	20.756598
93.030529	-2.988600	3.868100	-11.559000	21.323449	0.000364	20.745574
94.026932	-3.003500	3.866200	-11.611000	21.334497	0.000363	20.740032
95.030215	-3.013800	3.866500	-11.651000	21.334349	0.000363	20.721865
96.033531	-3.001500	3.865800	-11.602000	21.329565	0.000364	20.725139
97.032538	-2.990900	3.865400	-11.560000	21.349174	0.000365	20.740965
98.035255	-2.999900	3.865500	-11.596000	21.337573	0.000364	20.730780
99.029003	-2.991300	3.865800	-11.563000	21.354639	0.000365	20.739320
100.030011	-2.993200	3.865900	-11.571000	21.371903	0.000361	20.746635
101.030548	-3.015700	3.864900	-11.654000	21.356411	0.000364	20.738248
102.032856	-3.010400	3.864200	-11.632000	21.355843	0.000366	20.744793
103.027300	-3.007500	3.864500	-11.621000	21.372584	0.000365	20.727876
104.032863	-3.003500	3.865200	-11.608000	21.362385	0.000362	20.746596
105.030482	-3.006700	3.864800	-11.619000	21.387877	0.000363	20.750764
106.038941	-2.993800	3.864900	-11.570000	21.409879	0.000364	20.720620
107.033035	-2.990900	3.865300	-11.559000	21.404143	0.000363	20.722467
108.028207	-2.988000	3.863600	-11.543000	21.411133	0.000362	20.737048
109.033686	-3.032600	3.863000	-11.714000	21.395623	0.000364	20.749979
110.032425	-3.021100	3.862500	-11.668000	21.430909	0.000363	20.738342
111.031721	-3.009600	3.863800	-11.627000	21.426629	0.000363	20.716041
112.035389	-3.010000	3.862400	-11.625000	21.425760	0.000363	20.722758
113.040629	-2.989400	3.862800	-11.547000	21.429452	0.000364	20.728824
114.029597	-3.015800	3.861500	-11.645000	21.446567	0.000364	20.698530
115.030937	-3.014700	3.862900	-11.645000	21.450407	0.000363	20.723711
116.043520	-3.024500	3.861100	-11.676000	21.460837	0.000365	20.727510
117.034217	-2.990600	3.862300	-11.549000	21.455827	0.000364	20.722496
118.035799	-2.997100	3.862300	-11.575000	21.456750	0.000365	20.732904
119.033699	-3.008700	3.862000	-11.619000	21.459297	0.000364	20.716011
120.037878	-3.001700	3.861500	-11.590000	21.489832	0.000366	20.711002
121.036324	-2.978900	3.860900	-11.500000	21.497390	0.000364	20.705761
122.038502	-2.995300	3.861300	-11.565000	21.488761	0.000364	20.699024
123.041255	-3.004000	3.861500	-11.599000	21.494848	0.000365	20.703217
124.034010	-3.032800	3.860700	-11.708000	21.502587	0.000365	20.717601
125.042100	-2.999900	3.860200	-11.579000	21.513037	0.000364	20.731377
126.038731	-3.002700	3.860400	-11.591000	21.527426	0.000365	20.717799
127.040864	-2.982500	3.861100	-11.515000	21.523092	0.000363	20.695443
128.036196	-2.991600	3.860300	-11.547000	21.520500	0.000367	20.724146
129.040104	-2.990300	3.859500	-11.540000	21.521177	0.000365	20.715813
130.039187	-2.982500	3.860100	-11.511000	21.540955	0.000367	20.724699
131.037604	-2.990000	3.859800	-11.539000	21.553551	0.000367	20.714544
132.036933	-2.991000	3.859400	-11.543000	21.556794	0.000367	20.697873
133.037290	-3.012700	3.858900	-11.625000	21.547895	0.000369	20.704615
134.043670	-3.004800	3.859900	-11.598000	21.561414	0.000368	20.719093
135.043733	-3.014100	3.858100	-11.628000	21.571088	0.000366	20.705539
136.036567	-2.997500	3.858200	-11.564000	21.571217	0.000367	20.697606
137.034664	-3.009800	3.857900	-11.610000	21.565684	0.000367	20.701553
138.041278	-3.014400	3.857400	-11.626000	21.594341	0.000365	20.709367
139.036513	-3.004500	3.857200	-11.588000	21.573996	0.000369	20.713664
140.038705	-3.007100	3.857900	-11.600000	21.609014	0.000369	20.698920
141.041552	-3.003100	3.857000	-11.582000	21.603852	0.000368	20.674785
142.039091	-3.015000	3.856500	-11.626000	21.612035	0.000368	20.701943
143.037651	-2.999900	3.858000	-11.572000	21.619690	0.000369	20.698224
144.039174	-2.986500	3.857100	-11.518000	21.613007	0.000369	20.699597
145.043610	-3.021600	3.857500	-11.655000	21.598650	0.000369	20.692341
146.039734	-2.990000	3.857600	-11.533000	21.638179	0.000373	20.690646
147.044030	-3.006500	3.857300	-11.596000	21.633115	0.000369	20.707391
148.039037	-2.996300	3.855700	-11.552000	21.638855	0.000370	20.699384
149.050159	-3.006400	3.856600	-11.594000	21.638583	0.000370	20.705752
150.042518	-2.991700	3.856500	-11.536000	21.659831	0.000371	20.718006
151.038823	-2.988900	3.856400	-11.525000	21.668241	0.000370	20.672365
152.037838	-3.013300	3.854900	-11.615000	21.664105	0.000371	20.700471
153.041849	-3.021100	3.854400	-11.643000	21.685845	0.000371	20.704685
154.045537	-3.002000	3.855100	-11.572000	21.686171	0.000371	20.690311
155.043471	-2.991500	3.855800	-11.533000	21.681813	0.000371	20.687846
156.043518	-2.971400	3.856600	-11.459000	21.683511	0.000372	20.679587
157.041728	-3.006500	3.854000	-11.586000	21.686279	0.000372	20.707965
158.042532	-3.001400	3.854400	-11.567000	21.711790	0.000373	20.707416
159.041723	-2.995100	3.854500	-11.544000	21.699748	0.000372	20.699632
160.041050	-3.008800	3.854500	-11.596000	21.724513	0.000372	20.692173
161.043750	-2.993500	3.855400	-11.540000	21.703962	0.000374	20.683934
162.044902	-3.018500	3.853400	-11.631000	21.711025	0.000373	20.700486
163.045457	-2.995000	3.854900	-11.545000	21.724394	0.000372	20.688735
164.044514	-3.010300	3.853400	-11.599000	21.738903	0.000373	20.692351
165.044458	-3.010600	3.853300	-11.600000	21.733100	0.000378	20.710726
166.049560	-2.979600	3.852500	-11.478000	21.760001	0.000373	20.701613
167.047718	-3.026500	3.853100	-11.661000	21.759310	0.000372	20.687644
168.045340	-3.002800	3.852500	-11.568000	21.758984	0.000376	20.702966
169.048272	-3.006300	3.852700	-11.582000	21.790281	0.000375	20.691615
170.046442	-3.021300	3.851000	-11.634000	21.775146	0.000375	20.685949
171.046325	-3.002800	3.852000	-11.566000	21.780836	0.000374	20.698284
172.047293	-2.992900	3.852500	-11.529000	21.778147	0.000374	20.695592
173.046242	-2.988900	3.852500	-11.514000	21.778897	0.000375	20.688755
174.049443	-3.015600	3.851600	-11.614000	21.803956	0.000376	20.691551
175.048348	-3.002000	3.851500	-11.561000	21.818025	0.000377	20.706582
176.049096	-2.990200	3.851100	-11.514000	21.814887	0.000376	20.699173
177.049266	-3.009600	3.851000	-11.589000	21.809755	0.000377	20.695458
178.049325	-2.972600	3.850500	-11.445000	21.827929	0.000377	20.703218
179.051619	-3.013100	3.851200	-11.604000	21.829627	0.000378	20.687847
180.053623	-3.018000	3.850500	-11.620000	21.841796	0.000377	20.677266
181.053699	-2.988200	3.850600	-11.506000	21.837433	0.000379	20.695661
182.051482	-2.997900	3.851700	-11.546000	21.842551	0.000377	20.681341
183.055826	-3.009000	3.850500	-11.584000	21.857685	0.000379	20.672307
184.052547	-3.017300	3.849600	-11.615000	21.851778	0.000378	20.680620
185.054139	-2.983700	3.850400	-11.488000	21.859486	0.000377	20.694975
186.051896	-2.985800	3.850200	-11.495000	21.875869	0.000380	20.696674
187.050810	-3.012900	3.849400	-11.597000	21.879960	0.000379	20.704088
188.054178	-2.989800	3.848700	-11.505000	21.875376	0.000379	20.687645
189.061043	-2.999900	3.850600	-11.551000	21.881835	0.000379	20.688420
190.051967	-2.999700	3.849100	-11.545000	21.882911	0.000380	20.673848
191.059822	-2.980200	3.849000	-11.471000	21.886380	0.000380	20.683960
192.055878	-2.997700	3.848000	-11.534000	21.905407	0.000381	20.703007
193.053732	-2.995300	3.848000	-11.524000	21.928672	0.000381	20.682197
194.056560	-2.987200	3.847900	-11.493000	21.902195	0.000378	20.685091
195.052979	-3.019000	3.848500	-11.618000	21.904914	0.000380	20.691607
196.056599	-2.993600	3.847500	-11.517000	21.907711	0.000383	20.698201
197.053860	-3.012000	3.847300	-11.587000	21.932946	0.000383	20.693588
198.054867	-2.980900	3.848000	-11.469000	21.936691	0.000382	20.681688
199.062781	-3.004300	3.848100	-11.559000	21.946816	0.000384	20.689928
200.055137	-3.021500	3.846100	-11.620000	21.958307	0.000384	20.700958
201.054914	-3.012600	3.846700	-11.588000	21.971107	0.000382	20.702390
202.060428	-2.990500	3.848200	-11.507000	21.956196	0.000384	20.691731
203.060447	-3.008900	3.846900	-11.574000	21.959620	0.000383	20.686624
204.063017	-3.022800	3.844500	-11.619000	21.949550	0.000385	20.683655
205.059532	-3.012800	3.846400	-11.587000	21.985302	0.000384	20.694315
206.059159	-3.010100	3.846500	-11.577000	21.993384	0.000384	20.692922
207.061635	-2.996300	3.846800	-11.525000	21.991421	0.000387	20.717037
208.061511	-3.006600	3.844900	-11.559000	22.003864	0.000387	20.706733
209.063427	-3.021300	3.843800	-11.613000	22.002799	0.000385	20.694286
210.059738	-2.999700	3.845000	-11.533000	22.016540	0.000384	20.707568
211.062589	-2.995400	3.845200	-11.517000	22.010037	0.000384	20.694894
212.063084	-2.995800	3.844600	-11.516000	22.020231	0.000386	20.719798
213.060710	-3.012300	3.844400	-11.579000	22.013659	0.000387	20.707529
214.062405	-3.012600	3.845000	-11.583000	22.018850	0.000385	20.684748
215.061035	-2.999200	3.845100	-11.531000	22.029645	0.000389	20.669949
216.060302	-2.982400	3.844700	-11.465000	22.056642	0.000387	20.697927
217.061571	-2.997600	3.844600	-11.524000	22.031624	0.000389	20.691373
218.058904	-3.001300	3.845200	-11.540000	22.046115	0.000388	20.699242
219.064131	-3.008300	3.843300	-11.561000	22.073186	0.000388	20.711645
220.063510	-3.017000	3.843800	-11.596000	22.075904	0.000389	20.708676
221.060610	-2.990400	3.844400	-11.495000	22.075909	0.000389	20.699197
222.061093	-3.000300	3.843900	-11.532000	22.079728	0.000389	20.710608
223.063877	-2.994800	3.844200	-11.512000	22.084963	0.000390	20.704468
224.060890	-3.009700	3.844200	-11.568000	22.090123	0.000391	20.693038
225.061554	-3.005000	3.841500	-11.543000	22.088234	0.000389	20.698259
226.061523	-3.008500	3.842700	-11.560000	22.120015	0.000390	20.717276
227.060968	-3.023300	3.842300	-11.614000	22.114608	0.000391	20.707121
228.061597	-2.985500	3.842400	-11.471000	22.123237	0.000392	20.695844
229.061307	-2.991000	3.841100	-11.487000	22.121545	0.000393	20.713118
230.063784	-3.003900	3.842400	-11.541000	22.101358	0.000392	20.699544
231.060923	-3.000800	3.841800	-11.527000	22.128255	0.000394	20.721258
232.062335	-2.986800	3.841200	-11.472000	22.117313	0.000393	20.716941
233.064725	-2.991900	3.840900	-11.490000	22.148753	0.000395	20.703847
234.060846	-3.009500	3.842500	-11.563000	22.141422	0.000394	20.709784
235.064095	-2.996900	3.839700	-11.506000	22.143771	0.000396	20.708816
236.065824	-3.006700	3.840400	-11.546000	22.138561	0.000395	20.706920
237.060197	-3.017000	3.840000	-11.584000	22.140559	0.000395	20.720301
238.060158	-3.008100	3.840900	-11.552000	22.161102	0.000395	20.705779
239.063180	-3.026300	3.839900	-11.620000	22.166163	0.000397	20.709898
240.061824	-3.010900	3.840800	-11.563000	22.177278	0.000396	20.717233
241.063479	-2.998800	3.840300	-11.516000	22.180445	0.000398	20.715189
242.062390	-3.001700	3.840600	-11.528000	22.190967	0.000397	20.706283
243.063347	-3.006200	3.839100	-11.540000	22.191693	0.000399	20.695629
244.062802	-3.011900	3.841500	-11.570000	22.187658	0.000398	20.718143
245.061678	-2.992500	3.838700	-11.487000	22.220487	0.000398	20.739160
246.065914	-2.997100	3.838600	-11.504000	22.201993	0.000398	20.707365
247.062636	-3.010300	3.840100	-11.559000	22.236662	0.000398	20.717896
248.063359	-3.012400	3.838600	-11.563000	22.229263	0.000399	20.724238
249.067676	-2.983700	3.838200	-11.451000	22.225732	0.000400	20.709796
250.063537	-3.021500	3.838400	-11.597000	22.242400	0.000398	20.727908
251.068446	-3.019400	3.837900	-11.588000	22.241734	0.000401	20.722974
252.066042	-3.018500	3.839600	-11.588000	22.256967	0.000401	20.720209
253.069823	-3.000000	3.839000	-11.515000	22.244482	0.000401	20.700120
254.064278	-3.006300	3.838200	-11.538000	22.268880	0.000398	20.706057
255.064314	-3.004900	3.837700	-11.531000	22.254530	0.000400	20.725830
256.072137	-2.992900	3.837100	-11.483000	22.272673	0.000402	20.725978
257.065543	-3.025500	3.836800	-11.607000	22.275465	0.000403	20.719764
258.066792	-3.011700	3.836800	-11.555000	22.282396	0.000402	20.728601
259.073027	-3.005100	3.837100	-11.531000	22.307069	0.000403	20.721064
260.069228	-2.967800	3.837700	-11.389000	22.297204	0.000402	20.708340
261.070369	-2.996500	3.836300	-11.495000	22.284024	0.000404	20.726912
262.068279	-2.994900	3.836200	-11.489000	22.308870	0.000403	20.712435
263.071047	-3.002700	3.835200	-11.515000	22.305812	0.000403	20.712218
264.073088	-3.020200	3.834500	-11.581000	22.325725	0.000403	20.738797
265.077127	-3.005200	3.835600	-11.526000	22.324936	0.000404	20.716195
266.070731	-3.023000	3.834300	-11.590000	22.336443	0.000404	20.737676
267.074835	-3.018900	3.833800	-11.573000	22.324684	0.000406	20.712623
268.074489	-2.997300	3.834100	-11.491000	22.330440	0.000407	20.737829
269.072021	-2.971000	3.835300	-11.393000	22.340439	0.000408	20.734090
270.071968	-2.999200	3.833800	-11.498000	22.340735	0.000406	20.734386
271.076328	-3.007900	3.833900	-11.531000	22.351423	0.000407	20.739874
272.073333	-2.979500	3.835200	-11.425000	22.350832	0.000406	20.722211
273.075592	-3.014000	3.834400	-11.556000	22.352898	0.000409	20.740877
274.079881	-2.995100	3.834600	-11.484000	22.373609	0.000408	20.727950
275.080928	-2.979800	3.835500	-11.428000	22.356311	0.000411	20.735285
276.075855	-3.015300	3.832300	-11.554000	22.389333	0.000409	20.738955
277.080655	-3.019300	3.831700	-11.568000	22.374304	0.000411	20.719163
278.078480	-2.994800	3.834400	-11.480000	22.400150	0.000411	20.744097
279.079186	-2.989100	3.833300	-11.457000	22.395489	0.000412	20.740378
280.075264	-2.997700	3.832300	-11.487000	22.400648	0.000412	20.725629
281.077325	-2.988100	3.833600	-11.454000	22.401693	0.000410	20.728099
282.077626	-2.987500	3.832900	-11.449000	22.419612	0.000411	20.738931
283.080936	-3.000200	3.833700	-11.500000	22.401324	0.000412	20.730099
284.083688	-3.005500	3.832400	-11.516000	22.430083	0.000414	20.744675
285.078294	-3.037100	3.830900	-11.634000	22.435666	0.000415	20.734619
286.081597	-3.008000	3.831400	-11.524000	22.441526	0.000415	20.745703
287.079056	-2.994400	3.833100	-11.477000	22.435691	0.000415	20.721841
288.084738	-2.999400	3.831300	-11.491000	22.442971	0.000413	20.738141
289.083746	-2.994100	3.831700	-11.471000	22.471231	0.000415	20.755063
290.079739	-2.981200	3.831900	-11.422000	22.443148	0.000415	20.755863
291.083015	-2.999400	3.831900	-11.493000	22.452544	0.000417	20.719278
292.086730	-3.016700	3.830200	-11.554000	22.475418	0.000415	20.724642
293.082638	-2.988600	3.830000	-11.445000	22.483447	0.000416	20.735528
294.082959	-3.001200	3.831200	-11.497000	22.478910	0.000415	20.744261
295.085308	-3.004800	3.829600	-11.507000	22.476617	0.000417	20.744809
296.088512	-3.011000	3.830300	-11.531000	22.503929	0.000417	20.744187
297.082039	-3.007400	3.829000	-11.514000	22.513625	0.000417	20.743466
298.087141	-3.011700	3.830100	-11.535000	22.492394	0.000417	20.773413
299.084384	-3.014400	3.828200	-11.539000	22.507673	0.000420	20.754101
300.085938	-3.002000	3.829700	-11.496000	22.518187	0.000418	20.724326
301.084987	-2.990900	3.829100	-11.451000	22.528529	0.000419	20.764557
302.085763	-2.992600	3.828800	-11.456000	22.535581	0.000421	20.754076
303.088176	-2.995600	3.828600	-11.468000	22.522927	0.000420	20.749937
304.084204	-3.011000	3.827700	-11.524000	22.550331	0.000419	20.759366
305.086369	-3.001800	3.828500	-11.491000	22.557236	0.000422	20.745417
306.086191	-2.992400	3.828600	-11.456000	22.545277	0.000421	20.750984
307.089227	-3.017300	3.828100	-11.548000	22.548517	0.000420	20.759445
308.099687	-3.002300	3.828200	-11.493000	22.575379	0.000421	20.759322
309.089740	-2.990500	3.827100	-11.443000	22.560629	0.000423	20.750238
310.089338	-3.003300	3.827400	-11.494000	22.551584	0.000422	20.754931
311.089746	-2.981200	3.827700	-11.410000	22.578772	0.000423	20.765091
312.089612	-2.988700	3.828500	-11.442000	22.598724	0.000424	20.785549
313.092767	-3.009000	3.826100	-11.512000	22.569377	0.000423	20.746198
314.089913	-3.001100	3.828000	-11.488000	22.598759	0.000423	20.768514
315.092409	-3.005500	3.825600	-11.496000	22.597038	0.000423	20.746401
316.093437	-2.993700	3.826200	-11.453000	22.605688	0.000423	20.771661
317.092559	-3.007000	3.826200	-11.505000	22.596318	0.000423	20.757534
318.093400	-2.999900	3.826200	-11.477000	22.611946	0.000425	20.761807
319.095034	-2.971600	3.827200	-11.372000	22.607937	0.000426	20.753524
320.093788	-2.983000	3.826800	-11.415000	22.631508	0.000426	20.774289
321.106592	-3.013200	3.825900	-11.526000	22.624831	0.000425	20.764282
322.095034	-3.007900	3.824800	-11.504000	22.639107	0.000427	20.749657
323.096938	-3.015800	3.823800	-11.531000	22.644744	0.000426	20.778537
324.097775	-2.996600	3.825400	-11.462000	22.655385	0.000428	20.781135
325.098095	-3.005900	3.824700	-11.495000	22.654069	0.000428	20.760376
326.101631	-2.993300	3.825100	-11.448000	22.647945	0.000428	20.772734
327.107571	-3.006500	3.823500	-11.495000	22.664311	0.000428	20.787230
328.100852	-2.993500	3.823600	-11.445000	22.659686	0.000429	20.769322
329.106794	-3.009500	3.822800	-11.503000	22.660357	0.000429	20.782796
330.100618	-2.985000	3.823600	-11.413000	22.671274	0.000429	20.772868
331.101482	-3.009200	3.823500	-11.504000	22.679973	0.000428	20.787271
332.105560	-3.019200	3.822200	-11.538000	22.685930	0.000431	20.781858
333.100543	-3.006200	3.823200	-11.492000	22.694623	0.000429	20.782031
334.103719	-3.004800	3.823100	-11.488000	22.705866	0.000430	20.779542
335.102085	-3.011900	3.823400	-11.514000	22.721738	0.000429	20.776949
336.103528	-3.017700	3.822000	-11.533000	22.701033	0.000432	20.775176
337.100750	-2.988900	3.822300	-11.423000	22.732256	0.000432	20.779424
338.105063	-3.009400	3.822000	-11.501000	22.719046	0.000432	20.781839
339.099392	-3.005000	3.822500	-11.485000	22.722611	0.000430	20.785884
340.103900	-2.995000	3.823200	-11.450000	22.730885	0.000432	20.769042
341.100770	-2.994900	3.820900	-11.442000	22.715614	0.000433	20.773186
342.102307	-2.999200	3.821900	-11.462000	22.742472	0.000435	20.783494
343.101611	-3.025000	3.820600	-11.556000	22.740978	0.000434	20.792429
344.105526	-2.982400	3.821600	-11.397000	22.759863	0.000432	20.789060
345.106747	-2.980000	3.821100	-11.386000	22.776588	0.000434	20.784952
346.103781	-2.986300	3.820800	-11.409000	22.753991	0.000433	20.774643
347.104240	-3.013000	3.820000	-11.509000	22.769759	0.000436	20.777162
348.103508	-3.050500	3.818200	-11.646000	22.773349	0.000436	20.784077
349.100640	-3.023800	3.819400	-11.548000	22.781395	0.000435	20.804940
350.100295	-3.005400	3.819700	-11.479000	22.790689	0.000432	20.782008
351.108182	-2.999200	3.818900	-11.453000	22.808922	0.000434	20.792686
352.105704	-3.016700	3.818200	-11.517000	22.789220	0.000435	20.788597
353.104216	-2.995500	3.819000	-11.439000	22.799135	0.000436	20.805168
354.101718	-3.012200	3.818000	-11.500000	22.815775	0.000436	20.800974
355.103519	-3.006700	3.817700	-11.478000	22.828703	0.000436	20.792588
356.103030	-3.001300	3.817600	-11.457000	22.838598	0.000436	20.802501
357.101844	-2.983200	3.819500	-11.393000	22.821584	0.000436	20.810112
358.106766	-3.003300	3.817500	-11.465000	22.832495	0.000436	20.797334
359.105484	-2.997400	3.816800	-11.439000	22.863185	0.000438	20.792045
360.103292	-3.005400	3.816200	-11.468000	22.841266	0.000439	20.774353
361.108131	-2.996300	3.818300	-11.440000	22.836133	0.000439	20.796238
362.102262	-2.999600	3.817800	-11.450000	22.854696	0.000439	20.772634
363.105092	-3.003500	3.817000	-11.463000	22.848094	0.000440	20.804427
364.107141	-2.990200	3.816900	-11.413000	22.858980	0.000441	20.812014
365.103446	-3.018500	3.815700	-11.517000	22.865803	0.000439	20.804625
366.103100	-2.982100	3.816900	-11.382000	22.889646	0.000439	20.798639
367.108592	-2.995000	3.816000	-11.429000	22.880150	0.000442	20.800980
368.105814	-2.996200	3.816200	-11.434000	22.890740	0.000441	20.812063
369.106423	-2.984700	3.816800	-11.391000	22.878459	0.000443	20.787906
370.104280	-2.992400	3.815300	-11.416000	22.907625	0.000442	20.805746
371.107634	-3.003800	3.814500	-11.457000	22.913778	0.000442	20.821393
372.109797	-2.994000	3.814700	-11.420000	22.919807	0.000443	20.818899
373.104831	-3.001400	3.813800	-11.445000	22.902197	0.000445	20.812162
374.102838	-3.011100	3.815800	-11.489000	22.916962	0.000443	20.793289
375.106164	-2.990600	3.814300	-11.406000	22.917263	0.000444	20.835315
376.109903	-3.004900	3.813100	-11.457000	22.934473	0.000445	20.806091
377.104110	-3.007000	3.813200	-11.466000	22.924983	0.000444	20.807489
378.106208	-3.032900	3.812500	-11.561000	22.937460	0.000444	20.811929
379.107781	-2.997900	3.813800	-11.432000	22.936864	0.000445	20.813702
380.107056	-2.997100	3.813400	-11.428000	22.952181	0.000446	20.814823
381.108786	-2.979600	3.813200	-11.361000	22.951855	0.000444	20.839627
382.108615	-2.994000	3.813500	-11.418000	22.950613	0.000447	20.834589
383.111770	-2.978600	3.814500	-11.361000	22.959255	0.000445	20.818592
384.104650	-2.986000	3.812900	-11.384000	22.957337	0.000445	20.828998
385.104518	-3.001400	3.812700	-11.443000	22.967645	0.000448	20.825575
386.105382	-2.997900	3.811800	-11.426000	22.977983	0.000448	20.837829
387.107335	-2.999900	3.812400	-11.436000	22.955488	0.000446	20.810551
388.105822	-2.995400	3.811500	-11.417000	22.989414	0.000449	20.841696
389.108400	-2.998700	3.810700	-11.426000	22.993299	0.000448	20.843217
390.106743	-3.013300	3.809900	-11.480000	22.979846	0.000451	20.853919
391.107714	-2.983300	3.812400	-11.371000	23.005504	0.000449	20.839325
392.108734	-2.980300	3.811200	-11.358000	23.024177	0.000448	20.847602
393.113254	-2.996100	3.810200	-11.415000	22.998677	0.000447	20.840071
394.119979	-2.994400	3.809800	-11.407000	23.010355	0.000450	20.839917
395.107814	-2.999600	3.809800	-11.426000	23.019795	0.000450	20.851272
396.116355	-2.998900	3.810100	-11.425000	23.012967	0.000448	20.834000
397.108621	-2.984600	3.809900	-11.370000	23.043155	0.000451	20.847652
398.112737	-2.989800	3.808100	-11.385000	23.045250	0.000452	20.848328
399.110264	-3.004500	3.808400	-11.440000	23.065825	0.000451	20.821530
400.110263	-3.002900	3.809600	-11.438000	23.062256	0.000450	20.828385
401.112452	-2.967200	3.808700	-11.300000	23.065401	0.000451	20.838174
402.112826	-2.986900	3.808700	-11.374000	23.074264	0.000451	20.852269
403.114742	-2.984800	3.808500	-11.367000	23.078824	0.000451	20.823174
404.114214	-3.019000	3.808000	-11.495000	23.067363	0.000451	20.840614
405.113795	-2.984300	3.808300	-11.364000	23.078602	0.000452	20.852349
406.112060	-3.005500	3.807900	-11.444000	23.076458	0.000453	20.849252
407.116319	-3.016200	3.807400	-11.483000	23.081865	0.000451	20.850403
408.111190	-2.984200	3.806100	-11.357000	23.099871	0.000452	20.849954
409.117148	-3.011400	3.805800	-11.459000	23.108936	0.000452	20.848131
410.110620	-3.007300	3.806300	-11.445000	23.106668	0.000453	20.830687
411.115420	-3.020800	3.807300	-11.500000	23.117552	0.000453	20.841592
412.120094	-3.006500	3.805800	-11.441000	23.109409	0.000453	20.831536
413.113109	-2.991200	3.806000	-11.383000	23.136282	0.000455	20.843765
414.115298	-3.003400	3.805300	-11.428000	23.122289	0.000453	20.821209
415.119542	-2.996200	3.805700	-11.402000	23.116365	0.000455	20.849411
416.114999	-3.005700	3.806300	-11.439000	23.137633	0.000455	20.842274
417.113902	-2.995400	3.804500	-11.395000	23.135164	0.000454	20.820360
418.120500	-3.009200	3.804000	-11.446000	23.129171	0.000454	20.831424
419.119411	-3.008200	3.803200	-11.440000	23.146697	0.000454	20.839029
420.117732	-2.988200	3.804700	-11.368000	23.148196	0.000456	20.837212
421.123207	-2.995700	3.803800	-11.394000	23.169987	0.000457	20.836762
422.113301	-2.993000	3.804000	-11.384000	23.156393	0.000454	20.826460
423.115777	-3.007300	3.803100	-11.436000	23.160006	0.000455	20.843356
424.117439	-2.967000	3.803800	-11.285000	23.146432	0.000456	20.843504
425.115490	-2.998300	3.802300	-11.399000	23.144101	0.000456	20.825048
426.115850	-3.018400	3.801800	-11.475000	23.155723	0.000457	20.843332
427.112927	-3.034800	3.800600	-11.533000	23.164497	0.000456	20.824624
428.115525	-2.996200	3.803300	-11.394000	23.192014	0.000458	20.828017
429.116174	-3.000100	3.801700	-11.404000	23.194681	0.000458	20.842068
430.116872	-3.015000	3.801300	-11.460000	23.181506	0.000458	20.810375
431.125743	-3.029000	3.799200	-11.506000	23.189635	0.000458	20.820891
432.118335	-3.010500	3.801100	-11.442000	23.192370	0.000460	20.831692
433.116846	-2.985000	3.802700	-11.350000	23.200616	0.000458	20.827627
434.117482	-3.004900	3.799700	-11.417000	23.183760	0.000460	20.828754
435.119764	-3.017100	3.799300	-11.462000	23.221962	0.000459	20.819622
436.119464	-2.998700	3.800400	-11.395000	23.209537	0.000460	20.833722
437.118430	-3.021500	3.799300	-11.479000	23.190286	0.000459	20.830551
438.119991	-2.993500	3.799000	-11.371000	23.210183	0.000461	20.824886
439.121547	-3.009000	3.800000	-11.433000	23.231800	0.000460	20.812411
440.118898	-2.995200	3.799300	-11.378000	23.220253	0.000460	20.826443
441.121192	-2.999300	3.799500	-11.395000	23.245950	0.000460	20.826591
442.119179	-2.974500	3.799000	-11.299000	23.252751	0.000461	20.816812
443.122267	-2.985800	3.798100	-11.339000	23.242219	0.000462	20.796300
444.128947	-3.007900	3.798000	-11.423000	23.229174	0.000463	20.822581
445.126494	-3.001700	3.797800	-11.399000	23.256985	0.000463	20.820581
446.123384	-2.984100	3.797600	-11.331000	23.276457	0.000462	20.809749
447.120323	-3.014500	3.796200	-11.442000	23.249721	0.000463	20.815198
448.121666	-3.005800	3.797400	-11.413000	23.267147	0.000464	20.793307
449.118930	-2.996200	3.796400	-11.374000	23.269592	0.000464	20.814724
450.123765	-2.990200	3.797100	-11.353000	23.247355	0.000463	20.814724
451.118520	-3.009100	3.796400	-11.422000	23.278281	0.000466	20.803517
452.124367	-2.993900	3.796500	-11.366000	23.268296	0.000465	20.806786
453.124092	-2.996900	3.795200	-11.373000	23.279976	0.000466	20.809483
454.127716	-2.996600	3.796400	-11.375000	23.266975	0.000467	20.822058
455.124304	-3.016600	3.794600	-11.445000	23.290306	0.000466	20.809404
456.121599	-2.987600	3.795700	-11.339000	23.273599	0.000465	20.799299
457.123778	-2.978800	3.796500	-11.308000	23.282657	0.000466	20.804109
458.123913	-2.993500	3.795400	-11.361000	23.308623	0.000466	20.809270
459.122911	-2.985000	3.795000	-11.327000	23.315069	0.000467	20.789177
460.122867	-2.994900	3.794200	-11.362000	23.293601	0.000467	20.800379
461.122609	-2.991800	3.792500	-11.345000	23.291955	0.000469	20.799203
462.121378	-2.994200	3.792300	-11.355000	23.300791	0.000467	20.792412
463.122640	-3.003200	3.793500	-11.392000	23.341872	0.000469	20.816514
464.124159	-2.994500	3.793200	-11.357000	23.320183	0.000469	20.799519
465.124953	-3.006700	3.792100	-11.401000	23.331759	0.000469	20.796896
466.123077	-3.032800	3.791000	-11.496000	23.365171	0.000468	20.793398
467.130126	-3.003300	3.792200	-11.388000	23.343152	0.000468	20.785555
468.123608	-2.999500	3.791400	-11.371000	23.336671	0.000470	20.811776
469.127808	-2.997800	3.792100	-11.367000	23.338356	0.000470	20.791653
470.125804	-2.994700	3.790900	-11.352000	23.361808	0.000470	20.790028
471.123559	-2.991300	3.791000	-11.338000	23.352163	0.000470	20.808337
472.129361	-3.000200	3.790700	-11.372000	23.358880	0.000469	20.802740
473.122745	-2.993100	3.791900	-11.348000	23.359678	0.000471	20.794531
474.137059	-3.013500	3.790800	-11.424000	23.382129	0.000469	20.782420
475.127621	-2.989000	3.790600	-11.329000	23.389964	0.000470	20.806868
476.126864	-2.982500	3.790800	-11.305000	23.383937	0.000471	20.784706
477.128807	-3.003800	3.789900	-11.383000	23.397976	0.000470	20.802571
478.130701	-3.009600	3.789400	-11.404000	23.420052	0.000470	20.807154
479.126193	-2.981700	3.789200	-11.297000	23.410585	0.000469	20.786760
480.128081	-2.994800	3.789000	-11.347000	23.395319	0.000470	20.798959
481.127698	-3.008900	3.788400	-11.397000	23.410274	0.000468	20.808259
482.129622	-2.983400	3.789700	-11.305000	23.418907	0.000470	20.806480
483.135843	-2.998600	3.789100	-11.361000	23.419952	0.000469	20.800889
484.127314	-2.989200	3.788400	-11.323000	23.416753	0.000471	20.802899
485.132616	-3.001200	3.787700	-11.367000	23.408779	0.000471	20.789691
486.129220	-2.997600	3.787100	-11.351000	23.415678	0.000470	20.793761
487.129604	-3.009200	3.786500	-11.393000	23.425933	0.000471	20.790763
488.135397	-3.012400	3.786500	-11.406000	23.416767	0.000470	20.791533
489.129778	-2.993200	3.786700	-11.333000	23.428386	0.000471	20.797015
490.131243	-2.986200	3.786900	-11.307000	23.429105	0.000470	20.806745
491.139215	-3.004000	3.786000	-11.372000	23.459750	0.000469	20.802374
492.130883	-3.004900	3.785700	-11.375000	23.462711	0.000470	20.773099
493.129891	-2.997000	3.786700	-11.348000	23.463406	0.000471	20.772847
494.128585	-2.998900	3.785500	-11.351000	23.452323	0.000469	20.791611
495.131778	-3.010800	3.785800	-11.397000	23.467628	0.000470	20.798417
496.134825	-2.992800	3.785400	-11.327000	23.442581	0.000471	20.780897
497.134666	-2.991100	3.784400	-11.318000	23.449978	0.000470	20.796372
498.132519	-2.988600	3.784100	-11.309000	23.473299	0.000470	20.777548
499.134716	-3.023200	3.782900	-11.435000	23.467943	0.000469	20.798258
500.129810	-2.997400	3.784300	-11.342000	23.482011	0.000473	20.785332
501.133892	-2.995400	3.784300	-11.334000	23.468287	0.000472	20.785327
502.133564	-2.993200	3.784500	-11.326000	23.481133	0.000473	20.794410
503.135762	-2.998600	3.782700	-11.341000	23.477950	0.000472	20.788375
504.135817	-3.006800	3.783700	-11.376000	23.494452	0.000472	20.774570
505.134984	-3.004500	3.783700	-11.367000	23.470524	0.000472	20.785673
506.136150	-2.987800	3.782000	-11.298000	23.503858	0.000472	20.789214
507.133691	-2.990600	3.783700	-11.315000	23.506021	0.000471	20.772416
508.135490	-2.998400	3.782300	-11.340000	23.518226	0.000471	20.759994
509.132599	-3.001900	3.780700	-11.348000	23.513545	0.000473	20.795605
510.137602	-2.998900	3.781100	-11.337000	23.503016	0.000472	20.803068
511.132721	-2.998100	3.781900	-11.338000	23.530194	0.000472	20.776733
512.136260	-3.000000	3.780400	-11.340000	23.525636	0.000472	20.782121
513.138689	-3.008700	3.779700	-11.371000	23.514629	0.000471	20.792898
514.137450	-3.012600	3.779100	-11.384000	23.531706	0.000473	20.777300
515.136745	-2.997700	3.779800	-11.330000	23.526558	0.000471	20.776881
516.140259	-3.007600	3.779600	-11.367000	23.541719	0.000471	20.784018
517.142165	-2.992000	3.779200	-11.305000	23.518585	0.000472	20.786907
518.139369	-2.977900	3.780200	-11.256000	23.537536	0.000470	20.801161
519.142035	-3.010100	3.779100	-11.375000	23.540300	0.000473	20.798717
520.141770	-2.991100	3.779600	-11.305000	23.558126	0.000474	20.791456
521.139202	-3.002600	3.778800	-11.346000	23.555042	0.000472	20.789787
522.144567	-3.033900	3.776800	-11.458000	23.549908	0.000472	20.767570
523.144438	-3.007200	3.776900	-11.358000	23.531441	0.000474	20.777508
524.142264	-2.995600	3.777800	-11.316000	23.564103	0.000474	20.782749
525.139768	-3.006000	3.777800	-11.355000	23.558801	0.000473	20.770322
526.142882	-3.008900	3.776300	-11.362000	23.577672	0.000472	20.779755
527.143544	-3.006700	3.776300	-11.353000	23.571380	0.000475	20.783880
528.146534	-2.975600	3.777600	-11.239000	23.573070	0.000472	20.763763
529.143125	-3.021500	3.774900	-11.405000	23.573770	0.000472	20.773473
530.144291	-3.010800	3.776100	-11.368000	23.568247	0.000473	20.785480
531.145097	-3.011800	3.775800	-11.371000	23.590748	0.000474	20.766311
532.140785	-3.010600	3.774900	-11.364000	23.566981	0.000473	20.770935
533.144227	-2.996000	3.776700	-11.314000	23.591104	0.000473	20.795591
534.142351	-2.980300	3.774600	-11.248000	23.587522	0.000474	20.773982
535.141718	-2.983300	3.775800	-11.263000	23.576145	0.000474	20.778699
536.148260	-2.987700	3.774500	-11.276000	23.588320	0.000473	20.739694
537.141774	-2.971700	3.775500	-11.217000	23.591784	0.000474	20.772565
538.143826	-2.976200	3.774700	-11.233000	23.598731	0.000475	20.772891
539.145211	-3.016400	3.773400	-11.381000	23.601268	0.000474	20.766900
540.141200	-2.969400	3.773800	-11.205000	23.586882	0.000476	20.761961
541.140140	-3.026400	3.771900	-11.414000	23.605205	0.000477	20.754251
542.144066	-3.037600	3.772400	-11.458000	23.610984	0.000475	20.764786
543.150219	-2.982500	3.772900	-11.251000	23.643245	0.000476	20.756824
544.143173	-3.012800	3.772500	-11.365000	23.623971	0.000476	20.763581
545.145994	-2.993600	3.771700	-11.290000	23.624696	0.000477	20.768100
546.142242	-2.990400	3.771700	-11.278000	23.633682	0.000476	20.756246
547.145671	-3.014200	3.770900	-11.365000	23.632115	0.000475	20.736183
548.143833	-2.970600	3.772700	-11.206000	23.621311	0.000477	20.755224
549.144267	-3.004400	3.771400	-11.330000	23.644787	0.000476	20.772121
550.143238	-3.011600	3.769600	-11.351000	23.653049	0.000475	20.746264
551.146923	-2.985900	3.770500	-11.257000	23.640254	0.000476	20.772793
552.148688	-2.994000	3.770500	-11.288000	23.645678	0.000476	20.759738
553.146017	-2.977600	3.771500	-11.229000	23.649492	0.000473	20.755026
554.143289	-2.983600	3.769600	-11.245000	23.665794	0.000476	20.745291
555.147201	-3.004900	3.769200	-11.325000	23.670800	0.000476	20.756473
556.145310	-2.996300	3.769400	-11.294000	23.663828	0.000477	20.763235
557.148307	-3.025900	3.768500	-11.402000	23.671248	0.000477	20.766406
558.144746	-3.032100	3.767700	-11.423000	23.670800	0.000475	20.755999
559.150219	-3.010600	3.768000	-11.343000	23.675032	0.000477	20.755500
560.148356	-3.028300	3.767600	-11.409000	23.673760	0.000478	20.739052
561.149985	-3.013000	3.766300	-11.348000	23.693797	0.000475	20.745389
562.153884	-2.988400	3.768300	-11.260000	23.675499	0.000477	20.746012
563.148742	-3.021800	3.765400	-11.378000	23.689264	0.000477	20.764554
564.153803	-3.013000	3.766500	-11.346000	23.667607	0.000476	20.741892
565.150595	-2.990800	3.766600	-11.265000	23.678233	0.000475	20.734528
566.147532	-2.994300	3.766000	-11.276000	23.688614	0.000477	20.759160
567.146330	-2.981200	3.766000	-11.226000	23.689510	0.000476	20.756266
568.148211	-2.987100	3.764900	-11.245000	23.687988	0.000477	20.757584
569.154664	-2.996800	3.765200	-11.282000	23.691594	0.000477	20.766415
570.152454	-2.983700	3.764900	-11.233000	23.689978	0.000477	20.740138
571.154708	-3.000800	3.764700	-11.296000	23.699388	0.000477	20.749573
572.154192	-2.999600	3.764100	-11.290000	23.698560	0.000477	20.761071
573.152042	-2.986500	3.764700	-11.241000	23.718901	0.000477	20.761550
574.153753	-3.002500	3.764300	-11.301000	23.715044	0.000477	20.749148
575.156120	-2.986100	3.764100	-11.240000	23.720197	0.000476	20.723493
576.152564	-3.017200	3.763400	-11.354000	23.708442	0.000477	20.744425
577.149672	-3.013600	3.763400	-11.341000	23.714240	0.000475	20.752610
578.153689	-3.015600	3.763000	-11.346000	23.711876	0.000477	20.744075
579.153934	-2.985300	3.763200	-11.233000	23.726443	0.000475	20.745878
580.159434	-3.002400	3.762500	-11.296000	23.731596	0.000476	20.756734
581.153717	-2.996500	3.761800	-11.272000	23.730448	0.000476	20.763644
582.156922	-3.008500	3.761600	-11.316000	23.731473	0.000475	20.735273
583.156766	-3.012100	3.760400	-11.326000	23.745582	0.000475	20.748471
584.157426	-2.981500	3.761600	-11.214000	23.736232	0.000474	20.751899
585.160236	-2.983100	3.761000	-11.219000	23.739021	0.000475	20.729564
586.155071	-2.999500	3.760700	-11.278000	23.730533	0.000474	20.739546
587.161277	-2.989400	3.760100	-11.240000	23.749528	0.000475	20.735358
588.160377	-3.014000	3.759000	-11.328000	23.750578	0.000475	20.753006
589.160079	-3.008400	3.758500	-11.306000	23.741992	0.000477	20.718317
590.159285	-3.015000	3.758700	-11.331000	23.751652	0.000476	20.744126
591.163274	-3.008500	3.759100	-11.309000	23.752948	0.000477	20.754908
592.163975	-3.025300	3.758900	-11.371000	23.752450	0.000476	20.723588
593.163558	-3.025500	3.758000	-11.368000	23.744165	0.000476	20.734721
594.165429	-2.986100	3.758400	-11.222000	23.771195	0.000476	20.721044
595.159670	-2.998800	3.757700	-11.267000	23.782495	0.000477	20.723366
596.168304	-2.989600	3.758800	-11.237000	23.775579	0.000476	20.733501
597.163534	-3.009400	3.756500	-11.303000	23.788121	0.000477	20.722842
598.166287	-2.994300	3.757000	-11.248000	23.770003	0.000476	20.732178
599.164030	-3.014500	3.756800	-11.324000	23.779638	0.000475	20.733304
600.163587	-3.001400	3.756800	-11.275000	23.780707	0.000476	20.722995
601.167417	-2.990600	3.756800	-11.235000	23.773564	0.000476	20.730059
602.164118	-2.987000	3.756300	-11.219000	23.779663	0.000475	20.732854
603.163723	-2.994300	3.755900	-11.246000	23.774456	0.000476	20.746600
604.166154	-3.004100	3.756200	-11.282000	23.808278	0.000477	20.720293
605.166761	-2.988400	3.756500	-11.225000	23.771599	0.000477	20.748003
606.166604	-3.011800	3.754500	-11.306000	23.802387	0.000474	20.712489
607.166210	-2.991100	3.755400	-11.232000	23.797136	0.000476	20.722398
608.167852	-2.990500	3.755000	-11.229000	23.797362	0.000477	20.722151
609.169286	-3.015600	3.754100	-11.320000	23.828371	0.000476	20.720052
610.168364	-2.985800	3.754400	-11.209000	23.792136	0.000476	20.708849
611.167532	-2.989200	3.754000	-11.220000	23.806919	0.000476	20.732208
612.167528	-3.002100	3.753800	-11.269000	23.830391	0.000475	20.739147
613.163449	-2.995400	3.753400	-11.243000	23.804505	0.000474	20.733107
614.176836	-2.970400	3.752800	-11.147000	23.802318	0.000475	20.722378
615.173358	-3.004500	3.753100	-11.275000	23.816106	0.000475	20.734307
616.168897	-3.005000	3.752800	-11.276000	23.816860	0.000475	20.730321
617.177961	-3.011200	3.752000	-11.297000	23.815707	0.000475	20.736278
618.169247	-3.004200	3.752900	-11.273000	23.816032	0.000474	20.717162
619.166571	-2.986200	3.751500	-11.201000	23.832115	0.000475	20.711952
620.177793	-3.001000	3.750300	-11.253000	23.816677	0.000476	20.734406
621.167966	-2.990700	3.750800	-11.216000	23.812126	0.000473	20.730316
622.169619	-3.011700	3.750600	-11.295000	23.827288	0.000474	20.722285
623.172750	-2.987800	3.751300	-11.207000	23.855513	0.000474	20.739207
624.171394	-2.998700	3.750000	-11.245000	23.842002	0.000475	20.725185
625.170577	-3.004400	3.750000	-11.265000	23.850391	0.000475	20.740709
626.171350	-2.984500	3.749700	-11.190000	23.866365	0.000474	20.725906
627.167869	-3.004600	3.749100	-11.264000	23.868133	0.000474	20.721989
628.166276	-2.966300	3.750800	-11.125000	23.861144	0.000474	20.713557
629.171270	-2.998600	3.747800	-11.237000	23.859996	0.000476	20.714777
630.171715	-2.993500	3.748700	-11.221000	23.869980	0.000474	20.731428
631.169183	-2.999400	3.748000	-11.240000	23.880408	0.000473	20.714382
632.170772	-3.004200	3.748800	-11.261000	23.866873	0.000474	20.728312
633.170039	-2.994700	3.748500	-11.224000	23.880911	0.000472	20.727690
634.167907	-3.016500	3.748300	-11.306000	23.889772	0.000474	20.723773
635.169494	-3.006700	3.746900	-11.265000	23.894801	0.000474	20.721229
636.171643	-3.024900	3.746000	-11.330000	23.897565	0.000475	20.718784
637.169730	-3.009700	3.747500	-11.278000	23.890127	0.000475	20.714171
638.170052	-3.000200	3.745800	-11.237000	23.898417	0.000474	20.718216
639.172732	-3.010400	3.746600	-11.278000	23.891723	0.000475	20.719565
640.169883	-3.006300	3.745600	-11.259000	23.880725	0.000474	20.696206
641.178609	-3.007500	3.744900	-11.262000	23.896004	0.000477	20.712477
642.174386	-3.001600	3.744400	-11.238000	23.893349	0.000474	20.727360
643.176223	-3.009700	3.744800	-11.269000	23.909869	0.000476	20.724959
644.177303	-2.994900	3.745300	-11.216000	23.911072	0.000475	20.720000
645.179132	-3.013100	3.744500	-11.282000	23.916795	0.000475	20.726214
646.183190	-2.994900	3.744000	-11.213000	23.925227	0.000474	20.702900
647.176244	-2.993300	3.743100	-11.203000	23.943402	0.000475	20.728239
648.179570	-3.002900	3.743600	-11.240000	23.918410	0.000476	20.738266
649.185397	-3.017800	3.743000	-11.295000	23.902683	0.000475	20.728185
650.178872	-3.014500	3.742000	-11.279000	23.917525	0.000473	20.712720
651.178674	-3.022400	3.740500	-11.304000	23.929242	0.000476	20.734903
652.180984	-3.024400	3.740600	-11.311000	23.931434	0.000475	20.752274
653.182210	-2.985900	3.743000	-11.174000	23.925435	0.000475	20.728239
654.178967	-3.012200	3.740700	-11.267000	23.925016	0.000473	20.719759
655.184536	-3.016400	3.740800	-11.282000	23.934345	0.000473	20.722475
656.180398	-2.988100	3.741200	-11.178000	23.913373	0.000473	20.735585
657.179755	-3.020200	3.740300	-11.295000	23.907871	0.000473	20.698771
658.181630	-3.008600	3.740700	-11.253000	23.924967	0.000472	20.727771
659.180075	-3.002800	3.740700	-11.232000	23.909841	0.000472	20.720663
660.182682	-2.999900	3.740000	-11.218000	23.939773	0.000472	20.729815
661.181460	-2.996000	3.740700	-11.206000	23.930917	0.000472	20.740850
662.180783	-3.001800	3.739000	-11.222000	23.920987	0.000473	20.736583
663.183161	-3.008700	3.739100	-11.249000	23.955431	0.000471	20.737457
664.180707	-3.000700	3.737500	-11.214000	23.931439	0.000473	20.736158
665.191464	-2.998600	3.738900	-11.209000	23.939753	0.000473	20.735486
666.182158	-3.012900	3.737700	-11.261000	23.934552	0.000472	20.721735
667.181911	-2.986600	3.739000	-11.166000	23.966380	0.000471	20.740376
668.189372	-2.993900	3.738000	-11.190000	23.977501	0.000472	20.736355
669.184859	-2.991200	3.736700	-11.177000	23.971359	0.000472	20.720713
670.180547	-3.009300	3.737100	-11.244000	23.966109	0.000473	20.749114
671.187068	-3.015900	3.735700	-11.266000	23.968148	0.000471	20.743098
672.186129	-3.026800	3.736300	-11.308000	23.952717	0.000472	20.736632
673.182971	-3.001700	3.736500	-11.215000	23.972619	0.000470	20.721028
674.184508	-3.017800	3.735500	-11.272000	23.977648	0.000472	20.712794
675.184942	-3.008900	3.736000	-11.240000	23.979343	0.000471	20.731564
676.183095	-2.969900	3.736300	-11.095000	23.987780	0.000470	20.734809
677.187312	-2.996700	3.735900	-11.195000	23.982603	0.000471	20.745740
678.186353	-2.987900	3.736000	-11.161000	24.012390	0.000472	20.748585
679.192035	-3.024500	3.734000	-11.293000	24.011223	0.000470	20.748837
680.189243	-2.992200	3.734900	-11.175000	23.993409	0.000468	20.751836
681.188908	-3.006200	3.734600	-11.225000	23.999211	0.000470	20.734894
682.188762	-3.010600	3.734800	-11.242000	24.019083	0.000471	20.733960
683.183006	-2.992100	3.734600	-11.173000	24.019384	0.000470	20.740900
684.188520	-3.006300	3.733500	-11.222000	24.014538	0.000469	20.741730
685.187855	-3.007300	3.733000	-11.225000	24.015159	0.000469	20.727178
686.191056	-3.020500	3.732600	-11.274000	24.015907	0.000469	20.745000
687.184127	-3.007300	3.732800	-11.225000	24.020242	0.000468	20.741286
688.187877	-2.990500	3.732300	-11.160000	24.042882	0.000469	20.736489
689.183335	-2.998500	3.732200	-11.190000	24.032436	0.000469	20.747825
690.188102	-2.995700	3.732900	-11.182000	24.041838	0.000469	20.740658
691.185828	-3.026300	3.730500	-11.289000	24.034253	0.000468	20.741113
692.191467	-2.978500	3.730800	-11.111000	24.035524	0.000469	20.759932
693.187417	-3.021800	3.729700	-11.270000	24.037213	0.000468	20.755936
694.189017	-3.005000	3.730900	-11.211000	24.041173	0.000467	20.758010
695.187720	-3.006400	3.729900	-11.213000	24.035519	0.000468	20.760401
696.188261	-2.999600	3.731500	-11.191000	24.042720	0.000467	20.730163
697.195089	-2.993900	3.729100	-11.163000	24.057849	0.000468	20.768571
698.196835	-2.974300	3.729600	-11.092000	24.060508	0.000468	20.752745
699.190231	-2.989800	3.729000	-11.148000	24.065739	0.000466	20.753723
700.195439	-3.005500	3.729100	-11.207000	24.058770	0.000469	20.754795
701.193724	-3.019500	3.727900	-11.255000	24.059814	0.000466	20.760584
702.190370	-2.980200	3.729500	-11.113000	24.066310	0.000467	20.751451
703.195548	-2.979500	3.728800	-11.109000	24.055860	0.000469	20.750928
704.197930	-2.992000	3.728400	-11.154000	24.077263	0.000468	20.746789
705.196943	-2.989900	3.727200	-11.144000	24.070324	0.000468	20.751210
706.194291	-3.001300	3.726800	-11.184000	24.057081	0.000468	20.756895
707.193576	-3.027000	3.727400	-11.282000	24.068004	0.000469	20.757418
708.198881	-3.012300	3.726600	-11.224000	24.074525	0.000468	20.752578
709.193109	-2.986500	3.726500	-11.128000	24.090225	0.000470	20.749357
710.192215	-2.996700	3.726500	-11.165000	24.081980	0.000468	20.766693
711.197026	-3.003700	3.725700	-11.190000	24.081956	0.000468	20.742960
712.197559	-2.987100	3.725400	-11.127000	24.083147	0.000468	20.753165
713.199917	-2.998700	3.725900	-11.172000	24.099960	0.000469	20.761966
714.196871	-3.004500	3.724900	-11.190000	24.112694	0.000467	20.756720
715.196413	-2.991600	3.725600	-11.145000	24.088632	0.000468	20.779055
716.202109	-3.002000	3.724900	-11.182000	24.113039	0.000466	20.764178
717.198111	-2.992300	3.725000	-11.146000	24.104942	0.000467	20.757006
718.202118	-3.007600	3.723800	-11.198000	24.099717	0.000467	20.760774
719.197461	-2.996300	3.724400	-11.158000	24.115067	0.000467	20.745823
720.198746	-2.995600	3.724700	-11.157000	24.116830	0.000467	20.765135
721.199070	-3.004000	3.722800	-11.182000	24.125285	0.000468	20.763184
722.197407	-2.984000	3.723600	-11.110000	24.129534	0.000468	20.764127
723.201073	-3.004500	3.723300	-11.185000	24.104522	0.000469	20.774128
724.197184	-3.007600	3.721500	-11.191000	24.125895	0.000467	20.776124
725.197464	-3.000800	3.722200	-11.168000	24.119074	0.000467	20.759799
726.200631	-3.010100	3.721900	-11.202000	24.134719	0.000466	20.767904
727.199936	-2.988400	3.721400	-11.120000	24.115858	0.000466	20.765109
728.199272	-3.020900	3.721000	-11.239000	24.142455	0.000468	20.792733
729.198750	-3.004000	3.721100	-11.178000	24.127598	0.000465	20.766452
730.197838	-2.997800	3.720800	-11.153000	24.144617	0.000465	20.795850
731.204677	-3.012700	3.721800	-11.212000	24.121274	0.000467	20.782395
732.198988	-3.015800	3.718600	-11.214000	24.131276	0.000466	20.769667
733.201315	-2.994100	3.720800	-11.139000	24.129262	0.000464	20.765750
734.196270	-3.018100	3.719700	-11.225000	24.148566	0.000465	20.780844
735.202203	-2.981800	3.720000	-11.092000	24.153840	0.000463	20.776651
736.201691	-2.990400	3.720400	-11.125000	24.153416	0.000466	20.764846
737.203202	-3.006700	3.718800	-11.180000	24.160059	0.000464	20.783837
738.201563	-2.996600	3.719300	-11.144000	24.157223	0.000463	20.769613
739.207063	-3.004900	3.718900	-11.174000	24.154805	0.000465	20.787102
740.201216	-3.011300	3.717900	-11.195000	24.145000	0.000462	20.784380
741.207278	-3.018500	3.718200	-11.223000	24.169859	0.000465	20.781812
742.203124	-2.999200	3.719000	-11.154000	24.166451	0.000463	20.785981
743.205638	-3.009500	3.717300	-11.186000	24.165604	0.000461	20.774226
744.206301	-3.005900	3.716800	-11.172000	24.181751	0.000463	20.782360
745.204851	-2.999300	3.717200	-11.148000	24.176851	0.000463	20.794990
746.207835	-3.032800	3.716300	-11.269000	24.179338	0.000460	20.782311
747.204294	-3.011500	3.715800	-11.189000	24.171301	0.000463	20.781363
748.220962	-2.998500	3.716300	-11.142000	24.183549	0.000460	20.787008
749.202818	-2.991700	3.716600	-11.117000	24.179988	0.000460	20.779170
750.202544	-2.993300	3.715900	-11.123000	24.189221	0.000461	20.782267
751.205384	-2.999200	3.715800	-11.144000	24.188202	0.000462	20.776503
752.204911	-3.029700	3.713700	-11.250000	24.207633	0.000459	20.763750
753.209242	-3.015400	3.714500	-11.199000	24.201099	0.000460	20.783275
754.207513	-3.015200	3.715500	-11.202000	24.209505	0.000458	20.795499
755.207515	-2.982300	3.714200	-11.075000	24.200823	0.000459	20.790585
756.208078	-2.999500	3.714700	-11.141000	24.188065	0.000461	20.801970
757.206712	-2.991900	3.714900	-11.114000	24.216975	0.000458	20.807734
758.207344	-3.006900	3.713800	-11.166000	24.200208	0.000458	20.777640
759.210219	-3.007700	3.714000	-11.170000	24.214912	0.000457	20.800923
760.206262	-3.018500	3.713000	-11.207000	24.206034	0.000459	20.811458
761.208816	-3.017200	3.713400	-11.203000	24.217453	0.000457	20.786402
762.209960	-3.017800	3.710900	-11.197000	24.222407	0.000458	20.803699
763.206665	-3.022500	3.711700	-11.218000	24.227257	0.000459	20.778218
764.209546	-2.989400	3.712800	-11.098000	24.215917	0.000458	20.816155
765.214396	-2.999900	3.711800	-11.134000	24.232462	0.000456	20.814733
766.209087	-3.013900	3.713200	-11.190000	24.237435	0.000456	20.800281
767.210315	-3.021600	3.711000	-11.212000	24.224357	0.000457	20.809923
768.216379	-2.988500	3.711100	-11.089000	24.218409	0.000457	20.806801
769.211695	-2.995000	3.711200	-11.113000	24.209698	0.000458	20.815607
770.209267	-3.018900	3.710300	-11.200000	24.211490	0.000456	20.790853
771.208300	-2.995900	3.712100	-11.120000	24.236845	0.000457	20.804905
772.211436	-2.990000	3.710900	-11.095000	24.232369	0.000458	20.811795
773.212831	-2.987200	3.710500	-11.084000	24.244113	0.000456	20.806031
774.210114	-3.019600	3.709700	-11.201000	24.254266	0.000456	20.796775
775.210891	-3.010800	3.710300	-11.170000	24.238563	0.000454	20.823223
776.212747	-3.018600	3.708500	-11.193000	24.237372	0.000456	20.814916
777.212617	-3.018000	3.708900	-11.192000	24.262302	0.000457	20.804362
778.211307	-3.004800	3.709600	-11.145000	24.260037	0.000455	20.808728
779.214509	-3.016700	3.708700	-11.187000	24.263794	0.000454	20.802539
780.208592	-2.999100	3.708800	-11.123000	24.275538	0.000454	20.805310
781.212367	-2.989600	3.708600	-11.087000	24.283278	0.000453	20.815919
782.210518	-2.987900	3.708600	-11.080000	24.253670	0.000454	20.818937
783.212531	-3.010500	3.708000	-11.162000	24.269245	0.000455	20.804214
784.211771	-3.009500	3.707000	-11.156000	24.273873	0.000453	20.813598
785.214734	-2.988600	3.706600	-11.076000	24.269472	0.000451	20.813450
786.212390	-3.016200	3.706000	-11.176000	24.269570	0.000452	20.818290
787.212899	-3.002200	3.706700	-11.126000	24.291043	0.000454	20.822760
788.210387	-2.998300	3.707600	-11.114000	24.268950	0.000452	20.838530
789.214378	-3.007700	3.706600	-11.148000	24.297267	0.000452	20.821417
790.216361	-2.997700	3.706000	-11.109000	24.293707	0.000452	20.820691
791.213409	-2.978500	3.707100	-11.041000	24.281319	0.000454	20.815850
792.216105	-3.006800	3.704100	-11.136000	24.300354	0.000452	20.820721
793.215686	-2.990400	3.705500	-11.081000	24.286420	0.000451	20.828079
794.212363	-2.991100	3.705800	-11.084000	24.291048	0.000450	20.822765
795.218604	-3.002000	3.704500	-11.120000	24.290955	0.000452	20.826939
796.216761	-2.996500	3.703700	-11.097000	24.304387	0.000450	20.815283
797.216377	-2.993800	3.704400	-11.089000	24.333166	0.000449	20.820918
798.218215	-3.004000	3.704200	-11.127000	24.307322	0.000451	20.847149
799.220880	-3.000200	3.704300	-11.112000	24.296504	0.000452	20.820652
800.222690	-3.028700	3.702500	-11.213000	24.289739	0.000451	20.828090
801.220154	-3.011400	3.702300	-11.148000	24.314865	0.000452	20.820578
802.215483	-3.016600	3.702800	-11.168000	24.306062	0.000451	20.833083
803.220294	-3.005600	3.702800	-11.129000	24.294146	0.000449	20.824924
804.217295	-2.999200	3.703500	-11.106000	24.314668	0.000449	20.845984
805.222518	-3.025900	3.701900	-11.200000	24.301788	0.000450	20.826426
806.220749	-3.005000	3.703100	-11.127000	24.299351	0.000450	20.823981
807.235482	-3.017100	3.701300	-11.165000	24.318460	0.000449	20.835563
808.222445	-3.017900	3.701200	-11.169000	24.322960	0.000448	20.816845
809.228794	-2.995100	3.701800	-11.086000	24.344058	0.000450	20.842275
810.224533	-2.981500	3.701600	-11.035000	24.346422	0.000449	20.821413
811.223919	-2.996100	3.700800	-11.086000	24.332119	0.000450	20.849264
812.227096	-2.968300	3.701000	-10.985000	24.346722	0.000448	20.828827
813.220065	-3.015300	3.700600	-11.157000	24.322493	0.000448	20.826333
814.225966	-2.993000	3.699900	-11.073000	24.338318	0.000447	20.828457
815.229592	-3.017900	3.699200	-11.163000	24.333266	0.000450	20.853260
816.224051	-2.987000	3.700000	-11.051000	24.355186	0.000449	20.828309
817.227121	-2.984100	3.700100	-11.040000	24.365191	0.000448	20.848302
818.229518	-2.996800	3.699700	-11.087000	24.346088	0.000450	20.840518
819.226470	-3.008600	3.698200	-11.126000	24.360912	0.000448	20.819829
820.227532	-3.000400	3.698300	-11.095000	24.357131	0.000449	20.844010
821.226702	-3.008000	3.697800	-11.122000	24.351435	0.000448	20.843985
822.226122	-2.989700	3.698400	-11.057000	24.382679	0.000448	20.848776
823.227891	-3.017100	3.697400	-11.154000	24.344197	0.000448	20.850949
824.224487	-2.980000	3.697800	-11.019000	24.367702	0.000447	20.847976
825.234782	-2.986700	3.697000	-11.042000	24.380395	0.000449	20.826571
826.227390	-3.005600	3.698200	-11.114000	24.373305	0.000448	20.856441
827.229501	-3.002800	3.697000	-11.100000	24.386736	0.000448	20.832932
828.237206	-3.013200	3.695100	-11.133000	24.358194	0.000446	20.859774
829.231211	-3.004000	3.696900	-11.104000	24.369814	0.000446	20.862896
830.230857	-3.015100	3.696600	-11.145000	24.387425	0.000449	20.851640
831.232862	-2.989300	3.697000	-11.051000	24.385755	0.000447	20.858026
832.228563	-3.007100	3.696600	-11.115000	24.382073	0.000447	20.862866
833.237682	-3.014800	3.695400	-11.140000	24.387769	0.000447	20.862890
834.231554	-2.997600	3.694700	-11.074000	24.396094	0.000446	20.860811
835.231674	-2.989000	3.695300	-11.044000	24.381018	0.000448	20.852800
836.230844	-3.013200	3.694400	-11.131000	24.400490	0.000447	20.876125
837.235103	-3.018400	3.694500	-11.150000	24.398717	0.000445	20.867235
838.234257	-3.012800	3.694100	-11.129000	24.399785	0.000447	20.862143
839.228979	-2.999300	3.693600	-11.078000	24.408165	0.000446	20.874816
840.242433	-2.990700	3.693800	-11.045000	24.403979	0.000446	20.849282
841.230392	-3.000300	3.694000	-11.083000	24.425070	0.000443	20.869017
842.233825	-3.002900	3.691800	-11.085000	24.413820	0.000444	20.869110
843.232455	-3.006700	3.692400	-11.100000	24.420536	0.000446	20.854985
844.230385	-2.987100	3.693800	-11.034000	24.420008	0.000444	20.871999
845.236480	-2.978700	3.693100	-11.000000	24.409709	0.000445	20.854081
846.232631	-3.003900	3.691600	-11.087000	24.434324	0.000444	20.869766
847.232834	-2.980900	3.692800	-11.006000	24.429475	0.000444	20.860160
848.235078	-3.006200	3.691600	-11.097000	24.425320	0.000444	20.861207
849.230347	-2.998300	3.691500	-11.066000	24.437800	0.000444	20.861874
850.233479	-3.033400	3.690600	-11.193000	24.431571	0.000443	20.877909
851.231396	-3.015900	3.690300	-11.129000	24.430995	0.000444	20.870693
852.232114	-3.015300	3.690600	-11.127000	24.432979	0.000442	20.869365
853.230459	-3.011200	3.690900	-11.114000	24.441323	0.000442	20.873468
854.232585	-2.985600	3.691900	-11.021000	24.432042	0.000444	20.872692
855.235767	-3.001500	3.690200	-11.075000	24.443208	0.000443	20.863032
856.232597	-3.025000	3.689200	-11.158000	24.463126	0.000442	20.870213
857.232738	-3.017100	3.689000	-11.129000	24.458242	0.000442	20.873847
858.239207	-3.004400	3.688300	-11.080000	24.448061	0.000445	20.875486
859.237080	-2.990800	3.689700	-11.034000	24.455771	0.000442	20.870419
860.241003	-2.964100	3.690000	-10.936000	24.459590	0.000443	20.880415
861.241849	-2.945500	3.689900	-10.868000	24.455957	0.000442	20.872977
862.234112	-2.993000	3.688200	-11.038000	24.483875	0.000442	20.872062
863.235287	-3.003500	3.688100	-11.076000	24.478725	0.000442	20.857414
864.237033	-3.027400	3.687100	-11.161000	24.459486	0.000443	20.838112
865.234798	-3.019100	3.687100	-11.131000	24.477863	0.000441	20.862713
866.242334	-2.989100	3.687700	-11.023000	24.470611	0.000437	20.863497
867.241884	-2.993300	3.686400	-11.033000	24.483371	0.000440	20.848325
868.238908	-3.017200	3.685800	-11.120000	24.490174	0.000439	20.860366
869.238787	-3.005900	3.687200	-11.082000	24.500561	0.000441	20.866993
870.237984	-2.990100	3.685700	-11.020000	24.493590	0.000440	20.866637
871.236669	-3.009200	3.686500	-11.093000	24.496096	0.000439	20.849712
872.238385	-3.014100	3.686500	-11.111000	24.490193	0.000440	20.875082
873.235098	-2.993500	3.687000	-11.036000	24.499886	0.000438	20.850669
874.235535	-2.985300	3.685700	-11.001000	24.501968	0.000438	20.859870
875.235489	-3.013900	3.684600	-11.104000	24.506211	0.000437	20.848007
876.236537	-3.003000	3.684500	-11.064000	24.485781	0.000436	20.873027
877.240016	-2.984600	3.685400	-10.999000	24.524977	0.000437	20.838385
878.238010	-3.001400	3.684700	-11.058000	24.514323	0.000437	20.852352
879.236995	-3.000900	3.684800	-11.056000	24.500687	0.000436	20.852421
880.240853	-3.025700	3.683600	-11.144000	24.533537	0.000436	20.842707
881.240834	-3.012300	3.683600	-11.095000	24.510670	0.000439	20.868127
882.242518	-3.020400	3.682400	-11.121000	24.502375	0.000435	20.870709
883.244057	-3.010400	3.683200	-11.086000	24.525655	0.000436	20.843333
884.238121	-3.026900	3.682800	-11.146000	24.533925	0.000434	20.875811
885.240279	-3.004400	3.683700	-11.067000	24.493233	0.000435	20.861538
886.242016	-2.984500	3.683100	-10.991000	24.517429	0.000435	20.860683
887.246594	-3.007700	3.682300	-11.074000	24.527668	0.000432	20.853887
888.244051	-2.976000	3.683000	-10.959000	24.533004	0.000432	20.847388
889.243652	-3.005300	3.681900	-11.064000	24.546335	0.000432	20.863607
890.246534	-3.009800	3.681600	-11.080000	24.522878	0.000432	20.862831
891.248602	-2.989500	3.681300	-11.004000	24.533073	0.000432	20.852672
892.245285	-2.945200	3.682900	-10.845000	24.547885	0.000432	20.847146
893.250076	-2.978200	3.680900	-10.961000	24.521170	0.000431	20.860643
894.251454	-2.995800	3.681800	-11.028000	24.535391	0.000432	20.834611
895.242635	-3.015700	3.679500	-11.095000	24.552355	0.000431	20.845940
896.242252	-3.011400	3.680200	-11.082000	24.551449	0.000430	20.849299
897.250598	-2.993200	3.680400	-11.015000	24.559335	0.000429	20.857211
898.250212	-2.985100	3.679800	-10.984000	24.542667	0.000429	20.856134
899.244457	-3.032400	3.678700	-11.154000	24.545325	0.000428	20.851215
900.254753	-2.983200	3.679600	-10.976000	24.537612	0.000429	20.860545
901.246412	-2.986600	3.679300	-10.988000	24.550863	0.000430	20.836858
902.247903	-3.008800	3.678600	-11.067000	24.548850	0.000429	20.851906
903.248168	-2.995800	3.678300	-11.018000	24.539398	0.000428	20.825829
904.245347	-3.017600	3.678100	-11.098000	24.538276	0.000427	20.846039
905.250513	-2.960800	3.678900	-10.892000	24.546280	0.000428	20.843639
906.246058	-3.017100	3.677700	-11.094000	24.556382	0.000427	20.837179
907.246106	-3.004000	3.678000	-11.048000	24.556426	0.000426	20.845758
908.248252	-3.000200	3.677900	-11.033000	24.552222	0.000426	20.869988
909.247187	-3.006100	3.677600	-11.055000	24.551799	0.000427	20.845856
910.246918	-3.000900	3.676700	-11.033000	24.576421	0.000428	20.820302
911.251981	-3.006900	3.676800	-11.055000	24.560876	0.000429	20.834576
912.250570	-3.008800	3.675100	-11.057000	24.564410	0.000429	20.839544
913.248230	-3.022500	3.676100	-11.110000	24.565454	0.000428	20.842962
914.246782	-3.017900	3.675200	-11.090000	24.562289	0.000427	20.834571
915.246797	-2.988600	3.675700	-10.984000	24.570465	0.000427	20.840404
916.250765	-2.990500	3.675100	-10.989000	24.581492	0.000426	20.831553
917.246984	-3.015000	3.674800	-11.079000	24.568949	0.000428	20.816124
918.246835	-2.979900	3.676000	-10.953000	24.565912	0.000425	20.848637
919.251554	-2.985800	3.674200	-10.969000	24.572700	0.000429	20.848336
920.248979	-3.005200	3.672600	-11.035000	24.572597	0.000427	20.828318
921.248618	-3.002100	3.674200	-11.030000	24.578706	0.000424	20.825913
922.250835	-3.002200	3.673800	-11.029000	24.568880	0.000426	20.848296
923.251276	-2.967300	3.674100	-10.900000	24.572109	0.000426	20.830200
924.248500	-3.011600	3.672900	-11.060000	24.589166	0.000427	20.834986
925.248502	-2.997600	3.673500	-11.010000	24.606153	0.000426	20.834013
926.250692	-2.977700	3.672800	-10.936000	24.586892	0.000425	20.848825
927.255548	-2.998700	3.673200	-11.014000	24.594945	0.000425	20.835569
928.253047	-3.003500	3.671500	-11.026000	24.589422	0.000424	20.837140
929.250494	-3.003600	3.672300	-11.029000	24.567404	0.000424	20.812203
930.250774	-2.993200	3.672100	-10.991000	24.603638	0.000425	20.828171
931.252436	-3.011900	3.671700	-11.057000	24.607783	0.000424	20.839916
932.248650	-2.996100	3.671100	-10.998000	24.591263	0.000423	20.821444
933.250855	-2.987100	3.671900	-10.967000	24.615861	0.000424	20.844701
934.249983	-2.994300	3.670500	-10.990000	24.576929	0.000423	20.833140
935.249394	-3.014400	3.670100	-11.063000	24.592150	0.000422	20.826126
936.252255	-3.015000	3.670500	-11.066000	24.587843	0.000421	20.848831
937.252158	-3.010800	3.669500	-11.046000	24.582241	0.000421	20.828038
938.251509	-2.994400	3.669700	-10.988000	24.606189	0.000420	20.837368
939.254978	-3.007600	3.670800	-11.040000	24.620784	0.000420	20.807442
940.254466	-2.977300	3.671500	-10.931000	24.610565	0.000419	20.811887
941.260599	-2.989900	3.669000	-10.969000	24.610235	0.000418	20.837634
942.254895	-2.986100	3.670500	-10.959000	24.610407	0.000418	20.840178
943.255139	-2.993000	3.669100	-10.981000	24.607666	0.000418	20.824625
944.261505	-3.014100	3.669700	-11.060000	24.620922	0.000417	20.824176
945.256476	-3.010400	3.668200	-11.042000	24.602394	0.000417	20.810801
946.255667	-2.976200	3.669700	-10.921000	24.628404	0.000416	20.821726
947.254667	-2.990200	3.667600	-10.966000	24.607863	0.000416	20.826720
948.258323	-2.984900	3.667900	-10.948000	24.613804	0.000414	20.831259
949.254187	-2.981600	3.668300	-10.936000	24.597762	0.000418	20.799516
950.256343	-2.969000	3.667800	-10.889000	24.643126	0.000415	20.826068
951.260364	-3.013900	3.665600	-11.047000	24.632908	0.000416	20.828142
952.267117	-3.006500	3.665900	-11.021000	24.627882	0.000415	20.820729
953.265957	-2.988500	3.666400	-10.956000	24.622285	0.000415	20.845458
954.261529	-3.020600	3.666600	-11.074000	24.619307	0.000414	20.829194
955.258447	-2.981200	3.666800	-10.931000	24.602768	0.000414	20.812125
956.260045	-2.953100	3.666900	-10.827000	24.604210	0.000413	20.826374
957.263315	-2.992400	3.666200	-10.970000	24.615975	0.000412	20.801669
958.261878	-3.017100	3.664600	-11.054000	24.661215	0.000414	20.811977
959.260547	-3.021700	3.664000	-11.071000	24.631495	0.000413	20.802543
960.259319	-3.019700	3.664800	-11.066000	24.630328	0.000413	20.807536
961.265525	-2.996100	3.664400	-10.978000	24.625529	0.000412	20.823109
962.265016	-3.025800	3.663000	-11.083000	24.648639	0.000412	20.800780
963.262631	-2.998200	3.664600	-10.986000	24.641895	0.000412	20.816772
964.267259	-3.008400	3.663200	-11.020000	24.642594	0.000411	20.815103
965.264892	-3.008800	3.663200	-11.020000	24.636205	0.000411	20.822916
966.262789	-3.007700	3.663000	-11.016000	24.632750	0.000410	20.820397
967.264760	-3.003600	3.663000	-11.002000	24.628620	0.000412	20.793020
968.267342	-3.001100	3.661900	-10.988000	24.650804	0.000410	20.801056
969.261922	-2.988500	3.662900	-10.944000	24.641708	0.000410	20.806627
970.267601	-3.040400	3.661500	-11.131000	24.648924	0.000410	20.817187
971.271323	-2.979700	3.662800	-10.913000	24.656012	0.000408	20.801066
972.268954	-2.985000	3.662600	-10.932000	24.671777	0.000409	20.803135
973.263433	-3.006000	3.662100	-11.007000	24.656140	0.000408	20.796927
974.264617	-3.013300	3.659800	-11.026000	24.640300	0.000406	20.810904
975.265400	-2.987200	3.661300	-10.936000	24.657710	0.000411	20.820787
976.268000	-2.983200	3.661800	-10.923000	24.646965	0.000408	20.799574
977.271500	-2.984400	3.660400	-10.922000	24.660102	0.000408	20.818446
978.264003	-3.013300	3.660400	-11.029000	24.647619	0.000410	20.783635
979.266063	-3.013900	3.658900	-11.027000	24.658537	0.000407	20.805970
980.262166	-3.018800	3.659400	-11.047000	24.658989	0.000407	20.814011
981.265874	-3.002200	3.659500	-10.986000	24.675798	0.000407	20.810489
982.262942	-3.018200	3.659600	-11.044000	24.655239	0.000407	20.783694
983.265069	-2.997800	3.659400	-10.969000	24.669090	0.000406	20.824145
984.267605	-3.033300	3.658400	-11.096000	24.660786	0.000406	20.802537
985.267130	-2.964900	3.660800	-10.853000	24.658005	0.000404	20.784099
986.262120	-2.987600	3.658200	-10.927000	24.661061	0.000404	20.794279
987.266460	-2.982800	3.659800	-10.915000	24.651020	0.000405	20.789419
988.264718	-2.997900	3.658400	-10.966000	24.673534	0.000405	20.776923
989.267158	-3.026900	3.657600	-11.071000	24.674006	0.000406	20.796363
990.269042	-3.003800	3.658000	-10.987000	24.663143	0.000404	20.786885
991.276682	-2.995600	3.657300	-10.956000	24.675882	0.000404	20.784968
992.279359	-2.999600	3.657400	-10.970000	24.669837	0.000401	20.813516
993.265643	-3.007600	3.656400	-10.996000	24.699985	0.000403	20.787818
994.273495	-3.013700	3.655400	-11.015000	24.664723	0.000403	20.777565
995.268022	-3.000500	3.656300	-10.970000	24.679696	0.000403	20.784529
996.271554	-2.978300	3.657000	-10.891000	24.690741	0.000403	20.771904
997.272143	-3.001300	3.654500	-10.966000	24.674927	0.000400	20.764569
998.272758	-2.995700	3.654900	-10.949000	24.689525	0.000400	20.779219
999.274523	-2.977400	3.656100	-10.885000	24.693409	0.000402	20.784064
1000.268689	-2.998700	3.654900	-10.959000	24.700624	0.000400	20.790357
1001.271760	-3.012200	3.653600	-11.004000	24.672918	0.000399	20.792900
1002.271626	-3.000200	3.654800	-10.965000	24.675837	0.000402	20.768328
1003.269637	-2.991000	3.654300	-10.928000	24.684116	0.000400	20.769049
1004.272880	-3.022400	3.653600	-11.041000	24.687896	0.000400	20.805085
1005.274205	-2.997400	3.654500	-10.952000	24.692326	0.000398	20.766382
1006.274826	-3.008800	3.653200	-10.991000	24.670295	0.000399	20.768931
1007.278107	-3.018300	3.652700	-11.024000	24.686508	0.000398	20.784252
1008.272848	-3.005900	3.653300	-10.981000	24.689471	0.000400	20.774423
1009.275445	-3.016200	3.652800	-11.017000	24.695658	0.000399	20.791537
1010.280913	-2.989700	3.652700	-10.918000	24.674100	0.000398	20.778439
1011.272995	-3.026400	3.652200	-11.052000	24.702820	0.000398	20.780232
1012.277707	-2.994200	3.652700	-10.936000	24.698670	0.000397	20.766110
1013.276916	-2.987500	3.652400	-10.911000	24.699738	0.000398	20.776665
1014.278714	-3.016200	3.650400	-11.009000	24.694762	0.000397	20.755076
1015.274910	-3.001500	3.651200	-10.958000	24.684022	0.000396	20.772749
1016.280772	-3.008100	3.651200	-10.983000	24.705886	0.000396	20.772877
1017.274893	-3.004000	3.651600	-10.968000	24.700733	0.000394	20.752532
1018.279677	-3.008700	3.650100	-10.981000	24.690214	0.000394	20.782281
1019.279939	-3.002500	3.650200	-10.959000	24.691932	0.000394	20.746546
1020.276986	-3.011800	3.650100	-10.992000	24.694841	0.000394	20.783131
1021.276339	-2.999400	3.649200	-10.945000	24.725505	0.000394	20.766960
1022.278534	-2.976600	3.649900	-10.863000	24.701929	0.000393	20.762742
1023.283216	-3.008200	3.649100	-10.976000	24.721675	0.000394	20.757427
1024.279079	-3.024600	3.647500	-11.031000	24.710631	0.000393	20.761991
1025.280913	-3.013600	3.647400	-10.990000	24.698872	0.000391	20.741656
1026.280479	-3.003000	3.648100	-10.954000	24.717428	0.000391	20.750320
1027.279584	-3.004700	3.648200	-10.961000	24.733488	0.000393	20.746521
1028.282791	-3.011600	3.645900	-10.980000	24.720435	0.000391	20.741483
1029.284278	-3.010500	3.647800	-10.981000	24.720287	0.000389	20.750344
1030.279750	-2.987700	3.647500	-10.897000	24.732277	0.000390	20.742461
1031.281291	-3.003100	3.647200	-10.951000	24.737721	0.000391	20.762149
1032.278575	-2.986600	3.646100	-10.889000	24.726381	0.000390	20.765942
1033.278410	-2.978400	3.646500	-10.859000	24.733468	0.000390	20.736070
1034.280430	-3.000600	3.645200	-10.937000	24.700275	0.000389	20.761082
1035.279459	-3.021300	3.645600	-11.013000	24.716965	0.000391	20.752226
1036.280394	-3.004300	3.645600	-10.952000	24.729644	0.000390	20.743138
1037.282923	-2.997300	3.645000	-10.925000	24.731189	0.000388	20.759862
1038.281136	-3.007900	3.645400	-10.964000	24.755705	0.000388	20.736573
1039.282640	-2.984700	3.644500	-10.877000	24.738951	0.000386	20.748685
1040.288115	-2.966200	3.645100	-10.811000	24.712865	0.000387	20.739102
1041.284672	-2.983500	3.644200	-10.872000	24.733380	0.000386	20.724600
1042.282109	-3.005600	3.643900	-10.950000	24.759544	0.000386	20.752755
1043.286478	-2.994900	3.644300	-10.913000	24.756581	0.000386	20.732237
1044.284251	-2.997100	3.642900	-10.917000	24.743238	0.000386	20.736865
1045.287820	-3.004800	3.643200	-10.947000	24.743312	0.000387	20.740258
1046.286646	-2.991500	3.644700	-10.903000	24.722547	0.000386	20.718470
1047.284471	-2.998800	3.643400	-10.925000	24.728866	0.000385	20.739512
1048.288506	-2.991300	3.642700	-10.895000	24.719820	0.000384	20.730908
1049.283731	-2.995900	3.642200	-10.911000	24.751349	0.000384	20.734573
1050.284724	-3.001000	3.642200	-10.929000	24.725165	0.000383	20.730108
1051.286711	-2.986600	3.641500	-10.875000	24.748740	0.000383	20.741913
1052.286280	-2.975900	3.641500	-10.836000	24.732208	0.000383	20.731012
1053.284526	-3.005500	3.640800	-10.942000	24.734571	0.000383	20.740021
1054.282948	-3.003800	3.640300	-10.933000	24.739965	0.000383	20.725045
1055.284585	-3.013600	3.641100	-10.972000	24.758348	0.000382	20.729268
1056.287494	-2.992000	3.640300	-10.891000	24.743897	0.000384	20.731362
1057.287117	-2.993100	3.640900	-10.897000	24.766823	0.000382	20.746309
1058.285712	-2.996500	3.640300	-10.908000	24.751703	0.000381	20.745360
1059.291095	-2.996600	3.640400	-10.907000	24.753268	0.000381	20.725119
1060.285795	-2.985200	3.639700	-10.864000	24.746531	0.000381	20.722150
1061.285852	-3.006800	3.638200	-10.938000	24.748396	0.000383	20.715961
1062.288510	-3.012300	3.638100	-10.958000	24.745236	0.000382	20.749302
1063.287210	-3.015100	3.637800	-10.967000	24.767044	0.000380	20.716658
1064.288897	-2.992000	3.638500	-10.885000	24.756074	0.000380	20.726038
1065.287629	-2.996100	3.638300	-10.900000	24.754430	0.000382	20.732923
1066.286919	-3.008300	3.637900	-10.943000	24.761517	0.000381	20.738139
1067.289983	-2.976500	3.638200	-10.828000	24.771267	0.000378	20.725163
1068.288967	-2.983700	3.637200	-10.851000	24.766665	0.000379	20.733822
1069.290437	-2.988600	3.637200	-10.870000	24.747687	0.000378	20.743227
1070.288002	-2.996200	3.636400	-10.895000	24.772507	0.000380	20.726882
1071.290486	-2.975300	3.637100	-10.820000	24.768127	0.000378	20.740031
1072.291507	-3.015800	3.635900	-10.965000	24.777724	0.000380	20.742550
1073.288182	-2.990000	3.635800	-10.871000	24.765312	0.000378	20.756647
1074.292723	-2.993400	3.634700	-10.879000	24.770755	0.000378	20.722753
1075.288718	-2.997200	3.634600	-10.892000	24.765730	0.000378	20.737625
1076.288113	-2.994100	3.634700	-10.881000	24.776051	0.000378	20.737077
1077.291345	-2.991300	3.634500	-10.871000	24.751723	0.000378	20.731629
1078.288673	-3.010500	3.634300	-10.940000	24.763461	0.000380	20.736297
1079.288930	-2.994000	3.634800	-10.882000	24.769899	0.000377	20.717626
1080.288281	-3.000800	3.633200	-10.902000	24.776410	0.000377	20.729851
1081.290683	-2.993100	3.632800	-10.872000	24.770637	0.000376	20.723583
1082.293719	-3.000100	3.634000	-10.901000	24.780254	0.000377	20.727544
1083.290883	-3.020100	3.632300	-10.969000	24.773118	0.000378	20.748359
1084.291070	-3.013800	3.631800	-10.944000	24.763063	0.000375	20.720723
1085.293386	-3.005300	3.631700	-10.912000	24.784595	0.000374	20.731901
1086.291694	-3.001000	3.631300	-10.897000	24.776755	0.000374	20.723084
1087.290123	-3.001300	3.631000	-10.896000	24.797489	0.000376	20.730143
1088.295542	-3.019700	3.631000	-10.964000	24.783886	0.000373	20.721232
1089.291805	-2.990500	3.630900	-10.857000	24.798971	0.000373	20.724043
1090.294540	-2.994600	3.630700	-10.870000	24.783079	0.000375	20.730854
1091.293123	-2.999800	3.630400	-10.889000	24.787971	0.000374	20.750463
1092.292738	-2.985300	3.629700	-10.835000	24.780934	0.000372	20.740081
1093.296751	-2.998400	3.629500	-10.882000	24.820960	0.000372	20.742793
1094.290968	-3.000200	3.629800	-10.890000	24.808849	0.000370	20.727318
1095.293939	-2.960700	3.630800	-10.749000	24.788178	0.000371	20.734075
1096.293564	-2.998800	3.629200	-10.882000	24.796801	0.000371	20.749367
1097.293711	-2.994500	3.628600	-10.865000	24.815148	0.000370	20.751185
1098.298997	-2.991900	3.629000	-10.855000	24.806167	0.000369	20.731265
1099.298737	-2.997700	3.627300	-10.872000	24.803106	0.000369	20.748108
1100.295306	-2.991600	3.628300	-10.853000	24.799995	0.000367	20.738822
1101.297413	-3.027600	3.627000	-10.979000	24.815085	0.000368	20.742112
1102.296250	-2.980400	3.628600	-10.813000	24.811674	0.000369	20.747224
1103.294934	-3.014900	3.625900	-10.930000	24.823486	0.000366	20.724463
1104.297569	-3.012800	3.627000	-10.927000	24.808308	0.000366	20.749062
1105.296804	-2.997600	3.626900	-10.871000	24.815444	0.000365	20.743421
1106.296613	-2.998700	3.626300	-10.874000	24.815316	0.000366	20.736654
1107.297206	-2.987700	3.626800	-10.835000	24.784582	0.000365	20.752277
1108.297710	-3.007000	3.625800	-10.902000	24.810513	0.000364	20.729462
1109.302617	-3.014600	3.624900	-10.925000	24.806458	0.000364	20.731557
1110.298698	-2.986000	3.625600	-10.825000	24.816901	0.000363	20.747254
1111.298494	-2.993800	3.625200	-10.852000	24.805183	0.000364	20.770582
1112.303990	-3.008800	3.625300	-10.907000	24.809760	0.000362	20.752890
1113.298001	-2.995400	3.624100	-10.854000	24.821592	0.000364	20.733469
1114.297974	-3.007900	3.624300	-10.900000	24.842955	0.000363	20.748272
1115.297841	-2.993600	3.625400	-10.852000	24.824825	0.000363	20.762319
1116.299394	-2.989500	3.623100	-10.831000	24.854885	0.000362	20.768780
1117.299418	-3.005800	3.623900	-10.892000	24.843024	0.000363	20.758299
1118.299795	-3.005000	3.622400	-10.885000	24.834835	0.000364	20.747709
1119.301789	-2.992300	3.622500	-10.838000	24.840209	0.000361	20.741722
1120.300602	-3.014600	3.622200	-10.918000	24.850977	0.000361	20.742098
1121.300622	-3.020500	3.622800	-10.942000	24.842572	0.000362	20.755948
1122.303352	-2.999900	3.621700	-10.864000	24.835160	0.000358	20.759415
1123.300421	-3.006900	3.620300	-10.885000	24.840037	0.000357	20.759568
1124.300108	-2.996000	3.620500	-10.846000	24.870396	0.000358	20.752579
1125.301222	-2.992700	3.621400	-10.836000	24.849181	0.000357	20.752624
1126.299902	-2.986600	3.621200	-10.814000	24.854230	0.000360	20.761485
1127.300681	-3.001000	3.619900	-10.862000	24.867705	0.000358	20.768844
1128.301113	-2.979000	3.620700	-10.785000	24.871036	0.000357	20.764601
1129.300258	-3.008200	3.619500	-10.887000	24.866962	0.000357	20.771417
1130.306026	-2.986200	3.620300	-10.810000	24.859422	0.000357	20.772386
1131.305959	-2.998600	3.618100	-10.848000	24.869122	0.000356	20.749877
1132.303264	-3.012400	3.618700	-10.901000	24.859275	0.000356	20.757538
1133.305606	-3.043000	3.616800	-11.005000	24.856809	0.000356	20.756961
1134.304111	-3.005600	3.619100	-10.876000	24.873517	0.000354	20.761875
1135.303866	-2.997900	3.617500	-10.844000	24.860835	0.000355	20.760527
1136.307110	-2.999500	3.617400	-10.849000	24.871873	0.000355	20.746000
1137.304423	-2.994800	3.617900	-10.834000	24.873266	0.000356	20.743605
1138.303683	-2.974600	3.618500	-10.763000	24.847233	0.000354	20.769635
1139.305927	-2.999500	3.616800	-10.847000	24.883108	0.000353	20.753009
1140.308960	-2.990100	3.616500	-10.813000	24.860235	0.000353	20.773201
1141.306688	-2.985600	3.616600	-10.796000	24.858645	0.000351	20.782037
1142.304166	-3.014600	3.616500	-10.901000	24.860855	0.000352	20.761969
1143.308230	-2.997200	3.617000	-10.839000	24.879925	0.000351	20.770203
1144.306882	-3.018000	3.613600	-10.904000	24.874605	0.000352	20.772924
1145.305722	-3.001000	3.615400	-10.849000	24.880097	0.000350	20.757573
1146.308457	-2.990300	3.614800	-10.808000	24.868936	0.000351	20.762493
1147.308858	-2.993900	3.613800	-10.817000	24.869605	0.000351	20.773122
1148.308310	-2.977200	3.615500	-10.763000	24.859856	0.000351	20.748638
1149.309742	-3.011400	3.614100	-10.882000	24.884619	0.000350	20.754526
1150.308525	-3.022300	3.613100	-10.919000	24.879054	0.000350	20.773122
1151.311444	-3.021300	3.611900	-10.911000	24.882956	0.000349	20.756176
1152.310224	-3.007000	3.613500	-10.865000	24.868212	0.000349	20.754180
1153.310237	-2.986100	3.613700	-10.789000	24.887011	0.000348	20.782057
1154.314070	-2.984300	3.613300	-10.782000	24.870993	0.000348	20.759342
1155.308953	-3.010400	3.611600	-10.870000	24.905480	0.000349	20.779731
1156.309489	-3.020300	3.611000	-10.905000	24.884122	0.000349	20.754501
1157.313672	-2.988600	3.611200	-10.792000	24.887980	0.000348	20.766908
1158.309235	-2.978700	3.611300	-10.756000	24.881017	0.000347	20.775093
1159.309468	-3.009500	3.609700	-10.862000	24.873955	0.000346	20.778911
1160.308829	-3.003600	3.610600	-10.843000	24.885421	0.000346	20.769556
1161.310163	-3.002200	3.609800	-10.836000	24.902001	0.000345	20.765333
1162.311289	-3.016300	3.609500	-10.886000	24.887031	0.000344	20.794879
1163.310993	-3.008300	3.610100	-10.858000	24.910160	0.000343	20.770677
1164.311213	-2.993800	3.609600	-10.805000	24.883729	0.000347	20.787297
1165.310196	-2.999700	3.608400	-10.824000	24.908615	0.000345	20.779084
1166.310649	-2.989500	3.609500	-10.790000	24.909018	0.000344	20.780911
1167.311834	-3.014000	3.606800	-10.870000	24.892454	0.000343	20.776140
1168.313844	-3.020400	3.607200	-10.894000	24.921198	0.000342	20.777962
1169.310143	-2.982900	3.607700	-10.761000	24.895165	0.000340	20.785974
1170.312775	-2.996200	3.606300	-10.804000	24.920828	0.000343	20.795136
1171.309704	-3.026100	3.606000	-10.911000	24.918934	0.000342	20.764785
1172.310563	-3.008300	3.606700	-10.848000	24.907177	0.000342	20.793763
1173.313727	-3.012000	3.605500	-10.859000	24.927737	0.000340	20.774569
1174.310620	-3.038800	3.604400	-10.952000	24.913939	0.000341	20.771151
1175.310578	-3.008400	3.605900	-10.847000	24.914859	0.000340	20.768282
1176.309267	-2.987700	3.605800	-10.772000	24.917000	0.000338	20.778017
1177.314019	-3.016100	3.605200	-10.872000	24.927644	0.000339	20.780165
1178.312117	-2.999800	3.604800	-10.813000	24.906287	0.000339	20.780066
1179.310731	-2.983400	3.605500	-10.756000	24.917703	0.000338	20.773507
1180.312110	-2.999600	3.603900	-10.809000	24.910908	0.000338	20.764789
1181.312854	-2.993900	3.604800	-10.792000	24.921778	0.000338	20.777597
1182.312277	-2.999800	3.603200	-10.808000	24.928441	0.000337	20.801354
1183.313037	-2.999200	3.603800	-10.808000	24.905194	0.000337	20.764271
1184.313860	-2.992000	3.604000	-10.782000	24.892611	0.000336	20.784833
1185.312351	-3.007300	3.602400	-10.833000	24.924588	0.000336	20.785633
1186.312799	-2.985800	3.603600	-10.759000	24.926654	0.000335	20.797190
1187.312279	-2.966800	3.602000	-10.686000	24.937298	0.000335	20.766622
1188.315439	-3.002300	3.601100	-10.811000	24.951721	0.000333	20.793426
1189.318565	-3.009300	3.601400	-10.837000	24.920370	0.000334	20.786615
1190.313306	-2.980900	3.602100	-10.736000	24.927013	0.000334	20.796602
1191.312024	-3.005200	3.601100	-10.821000	24.932781	0.000332	20.789589
1192.316097	-2.978400	3.600300	-10.723000	24.946461	0.000333	20.793836
1193.313687	-3.002400	3.600000	-10.808000	24.930527	0.000332	20.797283
1194.313957	-2.964600	3.600600	-10.674000	24.950865	0.000330	20.784506
1195.316918	-2.985600	3.601000	-10.749000	24.950943	0.000333	20.786956
1196.312896	-2.994900	3.599500	-10.779000	24.964815	0.000331	20.788077
1197.313364	-2.986900	3.599800	-10.751000	24.949408	0.000331	20.803906
1198.313846	-2.988500	3.599700	-10.757000	24.942671	0.000331	20.799516
1199.314065	-2.986800	3.599400	-10.750000	24.956228	0.000330	20.777561
1200.318305	-2.997100	3.598700	-10.785000	24.950539	0.000331	20.797930
1201.316515	-3.006900	3.600100	-10.824000	24.950195	0.000329	20.793317
1202.316298	-2.987800	3.598900	-10.751000	24.957286	0.000328	20.790951
1203.316277	-2.997700	3.597800	-10.785000	24.951420	0.000328	20.792176
1204.316454	-2.984100	3.598500	-10.737000	24.945623	0.000327	20.784461
1205.317535	-2.989300	3.596400	-10.749000	24.949712	0.000326	20.795677
1206.316251	-2.989500	3.596600	-10.752000	24.949491	0.000329	20.801145
1207.317350	-2.998600	3.596400	-10.783000	24.949717	0.000327	20.793311
1208.318691	-2.980700	3.595700	-10.717000	24.958176	0.000327	20.782361
1209.316742	-2.989700	3.596100	-10.750000	24.961084	0.000327	20.803772
1210.316669	-3.002200	3.595900	-10.795000	24.971231	0.000325	20.791197
1211.317722	-3.007200	3.595200	-10.810000	24.943989	0.000324	20.802735
1212.316264	-3.011100	3.595600	-10.825000	24.956050	0.000324	20.802987
1213.315532	-3.001400	3.593600	-10.785000	24.978429	0.000325	20.784198
1214.316156	-3.004200	3.593800	-10.796000	24.963987	0.000324	20.792935
1215.316859	-3.009200	3.593500	-10.812000	24.962348	0.000323	20.793187
1216.319664	-3.010500	3.592600	-10.815000	24.965886	0.000323	20.784410
1217.317391	-2.999500	3.592700	-10.775000	24.972898	0.000323	20.793819
1218.317627	-3.013300	3.593100	-10.826000	24.962107	0.000323	20.822342
1219.318899	-3.018200	3.592500	-10.842000	24.944013	0.000323	20.811294
1220.318610	-3.013200	3.592400	-10.822000	24.981859	0.000323	20.818460
1221.322917	-2.985800	3.593100	-10.727000	24.958692	0.000321	20.787147
1222.323872	-3.001900	3.590600	-10.777000	24.964690	0.000322	20.814978
1223.319903	-3.002300	3.591400	-10.780000	24.958721	0.000320	20.802823
1224.321310	-3.006500	3.590900	-10.795000	24.969714	0.000323	20.788727
1225.318415	-3.048400	3.588900	-10.940000	24.951424	0.000320	20.805930
1226.320052	-3.004500	3.590500	-10.786000	24.958136	0.000320	20.795597
1227.322989	-2.999000	3.590700	-10.767000	24.976864	0.000319	20.783101
1228.322711	-3.006700	3.589900	-10.793000	24.975452	0.000319	20.808236
1229.323623	-3.006400	3.589100	-10.790000	24.975457	0.000318	20.808241
1230.322086	-2.996300	3.588800	-10.752000	24.980678	0.000318	20.800205
1231.324449	-2.998700	3.587900	-10.758000	24.962781	0.000319	20.805949
1232.327745	-3.000300	3.587700	-10.763000	24.969522	0.000315	20.797543
1233.325321	-2.990700	3.589200	-10.733000	24.969404	0.000319	20.805485
1234.326468	-3.002700	3.587400	-10.770000	24.965822	0.000316	20.826071
1235.329584	-2.999500	3.587300	-10.759000	24.977189	0.000316	20.809506
1236.326452	-2.997800	3.587200	-10.753000	24.966978	0.000316	20.811111
1237.325356	-2.996300	3.587000	-10.747000	24.969690	0.000315	20.811461
1238.328960	-2.995900	3.586800	-10.744000	24.986523	0.000314	20.809392
1239.327563	-2.998700	3.586300	-10.753000	24.981480	0.000316	20.815709
1240.326821	-3.008100	3.585900	-10.785000	24.981307	0.000314	20.810321
1241.328702	-3.006700	3.586400	-10.781000	24.985569	0.000314	20.819813
1242.327065	-2.979200	3.586300	-10.683000	24.981170	0.000313	20.823458
1243.329421	-3.033300	3.584500	-10.871000	25.000488	0.000311	20.814874
1244.327448	-3.000000	3.585000	-10.754000	25.010812	0.000312	20.817176
1245.327650	-2.998700	3.585400	-10.751000	25.002014	0.000311	20.798862
1246.333622	-2.976200	3.585100	-10.668000	24.994977	0.000311	20.829731
1247.326742	-3.000100	3.584400	-10.751000	25.011190	0.000310	20.816608
1248.328959	-3.021200	3.582700	-10.823000	25.014300	0.000311	20.817833
1249.333140	-3.004000	3.585000	-10.768000	25.017809	0.000311	20.820880
1250.329466	-3.008600	3.584800	-10.783000	25.011914	0.000311	20.813067
1251.329768	-3.005900	3.582900	-10.768000	25.027482	0.000309	20.813995
1252.330195	-3.009300	3.582000	-10.779000	25.035444	0.000309	20.818194
1253.330598	-3.001900	3.581800	-10.752000	25.010408	0.000310	20.825306
1254.332847	-2.997500	3.582400	-10.736000	25.040763	0.000306	20.829696
1255.335690	-2.992800	3.581700	-10.718000	25.009021	0.000308	20.811111
1256.330529	-3.002300	3.581400	-10.751000	25.015265	0.000307	20.842508
1257.330599	-3.016100	3.580200	-10.797000	25.004253	0.000307	20.824343
1258.330139	-2.999400	3.579800	-10.736000	25.008908	0.000305	20.827119
1259.331760	-2.996100	3.579700	-10.724000	25.023876	0.000305	20.838350
1260.330121	-2.997400	3.580300	-10.730000	25.027237	0.000306	20.813749
1261.330835	-3.001100	3.580200	-10.743000	25.038170	0.000304	20.821878
1262.331003	-2.993300	3.578200	-10.710000	25.019349	0.000305	20.820530
1263.329884	-3.019300	3.578100	-10.802000	25.028108	0.000304	20.833115
1264.330839	-2.990900	3.579200	-10.705000	25.033249	0.000303	20.823577
1265.331175	-2.994000	3.578800	-10.714000	25.031759	0.000303	20.834408
1266.331094	-3.005900	3.578500	-10.756000	25.044217	0.000303	20.840750
1267.329764	-3.020100	3.577700	-10.804000	25.024801	0.000302	20.838330
1268.331494	-2.984400	3.578200	-10.677000	25.047848	0.000303	20.829697
1269.332308	-2.992600	3.577000	-10.703000	25.053320	0.000301	20.822861
1270.335800	-2.987700	3.577200	-10.686000	25.037909	0.000302	20.827781
1271.332842	-2.996100	3.576000	-10.713000	25.060976	0.000302	20.847615
1272.333456	-3.012200	3.574400	-10.766000	25.039454	0.000301	20.837392
1273.336625	-2.998200	3.576200	-10.721000	25.033983	0.000301	20.833796
1274.335877	-3.003800	3.575400	-10.739000	25.058619	0.000300	20.846672
1275.337554	-2.999500	3.575600	-10.724000	25.038736	0.000300	20.852791
1276.338601	-2.973400	3.576000	-10.632000	25.075904	0.000301	20.839842
1277.335555	-3.019500	3.574900	-10.794000	25.055047	0.000300	20.842612
1278.338798	-3.016000	3.574800	-10.781000	25.073493	0.000298	20.819404
1279.336117	-2.990200	3.574100	-10.686000	25.064967	0.000297	20.855414
1280.335369	-3.002900	3.573000	-10.728000	25.075585	0.000297	20.823874
1281.338944	-3.027500	3.572800	-10.816000	25.081578	0.000297	20.849803
1282.335978	-3.000200	3.573200	-10.719000	25.076357	0.000296	20.838874
1283.335518	-2.996000	3.572900	-10.704000	25.071314	0.000296	20.841397
1284.335241	-3.003100	3.571600	-10.725000	25.073051	0.000297	20.831762
1285.335179	-3.025500	3.571800	-10.805000	25.067383	0.000297	20.856891
1286.342711	-2.991600	3.572200	-10.686000	25.088741	0.000296	20.832814
1287.335585	-2.993300	3.571000	-10.688000	25.056597	0.000295	20.839901
1288.335223	-3.003600	3.570200	-10.722000	25.078896	0.000294	20.856594
1289.339790	-2.978600	3.572000	-10.639000	25.052504	0.000294	20.853335
1290.337344	-2.998300	3.569800	-10.702000	25.077907	0.000292	20.848964
1291.337670	-3.001800	3.569800	-10.715000	25.067068	0.000293	20.849937
1292.339530	-3.006600	3.569000	-10.730000	25.080043	0.000293	20.838780
1293.337584	-2.990600	3.569400	-10.673000	25.070079	0.000292	20.860072
1294.336710	-2.974700	3.570300	-10.619000	25.091187	0.000293	20.830053
1295.337181	-2.991200	3.569000	-10.674000	25.084274	0.000292	20.846346
1296.337716	-2.980700	3.568900	-10.636000	25.084427	0.000292	20.848396
1297.339507	-2.991000	3.568000	-10.670000	25.091886	0.000290	20.853039
1298.340406	-2.996800	3.567700	-10.691000	25.083708	0.000290	20.862373
1299.338515	-3.008000	3.568000	-10.731000	25.093504	0.000290	20.859879
1300.338855	-2.999900	3.566200	-10.696000	25.113692	0.000289	20.871609
1301.340136	-3.007000	3.567700	-10.727000	25.101962	0.000290	20.864576
1302.340744	-2.989600	3.566700	-10.661000	25.088461	0.000288	20.878049
1303.341237	-2.982600	3.566700	-10.637000	25.080712	0.000289	20.874064
1304.339157	-2.980500	3.565000	-10.624000	25.109249	0.000288	20.866201
1305.341734	-3.001100	3.565000	-10.698000	25.087601	0.000288	20.873866
1306.339798	-2.997200	3.566100	-10.688000	25.087133	0.000288	20.881457
1307.341438	-2.992500	3.565700	-10.670000	25.100482	0.000286	20.845073
1308.340392	-2.997700	3.564800	-10.685000	25.108664	0.000285	20.858502
1309.340615	-3.020500	3.564500	-10.766000	25.106898	0.000284	20.873323
1310.342906	-2.999600	3.563800	-10.689000	25.126096	0.000285	20.864147
1311.341285	-2.987300	3.564400	-10.647000	25.086464	0.000285	20.853760
1312.344042	-3.002800	3.562500	-10.697000	25.119159	0.000285	20.856235
1313.342414	-2.979000	3.563800	-10.615000	25.092364	0.000284	20.887655
1314.342608	-2.979600	3.563700	-10.617000	25.112920	0.000285	20.859929
1315.347611	-3.006800	3.563300	-10.713000	25.118514	0.000283	20.863648
1316.343148	-3.004900	3.561700	-10.700000	25.100497	0.000284	20.876380
1317.342825	-3.004400	3.560900	-10.697000	25.101294	0.000281	20.861534
1318.345334	-2.999500	3.561600	-10.682000	25.111164	0.000281	20.869071
1319.342053	-3.035700	3.560000	-10.806000	25.099828	0.000280	20.870493
1320.342332	-2.998000	3.561600	-10.676000	25.106194	0.000279	20.879255
1321.342875	-3.001500	3.561200	-10.688000	25.116340	0.000279	20.869051
1322.343023	-3.000900	3.560400	-10.683000	25.106642	0.000280	20.860265
1323.344543	-3.006900	3.560000	-10.703000	25.113058	0.000279	20.867654
1324.341987	-3.011300	3.559300	-10.717000	25.115622	0.000279	20.846520
1325.342387	-2.997200	3.559400	-10.668000	25.112542	0.000280	20.842481
1326.343377	-3.002700	3.558800	-10.685000	25.113413	0.000277	20.844303
1327.344010	-2.976300	3.559200	-10.591000	25.143745	0.000275	20.853415
1328.345117	-2.983000	3.558500	-10.614000	25.103120	0.000275	20.865738
1329.343661	-3.002900	3.558300	-10.684000	25.110362	0.000275	20.841715
1330.343728	-3.001900	3.557000	-10.677000	25.128183	0.000275	20.857233
1331.346651	-2.983700	3.557000	-10.611000	25.111051	0.000275	20.851415
1332.345786	-3.004000	3.557500	-10.687000	25.141211	0.000277	20.841863
1333.345607	-3.015800	3.557000	-10.727000	25.139125	0.000275	20.831235
1334.345984	-3.003600	3.557300	-10.684000	25.146308	0.000274	20.842239
1335.346279	-3.001700	3.555900	-10.673000	25.127145	0.000275	20.832959
1336.347066	-2.992600	3.556200	-10.642000	25.140493	0.000276	20.851099
1337.346302	-3.008000	3.554100	-10.689000	25.122244	0.000272	20.839419
1338.346637	-2.998400	3.555300	-10.659000	25.145688	0.000274	20.844935
1339.349531	-3.018300	3.554000	-10.726000	25.135174	0.000271	20.823950
1340.345708	-2.987900	3.555400	-10.623000	25.141186	0.000273	20.829037
1341.346116	-2.997000	3.555500	-10.654000	25.134382	0.000272	20.843543
1342.348528	-2.985200	3.554400	-10.609000	25.127445	0.000271	20.839898
1343.349521	-2.985400	3.554400	-10.610000	25.132768	0.000272	20.845242
1344.351011	-3.003100	3.553300	-10.670000	25.143499	0.000271	20.843212
1345.351779	-2.995700	3.553600	-10.644000	25.146288	0.000270	20.836530
1346.348772	-3.024200	3.551900	-10.740000	25.163051	0.000269	20.811158
1347.351897	-2.998600	3.552200	-10.651000	25.145344	0.000270	20.843167
1348.348763	-3.031500	3.551700	-10.766000	25.156684	0.000271	20.818991
1349.348832	-3.012200	3.552500	-10.700000	25.137762	0.000270	20.830341
1350.352850	-3.020800	3.551000	-10.725000	25.137265	0.000270	20.830791
1351.349477	-3.010600	3.550200	-10.687000	25.149329	0.000268	20.838634
1352.349107	-3.020800	3.551300	-10.726000	25.143809	0.000268	20.831196
1353.349884	-3.001600	3.551300	-10.659000	25.133718	0.000266	20.837187
1354.347760	-3.003200	3.550300	-10.662000	25.144704	0.000265	20.820715
1355.349526	-3.013800	3.549100	-10.695000	25.140252	0.000266	20.831892
1356.349841	-2.985000	3.550500	-10.597000	25.137142	0.000266	20.837305
1357.349334	-2.994300	3.549300	-10.627000	25.148931	0.000265	20.809311
1358.357599	-3.004900	3.548700	-10.662000	25.143957	0.000265	20.808111
1359.350289	-3.016900	3.548800	-10.705000	25.141324	0.000265	20.821589
1360.350631	-2.994100	3.548500	-10.624000	25.132429	0.000265	20.814556
1361.353436	-2.993600	3.548700	-10.622000	25.169466	0.000263	20.791521
1362.351538	-3.003600	3.547500	-10.655000	25.139986	0.000265	20.809341
1363.352378	-2.982300	3.546800	-10.577000	25.152985	0.000264	20.806743
1364.350770	-3.005800	3.546200	-10.659000	25.150702	0.000262	20.822943
1365.352048	-2.985600	3.546800	-10.589000	25.157841	0.000263	20.809721
1366.353298	-2.977500	3.547400	-10.561000	25.151027	0.000261	20.836071
1367.351830	-2.997100	3.545300	-10.624000	25.169895	0.000259	20.822296
1368.352015	-2.993800	3.546200	-10.616000	25.185358	0.000260	20.819328
1369.351868	-2.998200	3.545800	-10.630000	25.171139	0.000261	20.815485
1370.351192	-2.999400	3.545400	-10.633000	25.154609	0.000260	20.812166
1371.356028	-2.997100	3.545300	-10.624000	25.167538	0.000260	20.797171
1372.351460	-2.985700	3.544500	-10.582000	25.165526	0.000259	20.830238
1373.352884	-2.990300	3.543800	-10.596000	25.164158	0.000258	20.830287
1374.352817	-2.992800	3.544800	-10.608000	25.130894	0.000257	20.808748
1375.353383	-2.989500	3.544600	-10.596000	25.161207	0.000258	20.808359
1376.354604	-3.004900	3.543700	-10.648000	25.154018	0.000258	20.790711
1377.350842	-3.008700	3.542100	-10.656000	25.144100	0.000259	20.798772
1378.353814	-2.981500	3.543600	-10.564000	25.163342	0.000257	20.803390
1379.354909	-3.004900	3.542400	-10.643000	25.168739	0.000256	20.805489
1380.353993	-3.015800	3.540300	-10.674000	25.168242	0.000253	20.802145
1381.353461	-3.022400	3.541500	-10.702000	25.187926	0.000254	20.812423
1382.356081	-2.992900	3.541600	-10.598000	25.153374	0.000255	20.811401
1383.354146	-3.018800	3.541500	-10.690000	25.164709	0.000255	20.797651
1384.353568	-3.017400	3.540200	-10.681000	25.179774	0.000254	20.802343
1385.353596	-3.000800	3.541600	-10.626000	25.164237	0.000253	20.817565
1386.352785	-2.983300	3.541900	-10.566000	25.186312	0.000254	20.787096
1387.356984	-3.005400	3.540400	-10.639000	25.182411	0.000251	20.808783
1388.355232	-2.997600	3.539900	-10.610000	25.177609	0.000254	20.806808
1389.357904	-3.014800	3.538400	-10.666000	25.168390	0.000250	20.807983
1390.355321	-2.989300	3.538800	-10.577000	25.180099	0.000251	20.797927
1391.355463	-2.985500	3.539900	-10.568000	25.192679	0.000252	20.797754
1392.358383	-2.992300	3.539100	-10.589000	25.180301	0.000249	20.794811
1393.358094	-2.990200	3.539100	-10.582000	25.186465	0.000252	20.810957
1394.357017	-3.009000	3.538300	-10.646000	25.191783	0.000250	20.790217
1395.359849	-3.002200	3.538000	-10.621000	25.177344	0.000251	20.794687
1396.357123	-3.003100	3.536800	-10.620000	25.171848	0.000249	20.792015
1397.357093	-3.002600	3.536400	-10.617000	25.191119	0.000249	20.781490
1398.360617	-2.999200	3.536300	-10.605000	25.184527	0.000249	20.786725
1399.358562	-3.014700	3.535300	-10.657000	25.179410	0.000249	20.803874
1400.363960	-2.988300	3.536700	-10.568000	25.192083	0.000249	20.804743
1401.360060	-2.983700	3.535700	-10.547000	25.206552	0.000247	20.805993
1402.359257	-3.016300	3.534900	-10.662000	25.210680	0.000246	20.812982
1403.362388	-2.998700	3.536500	-10.603000	25.193825	0.000247	20.784206
1404.359968	-2.998100	3.535300	-10.598000	25.191390	0.000244	20.796460
1405.361186	-3.006000	3.534500	-10.624000	25.208840	0.000247	20.790746
1406.364070	-2.999300	3.533900	-10.598000	25.191592	0.000247	20.805198
1407.360662	-3.003900	3.534300	-10.615000	25.203143	0.000245	20.790242
1408.364853	-3.013500	3.532900	-10.645000	25.183336	0.000244	20.786953
1409.365446	-3.009300	3.533200	-10.631000	25.176743	0.000245	20.784127
1410.362374	-2.999000	3.534100	-10.598000	25.182692	0.000245	20.780142
1411.362479	-2.997400	3.532800	-10.588000	25.180374	0.000244	20.791092
1412.362977	-3.006800	3.532000	-10.619000	25.179405	0.000243	20.797705
1413.363221	-2.993900	3.533100	-10.576000	25.163967	0.000245	20.785051
1414.365011	-2.982100	3.531700	-10.531000	25.165162	0.000243	20.774871
1415.362655	-2.974400	3.531900	-10.504000	25.157404	0.000243	20.801222
1416.362266	-2.994500	3.530900	-10.572000	25.158993	0.000241	20.782902
1417.363703	-2.983800	3.531700	-10.537000	25.183926	0.000241	20.779484
1418.363631	-3.012900	3.529600	-10.634000	25.154540	0.000241	20.793131
1419.370511	-3.008400	3.529200	-10.616000	25.167893	0.000242	20.790415
1420.365036	-3.015800	3.528900	-10.641000	25.170382	0.000239	20.782483
1421.365156	-2.980800	3.529600	-10.519000	25.164808	0.000239	20.792059
1422.367064	-3.007600	3.529500	-10.614000	25.181939	0.000239	20.779386
1423.364626	-2.998000	3.528900	-10.579000	25.192772	0.000238	20.788839
1424.366195	-3.002100	3.528300	-10.591000	25.197948	0.000239	20.776491
1425.367126	-3.003200	3.527800	-10.593000	25.180871	0.000236	20.782107
1426.366719	-2.983400	3.528300	-10.526000	25.191783	0.000238	20.777889
1427.367162	-2.970800	3.528500	-10.482000	25.169113	0.000236	20.780260
1428.364965	-2.995100	3.527800	-10.565000	25.195886	0.000236	20.787698
1429.368125	-2.975500	3.526800	-10.493000	25.181717	0.000234	20.769206
1430.369483	-2.990200	3.527200	-10.546000	25.189402	0.000235	20.767438
1431.370654	-2.998300	3.527200	-10.575000	25.187262	0.000235	20.776195
1432.368238	-3.013800	3.525800	-10.625000	25.160415	0.000233	20.792865
1433.370938	-2.979000	3.526500	-10.504000	25.161954	0.000234	20.763116
1434.367990	-2.981600	3.526600	-10.514000	25.184906	0.000234	20.794218
1435.368386	-3.012900	3.526400	-10.623000	25.177870	0.000232	20.790949
1436.372329	-2.983600	3.526000	-10.518000	25.165443	0.000233	20.790326
1437.369211	-3.017600	3.523500	-10.632000	25.190298	0.000234	20.765492
1438.371351	-3.007700	3.523900	-10.598000	25.190396	0.000233	20.770332
1439.370336	-2.995800	3.523700	-10.555000	25.173644	0.000233	20.763946
1440.370389	-3.005700	3.522600	-10.587000	25.201461	0.000232	20.773380
1441.372934	-3.006300	3.522800	-10.589000	25.179735	0.000231	20.759155
1442.371025	-3.000200	3.523400	-10.570000	25.189875	0.000232	20.773128
1443.375235	-3.020700	3.521700	-10.637000	25.171214	0.000231	20.742065
1444.371537	-3.010200	3.522800	-10.604000	25.189181	0.000231	20.780018
1445.372209	-3.014700	3.521100	-10.614000	25.198922	0.000229	20.784108
1446.374411	-3.005500	3.521400	-10.583000	25.190972	0.000227	20.778497
1447.374206	-3.012400	3.521400	-10.606000	25.172547	0.000228	20.781811
1448.373563	-2.993400	3.520200	-10.536000	25.185894	0.000229	20.770080
1449.374520	-2.999100	3.520600	-10.557000	25.185397	0.000229	20.766262
1450.375027	-2.987000	3.520400	-10.514000	25.168272	0.000226	20.780364
1451.373807	-3.021000	3.519200	-10.631000	25.170510	0.000229	20.769809
1452.375910	-3.013400	3.520200	-10.607000	25.197530	0.000228	20.756631
1453.375103	-3.004500	3.519700	-10.574000	25.185599	0.000227	20.770732
1454.373699	-3.022100	3.519100	-10.634000	25.216771	0.000228	20.782112
1455.374229	-2.991400	3.519900	-10.528000	25.206178	0.000226	20.768159
1456.375391	-3.033600	3.518500	-10.673000	25.194425	0.000225	20.769636
1457.376330	-3.020400	3.517700	-10.624000	25.207300	0.000226	20.763595
1458.374339	-2.991700	3.518500	-10.525000	25.213415	0.000227	20.780166
1459.374451	-3.019700	3.517000	-10.619000	25.213115	0.000225	20.761373
1460.378078	-3.018700	3.517200	-10.617000	25.205564	0.000223	20.753317
1461.376040	-3.007300	3.516700	-10.575000	25.201559	0.000224	20.758305
1462.379882	-2.986000	3.516800	-10.500000	25.205632	0.000225	20.758127
1463.378770	-2.994800	3.516200	-10.529000	25.208742	0.000222	20.762197
1464.377971	-2.966800	3.517900	-10.436000	25.214758	0.000222	20.752591
1465.379958	-2.988600	3.514700	-10.504000	25.211472	0.000223	20.767784
1466.378700	-3.000800	3.515700	-10.549000	25.218040	0.000223	20.741186
1467.377924	-2.989900	3.515800	-10.511000	25.189658	0.000220	20.755367
1468.380127	-2.975500	3.515400	-10.460000	25.213391	0.000220	20.759753
1469.378715	-2.976200	3.514300	-10.458000	25.202656	0.000218	20.759407
1470.381455	-2.970800	3.514400	-10.439000	25.208501	0.000220	20.773336
1471.379236	-2.996000	3.513800	-10.527000	25.199404	0.000219	20.776531
1472.377588	-3.015100	3.513400	-10.592000	25.193762	0.000218	20.766125
1473.382624	-3.001700	3.513200	-10.544000	25.212456	0.000219	20.762608
1474.379606	-2.987100	3.512900	-10.492000	25.204796	0.000219	20.758711
1475.380207	-2.994300	3.511900	-10.515000	25.194308	0.000214	20.745809
1476.379879	-2.994700	3.512200	-10.517000	25.208358	0.000217	20.765606
1477.380247	-3.007800	3.512500	-10.564000	25.203458	0.000217	20.740771
1478.380767	-2.990900	3.512700	-10.506000	25.199360	0.000217	20.739502
1479.379840	-3.006100	3.511200	-10.553000	25.211807	0.000215	20.728289
1480.379807	-2.986400	3.511200	-10.486000	25.205028	0.000216	20.773642
1481.383045	-3.010200	3.510100	-10.565000	25.211536	0.000214	20.752675
1482.381313	-2.977700	3.510000	-10.451000	25.207483	0.000214	20.751924
1483.382327	-2.979300	3.510400	-10.457000	25.234181	0.000213	20.753599
1484.384150	-2.978000	3.512000	-10.457000	25.230551	0.000215	20.758014
1485.383049	-2.989100	3.509700	-10.490000	25.226778	0.000214	20.740475
1486.383590	-3.001000	3.509500	-10.531000	25.228735	0.000215	20.720154
1487.383548	-3.011500	3.508700	-10.566000	25.250037	0.000213	20.760983
1488.383861	-3.004500	3.508400	-10.540000	25.236941	0.000210	20.753525
1489.387466	-2.994400	3.507800	-10.502000	25.235962	0.000212	20.726462
1490.383314	-2.997300	3.507400	-10.512000	25.221105	0.000211	20.750428
1491.384158	-2.980200	3.507000	-10.451000	25.249565	0.000212	20.749603
1492.384985	-3.012000	3.507700	-10.565000	25.214286	0.000209	20.739314
1493.384494	-2.988300	3.506900	-10.478000	25.206257	0.000209	20.728882
1494.388104	-2.998800	3.506600	-10.514000	25.213120	0.000209	20.740040
1495.392398	-3.001400	3.506800	-10.524000	25.229050	0.000207	20.744653
1496.385822	-3.002400	3.506800	-10.527000	25.218359	0.000208	20.744352
1497.387927	-2.997000	3.505900	-10.506000	25.222782	0.000207	20.727454
1498.386715	-3.013900	3.504500	-10.561000	25.220372	0.000209	20.729302
1499.386225	-3.008500	3.504700	-10.543000	25.234658	0.000207	20.755025
1500.390173	-2.977600	3.505800	-10.438000	25.236877	0.000207	20.739235
1501.387019	-2.991200	3.504200	-10.481000	25.196255	0.000205	20.741600
1502.386496	-2.999200	3.502800	-10.504000	25.225916	0.000205	20.732023
1503.386164	-3.016300	3.502400	-10.564000	25.221587	0.000205	20.727676
1504.386650	-2.994800	3.504200	-10.494000	25.239484	0.000206	20.753233
1505.391544	-3.004600	3.503900	-10.527000	25.214704	0.000206	20.743527
1506.386375	-2.998900	3.502300	-10.502000	25.202425	0.000203	20.734992
1507.386340	-3.028600	3.503200	-10.609000	25.215673	0.000206	20.728378
1508.386953	-3.002000	3.502700	-10.514000	25.217636	0.000204	20.743626
1509.387178	-3.002500	3.501400	-10.512000	25.231106	0.000203	20.732966
1510.390181	-2.991600	3.501700	-10.475000	25.199015	0.000201	20.735362
1511.388566	-3.000000	3.500700	-10.502000	25.210075	0.000205	20.733663
1512.388868	-3.010600	3.500400	-10.536000	25.223126	0.000203	20.723532
1513.388211	-3.024000	3.499100	-10.581000	25.215550	0.000201	20.724461
1514.387340	-3.011200	3.500300	-10.540000	25.236601	0.000203	20.740855
1515.389828	-3.001100	3.500000	-10.503000	25.221311	0.000203	20.730719
1516.387615	-3.011100	3.500100	-10.539000	25.212589	0.000201	20.724332
1517.388707	-3.028000	3.498800	-10.593000	25.219648	0.000201	20.736162
1518.389427	-3.015500	3.499000	-10.551000	25.198971	0.000199	20.715876
1519.389697	-2.985400	3.499100	-10.445000	25.223254	0.000199	20.706590
1520.389728	-3.028000	3.497700	-10.590000	25.216839	0.000201	20.733342
1521.390995	-3.000800	3.497700	-10.494000	25.214104	0.000199	20.730596
1522.389838	-3.015500	3.497000	-10.544000	25.232075	0.000198	20.734888
1523.389697	-2.990400	3.498000	-10.460000	25.228002	0.000196	20.714202
1524.389683	-2.991600	3.497300	-10.462000	25.214060	0.000196	20.706368
1525.389578	-2.989100	3.496900	-10.452000	25.224893	0.000197	20.720089
1526.391551	-2.966000	3.497200	-10.372000	25.233541	0.000197	20.702218
1527.390207	-2.990600	3.496400	-10.455000	25.224469	0.000196	20.747641
1528.390838	-2.966800	3.497700	-10.376000	25.217218	0.000198	20.719023
1529.390311	-2.987100	3.496700	-10.444000	25.247690	0.000195	20.715950
1530.390428	-3.007700	3.494900	-10.510000	25.230560	0.000193	20.715348
1531.394569	-2.999700	3.494900	-10.482000	25.251793	0.000196	20.739037
1532.390114	-2.988100	3.494500	-10.441000	25.240384	0.000195	20.711935
1533.390305	-3.008200	3.493700	-10.509000	25.247744	0.000195	20.714582
1534.391086	-3.000500	3.493600	-10.481000	25.247095	0.000193	20.712508
1535.390253	-3.015000	3.492000	-10.528000	25.246494	0.000193	20.715224
1536.392128	-3.026700	3.492600	-10.569000	25.236729	0.000192	20.726284
1537.392339	-3.012800	3.492100	-10.520000	25.232031	0.000193	20.711134
1538.391553	-3.008100	3.493200	-10.506000	25.249598	0.000193	20.727350
1539.394387	-3.004500	3.492000	-10.490000	25.230191	0.000194	20.742006
1540.393458	-2.990800	3.492200	-10.443000	25.252890	0.000192	20.718326
1541.392311	-3.022500	3.491500	-10.552000	25.229498	0.000189	20.712858
1542.395518	-3.017800	3.490300	-10.532000	25.247695	0.000189	20.730181
1543.394136	-2.977100	3.493500	-10.400000	25.253559	0.000188	20.715205
1544.394924	-2.986100	3.490800	-10.424000	25.230841	0.000190	20.719897
1545.397353	-2.984300	3.490800	-10.416000	25.257165	0.000189	20.740163
1546.395226	-3.008200	3.490300	-10.499000	25.226964	0.000188	20.727859
1547.400754	-3.021900	3.488700	-10.541000	25.242904	0.000187	20.728215
1548.395729	-2.996300	3.490300	-10.457000	25.237930	0.000187	20.718005
1549.394768	-3.008800	3.488500	-10.496000	25.245486	0.000186	20.731283
1550.396564	-3.008600	3.488900	-10.495000	25.236961	0.000188	20.725568
1551.396129	-3.006500	3.488400	-10.487000	25.241339	0.000187	20.725696
1552.395613	-2.971500	3.488700	-10.366000	25.238530	0.000186	20.709599
1553.400453	-3.004000	3.487400	-10.475000	25.228667	0.000185	20.721982
1554.396750	-3.013200	3.487300	-10.507000	25.224490	0.000183	20.732488
1555.397044	-3.000100	3.486700	-10.459000	25.246859	0.000185	20.719858
1556.395055	-3.002900	3.487200	-10.470000	25.242003	0.000187	20.730630
1557.397165	-2.994000	3.487800	-10.441000	25.224932	0.000183	20.728191
1558.398364	-3.013700	3.485300	-10.503000	25.226674	0.000184	20.725672
1559.397220	-3.028100	3.483600	-10.547000	25.229262	0.000183	20.719260
1560.396939	-3.011200	3.486700	-10.497000	25.234801	0.000182	20.740470
1561.396292	-2.959700	3.486500	-10.318000	25.245644	0.000183	20.722906
1562.396856	-2.986200	3.484800	-10.405000	25.214449	0.000181	20.728097
1563.398316	-2.979700	3.485100	-10.383000	25.244355	0.000184	20.736311
1564.397096	-3.005000	3.484800	-10.471000	25.239155	0.000182	20.720658
1565.397161	-3.001100	3.484500	-10.457000	25.268515	0.000180	20.703667
1566.396755	-2.988200	3.484100	-10.411000	25.255807	0.000185	20.723153
1567.398211	-3.021100	3.483300	-10.523000	25.258720	0.000180	20.728448
1568.400750	-2.991100	3.483300	-10.418000	25.257702	0.000182	20.689490
1569.400078	-3.002600	3.481200	-10.452000	25.252979	0.000180	20.727900
1570.400699	-3.010400	3.482400	-10.482000	25.262921	0.000182	20.726502
1571.402084	-2.984900	3.482800	-10.395000	25.257205	0.000181	20.721710
1572.401054	-3.030800	3.481800	-10.551000	25.236095	0.000179	20.726121
1573.403852	-2.981200	3.482400	-10.381000	25.234058	0.000180	20.721705
1574.405570	-2.996200	3.481200	-10.429000	25.245196	0.000178	20.720559
1575.401711	-3.017600	3.479700	-10.499000	25.256610	0.000179	20.746244
1576.403610	-3.004800	3.480300	-10.457000	25.258843	0.000178	20.717191
1577.401593	-2.988900	3.479800	-10.400000	25.258769	0.000174	20.711427
1578.403933	-3.014000	3.479900	-10.487000	25.248576	0.000178	20.717788
1579.405633	-2.996500	3.480600	-10.428000	25.260383	0.000177	20.718263
1580.403245	-3.020400	3.479200	-10.507000	25.249570	0.000176	20.742495
1581.401924	-3.003800	3.479200	-10.451000	25.242712	0.000177	20.730868
1582.401943	-2.970900	3.479400	-10.336000	25.246706	0.000176	20.723498
1583.405083	-2.999800	3.478600	-10.435000	25.262493	0.000175	20.726546
1584.402884	-3.008300	3.477800	-10.460000	25.249865	0.000176	20.729040
1585.402487	-2.997500	3.476500	-10.420000	25.242953	0.000173	20.727791
1586.403157	-2.970500	3.478400	-10.332000	25.249761	0.000175	20.729885
1587.403499	-2.986800	3.477200	-10.384000	25.254331	0.000177	20.748699
1588.403226	-2.995900	3.476600	-10.414000	25.253160	0.000174	20.742307
1589.402254	-3.004900	3.476000	-10.445000	25.247842	0.000175	20.708517
1590.405188	-2.989500	3.476400	-10.392000	25.248831	0.000172	20.729899
1591.403472	-2.985900	3.476300	-10.379000	25.242657	0.000177	20.740296
1592.406543	-3.023000	3.474500	-10.502000	25.248698	0.000174	20.726920
1593.403545	-2.986500	3.475200	-10.377000	25.247306	0.000172	20.751128
1594.404062	-2.982900	3.475300	-10.366000	25.262634	0.000173	20.715308
1595.407036	-3.013000	3.474100	-10.467000	25.257887	0.000171	20.726189
1596.403539	-3.010500	3.473200	-10.455000	25.261882	0.000172	20.741580
1597.403190	-3.021900	3.472800	-10.494000	25.265458	0.000171	20.744222
1598.403564	-3.014100	3.473300	-10.467000	25.262673	0.000170	20.749488
1599.404222	-2.984400	3.472900	-10.364000	25.260976	0.000170	20.720755
1600.403479	-3.010300	3.473400	-10.455000	25.234652	0.000170	20.732733
1601.404032	-3.002600	3.471600	-10.423000	25.258236	0.000170	20.736023
1602.403768	-2.989300	3.472200	-10.379000	25.241259	0.000168	20.733202
1603.404420	-2.991300	3.471800	-10.384000	25.272595	0.000168	20.751389
1604.406297	-3.020700	3.471500	-10.485000	25.254521	0.000168	20.740828
1605.406043	-3.005300	3.470700	-10.429000	25.269634	0.000169	20.751260
1606.405814	-3.007100	3.470500	-10.436000	25.279448	0.000168	20.761588
1607.405736	-3.007000	3.471400	-10.437000	25.255234	0.000166	20.742967
1608.406667	-2.989900	3.470300	-10.375000	25.259278	0.000166	20.749398
1609.406590	-2.992200	3.470000	-10.382000	25.257758	0.000166	20.733646
1610.408344	-3.008600	3.469500	-10.437000	25.243860	0.000167	20.750040
1611.406137	-3.013300	3.469300	-10.453000	25.287033	0.000166	20.757350
1612.406705	-2.983200	3.470100	-10.351000	25.255165	0.000165	20.762338
1613.409799	-3.015200	3.467900	-10.455000	25.264630	0.000165	20.751452
1614.407742	-3.001900	3.468200	-10.410000	25.269023	0.000165	20.760604
1615.410410	-3.020200	3.467100	-10.470000	25.278468	0.000165	20.762027
1616.407158	-3.013900	3.467300	-10.450000	25.284149	0.000164	20.766309
1617.407675	-3.007200	3.466500	-10.423000	25.262671	0.000164	20.750908
1618.408364	-3.030500	3.465900	-10.502000	25.287352	0.000164	20.751506
1619.407875	-3.016900	3.466500	-10.457000	25.270965	0.000162	20.765874
1620.407916	-2.993500	3.467900	-10.381000	25.272776	0.000162	20.784287
1621.409074	-2.979800	3.466200	-10.328000	25.291336	0.000161	20.763093
1622.408253	-3.002000	3.466600	-10.406000	25.271251	0.000163	20.786549
1623.409630	-3.008700	3.464800	-10.424000	25.270331	0.000163	20.779462
1624.409775	-2.992600	3.465000	-10.369000	25.273361	0.000161	20.757373
1625.410374	-2.998100	3.465100	-10.388000	25.279820	0.000159	20.744418
1626.411233	-2.981200	3.464600	-10.328000	25.281084	0.000160	20.769870
1627.410110	-2.991400	3.464300	-10.362000	25.294701	0.000160	20.775955
1628.409685	-2.988800	3.463600	-10.351000	25.282368	0.000160	20.758830
1629.408800	-3.002200	3.463700	-10.398000	25.286545	0.000158	20.756385
1630.409519	-2.980000	3.463700	-10.321000	25.290524	0.000158	20.763700
1631.410141	-2.982400	3.463600	-10.329000	25.288030	0.000158	20.778266
1632.411406	-3.012800	3.462200	-10.430000	25.290667	0.000160	20.775698
1633.409735	-3.013400	3.462400	-10.433000	25.298789	0.000157	20.778636
1634.409145	-2.994200	3.462700	-10.367000	25.298370	0.000158	20.764466
1635.408997	-2.991500	3.461700	-10.355000	25.296201	0.000156	20.768452
1636.413140	-2.996200	3.462000	-10.372000	25.296078	0.000158	20.776863
1637.413278	-2.985300	3.461300	-10.332000	25.309473	0.000156	20.782252
1638.411986	-2.982500	3.460800	-10.320000	25.323439	0.000155	20.772092
1639.415442	-3.010400	3.459600	-10.414000	25.336410	0.000156	20.768047
1640.411778	-3.003100	3.460700	-10.392000	25.312124	0.000154	20.768318
1641.411870	-2.982900	3.461900	-10.326000	25.298356	0.000153	20.785314
1642.413260	-3.010100	3.459500	-10.413000	25.285797	0.000154	20.786929
1643.412739	-2.971400	3.460400	-10.282000	25.295911	0.000154	20.789497
1644.411507	-2.970800	3.460000	-10.278000	25.320364	0.000154	20.758573
1645.411934	-3.002000	3.458700	-10.383000	25.296550	0.000153	20.788717
1646.410624	-3.008100	3.457400	-10.399000	25.303899	0.000154	20.776181
1647.416176	-3.014300	3.456600	-10.418000	25.314112	0.000154	20.785961
1648.412426	-2.992500	3.458700	-10.350000	25.337173	0.000153	20.784934
1649.412980	-2.995700	3.456700	-10.354000	25.319798	0.000151	20.767963
1650.417176	-3.015300	3.455700	-10.419000	25.319867	0.000151	20.788895
1651.411640	-2.997000	3.457800	-10.362000	25.338998	0.000151	20.786292
1652.412927	-3.023100	3.455700	-10.446000	25.324708	0.000151	20.793755
1653.416132	-3.019800	3.455500	-10.434000	25.345505	0.000149	20.782869
1654.413746	-3.012200	3.455900	-10.409000	25.320871	0.000150	20.791799
1655.412746	-2.989000	3.455800	-10.328000	25.328820	0.000150	20.803574
1656.415123	-3.001400	3.455000	-10.368000	25.316483	0.000150	20.801618
1657.415062	-2.991100	3.454300	-10.331000	25.330276	0.000149	20.788915
1658.415042	-2.996600	3.454600	-10.351000	25.338550	0.000149	20.796748
1659.414921	-2.999800	3.453300	-10.358000	25.323006	0.000149	20.793469
1660.417948	-3.002300	3.453500	-10.367000	25.337837	0.000148	20.796506
1661.416121	-3.019700	3.453600	-10.428000	25.342087	0.000149	20.791290
1662.416281	-3.018800	3.451200	-10.417000	25.322425	0.000147	20.795731
1663.417007	-3.010100	3.452500	-10.391000	25.313217	0.000147	20.820150
1664.416999	-2.998500	3.452500	-10.352000	25.315750	0.000147	20.793770
1665.420473	-3.009700	3.451100	-10.385000	25.342289	0.000146	20.797183
1666.421696	-2.969500	3.451600	-10.248000	25.322829	0.000144	20.809886
1667.417904	-2.983100	3.451900	-10.297000	25.331870	0.000146	20.800473
1668.423923	-2.983300	3.451100	-10.295000	25.342879	0.000143	20.793034
1669.419103	-3.004800	3.450200	-10.367000	25.330744	0.000144	20.797445
1670.417894	-3.030500	3.449600	-10.453000	25.332854	0.000142	20.808099
1671.418530	-2.976900	3.451400	-10.274000	25.334571	0.000145	20.819305
1672.421264	-2.988500	3.450900	-10.313000	25.330439	0.000142	20.802355
1673.418594	-2.987500	3.450800	-10.308000	25.346815	0.000142	20.803150
1674.418521	-2.997300	3.449600	-10.339000	25.340553	0.000142	20.821992
1675.420447	-3.013500	3.448900	-10.393000	25.347208	0.000141	20.806390
1676.419378	-3.007100	3.448200	-10.368000	25.336667	0.000140	20.786797
1677.419673	-3.009700	3.448200	-10.377000	25.344100	0.000141	20.809907
1678.420873	-2.988800	3.447300	-10.302000	25.347076	0.000141	20.799619
1679.419154	-3.022400	3.446700	-10.417000	25.362531	0.000139	20.825568
1680.419536	-3.009000	3.446600	-10.370000	25.343298	0.000139	20.815740
1681.422330	-2.981900	3.446700	-10.277000	25.356142	0.000140	20.828161
1682.421295	-2.979400	3.446000	-10.266000	25.357509	0.000140	20.798715
1683.421948	-2.969800	3.446400	-10.234000	25.354799	0.000138	20.823020
1684.420998	-3.006300	3.445500	-10.357000	25.358945	0.000140	20.819123
1685.421209	-2.983000	3.446400	-10.279000	25.344026	0.000136	20.816945
1686.421342	-3.009100	3.445200	-10.365000	25.367465	0.000139	20.801600
1687.420755	-2.989300	3.445400	-10.299000	25.365350	0.000140	20.829347
1688.423427	-3.009300	3.444500	-10.364000	25.370220	0.000139	20.814797
1689.424072	-3.005100	3.444300	-10.349000	25.347701	0.000137	20.830118
1690.422105	-3.006900	3.443800	-10.354000	25.374140	0.000135	20.815414
1691.423919	-2.998200	3.443600	-10.324000	25.350928	0.000137	20.825771
1692.422079	-3.021000	3.441900	-10.397000	25.334115	0.000136	20.822166
1693.421556	-3.007500	3.442800	-10.352000	25.350146	0.000135	20.836840
1694.424203	-3.011500	3.442600	-10.366000	25.363211	0.000135	20.849010
1695.427138	-2.993600	3.442700	-10.305000	25.370540	0.000137	20.827446
1696.422177	-2.992200	3.442300	-10.300000	25.365740	0.000136	20.827842
1697.422266	-2.984800	3.441700	-10.272000	25.367348	0.000134	20.828034
1698.426746	-3.014700	3.441200	-10.373000	25.346940	0.000134	20.826983
1699.423997	-2.999500	3.440100	-10.317000	25.365322	0.000133	20.859189
1700.422599	-2.997700	3.441600	-10.316000	25.369794	0.000137	20.837602
1701.422701	-2.998400	3.439200	-10.311000	25.377172	0.000133	20.834105
1702.424026	-2.989400	3.439600	-10.282000	25.372868	0.000134	20.831680
1703.422928	-2.976100	3.440800	-10.240000	25.388171	0.000135	20.832347
1704.423759	-3.005500	3.437900	-10.332000	25.362795	0.000133	20.856177
1705.424726	-2.983400	3.438100	-10.257000	25.391196	0.000133	20.833962
1706.423228	-2.975300	3.438600	-10.230000	25.376381	0.000133	20.838052
1707.422740	-2.977400	3.439700	-10.239000	25.402097	0.000131	20.840166
1708.425659	-2.979900	3.438600	-10.246000	25.376618	0.000131	20.850143
1709.426265	-3.029200	3.436700	-10.409000	25.381660	0.000130	20.857102
1710.431130	-3.019600	3.436200	-10.375000	25.394754	0.000131	20.855551
1711.433163	-3.017200	3.436500	-10.368000	25.407445	0.000129	20.850751
1712.429103	-3.000800	3.436600	-10.312000	25.363327	0.000131	20.876626
1713.426838	-3.006000	3.434800	-10.324000	25.383254	0.000128	20.848746
1714.426665	-2.991100	3.435800	-10.275000	25.387972	0.000129	20.868655
1715.430917	-3.021500	3.434400	-10.376000	25.399624	0.000131	20.842425
1716.428841	-3.004700	3.435700	-10.323000	25.390845	0.000130	20.861109
1717.427436	-2.989200	3.435400	-10.268000	25.397476	0.000130	20.863026
1718.429966	-2.993300	3.434100	-10.278000	25.399680	0.000130	20.824937
1719.426767	-2.964200	3.435600	-10.183000	25.403305	0.000127	20.847069
1720.427707	-2.980000	3.436100	-10.238000	25.398874	0.000130	20.853524
1721.430177	-3.010900	3.433300	-10.337000	25.392184	0.000124	20.861980
1722.426338	-2.995100	3.432700	-10.281000	25.406986	0.000128	20.868781
1723.428752	-2.988500	3.432700	-10.257000	25.415062	0.000127	20.857926
1724.428407	-2.969800	3.433400	-10.196000	25.400090	0.000126	20.860909
1725.441092	-2.995400	3.433000	-10.282000	25.412658	0.000126	20.879692
1726.433847	-3.001600	3.431000	-10.298000	25.428910	0.000123	20.867089
1727.428202	-3.030300	3.430300	-10.393000	25.428231	0.000124	20.873519
1728.429167	-2.995400	3.431800	-10.278000	25.415354	0.000126	20.874814
1729.432150	-3.017400	3.430600	-10.350000	25.418380	0.000123	20.878800
1730.427971	-3.024700	3.430000	-10.374000	25.407289	0.000123	20.856758
1731.428805	-3.007100	3.430800	-10.316000	25.409497	0.000124	20.864191
1732.433688	-3.005900	3.430200	-10.310000	25.412498	0.000121	20.872420
1733.428330	-2.982200	3.430300	-10.228000	25.419901	0.000121	20.865155
1734.429105	-3.021000	3.428700	-10.357000	25.434391	0.000122	20.874015
1735.429260	-2.969500	3.429300	-10.183000	25.422725	0.000122	20.884585
1736.428611	-3.005800	3.428300	-10.304000	25.422027	0.000120	20.874401
1737.431950	-2.994600	3.427700	-10.264000	25.416656	0.000120	20.887973
1738.428439	-2.962200	3.428200	-10.154000	25.416454	0.000119	20.891564
1739.429971	-3.004600	3.426600	-10.294000	25.433552	0.000120	20.892137
1740.430095	-3.009800	3.426900	-10.313000	25.396967	0.000118	20.860144
1741.430662	-2.995600	3.425600	-10.261000	25.443414	0.000118	20.886868
1742.432882	-3.005300	3.426300	-10.296000	25.417911	0.000116	20.895397
1743.433498	-3.005000	3.425000	-10.291000	25.442017	0.000119	20.875983
1744.430531	-2.995900	3.425500	-10.260000	25.444624	0.000118	20.871015
1745.431652	-2.981500	3.426400	-10.214000	25.427055	0.000115	20.882295
1746.431172	-2.981800	3.426300	-10.215000	25.416662	0.000115	20.910263
1747.432352	-3.026800	3.423400	-10.360000	25.420086	0.000116	20.879565
1748.430472	-3.003400	3.424100	-10.284000	25.422172	0.000116	20.896831
1749.433624	-3.000400	3.423600	-10.271000	25.446898	0.000114	20.891788
1750.432556	-2.997200	3.423800	-10.261000	25.436087	0.000115	20.901320
1751.430323	-3.016000	3.422500	-10.321000	25.434916	0.000114	20.908679
1752.430338	-3.016400	3.423400	-10.325000	25.430092	0.000115	20.898145
1753.431838	-3.030400	3.421500	-10.367000	25.457228	0.000111	20.903583
1754.430318	-3.003100	3.421700	-10.275000	25.435355	0.000113	20.921446
1755.430693	-2.978900	3.421900	-10.192000	25.456579	0.000113	20.899138
1756.431374	-3.010000	3.421000	-10.297000	25.449098	0.000111	20.915332
1757.431089	-2.988100	3.421500	-10.223000	25.446811	0.000111	20.892649
1758.435427	-2.987900	3.421200	-10.221000	25.458689	0.000112	20.887982
1759.433358	-3.002300	3.421600	-10.272000	25.438931	0.000111	20.877625
1760.432170	-2.977700	3.421900	-10.188000	25.452448	0.000109	20.925333
1761.432498	-2.987300	3.420200	-10.216000	25.444224	0.000108	20.880095
1762.434546	-2.962700	3.421000	-10.134000	25.475240	0.000109	20.886110
1763.437671	-2.979700	3.419700	-10.189000	25.467709	0.000110	20.896565
1764.433402	-3.015900	3.418600	-10.309000	25.492985	0.000108	20.905825
1765.434923	-2.999400	3.419100	-10.254000	25.469446	0.000107	20.894516
1766.436387	-2.987700	3.418500	-10.212000	25.457494	0.000109	20.916177
1767.435735	-3.012500	3.419200	-10.300000	25.464474	0.000107	20.912280
1768.439945	-3.013800	3.417900	-10.300000	25.471113	0.000107	20.895716
1769.436522	-3.004200	3.418000	-10.267000	25.480803	0.000104	20.902601
1770.436903	-2.983500	3.418200	-10.197000	25.468231	0.000105	20.898037
1771.438455	-3.003100	3.417100	-10.261000	25.474118	0.000106	20.905371
1772.437356	-3.020400	3.417100	-10.319000	25.473922	0.000105	20.919397
1773.436652	-2.999800	3.416000	-10.246000	25.465167	0.000103	20.911081
1774.437234	-3.022200	3.415900	-10.323000	25.475141	0.000104	20.928207
1775.436685	-3.013700	3.415000	-10.290000	25.490152	0.000102	20.923367
1776.436234	-2.998800	3.415800	-10.242000	25.477153	0.000101	20.900358
1777.437395	-2.993100	3.416300	-10.224000	25.474394	0.000101	20.902803
1778.436131	-3.004800	3.414500	-10.259000	25.463332	0.000103	20.922987
1779.440983	-2.986700	3.415000	-10.199000	25.493133	0.000103	20.899810
1780.437904	-2.999800	3.414600	-10.242000	25.506599	0.000103	20.928503
1781.438252	-3.007100	3.413900	-10.264000	25.492242	0.000100	20.908872
1782.438973	-2.984800	3.414000	-10.189000	25.481530	0.000103	20.884366
1783.439399	-3.002200	3.412300	-10.242000	25.491868	9.943022E-5	20.891429
1784.441926	-3.013900	3.412400	-10.283000	25.491199	0.000101	20.904506
1785.440897	-3.009400	3.412200	-10.268000	25.478972	0.000100	20.906452
1786.440648	-2.987000	3.412700	-10.193000	25.469903	0.000100	20.896871
1787.443548	-3.009800	3.411300	-10.267000	25.486006	9.919925E-5	20.903084
1788.439943	-3.002700	3.411800	-10.243000	25.487402	9.824240E-5	20.907805
1789.440149	-3.026700	3.411600	-10.325000	25.487500	9.636169E-5	20.899844
1790.443470	-3.019700	3.410300	-10.296000	25.474452	9.682362E-5	20.890060
1791.441177	-3.000700	3.410300	-10.232000	25.503932	9.636169E-5	20.896905
1792.443860	-3.014000	3.410500	-10.278000	25.482656	9.599874E-5	20.901142
1793.440596	-2.987100	3.411100	-10.188000	25.536634	9.533885E-5	20.882805
1794.443370	-2.996500	3.410000	-10.217000	25.487608	9.626270E-5	20.906115
1795.442998	-3.028000	3.408600	-10.320000	25.501128	9.457996E-5	20.888400
1796.441386	-3.005700	3.408100	-10.243000	25.498448	9.517387E-5	20.892820
1797.439888	-2.998700	3.408100	-10.218000	25.506470	9.576778E-5	20.882385
1798.444254	-3.007900	3.408700	-10.252000	25.486865	9.349113E-5	20.875026
1799.441014	-2.981800	3.409200	-10.165000	25.487091	9.203935E-5	20.886157
1800.441818	-3.010600	3.407100	-10.257000	25.503720	9.233631E-5	20.865874
1801.446622	-3.014800	3.406700	-10.270000	25.507300	9.514088E-5	20.880848
1802.447983	-3.026000	3.406600	-10.306000	25.490352	9.316118E-5	20.872837
1803.443416	-2.993700	3.407400	-10.199000	25.501236	9.260027E-5	20.866698
1804.442730	-2.963000	3.407100	-10.093000	25.511082	9.286423E-5	20.875637
1805.443470	-2.992100	3.406700	-10.192000	25.517323	9.263326E-5	20.893757
1806.444611	-2.995200	3.405200	-10.199000	25.504845	9.230331E-5	20.890236
1807.444430	-2.982000	3.405500	-10.154000	25.511160	9.283123E-5	20.876664
1808.463218	-2.990000	3.404900	-10.180000	25.499036	8.992768E-5	20.856904
1809.442994	-3.035700	3.404100	-10.333000	25.512684	9.035661E-5	20.864919
1810.445843	-3.007400	3.405200	-10.240000	25.490965	8.906981E-5	20.862548
1811.444741	-2.999500	3.405100	-10.212000	25.510324	9.032362E-5	20.838842
1812.445382	-2.992100	3.403700	-10.183000	25.517357	9.260027E-5	20.862025
1813.444052	-3.005400	3.402300	-10.223000	25.497457	8.817895E-5	20.865748
1814.445766	-2.985600	3.403300	-10.160000	25.513490	8.969671E-5	20.861461
1815.443562	-3.003000	3.402300	-10.216000	25.512866	8.890484E-5	20.866049
1816.446134	-2.971400	3.402800	-10.110000	25.505340	8.893783E-5	20.862760
1817.445803	-3.024600	3.401600	-10.287000	25.518359	8.794798E-5	20.854497
1818.446097	-3.001200	3.401900	-10.209000	25.504150	8.659519E-5	20.848289
1819.444848	-2.990400	3.401400	-10.170000	25.523159	8.732108E-5	20.865955
1820.445766	-3.007700	3.400900	-10.228000	25.534072	8.610027E-5	20.870276
1821.445703	-2.982400	3.401300	-10.143000	25.521993	8.758504E-5	20.859095
1822.448127	-2.989600	3.400500	-10.165000	25.523788	8.369164E-5	20.859475
1823.448924	-2.983800	3.400400	-10.144000	25.531441	8.610027E-5	20.850565
1824.449389	-2.986500	3.400900	-10.156000	25.500107	8.474748E-5	20.849444
1825.450586	-2.997000	3.400000	-10.189000	25.523518	8.382362E-5	20.862048
1826.449646	-2.992300	3.398800	-10.170000	25.530206	8.385661E-5	20.846006
1827.451699	-3.012900	3.398900	-10.240000	25.506721	8.382362E-5	20.870310
1828.451079	-3.017300	3.397600	-10.250000	25.534554	8.280078E-5	20.848476
1829.450738	-3.021600	3.397700	-10.265000	25.536919	8.316372E-5	20.845161
1830.451666	-3.017400	3.396900	-10.249000	25.525641	8.085408E-5	20.836207
1831.450425	-3.023700	3.397100	-10.270000	25.526906	8.059012E-5	20.848381
1832.454620	-2.994100	3.397700	-10.172000	25.516022	8.187692E-5	20.849779
1833.451615	-3.007200	3.397800	-10.217000	25.510114	8.039215E-5	20.845269
1834.451827	-3.008500	3.396900	-10.218000	25.524480	8.240484E-5	20.855903
1835.454275	-3.000500	3.397300	-10.192000	25.532527	8.111804E-5	20.822733
1836.453218	-2.975700	3.396400	-10.105000	25.524362	8.092007E-5	20.831129
1837.451907	-3.008600	3.395600	-10.215000	25.533982	7.894037E-5	20.859280
1838.453644	-3.007900	3.394900	-10.210000	25.523545	7.966626E-5	20.836946
1839.453618	-3.009900	3.394600	-10.216000	25.536642	7.851144E-5	20.843461
1840.454113	-3.016800	3.395100	-10.241000	25.513236	7.659773E-5	20.835129
1841.454355	-3.008700	3.393200	-10.208000	25.547678	7.867641E-5	20.862130
1842.453716	-2.995400	3.394200	-10.166000	25.540945	7.821448E-5	20.840196
1843.458476	-3.012300	3.392900	-10.220000	25.535112	7.620179E-5	20.838605
1844.454180	-2.994500	3.392800	-10.158000	25.529372	7.672971E-5	20.838057
1845.456547	-3.008500	3.391600	-10.203000	25.536336	7.567387E-5	20.845998
1846.456164	-3.006100	3.392400	-10.197000	25.534128	7.507996E-5	20.853263
1847.456638	-2.998800	3.392800	-10.173000	25.543128	7.435408E-5	20.825319
1848.462651	-2.988400	3.393300	-10.140000	25.540295	7.428809E-5	20.824370
1849.457623	-2.971600	3.392200	-10.079000	25.534781	7.428809E-5	20.833532
1850.456222	-3.025200	3.390600	-10.256000	25.521138	7.590484E-5	20.845435
1851.456923	-3.006000	3.392000	-10.195000	25.530085	7.517895E-5	20.843988
1852.457241	-2.979000	3.390400	-10.099000	25.517017	7.224240E-5	20.840347
1853.458562	-2.989000	3.391300	-10.136000	25.497417	7.521194E-5	20.813079
1854.458390	-3.005100	3.389700	-10.186000	25.540683	7.194545E-5	20.833294
1855.460378	-3.005700	3.388700	-10.184000	25.531490	7.230839E-5	20.811261
1856.460645	-3.008900	3.390300	-10.200000	25.529774	7.171448E-5	20.843202
1857.461872	-2.982100	3.389900	-10.108000	25.539094	7.184646E-5	20.823638
1858.458375	-2.988300	3.389100	-10.127000	25.537013	7.013073E-5	20.812540
1859.461468	-3.007900	3.388500	-10.192000	25.533880	7.009773E-5	20.799437
1860.459453	-2.992200	3.388000	-10.135000	25.548295	7.234139E-5	20.814861
1861.460561	-2.996000	3.387600	-10.148000	25.533487	7.022971E-5	20.824171
1862.459404	-2.975900	3.388100	-10.081000	25.560772	7.019672E-5	20.820753
1863.464168	-3.013700	3.387100	-10.207000	25.540224	7.211042E-5	20.805808
1864.463382	-2.983400	3.387000	-10.104000	25.552003	7.148352E-5	20.804835
1865.461128	-2.995800	3.386600	-10.145000	25.563487	6.838200E-5	20.832014
1866.460948	-3.015400	3.385700	-10.208000	25.566152	6.963580E-5	20.820940
1867.463330	-2.995700	3.386200	-10.142000	25.555588	6.907489E-5	20.811280
1868.460642	-2.994200	3.386400	-10.139000	25.564563	6.851397E-5	20.798483
1869.462852	-2.996700	3.384900	-10.142000	25.560339	6.683123E-5	20.812258
1870.465463	-2.992400	3.385000	-10.129000	25.565680	6.867895E-5	20.803397
1871.461623	-3.021900	3.384800	-10.227000	25.538920	6.801905E-5	20.824412
1872.463642	-3.023100	3.383200	-10.226000	25.564539	6.805205E-5	20.807941
1873.462055	-3.000000	3.383500	-10.150000	25.553355	6.564342E-5	20.824684
1874.464931	-3.005800	3.384600	-10.173000	25.537307	6.518149E-5	20.811413
1875.465698	-2.991800	3.383400	-10.122000	25.571773	6.577540E-5	20.807146
1876.467778	-2.996300	3.383100	-10.135000	25.562635	6.646829E-5	20.818831
1877.462972	-3.009600	3.383000	-10.180000	25.579233	6.518149E-5	20.804206
1878.463400	-3.004300	3.382400	-10.160000	25.550183	6.630331E-5	20.792575
1879.468325	-2.978100	3.384100	-10.077000	25.553443	6.326778E-5	20.810074
1880.467649	-3.003000	3.381400	-10.153000	25.549440	6.402667E-5	20.814588
1881.462888	-2.998100	3.381700	-10.137000	25.556497	6.300382E-5	20.802236
1882.464121	-3.026800	3.380200	-10.231000	25.554186	6.052920E-5	20.797069
1883.465598	-2.990500	3.380900	-10.109000	25.566811	6.481854E-5	20.788885
1884.462625	-3.001800	3.381000	-10.147000	25.561597	6.033123E-5	20.815418
1885.465913	-3.028400	3.378800	-10.231000	25.568999	6.293783E-5	20.774962
1886.467002	-3.006800	3.380500	-10.164000	25.584481	6.333377E-5	20.795252
1887.464508	-3.007600	3.379500	-10.164000	25.587839	6.118910E-5	20.776340
1888.463779	-2.984400	3.380300	-10.087000	25.587589	5.831854E-5	20.801218
1889.465793	-3.006200	3.379500	-10.158000	25.587387	5.861550E-5	20.802438
1890.465608	-3.011600	3.378500	-10.174000	25.601083	6.039722E-5	20.793434
1891.469334	-3.001100	3.378400	-10.138000	25.574689	5.937438E-5	20.815764
1892.465525	-2.982800	3.379800	-10.081000	25.602077	5.802159E-5	20.809605
1893.465505	-2.997200	3.378400	-10.125000	25.604762	5.683377E-5	20.788119
1894.469579	-3.002100	3.377500	-10.138000	25.592959	6.016626E-5	20.817043
1895.466282	-3.009300	3.377700	-10.163000	25.615419	5.693276E-5	20.797874
1896.466697	-3.009600	3.377000	-10.162000	25.599318	5.765864E-5	20.798773
1897.471483	-3.003600	3.376600	-10.140000	25.597754	5.620687E-5	20.803366
1898.470472	-2.998200	3.377900	-10.127000	25.599790	5.574494E-5	20.786445
1899.466000	-2.963400	3.377100	-10.006000	25.595915	5.459012E-5	20.803890
1900.466262	-3.018400	3.375200	-10.187000	25.590151	5.284139E-5	20.790989
1901.476775	-3.005000	3.375400	-10.142000	25.595639	5.607489E-5	20.781328
1902.472152	-3.006300	3.376000	-10.148000	25.604580	5.534900E-5	20.796472
1903.469350	-3.023300	3.375400	-10.204000	25.587338	5.369925E-5	20.787690
1904.468703	-3.012600	3.375000	-10.167000	25.594272	5.482108E-5	20.784223
1905.469635	-3.022000	3.373800	-10.195000	25.594744	5.211550E-5	20.798921
1906.482860	-3.029400	3.373700	-10.219000	25.609523	5.336930E-5	20.787685
1907.471380	-3.015400	3.373300	-10.170000	25.614642	5.109265E-5	20.775283
1908.476855	-2.996200	3.375000	-10.111000	25.579263	5.010281E-5	20.799494
1909.468456	-2.988700	3.373700	-10.082000	25.592581	5.264342E-5	20.811447
1910.475707	-3.005000	3.372900	-10.134000	25.592679	5.030078E-5	20.771717
1911.468977	-3.000300	3.371800	-10.115000	25.596136	5.148859E-5	20.781353
1912.468975	-3.012200	3.372300	-10.157000	25.616108	5.109265E-5	20.777703
1913.470263	-2.990300	3.371600	-10.081000	25.603990	5.257743E-5	20.792560
1914.469262	-3.032300	3.371400	-10.221000	25.611141	4.947590E-5	20.769395
1915.477950	-3.007700	3.371600	-10.140000	25.619717	4.792514E-5	20.787966
1916.470344	-3.010800	3.369500	-10.144000	25.639073	4.743022E-5	20.795079
1917.471619	-3.032500	3.369400	-10.217000	25.630920	4.832108E-5	20.773613
1918.474143	-3.009400	3.369100	-10.138000	25.632710	4.554951E-5	20.795326
1919.478527	-3.004700	3.370300	-10.126000	25.634352	4.868402E-5	20.797450
1920.472647	-2.998300	3.369300	-10.101000	25.645658	4.782616E-5	20.803589
1921.474506	-3.005800	3.367700	-10.122000	25.652386	4.673732E-5	20.805130
1922.481456	-3.014300	3.368500	-10.152000	25.648314	4.535154E-5	20.790609
1923.473363	-3.010200	3.367900	-10.137000	25.648363	4.422971E-5	20.779279
1924.472361	-2.978800	3.368900	-10.035000	25.626277	4.238199E-5	20.767054
1925.469512	-3.015500	3.367400	-10.154000	25.651948	4.333885E-5	20.775292
1926.469769	-3.007900	3.367400	-10.127000	25.648540	4.446067E-5	20.791310
1927.468920	-2.987700	3.366900	-10.059000	25.642953	4.353682E-5	20.789018
1928.477555	-3.029700	3.366000	-10.196000	25.634254	4.455966E-5	20.783600
1929.480585	-2.956100	3.366900	-9.951700	25.653212	4.175509E-5	20.777984
1930.470393	-2.990500	3.367100	-10.068000	25.633088	4.060027E-5	20.790016
1931.472259	-2.986500	3.366300	-10.052000	25.637460	4.347083E-5	20.774018
1932.472239	-2.976700	3.366300	-10.019000	25.639747	4.086423E-5	20.749287
1933.470657	-2.993100	3.365200	-10.071000	25.649287	4.231600E-5	20.783052
1934.472225	-2.998100	3.364600	-10.086000	25.627625	4.185407E-5	20.757501
1935.471436	-2.968000	3.366200	-9.990100	25.659772	4.116118E-5	20.758968
1936.471616	-3.000300	3.364700	-10.094000	25.640047	4.076524E-5	20.772349
1937.473218	-2.999800	3.364300	-10.092000	25.653664	4.003935E-5	20.775594
1938.473933	-3.009400	3.363900	-10.121000	25.654653	3.726778E-5	20.770897
1939.470786	-2.988600	3.363600	-10.052000	25.660146	3.895052E-5	20.766456
1940.474541	-2.982300	3.364200	-10.032000	25.658331	3.957742E-5	20.769375
1941.471905	-2.994700	3.363300	-10.071000	25.646632	3.657489E-5	20.769953
1942.472824	-3.002500	3.361900	-10.093000	25.652970	3.650890E-5	20.782009
1943.473538	-3.003400	3.361300	-10.094000	25.652297	3.522209E-5	20.770901
1944.471684	-3.010400	3.362300	-10.121000	25.652125	3.706981E-5	20.767883
1945.479084	-2.991100	3.361300	-10.053000	25.674510	3.677285E-5	20.764762
1946.472029	-2.996500	3.361500	-10.071000	25.669169	3.634392E-5	20.755604
1947.475735	-3.012400	3.361300	-10.125000	25.660868	3.512311E-5	20.784726
1948.476245	-2.998400	3.362100	-10.080000	25.657441	3.443021E-5	20.748092
1949.472654	-2.992800	3.360800	-10.057000	25.681217	3.443021E-5	20.771499
1950.481814	-2.978300	3.361300	-10.009000	25.696874	3.601397E-5	20.768259
1951.474987	-3.006400	3.359900	-10.100000	25.693894	3.413326E-5	20.760524
1952.473366	-2.988300	3.358400	-10.035000	25.687851	3.251651E-5	20.782429
1953.482872	-2.983200	3.360700	-10.025000	25.667605	3.195559E-5	20.775371
1954.475126	-2.997600	3.360000	-10.071000	25.659727	3.050382E-5	20.758924
1955.476119	-3.017800	3.357900	-10.132000	25.668549	3.116372E-5	20.782009
1956.474366	-3.001400	3.357400	-10.076000	25.678832	2.997590E-5	20.782854
1957.473713	-3.002300	3.357800	-10.080000	25.679958	3.023986E-5	20.769286
1958.474304	-2.982800	3.357200	-10.013000	25.682392	3.185661E-5	20.779317
1959.475000	-3.012100	3.355900	-10.107000	25.682540	3.212057E-5	20.752912
1960.472460	-3.002700	3.356600	-10.079000	25.684359	3.212057E-5	20.760904
1961.487239	-2.989400	3.357000	-10.034000	25.676653	3.043783E-5	20.752216
1962.474872	-3.003200	3.357700	-10.083000	25.696185	2.925001E-5	20.757135
1963.476892	-3.016300	3.355800	-10.121000	25.707068	2.859011E-5	20.750996
1964.474582	-2.995300	3.355800	-10.051000	25.681703	2.829316E-5	20.770091
1965.476681	-3.030200	3.354300	-10.163000	25.687717	2.859011E-5	20.750052
1966.475390	-2.998200	3.355600	-10.060000	25.704688	2.571955E-5	20.769943
1967.483086	-2.984600	3.355600	-10.014000	25.677184	2.522463E-5	20.751801
1968.483667	-3.005500	3.353700	-10.079000	25.699647	2.736930E-5	20.758716
1969.476036	-2.992300	3.353100	-10.033000	25.716243	2.469671E-5	20.742668
1970.477324	-3.005500	3.353500	-10.078000	25.709364	2.604950E-5	20.743819
1971.475848	-3.001600	3.354000	-10.067000	25.711281	2.459772E-5	20.775617
1972.476546	-3.013100	3.352800	-10.101000	25.698560	2.340991E-5	20.761891
1973.484890	-2.998000	3.352600	-10.050000	25.700551	2.235407E-5	20.730699
1974.482296	-2.988200	3.352200	-10.016000	25.695113	2.397082E-5	20.765541
1975.475214	-2.984700	3.353000	-10.007000	25.699932	2.166118E-5	20.757579
1976.478374	-3.010300	3.351600	-10.089000	25.693500	2.496067E-5	20.747799
1977.476130	-3.022100	3.350700	-10.125000	25.696185	2.344290E-5	20.750970
1978.483223	-3.001100	3.350700	-10.055000	25.709280	2.185915E-5	20.761278
1979.484373	-3.047400	3.349900	-10.208000	25.712609	2.162818E-5	20.754665
1980.479667	-3.018500	3.350700	-10.113000	25.722301	2.265102E-5	20.754916
1981.478119	-3.025700	3.348200	-10.130000	25.711689	2.182615E-5	20.764173
1982.485215	-2.989400	3.350500	-10.015000	25.706152	2.301397E-5	20.743437
1983.481998	-3.004200	3.350700	-10.064000	25.703320	1.879062E-5	20.736325
1984.484182	-2.982000	3.350600	-9.990300	25.752542	2.027539E-5	20.752575
1985.493399	-3.018300	3.348300	-10.105000	25.711944	2.103427E-5	20.746411
1986.481382	-3.012400	3.347200	-10.081000	25.711423	1.991244E-5	20.751103
1987.477140	-2.982100	3.348500	-9.984400	25.744517	1.935153E-5	20.741669
1988.485260	-3.009600	3.348700	-10.077000	25.728442	1.806473E-5	20.732635
1989.478743	-3.023000	3.347100	-10.117000	25.737888	1.714087E-5	20.747339
1990.476311	-2.984500	3.348100	-9.990300	25.735031	1.760280E-5	20.756324
1991.478599	-3.018100	3.346300	-10.098000	25.721292	1.618402E-5	20.733514
1992.480934	-3.009000	3.347900	-10.073000	25.761869	1.832869E-5	20.731123
1993.482615	-3.010700	3.346400	-10.074000	25.745765	1.687691E-5	20.734388
1994.480092	-3.015600	3.345100	-10.087000	25.744374	1.496320E-5	20.741526
1995.479816	-3.016300	3.346700	-10.093000	25.745672	1.446828E-5	20.742829
1996.487289	-3.012800	3.344400	-10.075000	25.754365	1.565610E-5	20.736863
1997.480643	-3.003200	3.345200	-10.046000	25.762140	1.687691E-5	20.747991
1998.486591	-3.018000	3.344300	-10.092000	25.764401	1.539214E-5	20.747892
1999.482374	-2.990400	3.343900	-9.998500	25.765945	1.413833E-5	20.734269
2000.481128	-3.007300	3.344400	-10.056000	25.749001	1.476523E-5	20.743802
2001.482179	-3.008100	3.343900	-10.058000	25.766516	1.258757E-5	20.766612
2002.482886	-3.016900	3.342300	-10.082000	25.731112	1.433630E-5	20.739110
2003.488624	-2.997500	3.343000	-10.020000	25.769451	1.245559E-5	20.743955
2004.483239	-2.988900	3.342600	-9.990100	25.758048	1.242259E-5	20.737717
2005.486591	-3.003700	3.343100	-10.041000	25.761672	1.120178E-5	20.741832
2006.495437	-3.008800	3.342500	-10.055000	25.758919	1.153173E-5	20.724366
2007.481601	-2.985000	3.340100	-9.969400	25.755314	1.156473E-5	20.737342
2008.499518	-2.980300	3.341700	-9.958900	25.768655	1.060787E-5	20.717075
2009.482715	-2.985400	3.342500	-9.977600	25.757679	9.815994E-6	20.746356
2010.490587	-2.992900	3.340200	-9.996100	25.768861	8.859141E-6	20.733879
2011.485078	-2.985900	3.340100	-9.972200	25.775465	9.684014E-6	20.744780
2012.483036	-3.002000	3.339000	-10.022000	25.766004	8.925131E-6	20.740019
2013.484741	-2.982000	3.341000	-9.962400	25.777008	9.024115E-6	20.727838
2014.485870	-3.027500	3.339000	-10.107000	25.775022	7.308379E-6	20.750026
2015.490115	-3.011500	3.338000	-10.052000	25.786700	4.470814E-6	20.746583
2016.485183	-3.009700	3.339300	-10.049000	25.797409	6.615485E-6	20.727942
2017.486299	-3.018900	3.338000	-10.076000	25.779349	7.011424E-6	20.741095
2018.483921	-2.998600	3.339100	-10.012000	25.805586	7.275384E-6	20.748959
2019.502658	-2.994800	3.337900	-9.995100	25.802828	3.414976E-6	20.753300
2020.489328	-2.990700	3.337800	-9.981000	25.801987	4.899748E-6	20.743920
2021.490211	-3.006000	3.338200	-10.033000	25.800895	5.163708E-6	20.739979
2022.488556	-2.996900	3.337300	-10.001000	25.801972	3.612946E-6	20.741534
2023.488625	-3.000600	3.337000	-10.012000	25.787437	4.569799E-6	20.723614
2024.486119	-3.034600	3.335800	-10.121000	25.797694	3.546956E-6	20.744824
2025.494082	-3.023700	3.336500	-10.087000	25.811584	5.031728E-6	20.746923
2026.487689	-2.982500	3.336500	-9.950800	25.813300	3.118022E-6	20.741060
2027.492943	-3.009200	3.335200	-10.035000	25.806593	3.480966E-6	20.724839
2028.496293	-2.995000	3.335500	-9.989100	25.820607	3.777920E-6	20.735597
2029.495209	-2.989700	3.335400	-9.970700	25.813625	1.996194E-6	20.726687
2030.490050	-3.041300	3.332900	-10.134000	25.808781	9.733507E-7	20.749324
2031.494649	-2.998600	3.334200	-9.997600	25.832663	4.124367E-7	20.753398
2032.494521	-2.991000	3.333600	-9.969800	25.799518	-3.794418E-7	20.721525
2033.505376	-2.972400	3.334100	-9.908500	25.812489	-1.072336E-6	20.724123
2034.515774	-2.987100	3.332600	-9.954400	25.848362	-7.093912E-7	20.737400
2035.514793	-3.007400	3.333900	-10.025000	25.811697	-2.029189E-6	20.729966
2036.495768	-2.982500	3.333700	-9.940600	25.829658	-1.237310E-6	20.728094
2037.491637	-2.990900	3.332800	-9.966800	25.826983	-1.501270E-6	20.732045
2038.501119	-2.993500	3.332700	-9.975700	25.835996	-1.303300E-6	20.735883
2039.502290	-2.979000	3.332200	-9.924900	25.837466	-4.305840E-6	20.739257
2040.493924	-2.994200	3.330600	-9.971100	25.813118	-4.305840E-6	20.744670
2041.492746	-2.984900	3.330900	-9.941800	25.826113	-5.262693E-6	20.746345
2042.510423	-3.012900	3.330300	-10.032000	25.814588	-4.701779E-6	20.747570
2043.498997	-2.988500	3.330000	-9.950900	25.831802	-5.955587E-6	20.741154
2044.497749	-2.991900	3.330100	-9.962400	25.835637	-5.757617E-6	20.748799
2045.504449	-3.002600	3.329900	-9.996700	25.848971	-6.846450E-6	20.729951
2046.500965	-2.985900	3.328900	-9.938900	25.827042	-7.737313E-6	20.740640
2047.501657	-2.994400	3.328600	-9.965600	25.828729	-7.803303E-6	20.749447
2048.493902	-3.028000	3.327300	-10.075000	25.861646	-7.473354E-6	20.744581
2049.500114	-3.007900	3.327300	-10.007000	25.852654	-8.100258E-6	20.749298
2050.503030	-2.995100	3.327800	-9.966700	25.874194	-8.100258E-6	20.742487
2051.499142	-3.000400	3.327500	-9.983300	25.856484	-8.760156E-6	20.760733
2052.508288	-3.002400	3.327800	-9.989900	25.858672	-9.453050E-6	20.753447
2053.496918	-2.993000	3.327400	-9.958200	25.862694	-8.430207E-6	20.759384
2054.511302	-3.015100	3.326900	-10.029000	25.846749	-8.100258E-6	20.737676
2055.496798	-2.995400	3.326700	-9.963900	25.858475	-1.073985E-5	20.756095
2056.494902	-3.005900	3.326700	-9.998800	25.857905	-7.605334E-6	20.740822
2057.499367	-3.020200	3.324800	-10.040000	25.848607	-1.057488E-5	20.743337
2058.497150	-3.002900	3.325500	-9.985200	25.872635	-9.783000E-6	20.765104
2059.498346	-2.987100	3.324700	-9.930400	25.884307	-1.060787E-5	20.740319
2060.509412	-3.001600	3.324900	-9.978900	25.868353	-1.110280E-5	20.761750
2061.506508	-3.013400	3.323700	-10.015000	25.869125	-1.116879E-5	20.737395
2062.500150	-3.000600	3.324400	-9.974000	25.866489	-1.060787E-5	20.743756
2063.511044	-2.992400	3.323600	-9.944200	25.857590	-1.139975E-5	20.746671
2064.498139	-3.006300	3.323300	-9.990000	25.883004	-1.189468E-5	20.747071
2065.496417	-2.998200	3.323900	-9.964300	25.879873	-1.321447E-5	20.775694
2066.500384	-3.016900	3.322900	-10.024000	25.873638	-1.466625E-5	20.760896
2067.501799	-3.011500	3.322200	-10.004000	25.881711	-1.341244E-5	20.750514
2068.500931	-3.017400	3.321800	-10.022000	25.904588	-1.380838E-5	20.728924
2069.513356	-3.033800	3.319700	-10.070000	25.909436	-1.549112E-5	20.751813
2070.504377	-3.034000	3.320800	-10.074000	25.888167	-1.506219E-5	20.734713
2071.499528	-3.003500	3.321700	-9.975700	25.898256	-1.681092E-5	20.765712
2072.497893	-2.994500	3.320700	-9.942800	25.908511	-1.483123E-5	20.769851
2073.507617	-3.012900	3.319600	-10.001000	25.895739	-1.601904E-5	20.766502
2074.506892	-3.007100	3.319700	-9.981700	25.929057	-1.677793E-5	20.771051
2075.497953	-2.999500	3.319300	-9.955500	25.917278	-1.879062E-5	20.737879
2076.500241	-3.010100	3.320000	-9.992200	25.919239	-2.100128E-5	20.757394
2077.509888	-3.008600	3.320000	-9.987300	25.926422	-2.232108E-5	20.756549
2078.498637	-2.999500	3.318200	-9.952000	25.941619	-2.159519E-5	20.744789
2079.502961	-2.991500	3.319400	-9.929500	25.934662	-2.205712E-5	20.752974
2080.499568	-2.987000	3.318100	-9.910100	25.942887	-2.215610E-5	20.768349
2081.502271	-2.984100	3.318900	-9.902900	25.955507	-2.294798E-5	20.754475
2082.500153	-3.012000	3.316800	-9.989200	25.963604	-2.327793E-5	20.759765
2083.497705	-3.004900	3.316300	-9.964300	25.947233	-2.324494E-5	20.746162
2084.511121	-3.013000	3.316600	-9.992000	25.952523	-2.258504E-5	20.758115
2085.500042	-3.000100	3.316300	-9.948900	25.965187	-2.449874E-5	20.767994
2086.500991	-3.001400	3.314900	-9.948700	25.957444	-2.242006E-5	20.774914
2087.508948	-3.030800	3.314800	-10.045000	25.963054	-2.463072E-5	20.781498
2088.501323	-2.985800	3.316700	-9.901800	25.975398	-2.275001E-5	20.759760
2089.502553	-3.007000	3.314100	-9.964500	25.974277	-2.482869E-5	20.758160
2090.504843	-2.984600	3.314500	-9.891100	25.965463	-2.410280E-5	20.780125
2091.515573	-2.992800	3.314400	-9.917400	25.981401	-2.581854E-5	20.779542
2092.499668	-3.016700	3.313900	-9.996900	25.974641	-2.565357E-5	20.793140
2093.509202	-3.031200	3.312800	-10.041000	25.976136	-2.641245E-5	20.770933
2094.501373	-3.007700	3.312500	-9.961300	25.990958	-2.707235E-5	20.766858
2095.507876	-3.029200	3.313400	-10.036000	25.988771	-2.644545E-5	20.768928
2096.505049	-3.014100	3.313700	-9.986600	25.994282	-2.608250E-5	20.780629
2097.506968	-3.002500	3.312100	-9.943200	26.013508	-2.905205E-5	20.773393
2098.509104	-3.020600	3.310600	-9.997700	25.996292	-2.852413E-5	20.780278
2099.506104	-3.007900	3.311700	-9.960200	26.003593	-3.007489E-5	20.788561
2100.507054	-2.996500	3.311700	-9.922800	26.000265	-2.868910E-5	20.773838
2101.500085	-2.989500	3.311100	-9.897400	26.018464	-2.898606E-5	20.761302
2102.506020	-3.012000	3.310200	-9.968900	26.024850	-2.915103E-5	20.779572
2103.503164	-3.010600	3.310900	-9.967300	26.027681	-3.086677E-5	20.784314
2104.506970	-2.995200	3.310100	-9.913900	26.005422	-2.990991E-5	20.772381
2105.510159	-2.997700	3.309700	-9.920400	26.041780	-3.357235E-5	20.761495
2106.505962	-3.018100	3.309200	-9.985900	26.027775	-3.396829E-5	20.771605
2107.504733	-3.006900	3.309100	-9.949200	26.027303	-3.535408E-5	20.791994
2108.504336	-2.991300	3.308900	-9.897100	26.041534	-3.261550E-5	20.782111
2109.510859	-2.982700	3.309500	-9.870000	26.033359	-3.472718E-5	20.781010
2110.509914	-3.008600	3.307300	-9.949100	26.034775	-3.525510E-5	20.797131
2111.510640	-3.002900	3.307500	-9.930400	26.048781	-3.647591E-5	20.801720
2112.505414	-3.031400	3.307600	-10.026000	26.052983	-3.631093E-5	20.786502
2113.510956	-2.974100	3.308600	-9.839000	26.056754	-3.482616E-5	20.792661
2114.503894	-2.999100	3.305800	-9.914300	26.061753	-3.697083E-5	20.780140
2115.520149	-2.993100	3.307800	-9.899500	26.049877	-3.703682E-5	20.790019
2116.508172	-2.995400	3.305200	-9.899600	26.037504	-3.819165E-5	20.772371
2117.508180	-2.995800	3.305900	-9.902500	26.063390	-3.881855E-5	20.804545
2118.509116	-2.988600	3.305900	-9.879000	26.068458	-3.796068E-5	20.785929
2119.514825	-2.979000	3.304400	-9.843100	26.065696	-3.865358E-5	20.805913
2120.513051	-2.991600	3.305000	-9.886200	26.072455	-3.825764E-5	20.798954
2121.510049	-3.010200	3.303600	-9.943600	26.064831	-4.159013E-5	20.801724
2122.521342	-3.013600	3.302900	-9.953400	26.066099	-4.149114E-5	20.802999
2123.519638	-3.014400	3.302700	-9.954700	26.082689	-4.106221E-5	20.799280
2124.516322	-2.996500	3.303600	-9.898000	26.065052	-4.149114E-5	20.796257
2125.511801	-2.988600	3.303400	-9.871700	26.087880	-4.320688E-5	20.785055
2126.510895	-2.994000	3.302100	-9.885200	26.093120	-4.211804E-5	20.807390
2127.514310	-3.011300	3.302500	-9.944000	26.073669	-4.159013E-5	20.791165
2128.514618	-2.992400	3.301800	-9.878900	26.086538	-4.488962E-5	20.802199
2129.513020	-3.019300	3.301300	-9.967000	26.101713	-4.449368E-5	20.809859
2130.519891	-3.005200	3.302100	-9.922700	26.095155	-4.366881E-5	20.793313
2131.513328	-3.017400	3.300400	-9.957400	26.076751	-4.416373E-5	20.793787
2132.512029	-2.984600	3.301300	-9.851400	26.092722	-4.436170E-5	20.793239
2133.524776	-2.994700	3.300200	-9.882400	26.109912	-4.548353E-5	20.810985
2134.511858	-3.005400	3.300000	-9.916100	26.123617	-4.561551E-5	20.788246
2135.510278	-2.981900	3.299800	-9.839100	26.096871	-4.650637E-5	20.824908
2136.510859	-2.984100	3.299200	-9.844200	26.108496	-4.736424E-5	20.824735
2137.516473	-2.980600	3.299500	-9.833300	26.118853	-4.914597E-5	20.820443
2138.515775	-3.002200	3.298100	-9.900300	26.100572	-4.723226E-5	20.835265
2139.514761	-2.979000	3.298500	-9.825500	26.114459	-4.845307E-5	20.805597
2140.518065	-2.996800	3.297000	-9.879500	26.107533	-4.957490E-5	20.804327
2141.523828	-3.007700	3.297100	-9.915600	26.129382	-5.020181E-5	20.821540
2142.516111	-3.012600	3.297000	-9.931500	26.136913	-5.109267E-5	20.821046
2143.520118	-3.000000	3.297600	-9.891600	26.132395	-5.039978E-5	20.810817
2144.516473	-2.979800	3.298000	-9.826600	26.145785	-5.145562E-5	20.801038
2145.519865	-3.007600	3.296200	-9.912700	26.155276	-4.934394E-5	20.805833
2146.529212	-2.994100	3.295900	-9.867200	26.128055	-5.221450E-5	20.807878
2147.523563	-3.015800	3.294500	-9.933300	26.163622	-5.376526E-5	20.811375
2148.526057	-2.989300	3.296200	-9.851200	26.141223	-5.386425E-5	20.793609
2149.519206	-2.966400	3.295900	-9.776300	26.156849	-5.505206E-5	20.795086
2150.514639	-3.006600	3.295100	-9.906400	26.161592	-5.475511E-5	20.831620
2151.528958	-3.000700	3.294700	-9.885200	26.161966	-5.590993E-5	20.827728
2152.515869	-2.992300	3.294000	-9.855800	26.168498	-5.518404E-5	20.819593
2153.534531	-3.017600	3.293100	-9.935600	26.179705	-5.746070E-5	20.804776
2154.529835	-3.014300	3.293100	-9.926000	26.166419	-5.660283E-5	20.811340
2155.523344	-3.010000	3.293500	-9.913100	26.161174	-5.762567E-5	20.827406
2156.520658	-3.001300	3.291600	-9.877700	26.163715	-5.854953E-5	20.832330
2157.519367	-2.993300	3.291600	-9.851100	26.192027	-5.713075E-5	20.813839
2158.520708	-2.986900	3.292100	-9.832200	26.190435	-5.650384E-5	20.824566
2159.529185	-2.993600	3.290900	-9.850300	26.199031	-5.973735E-5	20.809497
2160.521577	-2.991700	3.290000	-9.842200	26.188331	-5.937440E-5	20.839521
2161.520996	-3.014700	3.289800	-9.917300	26.194617	-5.835156E-5	20.824028
2162.520516	-2.989400	3.290800	-9.836900	26.185706	-5.901146E-5	20.812228
2163.519834	-2.996000	3.290400	-9.857200	26.197104	-6.062821E-5	20.809458
2164.527274	-2.991100	3.289400	-9.838000	26.187937	-6.076019E-5	20.819686
2165.533231	-3.004000	3.289600	-9.880900	26.202894	-6.102415E-5	20.811008
2166.526486	-2.987000	3.289500	-9.823700	26.199586	-6.353177E-5	20.820012
2167.547375	-2.984500	3.290200	-9.819200	26.208532	-6.211298E-5	20.838958
2168.528979	-3.007800	3.286800	-9.885100	26.219241	-6.445563E-5	20.840711
2169.526268	-3.001300	3.287600	-9.865300	26.211515	-6.194801E-5	20.832947
2170.524600	-3.002700	3.287100	-9.869100	26.221979	-6.531349E-5	20.835402
2171.529430	-2.989400	3.287400	-9.825300	26.212640	-6.564344E-5	20.842613
2172.523818	-2.979300	3.288200	-9.794400	26.236631	-6.504954E-5	20.815513
2173.531596	-2.982500	3.287900	-9.805400	26.230674	-6.660030E-5	20.831337
2174.531203	-2.998000	3.285300	-9.848100	26.237284	-6.511552E-5	20.813324
2175.525595	-2.984500	3.286900	-9.808300	26.238454	-6.557745E-5	20.811655
2176.527820	-2.979300	3.286200	-9.789400	26.219713	-6.653431E-5	20.826961
2177.529503	-2.990500	3.286300	-9.825600	26.251621	-6.775512E-5	20.833895
2178.527047	-2.979900	3.285000	-9.788500	26.249267	-6.897593E-5	20.826314
2179.528401	-3.006300	3.284200	-9.872900	26.243777	-6.762314E-5	20.838340
2180.526608	-3.009400	3.282700	-9.878000	26.228088	-6.607238E-5	20.851497
2181.535395	-3.003000	3.284400	-9.862200	26.243167	-7.072467E-5	20.844840
2182.527160	-3.029600	3.282000	-9.942300	26.227670	-6.772213E-5	20.843017
2183.529268	-3.013800	3.282300	-9.891400	26.256531	-7.046071E-5	20.835984
2184.534786	-2.994500	3.282500	-9.828100	26.259140	-6.923989E-5	20.837658
2185.530686	-3.000000	3.282000	-9.844300	26.258246	-7.178051E-5	20.837708
2186.530828	-3.039100	3.280600	-9.969300	26.279483	-7.260538E-5	20.851462
2187.533594	-3.001500	3.281500	-9.848000	26.268759	-7.115360E-5	20.838789
2188.528919	-3.020300	3.280400	-9.907100	26.289022	-7.369421E-5	20.831178
2189.532122	-3.020200	3.280400	-9.905700	26.271319	-7.088964E-5	20.843733
2190.530943	-2.967700	3.280800	-9.735700	26.290718	-7.220944E-5	20.846158
2191.536188	-2.992000	3.280100	-9.813600	26.298414	-7.349624E-5	20.844410
2192.539714	-3.024900	3.277700	-9.914000	26.289877	-7.379320E-5	20.852425
2193.547937	-3.015600	3.278200	-9.885300	26.303412	-7.418914E-5	20.862234
2194.535655	-2.980900	3.279800	-9.774900	26.307659	-7.392518E-5	20.851803
2195.546220	-3.009900	3.277400	-9.863500	26.305850	-7.389218E-5	20.842399
2196.541374	-2.992400	3.277200	-9.805300	26.319409	-7.501401E-5	20.852233
2197.539511	-2.987700	3.277700	-9.791000	26.336546	-7.755462E-5	20.837688
2198.536214	-3.009200	3.276600	-9.858900	26.336468	-7.514599E-5	20.856100
2199.536019	-3.006100	3.275000	-9.843600	26.337362	-7.672975E-5	20.851309
2200.539118	-3.006400	3.276000	-9.848000	26.334831	-7.963330E-5	20.848766
2201.536458	-2.990200	3.275800	-9.794300	26.333465	-7.785158E-5	20.831746
2202.536748	-2.997400	3.275400	-9.817000	26.341908	-7.986427E-5	20.861567
2203.537274	-3.003500	3.274400	-9.833100	26.329366	-7.917138E-5	20.861765
2204.539680	-2.993600	3.275500	-9.804800	26.346208	-8.108508E-5	20.851665
2205.543122	-2.988900	3.275300	-9.788600	26.339028	-7.979828E-5	20.841130
2206.537972	-3.012500	3.275400	-9.866300	26.344567	-8.184397E-5	20.864713
2207.539732	-3.019000	3.273400	-9.881900	26.348095	-8.342772E-5	20.843604
2208.536248	-3.012100	3.273900	-9.860400	26.352587	-8.421960E-5	20.893160
2209.536914	-2.982100	3.274200	-9.762400	26.341264	-8.385666E-5	20.870403
2210.538662	-2.986300	3.273300	-9.774700	26.356342	-8.464854E-5	20.859952
2211.535475	-2.999100	3.272200	-9.812000	26.347599	-8.197595E-5	20.864916
2212.537591	-3.014600	3.271100	-9.860000	26.358996	-8.494549E-5	20.867834
2213.540543	-2.994200	3.270900	-9.792900	26.372431	-8.791504E-5	20.861898
2214.541163	-2.980900	3.271600	-9.751700	26.367989	-8.656225E-5	20.860752
2215.537467	-2.989400	3.271300	-9.778300	26.376874	-8.662824E-5	20.864940
2216.549763	-2.979500	3.270100	-9.741800	26.367463	-8.781605E-5	20.851215
2217.538815	-3.001500	3.270400	-9.814800	26.387430	-8.814600E-5	20.857058
2218.542889	-3.014200	3.268800	-9.852100	26.406079	-8.695819E-5	20.859680
2219.539439	-2.992200	3.267600	-9.775600	26.402929	-8.603433E-5	20.865523
2220.541333	-3.001900	3.268300	-9.810500	26.389745	-8.887189E-5	20.872660
2221.543951	-3.030500	3.267300	-9.900500	26.406335	-8.897088E-5	20.873687
2222.541938	-3.029200	3.266800	-9.894700	26.399897	-9.015870E-5	20.871958
2223.541412	-3.013900	3.266300	-9.843900	26.401917	-9.012570E-5	20.873988
2224.544896	-2.997500	3.267000	-9.792000	26.391465	-9.005971E-5	20.881500
2225.542365	-3.008000	3.266900	-9.826100	26.395514	-8.976276E-5	20.877509
2226.542997	-3.008000	3.266700	-9.825400	26.411210	-9.029068E-5	20.873845
2227.542418	-3.010700	3.264800	-9.828800	26.404782	-9.065362E-5	20.870704
2228.543697	-3.017800	3.264900	-9.851400	26.395819	-9.240235E-5	20.887298
2229.559518	-3.008500	3.264100	-9.819100	26.428124	-9.151149E-5	20.868560
2230.551533	-3.018200	3.263900	-9.850300	26.416856	-9.223738E-5	20.871933
2231.558153	-3.009500	3.264500	-9.823600	26.459092	-9.312824E-5	20.874082
2232.550110	-2.993300	3.263800	-9.769100	26.430689	-9.418408E-5	20.863552
2233.545931	-2.984500	3.264200	-9.741500	26.432537	-9.293027E-5	20.877262
2234.547351	-3.007500	3.262200	-9.810000	26.450537	-9.220438E-5	20.869750
2235.548866	-3.014000	3.262000	-9.830500	26.445102	-9.352418E-5	20.872822
2236.547450	-2.988300	3.264600	-9.754800	26.467471	-9.589982E-5	20.865434
2237.547304	-2.970400	3.262900	-9.691800	26.440508	-9.514093E-5	20.871524
2238.563759	-2.983100	3.261900	-9.729800	26.462837	-9.484398E-5	20.869311
2239.551351	-3.010600	3.261200	-9.816400	26.444316	-9.454703E-5	20.844533
2240.548023	-2.982700	3.262400	-9.729700	26.451938	-9.715363E-5	20.875899
2241.549615	-3.002900	3.261100	-9.791800	26.458198	-9.530591E-5	20.883614
2242.551046	-3.012200	3.260500	-9.819900	26.449589	-9.675769E-5	20.857892
2243.554212	-3.008800	3.261500	-9.811100	26.472453	-9.873739E-5	20.861434
2244.552634	-3.010600	3.258200	-9.808000	26.490802	-9.652672E-5	20.865177
2245.555585	-2.997200	3.258700	-9.765900	26.493092	-9.857241E-5	20.853255
2246.552463	-3.005200	3.257900	-9.788400	26.502575	-9.675769E-5	20.849985
2247.549803	-2.994800	3.259100	-9.759800	26.490984	-9.814348E-5	20.861567
2248.550724	-2.991500	3.258800	-9.747500	26.499529	-9.883637E-5	20.827484
2249.552298	-3.004100	3.258500	-9.788100	26.509336	-9.929830E-5	20.866264
2250.553906	-2.988400	3.258500	-9.736900	26.509808	-0.000100	20.851092
2251.560976	-3.008100	3.257500	-9.798400	26.512368	-9.943028E-5	20.850346
2252.552582	-3.007100	3.256900	-9.792600	26.518206	-9.804449E-5	20.868067
2253.553563	-3.003300	3.257100	-9.780500	26.524210	-0.000100	20.845180
2254.553799	-2.996000	3.255300	-9.751300	26.520736	-9.999119E-5	20.846429
2255.557067	-3.016700	3.254400	-9.816500	26.542214	-0.000100	20.844311
2256.555668	-2.975200	3.255200	-9.683700	26.545275	-0.000101	20.845017
2257.554179	-2.999300	3.255000	-9.761700	26.518958	-0.000102	20.848909
2258.560212	-3.018700	3.252900	-9.818500	26.553092	-0.000101	20.832013
2259.558874	-3.012100	3.253200	-9.796700	26.553471	-0.000100	20.839031
2260.558299	-3.018800	3.253900	-9.820900	26.556974	-0.000102	20.861044
2261.566328	-3.013900	3.252400	-9.801000	26.548233	-0.000103	20.829499
2262.565905	-3.009400	3.251900	-9.785000	26.564944	-0.000103	20.833495
2263.554874	-3.002600	3.251600	-9.762000	26.551589	-0.000103	20.843777
2264.561192	-3.008800	3.250600	-9.779400	26.568796	-0.000104	20.845901
2265.560005	-2.998400	3.251200	-9.747400	26.573415	-0.000103	20.822570
2266.556159	-3.009200	3.251100	-9.781900	26.574235	-0.000103	20.849472
2267.555546	-2.998700	3.250900	-9.747600	26.567106	-0.000105	20.855107
2268.555437	-2.996700	3.248500	-9.733900	26.540082	-0.000104	20.829366
2269.560749	-2.990800	3.249100	-9.716600	26.563568	-0.000104	20.834957
2270.554690	-2.994500	3.248700	-9.727800	26.549594	-0.000106	20.839402
2271.556666	-2.998800	3.249100	-9.742800	26.551584	-0.000106	20.831919
2272.562819	-2.963700	3.249300	-9.628900	26.556650	-0.000105	20.850761
2273.556990	-3.025600	3.247400	-9.824100	26.575223	-0.000106	20.830077
2274.562322	-2.994900	3.246100	-9.721400	26.550744	-0.000107	20.816376
2275.558009	-2.983000	3.246900	-9.684900	26.585679	-0.000109	20.816880
2276.559261	-2.990200	3.246200	-9.705200	26.581213	-0.000107	20.813339
2277.561398	-2.985100	3.246000	-9.688800	26.577066	-0.000109	20.832878
2278.568872	-3.015500	3.245200	-9.785600	26.574216	-0.000111	20.839970
2279.560415	-2.991400	3.245600	-9.708600	26.585792	-0.000109	20.825529
2280.562316	-2.992700	3.244500	-9.708900	26.589988	-0.000109	20.831169
2281.559683	-3.010500	3.242800	-9.760700	26.590484	-0.000109	20.829771
2282.561273	-2.997800	3.243100	-9.721400	26.580731	-0.000110	20.804321
2283.570561	-2.982800	3.243300	-9.672900	26.607023	-0.000109	20.815103
2284.559393	-2.999100	3.242300	-9.722900	26.594838	-0.000110	20.811389
2285.560860	-3.017200	3.241900	-9.779800	26.611199	-0.000111	20.812663
2286.562858	-2.997700	3.241300	-9.715600	26.600105	-0.000112	20.803407
2287.561442	-2.974900	3.242500	-9.645100	26.601048	-0.000112	20.831382
2288.563791	-2.997700	3.240500	-9.712300	26.594160	-0.000112	20.801224
2289.561438	-3.010700	3.238500	-9.749000	26.603245	-0.000112	20.828848
2290.563169	-2.975500	3.241100	-9.643000	26.612698	-0.000111	20.811325
2291.563468	-2.974200	3.240200	-9.635100	26.632690	-0.000113	20.814827
2292.562198	-2.999800	3.238400	-9.712900	26.625472	-0.000114	20.808994
2293.564021	-2.989700	3.238200	-9.680600	26.633564	-0.000112	20.826137
2294.574309	-3.003400	3.237700	-9.722200	26.621601	-0.000113	20.812214
2295.567983	-2.988900	3.239400	-9.681300	26.634017	-0.000112	20.802884
2296.575331	-2.996800	3.237400	-9.700400	26.642462	-0.000112	20.829392
2297.563710	-3.026500	3.235900	-9.792800	26.667485	-0.000116	20.831313
2298.566624	-3.011800	3.235900	-9.744500	26.662621	-0.000115	20.816941
2299.567914	-2.999600	3.236200	-9.706000	26.644109	-0.000117	20.803546
2300.564800	-2.983800	3.235900	-9.653400	26.651881	-0.000115	20.814205
2301.565978	-3.014900	3.234600	-9.750400	26.670325	-0.000117	20.805245
2302.565945	-2.993200	3.234900	-9.681400	26.689515	-0.000116	20.789924
2303.570854	-3.024900	3.233600	-9.780100	26.667456	-0.000117	20.804732
2304.568367	-3.009300	3.234600	-9.732500	26.689770	-0.000118	20.801087
2305.571946	-3.007300	3.232900	-9.721500	26.674408	-0.000117	20.806505
2306.567860	-2.991500	3.234500	-9.674200	26.653930	-0.000116	20.806782
2307.572831	-2.990900	3.232600	-9.667500	26.679576	-0.000117	20.797477
2308.582060	-2.981000	3.232600	-9.635700	26.673126	-0.000117	20.800949
2309.575650	-3.012000	3.232300	-9.734300	26.687973	-0.000116	20.810659
2310.568390	-3.006300	3.231300	-9.712600	26.680102	-0.000118	20.787100
2311.568074	-2.961900	3.232000	-9.571700	26.685074	-0.000119	20.806797
2312.571786	-3.024600	3.228300	-9.763600	26.693593	-0.000117	20.810620
2313.569011	-3.013500	3.228300	-9.727600	26.696723	-0.000117	20.809025
2314.574249	-3.032400	3.228400	-9.788900	26.703945	-0.000119	20.782146
2315.572504	-2.993300	3.229000	-9.664300	26.687963	-0.000119	20.806383
2316.574224	-3.004900	3.228200	-9.698800	26.711029	-0.000120	20.800175
2317.573027	-3.005500	3.227300	-9.698300	26.720216	-0.000118	20.790445
2318.572037	-3.012700	3.227100	-9.720600	26.717637	-0.000121	20.794490
2319.569963	-2.982300	3.226800	-9.622500	26.701504	-0.000117	20.789650
2320.575983	-3.007100	3.226400	-9.701200	26.723051	-0.000118	20.784286
2321.572867	-3.007200	3.225600	-9.698900	26.720747	-0.000119	20.782444
2322.572693	-3.018400	3.225500	-9.735400	26.702280	-0.000121	20.782844
2323.573839	-3.026100	3.224000	-9.754800	26.708937	-0.000120	20.777682
2324.573820	-3.027400	3.223700	-9.759200	26.722939	-0.000121	20.778008
2325.574214	-3.009900	3.223700	-9.702200	26.723189	-0.000120	20.782528
2326.574349	-3.012100	3.223600	-9.708800	26.712219	-0.000121	20.789043
2327.577572	-3.008800	3.223000	-9.696600	26.733963	-0.000120	20.778186
2328.576901	-3.017000	3.221600	-9.718300	26.739082	-0.000120	20.766738
2329.573343	-3.012100	3.221800	-9.703500	26.735113	-0.000123	20.784084
2330.578364	-3.003300	3.222000	-9.676100	26.710785	-0.000120	20.795187
2331.576157	-3.012300	3.220900	-9.701300	26.735241	-0.000122	20.781368
2332.574648	-2.996400	3.221700	-9.652600	26.734666	-0.000121	20.776522
2333.574199	-2.996600	3.220800	-9.650900	26.748132	-0.000122	20.787216
2334.577117	-2.979900	3.220200	-9.595200	26.731252	-0.000123	20.787789
2335.575945	-3.003400	3.219000	-9.666900	26.722689	-0.000122	20.778706
2336.576079	-3.005200	3.218100	-9.670100	26.729071	-0.000120	20.776113
2337.578296	-2.988000	3.218900	-9.617200	26.749675	-0.000122	20.791612
2338.579891	-3.012000	3.217700	-9.689700	26.734588	-0.000123	20.770280
2339.578870	-3.005200	3.217200	-9.666500	26.754794	-0.000123	20.759774
2340.583363	-3.001700	3.217000	-9.655800	26.747248	-0.000123	20.773525
2341.587414	-3.006600	3.215400	-9.666700	26.743898	-0.000124	20.785330
2342.579010	-2.997400	3.216300	-9.639300	26.730447	-0.000124	20.772755
2343.580992	-2.977600	3.216400	-9.574700	26.766245	-0.000122	20.777926
2344.582024	-3.000800	3.214800	-9.646500	26.750211	-0.000121	20.781720
2345.580826	-2.969300	3.214300	-9.543300	26.771905	-0.000122	20.792151
2346.580929	-2.977900	3.213800	-9.569100	26.761407	-0.000125	20.771165
2347.583097	-3.001300	3.213600	-9.644000	26.768235	-0.000124	20.785143
2348.581517	-2.993500	3.212900	-9.616700	26.778586	-0.000124	20.774212
2349.581626	-2.995300	3.212700	-9.621400	26.784490	-0.000122	20.778727
2350.580941	-2.997500	3.211400	-9.625100	26.786927	-0.000124	20.757943
2351.581360	-2.992100	3.211400	-9.607900	26.789261	-0.000123	20.772143
2352.585938	-3.002200	3.211700	-9.640700	26.786878	-0.000125	20.792507
2353.581090	-2.972400	3.211000	-9.543800	26.796182	-0.000122	20.775783
2354.582667	-2.994400	3.210200	-9.611700	26.796364	-0.000122	20.764586
2355.587278	-3.004200	3.209700	-9.641500	26.804381	-0.000125	20.776440
2356.584287	-3.027500	3.209300	-9.714800	26.780905	-0.000123	20.752836
2357.583217	-2.994600	3.208400	-9.607000	26.801140	-0.000124	20.766543
2358.586440	-3.029100	3.206600	-9.711600	26.800957	-0.000123	20.756876
2359.592735	-3.010300	3.208100	-9.655600	26.809157	-0.000125	20.759430
2360.585285	-3.009100	3.207000	-9.648900	26.821963	-0.000124	20.773255
2361.589224	-3.012400	3.207000	-9.659900	26.817768	-0.000126	20.779942
2362.590791	-3.001900	3.205700	-9.622400	26.809555	-0.000124	20.766468
2363.587253	-3.033900	3.205100	-9.723200	26.811476	-0.000127	20.769349
2364.587963	-3.013700	3.204900	-9.657900	26.804672	-0.000127	20.758714
2365.588997	-2.964500	3.206000	-9.502600	26.812792	-0.000125	20.759292
2366.588330	-3.010000	3.203900	-9.642200	26.807654	-0.000124	20.768351
2367.594899	-2.992200	3.204100	-9.586600	26.810415	-0.000126	20.759273
2368.592398	-2.992900	3.204800	-9.590600	26.820196	-0.000125	20.793763
2369.589215	-2.981400	3.203700	-9.550600	26.821090	-0.000127	20.743452
2370.588653	-2.997200	3.202200	-9.597200	26.839879	-0.000127	20.783683
2371.590478	-2.993000	3.201200	-9.580500	26.834825	-0.000126	20.766272
2372.595472	-2.996900	3.201700	-9.594600	26.847307	-0.000127	20.763175
2373.591923	-3.009200	3.200400	-9.629500	26.841304	-0.000126	20.756191
2374.593574	-2.997800	3.200800	-9.593000	26.860589	-0.000127	20.764677
2375.595098	-3.019600	3.198600	-9.657600	26.849026	-0.000126	20.735506
2376.592727	-3.003300	3.198900	-9.606000	26.843318	-0.000128	20.775287
2377.592635	-3.001500	3.199000	-9.601600	26.862579	-0.000127	20.735382
2378.598290	-3.004700	3.197700	-9.606200	26.839924	-0.000127	20.759072
2379.598155	-3.009100	3.196100	-9.615600	26.830935	-0.000129	20.753352
2380.592191	-2.986400	3.196800	-9.544500	26.834236	-0.000125	20.751929
2381.596211	-2.986100	3.196600	-9.544400	26.831908	-0.000128	20.762865
2382.593213	-3.013000	3.195800	-9.627900	26.857220	-0.000129	20.756073
2383.604641	-2.992300	3.195000	-9.559200	26.847568	-0.000129	20.762015
2384.601667	-3.001000	3.194000	-9.584700	26.845932	-0.000128	20.764638
2385.596945	-3.012100	3.194800	-9.621100	26.877704	-0.000129	20.775248
2386.597699	-2.998600	3.193500	-9.574300	26.866632	-0.000130	20.746096
2387.601288	-2.992200	3.193600	-9.554600	26.877802	-0.000130	20.755432
2388.600303	-2.986800	3.192700	-9.535500	26.877954	-0.000130	20.743256
2389.599038	-2.962100	3.193900	-9.459600	26.900289	-0.000130	20.738213
2390.605944	-3.000500	3.193300	-9.579700	26.871475	-0.000128	20.762347
2391.599559	-2.974800	3.191800	-9.493700	26.888225	-0.000130	20.745998
2392.599949	-2.983500	3.191700	-9.521800	26.904592	-0.000130	20.758663
2393.603478	-2.991600	3.189700	-9.540700	26.911012	-0.000127	20.753738
2394.600189	-2.979800	3.189500	-9.502600	26.919003	-0.000129	20.762722
2395.598972	-2.987600	3.189200	-9.527100	26.903148	-0.000128	20.745356
2396.599544	-2.988700	3.188800	-9.529000	26.900019	-0.000128	20.744580
2397.599361	-2.993100	3.189500	-9.545800	26.908232	-0.000129	20.740510
2398.600240	-2.990600	3.188100	-9.533600	26.907839	-0.000129	20.727787
2399.600906	-3.000300	3.187700	-9.562900	26.931814	-0.000129	20.745257
2400.607914	-2.986000	3.187200	-9.516000	26.923552	-0.000129	20.732682
2401.600499	-2.982200	3.186900	-9.503300	26.938911	-0.000129	20.732005
2402.601125	-3.022500	3.183600	-9.620500	26.929805	-0.000129	20.747979
2403.604436	-3.002700	3.184600	-9.561700	26.941721	-0.000130	20.738624
2404.599089	-3.010900	3.184200	-9.586500	26.936362	-0.000131	20.730390
2405.601604	-2.989200	3.183600	-9.514800	26.940306	-0.000128	20.757117
2406.600131	-3.009600	3.182000	-9.575400	26.948995	-0.000131	20.727446
2407.601675	-3.002700	3.182600	-9.555400	26.949295	-0.000131	20.748612
2408.601356	-3.011600	3.181200	-9.579700	26.943637	-0.000132	20.739128
2409.603737	-2.983800	3.181000	-9.490800	26.943440	-0.000131	20.719963
2410.603076	-3.011000	3.181000	-9.577100	26.957861	-0.000131	20.726879
2411.605214	-2.993800	3.180700	-9.521500	26.953269	-0.000131	20.725580
2412.608265	-2.990600	3.179000	-9.504900	26.927458	-0.000131	20.741351
2413.604685	-2.960100	3.180000	-9.412400	26.952852	-0.000134	20.734644
2414.602836	-3.007100	3.178100	-9.556400	26.943347	-0.000131	20.732673
2415.614038	-2.989900	3.178800	-9.503800	26.955926	-0.000129	20.742477
2416.607771	-3.004900	3.176600	-9.544800	26.938632	-0.000131	20.740260
2417.609125	-2.995400	3.176500	-9.512900	26.943794	-0.000132	20.748770
2418.607971	-2.984800	3.176500	-9.480400	26.957272	-0.000129	20.741934
2419.606330	-2.986900	3.175500	-9.483200	26.963108	-0.000132	20.746380
2420.606721	-3.023000	3.174300	-9.595500	26.984576	-0.000130	20.717233
2421.620410	-2.995600	3.174500	-9.508400	26.980829	-0.000131	20.735751
2422.604663	-3.016100	3.174200	-9.572700	26.982263	-0.000130	20.727709
2423.604431	-2.974300	3.173800	-9.439400	26.989389	-0.000130	20.725393
2424.604631	-2.973100	3.174100	-9.435500	26.994129	-0.000131	20.736323
2425.606986	-2.979900	3.172800	-9.454000	26.988722	-0.000132	20.717134
2426.606443	-2.978500	3.173200	-9.451200	26.967253	-0.000134	20.740591
2427.606790	-2.999800	3.170100	-9.508900	26.981172	-0.000130	20.733725
2428.609134	-2.986900	3.170200	-9.468400	26.980131	-0.000130	20.718453
2429.607291	-2.987800	3.170500	-9.471900	27.001447	-0.000133	20.721396
2430.607765	-2.993800	3.170200	-9.489700	27.000479	-0.000130	20.705249
2431.612668	-3.017600	3.168500	-9.560400	27.007007	-0.000131	20.724617
2432.609238	-3.035700	3.166700	-9.612200	27.015415	-0.000129	20.735918
2433.608902	-2.988200	3.167900	-9.465700	27.008647	-0.000131	20.736225
2434.612978	-2.993600	3.166500	-9.478800	27.010774	-0.000132	20.734570
2435.608128	-2.999300	3.166600	-9.497200	27.023479	-0.000132	20.727906
2436.613126	-2.999200	3.165800	-9.493800	27.009580	-0.000132	20.723411
2437.613335	-2.990100	3.165600	-9.464500	27.028646	-0.000132	20.715084
2438.607236	-3.017100	3.163600	-9.544200	27.010351	-0.000132	20.724187
2439.608907	-2.967400	3.164600	-9.389000	27.031819	-0.000132	20.721120
2440.611110	-2.975800	3.163000	-9.411400	27.010150	-0.000132	20.722562
2441.608740	-2.994600	3.162600	-9.469300	27.036062	-0.000132	20.722542
2442.609682	-2.981300	3.161700	-9.424600	27.013720	-0.000132	20.740378
2443.614043	-3.000900	3.161900	-9.487800	27.030827	-0.000132	20.710164
2444.609079	-2.979300	3.161200	-9.416000	27.032285	-0.000130	20.721114
2445.612854	-2.992700	3.160400	-9.457600	27.020522	-0.000130	20.733942
2446.612725	-3.015300	3.158200	-9.522500	27.030522	-0.000130	20.739257
2447.620209	-3.001700	3.158600	-9.479400	27.056085	-0.000132	20.733671
2448.612871	-3.030300	3.157600	-9.567600	27.029977	-0.000132	20.735389
2449.614887	-3.022000	3.157100	-9.538800	27.030797	-0.000130	20.736688
2450.612451	-2.992400	3.157600	-9.448100	27.058211	-0.000132	20.738180
2451.618211	-2.982800	3.157600	-9.417900	27.039824	-0.000133	20.735335
2452.612340	-3.005100	3.156500	-9.484500	27.063103	-0.000132	20.739306
2453.619143	-3.002800	3.155800	-9.475600	27.073372	-0.000134	20.730193
2454.619067	-2.982600	3.154400	-9.407300	27.054690	-0.000133	20.728474
2455.614280	-2.988600	3.154300	-9.426200	27.079575	-0.000131	20.731215
2456.616010	-2.978700	3.154700	-9.395100	27.068014	-0.000132	20.724804
2457.617277	-2.978600	3.152200	-9.388600	27.070513	-0.000131	20.727792
2458.613623	-2.992400	3.151500	-9.429800	27.091882	-0.000132	20.736480
2459.615355	-2.967900	3.151700	-9.352500	27.089328	-0.000131	20.721109
2460.615289	-2.991000	3.149400	-9.418300	27.113844	-0.000133	20.724903
2461.617122	-2.994600	3.150300	-9.433200	27.094661	-0.000133	20.717464
2462.624957	-3.010000	3.149300	-9.477800	27.085379	-0.000134	20.716189
2463.625372	-3.004200	3.148500	-9.457400	27.108083	-0.000132	20.725747
2464.619872	-3.007700	3.148900	-9.470400	27.100142	-0.000133	20.732460
2465.619335	-3.006500	3.147000	-9.460400	27.089873	-0.000131	20.721657
2466.619496	-3.023900	3.146900	-9.515200	27.133222	-0.000135	20.733487
2467.618586	-3.025300	3.145500	-9.515300	27.107612	-0.000130	20.733334
2468.620558	-2.990600	3.146100	-9.407800	27.120965	-0.000132	20.713097
2469.618850	-3.016000	3.144100	-9.481300	27.124240	-0.000134	20.725402
2470.620178	-3.015900	3.144300	-9.481800	27.114590	-0.000133	20.726602
2471.622348	-3.019400	3.142800	-9.488000	27.118956	-0.000131	20.723880
2472.627391	-2.986900	3.142300	-9.384600	27.121019	-0.000132	20.731645
2473.620605	-3.034700	3.140700	-9.530100	27.113598	-0.000133	20.742200
2474.621299	-2.998300	3.140800	-9.415700	27.125959	-0.000132	20.718595
2475.622134	-3.026600	3.139700	-9.501500	27.145117	-0.000132	20.739287
2476.630942	-3.019200	3.138900	-9.475900	27.113010	-0.000131	20.735918
2477.623700	-2.995300	3.139300	-9.402400	27.145790	-0.000131	20.720522
2478.627768	-3.006100	3.138400	-9.433500	27.150062	-0.000131	20.734303
2479.619982	-2.987400	3.138500	-9.375500	27.160783	-0.000132	20.735128
2480.622823	-3.022000	3.136600	-9.477900	27.149297	-0.000132	20.737326
2481.621490	-2.997500	3.135900	-9.398500	27.157886	-0.000132	20.740276
2482.622107	-3.011500	3.135800	-9.442300	27.162502	-0.000134	20.727374
2483.629178	-3.004900	3.135200	-9.420400	27.171901	-0.000131	20.724973
2484.622251	-3.019000	3.133800	-9.460300	27.174042	-0.000133	20.735188
2485.622996	-3.032600	3.133900	-9.503000	27.174018	-0.000134	20.719516
2486.624932	-3.019700	3.133200	-9.460600	27.175633	-0.000133	20.733470
2487.626988	-2.976500	3.131800	-9.321100	27.188691	-0.000134	20.733801
2488.627118	-2.997200	3.131900	-9.386100	27.186707	-0.000133	20.728486
2489.632854	-2.993200	3.130600	-9.369200	27.199057	-0.000132	20.735218
2490.626800	-2.992200	3.130600	-9.366500	27.211472	-0.000133	20.742490
2491.625017	-2.989900	3.129100	-9.355000	27.180137	-0.000133	20.724249
2492.628204	-3.008100	3.126600	-9.404400	27.198498	-0.000133	20.733233
2493.624437	-2.992000	3.127800	-9.357200	27.203340	-0.000131	20.740475
2494.628988	-2.980500	3.125900	-9.316100	27.203517	-0.000130	20.709831
2495.625875	-2.992400	3.125300	-9.351400	27.188854	-0.000132	20.730646
2496.626534	-3.026800	3.124500	-9.454900	27.204087	-0.000133	20.730320
2497.630160	-3.016300	3.123600	-9.419800	27.212136	-0.000133	20.759754
2498.630392	-2.995000	3.125200	-9.358300	27.210771	-0.000133	20.748897
2499.627791	-2.990900	3.123400	-9.341100	27.197778	-0.000133	20.735354
2500.624668	-2.978300	3.123100	-9.300800	27.207653	-0.000132	20.737700
2501.632367	-3.020000	3.120000	-9.421400	27.212166	-0.000132	20.742713
2502.627090	-2.992400	3.119600	-9.334100	27.215348	-0.000132	20.737854
2503.626915	-2.978600	3.119700	-9.291800	27.227212	-0.000132	20.740778
2504.631734	-3.007800	3.118100	-9.377600	27.231951	-0.000132	20.744596
2505.627644	-3.008800	3.117300	-9.378300	27.239198	-0.000132	20.739558
2506.628583	-3.005700	3.117900	-9.370500	27.220146	-0.000133	20.764018
2507.630195	-3.004200	3.116900	-9.363000	27.211740	-0.000132	20.747501
2508.628027	-3.008400	3.115200	-9.370100	27.240991	-0.000133	20.740887
2509.628299	-2.988700	3.113900	-9.305600	27.234367	-0.000131	20.736595
2510.632463	-2.989600	3.113100	-9.305000	27.232138	-0.000133	20.722498
2511.637578	-3.013900	3.113700	-9.383500	27.248490	-0.000130	20.746059
2512.628738	-2.990900	3.115200	-9.315600	27.258915	-0.000132	20.759865
2513.632218	-3.004100	3.110600	-9.343600	27.266015	-0.000132	20.755153
2514.636130	-2.995700	3.111400	-9.319900	27.282617	-0.000132	20.747671
2515.632953	-2.992600	3.108500	-9.301800	27.263492	-0.000133	20.741235
2516.630622	-3.005800	3.107900	-9.340900	27.281802	-0.000132	20.736893
2517.630070	-2.996900	3.108400	-9.314800	27.298777	-0.000132	20.733579
2518.633382	-2.996300	3.109200	-9.315400	27.276328	-0.000134	20.745138
2519.631445	-2.999900	3.105600	-9.316000	27.289851	-0.000133	20.763008
2520.630732	-3.015200	3.104900	-9.360900	27.302204	-0.000132	20.738924
2521.630646	-3.008300	3.104100	-9.337900	27.294177	-0.000132	20.752661
2522.630608	-3.008600	3.103000	-9.334700	27.291913	-0.000132	20.756548
2523.635207	-2.980900	3.102300	-9.246700	27.295243	-0.000132	20.738085
2524.630720	-3.005400	3.101200	-9.318700	27.310607	-0.000133	20.755912
2525.630582	-2.999200	3.100600	-9.298300	27.329167	-0.000133	20.766996
2526.633474	-3.011300	3.100000	-9.334500	27.314953	-0.000132	20.762180
2527.631134	-3.003600	3.099000	-9.307400	27.310495	-0.000133	20.759118
2528.635970	-2.986600	3.098600	-9.253500	27.317516	-0.000133	20.768552
2529.641114	-3.002000	3.097000	-9.296400	27.318312	-0.000133	20.726677
2530.632356	-3.001400	3.096900	-9.294300	27.316898	-0.000134	20.763663
2531.635494	-3.029300	3.093800	-9.371000	27.336076	-0.000131	20.751660
2532.634883	-2.996400	3.093900	-9.269500	27.322290	-0.000132	20.766242
2533.632770	-3.009100	3.092400	-9.303900	27.324303	-0.000133	20.752145
2534.632395	-3.044500	3.090600	-9.407900	27.348666	-0.000133	20.773809
2535.633015	-2.985200	3.090000	-9.223400	27.338449	-0.000134	20.756893
2536.634531	-2.992900	3.090000	-9.247200	27.314666	-0.000133	20.756676
2537.635341	-2.992500	3.088500	-9.240700	27.351854	-0.000134	20.768481
2538.636117	-3.014100	3.087800	-9.305600	27.351609	-0.000131	20.751164
2539.637899	-2.994300	3.086400	-9.241000	27.358036	-0.000132	20.751465
2540.647298	-2.992300	3.084700	-9.228900	27.336953	-0.000131	20.767242
2541.638549	-3.003300	3.083600	-9.259300	27.353328	-0.000133	20.759058
2542.638586	-2.995200	3.083600	-9.235500	27.356333	-0.000132	20.748330
2543.638630	-3.002800	3.081800	-9.252900	27.349096	-0.000134	20.767603
2544.639971	-3.019600	3.079700	-9.297900	27.370533	-0.000133	20.770676
2545.641582	-3.001500	3.080100	-9.244100	27.381771	-0.000132	20.764438
2546.642484	-2.979100	3.079800	-9.173600	27.395617	-0.000133	20.769832
2547.638216	-3.008200	3.077900	-9.258100	27.394257	-0.000131	20.758981
2548.639627	-3.007600	3.075800	-9.250300	27.364741	-0.000132	20.765797
2549.642167	-2.991000	3.075900	-9.198500	27.407465	-0.000132	20.750456
2550.639359	-2.985600	3.075000	-9.179800	27.418801	-0.000134	20.747636
2551.639297	-3.000400	3.073600	-9.221000	27.404735	-0.000134	20.778057
2552.643215	-2.995800	3.072200	-9.202300	27.416548	-0.000133	20.770026
2553.641081	-3.001600	3.072100	-9.221200	27.442005	-0.000135	20.752962
2554.645977	-3.029200	3.069600	-9.297200	27.421316	-0.000133	20.778616
2555.639645	-2.998400	3.068400	-9.198800	27.429456	-0.000132	20.783960
2556.644883	-3.017100	3.067400	-9.254000	27.432706	-0.000133	20.751668
2557.651659	-3.014800	3.066000	-9.242600	27.424174	-0.000133	20.766792
2558.648216	-2.989100	3.067200	-9.167000	27.420115	-0.000134	20.791632
2559.642425	-2.992400	3.064100	-9.168400	27.425274	-0.000133	20.771218
2560.644307	-2.999700	3.063200	-9.187500	27.436139	-0.000133	20.752750
2561.643271	-2.972400	3.062100	-9.100400	27.443661	-0.000133	20.776440
2562.644288	-2.998500	3.060300	-9.175700	27.460829	-0.000132	20.756253
2563.641911	-3.008200	3.058300	-9.198400	27.444432	-0.000133	20.762042
2564.644221	-3.016400	3.057500	-9.221700	27.458228	-0.000134	20.777818
2565.649070	-2.991000	3.058900	-9.147700	27.467880	-0.000130	20.776623
2566.655745	-3.023300	3.054800	-9.234700	27.470261	-0.000133	20.754836
2567.659480	-3.011200	3.054800	-9.197400	27.468081	-0.000134	20.773981
2568.651379	-3.008100	3.053500	-9.184000	27.460938	-0.000133	20.762053
2569.654757	-3.011700	3.051900	-9.190800	27.465804	-0.000132	20.782121
2570.647681	-2.999300	3.051800	-9.152900	27.485505	-0.000133	20.775864
2571.658967	-3.006400	3.050900	-9.171200	27.482152	-0.000133	20.772964
2572.653519	-3.013200	3.048600	-9.184200	27.471312	-0.000133	20.785292
2573.648306	-3.006300	3.046700	-9.158400	27.479624	-0.000135	20.782749
2574.648266	-2.973200	3.047200	-9.059200	27.474415	-0.000133	20.793630
2575.652047	-2.984000	3.045900	-9.087600	27.494343	-0.000132	20.782384
2576.649113	-2.992600	3.044000	-9.108500	27.500439	-0.000133	20.766233
2577.652827	-2.962700	3.044600	-9.019200	27.493248	-0.000132	20.781283
2578.649932	-2.977100	3.042100	-9.056100	27.508089	-0.000133	20.782464
2579.650778	-2.981000	3.040400	-9.062700	27.499104	-0.000134	20.776744
2580.650702	-3.002400	3.039800	-9.125800	27.503474	-0.000133	20.802477
2581.656725	-3.043600	3.036900	-9.242300	27.496233	-0.000133	20.788080
2582.661718	-2.993000	3.035400	-9.084600	27.493901	-0.000132	20.781941
2583.652161	-3.006700	3.034700	-9.123300	27.512262	-0.000131	20.793775
2584.652161	-2.993300	3.033400	-9.078600	27.517770	-0.000131	20.770868
2585.659847	-2.999700	3.032500	-9.095300	27.526773	-0.000133	20.773288
2586.659877	-3.012000	3.030800	-9.127900	27.527324	-0.000132	20.782851
2587.658256	-3.006500	3.029300	-9.105900	27.541535	-0.000134	20.779605
2588.658229	-2.993000	3.028100	-9.062200	27.526607	-0.000133	20.777388
2589.655939	-2.998800	3.027400	-9.077700	27.544845	-0.000133	20.793367
2590.653572	-2.989000	3.025800	-9.043000	27.549479	-0.000134	20.804193
2591.657762	-2.993700	3.024500	-9.053600	27.534159	-0.000132	20.784037
2592.656824	-2.983000	3.024300	-9.020400	27.565855	-0.000134	20.784161
2593.654589	-2.995800	3.021900	-9.051700	27.557354	-0.000133	20.799315
2594.657370	-3.021900	3.021000	-9.128000	27.578884	-0.000133	20.796322
2595.666761	-2.979100	3.018700	-8.991900	27.550884	-0.000134	20.780003
2596.668495	-2.972400	3.019800	-8.974700	27.553614	-0.000133	20.796500
2597.659086	-2.988500	3.017700	-9.016900	27.561454	-0.000135	20.796327
2598.662382	-3.021900	3.015400	-9.111300	27.541734	-0.000133	20.789289
2599.657640	-2.986600	3.013400	-8.999000	27.567708	-0.000133	20.793611
2600.661319	-2.999200	3.012400	-9.034100	27.563785	-0.000132	20.802467
2601.659214	-3.032000	3.009900	-9.125000	27.564611	-0.000131	20.802349
2602.659214	-3.010800	3.009200	-9.059400	27.572175	-0.000131	20.793839
2603.660785	-3.011300	3.007300	-9.054700	27.581777	-0.000135	20.800181
2604.662432	-3.015300	3.008000	-9.068900	27.589543	-0.000130	20.793296
2605.666873	-3.003800	3.006400	-9.030000	27.616624	-0.000131	20.794466
2606.663146	-3.021700	3.002900	-9.072900	27.609158	-0.000132	20.817774
2607.661070	-2.989900	3.003500	-8.978800	27.593539	-0.000131	20.783092
2608.659886	-3.005900	3.001700	-9.021600	27.614690	-0.000132	20.805797
2609.665218	-2.993900	3.000000	-8.979900	27.622652	-0.000133	20.818075
2610.660945	-3.017300	2.998800	-9.046600	27.604696	-0.000131	20.805698
2611.670858	-3.013100	2.996800	-9.028600	27.614794	-0.000132	20.800685
2612.662700	-3.000200	2.995600	-8.986600	27.623791	-0.000131	20.795039
2613.662570	-2.962800	2.995300	-8.873300	27.626776	-0.000132	20.806578
2614.662361	-2.974800	2.993100	-8.903400	27.636342	-0.000132	20.802927
2615.663818	-2.988200	2.990100	-8.934900	27.628263	-0.000131	20.803333
2616.665354	-3.001600	2.990000	-8.973200	27.630834	-0.000131	20.787428
2617.662458	-2.987600	2.989700	-8.930000	27.636966	-0.000134	20.786011
2618.662282	-2.999100	2.988100	-8.960400	27.650337	-0.000133	20.816061
2619.663791	-3.011500	2.985000	-8.988600	27.658887	-0.000132	20.823716
2620.667934	-2.957400	2.984800	-8.826500	27.655790	-0.000134	20.806375
2621.665534	-3.025300	2.982600	-9.022200	27.653605	-0.000132	20.814608
2622.663190	-2.990700	2.981900	-8.917100	27.656335	-0.000130	20.822570
2623.671771	-2.999900	2.981100	-8.941000	27.667295	-0.000133	20.817478
2624.666584	-2.986700	2.979000	-8.896800	27.671909	-0.000130	20.826388
2625.666115	-2.995200	2.977000	-8.915900	27.665729	-0.000131	20.829652
2626.669105	-3.010600	2.974800	-8.954900	27.674987	-0.000130	20.833278
2627.665682	-3.004500	2.974800	-8.937000	27.700475	-0.000130	20.811037
2628.664939	-3.000200	2.973800	-8.920200	27.715479	-0.000131	20.821868
2629.668522	-3.014200	2.970900	-8.953500	27.680238	-0.000131	20.816751
2630.667410	-3.021700	2.969500	-8.971700	27.708834	-0.000132	20.815655
2631.668964	-3.003600	2.968100	-8.914400	27.716490	-0.000131	20.820040
2632.667251	-2.984100	2.967000	-8.853000	27.700499	-0.000133	20.828131
2633.666082	-2.977800	2.966400	-8.833100	27.701496	-0.000131	20.812539
2634.669526	-2.966700	2.965200	-8.795700	27.702738	-0.000131	20.817582
2635.666602	-2.957900	2.963100	-8.763500	27.700382	-0.000129	20.849823
2636.666903	-3.014800	2.959100	-8.919100	27.725355	-0.000131	20.819004
2637.667979	-2.986600	2.958800	-8.835600	27.713526	-0.000131	20.833653
2638.668374	-2.983200	2.958100	-8.823400	27.727814	-0.000130	20.830014
2639.667981	-2.986200	2.955900	-8.825500	27.720202	-0.000130	20.823776
2640.672162	-3.001300	2.954500	-8.866100	27.711922	-0.000132	20.831091
2641.669273	-2.969100	2.953200	-8.767600	27.718843	-0.000135	20.820038
2642.672894	-3.032300	2.950700	-8.946000	27.755246	-0.000134	20.850032
2643.670031	-2.995500	2.950400	-8.837300	27.751850	-0.000132	20.835235
2644.669551	-2.999400	2.948600	-8.843700	27.742756	-0.000133	20.833196
2645.678760	-2.998400	2.946500	-8.833300	27.752583	-0.000133	20.816058
2646.670089	-3.027400	2.943900	-8.911800	27.763664	-0.000133	20.833374
2647.670847	-2.990900	2.944400	-8.806000	27.782236	-0.000131	20.842106
2648.669177	-3.001300	2.941400	-8.827100	27.769019	-0.000132	20.838288
2649.675594	-3.006300	2.940800	-8.839100	27.787032	-0.000130	20.845984
2650.668815	-3.005800	2.937800	-8.829000	27.773790	-0.000132	20.829340
2651.669620	-3.019300	2.937100	-8.866600	27.781310	-0.000132	20.843545
2652.676231	-2.984000	2.935500	-8.757700	27.792275	-0.000132	20.835139
2653.674468	-3.010900	2.933800	-8.832800	27.778832	-0.000132	20.849585
2654.677255	-2.991100	2.933300	-8.772700	27.802811	-0.000133	20.840528
2655.672551	-3.013900	2.930300	-8.830600	27.813757	-0.000131	20.844905
2656.672572	-2.994200	2.929300	-8.770100	27.814296	-0.000132	20.837861
2657.675159	-2.984700	2.927300	-8.736100	27.794244	-0.000134	20.843285
2658.672103	-2.992800	2.925500	-8.753600	27.814007	-0.000134	20.822872
2659.672502	-3.006500	2.923900	-8.789900	27.803318	-0.000133	20.843408
2660.674690	-3.031500	2.920900	-8.853500	27.834920	-0.000131	20.846289
2661.672849	-2.984000	2.921300	-8.715700	27.807619	-0.000134	20.844891
2662.676781	-3.006800	2.918200	-8.773400	27.819623	-0.000134	20.831843
2663.676374	-3.025000	2.915900	-8.819000	27.821807	-0.000135	20.856325
2664.672893	-3.020300	2.915100	-8.803400	27.812036	-0.000133	20.844595
2665.687202	-3.009100	2.913700	-8.766300	27.815639	-0.000134	20.863868
2666.673218	-3.000900	2.912400	-8.738100	27.836394	-0.000133	20.845401
2667.677129	-3.035900	2.909500	-8.832200	27.827020	-0.000133	20.842132
2668.679262	-3.028700	2.908300	-8.807400	27.846655	-0.000132	20.841978
2669.677965	-3.014300	2.905200	-8.755700	27.843393	-0.000135	20.866669
2670.677149	-3.009500	2.904400	-8.738400	27.849498	-0.000135	20.860960
2671.676273	-2.971800	2.904100	-8.629300	27.872626	-0.000136	20.847728
2672.675427	-3.014200	2.901200	-8.743100	27.852900	-0.000134	20.871969
2673.678876	-3.004700	2.899100	-8.709900	27.861728	-0.000133	20.847191
2674.677042	-3.023800	2.896900	-8.759000	27.882580	-0.000133	20.832142
2675.677141	-2.982900	2.896400	-8.638800	27.858161	-0.000134	20.858299
2676.677412	-3.006100	2.893800	-8.698400	27.867736	-0.000134	20.847548
2677.678843	-3.014200	2.890900	-8.712800	27.884593	-0.000133	20.860719
2678.688180	-3.008400	2.889700	-8.692500	27.896994	-0.000134	20.860873
2679.678501	-3.023700	2.887600	-8.729500	27.893201	-0.000133	20.844728
2680.686318	-3.006300	2.884900	-8.671900	27.888067	-0.000133	20.878440
2681.678603	-3.017300	2.884000	-8.701000	27.906666	-0.000132	20.850694
2682.682297	-3.000200	2.881700	-8.644800	27.916987	-0.000133	20.862504
2683.689164	-2.986200	2.879600	-8.597800	27.907443	-0.000133	20.873285
2684.684546	-2.986800	2.879000	-8.597900	27.930251	-0.000133	20.861629
2685.680987	-3.009600	2.875900	-8.654600	27.914632	-0.000131	20.852073
2686.680256	-3.010500	2.873400	-8.649700	27.917948	-0.000134	20.865367
2687.684931	-3.008400	2.872600	-8.641200	27.918651	-0.000133	20.852799
2688.680612	-3.015000	2.870000	-8.651900	27.949890	-0.000132	20.861007
2689.686341	-3.007400	2.868000	-8.623900	27.939605	-0.000133	20.853501
2690.705172	-3.010300	2.866100	-8.627000	27.955439	-0.000133	20.846679
2691.685087	-2.991700	2.864100	-8.567500	27.953836	-0.000132	20.864504
2692.685307	-3.007700	2.862800	-8.608100	27.954356	-0.000132	20.855071
2693.690032	-2.985900	2.861400	-8.542600	27.962040	-0.000132	20.872762
2694.686853	-2.992400	2.858500	-8.552800	27.950660	-0.000133	20.857516
2695.684499	-3.006500	2.854300	-8.580400	27.953187	-0.000132	20.849628
2696.687488	-2.992200	2.853200	-8.536300	27.968812	-0.000131	20.834535
2697.687357	-3.006100	2.850300	-8.566900	27.977139	-0.000134	20.858089
2698.685467	-3.005500	2.849300	-8.563500	27.981555	-0.000135	20.832189
2699.687321	-2.982100	2.848600	-8.493700	27.986211	-0.000131	20.843040
2700.688787	-2.992600	2.846400	-8.517000	27.987374	-0.000132	20.843262
2701.687840	-2.992300	2.843700	-8.508100	27.992041	-0.000131	20.847959
2702.688671	-3.009400	2.841500	-8.550100	28.011128	-0.000132	20.849628
2703.696915	-3.001500	2.839000	-8.520200	28.009789	-0.000133	20.836426
2704.689724	-2.991500	2.836400	-8.484100	28.015961	-0.000132	20.851174
2705.690654	-3.000200	2.834300	-8.502300	28.016432	-0.000134	20.836950
2706.694295	-3.003400	2.832100	-8.504800	28.007899	-0.000133	20.840214
2707.691958	-2.982900	2.829900	-8.440400	28.022379	-0.000132	20.809745
2708.693710	-3.005400	2.827700	-8.497500	28.034651	-0.000134	20.820675
2709.695729	-2.984200	2.826100	-8.433200	28.014200	-0.000133	20.846556
2710.692774	-2.986900	2.822300	-8.428200	28.025872	-0.000132	20.837443
2711.694167	-3.020100	2.819900	-8.515400	28.030313	-0.000133	20.831956
2712.705614	-2.973600	2.819500	-8.383100	28.030686	-0.000132	20.810521
2713.696795	-2.956700	2.817300	-8.327500	28.032192	-0.000134	20.828632
2714.693842	-3.004000	2.813400	-8.450300	28.018115	-0.000133	20.816833
2715.693511	-3.008700	2.810700	-8.455500	28.061225	-0.000131	20.823243
2716.699073	-2.999600	2.807700	-8.420300	28.053070	-0.000132	20.797966
2717.692822	-3.005500	2.805700	-8.431300	28.054233	-0.000132	20.816205
2718.695274	-3.007500	2.803100	-8.429400	28.066572	-0.000130	20.824359
2719.698948	-3.012100	2.799900	-8.432700	28.077931	-0.000132	20.816827
2720.695755	-3.007700	2.798100	-8.415100	28.071459	-0.000132	20.826434
2721.695326	-2.980400	2.795300	-8.330000	28.056484	-0.000133	20.826058
2722.694875	-2.997600	2.792700	-8.370700	28.076444	-0.000132	20.839986
2723.708056	-3.030200	2.789900	-8.452800	28.089897	-0.000131	20.820338
2724.704258	-3.006400	2.788600	-8.382100	28.084367	-0.000131	20.812401
2725.707148	-3.006300	2.784500	-8.371000	28.089107	-0.000132	20.824285
2726.696754	-2.976300	2.783400	-8.282800	28.090172	-0.000130	20.822511
2727.701999	-2.976500	2.780500	-8.275000	28.087713	-0.000131	20.835209
2728.697374	-2.972900	2.779300	-8.262100	28.096730	-0.000130	20.819157
2729.697436	-3.009100	2.774000	-8.346200	28.115277	-0.000130	20.807007
2730.697343	-3.007900	2.770400	-8.331900	28.131566	-0.000130	20.813922
2731.697243	-2.987800	2.768300	-8.270700	28.128171	-0.000133	20.813349
2732.700297	-2.987600	2.766400	-8.263000	28.128043	-0.000132	20.823651
2733.697556	-2.968500	2.763700	-8.202900	28.152657	-0.000131	20.820456
2734.698283	-2.995500	2.760100	-8.267400	28.166120	-0.000130	20.819310
2735.698659	-2.976700	2.757800	-8.208100	28.167454	-0.000130	20.813541
2736.700822	-3.000400	2.754500	-8.264000	28.173925	-0.000130	20.821478
2737.701566	-3.025400	2.751000	-8.322200	28.177943	-0.000132	20.812721
2738.698791	-2.995000	2.747600	-8.228100	28.184458	-0.000131	20.817383
2739.699483	-2.990100	2.745400	-8.208500	28.184091	-0.000129	20.831238
2740.703054	-2.995100	2.742200	-8.212000	28.226184	-0.000130	20.804864
2741.698928	-2.994000	2.739100	-8.200100	28.195290	-0.000130	20.800788
2742.703047	-2.998500	2.734200	-8.197800	28.219236	-0.000133	20.820154
2743.700079	-2.999600	2.732100	-8.194500	28.207884	-0.000133	20.811096
2744.699063	-3.007100	2.727800	-8.201700	28.230637	-0.000132	20.806028
2745.699619	-2.974600	2.725500	-8.105900	28.239291	-0.000131	20.803362
2746.705569	-2.986300	2.722500	-8.129400	28.216906	-0.000131	20.820653
2747.701242	-2.995700	2.718000	-8.141800	28.247518	-0.000130	20.804058
2748.699823	-3.006200	2.713600	-8.156800	28.243658	-0.000129	20.812974
2749.700268	-3.041800	2.710200	-8.242200	28.246826	-0.000131	20.831336
2750.702918	-2.967900	2.707500	-8.034100	28.273401	-0.000131	20.812573
2751.702994	-3.023600	2.702600	-8.169000	28.255554	-0.000131	20.780854
2752.700795	-2.985500	2.699900	-8.059700	28.279272	-0.000131	20.806631
2753.709260	-3.022300	2.695100	-8.144100	28.282520	-0.000132	20.799944
2754.703312	-3.022300	2.689900	-8.128600	28.293803	-0.000133	20.795183
2755.705360	-3.029700	2.686500	-8.138200	28.297051	-0.000133	20.807936
2756.703088	-2.986900	2.683100	-8.012700	28.310011	-0.000131	20.810079
2757.703335	-3.010200	2.676900	-8.057000	28.312744	-0.000133	20.798133
2758.702263	-2.993100	2.674600	-8.004000	28.313411	-0.000132	20.819667
2759.702187	-3.006100	2.669300	-8.023500	28.341989	-0.000134	20.786328
2760.704342	-3.036000	2.663500	-8.085500	28.343775	-0.000132	20.794290
2761.703235	-3.016700	2.658600	-8.019300	28.323207	-0.000131	20.787806
2762.707986	-3.030900	2.654300	-8.043400	28.344050	-0.000132	20.797412
2763.708207	-3.026900	2.649800	-8.019900	28.345884	-0.000131	20.793569
2764.711224	-2.993500	2.646400	-7.920700	28.358177	-0.000133	20.785558
2765.706251	-3.002600	2.640600	-7.927500	28.368683	-0.000133	20.812259
2766.710260	-2.994200	2.636800	-7.893800	28.397389	-0.000131	20.805127
2767.706500	-3.044800	2.630300	-8.008100	28.394814	-0.000134	20.802535
2768.706372	-2.984100	2.626200	-7.836200	28.398281	-0.000132	20.800811
2769.710464	-3.011000	2.619700	-7.887300	28.408262	-0.000133	20.784308
2770.707102	-3.001500	2.614600	-7.846900	28.404030	-0.000131	20.784788
2771.710665	-2.987600	2.611400	-7.800900	28.427916	-0.000130	20.797461
2772.714101	-2.999500	2.605300	-7.814200	28.424351	-0.000131	20.783914
2773.709329	-3.020600	2.599300	-7.850700	28.423733	-0.000132	20.783766
2774.709369	-2.996600	2.593900	-7.771800	28.435976	-0.000132	20.791352
2775.713828	-3.020400	2.586900	-7.812700	28.433224	-0.000131	20.800435
2776.712041	-3.008500	2.582200	-7.767300	28.454437	-0.000133	20.780071
2777.714150	-2.971100	2.577900	-7.658500	28.475454	-0.000131	20.776105
2778.711015	-2.985000	2.571500	-7.674900	28.462570	-0.000132	20.787312
2779.728657	-3.009100	2.565400	-7.718900	28.479025	-0.000130	20.794874
2780.719704	-3.004600	2.558300	-7.685900	28.459769	-0.000133	20.792079
2781.713448	-3.010000	2.552600	-7.682000	28.504352	-0.000131	20.793353
2782.712180	-2.997800	2.546600	-7.632900	28.515829	-0.000133	20.789264
2783.712276	-3.002400	2.540400	-7.626200	28.506780	-0.000130	20.782996
2784.713294	-2.983500	2.534800	-7.562200	28.519449	-0.000131	20.787219
2785.715332	-3.053700	2.526400	-7.712500	28.518654	-0.000132	20.798747
2786.713542	-3.016700	2.519800	-7.600200	28.526236	-0.000132	20.793581
2787.714732	-3.007000	2.514200	-7.559200	28.556821	-0.000132	20.797355
2788.715165	-3.024800	2.506400	-7.580100	28.534363	-0.000131	20.790385
2789.718263	-3.011700	2.499300	-7.526400	28.555628	-0.000132	20.794258
