LabVIEW Measurement	
Writer_Version	2
Reader_Version	2
Separator	Tab
Decimal_Separator	.
Multi_Headings	No
X_Columns	One
Time_Pref	Absolute
Operator	admin
Description	Clolumns are: time, Current, Voltage, Power, Battery Temp, and Chamber Temp
Date	2024/08/16
Time	13:06:06.104549407958984375
***End_of_Header***	
	
Channels	6						
Samples	1	1	1	1	1	1	
Date	2024/09/19	2024/09/19	2024/09/19	2024/09/19	2024/09/19	2024/09/19	
Time	16:07:58.7630753517150878906	16:07:58.771327972412109375	16:07:58.7773389816284179688	16:07:58.748077392578125	16:07:58.748077392578125	16:07:58.748077392578125	
X_Dimension	Time	Time	Time	Time	Time	Time	
X0	0.0000000000000000E+0	0.0000000000000000E+0	0.0000000000000000E+0	0.0000000000000000E+0	0.0000000000000000E+0	0.0000000000000000E+0	
Delta_X	1.000000	1.000000	1.000000	1.000000	1.000000	1.000000	
***End_of_Header***							
X_Value	Untitled	Untitled 1	Untitled 2	Untitled 3	Untitled 4	Untitled 5	Comment
0.000000	0.017643	4.091600	0.072121	20.962462	0.001026	20.747207
1.003083	-2.989700	3.904600	-11.673000	20.943997	0.001025	20.746758
2.000481	-2.993300	3.897000	-11.664000	20.951912	0.001025	20.746139
3.001865	-2.984100	3.894300	-11.621000	20.965512	0.001023	20.755948
4.002589	-2.990300	3.887400	-11.624000	20.965261	0.001023	20.740997
5.003179	-3.010200	3.884200	-11.691000	20.973476	0.001020	20.756801
6.004579	-3.017200	3.879400	-11.703000	20.978596	0.001021	20.750542
7.002325	-2.993400	3.879800	-11.614000	20.963574	0.001020	20.760173
8.001025	-3.003100	3.875400	-11.637000	20.968892	0.001019	20.753638
9.007620	-2.991700	3.875400	-11.592000	20.971711	0.001019	20.754087
10.005302	-2.990600	3.872300	-11.580000	20.987958	0.001017	20.748051
11.005948	-3.008700	3.869500	-11.640000	20.982198	0.001017	20.747980
12.007196	-2.988100	3.868400	-11.558000	20.997394	0.001017	20.738522
13.005306	-3.011000	3.866800	-11.642000	20.988641	0.001016	20.740199
14.005134	-2.972200	3.868300	-11.497000	21.001017	0.001016	20.740723
15.007268	-3.006200	3.865300	-11.619000	20.986572	0.001013	20.724852
16.013983	-3.006500	3.864400	-11.617000	20.995084	0.001012	20.733841
17.006484	-2.993900	3.862100	-11.562000	21.009508	0.001011	20.741629
18.006500	-2.980800	3.862500	-11.511000	21.009310	0.001012	20.718671
19.007327	-2.987200	3.859700	-11.528000	21.014508	0.001011	20.729560
20.007668	-2.993600	3.859300	-11.551000	21.019747	0.001010	20.734801
21.010625	-2.998200	3.858100	-11.565000	21.031146	0.001011	20.712535
22.010095	-2.981700	3.858000	-11.503000	21.012109	0.001011	20.720048
23.006798	-2.997700	3.855700	-11.558000	21.048046	0.001009	20.732285
24.009068	-3.009500	3.855700	-11.603000	21.048290	0.001008	20.731580
25.013262	-2.984000	3.854600	-11.500000	21.032951	0.001010	20.718608
26.007332	-2.988900	3.855100	-11.521000	21.065734	0.001009	20.709673
27.012809	-3.003500	3.853800	-11.573000	21.047951	0.001009	20.729345
28.010749	-2.978700	3.852200	-11.474000	21.092383	0.001008	20.718311
29.007915	-2.997500	3.851600	-11.544000	21.086427	0.001008	20.723259
30.015959	-2.983100	3.852600	-11.491000	21.083084	0.001008	20.718966
31.009900	-2.999700	3.849500	-11.547000	21.101200	0.001008	20.728079
32.014540	-2.999700	3.849200	-11.544000	21.076575	0.001007	20.739484
33.013167	-2.978700	3.850000	-11.466000	21.098034	0.001007	20.726334
34.014112	-2.997200	3.850300	-11.538000	21.093170	0.001007	20.719572
35.011954	-2.989800	3.847000	-11.500000	21.099332	0.001007	20.725736
36.011250	-3.007000	3.848200	-11.570000	21.126430	0.001007	20.740988
37.014558	-3.014100	3.847100	-11.595000	21.111463	0.001006	20.726965
38.010798	-3.013600	3.845300	-11.586000	21.120593	0.001008	20.718553
39.010701	-3.013900	3.845700	-11.589000	21.132348	0.001007	20.726519
40.024676	-3.005400	3.844300	-11.553000	21.133371	0.001006	20.731809
41.016464	-2.984300	3.846100	-11.476000	21.154874	0.001006	20.720128
42.015100	-2.988500	3.846600	-11.494000	21.179823	0.001006	20.727542
43.016129	-3.025400	3.843100	-11.627000	21.160715	0.001005	20.711745
44.012916	-3.006200	3.843800	-11.553000	21.176414	0.001006	20.716544
45.016489	-2.980200	3.843500	-11.453000	21.197546	0.001006	20.710182
46.016861	-2.970000	3.844100	-11.416000	21.193824	0.001005	20.707881
47.015780	-2.962900	3.843100	-11.385000	21.204878	0.001006	20.717992
48.017889	-3.002000	3.841800	-11.532000	21.214861	0.001006	20.701424
49.021781	-2.996200	3.842500	-11.512000	21.221249	0.001007	20.711608
50.023098	-3.004700	3.841600	-11.541000	21.213665	0.001006	20.722515
51.024687	-3.040400	3.839500	-11.672000	21.196779	0.001005	20.701828
52.023301	-2.981100	3.841800	-11.452000	21.229208	0.001006	20.738064
53.024270	-3.022100	3.840300	-11.605000	21.230679	0.001008	20.686901
54.020441	-3.014100	3.839300	-11.569000	21.232904	0.001007	20.709043
55.019126	-3.023700	3.837900	-11.604000	21.259443	0.001006	20.713307
56.025116	-2.997300	3.838100	-11.503000	21.267302	0.001004	20.727809
57.019712	-3.010100	3.837400	-11.550000	21.279951	0.001006	20.715806
58.020209	-2.993900	3.839700	-11.494000	21.303525	0.001006	20.745081
59.021108	-3.001100	3.837700	-11.515000	21.282222	0.001005	20.700533
60.020212	-3.016500	3.835500	-11.569000	21.298212	0.001002	20.701357
61.018715	-2.994200	3.835800	-11.485000	21.310090	0.001006	20.719879
62.019781	-3.016200	3.835000	-11.566000	21.326504	0.001006	20.704058
63.018784	-2.997000	3.836300	-11.495000	21.327477	0.001007	20.700763
64.021115	-2.987700	3.834800	-11.455000	21.328252	0.001006	20.722403
65.020083	-2.998000	3.834800	-11.496000	21.321171	0.001005	20.712473
66.019550	-2.999000	3.835400	-11.501000	21.330675	0.001006	20.694953
67.020512	-3.000700	3.833800	-11.503000	21.358088	0.001005	20.700095
68.021514	-3.021000	3.832600	-11.576000	21.364356	0.001006	20.701624
69.019347	-3.001500	3.832400	-11.502000	21.356547	0.001007	20.689543
70.021070	-2.996100	3.832800	-11.483000	21.357198	0.001003	20.712007
71.023136	-3.001200	3.832900	-11.502000	21.374036	0.001004	20.695662
72.019808	-3.009000	3.831600	-11.528000	21.399253	0.001005	20.700029
73.024590	-2.979500	3.832800	-11.419000	21.413074	0.001007	20.721445
74.023883	-3.007500	3.832000	-11.524000	21.436266	0.001006	20.696759
75.024079	-2.981700	3.832700	-11.427000	21.400530	0.001007	20.691823
76.023325	-3.013200	3.830200	-11.541000	21.444454	0.001006	20.683139
77.022845	-2.997300	3.831500	-11.483000	21.449321	0.001005	20.697492
78.021054	-2.996900	3.830900	-11.478000	21.459725	0.001006	20.696049
79.027254	-2.985400	3.830800	-11.436000	21.473567	0.001006	20.693303
80.026726	-3.008600	3.830000	-11.522000	21.475611	0.001005	20.705780
81.022050	-3.013500	3.829800	-11.540000	21.497462	0.001006	20.706308
82.027651	-3.003800	3.828600	-11.499000	21.494046	0.001007	20.694828
83.025321	-2.994400	3.829100	-11.465000	21.490502	0.001005	20.686540
84.024137	-3.029500	3.826800	-11.592000	21.507339	0.001004	20.690111
85.036276	-3.018600	3.826500	-11.550000	21.490729	0.001005	20.694828
86.033865	-2.983800	3.829600	-11.426000	21.524274	0.001004	20.700420
87.024386	-2.957900	3.829600	-11.327000	21.504273	0.001005	20.676611
88.030963	-2.963400	3.829500	-11.346000	21.511377	0.001006	20.699842
89.033810	-3.013200	3.827400	-11.532000	21.529042	0.001004	20.698552
90.033549	-2.985900	3.828200	-11.430000	21.537596	0.001007	20.699525
91.029578	-3.003200	3.826700	-11.490000	21.549487	0.001006	20.699096
92.026965	-2.993800	3.826600	-11.455000	21.552911	0.001007	20.712006
93.030354	-2.994000	3.827100	-11.456000	21.572660	0.001007	20.689092
94.032606	-2.988400	3.826600	-11.435000	21.573332	0.001007	20.703990
95.029374	-2.997200	3.824900	-11.463000	21.592688	0.001009	20.724784
96.028635	-2.996500	3.824900	-11.460000	21.605181	0.001009	20.687022
97.029915	-2.995300	3.824800	-11.455000	21.610793	0.001007	20.702122
98.029173	-2.996100	3.824800	-11.458000	21.606784	0.001006	20.692420
99.031700	-3.001700	3.824000	-11.478000	21.625061	0.001009	20.705495
100.033286	-3.012100	3.824400	-11.517000	21.610022	0.001007	20.701351
101.030498	-3.010200	3.824000	-11.509000	21.619350	0.001008	20.705470
102.034266	-3.004400	3.823500	-11.486000	21.624871	0.001009	20.692976
103.031104	-2.995400	3.823600	-11.451000	21.638508	0.001009	20.706151
104.034402	-3.010400	3.822700	-11.507000	21.625769	0.001009	20.704307
105.031922	-3.000400	3.824200	-11.473000	21.638463	0.001010	20.693776
106.037351	-3.002200	3.823400	-11.478000	21.640762	0.001011	20.724528
107.032715	-2.996100	3.821900	-11.450000	21.671361	0.001010	20.704414
108.037449	-3.020200	3.821500	-11.541000	21.662108	0.001010	20.711276
109.035078	-2.999200	3.821900	-11.462000	21.663109	0.001012	20.701371
110.038429	-3.002600	3.822100	-11.475000	21.674228	0.001013	20.704913
111.035157	-2.985300	3.822200	-11.407000	21.711736	0.001012	20.716372
112.037774	-2.995300	3.821500	-11.445000	21.708395	0.001013	20.701647
113.035501	-3.011000	3.821300	-11.505000	21.722937	0.001011	20.716203
114.039847	-2.983200	3.821500	-11.399000	21.728474	0.001012	20.703725
115.040740	-2.997300	3.820700	-11.449000	21.742584	0.001011	20.708838
116.034498	-2.986700	3.821300	-11.411000	21.741468	0.001013	20.692547
117.035969	-3.009700	3.819700	-11.495000	21.764233	0.001014	20.710116
118.036523	-3.011200	3.818400	-11.496000	21.772843	0.001015	20.704983
119.036069	-3.014800	3.818600	-11.510000	21.770721	0.001015	20.718982
120.038739	-3.000100	3.818900	-11.456000	21.778676	0.001017	20.718408
121.040792	-3.001800	3.818200	-11.461000	21.803039	0.001015	20.733784
122.038480	-2.986400	3.817700	-11.398000	21.805984	0.001016	20.718713
123.037218	-3.007700	3.817700	-11.480000	21.787508	0.001016	20.705436
124.046149	-3.005800	3.817700	-11.474000	21.811068	0.001017	20.723802
125.037133	-3.005500	3.816800	-11.470000	21.833461	0.001017	20.699746
126.037666	-3.002200	3.817900	-11.462000	21.856323	0.001020	20.703663
127.043711	-3.010800	3.815400	-11.487000	21.867346	0.001019	20.715171
128.042316	-3.008700	3.816200	-11.479000	21.863454	0.001019	20.716965
129.041624	-3.013400	3.816000	-11.498000	21.897260	0.001020	20.734209
130.043414	-2.995400	3.816900	-11.432000	21.898508	0.001020	20.711275
131.044864	-2.990000	3.817500	-11.413000	21.908155	0.001018	20.722829
132.042009	-3.010600	3.815200	-11.485000	21.925278	0.001021	20.708673
133.043173	-2.989500	3.815800	-11.406000	21.916006	0.001020	20.734955
134.046672	-3.009000	3.815500	-11.479000	21.944823	0.001022	20.715910
135.042641	-2.962200	3.817000	-11.306000	21.923008	0.001022	20.728688
136.042728	-2.993200	3.815400	-11.419000	21.938887	0.001022	20.730832
137.046882	-3.017500	3.814800	-11.510000	21.947912	0.001021	20.717106
138.051184	-3.012200	3.814300	-11.488000	21.926617	0.001023	20.715230
139.044878	-2.996400	3.815800	-11.432000	21.927465	0.001022	20.727934
140.051492	-3.007900	3.815300	-11.473000	21.937285	0.001023	20.725909
141.045749	-3.010900	3.814700	-11.485000	21.965780	0.001022	20.709387
142.048882	-2.995000	3.815300	-11.425000	21.981485	0.001024	20.749292
143.050750	-2.980100	3.814500	-11.367000	21.957126	0.001024	20.743400
144.051269	-2.984600	3.814100	-11.382000	21.970060	0.001025	20.734535
145.046183	-2.992200	3.813300	-11.408000	21.956051	0.001024	20.714822
146.055773	-3.001300	3.811900	-11.440000	21.967168	0.001025	20.730692
147.052763	-2.981600	3.814100	-11.370000	21.974319	0.001026	20.714616
148.049006	-3.005700	3.812000	-11.456000	21.956995	0.001026	20.740423
149.056949	-3.004900	3.812200	-11.454000	21.976712	0.001027	20.749256
150.049009	-2.986800	3.813000	-11.388000	21.980670	0.001028	20.720026
151.053954	-3.006600	3.811300	-11.458000	21.996771	0.001030	20.720022
152.056153	-3.007000	3.810900	-11.458000	21.998662	0.001031	20.741356
153.052620	-2.995700	3.812900	-11.420000	22.013098	0.001030	20.726409
154.050687	-2.996600	3.810900	-11.419000	22.026282	0.001031	20.751462
155.053825	-3.016600	3.809800	-11.491000	22.055920	0.001029	20.726129
156.054964	-2.999500	3.810600	-11.428000	22.032184	0.001031	20.733662
157.053730	-3.019100	3.809900	-11.502000	22.073910	0.001032	20.740346
158.057635	-3.006600	3.810000	-11.454000	22.066780	0.001031	20.742692
159.049731	-3.001300	3.809800	-11.434000	22.080466	0.001032	20.749281
160.052032	-3.002500	3.810000	-11.438000	22.101277	0.001032	20.732182
161.053245	-3.022500	3.807200	-11.505000	22.117108	0.001032	20.755145
162.053038	-2.996800	3.808900	-11.414000	22.123533	0.001035	20.742610
163.053871	-3.007800	3.808900	-11.455000	22.133573	0.001033	20.757879
164.055515	-2.998500	3.808000	-11.417000	22.134945	0.001035	20.742656
165.053263	-2.993800	3.809500	-11.403000	22.130629	0.001035	20.738809
166.052670	-2.993000	3.808900	-11.399000	22.169884	0.001036	20.742075
167.054394	-3.006000	3.807800	-11.445000	22.173747	0.001036	20.752107
168.058206	-2.974500	3.807200	-11.323000	22.191294	0.001038	20.761141
169.052772	-3.020400	3.807600	-11.498000	22.173566	0.001038	20.738649
170.053528	-2.997700	3.808100	-11.415000	22.206441	0.001039	20.745485
171.059335	-3.004000	3.806600	-11.434000	22.227278	0.001038	20.731260
172.054729	-2.998600	3.806400	-11.413000	22.202426	0.001039	20.753793
173.057274	-3.003000	3.806600	-11.430000	22.209155	0.001037	20.762428
174.058194	-2.976400	3.806700	-11.329000	22.227768	0.001040	20.763520
175.054184	-2.997600	3.806200	-11.409000	22.226252	0.001041	20.740665
176.073147	-3.007700	3.804400	-11.441000	22.256103	0.001041	20.733569
177.056191	-2.983500	3.806400	-11.355000	22.252216	0.001038	20.766188
178.055830	-2.994000	3.804500	-11.390000	22.260761	0.001042	20.769528
179.055669	-3.009500	3.804600	-11.447000	22.292983	0.001041	20.771446
180.061962	-3.019800	3.804300	-11.487000	22.296969	0.001042	20.754574
181.057287	-3.017700	3.803100	-11.475000	22.294198	0.001043	20.782620
182.059773	-3.011100	3.802800	-11.449000	22.286069	0.001044	20.751247
183.061661	-2.981500	3.804200	-11.341000	22.285073	0.001043	20.755465
184.057944	-2.988300	3.804000	-11.366000	22.280758	0.001046	20.763946
185.058134	-3.001500	3.802300	-11.411000	22.277917	0.001044	20.765843
186.060555	-2.988000	3.803500	-11.364000	22.278036	0.001044	20.751738
187.059137	-3.009700	3.802200	-11.441000	22.304558	0.001043	20.771657
188.059541	-3.018700	3.802500	-11.476000	22.286157	0.001045	20.761292
189.062600	-2.999000	3.801900	-11.401000	22.313749	0.001047	20.780860
190.066157	-3.011900	3.801500	-11.448000	22.305448	0.001046	20.763539
191.063472	-3.023500	3.802900	-11.496000	22.353694	0.001046	20.772495
192.063873	-2.999000	3.801200	-11.398000	22.360430	0.001047	20.767386
193.060926	-3.021500	3.801700	-11.486000	22.389478	0.001049	20.781302
194.066029	-2.978000	3.802800	-11.324000	22.399253	0.001048	20.763588
195.061551	-3.011700	3.800700	-11.445000	22.390507	0.001048	20.776642
196.058528	-2.992500	3.802100	-11.377000	22.396214	0.001049	20.785676
197.071927	-2.980000	3.802100	-11.328000	22.416969	0.001049	20.780382
198.062764	-3.000700	3.799700	-11.401000	22.442537	0.001050	20.768054
199.059678	-3.023300	3.798900	-11.483000	22.447477	0.001049	20.779165
200.066656	-3.015000	3.799600	-11.453000	22.444583	0.001051	20.794285
201.060340	-3.012400	3.799600	-11.445000	22.461282	0.001052	20.783033
202.062600	-2.988000	3.799400	-11.352000	22.462052	0.001049	20.793287
203.062061	-3.000800	3.799900	-11.401000	22.488768	0.001051	20.780687
204.063800	-2.997400	3.799600	-11.388000	22.481839	0.001053	20.784179
205.062429	-3.006300	3.798800	-11.419000	22.484708	0.001052	20.774250
206.067289	-3.020100	3.796800	-11.466000	22.478603	0.001052	20.773352
207.062081	-2.989900	3.799100	-11.358000	22.506264	0.001051	20.774028
208.064268	-3.007600	3.797400	-11.420000	22.478936	0.001053	20.788384
209.062610	-3.009100	3.797500	-11.424000	22.468940	0.001053	20.793072
210.061708	-2.999200	3.799000	-11.392000	22.469367	0.001053	20.811518
211.062879	-2.978600	3.798600	-11.314000	22.496754	0.001055	20.783943
212.062643	-3.001100	3.797500	-11.395000	22.500517	0.001056	20.781548
213.063744	-3.007600	3.796100	-11.416000	22.504481	0.001057	20.786467
214.063449	-2.981000	3.797200	-11.318000	22.530327	0.001055	20.780582
215.064306	-2.988200	3.795700	-11.341000	22.540693	0.001056	20.808034
216.062060	-2.993900	3.796200	-11.364000	22.568826	0.001057	20.778364
217.070696	-2.991700	3.796600	-11.356000	22.544756	0.001056	20.818267
218.068120	-2.994500	3.794800	-11.362000	22.540277	0.001058	20.796237
219.064232	-2.985100	3.795400	-11.328000	22.533126	0.001059	20.803774
220.067369	-2.978700	3.795800	-11.305000	22.553882	0.001059	20.803700
221.068861	-2.994900	3.795700	-11.367000	22.566916	0.001060	20.786882
222.065444	-2.979100	3.795400	-11.306000	22.577883	0.001060	20.792650
223.067792	-3.005400	3.794200	-11.401000	22.587203	0.001061	20.810045
224.068069	-3.006800	3.794500	-11.408000	22.589174	0.001060	20.788787
225.063670	-2.985200	3.792900	-11.321000	22.592591	0.001061	20.797424
226.066479	-2.997700	3.793500	-11.370000	22.600342	0.001061	20.809929
227.067630	-2.995200	3.792000	-11.356000	22.625832	0.001063	20.808907
228.065411	-2.992700	3.793200	-11.350000	22.612877	0.001061	20.785974
229.066621	-2.999000	3.792900	-11.374000	22.608398	0.001062	20.806618
230.071762	-3.012000	3.792200	-11.421000	22.605060	0.001061	20.809912
231.067715	-2.977800	3.793900	-11.296000	22.639370	0.001063	20.812036
232.070139	-3.001100	3.792300	-11.380000	22.653304	0.001065	20.797543
233.068740	-2.980100	3.792600	-11.301000	22.649369	0.001063	20.792653
234.070717	-3.000800	3.791000	-11.375000	22.654156	0.001066	20.803138
235.072189	-2.995300	3.791200	-11.354000	22.684432	0.001065	20.786047
236.074395	-3.008600	3.791500	-11.406000	22.696694	0.001066	20.802597
237.075016	-2.990300	3.791800	-11.337000	22.694030	0.001067	20.791869
238.074022	-3.005200	3.790200	-11.390000	22.703448	0.001069	20.814104
239.072335	-3.012000	3.789800	-11.413000	22.710302	0.001070	20.789675
240.071738	-3.004300	3.788700	-11.380000	22.709108	0.001071	20.795118
241.073635	-2.992500	3.790100	-11.340000	22.723584	0.001070	20.798239
242.088614	-2.983900	3.789900	-11.308000	22.749343	0.001070	20.808394
243.075747	-2.980100	3.788700	-11.289000	22.753981	0.001072	20.794549
244.078094	-2.972400	3.790200	-11.265000	22.741897	0.001073	20.801409
245.077827	-3.005700	3.789300	-11.388000	22.763975	0.001072	20.796499
246.078818	-2.979200	3.788400	-11.285000	22.760460	0.001073	20.818108
247.078200	-2.989200	3.788400	-11.323000	22.735994	0.001074	20.799290
248.074234	-2.996400	3.788700	-11.352000	22.730067	0.001076	20.813741
249.084118	-2.995900	3.788100	-11.347000	22.762827	0.001075	20.805780
250.074616	-3.015000	3.785400	-11.411000	22.764716	0.001077	20.829957
251.073040	-2.982200	3.787600	-11.294000	22.784769	0.001077	20.805475
252.079678	-2.996200	3.787000	-11.346000	22.787634	0.001077	20.813086
253.077356	-2.990200	3.785600	-11.319000	22.798047	0.001078	20.820198
254.077812	-3.006700	3.785900	-11.381000	22.800434	0.001077	20.820219
255.082676	-2.995600	3.785300	-11.337000	22.827714	0.001080	20.823365
256.077742	-3.006000	3.785100	-11.377000	22.849206	0.001080	20.812653
257.076937	-2.999700	3.784500	-11.352000	22.844325	0.001079	20.814876
258.081487	-3.010900	3.785700	-11.398000	22.867039	0.001080	20.818665
259.078970	-2.984200	3.785900	-11.297000	22.865990	0.001080	20.818562
260.076486	-3.031100	3.783100	-11.467000	22.881086	0.001080	20.820409
261.088562	-2.998900	3.783700	-11.346000	22.881930	0.001081	20.816039
262.078782	-3.014900	3.783800	-11.407000	22.863171	0.001081	20.827591
263.077906	-2.994800	3.784200	-11.332000	22.881131	0.001083	20.816187
264.080909	-3.005800	3.782600	-11.368000	22.877168	0.001082	20.817432
265.079638	-2.999100	3.783100	-11.345000	22.894005	0.001084	20.836670
266.081090	-2.991000	3.784400	-11.318000	22.900828	0.001084	20.820747
267.082274	-2.987400	3.784600	-11.305000	22.921850	0.001084	20.826161
268.085445	-2.995900	3.782800	-11.332000	22.917192	0.001083	20.839511
269.086140	-2.985400	3.783700	-11.295000	22.896791	0.001083	20.832350
270.084070	-2.999000	3.783200	-11.345000	22.906331	0.001083	20.833846
271.087592	-3.008900	3.782200	-11.380000	22.908842	0.001085	20.830198
272.089102	-3.018700	3.780400	-11.411000	22.912352	0.001085	20.829922
273.094504	-3.001400	3.782100	-11.351000	22.941374	0.001085	20.840031
274.091826	-2.999200	3.780800	-11.338000	22.971687	0.001087	20.827728
275.090730	-2.993300	3.780600	-11.315000	22.977691	0.001085	20.847967
276.092755	-3.007200	3.780400	-11.367000	22.969571	0.001086	20.837936
277.089021	-2.970800	3.780300	-11.229000	22.968370	0.001085	20.838155
278.089252	-2.983000	3.779600	-11.274000	22.988975	0.001087	20.826083
279.096592	-2.994900	3.779800	-11.320000	22.981004	0.001088	20.847967
280.089831	-2.999600	3.779200	-11.334000	23.024043	0.001089	20.841779
281.087936	-3.000300	3.778500	-11.336000	23.021480	0.001088	20.854857
282.090285	-3.014600	3.777400	-11.385000	23.022854	0.001091	20.825415
283.093274	-3.004800	3.778100	-11.351000	23.037224	0.001089	20.854036
284.099016	-2.992500	3.777800	-11.304000	23.036750	0.001090	20.841709
285.095838	-3.006700	3.777700	-11.357000	23.068633	0.001090	20.850894
286.093758	-2.984700	3.779800	-11.279000	23.067538	0.001093	20.855487
287.094526	-3.017400	3.776100	-11.393000	23.075212	0.001090	20.846582
288.100202	-3.010400	3.776800	-11.368000	23.087515	0.001094	20.846107
289.094747	-3.016100	3.776000	-11.387000	23.112619	0.001096	20.848029
290.089950	-3.007700	3.777000	-11.359000	23.110081	0.001092	20.857338
291.095151	-3.006700	3.775900	-11.352000	23.155061	0.001094	20.857841
292.094805	-2.975300	3.776800	-11.236000	23.162834	0.001093	20.865155
293.092769	-2.988500	3.775900	-11.283000	23.133822	0.001093	20.870222
294.099956	-2.989100	3.776300	-11.287000	23.150161	0.001095	20.836336
295.102481	-2.995500	3.775600	-11.308000	23.117762	0.001094	20.843699
296.095333	-2.978200	3.774800	-11.241000	23.114680	0.001095	20.860050
297.103004	-3.014500	3.774000	-11.376000	23.103394	0.001097	20.863914
298.095517	-3.008500	3.774800	-11.356000	23.087885	0.001096	20.854064
299.094113	-2.995600	3.774400	-11.306000	23.105298	0.001098	20.843538
300.098516	-2.993700	3.774200	-11.298000	23.106022	0.001098	20.858962
301.095081	-3.014100	3.772300	-11.369000	23.104208	0.001097	20.845290
302.098952	-3.007500	3.772400	-11.344000	23.126127	0.001099	20.862037
303.098189	-2.992200	3.773800	-11.291000	23.118206	0.001099	20.850307
304.096475	-2.999300	3.772400	-11.311000	23.126978	0.001098	20.842977
305.095620	-2.980500	3.772600	-11.243000	23.142597	0.001097	20.854360
306.097231	-3.008300	3.771600	-11.345000	23.136376	0.001099	20.858083
307.096832	-2.997300	3.771400	-11.303000	23.145362	0.001100	20.844329
308.098861	-3.014100	3.770000	-11.362000	23.168531	0.001099	20.862803
309.096285	-2.991200	3.770800	-11.278000	23.173213	0.001101	20.854694
310.094068	-2.976900	3.772700	-11.229000	23.193761	0.001100	20.872912
311.097742	-3.006900	3.770400	-11.336000	23.201709	0.001101	20.874714
312.096717	-2.990700	3.770100	-11.274000	23.221684	0.001103	20.873869
313.094649	-3.015000	3.771300	-11.368000	23.221413	0.001101	20.858424
314.101180	-2.996100	3.769600	-11.292000	23.213846	0.001101	20.867911
315.097848	-3.011600	3.768600	-11.349000	23.258424	0.001101	20.851420
316.097937	-3.007800	3.769400	-11.336000	23.254215	0.001103	20.867589
317.100629	-2.994500	3.769800	-11.286000	23.265027	0.001103	20.881269
318.113947	-3.015900	3.767700	-11.362000	23.278703	0.001107	20.865103
319.098148	-3.015300	3.766400	-11.356000	23.274444	0.001106	20.864629
320.098661	-2.987200	3.768200	-11.255000	23.252286	0.001106	20.857595
321.103673	-3.006300	3.767800	-11.326000	23.254429	0.001104	20.874915
322.119315	-2.985100	3.766700	-11.244000	23.234088	0.001107	20.868756
323.104702	-3.010200	3.767500	-11.340000	23.243876	0.001107	20.864340
324.102108	-2.982200	3.768200	-11.237000	23.263451	0.001108	20.860724
325.103965	-2.989700	3.766400	-11.258000	23.280459	0.001107	20.846950
326.105324	-2.999900	3.765900	-11.297000	23.322545	0.001108	20.868265
327.108984	-3.004500	3.765800	-11.313000	23.346772	0.001109	20.850347
328.103044	-2.991500	3.766700	-11.266000	23.325964	0.001109	20.860786
329.105770	-3.004700	3.764200	-11.309000	23.326532	0.001109	20.843338
330.101499	-3.003300	3.765100	-11.307000	23.322948	0.001109	20.849704
331.106136	-2.997900	3.764300	-11.284000	23.322002	0.001108	20.858238
332.105109	-2.983300	3.765100	-11.231000	23.326684	0.001110	20.858663
333.103502	-2.993900	3.764600	-11.270000	23.353930	0.001109	20.859417
334.109127	-3.010700	3.763400	-11.329000	23.330448	0.001110	20.858168
335.104665	-2.990500	3.762800	-11.252000	23.341736	0.001109	20.859524
336.106653	-3.004500	3.764000	-11.308000	23.345850	0.001110	20.855587
337.110115	-3.007800	3.763500	-11.318000	23.354962	0.001113	20.833427
338.105802	-3.006600	3.763900	-11.313000	23.347969	0.001113	20.841116
339.107355	-2.992500	3.763000	-11.260000	23.322800	0.001111	20.838650
340.118340	-3.014100	3.760900	-11.334000	23.341280	0.001113	20.831567
341.110959	-3.008100	3.761300	-11.313000	23.345463	0.001113	20.822958
342.111888	-3.031300	3.761000	-11.400000	23.363025	0.001112	20.824438
343.109513	-2.992600	3.760400	-11.252000	23.376946	0.001114	20.834597
344.110089	-3.006600	3.759900	-11.303000	23.374556	0.001114	20.835995
345.113880	-3.000900	3.760700	-11.285000	23.414446	0.001115	20.831880
346.113745	-2.997100	3.760300	-11.269000	23.394211	0.001115	20.834832
347.111375	-3.009300	3.759500	-11.313000	23.411044	0.001115	20.843169
348.111147	-2.978200	3.760300	-11.198000	23.398798	0.001114	20.834688
349.115508	-2.981700	3.760600	-11.211000	23.448547	0.001115	20.815327
350.117816	-3.014300	3.758300	-11.327000	23.428510	0.001119	20.834123
351.112655	-3.000600	3.758300	-11.276000	23.428210	0.001115	20.795416
352.116918	-3.005300	3.758800	-11.295000	23.426524	0.001118	20.829287
353.115630	-3.008600	3.757300	-11.302000	23.416371	0.001118	20.828120
354.122688	-2.988900	3.757900	-11.231000	23.448268	0.001117	20.834486
355.111379	-2.992800	3.758000	-11.245000	23.453278	0.001117	20.814379
356.114793	-2.989300	3.757100	-11.229000	23.475235	0.001119	20.832120
357.112838	-2.995500	3.758500	-11.258000	23.474120	0.001119	20.828158
358.116026	-2.991400	3.757000	-11.238000	23.473179	0.001122	20.839541
359.113460	-3.003300	3.756100	-11.279000	23.462550	0.001120	20.819405
360.114071	-2.991200	3.755600	-11.233000	23.458218	0.001121	20.809373
361.114296	-3.026800	3.753700	-11.360000	23.448687	0.001122	20.821157
362.113801	-3.007000	3.756100	-11.293000	23.449786	0.001121	20.799973
363.114492	-3.018500	3.755100	-11.334000	23.463381	0.001123	20.814074
364.118691	-3.015300	3.755400	-11.322000	23.449909	0.001122	20.803416
365.118717	-2.992000	3.754500	-11.232000	23.410452	0.001122	20.839257
366.113837	-2.986900	3.755200	-11.216000	23.438984	0.001122	20.821862
367.121930	-3.022100	3.754300	-11.345000	23.461912	0.001125	20.798851
368.121069	-3.013900	3.753400	-11.311000	23.472772	0.001125	20.812581
369.119074	-3.007100	3.753500	-11.286000	23.498912	0.001123	20.813653
370.119577	-2.990900	3.752900	-11.223000	23.507953	0.001125	20.803276
371.120060	-3.035200	3.751000	-11.384000	23.519281	0.001125	20.801828
372.119726	-3.021200	3.751400	-11.333000	23.535219	0.001126	20.823021
373.116579	-3.019600	3.752200	-11.329000	23.557401	0.001126	20.799738
374.120137	-3.024200	3.751200	-11.343000	23.586106	0.001124	20.813814
375.116520	-2.988800	3.751900	-11.213000	23.550380	0.001126	20.805028
376.118042	-3.006200	3.750200	-11.272000	23.566339	0.001125	20.792576
377.122501	-2.996000	3.750200	-11.235000	23.567984	0.001126	20.794700
378.119972	-3.007900	3.750700	-11.280000	23.567663	0.001124	20.807655
379.119619	-3.003000	3.749700	-11.260000	23.585213	0.001126	20.798221
380.119234	-2.997900	3.750000	-11.240000	23.574433	0.001127	20.792630
381.117201	-3.011900	3.749200	-11.290000	23.570600	0.001127	20.809176
382.118076	-3.002700	3.748800	-11.255000	23.564184	0.001124	20.801322
383.119307	-3.013400	3.747900	-11.292000	23.544815	0.001124	20.792812
384.116786	-2.995800	3.748100	-11.227000	23.560375	0.001126	20.786124
385.120743	-3.003000	3.748800	-11.256000	23.576136	0.001127	20.801924
386.119969	-2.982800	3.748600	-11.181000	23.584576	0.001127	20.803272
387.121048	-2.982300	3.748500	-11.177000	23.583762	0.001128	20.808620
388.121765	-2.986800	3.748900	-11.196000	23.589462	0.001127	20.811963
389.119185	-2.997700	3.747600	-11.234000	23.609130	0.001128	20.786636
390.120836	-2.995200	3.746800	-11.222000	23.612692	0.001128	20.789732
391.123611	-3.011200	3.746000	-11.280000	23.603985	0.001128	20.800444
392.121028	-2.998500	3.746400	-11.232000	23.621165	0.001129	20.783527
393.121105	-3.011000	3.746200	-11.279000	23.623155	0.001129	20.784574
394.125216	-2.997300	3.746400	-11.228000	23.637674	0.001130	20.787275
395.125457	-3.005000	3.744900	-11.253000	23.645837	0.001130	20.791666
396.121935	-2.994700	3.745800	-11.215000	23.637151	0.001128	20.803821
397.126053	-2.995700	3.746500	-11.223000	23.631829	0.001129	20.785210
398.126128	-2.989400	3.745100	-11.194000	23.655108	0.001130	20.787684
399.125656	-3.004100	3.742700	-11.242000	23.642268	0.001132	20.789984
400.131562	-3.021700	3.742500	-11.307000	23.672587	0.001132	20.781025
401.126959	-3.014000	3.742000	-11.276000	23.686701	0.001133	20.794701
402.126781	-2.991000	3.743600	-11.195000	23.708456	0.001131	20.779054
403.131843	-2.988800	3.743200	-11.186000	23.721534	0.001131	20.791218
404.129376	-3.005900	3.741700	-11.247000	23.714736	0.001133	20.770177
405.128019	-2.979000	3.743400	-11.151000	23.685418	0.001133	20.805269
406.130899	-2.992200	3.741800	-11.195000	23.670037	0.001132	20.760451
407.127380	-2.992200	3.741900	-11.195000	23.682437	0.001133	20.784262
408.128893	-3.000000	3.740000	-11.220000	23.704024	0.001133	20.770343
409.130918	-3.013500	3.740000	-11.269000	23.699496	0.001132	20.775761
410.130805	-2.992300	3.741700	-11.195000	23.715181	0.001134	20.774891
411.127801	-3.006700	3.741000	-11.247000	23.708684	0.001135	20.767902
412.133110	-3.010400	3.739400	-11.256000	23.724768	0.001135	20.780235
413.127719	-3.002400	3.739100	-11.224000	23.718821	0.001134	20.793239
414.129968	-2.993800	3.739300	-11.192000	23.686464	0.001135	20.763169
415.128339	-3.004500	3.738500	-11.229000	23.705460	0.001135	20.762773
416.129216	-3.000200	3.739400	-11.218000	23.712036	0.001134	20.780746
417.131128	-3.005200	3.738000	-11.230000	23.716025	0.001134	20.788065
418.139281	-3.024100	3.736900	-11.300000	23.698926	0.001134	20.787517
419.130994	-3.019300	3.736400	-11.280000	23.676899	0.001133	20.770649
420.131119	-3.007600	3.737700	-11.240000	23.651063	0.001137	20.785526
421.137218	-3.028200	3.735600	-11.311000	23.636879	0.001135	20.790272
422.134968	-2.993000	3.735000	-11.177000	23.647880	0.001135	20.781860
423.131390	-2.996100	3.736200	-11.192000	23.661827	0.001136	20.783514
424.135645	-3.016200	3.735300	-11.266000	23.662378	0.001137	20.771739
425.135327	-3.000100	3.737200	-11.210000	23.715903	0.001138	20.783675
426.130076	-3.010200	3.735400	-11.242000	23.716500	0.001137	20.777161
427.133964	-2.996600	3.734900	-11.191000	23.722627	0.001138	20.762441
428.132833	-2.990700	3.733200	-11.163000	23.732736	0.001137	20.763567
429.131133	-2.987200	3.734600	-11.154000	23.731622	0.001139	20.752493
430.133837	-3.001500	3.733400	-11.204000	23.763130	0.001138	20.748996
431.135070	-2.998200	3.732900	-11.191000	23.766051	0.001136	20.759036
432.134034	-2.993400	3.733100	-11.172000	23.767494	0.001138	20.762854
433.139055	-3.005900	3.732400	-11.219000	23.782705	0.001137	20.762459
434.139514	-2.991900	3.733500	-11.170000	23.787690	0.001137	20.745645
435.134284	-3.001200	3.732600	-11.202000	23.797275	0.001138	20.754782
436.138578	-3.010100	3.732000	-11.233000	23.808871	0.001137	20.765935
437.135045	-3.014600	3.730400	-11.244000	23.828264	0.001137	20.776845
438.135822	-2.997800	3.730900	-11.183000	23.859602	0.001138	20.763223
439.136493	-3.015700	3.730800	-11.249000	23.882201	0.001140	20.754589
440.135143	-2.982800	3.730000	-11.125000	23.929092	0.001138	20.756564
441.134235	-2.985800	3.731800	-11.139000	23.915959	0.001139	20.757146
442.131848	-3.002800	3.730300	-11.200000	23.892913	0.001138	20.760114
443.136158	-2.961800	3.731500	-11.050000	23.917846	0.001139	20.769944
444.139612	-2.991000	3.730100	-11.156000	23.910117	0.001136	20.744174
445.135112	-3.001500	3.727200	-11.186000	23.923805	0.001139	20.768332
446.136441	-2.994500	3.728900	-11.164000	23.951830	0.001140	20.765615
447.138690	-3.002700	3.727800	-11.192000	23.947028	0.001138	20.766490
448.138101	-2.997200	3.729500	-11.176000	23.967285	0.001138	20.763570
449.138478	-3.009300	3.726300	-11.211000	23.954602	0.001140	20.758438
450.135411	-2.993100	3.728500	-11.158000	23.964910	0.001139	20.766404
451.135353	-2.992700	3.727500	-11.154000	23.933501	0.001139	20.749132
452.133818	-2.975200	3.727500	-11.089000	23.950503	0.001139	20.748163
453.136208	-3.012600	3.726100	-11.225000	23.951148	0.001138	20.759716
454.136148	-3.013400	3.725900	-11.226000	24.003714	0.001139	20.770231
455.140289	-2.992800	3.726000	-11.149000	24.006679	0.001139	20.761824
456.138298	-3.016400	3.725000	-11.234000	24.013323	0.001139	20.749520
457.138437	-3.037400	3.723700	-11.309000	24.029629	0.001139	20.739794
458.141427	-2.984700	3.725200	-11.118000	24.027565	0.001139	20.758588
459.141142	-2.975900	3.724700	-11.083000	24.069471	0.001139	20.762208
460.141526	-2.993600	3.726000	-11.153000	24.081127	0.001139	20.750664
461.149529	-2.991700	3.724800	-11.141000	24.081472	0.001140	20.746743
462.142728	-3.002000	3.724300	-11.179000	24.066047	0.001139	20.732221
463.146426	-3.032800	3.722200	-11.286000	24.099495	0.001138	20.728308
464.146085	-3.009000	3.723500	-11.203000	24.093674	0.001139	20.751394
465.144692	-2.991400	3.723000	-11.136000	24.103627	0.001138	20.737668
466.141675	-3.012700	3.722400	-11.213000	24.129485	0.001140	20.749853
467.145151	-2.979100	3.723400	-11.092000	24.096894	0.001138	20.758891
468.147589	-2.976400	3.723500	-11.082000	24.122251	0.001140	20.732638
469.145130	-2.993400	3.723200	-11.143000	24.126687	0.001139	20.757003
470.147252	-3.007600	3.721400	-11.190000	24.106909	0.001139	20.749021
471.148322	-2.992100	3.721900	-11.135000	24.082375	0.001141	20.765192
472.148240	-2.993900	3.720600	-11.138000	24.094396	0.001142	20.743583
473.149521	-2.998200	3.719800	-11.152000	24.108706	0.001141	20.740392
474.148295	-2.982600	3.721200	-11.097000	24.115404	0.001139	20.731935
475.149492	-3.001900	3.719500	-11.165000	24.105110	0.001139	20.754329
476.148491	-3.005600	3.718700	-11.176000	24.146865	0.001141	20.729351
477.150116	-3.006000	3.718900	-11.177000	24.134253	0.001140	20.733297
478.150638	-3.003300	3.718800	-11.167000	24.140276	0.001137	20.738864
479.150667	-3.009600	3.718100	-11.189000	24.154212	0.001139	20.717752
480.149373	-3.015000	3.718200	-11.208000	24.126501	0.001140	20.738324
481.150484	-3.003000	3.718700	-11.166000	24.128417	0.001140	20.732659
482.153108	-2.999600	3.717200	-11.148000	24.106872	0.001141	20.732861
483.150784	-2.995100	3.717800	-11.134000	24.136763	0.001141	20.714476
484.147950	-3.010500	3.717500	-11.191000	24.146917	0.001139	20.719445
485.148932	-2.993100	3.717700	-11.127000	24.171031	0.001141	20.736046
486.153490	-2.991300	3.716500	-11.116000	24.165191	0.001141	20.733032
487.151673	-2.989600	3.716700	-11.111000	24.153722	0.001143	20.724848
488.153098	-3.003400	3.715900	-11.160000	24.134866	0.001141	20.720634
489.150462	-3.005000	3.715300	-11.163000	24.103668	0.001140	20.740080
490.150382	-2.980700	3.716200	-11.075000	24.097354	0.001141	20.715728
491.149334	-3.007400	3.714500	-11.170000	24.117609	0.001143	20.719448
492.152350	-2.987900	3.714300	-11.097000	24.103209	0.001141	20.717333
493.148074	-2.993000	3.714400	-11.116000	24.116574	0.001141	20.717461
494.149858	-2.989600	3.714400	-11.102000	24.073577	0.001141	20.723176
495.151037	-2.988300	3.713700	-11.097000	24.044293	0.001140	20.734586
496.150038	-3.004400	3.712600	-11.153000	24.047381	0.001140	20.718241
497.153180	-2.994200	3.713400	-11.117000	24.020387	0.001141	20.713454
498.152685	-2.986100	3.712300	-11.083000	24.010704	0.001140	20.724134
499.160458	-2.978400	3.712600	-11.055000	23.987118	0.001141	20.731300
500.151705	-2.971900	3.712100	-11.031000	23.956059	0.001140	20.729552
501.158755	-3.007800	3.712000	-11.164000	23.967333	0.001143	20.717623
502.151336	-3.014700	3.708400	-11.178000	23.944794	0.001142	20.707349
503.153880	-2.997400	3.710000	-11.119000	23.985507	0.001140	20.712614
504.158745	-2.995900	3.709800	-11.113000	24.010413	0.001141	20.707719
505.152862	-2.987400	3.709900	-11.082000	24.047247	0.001143	20.720003
506.154420	-2.990800	3.709500	-11.093000	24.057052	0.001140	20.718457
507.157505	-2.978900	3.709100	-11.047000	24.127894	0.001141	20.720754
508.151216	-3.009700	3.707500	-11.158000	24.131400	0.001142	20.732332
509.158631	-3.011100	3.708000	-11.165000	24.127421	0.001142	20.711270
510.155578	-2.975500	3.707900	-11.031000	24.154890	0.001141	20.726968
511.153769	-3.008800	3.707000	-11.152000	24.184224	0.001142	20.709448
512.158729	-2.990900	3.708700	-11.091000	24.204630	0.001141	20.720433
513.154801	-3.001700	3.705800	-11.122000	24.188109	0.001141	20.719035
514.154510	-2.994000	3.705600	-11.093000	24.166541	0.001141	20.696926
515.157323	-3.003800	3.706500	-11.132000	24.205925	0.001142	20.707506
516.160073	-3.016900	3.705800	-11.178000	24.170495	0.001141	20.694253
517.155798	-3.007400	3.705900	-11.144000	24.189606	0.001141	20.716268
518.156958	-3.005400	3.705200	-11.135000	24.205531	0.001142	20.716594
519.154526	-3.034500	3.703100	-11.236000	24.212326	0.001141	20.711556
520.159028	-3.021200	3.703800	-11.189000	24.225788	0.001140	20.702773
521.155352	-2.993100	3.704900	-11.089000	24.205117	0.001143	20.700531
522.158149	-2.980100	3.705200	-11.041000	24.187034	0.001139	20.708473
523.154222	-2.993300	3.704100	-11.086000	24.186414	0.001141	20.708799
524.158826	-3.006400	3.703300	-11.132000	24.193081	0.001141	20.708374
525.156070	-2.983100	3.703100	-11.045000	24.206101	0.001143	20.712424
526.157388	-3.015200	3.703100	-11.164000	24.191569	0.001141	20.714444
527.157177	-3.012800	3.701600	-11.151000	24.220336	0.001140	20.715797
528.155671	-3.003900	3.702000	-11.119000	24.242480	0.001140	20.711930
529.153536	-3.010200	3.700400	-11.138000	24.273653	0.001142	20.726131
530.160141	-3.007200	3.700100	-11.125000	24.284209	0.001140	20.718227
531.157309	-3.015200	3.700600	-11.157000	24.290083	0.001141	20.710368
532.159005	-2.987500	3.700500	-11.054000	24.298818	0.001140	20.713440
533.162101	-3.009200	3.700500	-11.135000	24.285435	0.001142	20.718034
534.157027	-2.999500	3.700100	-11.097000	24.274021	0.001140	20.716068
535.162210	-3.005300	3.699000	-11.115000	24.281161	0.001141	20.727498
536.164823	-2.995800	3.698500	-11.078000	24.261633	0.001138	20.701743
537.164107	-3.016800	3.698200	-11.155000	24.285149	0.001139	20.703047
538.159171	-3.006300	3.697300	-11.114000	24.260426	0.001140	20.704326
539.163680	-2.993000	3.698600	-11.069000	24.265005	0.001140	20.719352
540.163469	-2.997000	3.698600	-11.084000	24.249755	0.001138	20.726341
541.162241	-2.991900	3.698200	-11.064000	24.234087	0.001139	20.699717
542.165765	-3.004200	3.697800	-11.106000	24.252354	0.001140	20.698600
543.162600	-2.980000	3.698500	-11.020000	24.244968	0.001140	20.713952
544.168014	-2.996500	3.697400	-11.077000	24.245047	0.001139	20.709289
545.167426	-2.985500	3.697100	-11.037000	24.261645	0.001139	20.699385
546.167053	-2.996900	3.695800	-11.076000	24.281548	0.001140	20.697538
547.166883	-2.991000	3.696400	-11.055000	24.277121	0.001139	20.720126
548.164716	-2.999900	3.696300	-11.086000	24.287451	0.001137	20.712469
549.164284	-2.998000	3.694700	-11.076000	24.305339	0.001139	20.694850
550.164211	-2.999300	3.694400	-11.079000	24.291341	0.001138	20.702620
551.170796	-3.013000	3.694900	-11.131000	24.307038	0.001137	20.707935
552.166616	-3.004900	3.695500	-11.104000	24.279479	0.001137	20.718223
553.172629	-3.011400	3.693800	-11.122000	24.286968	0.001137	20.712933
554.169906	-3.022900	3.692900	-11.162000	24.302911	0.001136	20.699053
555.168584	-3.010500	3.692600	-11.115000	24.287047	0.001138	20.711589
556.171797	-2.990100	3.693000	-11.041000	24.281896	0.001138	20.712113
557.174682	-3.000700	3.692200	-11.078000	24.265603	0.001138	20.702881
558.171425	-2.995700	3.692400	-11.060000	24.266401	0.001138	20.716484
559.172075	-3.007000	3.690300	-11.096000	24.234784	0.001137	20.716538
560.178708	-2.996900	3.691500	-11.061000	24.226678	0.001138	20.714572
561.174352	-3.005000	3.691900	-11.093000	24.222798	0.001138	20.726802
562.171430	-2.969700	3.693300	-10.967000	24.231932	0.001138	20.710359
563.176821	-3.012100	3.688300	-11.109000	24.224201	0.001137	20.711613
564.171182	-2.992100	3.690800	-11.041000	24.188319	0.001136	20.713555
565.170516	-3.011400	3.689900	-11.111000	24.215564	0.001137	20.735668
566.172543	-2.995300	3.690100	-11.052000	24.187156	0.001137	20.717130
567.175807	-3.011000	3.689700	-11.109000	24.189269	0.001137	20.716879
568.176474	-3.003600	3.686700	-11.072000	24.182404	0.001139	20.728960
569.177437	-2.989500	3.689200	-11.028000	24.243439	0.001137	20.735179
570.174550	-2.994500	3.687400	-11.042000	24.237742	0.001138	20.708600
571.176049	-3.003800	3.688300	-11.078000	24.256305	0.001135	20.699718
572.176950	-3.001300	3.686100	-11.062000	24.291088	0.001136	20.696676
573.175614	-2.998700	3.687700	-11.057000	24.281511	0.001136	20.719313
574.181508	-3.012900	3.686500	-11.107000	24.310994	0.001138	20.733242
575.180158	-2.995100	3.686900	-11.041000	24.362840	0.001137	20.707962
576.176749	-3.005200	3.684800	-11.072000	24.386748	0.001138	20.720093
577.178003	-2.993000	3.687200	-11.034000	24.393591	0.001137	20.703724
578.176597	-2.999900	3.685800	-11.056000	24.439510	0.001137	20.717075
579.174671	-3.000100	3.684200	-11.052000	24.431476	0.001135	20.730827
580.179359	-2.990500	3.684500	-11.017000	24.442971	0.001136	20.718651
581.186723	-2.995100	3.682700	-11.028000	24.418990	0.001139	20.726836
582.179464	-2.997900	3.684100	-11.043000	24.418395	0.001135	20.733825
583.178485	-3.003100	3.683100	-11.059000	24.415584	0.001137	20.740014
584.184139	-2.977300	3.683900	-10.967000	24.400607	0.001136	20.718350
585.180174	-3.007000	3.683800	-11.076000	24.409538	0.001138	20.715455
586.182081	-2.977300	3.682600	-10.962000	24.392326	0.001137	20.712887
587.182958	-2.969800	3.682900	-10.937000	24.404984	0.001136	20.709938
588.181964	-2.987600	3.683000	-11.002000	24.419960	0.001137	20.706945
589.183307	-3.002800	3.681200	-11.053000	24.415859	0.001136	20.716581
590.181281	-2.973500	3.683100	-10.950000	24.479860	0.001137	20.709192
591.184987	-3.002200	3.681000	-11.051000	24.469438	0.001135	20.714857
592.185170	-2.976800	3.682500	-10.961000	24.480854	0.001138	20.723467
593.185266	-2.983500	3.680500	-10.979000	24.491049	0.001136	20.726584
594.187095	-3.004200	3.679500	-11.053000	24.497991	0.001135	20.729281
595.184937	-2.996600	3.679900	-11.026000	24.514088	0.001136	20.717930
596.186771	-2.994800	3.680000	-11.020000	24.532682	0.001136	20.726628
597.187073	-3.004900	3.679000	-11.054000	24.534552	0.001138	20.701002
598.185488	-3.000600	3.677700	-11.034000	24.567559	0.001137	20.720844
599.191795	-3.013800	3.677900	-11.083000	24.551467	0.001137	20.711810
600.184993	-3.003100	3.677200	-11.041000	24.526292	0.001136	20.722588
601.181441	-2.989800	3.677400	-10.993000	24.532485	0.001137	20.737811
602.183798	-3.038500	3.676700	-11.170000	24.493014	0.001137	20.716226
603.183833	-2.997000	3.679100	-11.025000	24.469354	0.001137	20.729473
604.185328	-2.994100	3.677200	-11.009000	24.465322	0.001136	20.728273
605.188438	-3.009100	3.676500	-11.062000	24.446743	0.001137	20.732867
606.197500	-3.026500	3.673900	-11.118000	24.476118	0.001135	20.736734
607.185768	-2.995700	3.675500	-11.008000	24.484350	0.001135	20.733139
608.190241	-2.984900	3.674900	-10.968000	24.519317	0.001135	20.735979
609.189254	-2.989100	3.675700	-10.985000	24.526258	0.001134	20.718286
610.189317	-3.010900	3.673700	-11.060000	24.548991	0.001135	20.755795
611.191407	-2.995500	3.673600	-11.001000	24.544935	0.001133	20.741294
612.190530	-2.991300	3.674600	-10.991000	24.557945	0.001135	20.745339
613.186857	-3.016800	3.672900	-11.079000	24.559235	0.001134	20.753746
614.190246	-2.972600	3.673700	-10.918000	24.584306	0.001132	20.723897
615.190210	-2.998700	3.673600	-11.015000	24.586969	0.001132	20.746485
616.193071	-2.992900	3.671900	-10.989000	24.578236	0.001134	20.750051
617.192158	-3.007300	3.672400	-11.043000	24.618630	0.001133	20.730837
618.192204	-2.992000	3.673600	-10.990000	24.614849	0.001130	20.732734
619.192857	-2.999400	3.672900	-11.014000	24.607859	0.001132	20.743739
620.190777	-2.978700	3.671400	-10.935000	24.619496	0.001130	20.746406
621.189694	-3.002200	3.671900	-11.023000	24.610542	0.001129	20.748327
622.192560	-3.010900	3.669800	-11.047000	24.638870	0.001128	20.751148
623.194373	-3.018800	3.669900	-11.077000	24.662497	0.001131	20.753519
624.195417	-3.020100	3.669800	-11.082000	24.679532	0.001130	20.748327
625.192523	-2.980800	3.670900	-10.941000	24.689804	0.001129	20.751523
626.192109	-3.007800	3.670100	-11.038000	24.718204	0.001131	20.762953
627.194923	-3.026500	3.668300	-11.101000	24.706947	0.001128	20.742173
628.197971	-3.002100	3.669400	-11.015000	24.732905	0.001129	20.742143
629.195798	-3.008700	3.666700	-11.031000	24.736587	0.001129	20.752950
630.195498	-2.975800	3.669500	-10.919000	24.730518	0.001127	20.752076
631.196747	-3.001300	3.668000	-11.007000	24.700775	0.001129	20.758265
632.197716	-3.015000	3.667100	-11.055000	24.667645	0.001128	20.749676
633.198403	-3.003800	3.666600	-11.012000	24.614923	0.001127	20.747033
634.199433	-3.010700	3.665400	-11.033000	24.646588	0.001127	20.747038
635.194171	-3.010100	3.665900	-11.034000	24.654670	0.001127	20.742346
636.198681	-2.979600	3.666400	-10.924000	24.651490	0.001126	20.759544
637.200143	-2.966200	3.666500	-10.875000	24.637290	0.001127	20.756674
638.200179	-3.003900	3.665000	-11.009000	24.666134	0.001127	20.758117
639.212561	-2.992600	3.664700	-10.966000	24.665966	0.001126	20.756052
640.199342	-2.994500	3.665400	-10.974000	24.650201	0.001126	20.758250
641.199502	-3.008800	3.663700	-11.022000	24.686339	0.001128	20.752787
642.202387	-2.992200	3.664100	-10.960000	24.667960	0.001125	20.754733
643.199934	-2.987700	3.665900	-10.949000	24.695666	0.001125	20.765940
644.200924	-2.996700	3.663600	-10.977000	24.686585	0.001127	20.769156
645.201528	-3.017500	3.662800	-11.051000	24.697260	0.001128	20.793619
646.202208	-3.008300	3.661700	-11.014000	24.706509	0.001126	20.782037
647.198301	-2.987200	3.662900	-10.941000	24.706440	0.001125	20.757311
648.197670	-3.019300	3.662100	-11.055000	24.674560	0.001126	20.769417
649.199684	-2.995500	3.663400	-10.973000	24.698535	0.001127	20.775932
650.207573	-2.986300	3.661900	-10.933000	24.702266	0.001127	20.791530
651.203696	-3.009000	3.661200	-11.015000	24.698535	0.001126	20.785415
652.203595	-3.018300	3.660900	-11.047000	24.730990	0.001125	20.778155
653.197888	-2.987200	3.661000	-10.935000	24.725468	0.001124	20.764078
654.199608	-3.001600	3.661600	-10.990000	24.704682	0.001124	20.767876
655.199945	-2.996700	3.660200	-10.968000	24.709235	0.001122	20.777186
656.205521	-3.030500	3.660200	-11.091000	24.729577	0.001125	20.770573
657.200126	-3.000100	3.660700	-10.982000	24.776053	0.001123	20.772642
658.201312	-3.000100	3.659600	-10.978000	24.778342	0.001123	20.776361
659.202449	-3.031500	3.658400	-11.089000	24.787122	0.001124	20.780431
660.204440	-3.007000	3.659000	-11.001000	24.794214	0.001122	20.754831
661.204762	-2.995000	3.659900	-10.961000	24.791103	0.001122	20.759296
662.205020	-3.003100	3.659300	-10.987000	24.816985	0.001124	20.781478
663.204979	-2.987100	3.659200	-10.929000	24.775418	0.001121	20.800454
664.203919	-2.981500	3.659000	-10.909000	24.778248	0.001121	20.790492
665.207572	-3.006600	3.656200	-10.992000	24.774345	0.001121	20.790369
666.208414	-3.014400	3.656800	-11.022000	24.783770	0.001122	20.777068
667.205410	-2.984400	3.658300	-10.917000	24.828309	0.001121	20.779567
668.204762	-2.990400	3.655500	-10.929000	24.810381	0.001120	20.791445
669.211713	-2.991500	3.657000	-10.938000	24.835342	0.001121	20.759123
670.203998	-2.975700	3.655000	-10.875000	24.841366	0.001123	20.791248
671.207313	-2.991800	3.656600	-10.939000	24.869692	0.001122	20.795495
672.208029	-2.999600	3.654800	-10.962000	24.852158	0.001121	20.785958
673.206353	-2.991000	3.654200	-10.929000	24.836867	0.001121	20.790052
674.207231	-3.013100	3.653700	-11.008000	24.802654	0.001121	20.791277
675.212649	-3.005500	3.653100	-10.978000	24.769399	0.001119	20.778292
676.210196	-3.010000	3.652800	-10.993000	24.768961	0.001120	20.798715
677.207524	-2.997000	3.653100	-10.947000	24.748422	0.001119	20.785217
678.212204	-2.992700	3.653900	-10.933000	24.747600	0.001119	20.797668
679.207890	-2.988600	3.654200	-10.920000	24.726432	0.001120	20.799659
680.207258	-2.983400	3.652400	-10.895000	24.718453	0.001119	20.801136
681.208377	-3.004900	3.652800	-10.976000	24.744667	0.001120	20.790931
682.208166	-3.001000	3.651700	-10.958000	24.767297	0.001119	20.776657
683.206352	-2.990700	3.653000	-10.924000	24.783287	0.001118	20.804084
684.210386	-2.980400	3.652300	-10.884000	24.813550	0.001117	20.819756
685.221141	-3.002400	3.651000	-10.960000	24.814022	0.001117	20.792255
686.208478	-3.003100	3.651700	-10.965000	24.848437	0.001119	20.808776
687.212701	-3.021100	3.648300	-11.020000	24.840578	0.001118	20.802311
688.206756	-2.999600	3.650800	-10.950000	24.845037	0.001118	20.787820
689.211768	-3.014000	3.650200	-11.000000	24.837773	0.001117	20.782426
690.213469	-2.991700	3.650000	-10.919000	24.820838	0.001117	20.793406
691.210258	-3.006800	3.650000	-10.974000	24.831936	0.001117	20.802172
692.207434	-3.013300	3.649900	-10.998000	24.830962	0.001116	20.803565
693.214922	-2.996600	3.649100	-10.934000	24.824269	0.001115	20.812969
694.210162	-3.009900	3.648000	-10.979000	24.829466	0.001114	20.790684
695.212698	-3.019600	3.647100	-11.012000	24.871444	0.001115	20.814323
696.210916	-2.993500	3.647900	-10.918000	24.869505	0.001115	20.793411
697.210236	-2.984700	3.647900	-10.885000	24.875474	0.001115	20.797979
698.211298	-3.014700	3.646800	-10.993000	24.895936	0.001114	20.792912
699.215297	-2.988800	3.647000	-10.899000	24.858043	0.001114	20.792813
700.210989	-2.997000	3.645900	-10.926000	24.840735	0.001115	20.797727
701.213277	-2.991300	3.646900	-10.908000	24.841513	0.001113	20.811784
702.214179	-2.976800	3.646400	-10.854000	24.888161	0.001113	20.815453
703.211307	-2.990700	3.646500	-10.905000	24.882118	0.001114	20.798957
704.216070	-2.978900	3.647000	-10.863000	24.929512	0.001112	20.808119
705.225847	-3.006500	3.645100	-10.956000	24.970035	0.001112	20.797584
706.218614	-2.992500	3.644600	-10.906000	25.000622	0.001113	20.798888
707.213756	-3.001700	3.643700	-10.936000	24.976083	0.001113	20.807447
708.220687	-3.008400	3.645100	-10.965000	24.974769	0.001111	20.815611
709.217462	-3.002300	3.643900	-10.939000	24.959274	0.001111	20.820447
710.216332	-2.991500	3.643100	-10.897000	24.946524	0.001111	20.816184
711.221674	-2.987500	3.643400	-10.882000	24.979217	0.001112	20.802533
712.215236	-3.001700	3.643500	-10.936000	24.974370	0.001110	20.805728
713.219179	-2.991700	3.642300	-10.896000	24.977303	0.001109	20.811517
714.236638	-2.984600	3.642300	-10.869000	24.976235	0.001108	20.803333
715.224600	-3.005100	3.642300	-10.945000	24.960199	0.001108	20.820901
716.220915	-3.015000	3.642000	-10.980000	24.986854	0.001107	20.794077
717.225343	-3.002000	3.641400	-10.931000	24.967639	0.001110	20.794230
718.221448	-2.994200	3.640500	-10.899000	24.985014	0.001107	20.839170
719.222664	-2.991600	3.640600	-10.891000	24.974572	0.001107	20.832957
720.223557	-3.005600	3.639400	-10.937000	24.967762	0.001109	20.820432
721.219038	-2.991500	3.640400	-10.889000	25.013661	0.001109	20.850381
722.220842	-3.007100	3.639300	-10.943000	25.020053	0.001108	20.832616
723.223820	-2.997900	3.639200	-10.909000	25.038672	0.001108	20.818589
724.222823	-3.008600	3.640100	-10.951000	25.045787	0.001106	20.830472
725.224212	-2.995600	3.639200	-10.901000	25.056154	0.001106	20.827603
726.227074	-3.000400	3.639500	-10.919000	25.046259	0.001106	20.799179
727.227269	-2.987700	3.637700	-10.867000	25.061257	0.001103	20.841733
728.225349	-3.024400	3.637500	-11.000000	25.028541	0.001105	20.824541
729.225832	-2.999100	3.636800	-10.906000	25.036699	0.001104	20.850272
730.222220	-3.004400	3.637500	-10.928000	25.025510	0.001106	20.844731
731.225492	-3.002400	3.636000	-10.916000	25.056464	0.001104	20.835500
732.223629	-3.008500	3.636400	-10.939000	25.062059	0.001102	20.820728
733.224676	-3.006500	3.635800	-10.930000	25.074566	0.001105	20.824748
734.222675	-2.998200	3.636100	-10.901000	25.047740	0.001102	20.834804
735.227129	-3.025400	3.633900	-10.993000	24.998294	0.001102	20.830215
736.223339	-3.018600	3.634400	-10.969000	25.003347	0.001101	20.817744
737.226491	-3.005300	3.634200	-10.921000	24.981022	0.001103	20.838957
738.231343	-2.989400	3.635800	-10.868000	24.986543	0.001102	20.834068
739.224205	-3.013800	3.634300	-10.952000	24.979187	0.001100	20.834270
740.226048	-2.975800	3.635900	-10.818000	24.997915	0.001102	20.835050
741.225137	-3.017400	3.633900	-10.964000	24.996793	0.001100	20.853364
742.226429	-3.028700	3.633400	-11.002000	25.022577	0.001101	20.856959
743.223928	-2.992700	3.633600	-10.873000	25.030085	0.001099	20.852169
744.226703	-3.036200	3.632700	-11.028000	25.035985	0.001098	20.850978
745.227809	-2.998600	3.631600	-10.889000	25.041747	0.001099	20.831633
746.227677	-2.996700	3.633100	-10.886000	25.033648	0.001098	20.851951
747.229101	-2.992700	3.631800	-10.867000	25.069675	0.001100	20.838804
748.232583	-3.011300	3.630700	-10.931000	25.055701	0.001100	20.852277
749.232733	-3.006500	3.630600	-10.914000	25.046131	0.001097	20.834611
750.228153	-3.014700	3.629800	-10.941000	25.069749	0.001098	20.847412
751.229454	-3.015900	3.629700	-10.946000	25.069429	0.001099	20.835238
752.231457	-3.009000	3.630900	-10.924000	25.091181	0.001096	20.833840
753.229094	-3.012600	3.630700	-10.936000	25.069355	0.001097	20.838483
754.232335	-3.019000	3.629800	-10.957000	25.099737	0.001098	20.850015
755.235385	-2.992600	3.630300	-10.863000	25.123378	0.001096	20.838661
756.232073	-2.985900	3.630300	-10.837000	25.117238	0.001097	20.843876
757.229681	-2.999700	3.627900	-10.881000	25.077340	0.001096	20.848395
758.230276	-3.003100	3.627900	-10.893000	25.053502	0.001096	20.867138
759.230705	-2.973100	3.629400	-10.789000	25.062821	0.001095	20.848044
760.232597	-3.005000	3.628200	-10.901000	25.053349	0.001094	20.867459
761.229787	-3.002600	3.628300	-10.894000	25.093995	0.001094	20.865113
762.232130	-3.000200	3.627800	-10.882000	25.111472	0.001094	20.848899
763.233777	-3.010200	3.629500	-10.923000	25.117986	0.001095	20.869281
764.234419	-2.989800	3.627500	-10.844000	25.131659	0.001095	20.850766
765.233831	-3.016600	3.627100	-10.940000	25.143767	0.001092	20.861498
766.230060	-2.990000	3.626700	-10.842000	25.171235	0.001093	20.867261
767.234250	-3.009200	3.624600	-10.905000	25.198529	0.001093	20.861473
768.233648	-3.023700	3.624300	-10.957000	25.208866	0.001091	20.851462
769.232450	-3.015800	3.624800	-10.931000	25.229799	0.001092	20.850193
770.234349	-3.000900	3.624300	-10.874000	25.208221	0.001090	20.858875
771.238545	-2.982300	3.627500	-10.818000	25.189536	0.001090	20.848178
772.238601	-2.981200	3.625300	-10.807000	25.188734	0.001092	20.863019
773.236288	-2.983500	3.623800	-10.810000	25.190107	0.001090	20.855216
774.235662	-2.975600	3.625300	-10.786000	25.168081	0.001090	20.847975
775.238438	-3.017900	3.623200	-10.934000	25.182078	0.001091	20.850173
776.236897	-3.032300	3.623800	-10.986000	25.202814	0.001088	20.849654
777.240031	-2.974400	3.625900	-10.783000	25.239254	0.001089	20.857315
778.242717	-3.003200	3.623500	-10.881000	25.224963	0.001090	20.860510
779.238661	-2.988900	3.624600	-10.830000	25.229410	0.001091	20.848854
780.243333	-3.001800	3.622700	-10.873000	25.199385	0.001089	20.822031
781.241263	-2.997800	3.622800	-10.859000	25.215591	0.001088	20.824550
782.243770	-2.985800	3.623100	-10.816000	25.230482	0.001089	20.855146
783.239649	-3.006100	3.620300	-10.882000	25.211763	0.001090	20.834457
784.242019	-3.022500	3.621200	-10.943000	25.242442	0.001086	20.841076
785.245616	-2.997900	3.620900	-10.854000	25.218129	0.001085	20.828047
786.243200	-3.001800	3.620800	-10.869000	25.222281	0.001085	20.831267
787.244108	-3.008800	3.620700	-10.893000	25.214548	0.001085	20.839624
788.244549	-3.003700	3.621000	-10.876000	25.201796	0.001086	20.828718
789.240486	-3.011000	3.619900	-10.898000	25.197723	0.001086	20.836482
790.242537	-2.994600	3.619500	-10.838000	25.244774	0.001088	20.835830
791.240389	-2.988600	3.619000	-10.814000	25.250441	0.001083	20.829667
792.241488	-3.003900	3.618200	-10.867000	25.268712	0.001084	20.826199
793.245334	-3.006400	3.617600	-10.875000	25.280617	0.001083	20.822505
794.243832	-3.013500	3.617900	-10.901000	25.248276	0.001087	20.815166
795.244958	-3.004800	3.618200	-10.870000	25.228864	0.001084	20.842617
796.243675	-3.019900	3.617500	-10.924000	25.205451	0.001084	20.819112
797.245121	-2.999000	3.617800	-10.847000	25.146438	0.001083	20.831464
798.243822	-2.983100	3.617500	-10.790000	25.137691	0.001083	20.824579
799.244338	-3.002000	3.616200	-10.854000	25.111688	0.001082	20.821710
800.245112	-3.014700	3.616400	-10.900000	25.119944	0.001083	20.815773
801.247108	-3.012400	3.616200	-10.892000	25.133066	0.001083	20.809980
802.244460	-3.015000	3.615100	-10.898000	25.133287	0.001082	20.852400
803.244517	-3.016000	3.615200	-10.903000	25.165832	0.001081	20.844296
804.246845	-3.000400	3.615400	-10.846000	25.165109	0.001081	20.837880
805.246509	-2.992200	3.615200	-10.816000	25.197304	0.001080	20.816149
806.245245	-3.006000	3.614500	-10.864000	25.171446	0.001078	20.826224
807.245952	-2.996000	3.615000	-10.829000	25.154300	0.001078	20.816124
808.245145	-2.980900	3.613900	-10.771000	25.135108	0.001081	20.818667
809.246373	-2.998500	3.614300	-10.836000	25.113184	0.001079	20.817996
810.247383	-2.981600	3.613400	-10.771000	25.152214	0.001079	20.805495
811.250037	-2.999600	3.612700	-10.835000	25.187165	0.001077	20.800754
812.252947	-3.005400	3.612700	-10.857000	25.200738	0.001080	20.822915
813.247558	-2.986800	3.613000	-10.790000	25.163604	0.001081	20.810291
814.249090	-3.010200	3.612200	-10.871000	25.144337	0.001078	20.812760
815.250056	-3.001900	3.611600	-10.841000	25.154108	0.001078	20.803129
816.246588	-2.988400	3.611000	-10.790000	25.190402	0.001077	20.811116
817.247441	-3.019200	3.611500	-10.903000	25.172332	0.001077	20.792500
818.254351	-2.996900	3.610300	-10.818000	25.133927	0.001078	20.800413
819.247460	-2.974000	3.611600	-10.740000	25.167436	0.001077	20.799914
820.247805	-2.994100	3.610300	-10.809000	25.204792	0.001077	20.806122
821.251088	-2.994400	3.611300	-10.813000	25.232859	0.001075	20.800161
822.249466	-3.009200	3.608500	-10.857000	25.230846	0.001076	20.789132
823.249115	-3.024700	3.609300	-10.916000	25.224707	0.001073	20.800512
824.255267	-3.014000	3.608000	-10.874000	25.215989	0.001075	20.804562
825.250000	-2.986900	3.610700	-10.783000	25.236617	0.001074	20.795874
826.249912	-3.019000	3.608800	-10.892000	25.238954	0.001075	20.784469
827.252150	-3.008800	3.608300	-10.855000	25.207513	0.001074	20.804112
828.252272	-3.004300	3.608600	-10.840000	25.173133	0.001072	20.792357
829.250209	-3.013000	3.606900	-10.866000	25.160061	0.001073	20.814321
830.253168	-2.988500	3.607100	-10.778000	25.166526	0.001072	20.798526
831.251811	-3.009000	3.606100	-10.849000	25.214149	0.001073	20.784222
832.252348	-2.970500	3.607600	-10.716000	25.225036	0.001071	20.811274
833.252422	-3.017100	3.606600	-10.879000	25.242540	0.001070	20.809881
834.252057	-3.009700	3.605700	-10.851000	25.230359	0.001070	20.788169
835.251548	-3.005700	3.605700	-10.837000	25.235781	0.001068	20.795034
836.252036	-2.995700	3.606000	-10.802000	25.244351	0.001069	20.796526
837.253005	-3.033900	3.602800	-10.929000	25.206047	0.001068	20.797425
838.253614	-2.996100	3.604600	-10.799000	25.199661	0.001068	20.791962
839.252870	-2.979700	3.605100	-10.741000	25.160204	0.001068	20.788860
840.255065	-2.997000	3.602700	-10.796000	25.181040	0.001066	20.802191
841.261424	-2.985300	3.604900	-10.760000	25.191032	0.001067	20.789937
842.255334	-2.990700	3.604300	-10.779000	25.216265	0.001067	20.786820
843.255857	-2.985700	3.603800	-10.759000	25.212462	0.001067	20.786796
844.258235	-3.022000	3.601900	-10.883000	25.243209	0.001067	20.795854
845.256889	-2.992200	3.603700	-10.782000	25.230010	0.001064	20.798724
846.256880	-3.035300	3.602600	-10.934000	25.273759	0.001065	20.788593
847.257388	-3.014600	3.602100	-10.858000	25.303609	0.001063	20.789166
848.258703	-3.006300	3.602400	-10.828000	25.327644	0.001064	20.781056
849.257709	-2.993800	3.601700	-10.781000	25.318101	0.001062	20.805614
850.257025	-3.004500	3.601700	-10.821000	25.304529	0.001061	20.791512
851.258561	-2.994400	3.601500	-10.782000	25.312656	0.001064	20.786870
852.258701	-2.990100	3.601000	-10.765000	25.311962	0.001062	20.761991
853.258669	-3.003200	3.601100	-10.813000	25.297401	0.001063	20.775821
854.258912	-3.017400	3.600300	-10.863000	25.290986	0.001061	20.798778
855.260054	-2.984600	3.600700	-10.745000	25.293126	0.001060	20.797133
856.258848	-2.998200	3.599900	-10.793000	25.335549	0.001062	20.801796
857.258684	-3.000600	3.599100	-10.799000	25.356426	0.001060	20.801420
858.260134	-3.029000	3.597600	-10.896000	25.374345	0.001062	20.787171
859.260116	-2.968800	3.599900	-10.685000	25.379318	0.001059	20.788845
860.260951	-3.016100	3.597500	-10.849000	25.409220	0.001061	20.802749
861.268381	-2.997200	3.598100	-10.783000	25.428924	0.001058	20.799776
862.262264	-2.992200	3.596700	-10.761000	25.450374	0.001057	20.793814
863.260813	-2.986700	3.598100	-10.744000	25.453507	0.001055	20.789848
864.260619	-2.983500	3.597600	-10.733000	25.452337	0.001055	20.779663
865.262382	-2.993400	3.595900	-10.763000	25.458578	0.001057	20.774551
866.267767	-2.996600	3.595400	-10.772000	25.454973	0.001057	20.777095
867.263365	-3.001900	3.595000	-10.791000	25.444487	0.001056	20.795014
868.267593	-3.014900	3.595200	-10.836000	25.447571	0.001056	20.787206
869.263799	-2.976400	3.595700	-10.701000	25.451397	0.001055	20.771134
870.263405	-2.995000	3.595500	-10.767000	25.464318	0.001056	20.786005
871.265155	-3.004200	3.594700	-10.798000	25.476501	0.001056	20.787334
872.262426	-3.016700	3.593400	-10.839000	25.491985	0.001056	20.780123
873.264346	-2.994900	3.594900	-10.766000	25.510168	0.001056	20.785581
874.266229	-2.996300	3.593800	-10.766000	25.509897	0.001053	20.782464
875.263908	-2.982200	3.594500	-10.718000	25.519266	0.001054	20.758682
876.263750	-2.984800	3.594400	-10.728000	25.557338	0.001053	20.780320
877.263439	-3.005500	3.592100	-10.794000	25.549238	0.001053	20.775505
878.265780	-3.000300	3.591900	-10.776000	25.542254	0.001051	20.769914
879.265319	-2.984100	3.592700	-10.721000	25.569215	0.001051	20.785136
880.264224	-2.994100	3.591200	-10.752000	25.551269	0.001052	20.795563
881.265535	-3.017100	3.590300	-10.831000	25.556064	0.001052	20.779515
882.266038	-3.006200	3.590600	-10.793000	25.557087	0.001051	20.776749
883.265776	-3.008600	3.590800	-10.802000	25.551943	0.001051	20.771583
884.265472	-2.982600	3.591700	-10.710000	25.560117	0.001051	20.767938
885.268263	-2.997200	3.591100	-10.762000	25.471622	0.001050	20.770106
886.268512	-3.017000	3.588400	-10.824000	25.432461	0.001048	20.785309
887.267056	-2.999500	3.589400	-10.766000	25.428659	0.001049	20.776749
888.266495	-2.981600	3.590000	-10.702000	25.422963	0.001048	20.760598
889.266563	-2.990600	3.587400	-10.726000	25.439121	0.001049	20.779194
890.267821	-3.009000	3.586900	-10.791000	25.466507	0.001048	20.782513
891.267424	-3.005300	3.587600	-10.781000	25.461067	0.001048	20.778947
892.269986	-3.002300	3.587700	-10.770000	25.456139	0.001050	20.778266
893.267447	-2.998000	3.587200	-10.754000	25.455426	0.001047	20.756212
894.269794	-2.990600	3.587400	-10.727000	25.441855	0.001047	20.771035
895.269425	-2.992200	3.587800	-10.732000	25.496303	0.001046	20.768338
896.269652	-3.007100	3.585400	-10.781000	25.508284	0.001046	20.754765
897.272591	-3.003100	3.585400	-10.765000	25.519070	0.001047	20.778873
898.270893	-2.998600	3.585000	-10.748000	25.531523	0.001045	20.777629
899.269439	-3.008500	3.584400	-10.783000	25.547320	0.001045	20.738016
900.270358	-3.001500	3.585600	-10.761000	25.510414	0.001044	20.775396
901.270976	-3.001300	3.585100	-10.759000	25.517648	0.001044	20.787877
902.270971	-2.993800	3.584500	-10.729000	25.525301	0.001043	20.788924
903.271620	-3.035200	3.583100	-10.874000	25.508254	0.001042	20.761374
904.273579	-2.999800	3.584800	-10.752000	25.501713	0.001042	20.778038
905.272033	-3.006300	3.584300	-10.774000	25.518716	0.001043	20.751964
906.273178	-3.019100	3.584300	-10.820000	25.537670	0.001041	20.761043
907.274064	-3.003900	3.582400	-10.760000	25.503523	0.001042	20.766105
908.273914	-2.993800	3.582600	-10.725000	25.495422	0.001041	20.783101
909.273933	-3.014600	3.581400	-10.795000	25.459483	0.001040	20.782573
910.273982	-2.986500	3.583100	-10.699000	25.422899	0.001039	20.778078
911.275898	-3.020700	3.580900	-10.816000	25.403490	0.001039	20.753846
912.276586	-2.987100	3.581900	-10.698000	25.377115	0.001040	20.758657
913.274206	-2.998500	3.581200	-10.737000	25.395236	0.001037	20.769741
914.278483	-2.996000	3.580700	-10.726000	25.417006	0.001037	20.758884
915.277277	-3.011900	3.580900	-10.784000	25.460290	0.001035	20.752088
916.275077	-2.975200	3.581800	-10.655000	25.487037	0.001034	20.756662
917.280025	-2.995600	3.580100	-10.724000	25.535246	0.001034	20.765246
918.278574	-3.010500	3.578700	-10.773000	25.553861	0.001036	20.746482
919.276590	-3.010100	3.577300	-10.767000	25.572367	0.001035	20.763646
920.276523	-2.988000	3.578800	-10.692000	25.572894	0.001035	20.749475
921.277673	-2.987000	3.578700	-10.689000	25.518843	0.001034	20.747825
922.277490	-2.985200	3.579100	-10.683000	25.511786	0.001034	20.761127
923.278286	-2.976900	3.579600	-10.655000	25.500454	0.001033	20.756385
924.278514	-3.011800	3.576400	-10.771000	25.510369	0.001031	20.775826
925.279057	-3.001700	3.576400	-10.734000	25.504015	0.001031	20.756642
926.293432	-2.997500	3.576200	-10.719000	25.486122	0.001030	20.756691
927.281902	-3.006700	3.575900	-10.751000	25.492009	0.001030	20.747430
928.281995	-3.032100	3.575700	-10.840000	25.509209	0.001030	20.765177
929.281948	-3.005500	3.576200	-10.747000	25.517879	0.001029	20.750176
930.283032	-2.981800	3.575400	-10.660000	25.534705	0.001027	20.747633
931.284069	-2.972800	3.576100	-10.629000	25.550389	0.001027	20.735408
932.284851	-2.993200	3.573600	-10.695000	25.561966	0.001026	20.761734
933.285437	-3.000600	3.573900	-10.722000	25.558341	0.001025	20.756671
934.283702	-3.014300	3.572500	-10.767000	25.559187	0.001025	20.757047
935.283858	-2.988300	3.574100	-10.679000	25.568335	0.001027	20.747741
936.284646	-2.999900	3.574200	-10.721000	25.551392	0.001024	20.747321
937.285819	-3.002700	3.573200	-10.727000	25.546449	0.001024	20.730503
938.284393	-3.011100	3.572400	-10.755000	25.540803	0.001025	20.748067
939.293754	-2.996000	3.572100	-10.701000	25.528183	0.001022	20.743928
940.284277	-3.008600	3.572500	-10.747000	25.497542	0.001022	20.734020
941.284001	-3.022700	3.570400	-10.791000	25.519743	0.001022	20.735452
942.287990	-2.983100	3.572500	-10.655000	25.529486	0.001019	20.725796
943.283822	-3.032300	3.569200	-10.820000	25.566092	0.001020	20.722728
944.284304	-3.011200	3.569900	-10.750000	25.604929	0.001021	20.747035
945.287078	-3.014000	3.569600	-10.756000	25.595418	0.001019	20.763562
946.283624	-3.006900	3.570300	-10.735000	25.563441	0.001019	20.735714
947.285150	-3.002800	3.570000	-10.719000	25.552833	0.001017	20.724586
948.283856	-2.982700	3.569200	-10.643000	25.572318	0.001016	20.756010
949.284687	-2.993300	3.568700	-10.681000	25.554825	0.001017	20.745079
950.284249	-2.989800	3.569600	-10.672000	25.549779	0.001017	20.712509
951.283725	-2.999700	3.569000	-10.705000	25.553064	0.001016	20.747104
952.283800	-3.010400	3.569000	-10.743000	25.541157	0.001014	20.730404
953.284589	-2.993500	3.568600	-10.681000	25.561735	0.001014	20.716455
954.285023	-3.002700	3.567900	-10.712000	25.544812	0.001017	20.726961
955.283693	-3.011900	3.568400	-10.747000	25.533583	0.001013	20.724694
956.287677	-2.997700	3.567800	-10.694000	25.532664	0.001013	20.726142
957.285697	-2.966000	3.566800	-10.576000	25.517162	0.001013	20.737127
958.287508	-3.017500	3.564900	-10.755000	25.510473	0.001013	20.734677
959.287376	-2.987500	3.565900	-10.651000	25.516684	0.001011	20.739967
960.286019	-2.990500	3.565400	-10.661000	25.477997	0.001012	20.724823
961.284143	-3.003400	3.565100	-10.707000	25.479039	0.001011	20.741044
962.287121	-2.974400	3.565800	-10.604000	25.499293	0.001009	20.745736
963.288211	-3.000700	3.563100	-10.691000	25.529137	0.001009	20.741567
964.290044	-2.987300	3.564700	-10.647000	25.561568	0.001009	20.721503
965.287392	-2.973700	3.565400	-10.600000	25.603562	0.001008	20.724798
966.288197	-2.986200	3.563300	-10.640000	25.638626	0.001008	20.730617
967.287987	-3.012900	3.562200	-10.731000	25.671476	0.001008	20.746541
968.293730	-3.008100	3.561700	-10.713000	25.670428	0.001006	20.739799
969.290666	-2.978500	3.562000	-10.608000	25.667251	0.001006	20.715744
970.290210	-3.012300	3.562100	-10.728000	25.673192	0.001005	20.734988
971.294459	-2.994700	3.562800	-10.668000	25.693491	0.001005	20.727875
972.293280	-2.996700	3.561500	-10.672000	25.690413	0.001005	20.708661
973.291165	-3.000300	3.560200	-10.680000	25.685466	0.001004	20.736411
974.291661	-2.983800	3.562000	-10.627000	25.723040	0.001004	20.725786
975.292158	-3.008500	3.559900	-10.709000	25.712502	0.001003	20.735117
976.291776	-2.977400	3.561500	-10.602000	25.704059	0.001001	20.703875
977.291361	-2.978100	3.560600	-10.604000	25.707988	0.001002	20.729160
978.292314	-3.017100	3.559300	-10.737000	25.696757	0.001002	20.731629
979.291944	-2.973100	3.561500	-10.587000	25.701030	0.001000	20.730706
980.292055	-3.013500	3.559700	-10.727000	25.696437	0.001000	20.725618
981.292946	-3.013900	3.557800	-10.722000	25.713756	0.001000	20.719780
982.292706	-2.980000	3.558200	-10.602000	25.761606	0.000997	20.706675
983.293252	-2.999000	3.558500	-10.671000	25.753035	0.000997	20.721775
984.295950	-2.985100	3.557500	-10.618000	25.760962	0.000997	20.712193
985.293002	-3.018800	3.557500	-10.739000	25.767428	0.000997	20.714895
986.295220	-2.997800	3.557500	-10.663000	25.763248	0.000997	20.715438
987.294553	-2.997000	3.557900	-10.662000	25.763273	0.000996	20.731111
988.295049	-3.000900	3.556800	-10.672000	25.737585	0.000995	20.712420
989.294081	-3.005700	3.555500	-10.686000	25.699029	0.000996	20.738179
990.294877	-3.021600	3.554300	-10.737000	25.684522	0.000995	20.737833
991.294934	-3.002500	3.555300	-10.673000	25.697121	0.000995	20.707338
992.295062	-3.014600	3.553000	-10.710000	25.720528	0.000993	20.706666
993.294497	-3.011300	3.553900	-10.699000	25.673792	0.000993	20.700027
994.295318	-2.997400	3.553500	-10.650000	25.675681	0.000994	20.709511
995.294566	-3.006900	3.553900	-10.685000	25.659182	0.000993	20.718071
996.301704	-3.004700	3.552600	-10.673000	25.689376	0.000992	20.709990
997.295918	-2.989400	3.554300	-10.623000	25.718044	0.000992	20.707491
998.300468	-2.993200	3.552900	-10.634000	25.725701	0.000991	20.714707
999.296724	-3.003300	3.552500	-10.668000	25.728882	0.000990	20.716955
1000.296519	-3.016700	3.551100	-10.710000	25.739243	0.000989	20.717404
1001.298367	-2.994600	3.551600	-10.634000	25.761803	0.000991	20.696441
1002.295875	-2.996100	3.550700	-10.638000	25.777164	0.000990	20.726572
1003.299895	-3.001200	3.550300	-10.653000	25.793636	0.000990	20.708978
1004.299499	-3.008800	3.549500	-10.679000	25.804768	0.000987	20.727748
1005.300349	-2.961200	3.552300	-10.518000	25.836694	0.000988	20.721410
1006.301594	-2.998800	3.549200	-10.642000	25.863249	0.000988	20.703041
1007.300200	-2.974100	3.551300	-10.561000	25.854532	0.000987	20.721312
1008.301849	-3.016000	3.549100	-10.703000	25.811927	0.000989	20.723085
1009.301060	-2.988300	3.549600	-10.606000	25.809095	0.000988	20.722611
1010.302312	-3.014800	3.548000	-10.695000	25.788178	0.000988	20.725782
1011.301705	-3.024000	3.548600	-10.730000	25.769425	0.000987	20.705520
1012.304945	-3.002000	3.548800	-10.653000	25.727663	0.000983	20.718101
1013.302133	-3.003600	3.548400	-10.657000	25.675356	0.000985	20.730524
1014.301135	-3.005300	3.546500	-10.657000	25.637117	0.000983	20.712505
1015.301644	-3.003000	3.547000	-10.650000	25.586852	0.000987	20.718447
1016.301825	-3.000500	3.547200	-10.641000	25.611643	0.000983	20.718689
1017.302922	-3.005600	3.546000	-10.657000	25.616585	0.000984	20.723179
1018.302775	-2.988700	3.546200	-10.597000	25.639822	0.000985	20.710479
1019.303169	-2.992500	3.546100	-10.610000	25.678061	0.000982	20.713799
1020.307863	-2.975100	3.545600	-10.547000	25.685609	0.000981	20.733235
1021.307320	-2.985500	3.546500	-10.587000	25.636905	0.000982	20.709921
1022.306853	-2.998800	3.543700	-10.626000	25.659615	0.000981	20.707600
1023.303109	-3.017500	3.542300	-10.687000	25.690920	0.000980	20.729086
1024.305251	-2.999000	3.544100	-10.628000	25.718118	0.000980	20.720368
1025.305525	-3.004100	3.541800	-10.638000	25.724525	0.000979	20.740555
1026.304589	-3.007100	3.542200	-10.651000	25.733470	0.000981	20.719192
1027.305041	-2.984700	3.542000	-10.569000	25.733563	0.000979	20.729244
1028.304122	-2.983800	3.543400	-10.571000	25.775595	0.000977	20.723573
1029.304716	-2.989500	3.542000	-10.587000	25.810948	0.000979	20.714040
1030.305383	-2.978500	3.542300	-10.550000	25.823958	0.000977	20.727110
1031.304832	-2.979600	3.543300	-10.556000	25.829077	0.000977	20.739364
1032.304239	-2.997200	3.541200	-10.612000	25.857535	0.000975	20.739028
1033.303945	-2.976200	3.541600	-10.539000	25.857884	0.000975	20.715670
1034.304686	-3.021700	3.540600	-10.698000	25.811273	0.000974	20.723376
1035.304981	-3.004700	3.539800	-10.635000	25.754127	0.000975	20.725243
1036.305203	-3.012400	3.538200	-10.657000	25.728532	0.000975	20.721345
1037.305487	-3.000200	3.539300	-10.618000	25.726787	0.000974	20.724808
1038.305937	-2.973800	3.539700	-10.526000	25.727377	0.000971	20.728720
1039.304897	-3.013300	3.538200	-10.661000	25.759919	0.000972	20.722052
1040.306944	-3.019600	3.536700	-10.677000	25.776883	0.000970	20.743360
1041.304945	-2.980200	3.538900	-10.546000	25.773997	0.000970	20.740935
1042.304059	-3.001200	3.535900	-10.611000	25.788532	0.000971	20.733723
1043.306551	-3.024200	3.536300	-10.694000	25.803656	0.000970	20.725208
1044.305485	-3.003300	3.536500	-10.621000	25.776067	0.000968	20.744437
1045.306113	-3.002700	3.537200	-10.619000	25.783919	0.000968	20.744264
1046.304753	-2.990200	3.536000	-10.573000	25.786697	0.000970	20.733778
1047.306621	-2.983500	3.537200	-10.553000	25.794299	0.000968	20.728611
1048.306653	-2.977800	3.536900	-10.531000	25.803858	0.000969	20.738213
1049.304500	-3.015400	3.536300	-10.661000	25.855401	0.000965	20.744946
1050.304585	-3.015100	3.535200	-10.657000	25.885909	0.000967	20.765162
1051.306416	-3.016200	3.534500	-10.660000	25.903913	0.000965	20.736781
1052.308022	-3.013100	3.533800	-10.646000	25.869802	0.000965	20.760361
1053.306209	-3.003300	3.533500	-10.609000	25.862225	0.000965	20.752750
1054.308417	-3.018300	3.532200	-10.660000	25.866252	0.000964	20.748734
1055.307506	-3.009200	3.533700	-10.631000	25.879812	0.000961	20.755718
1056.305148	-3.014900	3.532000	-10.647000	25.878765	0.000961	20.752295
1057.310344	-2.993500	3.532300	-10.573000	25.837597	0.000961	20.742234
1058.306802	-3.001000	3.531100	-10.596000	25.831466	0.000960	20.745084
1059.308048	-2.985600	3.531800	-10.543000	25.829844	0.000961	20.763369
1060.307263	-3.021800	3.529700	-10.665000	25.884975	0.000957	20.745731
1061.310544	-3.002000	3.531100	-10.599000	25.854614	0.000958	20.756484
1062.310120	-3.002500	3.529600	-10.596000	25.832799	0.000957	20.750690
1063.309665	-3.008500	3.529700	-10.618000	25.825571	0.000957	20.748171
1064.310205	-3.014300	3.528100	-10.633000	25.805077	0.000956	20.732326
1065.309751	-2.995000	3.529100	-10.569000	25.772055	0.000956	20.766012
1066.308746	-3.014700	3.528000	-10.634000	25.776505	0.000955	20.763843
1067.311145	-2.979000	3.528800	-10.512000	25.812748	0.000953	20.755205
1068.310726	-2.988900	3.527100	-10.541000	25.797422	0.000952	20.767785
1069.309960	-2.978000	3.529000	-10.508000	25.813416	0.000953	20.756351
1070.311026	-2.986800	3.527200	-10.534000	25.787632	0.000953	20.759848
1071.312621	-2.982200	3.527100	-10.518000	25.812900	0.000953	20.755832
1072.309068	-2.999900	3.526700	-10.578000	25.813687	0.000952	20.770847
1073.315735	-2.991400	3.526200	-10.547000	25.826613	0.000952	20.768185
1074.312510	-3.003700	3.525700	-10.589000	25.818166	0.000951	20.769183
1075.311706	-2.995700	3.525300	-10.561000	25.805721	0.000950	20.763320
1076.312630	-2.988400	3.526200	-10.536000	25.803258	0.000948	20.753259
1077.311705	-3.000500	3.524000	-10.573000	25.831820	0.000949	20.756346
1078.312900	-3.014600	3.524300	-10.623000	25.819681	0.000950	20.768333
1079.312869	-3.014100	3.524000	-10.620000	25.850853	0.000948	20.761715
1080.312520	-3.028600	3.522800	-10.669000	25.884468	0.000947	20.774147
1081.334856	-2.995700	3.522500	-10.551000	25.888392	0.000947	20.757225
1082.313280	-2.998400	3.523500	-10.564000	25.883598	0.000948	20.747667
1083.315384	-2.988500	3.522600	-10.527000	25.879124	0.000945	20.780158
1084.314899	-2.992800	3.523500	-10.544000	25.910049	0.000945	20.747213
1085.314976	-2.990500	3.523100	-10.535000	25.920531	0.000943	20.765804
1086.314552	-2.979900	3.521700	-10.493000	25.888559	0.000944	20.778730
1087.315554	-2.983100	3.520300	-10.500000	25.909253	0.000941	20.772966
1088.318202	-2.992600	3.520800	-10.536000	25.852982	0.000940	20.765276
1089.315217	-2.996400	3.520100	-10.546000	25.848710	0.000939	20.784218
1090.315847	-2.994800	3.519900	-10.541000	25.835046	0.000939	20.757689
1091.317568	-2.990800	3.519800	-10.526000	25.833826	0.000940	20.763103
1092.319937	-3.001300	3.518700	-10.559000	25.847441	0.000938	20.777253
1093.316953	-3.013000	3.517600	-10.597000	25.854443	0.000938	20.771010
1094.318233	-2.990900	3.518700	-10.522000	25.903107	0.000937	20.784810
1095.318260	-2.996000	3.518500	-10.539000	25.932394	0.000937	20.761127
1096.316136	-2.976500	3.518500	-10.471000	25.947994	0.000936	20.784386
1097.319399	-2.986100	3.518000	-10.504000	25.953387	0.000937	20.777950
1098.316648	-2.980700	3.516700	-10.481000	25.980082	0.000934	20.778691
1099.318362	-2.973300	3.517400	-10.456000	25.999506	0.000932	20.803895
1100.318672	-2.978100	3.516800	-10.471000	25.989845	0.000934	20.775698
1101.321635	-2.982200	3.515400	-10.483000	26.041385	0.000934	20.795237
1102.326103	-2.993500	3.516600	-10.525000	26.026081	0.000932	20.775120
1103.321824	-2.994700	3.515200	-10.526000	26.043498	0.000931	20.792619
1104.323358	-3.012900	3.513200	-10.584000	26.041360	0.000931	20.803747
1105.320285	-2.995400	3.515300	-10.528000	26.038057	0.000930	20.784781
1106.322139	-3.002000	3.513700	-10.547000	26.067959	0.000931	20.794437
1107.327224	-2.986000	3.513000	-10.489000	26.088428	0.000929	20.776123
1108.323905	-2.967800	3.515100	-10.430000	26.082146	0.000928	20.778819
1109.322526	-2.976900	3.514300	-10.460000	26.118954	0.000927	20.802053
1110.327510	-3.007600	3.512600	-10.563000	26.087037	0.000924	20.785630
1111.324319	-3.005500	3.511800	-10.553000	26.091510	0.000927	20.795341
1112.322964	-2.973800	3.512300	-10.444000	26.086492	0.000923	20.783660
1113.324314	-2.992800	3.511900	-10.510000	26.089126	0.000926	20.793894
1114.324255	-2.984800	3.510500	-10.477000	26.096431	0.000927	20.789379
1115.323320	-3.012000	3.510000	-10.571000	26.100354	0.000926	20.783837
1116.323785	-3.030800	3.508200	-10.631000	26.063201	0.000921	20.793449
1117.324936	-3.026200	3.508200	-10.615000	26.033495	0.000921	20.787784
1118.324944	-3.030100	3.507700	-10.628000	26.039531	0.000923	20.805703
1119.324598	-3.019200	3.508400	-10.592000	26.043656	0.000923	20.800838
1120.326195	-3.005200	3.508700	-10.543000	26.067625	0.000921	20.811644
1121.326342	-2.981800	3.509800	-10.465000	26.031587	0.000921	20.792031
1122.323484	-3.000300	3.507200	-10.522000	26.030466	0.000920	20.792802
1123.324963	-3.013100	3.507400	-10.567000	26.056673	0.000921	20.799692
1124.326540	-2.995200	3.506000	-10.500000	26.053517	0.000920	20.781348
1125.327814	-2.993500	3.506000	-10.494000	26.057145	0.000919	20.799218
1126.329613	-3.020000	3.505500	-10.586000	26.039044	0.000919	20.796205
1127.327290	-2.999400	3.504900	-10.512000	25.997067	0.000918	20.795281
1128.328245	-2.989800	3.506500	-10.483000	25.966616	0.000918	20.799776
1129.327604	-2.988400	3.504400	-10.471000	25.991556	0.000918	20.790219
1130.331545	-3.003800	3.504600	-10.526000	26.002784	0.000916	20.789646
1131.329080	-3.000400	3.504600	-10.515000	26.006511	0.000917	20.801924
1132.329129	-2.954300	3.506400	-10.358000	26.040239	0.000917	20.798828
1133.328311	-2.964800	3.504300	-10.388000	26.046325	0.000916	20.792614
1134.329163	-3.013500	3.502000	-10.552000	26.076778	0.000916	20.807565
1135.332098	-2.994100	3.503200	-10.486000	26.085375	0.000915	20.819048
1136.331465	-2.984700	3.503400	-10.455000	26.117887	0.000915	20.804300
1137.330888	-3.018500	3.502100	-10.570000	26.107879	0.000914	20.801830
1138.332040	-2.991000	3.500400	-10.467000	26.112126	0.000913	20.798511
1139.332468	-2.992500	3.502100	-10.477000	26.094489	0.000912	20.796437
1140.334007	-3.002900	3.500900	-10.512000	26.137480	0.000909	20.814030
1141.333178	-3.006300	3.500500	-10.523000	26.107358	0.000911	20.811738
1142.336173	-3.008400	3.499600	-10.528000	26.111630	0.000911	20.821246
1143.333842	-3.000900	3.499500	-10.500000	26.096455	0.000909	20.801732
1144.333237	-3.016200	3.500400	-10.556000	26.048994	0.000909	20.813314
1145.336128	-3.019100	3.498300	-10.560000	26.058506	0.000908	20.796793
1146.333884	-3.000600	3.498800	-10.498000	26.055031	0.000908	20.814163
1147.332950	-2.973800	3.498200	-10.402000	26.068244	0.000909	20.821749
1148.335145	-2.994400	3.498500	-10.474000	26.068067	0.000908	20.790752
1149.334340	-2.998100	3.496900	-10.483000	26.066130	0.000910	20.800660
1150.334849	-2.995600	3.497300	-10.475000	26.093005	0.000907	20.833351
1151.336527	-3.011600	3.495500	-10.526000	26.128495	0.000906	20.818752
1152.334491	-2.997400	3.497300	-10.482000	26.144313	0.000906	20.804300
1153.335240	-3.012300	3.496900	-10.532000	26.174173	0.000906	20.812494
1154.340272	-3.001400	3.495800	-10.491000	26.164628	0.000906	20.805273
1155.335704	-2.995100	3.497400	-10.474000	26.154846	0.000903	20.840014
1156.335937	-2.999100	3.495400	-10.482000	26.167041	0.000903	20.835672
1157.337620	-3.020500	3.494500	-10.554000	26.160735	0.000904	20.820327
1158.337672	-3.010100	3.493300	-10.514000	26.166250	0.000903	20.831558
1159.337294	-2.998800	3.493600	-10.475000	26.166422	0.000903	20.832679
1160.336556	-2.953800	3.495000	-10.323000	26.183684	0.000903	20.836749
1161.337508	-2.964800	3.494000	-10.357000	26.160170	0.000901	20.827345
1162.336787	-3.006600	3.490700	-10.494000	26.155942	0.000901	20.840167
1163.338583	-3.021300	3.490600	-10.545000	26.187056	0.000900	20.833499
1164.336842	-2.973800	3.492900	-10.386000	26.188550	0.000901	20.805130
1165.339854	-2.980700	3.491500	-10.407000	26.183340	0.000900	20.792782
1166.344523	-2.998800	3.490500	-10.466000	26.186835	0.000899	20.823320
1167.340153	-3.026800	3.489500	-10.560000	26.161974	0.000900	20.845279
1168.343149	-3.008900	3.488500	-10.495000	26.137962	0.000901	20.816410
1169.344537	-2.974400	3.490800	-10.382000	26.115557	0.000900	20.824244
1170.339840	-2.996300	3.490500	-10.458000	26.093427	0.000898	20.826664
1171.343629	-2.968600	3.490600	-10.361000	26.066996	0.000897	20.824288
1172.342972	-2.995000	3.488900	-10.447000	26.035780	0.000898	20.831331
1173.340611	-2.980800	3.488300	-10.396000	26.046236	0.000896	20.838043
1174.351250	-3.013100	3.487000	-10.505000	26.054480	0.000896	20.836843
1175.340834	-2.994500	3.486900	-10.440000	26.079860	0.000897	20.831524
1176.341519	-2.988200	3.488200	-10.422000	26.092901	0.000894	20.845575
1177.342707	-2.976600	3.486600	-10.377000	26.125585	0.000895	20.827207
1178.341445	-2.994300	3.487200	-10.440000	26.119750	0.000891	20.835569
1179.341592	-3.014500	3.484600	-10.503000	26.146249	0.000891	20.834695
1180.345129	-2.989100	3.484900	-10.415000	26.149130	0.000891	20.850865
1181.342462	-3.016800	3.484100	-10.509000	26.099478	0.000890	20.842701
1182.342745	-3.015700	3.483600	-10.504000	26.040819	0.000890	20.842083
1183.343969	-3.014500	3.482900	-10.498000	26.034458	0.000888	20.847071
1184.344049	-3.019200	3.482900	-10.514000	26.014711	0.000888	20.840982
1185.342487	-3.012600	3.481700	-10.488000	26.030884	0.000889	20.851067
1186.344731	-3.040000	3.482300	-10.585000	26.033991	0.000888	20.855611
1187.345694	-2.994800	3.482100	-10.428000	26.023805	0.000886	20.834472
1188.348060	-2.981000	3.481400	-10.376000	25.998320	0.000886	20.852489
1189.345367	-2.997900	3.480900	-10.435000	25.977560	0.000885	20.844434
1190.351414	-2.982200	3.482600	-10.384000	25.960668	0.000885	20.851645
1191.344167	-3.021200	3.479900	-10.512000	25.968666	0.000884	20.845456
1192.345579	-2.978200	3.481600	-10.365000	25.993429	0.000884	20.855635
1193.345729	-3.003400	3.479600	-10.450000	26.041940	0.000881	20.841787
1194.345429	-3.026700	3.478500	-10.527000	26.060846	0.000882	20.856989
1195.345938	-3.026200	3.478200	-10.524000	26.050410	0.000881	20.862624
1196.346950	-3.000300	3.477800	-10.433000	26.089229	0.000882	20.844730
1197.350058	-2.981600	3.479000	-10.371000	26.095792	0.000881	20.875504
1198.347630	-2.999100	3.479200	-10.434000	26.111738	0.000881	20.860233
1199.347965	-2.986300	3.479300	-10.388000	26.080465	0.000879	20.870062
1200.350077	-2.994300	3.477200	-10.410000	26.071503	0.000879	20.863429
1201.346194	-3.005400	3.476500	-10.447000	26.042790	0.000879	20.861606
1202.348033	-2.991800	3.477500	-10.403000	26.040499	0.000878	20.860727
1203.350546	-2.999400	3.475500	-10.423000	26.017355	0.000877	20.886310
1204.350736	-2.988500	3.475500	-10.386000	25.995272	0.000876	20.841841
1205.348443	-2.976800	3.475400	-10.344000	25.980721	0.000877	20.865627
1206.353481	-3.012200	3.474200	-10.464000	25.977589	0.000875	20.857739
1207.351653	-2.987700	3.476500	-10.385000	25.976945	0.000873	20.863730
1208.349854	-2.989300	3.474100	-10.384000	25.986556	0.000873	20.875282
1209.355169	-3.004900	3.474300	-10.439000	26.011943	0.000873	20.863804
1210.354017	-2.999900	3.471900	-10.415000	26.038867	0.000873	20.882320
1211.350309	-2.994600	3.472600	-10.397000	26.023594	0.000871	20.856070
1212.354672	-3.001100	3.471900	-10.419000	26.032462	0.000871	20.873040
1213.352607	-2.995700	3.471300	-10.397000	26.047667	0.000873	20.879307
1214.352806	-3.009400	3.472200	-10.448000	26.067713	0.000872	20.860095
1215.351543	-3.024600	3.470900	-10.498000	26.085469	0.000871	20.858495
1216.351251	-3.019100	3.469700	-10.474000	26.105937	0.000869	20.874319
1217.351182	-3.004900	3.469500	-10.424000	26.096676	0.000870	20.874023
1218.351740	-2.981000	3.469500	-10.341000	26.119647	0.000869	20.858223
1219.351880	-3.017800	3.468900	-10.467000	26.109614	0.000869	20.873746
1220.353474	-2.989500	3.470700	-10.375000	26.133582	0.000868	20.887397
1221.358120	-3.015800	3.466300	-10.452000	26.137628	0.000867	20.874393
1222.355001	-2.997800	3.468100	-10.396000	26.152482	0.000869	20.860396
1223.355584	-3.005300	3.466000	-10.414000	26.152875	0.000868	20.878808
1224.359456	-2.964900	3.469200	-10.285000	26.172969	0.000867	20.871025
1225.354814	-3.006600	3.464700	-10.414000	26.199069	0.000866	20.877336
1226.356104	-3.005500	3.465800	-10.415000	26.175402	0.000864	20.875366
1227.355772	-2.974300	3.466600	-10.308000	26.191716	0.000866	20.889387
1228.354341	-2.978000	3.465800	-10.319000	26.185852	0.000865	20.872116
1229.359554	-2.984500	3.465100	-10.339000	26.188162	0.000864	20.870170
1230.357014	-3.003800	3.464800	-10.407000	26.123933	0.000865	20.876280
1231.356006	-3.008200	3.464200	-10.419000	26.104487	0.000864	20.867647
1232.357902	-3.007600	3.462800	-10.414000	26.085513	0.000862	20.867548
1233.357282	-2.996400	3.464200	-10.378000	26.106665	0.000863	20.847551
1234.356261	-3.008900	3.461700	-10.414000	26.150673	0.000863	20.854312
1235.360894	-3.004800	3.462500	-10.403000	26.185616	0.000864	20.842483
1236.361260	-3.017700	3.460900	-10.442000	26.186132	0.000863	20.847743
1237.358372	-3.003100	3.461400	-10.394000	26.159305	0.000862	20.852554
1238.362132	-3.015100	3.459200	-10.428000	26.163950	0.000861	20.872867
1239.363066	-3.022200	3.460500	-10.457000	26.207287	0.000861	20.859043
1240.360368	-3.003600	3.459600	-10.390000	26.211725	0.000860	20.871089
1241.366133	-2.987000	3.460100	-10.334000	26.224706	0.000861	20.881288
1242.359866	-2.995500	3.459400	-10.362000	26.197555	0.000860	20.846420
1243.360078	-3.014800	3.460200	-10.431000	26.141973	0.000858	20.814751
1244.359158	-2.996900	3.458900	-10.364000	26.143084	0.000858	20.826773
1245.362916	-2.992500	3.458200	-10.347000	26.142111	0.000858	20.851873
1246.362889	-2.988800	3.458500	-10.336000	26.178440	0.000857	20.839540
1247.361309	-2.973600	3.460700	-10.289000	26.168226	0.000856	20.833070
1248.363894	-2.995500	3.456500	-10.353000	26.206020	0.000852	20.849235
1249.363490	-2.988800	3.455900	-10.328000	26.179591	0.000854	20.848282
1250.362147	-2.978400	3.458600	-10.299000	26.173496	0.000855	20.837891
1251.364738	-3.013200	3.454800	-10.409000	26.155388	0.000851	20.851937
1252.364942	-3.004700	3.455000	-10.380000	26.169515	0.000851	20.840529
1253.364522	-2.998100	3.455500	-10.358000	26.195684	0.000852	20.841694
1254.364887	-2.996900	3.456100	-10.356000	26.221110	0.000851	20.849701
1255.364858	-3.029800	3.454000	-10.464000	26.226467	0.000850	20.841808
1256.364668	-3.015200	3.454400	-10.415000	26.228055	0.000850	20.841507
1257.364964	-3.019400	3.453500	-10.427000	26.217846	0.000847	20.864912
1258.369296	-3.011400	3.453400	-10.398000	26.221316	0.000847	20.829521
1259.366579	-3.007500	3.452200	-10.381000	26.196829	0.000846	20.845691
1260.365538	-2.988200	3.452700	-10.316000	26.201312	0.000846	20.851144
1261.366204	-3.009400	3.452100	-10.386000	26.189565	0.000845	20.836969
1262.365366	-2.984100	3.452200	-10.301000	26.214864	0.000846	20.835364
1263.367119	-2.985900	3.451700	-10.304000	26.263138	0.000845	20.834564
1264.369090	-3.004400	3.451200	-10.368000	26.269194	0.000843	20.840175
1265.367494	-2.994300	3.449700	-10.329000	26.309539	0.000844	20.842788
1266.367220	-3.006200	3.450600	-10.372000	26.351234	0.000846	20.828741
1267.370809	-3.026700	3.448100	-10.436000	26.358655	0.000844	20.845208
1268.366848	-2.985500	3.449400	-10.297000	26.364085	0.000842	20.842605
1269.369427	-3.027600	3.446900	-10.435000	26.366317	0.000841	20.826830
1270.369065	-3.001000	3.447000	-10.343000	26.382028	0.000843	20.818913
1271.366903	-2.996300	3.446700	-10.325000	26.359157	0.000842	20.831488
1272.372478	-2.983800	3.446500	-10.282000	26.355800	0.000843	20.831908
1273.367332	-3.010000	3.447400	-10.376000	26.350233	0.000840	20.879889
1274.367803	-2.987600	3.446600	-10.296000	26.327331	0.000840	20.831272
1275.369770	-2.988900	3.445100	-10.296000	26.296335	0.000842	20.828096
1276.368345	-2.997700	3.444500	-10.325000	26.283144	0.000839	20.843763
1277.369936	-3.003500	3.445600	-10.348000	26.265785	0.000840	20.834379
1278.371085	-2.990900	3.444300	-10.301000	26.260069	0.000839	20.829583
1279.370528	-2.994200	3.445300	-10.315000	26.264429	0.000839	20.846766
1280.372435	-2.993400	3.443800	-10.307000	26.318010	0.000837	20.824275
1281.374886	-2.978600	3.444500	-10.258000	26.283711	0.000837	20.811142
1282.371433	-3.004100	3.442300	-10.341000	26.331457	0.000838	20.807443
1283.374413	-3.003900	3.442500	-10.339000	26.269596	0.000837	20.824458
1284.373909	-3.006200	3.441700	-10.345000	26.260996	0.000836	20.831462
1285.372429	-2.995700	3.441200	-10.308000	26.240751	0.000834	20.830559
1286.374432	-2.995300	3.440500	-10.304000	26.224060	0.000834	20.825166
1287.372627	-2.990900	3.441700	-10.292000	26.213670	0.000833	20.814725
1288.372982	-2.985100	3.440900	-10.270000	26.202809	0.000834	20.825147
1289.384618	-3.001000	3.439900	-10.321000	26.192144	0.000832	20.855206
1290.374432	-2.995400	3.439800	-10.302000	26.172871	0.000834	20.829203
1291.371917	-3.041200	3.438900	-10.457000	26.159822	0.000830	20.814668
1292.374568	-2.987600	3.439900	-10.275000	26.124205	0.000832	20.835777
1293.371925	-2.996500	3.439200	-10.304000	26.109641	0.000829	20.825885
1294.374081	-2.999100	3.437400	-10.308000	26.106903	0.000829	20.835937
1295.375969	-2.988000	3.439900	-10.275000	26.097063	0.000831	20.835532
1296.374689	-2.967300	3.438200	-10.200000	26.073183	0.000828	20.830979
1297.376603	-2.990500	3.437900	-10.280000	26.092650	0.000827	20.831572
1298.375627	-3.023700	3.436400	-10.389000	26.121077	0.000827	20.828842
1299.378947	-3.000100	3.436500	-10.308000	26.144146	0.000828	20.841590
1300.376962	-3.026000	3.434700	-10.392000	26.165420	0.000826	20.815552
1301.377571	-2.997500	3.435400	-10.296000	26.196559	0.000825	20.813651
1302.378090	-3.022900	3.434600	-10.381000	26.207751	0.000826	20.824898
1303.383051	-3.000300	3.435600	-10.307000	26.267448	0.000825	20.828938
1304.380509	-3.018100	3.433800	-10.361000	26.291896	0.000827	20.833592
1305.379630	-3.001700	3.433200	-10.304000	26.315654	0.000823	20.821907
1306.381451	-3.009000	3.433100	-10.329000	26.340330	0.000823	20.820154
1307.379922	-2.993100	3.433100	-10.274000	26.337274	0.000823	20.814237
1308.383256	-2.982200	3.432400	-10.235000	26.377715	0.000822	20.820269
1309.380682	-2.985400	3.431700	-10.244000	26.376521	0.000822	20.847043
1310.378322	-3.001600	3.431000	-10.297000	26.367524	0.000822	20.834682
1311.379694	-2.991900	3.429100	-10.258000	26.373127	0.000821	20.830356
1312.379578	-3.016600	3.429200	-10.343000	26.388170	0.000820	20.821767
1313.381938	-2.985600	3.431200	-10.243000	26.393852	0.000819	20.819891
1314.382661	-3.019800	3.428000	-10.351000	26.436276	0.000818	20.811323
1315.384188	-2.971400	3.430200	-10.191000	26.443147	0.000818	20.831030
1316.383105	-2.996900	3.428300	-10.273000	26.456126	0.000819	20.816574
1317.384241	-2.990300	3.429900	-10.255000	26.384139	0.000819	20.827673
1318.388280	-3.001200	3.428600	-10.289000	26.394268	0.000818	20.831215
1319.388411	-2.999800	3.428300	-10.283000	26.372586	0.000815	20.798045
1320.384958	-3.006800	3.427900	-10.307000	26.403366	0.000815	20.827082
1321.392307	-2.984500	3.426100	-10.225000	26.414207	0.000814	20.819487
1322.389366	-3.004500	3.426500	-10.293000	26.432429	0.000814	20.819310
1323.385406	-3.020900	3.425200	-10.347000	26.465623	0.000814	20.819957
1324.389274	-2.996500	3.425500	-10.263000	26.424376	0.000813	20.814535
1325.388760	-3.002200	3.425400	-10.283000	26.375107	0.000812	20.815751
1326.387065	-3.009400	3.424000	-10.303000	26.335797	0.000811	20.834089
1327.390641	-3.008000	3.424300	-10.299000	26.283889	0.000811	20.826020
1328.386877	-3.020400	3.423500	-10.340000	26.254985	0.000813	20.828267
1329.388334	-3.022000	3.422700	-10.342000	26.227188	0.000808	20.797014
1330.388181	-2.994700	3.422900	-10.249000	26.231302	0.000808	20.814900
1331.390334	-2.993700	3.423400	-10.247000	26.215334	0.000810	20.814026
1332.388253	-3.003300	3.421900	-10.276000	26.249650	0.000808	20.812001
1333.387674	-3.002700	3.421900	-10.274000	26.262759	0.000807	20.819484
1334.388328	-3.019200	3.419500	-10.323000	26.287437	0.000808	20.821051
1335.388272	-3.004500	3.420700	-10.277000	26.311815	0.000807	20.824687
1336.387156	-2.991400	3.420400	-10.231000	26.297504	0.000807	20.812202
1337.390008	-2.984500	3.421100	-10.208000	26.248332	0.000808	20.825375
1338.388162	-2.990400	3.419500	-10.224000	26.254687	0.000806	20.826545
1339.388478	-2.986700	3.419400	-10.211000	26.270352	0.000804	20.807200
1340.390096	-2.998700	3.418700	-10.251000	26.274343	0.000804	20.831600
1341.388722	-2.988200	3.419100	-10.216000	26.323235	0.000804	20.816250
1342.389327	-2.973300	3.419000	-10.164000	26.354070	0.000802	20.805039
1343.392889	-2.976600	3.417900	-10.172000	26.379418	0.000802	20.815342
1344.390001	-3.001600	3.416500	-10.254000	26.408664	0.000801	20.811545
1345.389909	-3.014500	3.416300	-10.297000	26.394404	0.000801	20.814282
1346.394895	-2.992700	3.417500	-10.225000	26.367882	0.000799	20.827929
1347.390907	-3.005900	3.415000	-10.263000	26.338352	0.000800	20.815321
1348.392300	-2.971500	3.415800	-10.149000	26.355238	0.000800	20.828024
1349.391964	-2.991700	3.414600	-10.213000	26.371475	0.000801	20.819213
1350.393029	-2.987000	3.415200	-10.200000	26.374150	0.000797	20.816685
1351.395957	-2.996200	3.414600	-10.230000	26.340653	0.000797	20.813366
1352.393070	-2.991200	3.414800	-10.213000	26.339365	0.000797	20.798321
1353.393839	-2.986100	3.413800	-10.192000	26.310926	0.000796	20.808620
1354.397418	-2.991500	3.413000	-10.209000	26.330245	0.000794	20.793897
1355.393841	-3.007000	3.412500	-10.260000	26.322819	0.000794	20.815357
1356.395889	-2.994400	3.412300	-10.217000	26.324731	0.000794	20.825813
1357.394312	-3.002700	3.411700	-10.242000	26.341092	0.000794	20.806695
1358.393594	-2.994400	3.411700	-10.215000	26.338138	0.000793	20.808942
1359.396111	-2.997800	3.411200	-10.225000	26.353284	0.000790	20.826535
1360.393002	-2.995500	3.410800	-10.216000	26.330741	0.000791	20.791551
1361.395197	-3.020200	3.409900	-10.297000	26.295750	0.000790	20.796214
1362.397316	-3.005300	3.409700	-10.246000	26.295778	0.000788	20.782493
1363.395689	-2.996500	3.408700	-10.213000	26.324727	0.000790	20.806369
1364.394554	-3.014100	3.409700	-10.276000	26.346659	0.000787	20.799488
1365.396964	-3.020900	3.408300	-10.295000	26.371983	0.000790	20.801706
1366.398226	-3.001400	3.407700	-10.226000	26.366601	0.000788	20.780650
1367.394703	-2.980700	3.409800	-10.162000	26.377226	0.000787	20.778052
1368.394673	-3.011200	3.406300	-10.256000	26.358778	0.000786	20.784641
1369.397834	-2.998600	3.406900	-10.215000	26.370572	0.000783	20.811193
1370.395387	-3.002300	3.407400	-10.229000	26.348226	0.000785	20.800589
1371.394327	-2.972900	3.406800	-10.128000	26.346889	0.000784	20.792607
1372.397691	-2.978100	3.407000	-10.145000	26.344633	0.000782	20.811676
1373.393188	-2.990100	3.405200	-10.180000	26.391737	0.000784	20.786472
1374.394978	-2.957700	3.405200	-10.071000	26.437871	0.000781	20.808658
1375.395820	-2.979700	3.405400	-10.146000	26.439360	0.000783	20.809206
1376.395679	-3.004300	3.405000	-10.229000	26.462032	0.000781	20.799752
1377.397221	-2.974200	3.404000	-10.124000	26.449025	0.000782	20.815601
1378.397841	-3.006500	3.403200	-10.230000	26.468444	0.000780	20.801455
1379.401312	-2.995800	3.401900	-10.190000	26.467923	0.000779	20.773905
1380.398702	-3.005300	3.401000	-10.220000	26.446227	0.000779	20.789556
1381.406737	-3.017000	3.401100	-10.261000	26.458276	0.000779	20.779381
1382.401705	-3.016400	3.400700	-10.257000	26.486432	0.000779	20.795828
1383.397369	-3.001800	3.401100	-10.209000	26.503685	0.000779	20.774763
1384.398560	-3.018600	3.399600	-10.261000	26.524071	0.000777	20.787668
1385.404533	-2.996700	3.399700	-10.187000	26.527426	0.000774	20.766385
1386.398309	-2.976000	3.400600	-10.119000	26.526606	0.000776	20.778837
1387.398557	-2.983900	3.400600	-10.147000	26.514592	0.000775	20.778614
1388.399440	-3.007200	3.398500	-10.219000	26.511594	0.000772	20.782239
1389.398414	-3.010100	3.399600	-10.232000	26.507057	0.000774	20.794274
1390.400084	-2.998500	3.398800	-10.191000	26.534490	0.000774	20.775382
1391.399311	-3.012400	3.397900	-10.235000	26.535311	0.000772	20.766249
1392.398465	-2.985900	3.398600	-10.147000	26.549983	0.000773	20.790955
1393.398748	-2.982300	3.398600	-10.134000	26.552272	0.000771	20.775712
1394.399461	-3.001600	3.396000	-10.192000	26.536730	0.000771	20.759615
1395.401944	-3.018300	3.395300	-10.246000	26.551402	0.000771	20.765829
1396.404027	-2.989800	3.396400	-10.154000	26.534671	0.000772	20.761813
1397.401528	-2.994600	3.396400	-10.170000	26.555205	0.000772	20.763961
1398.402820	-3.028400	3.393500	-10.274000	26.583309	0.000771	20.799326
1399.402869	-2.986700	3.394200	-10.136000	26.567444	0.000770	20.772472
1400.402090	-3.011400	3.392700	-10.216000	26.523231	0.000769	20.784928
1401.401030	-3.015900	3.393000	-10.231000	26.473479	0.000769	20.770480
1402.402201	-3.020000	3.392200	-10.242000	26.465513	0.000768	20.755835
1403.401209	-2.977800	3.392500	-10.101000	26.488722	0.000768	20.762568
1404.401344	-2.999400	3.390900	-10.169000	26.497267	0.000768	20.776373
1405.401712	-3.022900	3.391000	-10.248000	26.499478	0.000764	20.754887
1406.401687	-3.001300	3.390700	-10.175000	26.500347	0.000765	20.751019
1407.401274	-3.001900	3.391400	-10.180000	26.460849	0.000768	20.769166
1408.404728	-3.022900	3.390600	-10.248000	26.434629	0.000765	20.761777
1409.403736	-3.022300	3.390300	-10.245000	26.456948	0.000764	20.760977
1410.403353	-3.001600	3.389600	-10.174000	26.465169	0.000766	20.756911
1411.405524	-2.975800	3.389300	-10.085000	26.440962	0.000764	20.765772
1412.404178	-2.988200	3.389600	-10.127000	26.456058	0.000763	20.756289
1413.407258	-2.983700	3.389500	-10.113000	26.445134	0.000761	20.764750
1414.404985	-3.012200	3.387200	-10.202000	26.413035	0.000762	20.757617
1415.405040	-2.984500	3.388800	-10.113000	26.423885	0.000762	20.747659
1416.405173	-2.995600	3.388500	-10.149000	26.397585	0.000760	20.771487
1417.405486	-2.992700	3.387700	-10.138000	26.423537	0.000760	20.756792
1418.406469	-3.027600	3.385800	-10.249000	26.444162	0.000759	20.755711
1419.406127	-3.028400	3.385300	-10.251000	26.436200	0.000758	20.742019
1420.409163	-3.025400	3.384500	-10.238000	26.437882	0.000758	20.747502
1421.406913	-3.018200	3.385200	-10.216000	26.426481	0.000758	20.749320
1422.407218	-3.003600	3.385600	-10.168000	26.453022	0.000758	20.770307
1423.407279	-3.004000	3.384900	-10.167000	26.486413	0.000756	20.756453
1424.410710	-2.988500	3.383900	-10.112000	26.509675	0.000757	20.746644
1425.408320	-2.966300	3.386200	-10.044000	26.491200	0.000756	20.747988
1426.411660	-2.996200	3.383800	-10.136000	26.494276	0.000755	20.749184
1427.411481	-2.996200	3.383500	-10.137000	26.508624	0.000756	20.744166
1428.408851	-2.986800	3.383800	-10.105000	26.512988	0.000756	20.747604
1429.410486	-2.991800	3.382700	-10.119000	26.502881	0.000753	20.750721
1430.413984	-2.991500	3.381700	-10.115000	26.510425	0.000755	20.746923
1431.410913	-3.029800	3.378900	-10.237000	26.458411	0.000754	20.767189
1432.409791	-2.990800	3.382000	-10.114000	26.432182	0.000755	20.740351
1433.411412	-2.999300	3.380900	-10.139000	26.409857	0.000754	20.754423
1434.410953	-2.980900	3.381100	-10.077000	26.446802	0.000753	20.744614
1435.412063	-3.012400	3.379000	-10.178000	26.439049	0.000750	20.749623
1436.411661	-2.999300	3.379000	-10.134000	26.421840	0.000751	20.743706
1437.412884	-2.982600	3.378800	-10.075000	26.399014	0.000751	20.748266
1438.411870	-3.010200	3.378800	-10.170000	26.438892	0.000752	20.737612
1439.412845	-3.010100	3.378200	-10.168000	26.455994	0.000751	20.743896
1440.413886	-3.002800	3.377300	-10.140000	26.491763	0.000748	20.739071
1441.413443	-3.001900	3.377500	-10.138000	26.505915	0.000748	20.740020
1442.412902	-3.016700	3.374600	-10.179000	26.521375	0.000748	20.740386
1443.413692	-3.009400	3.377000	-10.162000	26.480035	0.000747	20.726808
1444.416668	-2.983200	3.376900	-10.073000	26.484203	0.000745	20.740481
1445.414471	-3.002700	3.376000	-10.137000	26.461855	0.000744	20.751210
1446.417761	-2.986100	3.376100	-10.080000	26.471958	0.000744	20.757572
1447.415353	-2.990200	3.375800	-10.093000	26.477664	0.000743	20.740072
1448.416445	-2.999100	3.375300	-10.121000	26.524590	0.000743	20.750731
1449.418105	-2.998500	3.375200	-10.119000	26.496451	0.000745	20.758008
1450.419775	-2.990700	3.374300	-10.091000	26.462560	0.000742	20.746228
1451.415834	-2.963300	3.375500	-10.002000	26.431327	0.000741	20.757984
1452.415449	-2.978400	3.373200	-10.046000	26.426629	0.000741	20.754211
1453.420221	-2.994300	3.372900	-10.098000	26.423028	0.000742	20.747746
1454.418520	-3.008700	3.372100	-10.144000	26.415151	0.000739	20.742200
1455.415810	-3.001200	3.371700	-10.119000	26.440449	0.000740	20.752928
1456.417071	-3.000100	3.371600	-10.115000	26.453137	0.000739	20.744818
1457.418140	-3.003800	3.371200	-10.124000	26.497476	0.000736	20.757616
1458.419309	-3.001000	3.370500	-10.114000	26.539184	0.000738	20.758288
1459.415553	-2.991300	3.370600	-10.081000	26.540074	0.000737	20.764399
1460.418757	-2.984300	3.370300	-10.055000	26.523219	0.000733	20.761682
1461.421998	-3.006700	3.370300	-10.132000	26.536251	0.000734	20.761504
1462.415719	-3.002800	3.369300	-10.117000	26.553728	0.000734	20.731656
1463.418206	-2.995300	3.369600	-10.092000	26.536796	0.000733	20.751147
1464.419736	-2.959900	3.370300	-9.974300	26.501168	0.000733	20.741886
1465.418626	-2.997800	3.368600	-10.098000	26.493370	0.000731	20.745902
1466.418403	-2.992200	3.368900	-10.080000	26.512981	0.000733	20.764193
1467.419882	-2.982200	3.367600	-10.042000	26.546850	0.000733	20.744657
1468.419195	-3.001800	3.366700	-10.106000	26.572420	0.000731	20.745230
1469.418530	-3.005900	3.367100	-10.120000	26.588978	0.000728	20.747176
1470.422171	-2.981000	3.367000	-10.036000	26.592452	0.000728	20.757307
1471.420135	-3.008700	3.366500	-10.128000	26.580738	0.000727	20.743634
1472.420542	-2.996800	3.365500	-10.084000	26.559007	0.000729	20.754033
1473.421247	-3.005100	3.366100	-10.115000	26.561620	0.000727	20.754763
1474.420022	-2.996400	3.364200	-10.078000	26.575279	0.000727	20.766596
1475.419521	-2.999700	3.365400	-10.095000	26.584589	0.000725	20.749877
1476.421847	-3.013300	3.363400	-10.134000	26.567092	0.000725	20.771643
1477.423622	-2.996400	3.363600	-10.077000	26.563737	0.000724	20.752623
1478.422721	-3.013100	3.362900	-10.131000	26.555271	0.000724	20.746958
1479.424576	-2.986900	3.362700	-10.042000	26.599462	0.000723	20.762931
1480.425256	-2.991500	3.363400	-10.061000	26.626056	0.000722	20.744146
1481.425968	-2.982500	3.362700	-10.028000	26.622529	0.000722	20.731116
1482.423825	-2.985300	3.362600	-10.037000	26.634989	0.000722	20.758816
1483.424265	-2.992200	3.361800	-10.058000	26.626130	0.000722	20.753229
1484.426237	-2.989100	3.361200	-10.046000	26.603342	0.000720	20.749287
1485.423899	-3.001900	3.360500	-10.087000	26.620744	0.000720	20.734064
1486.427165	-3.008200	3.360100	-10.107000	26.647334	0.000721	20.743725
1487.426468	-3.005600	3.359600	-10.097000	26.650931	0.000721	20.765834
1488.426697	-3.006700	3.359400	-10.100000	26.682236	0.000718	20.747519
1489.428021	-3.013900	3.358700	-10.121000	26.699047	0.000717	20.778171
1490.428256	-2.989500	3.358000	-10.037000	26.735682	0.000717	20.751939
1491.428725	-2.971300	3.358400	-9.977500	26.745168	0.000715	20.753889
1492.432460	-3.013600	3.357400	-10.118000	26.736084	0.000715	20.773206
1493.432723	-2.975300	3.358900	-9.992800	26.727000	0.000716	20.755539
1494.428786	-3.024200	3.355300	-10.146000	26.718088	0.000716	20.763175
1495.433882	-3.002600	3.355600	-10.074000	26.695750	0.000716	20.760631
1496.431935	-2.990300	3.356300	-10.035000	26.649828	0.000714	20.759983
1497.431507	-2.994300	3.356300	-10.048000	26.615872	0.000713	20.775635
1498.433966	-2.999100	3.355300	-10.062000	26.593498	0.000713	20.766894
1499.431158	-2.967900	3.355600	-9.957600	26.583146	0.000713	20.768341
1500.431865	-2.998400	3.353900	-10.055000	26.594741	0.000713	20.774782
1501.433336	-3.004600	3.353200	-10.074000	26.602436	0.000713	20.775878
1502.431563	-3.013600	3.354500	-10.108000	26.617230	0.000712	20.766094
1503.435679	-2.990200	3.354900	-10.031000	26.645206	0.000709	20.758656
1504.433139	-2.997800	3.352400	-10.048000	26.640469	0.000710	20.757213
1505.435722	-3.016100	3.353100	-10.112000	26.598043	0.000711	20.761505
1506.433216	-3.010900	3.352300	-10.093000	26.582871	0.000709	20.757633
1507.434529	-2.987400	3.351800	-10.012000	26.528552	0.000707	20.775103
1508.435649	-2.986200	3.351500	-10.007000	26.536223	0.000708	20.772856
1509.436280	-2.989000	3.352300	-10.019000	26.560132	0.000706	20.770337
1510.435810	-2.992600	3.351500	-10.029000	26.596624	0.000706	20.778096
1511.435888	-2.997000	3.352400	-10.046000	26.596726	0.000704	20.750224
1512.439006	-3.020900	3.348600	-10.115000	26.628751	0.000704	20.774357
1513.437021	-2.976900	3.349700	-9.970600	26.620035	0.000704	20.771285
1514.436474	-3.007400	3.350300	-10.074000	26.622147	0.000704	20.779098
1515.440306	-3.013200	3.349000	-10.090000	26.602883	0.000701	20.776328
1516.436886	-2.993600	3.348100	-10.021000	26.634062	0.000699	20.752669
1517.437428	-2.999100	3.347700	-10.039000	26.669367	0.000701	20.781523
1518.442785	-2.979600	3.348800	-9.976800	26.694835	0.000703	20.768721
1519.438146	-2.986100	3.347600	-9.995200	26.732565	0.000700	20.763031
1520.438160	-2.990600	3.348400	-10.013000	26.726086	0.000700	20.767422
1521.437895	-3.006600	3.344900	-10.055000	26.715243	0.000701	20.761262
1522.437931	-2.972600	3.348300	-9.952400	26.705166	0.000698	20.761089
1523.439333	-2.997500	3.345500	-10.027000	26.648073	0.000698	20.789514
1524.439097	-2.984600	3.346700	-9.987500	26.631216	0.000698	20.756446
1525.439384	-2.992300	3.344800	-10.008000	26.581370	0.000696	20.776039
1526.440195	-3.060500	3.343000	-10.229000	26.560686	0.000699	20.790334
1527.439675	-2.991900	3.344700	-10.007000	26.549320	0.000696	20.783651
1528.443521	-3.004600	3.344100	-10.046000	26.534972	0.000696	20.791988
1529.443498	-3.047900	3.341500	-10.182000	26.536014	0.000694	20.782129
1530.443342	-3.011700	3.341200	-10.061000	26.595496	0.000694	20.766531
1531.445270	-3.004500	3.341900	-10.040000	26.586288	0.000694	20.773871
1532.443269	-2.988100	3.342300	-9.986100	26.622455	0.000692	20.773244
1533.444418	-3.008500	3.341400	-10.051000	26.632237	0.000691	20.753205
1534.447000	-2.987400	3.341000	-9.979700	26.670466	0.000691	20.773145
1535.444112	-3.007900	3.340900	-10.047000	26.692838	0.000691	20.764816
1536.443521	-2.994900	3.340900	-10.004000	26.724409	0.000689	20.794659
1537.446421	-2.984900	3.339600	-9.967400	26.708550	0.000687	20.774922
1538.444358	-2.998600	3.340600	-10.015000	26.750327	0.000687	20.776147
1539.444270	-2.995200	3.339300	-10.000000	26.715997	0.000689	20.774349
1540.447601	-3.008800	3.338000	-10.043000	26.708775	0.000687	20.767562
1541.444714	-2.992200	3.339200	-9.990900	26.704260	0.000685	20.773455
1542.446310	-3.001500	3.338500	-10.020000	26.697157	0.000685	20.788599
1543.447948	-2.998300	3.337500	-10.005000	26.679046	0.000685	20.772762
1544.446580	-3.004500	3.337700	-10.026000	26.673362	0.000684	20.793126
1545.448894	-3.010400	3.337300	-10.046000	26.662362	0.000685	20.775430
1546.448555	-2.992800	3.336100	-9.982900	26.626939	0.000683	20.772061
1547.448349	-2.995600	3.337400	-9.996000	26.636647	0.000683	20.770441
1548.448706	-3.009500	3.335500	-10.038000	26.660706	0.000682	20.775187
1549.450314	-3.008000	3.334100	-10.028000	26.697317	0.000681	20.784967
1550.452715	-2.993400	3.335100	-9.982300	26.738250	0.000682	20.797670
1551.449518	-3.016200	3.335000	-10.057000	26.788368	0.000680	20.783573
1552.450617	-2.981000	3.335000	-9.940300	26.844781	0.000679	20.782447
1553.449924	-3.026000	3.332900	-10.085000	26.806259	0.000679	20.782122
1554.450520	-2.994500	3.333000	-9.980100	26.802564	0.000679	20.790735
1555.451088	-2.997300	3.333100	-9.989400	26.793604	0.000678	20.796899
1556.451103	-3.006400	3.332100	-10.017000	26.755311	0.000677	20.784476
1557.450995	-2.999300	3.332900	-9.995600	26.725820	0.000678	20.783276
1558.451713	-2.984100	3.332300	-9.942500	26.691490	0.000677	20.793807
1559.452729	-2.967100	3.332500	-9.886800	26.686999	0.000675	20.806361
1560.453491	-3.009900	3.331000	-10.025000	26.665127	0.000673	20.787692
1561.461107	-2.996600	3.331100	-9.980700	26.691641	0.000674	20.791589
1562.452738	-3.019900	3.329300	-10.053000	26.720977	0.000674	20.796425
1563.456683	-3.013500	3.329100	-10.031000	26.789811	0.000673	20.783128
1564.454968	-2.990600	3.329300	-9.954300	26.811426	0.000672	20.780679
1565.455337	-2.994700	3.328200	-9.966100	26.831684	0.000672	20.799624
1566.457084	-2.999900	3.327800	-9.982500	26.897874	0.000671	20.795530
1567.456130	-2.996000	3.328400	-9.971300	26.920484	0.000670	20.791238
1568.456392	-3.041700	3.327500	-10.119000	26.944089	0.000673	20.788896
1569.461626	-3.022800	3.326200	-10.054000	26.939197	0.000671	20.793460
1570.456364	-3.011800	3.326900	-10.019000	26.922546	0.000670	20.779561
1571.456535	-3.012200	3.326500	-10.019000	26.897879	0.000668	20.796483
1572.458331	-2.992100	3.325400	-9.948600	26.882764	0.000668	20.795984
1573.460310	-2.993600	3.326300	-9.956600	26.878492	0.000668	20.780308
1574.458353	-2.986300	3.325500	-9.929100	26.851416	0.000668	20.782481
1575.460282	-3.014500	3.324700	-10.021000	26.850821	0.000666	20.812229
1576.458278	-2.989200	3.325400	-9.939100	26.858641	0.000665	20.794961
1577.457257	-2.976500	3.326100	-9.899200	26.859806	0.000666	20.787597
1578.463080	-2.991300	3.325100	-9.944700	26.864472	0.000665	20.803669
1579.458705	-2.998100	3.324200	-9.964100	26.824963	0.000667	20.791444
1580.458280	-3.003400	3.323100	-9.980000	26.813842	0.000665	20.814876
1581.458995	-3.010800	3.323200	-10.004000	26.852044	0.000665	20.803026
1582.462385	-3.017300	3.322900	-10.024000	26.845191	0.000661	20.801826
1583.460874	-2.988000	3.321900	-9.924700	26.823376	0.000661	20.803599
1584.460150	-2.989100	3.322800	-9.930900	26.817943	0.000661	20.813783
1585.462835	-2.995800	3.321300	-9.949100	26.805932	0.000659	20.796017
1586.461229	-3.002000	3.320800	-9.968200	26.797718	0.000659	20.816682
1587.464080	-3.002900	3.319700	-9.966100	26.769943	0.000658	20.794446
1588.465128	-2.997800	3.320600	-9.953200	26.753741	0.000659	20.818933
1589.461934	-2.991100	3.320100	-9.929200	26.789631	0.000657	20.794801
1590.460901	-3.015800	3.319300	-10.009000	26.792170	0.000658	20.814897
1591.463037	-3.003900	3.318500	-9.965800	26.811378	0.000656	20.805760
1592.463530	-2.992000	3.317100	-9.922500	26.835551	0.000658	20.789763
1593.463872	-2.993300	3.318200	-9.930400	26.857071	0.000655	20.803814
1594.466199	-3.021600	3.317500	-10.023000	26.864075	0.000655	20.792839
1595.464074	-2.998800	3.316400	-9.944600	26.872711	0.000654	20.811953
1596.465351	-3.017100	3.317100	-10.007000	26.891200	0.000654	20.818216
1597.465021	-3.016500	3.315500	-9.999900	26.897634	0.000651	20.806668
1598.464579	-3.012300	3.316300	-9.988500	26.909422	0.000654	20.811883
1599.464610	-3.015800	3.315000	-9.996000	26.927714	0.000650	20.813207
1600.465308	-2.983700	3.316000	-9.892700	26.922306	0.000651	20.808243
1601.465080	-3.001000	3.314700	-9.947000	26.932679	0.000650	20.798760
1602.465734	-2.977600	3.315200	-9.870500	26.942356	0.000649	20.804697
1603.463668	-2.989500	3.315100	-9.908600	26.947641	0.000650	20.798632
1604.464642	-2.948600	3.315800	-9.776000	26.909795	0.000650	20.823638
1605.467911	-2.995400	3.313500	-9.923700	26.893439	0.000648	20.804347
1606.465586	-3.005600	3.313100	-9.956500	26.893238	0.000648	20.836386
1607.468052	-2.989600	3.312600	-9.901000	26.920263	0.000648	20.820888
1608.464834	-2.980600	3.314400	-9.877200	26.976871	0.000647	20.814749
1609.463458	-2.985800	3.312100	-9.887300	27.019453	0.000645	20.825328
1610.466493	-2.998600	3.311300	-9.928400	27.029424	0.000646	20.830140
1611.464638	-2.994200	3.312500	-9.916500	27.051383	0.000642	20.816187
1612.464464	-3.000900	3.310900	-9.933300	27.051830	0.000642	20.832758
1613.464479	-2.982200	3.310500	-9.871500	27.055032	0.000645	20.828866
1614.468197	-3.030500	3.308800	-10.026000	27.077412	0.000642	20.823873
1615.463914	-3.008800	3.308900	-9.953800	27.079200	0.000643	20.837998
1616.465191	-3.020400	3.307600	-9.989000	27.045873	0.000642	20.838146
1617.469511	-2.995400	3.309100	-9.911100	26.991126	0.000641	20.817230
1618.466647	-2.993500	3.307400	-9.899800	26.929780	0.000639	20.820500
1619.466889	-3.007200	3.308700	-9.949000	26.942413	0.000639	20.835099
1620.475326	-3.009800	3.306700	-9.950600	26.993111	0.000638	20.831553
1621.470214	-2.991500	3.307000	-9.892200	27.008818	0.000638	20.823641
1622.466147	-2.995400	3.306600	-9.901700	26.995316	0.000637	20.832349
1623.467653	-2.981500	3.306400	-9.857400	26.969310	0.000636	20.832749
1624.466861	-3.018800	3.304800	-9.975800	26.958739	0.000637	20.839189
1625.465317	-2.999600	3.305000	-9.912500	26.979314	0.000635	20.829059
1626.467793	-2.994000	3.305400	-9.895400	26.985817	0.000633	20.846029
1627.468177	-2.993400	3.304900	-9.892000	26.998568	0.000636	20.833722
1628.467193	-3.005500	3.305200	-9.932000	27.024898	0.000633	20.833174
1629.472205	-2.991300	3.303400	-9.880500	27.043958	0.000634	20.831005
1630.471612	-3.002300	3.302900	-9.915700	27.076067	0.000631	20.825365
1631.468848	-2.995000	3.302800	-9.891100	27.109340	0.000630	20.849818
1632.468268	-3.009000	3.301500	-9.933000	27.149241	0.000631	20.830205
1633.475185	-3.024000	3.302500	-9.985800	27.155447	0.000628	20.852568
1634.470885	-3.002000	3.302900	-9.914600	27.163486	0.000630	20.844058
1635.469707	-2.990600	3.302100	-9.872100	27.133384	0.000631	20.837016
1636.473402	-2.986700	3.300500	-9.856200	27.142640	0.000630	20.836843
1637.474620	-3.007300	3.300900	-9.924900	27.173082	0.000629	20.851339
1638.472238	-2.994100	3.300500	-9.879800	27.171594	0.000628	20.856480
1639.477280	-3.002500	3.299800	-9.907000	27.153012	0.000627	20.841585
1640.473736	-3.014300	3.298700	-9.942200	27.127476	0.000626	20.849566
1641.474667	-3.010600	3.299200	-9.931900	27.097574	0.000624	20.859321
1642.482357	-2.981600	3.300000	-9.838300	27.039587	0.000623	20.837515
1643.474696	-3.022000	3.298100	-9.965700	27.043207	0.000624	20.836414
1644.474436	-2.966800	3.300700	-9.790200	27.090379	0.000624	20.843077
1645.485470	-2.999800	3.297500	-9.889800	27.132240	0.000622	20.837288
1646.475842	-2.995100	3.297200	-9.873900	27.161817	0.000623	20.849492
1647.476371	-2.983700	3.296900	-9.835300	27.172336	0.000617	20.846796
1648.476113	-2.993600	3.296200	-9.865900	27.166856	0.000619	20.843654
1649.479384	-3.001300	3.295400	-9.889300	27.171025	0.000619	20.855433
1650.478068	-3.007500	3.295400	-9.908600	27.161494	0.000618	20.870502
1651.478120	-2.992000	3.294700	-9.856700	27.183183	0.000618	20.845852
1652.479962	-2.989300	3.295700	-9.850000	27.183159	0.000615	20.862896
1653.479577	-3.006200	3.293500	-9.899600	27.168795	0.000617	20.855087
1654.481008	-3.028700	3.292500	-9.971100	27.175317	0.000615	20.867336
1655.485090	-3.012400	3.294400	-9.921100	27.157107	0.000614	20.864669
1656.481182	-3.007500	3.293000	-9.902900	27.138648	0.000614	20.853215
1657.481433	-3.005500	3.291100	-9.890400	27.171697	0.000614	20.875549
1658.481859	-3.026700	3.291300	-9.960700	27.187131	0.000612	20.851245
1659.484716	-3.013800	3.291000	-9.917300	27.178080	0.000613	20.861107
1660.481484	-2.999400	3.292400	-9.874300	27.184503	0.000611	20.857610
1661.482004	-2.990800	3.291400	-9.842900	27.161900	0.000611	20.859057
1662.484710	-2.972200	3.292200	-9.784500	27.189124	0.000609	20.878851
1663.482979	-3.004900	3.289700	-9.883800	27.194953	0.000609	20.874283
1664.483677	-2.972900	3.290900	-9.782700	27.202991	0.000608	20.860084
1665.485929	-3.004700	3.290100	-9.885100	27.208103	0.000608	20.873760
1666.485544	-3.010400	3.289400	-9.901200	27.183241	0.000609	20.858711
1667.484952	-3.007200	3.288900	-9.889300	27.157911	0.000607	20.860736
1668.488070	-2.998900	3.289400	-9.863500	27.127661	0.000605	20.862554
1669.486802	-3.013200	3.287700	-9.905400	27.070271	0.000605	20.867423
1670.484614	-2.994000	3.287300	-9.841600	27.041707	0.000605	20.874733
1671.488780	-3.004000	3.287200	-9.872900	27.045258	0.000604	20.855545
1672.487885	-2.968200	3.287900	-9.757000	27.024832	0.000604	20.861556
1673.487423	-2.980900	3.286800	-9.796700	27.076798	0.000605	20.861659
1674.487480	-2.985600	3.286300	-9.811000	27.108857	0.000602	20.886788
1675.489043	-3.007600	3.284800	-9.878700	27.125952	0.000603	20.880274
1676.490182	-3.011100	3.284200	-9.888500	27.108356	0.000599	20.882018
1677.490790	-2.994500	3.286200	-9.838500	27.144530	0.000601	20.866244
1678.490832	-3.005400	3.285200	-9.871700	27.160137	0.000599	20.888577
1679.490494	-2.992500	3.285400	-9.829900	27.169192	0.000600	20.880141
1680.492066	-2.999900	3.284500	-9.852000	27.160215	0.000600	20.869216
1681.491736	-2.992300	3.282600	-9.821300	27.154754	0.000598	20.874155
1682.493017	-3.007900	3.281500	-9.869300	27.144084	0.000597	20.890448
1683.493788	-3.007100	3.281600	-9.866100	27.137086	0.000595	20.886730
1684.496081	-3.023500	3.282000	-9.921700	27.168200	0.000597	20.876773
1685.493241	-2.989300	3.282400	-9.811300	27.172517	0.000597	20.874951
1686.496073	-2.998000	3.281400	-9.836200	27.196785	0.000595	20.909314
1687.496639	-2.981900	3.282200	-9.786800	27.177010	0.000593	20.886581
1688.497373	-3.017500	3.280600	-9.898200	27.164306	0.000594	20.887554
1689.494626	-2.985500	3.280800	-9.793800	27.131125	0.000596	20.871253
1690.502416	-3.004800	3.279700	-9.853300	27.128772	0.000592	20.891644
1691.495972	-2.999700	3.279400	-9.835900	27.087005	0.000592	20.892786
1692.495551	-2.974600	3.278500	-9.751300	27.057225	0.000593	20.894604
1693.502358	-3.006200	3.278600	-9.855500	27.076407	0.000594	20.884973
1694.496093	-2.987200	3.279200	-9.794600	27.103330	0.000591	20.900194
1695.498539	-3.001500	3.277900	-9.837200	27.142456	0.000591	20.874113
1696.496772	-2.969500	3.279000	-9.736800	27.170069	0.000591	20.882445
1697.497654	-3.010700	3.277400	-9.865500	27.199096	0.000590	20.879399
1698.498487	-2.992200	3.276700	-9.803200	27.237247	0.000590	20.875098
1699.496476	-3.015100	3.275000	-9.872900	27.250491	0.000589	20.877988
1700.496551	-2.997200	3.276900	-9.820400	27.241657	0.000588	20.871948
1701.497440	-3.022000	3.274400	-9.894700	27.234459	0.000588	20.869924
1702.497445	-2.989200	3.276300	-9.793000	27.242985	0.000587	20.877077
1703.498295	-2.993400	3.275500	-9.802600	27.250556	0.000585	20.889907
1704.496876	-2.979800	3.274700	-9.756300	27.266525	0.000587	20.877048
1705.497336	-3.013900	3.273700	-9.864700	27.313408	0.000588	20.872999
1706.496984	-3.002300	3.274000	-9.828600	27.310826	0.000585	20.862341
1707.497591	-3.001000	3.273000	-9.821300	27.355674	0.000585	20.870472
1708.497259	-2.987400	3.273500	-9.777500	27.364601	0.000584	20.872813
1709.498268	-3.007800	3.272500	-9.841600	27.374765	0.000583	20.881141
1710.502426	-3.008800	3.271000	-9.840000	27.414008	0.000583	20.849024
1711.501380	-3.005600	3.270700	-9.828400	27.433721	0.000581	20.860795
1712.497386	-3.005900	3.269800	-9.826200	27.460360	0.000582	20.872895
1713.498626	-3.022000	3.269600	-9.879700	27.472015	0.000579	20.879879
1714.500699	-3.010000	3.270600	-9.843000	27.410696	0.000580	20.871770
1715.498353	-2.983200	3.270100	-9.754400	27.396253	0.000577	20.863879
1716.500197	-3.027000	3.269500	-9.895700	27.412971	0.000576	20.859360
1717.499087	-2.995000	3.268400	-9.787000	27.417577	0.000578	20.863520
1718.498369	-3.013200	3.267500	-9.844300	27.428864	0.000574	20.863495
1719.502184	-2.987900	3.268300	-9.764000	27.391606	0.000576	20.835022
1720.500655	-2.979800	3.269400	-9.741100	27.359850	0.000574	20.879887
1721.500608	-3.015500	3.266000	-9.846200	27.303013	0.000574	20.866810
1722.504569	-2.999700	3.266600	-9.796600	27.300775	0.000575	20.881153
1723.500494	-2.980300	3.268900	-9.739900	27.298791	0.000573	20.877735
1724.505211	-2.998000	3.266600	-9.792200	27.261774	0.000572	20.880328
1725.501706	-3.005200	3.266000	-9.812900	27.244353	0.000572	20.868022
1726.501877	-2.987900	3.266400	-9.758800	27.249415	0.000572	20.875484
1727.501415	-2.991400	3.266600	-9.770400	27.289876	0.000572	20.841743
1728.502321	-3.013300	3.265000	-9.837000	27.327564	0.000570	20.849782
1729.505940	-3.011300	3.266300	-9.835000	27.372707	0.000568	20.866744
1730.505440	-3.017800	3.263200	-9.846400	27.383556	0.000569	20.864855
1731.502908	-3.012600	3.262400	-9.826500	27.392282	0.000567	20.857513
1732.510101	-2.983500	3.264800	-9.739600	27.426692	0.000568	20.867947
1733.503476	-3.009700	3.263100	-9.820500	27.440827	0.000567	20.857513
1734.504049	-2.997700	3.263700	-9.781200	27.453479	0.000566	20.849378
1735.502283	-2.991700	3.261800	-9.757400	27.430335	0.000567	20.839372
1736.503845	-3.011000	3.261400	-9.819100	27.363551	0.000567	20.859904
1737.504054	-3.008100	3.260000	-9.804400	27.309251	0.000565	20.838473
1738.503240	-3.002300	3.259200	-9.783300	27.295081	0.000564	20.866418
1739.510341	-2.997600	3.261400	-9.775800	27.262950	0.000563	20.834099
1740.504382	-3.007200	3.258900	-9.799000	27.256699	0.000563	20.844880
1741.503412	-2.978500	3.260600	-9.710000	27.246820	0.000562	20.855331
1742.505373	-3.020500	3.260000	-9.845300	27.271107	0.000564	20.835665
1743.505166	-2.964800	3.259800	-9.663100	27.311173	0.000560	20.841829
1744.504658	-3.001200	3.257400	-9.774800	27.295762	0.000559	20.854301
1745.506071	-2.995000	3.258500	-9.758800	27.330118	0.000561	20.848083
1746.505520	-2.998500	3.256900	-9.765200	27.322150	0.000558	20.836750
1747.506131	-3.001200	3.258200	-9.778000	27.341348	0.000559	20.852268
1748.505500	-3.025100	3.255400	-9.846900	27.390044	0.000558	20.843408
1749.506359	-3.040300	3.255300	-9.896700	27.408200	0.000559	20.852664
1750.505620	-3.043100	3.253600	-9.899600	27.438778	0.000556	20.851184
1751.506298	-3.017900	3.254700	-9.821200	27.449667	0.000555	20.845070
1752.506306	-3.010400	3.255500	-9.797900	27.455368	0.000554	20.858865
1753.507936	-3.026300	3.253800	-9.846000	27.476470	0.000554	20.849749
1754.508033	-3.003900	3.253800	-9.772700	27.491374	0.000553	20.845779
1755.509830	-3.003300	3.252900	-9.768300	27.496854	0.000553	20.856032
1756.508323	-3.014500	3.253100	-9.804100	27.402884	0.000552	20.861541
1757.509654	-3.021200	3.252700	-9.825900	27.391942	0.000552	20.820662
1758.510842	-3.011400	3.253100	-9.795700	27.363879	0.000552	20.851225
1759.510218	-3.003600	3.252900	-9.769500	27.296344	0.000550	20.839240
1760.512896	-2.993600	3.251700	-9.733700	27.300701	0.000550	20.843149
1761.510448	-3.011700	3.252300	-9.793200	27.342009	0.000551	20.831596
1762.511049	-3.027900	3.250000	-9.839000	27.370011	0.000550	20.824204
1763.510859	-2.985200	3.251900	-9.706800	27.377495	0.000547	20.839319
1764.510518	-3.005500	3.250900	-9.769700	27.393860	0.000546	20.854359
1765.510453	-3.021900	3.249200	-9.817600	27.435955	0.000545	20.855930
1766.513711	-2.987400	3.251200	-9.711300	27.360687	0.000544	20.848963
1767.512088	-3.003500	3.249200	-9.758800	27.327611	0.000545	20.843191
1768.512254	-3.018000	3.247600	-9.799600	27.349834	0.000543	20.849899
1769.512760	-3.010500	3.248200	-9.778000	27.404722	0.000543	20.840631
1770.512976	-3.008000	3.248600	-9.769700	27.427370	0.000542	20.858673
1771.513751	-2.997300	3.248000	-9.734700	27.419349	0.000542	20.835906
1772.512177	-3.000200	3.248000	-9.742800	27.418973	0.000540	20.829363
1773.513353	-3.003500	3.248600	-9.755100	27.395595	0.000539	20.844726
1774.516147	-2.987500	3.245600	-9.694600	27.374459	0.000539	20.831050
1775.512467	-2.995700	3.245500	-9.721300	27.378472	0.000538	20.841724
1776.514631	-2.972100	3.245900	-9.645600	27.375095	0.000539	20.844017
1777.514772	-2.971000	3.246700	-9.645500	27.384141	0.000537	20.850272
1778.513265	-2.986100	3.245900	-9.691900	27.399990	0.000537	20.856258
1779.513930	-2.981800	3.245000	-9.675100	27.389445	0.000537	20.862245
1780.516359	-2.988900	3.244000	-9.694700	27.390232	0.000535	20.849761
1781.513975	-3.001800	3.242300	-9.731400	27.382461	0.000536	20.847634
1782.514288	-2.998100	3.243400	-9.722400	27.405774	0.000535	20.842637
1783.514860	-3.005800	3.244300	-9.750200	27.386294	0.000534	20.851489
1784.515121	-3.004300	3.242200	-9.739000	27.417127	0.000533	20.850739
1785.516493	-2.995600	3.242300	-9.710400	27.379938	0.000533	20.843673
1786.517682	-2.985900	3.241000	-9.675600	27.332377	0.000531	20.851779
1787.515191	-2.993100	3.241000	-9.699800	27.357302	0.000530	20.849351
1788.519174	-2.985000	3.239100	-9.667700	27.372954	0.000529	20.844234
1789.515901	-2.970400	3.242700	-9.630700	27.404698	0.000530	20.827331
1790.516153	-2.996600	3.238300	-9.701400	27.418342	0.000529	20.850539
1791.516255	-3.004200	3.238500	-9.728200	27.461665	0.000528	20.836752
1792.520403	-2.982400	3.238700	-9.658600	27.474292	0.000527	20.852300
1793.517689	-3.007200	3.237700	-9.735000	27.504500	0.000527	20.836699
1794.518119	-2.992700	3.236900	-9.684200	27.550012	0.000527	20.820850
1795.518404	-2.983800	3.237700	-9.660200	27.561814	0.000526	20.850268
1796.518350	-2.967600	3.237700	-9.607000	27.592416	0.000523	20.827007
1797.518108	-3.000100	3.237000	-9.710200	27.591794	0.000524	20.825432
1798.518361	-3.003000	3.236000	-9.716100	27.578915	0.000523	20.838077
1799.519092	-3.005700	3.234300	-9.718700	27.570310	0.000522	20.847436
1800.519217	-2.995100	3.237400	-9.695100	27.562811	0.000521	20.835625
1801.520412	-3.014700	3.234700	-9.750000	27.592246	0.000521	20.843430
1802.519121	-3.000400	3.234100	-9.702400	27.618237	0.000521	20.839711
1803.519932	-3.001500	3.234800	-9.708000	27.596652	0.000518	20.831268
1804.519085	-2.997900	3.232800	-9.690300	27.599278	0.000519	20.833437
1805.521608	-3.006300	3.234100	-9.721000	27.590915	0.000518	20.832609
1806.522979	-3.002500	3.232200	-9.703500	27.610982	0.000519	20.826721
1807.524189	-2.994900	3.232000	-9.677700	27.599144	0.000516	20.853215
1808.521058	-3.005300	3.231600	-9.710800	27.614367	0.000517	20.818748
1809.522165	-2.968400	3.232200	-9.593400	27.626820	0.000516	20.827959
1810.524747	-2.982700	3.231900	-9.638000	27.654839	0.000515	20.824384
1811.522120	-2.999600	3.230800	-9.690600	27.667112	0.000514	20.829621
1812.522157	-2.994500	3.229700	-9.670200	27.689254	0.000512	20.822505
1813.525475	-3.019400	3.229900	-9.750400	27.701255	0.000514	20.822254
1814.522741	-3.008500	3.229500	-9.715100	27.711343	0.000512	20.835724
1815.523767	-2.989500	3.230000	-9.654900	27.742241	0.000510	20.813237
1816.524873	-3.007500	3.228700	-9.709400	27.728323	0.000510	20.815827
1817.527949	-3.004700	3.227800	-9.697100	27.761305	0.000509	20.832896
1818.526338	-2.967800	3.228900	-9.581900	27.736551	0.000508	20.826477
1819.529433	-2.994000	3.227600	-9.661000	27.694984	0.000508	20.837754
1820.524735	-2.996900	3.226600	-9.668400	27.656866	0.000508	20.834010
1821.524658	-2.992600	3.228100	-9.658700	27.622787	0.000506	20.824849
1822.525054	-3.000700	3.225800	-9.679500	27.623128	0.000506	20.815235
1823.526008	-2.985200	3.225900	-9.629000	27.636273	0.000506	20.828462
1824.526648	-2.978000	3.226200	-9.607500	27.615761	0.000504	20.846702
1825.524996	-3.008400	3.227000	-9.706500	27.627210	0.000505	20.825033
1826.526160	-3.007300	3.224300	-9.696200	27.615106	0.000502	20.821862
1827.526324	-2.994500	3.224900	-9.656100	27.569372	0.000498	20.826579
1828.526611	-2.998800	3.223300	-9.665200	27.528344	0.000500	20.827973
1829.526530	-3.003400	3.223900	-9.680900	27.518693	0.000500	20.807358
1830.526961	-2.997000	3.223200	-9.658800	27.571196	0.000500	20.833156
1831.525558	-3.003200	3.223300	-9.678800	27.577372	0.000496	20.846481
1832.525928	-3.019500	3.222300	-9.728400	27.565415	0.000498	20.826865
1833.525391	-3.028100	3.221600	-9.754100	27.574488	0.000495	20.814657
1834.525704	-2.982100	3.221100	-9.604600	27.582200	0.000496	20.816253
1835.525573	-2.983600	3.221200	-9.609100	27.585745	0.000495	20.809388
1836.526529	-2.999600	3.221300	-9.662500	27.537599	0.000492	20.815000
1837.527806	-2.987100	3.221200	-9.621500	27.546430	0.000493	20.817247
1838.525653	-3.022100	3.219900	-9.730400	27.548512	0.000492	20.836411
1839.526427	-3.011800	3.219300	-9.694100	27.536453	0.000491	20.818114
1840.529414	-2.979600	3.218900	-9.590500	27.533351	0.000489	20.801717
1841.526368	-3.015900	3.218300	-9.703800	27.579657	0.000491	20.805634
1842.527995	-2.997300	3.219800	-9.648500	27.625067	0.000490	20.819083
1843.525146	-2.980200	3.218200	-9.589500	27.594912	0.000487	20.792060
1844.525972	-2.996400	3.218100	-9.642400	27.583623	0.000488	20.811996
1845.526003	-3.000200	3.217500	-9.651000	27.527716	0.000489	20.839669
1846.526244	-2.989500	3.217400	-9.617300	27.501477	0.000486	20.819908
1847.526226	-2.998400	3.219200	-9.650800	27.503481	0.000485	20.811967
1848.525583	-2.971100	3.217600	-9.558700	27.510927	0.000486	20.806656
1849.527727	-2.993900	3.217000	-9.630600	27.546912	0.000485	20.791653
1850.528411	-2.997400	3.216500	-9.639900	27.566454	0.000483	20.825066
1851.525294	-3.015500	3.213800	-9.690700	27.568290	0.000482	20.815534
1852.528271	-3.002900	3.214100	-9.651000	27.607748	0.000481	20.811613
1853.527373	-3.018100	3.212100	-9.693600	27.632870	0.000481	20.787580
1854.526031	-3.025800	3.213000	-9.721000	27.681303	0.000479	20.816401
1855.525716	-3.002200	3.213000	-9.644200	27.701318	0.000478	20.820894
1856.526741	-3.029200	3.210500	-9.723600	27.733949	0.000479	20.812480
1857.527720	-3.018500	3.211700	-9.693500	27.709300	0.000477	20.808064
1858.526423	-2.998900	3.210500	-9.627100	27.746122	0.000475	20.788220
1859.526658	-2.979100	3.211500	-9.565300	27.747536	0.000475	20.808135
1860.528433	-2.980100	3.211900	-9.570800	27.781755	0.000476	20.818389
1861.528490	-3.000900	3.211500	-9.635500	27.764670	0.000472	20.811627
1862.528069	-3.005800	3.209300	-9.645500	27.788994	0.000473	20.796277
1863.528429	-2.996600	3.208600	-9.613000	27.819643	0.000471	20.801992
1864.529520	-2.983900	3.211300	-9.580600	27.841512	0.000470	20.796500
1865.529424	-3.008200	3.209200	-9.652600	27.892765	0.000470	20.811100
1866.531750	-2.997900	3.208600	-9.617800	27.836498	0.000469	20.795721
1867.530131	-3.006900	3.207700	-9.644200	27.815719	0.000470	20.817957
1868.531790	-2.990800	3.208300	-9.594500	27.824847	0.000467	20.794901
1869.534350	-2.999400	3.207400	-9.619600	27.823823	0.000468	20.811414
1870.542970	-2.984400	3.206800	-9.569000	27.787869	0.000467	20.797990
1871.533549	-3.008800	3.205600	-9.643500	27.767380	0.000470	20.786380
1872.532139	-2.969400	3.206900	-9.521900	27.764406	0.000465	20.819896
1873.533622	-3.005000	3.205100	-9.630100	27.704415	0.000467	20.799355
1874.532136	-3.003000	3.206400	-9.627900	27.698655	0.000463	20.798301
1875.533208	-3.005700	3.204800	-9.631600	27.657714	0.000464	20.805940
1876.532217	-2.991000	3.203900	-9.582700	27.647590	0.000463	20.781528
1877.533349	-3.014800	3.203500	-9.656800	27.656736	0.000462	20.795473
1878.531760	-2.979600	3.203800	-9.544900	27.653138	0.000461	20.783793
1879.532313	-3.019100	3.202500	-9.667800	27.650529	0.000459	20.789702
1880.533292	-3.001800	3.202500	-9.611900	27.677785	0.000459	20.801007
1881.532001	-3.003000	3.202900	-9.617100	27.742753	0.000460	20.783407
1882.531682	-2.990700	3.201900	-9.574700	27.765762	0.000459	20.791864
1883.535041	-3.012300	3.201900	-9.643800	27.778825	0.000458	20.797423
1884.532690	-3.013100	3.199200	-9.638800	27.822195	0.000457	20.797921
1885.532583	-2.993200	3.200200	-9.577700	27.808528	0.000456	20.781322
1886.532483	-3.004700	3.199200	-9.611900	27.776216	0.000456	20.771563
1887.532737	-3.004100	3.197800	-9.605200	27.747095	0.000454	20.790147
1888.533409	-2.983100	3.200200	-9.545800	27.694147	0.000453	20.782384
1889.533141	-2.981500	3.197600	-9.532900	27.667932	0.000454	20.779238
1890.534952	-3.003400	3.196300	-9.598800	27.693964	0.000452	20.778881
1891.534483	-3.011400	3.197000	-9.626300	27.734011	0.000451	20.794050
1892.535969	-2.997700	3.197900	-9.585800	27.769890	0.000451	20.792699
1893.538818	-2.980100	3.198000	-9.529100	27.790790	0.000449	20.784334
1894.541774	-3.011000	3.196200	-9.622600	27.824758	0.000448	20.779638
1895.537019	-2.989500	3.194900	-9.550300	27.808711	0.000444	20.789093
1896.540914	-2.966900	3.195900	-9.480900	27.831744	0.000446	20.777660
1897.541094	-2.979800	3.195500	-9.520500	27.834641	0.000445	20.800016
1898.537970	-2.994200	3.196000	-9.568400	27.874609	0.000442	20.781446
1899.540573	-2.980400	3.193200	-9.515100	27.879316	0.000442	20.782865
1900.539525	-2.975400	3.195100	-9.505400	27.867507	0.000442	20.793265
1901.539126	-2.984400	3.192900	-9.528200	27.849851	0.000440	20.793038
1902.539928	-2.977800	3.192500	-9.504700	27.858225	0.000439	20.774914
1903.538293	-3.006300	3.191900	-9.595000	27.870126	0.000438	20.767452
1904.537885	-2.977600	3.192600	-9.505300	27.920658	0.000436	20.780852
1905.540414	-2.993200	3.192000	-9.553400	27.916685	0.000438	20.775905
1906.538580	-3.022400	3.189400	-9.638400	27.908821	0.000434	20.787430
1907.539308	-2.997000	3.189500	-9.557400	27.897616	0.000436	20.784214
1908.540525	-3.011900	3.190000	-9.606900	27.910902	0.000434	20.761550
1909.539128	-3.011600	3.187600	-9.598600	27.918763	0.000434	20.789851
1910.539251	-2.997400	3.188500	-9.555600	27.897535	0.000434	20.788400
1911.542513	-3.005500	3.188300	-9.581500	27.876209	0.000432	20.779264
1912.540241	-3.019700	3.188200	-9.626400	27.856943	0.000431	20.787848
1913.540356	-2.991500	3.188100	-9.536700	27.883543	0.000430	20.768627
1914.539774	-3.040100	3.186700	-9.685900	27.887038	0.000428	20.778783
1915.542158	-3.000500	3.186500	-9.560000	27.931817	0.000426	20.789713
1916.540876	-3.011700	3.185700	-9.592500	27.972231	0.000427	20.787717
1917.539457	-3.023700	3.184500	-9.627600	28.020300	0.000426	20.766875
1918.541870	-2.998100	3.185900	-9.548900	28.044098	0.000425	20.784193
1919.541502	-3.003400	3.185200	-9.565400	28.062961	0.000424	20.799387
1920.540184	-3.021300	3.183100	-9.616500	28.107757	0.000424	20.762452
1921.539721	-3.012800	3.183400	-9.589500	28.137954	0.000424	20.775782
1922.541620	-3.013200	3.183700	-9.592300	28.155700	0.000420	20.786061
1923.543182	-3.009500	3.181900	-9.574900	28.172062	0.000423	20.784041
1924.540052	-3.013100	3.183400	-9.590900	28.184873	0.000421	20.766118
1925.541479	-3.034500	3.180900	-9.651000	28.149251	0.000420	20.755860
1926.542517	-3.012700	3.183300	-9.589600	28.135666	0.000418	20.763047
1927.541704	-2.989000	3.181800	-9.509800	28.068237	0.000418	20.776249
1928.542977	-2.987000	3.181600	-9.502400	28.034126	0.000418	20.771784
1929.544993	-2.997400	3.180800	-9.533400	27.996118	0.000416	20.773829
1930.543072	-3.000800	3.180100	-9.541200	27.970256	0.000416	20.783832
1931.543270	-3.001900	3.181100	-9.548900	27.974348	0.000415	20.764243
1932.543761	-3.001900	3.178200	-9.539800	27.957016	0.000414	20.778093
1933.543540	-2.983400	3.179100	-9.483200	27.992445	0.000415	20.782934
1934.546957	-3.017500	3.177700	-9.587900	28.007097	0.000415	20.778242
1935.545881	-2.998300	3.178100	-9.527700	27.998864	0.000412	20.780860
1936.543982	-2.972200	3.179300	-9.447200	27.994674	0.000413	20.778539
1937.545088	-2.971600	3.176900	-9.439100	27.987731	0.000410	20.791939
1938.547432	-2.994000	3.175500	-9.506400	27.993929	0.000409	20.764986
1939.547873	-2.996500	3.175000	-9.512800	27.999012	0.000408	20.768206
1940.548440	-2.991500	3.176600	-9.501300	28.011505	0.000407	20.783627
1941.552742	-3.011100	3.177000	-9.565000	27.993922	0.000406	20.776834
1942.552942	-3.015000	3.173200	-9.565300	27.965531	0.000408	20.790931
1943.548427	-2.999000	3.174600	-9.519400	27.907560	0.000405	20.808447
1944.550962	-3.002200	3.173600	-9.525600	27.860175	0.000405	20.768341
1945.547844	-3.000500	3.172700	-9.519100	27.874678	0.000404	20.758756
1946.549398	-3.024100	3.172600	-9.593400	27.896943	0.000401	20.789226
1947.549525	-3.003000	3.171700	-9.524200	27.908967	0.000403	20.781413
1948.553117	-3.011600	3.171300	-9.549400	27.886895	0.000402	20.774372
1949.549848	-2.975800	3.172500	-9.439300	27.865396	0.000400	20.793037
1950.552526	-2.997400	3.169600	-9.498700	27.818456	0.000401	20.778986
1951.553468	-2.989300	3.170100	-9.474200	27.771732	0.000399	20.795500
1952.549696	-3.020200	3.168200	-9.567500	27.711991	0.000399	20.774262
1953.555072	-3.000700	3.170900	-9.513200	27.745811	0.000396	20.798338
1954.550934	-2.983800	3.167800	-9.450800	27.727731	0.000397	20.792472
1955.550725	-3.006000	3.168000	-9.520800	27.716120	0.000394	20.784107
1956.552770	-2.976300	3.168500	-9.427800	27.752548	0.000397	20.794213
1957.555406	-3.027200	3.163900	-9.576200	27.793487	0.000391	20.774720
1958.550384	-3.005600	3.166200	-9.514400	27.836877	0.000393	20.768602
1959.553905	-2.990700	3.165600	-9.466000	27.878927	0.000393	20.781525
1960.551366	-2.990200	3.165600	-9.464400	27.893355	0.000392	20.779925
1961.551091	-2.989500	3.165900	-9.463200	27.923305	0.000392	20.783517
1962.553417	-2.988400	3.163600	-9.452700	27.940905	0.000387	20.790800
1963.552242	-2.997800	3.164300	-9.485000	27.924934	0.000388	20.778518
1964.551550	-2.999300	3.163200	-9.486100	27.968294	0.000388	20.794661
1965.552386	-3.007800	3.161900	-9.509400	28.016761	0.000386	20.792711
1966.556125	-2.980900	3.163300	-9.428800	28.098246	0.000386	20.772319
1967.553194	-3.008700	3.161000	-9.510000	28.139618	0.000386	20.792630
1968.552154	-2.992100	3.160400	-9.455100	28.129179	0.000383	20.789708
1969.556675	-3.003400	3.160000	-9.489800	28.102307	0.000383	20.791105
1970.553817	-2.977000	3.161800	-9.412600	28.052572	0.000381	20.793671
1971.551978	-2.997400	3.159100	-9.468400	28.105400	0.000380	20.785685
1972.554016	-2.992000	3.161400	-9.457800	28.122402	0.000380	20.801378
1973.556453	-3.004600	3.158800	-9.489900	28.139801	0.000379	20.804195
1974.552455	-2.981500	3.158400	-9.415600	28.176837	0.000377	20.780788
1975.559078	-2.987200	3.157500	-9.430000	28.194362	0.000377	20.787051
1976.555104	-3.012400	3.156400	-9.506700	28.235803	0.000374	20.819764
1977.553854	-2.973300	3.158000	-9.388500	28.282349	0.000378	20.791237
1978.557149	-3.011500	3.155100	-9.500700	28.233719	0.000374	20.797752
1979.556847	-3.013400	3.155000	-9.504900	28.211581	0.000375	20.805335
1980.555246	-3.011400	3.154800	-9.498700	28.190113	0.000375	20.789412
1981.558910	-2.994800	3.155700	-9.450200	28.197972	0.000371	20.806807
1982.557591	-2.973000	3.154500	-9.376100	28.221492	0.000373	20.821003
1983.556905	-2.971300	3.154100	-9.370800	28.244618	0.000371	20.803983
1984.560383	-2.991400	3.152900	-9.430600	28.291459	0.000372	20.814635
1985.558554	-3.004200	3.152100	-9.468300	28.335283	0.000371	20.787162
1986.555996	-2.982800	3.152200	-9.401400	28.352703	0.000370	20.802806
1987.556531	-2.965300	3.152900	-9.348300	28.376694	0.000366	20.811790
1988.558446	-2.969400	3.152200	-9.359400	28.365389	0.000365	20.799933
1989.557452	-3.022000	3.149300	-9.515600	28.329948	0.000366	20.784636
1990.558608	-2.991200	3.149600	-9.420200	28.322836	0.000362	20.810665
1991.556170	-2.994000	3.148400	-9.425300	28.335402	0.000365	20.807197
1992.556324	-2.978100	3.149000	-9.376500	28.357581	0.000363	20.797286
1993.557417	-2.995200	3.149000	-9.430300	28.383139	0.000362	20.793623
1994.556965	-2.980000	3.148400	-9.380900	28.394932	0.000360	20.798386
1995.557509	-2.975900	3.147500	-9.365700	28.374238	0.000362	20.813110
1996.557598	-2.987500	3.146100	-9.397500	28.346307	0.000359	20.815806
1997.557497	-3.013000	3.144900	-9.473800	28.346430	0.000358	20.807869
1998.556361	-2.975500	3.145800	-9.359100	28.394834	0.000357	20.815831
1999.557488	-3.018400	3.144000	-9.489200	28.418033	0.000355	20.812639
2000.558841	-2.982900	3.144800	-9.379500	28.467372	0.000355	20.812536
2001.558422	-3.004500	3.143000	-9.441800	28.488289	0.000354	20.790927
2002.559283	-3.002600	3.143300	-9.436700	28.464971	0.000353	20.815809
2003.559534	-3.013000	3.141600	-9.462800	28.410274	0.000353	20.814783
2004.560235	-3.009200	3.141400	-9.451000	28.355855	0.000353	20.835850
2005.560067	-2.999900	3.139800	-9.416000	28.345769	0.000351	20.822376
2006.562999	-2.991700	3.141700	-9.397900	28.332036	0.000350	20.811393
2007.561559	-2.997200	3.140400	-9.411500	28.289656	0.000350	20.835104
2008.561001	-2.978200	3.140400	-9.351400	28.260433	0.000348	20.819432
2009.561433	-3.020900	3.137700	-9.477400	28.256814	0.000347	20.816736
2010.561342	-2.992700	3.138800	-9.391900	28.269659	0.000347	20.820660
2011.561414	-2.982300	3.137800	-9.356700	28.327407	0.000345	20.808155
2012.577044	-2.999500	3.138600	-9.412800	28.376876	0.000344	20.812921
2013.561722	-2.994300	3.137900	-9.394000	28.345080	0.000344	20.827372
2014.561237	-3.015700	3.135900	-9.456400	28.368597	0.000342	20.824499
2015.565434	-3.013000	3.134700	-9.443500	28.388870	0.000341	20.814567
2016.561830	-3.005300	3.134700	-9.419100	28.420000	0.000342	20.816516
2017.562478	-2.993900	3.134900	-9.384400	28.445177	0.000338	20.788290
2018.561796	-3.017700	3.133100	-9.453700	28.449025	0.000337	20.800225
2019.561845	-2.983700	3.135100	-9.352900	28.429445	0.000337	20.816544
2020.561396	-3.001900	3.132800	-9.403600	28.392144	0.000337	20.826873
2021.564760	-3.023600	3.131500	-9.466100	28.388208	0.000337	20.813427
2022.561480	-3.025700	3.130000	-9.469500	28.380850	0.000337	20.811707
2023.565032	-2.976600	3.132500	-9.322600	28.360925	0.000336	20.816300
2024.562820	-2.973700	3.131100	-9.310000	28.372349	0.000333	20.806941
2025.562943	-2.997900	3.129300	-9.380100	28.311381	0.000334	20.831373
2026.566241	-3.028400	3.129000	-9.473200	28.295742	0.000334	20.830326
2027.564024	-3.014900	3.127400	-9.428400	28.246543	0.000330	20.831525
2028.565868	-3.013300	3.125900	-9.419000	28.277699	0.000330	20.827332
2029.563626	-3.016400	3.126700	-9.430400	28.261419	0.000330	20.815683
2030.565655	-3.004500	3.125900	-9.390900	28.207506	0.000328	20.826837
2031.565031	-3.007800	3.125000	-9.398500	28.224365	0.000330	20.825318
2032.564749	-3.019000	3.125000	-9.433400	28.264175	0.000329	20.833156
2033.564920	-3.001900	3.125300	-9.380700	28.326189	0.000327	20.833007
2034.566220	-3.009300	3.122500	-9.395500	28.346934	0.000327	20.807902
2035.564022	-3.000100	3.122900	-9.367300	28.388052	0.000326	20.829391
2036.564628	-3.041700	3.122700	-9.497100	28.455956	0.000326	20.850826
2037.566402	-2.980700	3.122200	-9.304900	28.510004	0.000326	20.820856
2038.565658	-2.994700	3.121900	-9.348400	28.528518	0.000327	20.845663
2039.564073	-3.017700	3.119700	-9.413000	28.542024	0.000325	20.839825
2040.565541	-2.993800	3.120900	-9.341600	28.547797	0.000323	20.833785
2041.564657	-2.998600	3.120000	-9.355100	28.500985	0.000321	20.835480
2042.566910	-3.022200	3.117800	-9.421100	28.450035	0.000323	20.823053
2043.566165	-3.000400	3.118200	-9.355100	28.440716	0.000322	20.835006
2044.568460	-2.992900	3.119000	-9.333400	28.451124	0.000323	20.829840
2045.566678	-3.005600	3.117100	-9.367200	28.427012	0.000322	20.845387
2046.567657	-3.020800	3.116300	-9.412400	28.392635	0.000319	20.828315
2047.567566	-3.003500	3.115300	-9.356000	28.389563	0.000319	20.829964
2048.567746	-3.020000	3.114500	-9.405300	28.342594	0.000318	20.831507
2049.568720	-3.005700	3.114100	-9.359000	28.318553	0.000319	20.848551
2050.568740	-2.994700	3.113800	-9.323700	28.292206	0.000316	20.831981
2051.569270	-3.001300	3.112700	-9.341100	28.377040	0.000316	20.837742
2052.568350	-3.027900	3.111500	-9.420000	28.406881	0.000315	20.841712
2053.572504	-2.977300	3.114700	-9.271900	28.444593	0.000313	20.822315
2054.570370	-2.979500	3.112000	-9.269700	28.469773	0.000312	20.843403
2055.569774	-3.001500	3.110900	-9.336200	28.509324	0.000310	20.823015
2056.569681	-3.008500	3.109800	-9.354400	28.541930	0.000311	20.829300
2057.569200	-3.002600	3.108700	-9.333500	28.550057	0.000311	20.815674
2058.570264	-2.986000	3.109200	-9.283600	28.594236	0.000309	20.846415
2059.569377	-2.966500	3.109100	-9.222400	28.585343	0.000309	20.845520
2060.570334	-3.012900	3.106000	-9.356400	28.581998	0.000308	20.846418
2061.570345	-3.012600	3.105800	-9.355200	28.559098	0.000306	20.843744
2062.569362	-2.986100	3.107300	-9.277400	28.528695	0.000305	20.854376
2063.569675	-2.991600	3.104400	-9.286400	28.478586	0.000306	20.837106
2064.569624	-2.993700	3.104500	-9.290500	28.464363	0.000304	20.836532
2065.570146	-2.971500	3.106100	-9.229100	28.432763	0.000303	20.849755
2066.570036	-2.996300	3.102200	-9.293700	28.494198	0.000304	20.843818
2067.568946	-2.999500	3.102400	-9.304900	28.505298	0.000304	20.832711
2068.570132	-2.966500	3.103200	-9.204600	28.532283	0.000304	20.854670
2069.569397	-3.006200	3.099600	-9.317000	28.581865	0.000300	20.828267
2070.571720	-2.977600	3.101000	-9.232900	28.565686	0.000301	20.832835
2071.571839	-2.987000	3.099300	-9.256200	28.574308	0.000301	20.841993
2072.577305	-3.014500	3.099200	-9.341600	28.613510	0.000299	20.862507
2073.571173	-2.974900	3.098400	-9.216600	28.621713	0.000299	20.853226
2074.572578	-3.000700	3.098100	-9.294800	28.669258	0.000297	20.858913
2075.573246	-2.986600	3.097500	-9.249300	28.652040	0.000297	20.871441
2076.572406	-3.006600	3.096000	-9.307100	28.638114	0.000295	20.856468
2077.576038	-2.986200	3.096400	-9.245300	28.660763	0.000296	20.869796
2078.573247	-2.978900	3.095100	-9.218400	28.692553	0.000294	20.860565
2079.575443	-2.993700	3.095000	-9.264600	28.689258	0.000293	20.863409
2080.579516	-2.952500	3.094600	-9.135300	28.657295	0.000292	20.859192
2081.578293	-3.024400	3.091700	-9.349000	28.583657	0.000292	20.868950
2082.576686	-3.009300	3.092000	-9.303500	28.548002	0.000290	20.860543
2083.574735	-3.000000	3.091900	-9.272800	28.528747	0.000288	20.870075
2084.576746	-2.998300	3.091700	-9.268900	28.545574	0.000289	20.871374
2085.578219	-2.989800	3.090200	-9.237700	28.519355	0.000290	20.867255
2086.576846	-2.990400	3.089600	-9.238000	28.527292	0.000289	20.857705
2087.576374	-3.001900	3.088900	-9.271900	28.533483	0.000286	20.891439
2088.579994	-3.016400	3.088100	-9.313800	28.563422	0.000286	20.876072
2089.576818	-2.991200	3.087700	-9.234900	28.599378	0.000286	20.882412
2090.576576	-2.986100	3.085900	-9.214100	28.642244	0.000286	20.861576
2091.577664	-2.987600	3.086500	-9.220400	28.617468	0.000286	20.879295
2092.578748	-3.007200	3.084000	-9.273400	28.635705	0.000285	20.885809
2093.577042	-3.009900	3.083500	-9.280500	28.657336	0.000283	20.854018
2094.578434	-2.992200	3.083900	-9.225400	28.644453	0.000282	20.856215
2095.578043	-2.977900	3.082900	-9.179500	28.678453	0.000281	20.857269
2096.577449	-2.988400	3.082700	-9.211300	28.685142	0.000281	20.877755
2097.577649	-3.001900	3.081000	-9.247900	28.746809	0.000279	20.854049
2098.578363	-3.005100	3.079900	-9.254300	28.739007	0.000280	20.873690
2099.577304	-2.991700	3.080500	-9.215100	28.780901	0.000280	20.882224
2100.579250	-3.000000	3.077200	-9.230200	28.794951	0.000278	20.868877
2101.578301	-2.965700	3.078800	-9.130200	28.793515	0.000277	20.861741
2102.580734	-3.006900	3.078000	-9.254200	28.826063	0.000277	20.863708
2103.580920	-3.050100	3.073900	-9.373300	28.851462	0.000276	20.875543
2104.581119	-2.995700	3.075500	-9.211300	28.899365	0.000278	20.892506
2105.581877	-2.992500	3.073500	-9.196600	28.891863	0.000276	20.893482
2106.583530	-2.988300	3.075400	-9.188600	28.864712	0.000275	20.891734
2107.582891	-3.000200	3.073500	-9.219700	28.837188	0.000276	20.871595
2108.588989	-2.997800	3.072900	-9.210500	28.784174	0.000275	20.862763
2109.586306	-2.988600	3.071200	-9.177300	28.769108	0.000274	20.864182
2110.585261	-3.009000	3.069400	-9.234300	28.824556	0.000275	20.871673
2111.590930	-2.982600	3.071000	-9.158700	28.871923	0.000273	20.881456
2112.586003	-3.007300	3.067500	-9.223500	28.875389	0.000274	20.882577
2113.587762	-2.989700	3.067300	-9.168700	28.898645	0.000269	20.879928
2114.587749	-2.979400	3.067200	-9.137500	28.920843	0.000272	20.880005
2115.589715	-2.989600	3.066100	-9.165500	28.945981	0.000270	20.896320
2116.587560	-2.971100	3.065000	-9.105700	28.920071	0.000269	20.864055
2117.588138	-2.997200	3.064900	-9.185100	28.903521	0.000268	20.889106
2118.588046	-2.978300	3.064600	-9.126300	28.841666	0.000268	20.890330
2119.588233	-2.990600	3.063000	-9.158000	28.808964	0.000270	20.879673
2120.588410	-2.988500	3.062500	-9.151400	28.827395	0.000269	20.876903
2121.590106	-2.995100	3.062300	-9.170600	28.856079	0.000267	20.891572
2122.589767	-2.990900	3.061200	-9.153700	28.865886	0.000267	20.902399
2123.590632	-2.979800	3.059800	-9.116300	28.847649	0.000266	20.878814
2124.590118	-3.012000	3.058000	-9.209400	28.801571	0.000265	20.874597
2125.590401	-3.012300	3.056500	-9.206100	28.778780	0.000263	20.905216
2126.591489	-3.033300	3.054900	-9.265300	28.776100	0.000263	20.890190
2127.590666	-3.013300	3.054900	-9.203000	28.813356	0.000262	20.896424
2128.590174	-3.000100	3.054600	-9.162500	28.829708	0.000263	20.883973
2129.591273	-2.983700	3.054000	-9.111500	28.881503	0.000263	20.905330
2130.595292	-3.001300	3.051400	-9.157200	28.889926	0.000262	20.892005
2131.591248	-2.983300	3.052900	-9.107000	28.851180	0.000261	20.918403
2132.591927	-2.993400	3.051900	-9.133700	28.818601	0.000260	20.896492
2133.592045	-2.993200	3.050800	-9.130500	28.837973	0.000260	20.924539
2134.592091	-3.028200	3.047800	-9.227800	28.853653	0.000261	20.906671
2135.591573	-2.990900	3.047400	-9.114000	28.891008	0.000260	20.898785
2136.591789	-3.012500	3.046700	-9.177600	28.940676	0.000261	20.898088
2137.596073	-2.985700	3.045700	-9.092500	28.972848	0.000258	20.920541
2138.593629	-3.036500	3.044300	-9.243800	28.978791	0.000259	20.899030
2139.593572	-3.028400	3.042800	-9.214100	28.969950	0.000259	20.917148
2140.594207	-2.967200	3.043700	-9.030100	28.944533	0.000259	20.905766
2141.595419	-2.978000	3.041800	-9.057400	28.989984	0.000258	20.908409
2142.596755	-3.009500	3.040400	-9.148600	29.011165	0.000257	20.931170
2143.598057	-3.006600	3.040000	-9.139300	29.060992	0.000258	20.911201
2144.602036	-2.999600	3.038800	-9.114100	29.090116	0.000256	20.894080
2145.597051	-2.999900	3.038500	-9.113900	29.063219	0.000256	20.904911
2146.600497	-3.022700	3.035400	-9.173700	29.082759	0.000256	20.917959
2147.598938	-3.015000	3.036400	-9.153700	29.071342	0.000255	20.913094
2148.598879	-2.992400	3.035500	-9.082400	29.089294	0.000255	20.928337
2149.600798	-2.987400	3.034900	-9.064800	29.096599	0.000253	20.913413
2150.601834	-2.989100	3.032600	-9.063400	29.102941	0.000252	20.924544
2151.599720	-3.000900	3.032700	-9.099800	29.105761	0.000253	20.942082
2152.599071	-2.984800	3.030900	-9.045400	29.118564	0.000252	20.923692
2153.611900	-3.002500	3.030400	-9.097800	29.100831	0.000253	20.902031
2154.601867	-2.998700	3.029200	-9.082200	29.093000	0.000251	20.930648
2155.599660	-2.989600	3.029300	-9.055300	29.103454	0.000252	20.905149
2156.600262	-3.006300	3.027000	-9.099100	29.068951	0.000250	20.910212
2157.602957	-2.993900	3.027600	-9.062500	29.094535	0.000252	20.925083
2158.600030	-3.016200	3.025300	-9.123900	29.070753	0.000250	20.918191
2159.601725	-3.004500	3.023900	-9.084600	29.077169	0.000251	20.910432
2160.601664	-3.004200	3.022900	-9.080600	29.077391	0.000250	20.941471
2161.599377	-3.036000	3.021100	-9.171300	29.056531	0.000250	20.911448
2162.599610	-3.003700	3.021200	-9.072700	29.066684	0.000250	20.926418
2163.600775	-2.988300	3.019300	-9.021300	29.080134	0.000251	20.911048
2164.600924	-3.002900	3.018900	-9.063800	29.097668	0.000250	20.904060
2165.601676	-2.991000	3.016800	-9.022500	29.134221	0.000249	20.915761
2166.602668	-3.009200	3.015200	-9.072400	29.182536	0.000248	20.885740
2167.603488	-2.993800	3.015400	-9.026400	29.157152	0.000247	20.906626
2168.603578	-3.010100	3.012400	-9.066300	29.137386	0.000247	20.902830
2169.604218	-3.024800	3.012100	-9.110600	29.117496	0.000246	20.887531
2170.603525	-3.005000	3.011100	-9.047400	29.097259	0.000246	20.899855
2171.603695	-3.004200	3.010100	-9.041600	29.071651	0.000246	20.891597
2172.604469	-2.988500	3.010000	-8.995000	29.059511	0.000244	20.887426
2173.604907	-3.011200	3.007100	-9.053800	29.024613	0.000245	20.893515
2174.604640	-3.006600	3.005800	-9.035400	29.008483	0.000242	20.890066
2175.607554	-3.049300	3.003900	-9.157700	29.030872	0.000243	20.888916
2176.606344	-3.003100	3.004100	-9.021000	29.027304	0.000244	20.898123
2177.605522	-2.973200	3.002500	-8.925200	29.037928	0.000244	20.896025
2178.609115	-3.011800	3.001500	-9.039100	29.072872	0.000245	20.907998
2179.607677	-2.996200	2.999900	-8.986300	29.089489	0.000245	20.897242
2180.607211	-3.004000	2.998900	-9.008100	29.096127	0.000241	20.878327
2181.609053	-2.980400	2.999100	-8.937300	29.105609	0.000244	20.891674
2182.606543	-3.004100	2.996500	-9.000700	29.102311	0.000244	20.873654
2183.606423	-2.979900	2.995700	-8.925100	29.128337	0.000243	20.897506
2184.607445	-3.030200	2.993700	-9.070000	29.122887	0.000244	20.891066
2185.607850	-3.005000	2.993700	-8.995500	29.098218	0.000241	20.895606
2186.611125	-3.010700	2.991500	-9.005700	29.107352	0.000243	20.886793
2187.608560	-2.981700	2.990500	-8.915900	29.144428	0.000243	20.890013
2188.611742	-2.997800	2.989600	-8.960500	29.153510	0.000242	20.893948
2189.612109	-3.006700	2.987200	-8.980800	29.157818	0.000241	20.890704
2190.608532	-2.979600	2.988000	-8.901400	29.187905	0.000243	20.877875
2191.611154	-2.970000	2.985400	-8.865800	29.201572	0.000240	20.889749
2192.613271	-2.994800	2.984200	-8.935600	29.216576	0.000242	20.892541
2193.609619	-3.005600	2.983100	-8.964800	29.228858	0.000240	20.880264
2194.611770	-3.006900	2.982000	-8.965100	29.219989	0.000240	20.860422
2195.613321	-2.992200	2.981100	-8.919600	29.259137	0.000240	20.882328
2196.610037	-3.015900	2.977500	-8.978800	29.259998	0.000239	20.880350
2197.611666	-2.995100	2.979600	-8.923300	29.294716	0.000240	20.881200
2198.611450	-2.987900	2.976900	-8.892800	29.252716	0.000241	20.874909
2199.610121	-3.000500	2.974000	-8.922600	29.205634	0.000240	20.893843
2200.612356	-3.030600	2.972100	-9.005700	29.152036	0.000240	20.884404
2201.613726	-3.019900	2.970200	-8.968300	29.162093	0.000241	20.887899
2202.611916	-2.995300	2.971300	-8.899100	29.166371	0.000240	20.883676
2203.614830	-2.991300	2.969700	-8.881900	29.181130	0.000240	20.885746
2204.611705	-2.998100	2.968200	-8.898200	29.151880	0.000238	20.865755
2205.611848	-3.015900	2.965500	-8.942800	29.153165	0.000239	20.875111
2206.612486	-3.000700	2.964100	-8.893000	29.163683	0.000239	20.864847
2207.614883	-3.041000	2.961700	-9.004800	29.090670	0.000236	20.851020
2208.614889	-3.007400	2.961100	-8.904300	29.028476	0.000238	20.879864
2209.613710	-3.014800	2.958700	-8.918500	28.958795	0.000237	20.891212
2210.617927	-3.026800	2.956400	-8.947500	28.941775	0.000238	20.888290
2211.618004	-2.990100	2.957200	-8.841000	28.985396	0.000237	20.872496
2212.614337	-3.051300	2.954400	-9.013500	28.999708	0.000237	20.861312
2213.620907	-2.974900	2.955000	-8.789600	28.987617	0.000237	20.866673
2214.618237	-2.979900	2.953300	-8.799900	28.968666	0.000237	20.866072
2215.615620	-2.992400	2.952100	-8.832200	28.959300	0.000237	20.878446
2216.619001	-3.019800	2.949800	-8.906400	28.968559	0.000235	20.867860
2217.616687	-2.999600	2.948100	-8.842300	29.033823	0.000238	20.865338
2218.615146	-2.999400	2.947000	-8.838800	29.092249	0.000236	20.880584
2219.616724	-3.021400	2.944900	-8.896600	29.140194	0.000235	20.852558
2220.617538	-2.964400	2.945200	-8.729300	29.151408	0.000235	20.863383
2221.618398	-2.983700	2.942500	-8.779200	29.186796	0.000236	20.871068
2222.617700	-3.007300	2.941300	-8.843700	29.198803	0.000236	20.874158
2223.620768	-2.989800	2.939900	-8.788300	29.175842	0.000237	20.869513
2224.618981	-2.991800	2.939700	-8.793200	29.183617	0.000236	20.876873
2225.617067	-2.983100	2.937100	-8.760000	29.151544	0.000233	20.865891
2226.619293	-2.977900	2.935300	-8.739500	29.136778	0.000235	20.866659
2227.619011	-2.979300	2.933200	-8.738200	29.085115	0.000236	20.862965
2228.620023	-3.005600	2.930500	-8.806900	29.063167	0.000235	20.866455
2229.624930	-2.984600	2.931500	-8.748600	29.019894	0.000236	20.856994
2230.621944	-3.020500	2.927400	-8.841500	28.956705	0.000236	20.880574
2231.621604	-3.004800	2.926000	-8.791200	28.915757	0.000235	20.891001
2232.623129	-3.019000	2.924700	-8.828800	28.925216	0.000235	20.856437
2233.624669	-2.979300	2.924000	-8.710400	28.970121	0.000236	20.856158
2234.624794	-3.001100	2.921800	-8.767900	29.013390	0.000236	20.870829
2235.622732	-3.009500	2.919300	-8.785000	29.080955	0.000234	20.882006
2236.624987	-2.982900	2.918900	-8.706100	29.109657	0.000233	20.873469
2237.622832	-2.987700	2.916700	-8.713300	29.156140	0.000233	20.867678
2238.624815	-2.967000	2.915400	-8.648800	29.176767	0.000232	20.850532
2239.626568	-2.999100	2.913400	-8.736200	29.217374	0.000231	20.878174
2240.623769	-2.986700	2.911800	-8.695100	29.252044	0.000235	20.883715
2241.622797	-2.976500	2.911000	-8.663600	29.228048	0.000234	20.866172
2242.624411	-3.017100	2.908000	-8.772500	29.280618	0.000232	20.865571
2243.625021	-3.036600	2.904600	-8.818000	29.315874	0.000231	20.862696
2244.624294	-2.977700	2.906800	-8.654400	29.320034	0.000231	20.851242
2245.626035	-3.004400	2.903800	-8.722900	29.342516	0.000231	20.850666
2246.625025	-3.025300	2.901300	-8.775500	29.323054	0.000229	20.856656
2247.625648	-3.020700	2.898600	-8.754000	29.281105	0.000230	20.861320
2248.628457	-3.011900	2.897000	-8.724300	29.191783	0.000230	20.861395
2249.627433	-3.016700	2.895200	-8.732800	29.203595	0.000229	20.867608
2250.627037	-3.016200	2.894400	-8.728600	29.234600	0.000230	20.853334
2251.625134	-2.994900	2.890400	-8.654800	29.242697	0.000229	20.851537
2252.625849	-3.006800	2.890700	-8.691400	29.296806	0.000229	20.841109
2253.625390	-3.007300	2.889500	-8.688700	29.291283	0.000228	20.862569
2254.626674	-2.995200	2.888300	-8.649700	29.234132	0.000229	20.867087
2255.626867	-2.990200	2.885800	-8.627900	29.188172	0.000230	20.843058
2256.626582	-3.031000	2.881300	-8.732100	29.177971	0.000228	20.843210
2257.626801	-2.994200	2.880000	-8.622000	29.194190	0.000229	20.864769
2258.626372	-2.987100	2.877900	-8.594800	29.211526	0.000229	20.869436
2259.626854	-3.019800	2.876300	-8.684200	29.267122	0.000227	20.842013
2260.626825	-3.010700	2.874300	-8.652400	29.267371	0.000229	20.856962
2261.626107	-3.004200	2.873200	-8.630600	29.298995	0.000230	20.864176
2262.627138	-2.984300	2.872400	-8.570900	29.320218	0.000228	20.848108
2263.627212	-2.985700	2.869500	-8.566300	29.352803	0.000231	20.848233
2264.628100	-3.015300	2.867800	-8.645700	29.367267	0.000228	20.840051
2265.628172	-3.014000	2.865200	-8.634500	29.386709	0.000228	20.853956
2266.628085	-3.010500	2.862300	-8.616100	29.378413	0.000228	20.844172
2267.628120	-2.999900	2.861100	-8.582600	29.430560	0.000229	20.843153
2268.630463	-2.991200	2.859500	-8.552100	29.469309	0.000228	20.836217
2269.627329	-2.994700	2.857600	-8.556000	29.479661	0.000227	20.841435
2270.627491	-3.009500	2.855500	-8.592300	29.476291	0.000226	20.828082
2271.631630	-3.005900	2.853900	-8.577800	29.394789	0.000226	20.847875
2272.627204	-2.988400	2.851500	-8.520000	29.304587	0.000229	20.828088
2273.632216	-2.989900	2.849000	-8.517600	29.239859	0.000228	20.833031
2274.631240	-3.015400	2.846200	-8.581100	29.263214	0.000224	20.810101
2275.630378	-3.017700	2.843400	-8.579700	29.278120	0.000227	20.838872
2276.628510	-3.015900	2.841700	-8.569300	29.233576	0.000226	20.823854
2277.632256	-2.988400	2.841100	-8.488700	29.173075	0.000226	20.835432
2278.629286	-3.013200	2.837500	-8.548400	29.129342	0.000226	20.819339
2279.633726	-3.012000	2.835800	-8.540700	29.166220	0.000225	20.827102
2280.633634	-2.979600	2.834700	-8.444900	29.215431	0.000226	20.862467
2281.631438	-3.015500	2.829900	-8.533300	29.219571	0.000226	20.821595
2282.629481	-3.013200	2.828700	-8.521800	29.205381	0.000226	20.820098
2283.630716	-3.003700	2.827900	-8.492800	29.203007	0.000228	20.829085
2284.631519	-3.005000	2.824500	-8.486500	29.281089	0.000227	20.826692
2285.631134	-3.034600	2.821600	-8.560500	29.348394	0.000226	20.834780
2286.630485	-3.019200	2.820500	-8.514600	29.371249	0.000227	20.829366
2287.631819	-2.999900	2.818200	-8.453200	29.448876	0.000228	20.838855
2288.630220	-3.011500	2.815100	-8.476500	29.473758	0.000227	20.832168
2289.630947	-2.998700	2.814400	-8.438800	29.498941	0.000224	20.826732
2290.630227	-3.017300	2.811100	-8.481400	29.535311	0.000224	20.833047
2291.632606	-2.982300	2.808500	-8.374500	29.552641	0.000225	20.828706
2292.631088	-3.015300	2.806300	-8.460100	29.532271	0.000225	20.835198
2293.630958	-3.037400	2.802000	-8.509500	29.569113	0.000224	20.825396
2294.632960	-2.985600	2.801500	-8.363100	29.592086	0.000227	20.828640
2295.631707	-2.986100	2.799300	-8.357700	29.610334	0.000227	20.814320
2296.633472	-2.998700	2.795800	-8.383000	29.631770	0.000225	20.819808
2297.631671	-2.984500	2.793600	-8.336400	29.603700	0.000227	20.812848
2298.631150	-3.004500	2.789600	-8.379400	29.616747	0.000226	20.831690
2299.632340	-2.992300	2.788500	-8.341900	29.649132	0.000227	20.825457
2300.632408	-3.005300	2.785600	-8.370800	29.704183	0.000227	20.836861
2301.636696	-3.000400	2.782800	-8.347400	29.693713	0.000226	20.820143
2302.632772	-2.969400	2.781400	-8.257300	29.665027	0.000226	20.822042
2303.633122	-3.014000	2.777200	-8.368600	29.643866	0.000226	20.801657
2304.634739	-3.004700	2.773500	-8.332800	29.588861	0.000225	20.798363
2305.634133	-3.026700	2.772400	-8.389700	29.593813	0.000227	20.811416
2306.635952	-2.961300	2.770600	-8.203500	29.607432	0.000225	20.804756
2307.636605	-3.002500	2.766500	-8.304300	29.584511	0.000225	20.797771
2308.636892	-3.006900	2.764100	-8.310500	29.553344	0.000228	20.819932
2309.636326	-2.979000	2.761500	-8.223700	29.518094	0.000226	20.808580
2310.641605	-3.009200	2.758600	-8.300900	29.463580	0.000226	20.808158
2311.642118	-3.005000	2.754200	-8.275700	29.423567	0.000225	20.795328
2312.642217	-2.999000	2.751400	-8.250300	29.408194	0.000226	20.808282
2313.642917	-2.988000	2.749000	-8.212700	29.415324	0.000225	20.798400
2314.642203	-2.979600	2.746000	-8.181400	29.478114	0.000225	20.790565
2315.642154	-2.993700	2.743100	-8.210400	29.536912	0.000225	20.802419
2316.643576	-2.998400	2.740100	-8.215100	29.626325	0.000225	20.803414
2317.643273	-3.025900	2.736200	-8.278700	29.630238	0.000225	20.814471
2318.644204	-3.013700	2.732600	-8.234100	29.673136	0.000224	20.789914
2319.642089	-3.004100	2.731100	-8.203700	29.668135	0.000224	20.808106
2320.643448	-3.003600	2.727500	-8.191400	29.697020	0.000226	20.794554
2321.648267	-3.004700	2.723200	-8.181500	29.682690	0.000224	20.800969
2322.643609	-3.015900	2.719800	-8.201100	29.730141	0.000223	20.794755
2323.646443	-3.021100	2.716100	-8.204600	29.733925	0.000225	20.794777
2324.647259	-3.002900	2.712900	-8.145300	29.687415	0.000224	20.811422
2325.643846	-2.986100	2.710500	-8.093300	29.584511	0.000225	20.804883
2326.645005	-2.986300	2.706400	-8.081100	29.587954	0.000225	20.805035
2327.644234	-2.983600	2.703000	-8.063200	29.585203	0.000225	20.801313
2328.644958	-2.988000	2.699800	-8.066600	29.547700	0.000224	20.825147
2329.643965	-3.003000	2.695400	-8.093200	29.492564	0.000223	20.784742
2330.644114	-3.024100	2.690800	-8.136400	29.459218	0.000223	20.784321
2331.650116	-3.000700	2.688100	-8.065100	29.450154	0.000222	20.797944
2332.643395	-3.009100	2.683900	-8.074000	29.495561	0.000224	20.788238
2333.645496	-3.008800	2.679500	-8.060900	29.525220	0.000224	20.780676
2334.646999	-2.969100	2.676900	-7.947100	29.521805	0.000223	20.801889
2335.645580	-2.988000	2.672200	-7.983200	29.496450	0.000223	20.781547
2336.648182	-2.992900	2.668400	-7.985100	29.454022	0.000222	20.776238
2337.643753	-2.998700	2.665200	-7.991000	29.433616	0.000221	20.789809
2338.644102	-2.981900	2.661000	-7.933200	29.405144	0.000223	20.786716
2339.645365	-2.981400	2.656700	-7.919300	29.392464	0.000225	20.779151
2340.643642	-2.978400	2.653600	-7.902600	29.467436	0.000225	20.784070
2341.644794	-3.010600	2.646200	-7.965600	29.503435	0.000223	20.795226
2342.645063	-2.984200	2.645600	-7.893900	29.569140	0.000224	20.782749
2343.649290	-3.014700	2.640000	-7.956700	29.553418	0.000224	20.789660
2344.646845	-2.993000	2.635600	-7.887300	29.538388	0.000224	20.813390
2345.644941	-2.992000	2.630400	-7.869600	29.504843	0.000226	20.774360
2346.648393	-2.996400	2.625800	-7.866100	29.512194	0.000225	20.795047
2347.647516	-3.006900	2.620700	-7.879200	29.543983	0.000223	20.762605
2348.644852	-3.041600	2.615000	-7.952700	29.602482	0.000224	20.802137
2349.647490	-2.977100	2.611400	-7.773900	29.675774	0.000224	20.798263
2350.644502	-3.005600	2.605700	-7.830000	29.751119	0.000225	20.784612
2351.645545	-2.983000	2.602900	-7.763100	29.786589	0.000225	20.783865
2352.645502	-3.003200	2.596200	-7.796500	29.780451	0.000223	20.787159
2353.646937	-3.026100	2.589900	-7.835700	29.774830	0.000222	20.775327
2354.646882	-3.014700	2.584500	-7.790800	29.753345	0.000223	20.763148
2355.646706	-2.965900	2.581000	-7.653500	29.769137	0.000225	20.771959
2356.647277	-3.004300	2.573000	-7.729200	29.809899	0.000225	20.775126
2357.646810	-2.999100	2.568000	-7.701100	29.812054	0.000224	20.797213
2358.646414	-2.987400	2.562700	-7.655300	29.771811	0.000224	20.759956
2359.648257	-2.992300	2.557100	-7.650500	29.703174	0.000223	20.756661
2360.648833	-3.013100	2.550300	-7.683300	29.671538	0.000224	20.731877
2361.647147	-3.046800	2.542900	-7.747300	29.714286	0.000225	20.766442
2362.647914	-2.986600	2.539700	-7.584500	29.745350	0.000223	20.788278
2363.648336	-3.018000	2.533200	-7.644900	29.814132	0.000222	20.769910
2364.651188	-2.992200	2.527500	-7.561200	29.862096	0.000224	20.767065
2365.653579	-3.031100	2.519600	-7.635800	29.903724	0.000223	20.780593
2366.648817	-3.030400	2.511900	-7.610600	29.925624	0.000226	20.755735
2367.650264	-3.037500	2.505300	-7.609400	29.867394	0.000224	20.778572
2368.650478	-2.994800	2.501100	-7.489300	29.855666	0.000224	20.787609
2369.649673	-3.018000	2.494600	-7.528100	29.818364	0.000223	20.760427
