LabVIEW Measurement	
Writer_Version	2
Reader_Version	2
Separator	Tab
Decimal_Separator	.
Multi_Headings	No
X_Columns	One
Time_Pref	Absolute
Operator	admin
Description	Clolumns are: time, Current, Voltage, Power, Battery Temp, and Chamber Temp
Date	2024/08/16
Time	13:06:06.104549407958984375
***End_of_Header***	
	
Channels	6						
Samples	1	1	1	1	1	1	
Date	2024/09/08	2024/09/08	2024/09/08	2024/09/08	2024/09/08	2024/09/08	
Time	09:00:04.8581337928771972656	09:00:04.8656849861145019531	09:00:04.8730077743530273437	09:00:04.84090423583984375	09:00:04.84090423583984375	09:00:04.84090423583984375	
X_Dimension	Time	Time	Time	Time	Time	Time	
X0	0.0000000000000000E+0	0.0000000000000000E+0	0.0000000000000000E+0	0.0000000000000000E+0	0.0000000000000000E+0	0.0000000000000000E+0	
Delta_X	1.000000	1.000000	1.000000	1.000000	1.000000	1.000000	
***End_of_Header***							
X_Value	Untitled	Untitled 1	Untitled 2	Untitled 3	Untitled 4	Untitled 5	Comment
0.000000	0.017053	4.099000	0.069854	20.919831	0.000907	20.670426
0.999547	-3.012500	3.926000	-11.826000	20.921401	0.000906	20.654450
2.001405	-2.991800	3.918000	-11.721000	20.906957	0.000906	20.684579
2.999655	-2.993200	3.912300	-11.709000	20.926746	0.000904	20.665488
4.000482	-2.975100	3.909200	-11.629000	20.920035	0.000901	20.662095
5.001989	-3.000800	3.906700	-11.722000	20.917812	0.000903	20.640428
6.002865	-3.004700	3.903100	-11.726000	20.916660	0.000902	20.665831
7.003480	-3.020400	3.899800	-11.778000	20.922153	0.000901	20.674645
8.002057	-3.016900	3.896700	-11.755000	20.920354	0.000902	20.670001
9.002609	-2.971600	3.897800	-11.580000	20.927000	0.000900	20.660525
10.002326	-3.000400	3.893800	-11.682000	20.942163	0.000898	20.668578
11.005489	-2.993100	3.893300	-11.652000	20.940618	0.000900	20.667507
12.006999	-2.988400	3.891100	-11.628000	20.947501	0.000896	20.674392
13.007439	-3.015800	3.889100	-11.728000	20.949814	0.000898	20.657737
14.004538	-3.004600	3.889400	-11.685000	20.972276	0.000895	20.665030
15.006316	-2.987900	3.886500	-11.611000	20.957432	0.000894	20.658244
16.011026	-2.999800	3.886100	-11.657000	20.956059	0.000894	20.651180
17.008788	-3.006000	3.884400	-11.676000	20.962606	0.000895	20.677171
18.012475	-2.984100	3.883900	-11.588000	20.978569	0.000893	20.675119
19.009915	-2.972800	3.883500	-11.544000	20.971655	0.000896	20.672470
20.011006	-2.994400	3.882100	-11.624000	20.972202	0.000892	20.688192
21.014132	-3.003700	3.880400	-11.655000	20.992212	0.000894	20.684971
22.013680	-2.998400	3.880900	-11.634000	20.999527	0.000892	20.669527
23.011108	-2.998100	3.878800	-11.628000	21.002347	0.000891	20.661441
24.010798	-3.015600	3.878200	-11.695000	20.991566	0.000891	20.669151
25.011231	-2.974100	3.878900	-11.535000	21.029336	0.000891	20.668996
26.012243	-2.984400	3.877300	-11.570000	21.026671	0.000891	20.660640
27.014107	-2.979100	3.876600	-11.547000	21.031011	0.000889	20.662136
28.012646	-3.013200	3.876200	-11.677000	21.014346	0.000889	20.681030
29.017054	-3.010800	3.875000	-11.666000	21.047383	0.000888	20.685151
30.014023	-2.996500	3.874600	-11.609000	21.032728	0.000889	20.691357
31.013352	-3.004000	3.871900	-11.630000	21.058507	0.000888	20.670672
32.018076	-3.000900	3.873800	-11.624000	21.048225	0.000888	20.663706
33.015400	-2.991200	3.872400	-11.582000	21.081032	0.000887	20.685617
34.014732	-2.999900	3.872300	-11.615000	21.063337	0.000888	20.680246
35.013435	-2.972900	3.872700	-11.512000	21.072050	0.000888	20.684219
36.014277	-3.003600	3.870600	-11.625000	21.099617	0.000887	20.677180
37.014356	-3.007400	3.870600	-11.640000	21.097026	0.000886	20.684072
38.017689	-3.011000	3.870000	-11.652000	21.090684	0.000886	20.683892
39.015900	-3.013200	3.868000	-11.653000	21.104628	0.000886	20.652791
40.016901	-3.021400	3.868000	-11.685000	21.116854	0.000884	20.672610
41.016460	-2.997900	3.867800	-11.595000	21.119583	0.000886	20.690040
42.018858	-2.990900	3.868600	-11.569000	21.124912	0.000886	20.694423
43.019697	-3.000600	3.866900	-11.602000	21.140081	0.000883	20.675929
44.017851	-2.995000	3.867100	-11.581000	21.132767	0.000885	20.686157
45.019496	-2.996200	3.866900	-11.585000	21.151180	0.000884	20.665219
46.020013	-2.995200	3.866100	-11.579000	21.162514	0.000883	20.687465
47.018934	-2.978600	3.866600	-11.516000	21.172387	0.000884	20.696393
48.021678	-2.993000	3.866100	-11.571000	21.184163	0.000883	20.692052
49.020870	-3.012100	3.865400	-11.642000	21.169241	0.000883	20.700833
50.020197	-3.015500	3.864800	-11.654000	21.200107	0.000882	20.686190
51.020892	-2.994000	3.864200	-11.568000	21.188061	0.000883	20.700219
52.021964	-2.982800	3.863500	-11.523000	21.198285	0.000884	20.704757
53.020109	-3.006300	3.864300	-11.616000	21.220963	0.000883	20.709425
54.021114	-3.000900	3.863300	-11.592000	21.200884	0.000884	20.691234
55.021294	-3.004200	3.862900	-11.604000	21.217743	0.000886	20.684865
56.027916	-2.966200	3.864300	-11.461000	21.237658	0.000882	20.667328
57.026392	-3.011900	3.861500	-11.628000	21.232444	0.000881	20.679183
58.021269	-3.007800	3.862400	-11.616000	21.238132	0.000882	20.703841
59.022242	-3.005400	3.862300	-11.607000	21.258815	0.000882	20.680433
60.020896	-3.008800	3.860700	-11.615000	21.240101	0.000882	20.711976
61.021275	-3.012100	3.861000	-11.629000	21.264225	0.000882	20.691062
62.024711	-3.002000	3.860600	-11.589000	21.274505	0.000882	20.680483
63.022780	-2.971200	3.860600	-11.470000	21.280838	0.000882	20.681603
64.020560	-2.973500	3.860500	-11.477000	21.270958	0.000883	20.696851
65.025921	-3.020100	3.860300	-11.657000	21.280192	0.000882	20.691389
66.022822	-3.009300	3.859300	-11.612000	21.316637	0.000882	20.698453
67.024108	-3.014200	3.858700	-11.630000	21.326042	0.000881	20.698854
68.025436	-3.015700	3.858800	-11.635000	21.311301	0.000881	20.692640
69.026166	-2.983200	3.858100	-11.507000	21.326312	0.000881	20.698649
70.031190	-2.996300	3.858800	-11.561000	21.345792	0.000882	20.711976
71.029306	-3.001400	3.858400	-11.580000	21.356276	0.000881	20.697333
72.029982	-3.004700	3.858700	-11.594000	21.357093	0.000882	20.669699
73.026234	-3.013000	3.857200	-11.621000	21.351684	0.000881	20.693686
74.025101	-2.987200	3.858400	-11.523000	21.366751	0.000880	20.707814
75.029487	-3.012000	3.855900	-11.612000	21.381516	0.000880	20.707888
76.028306	-2.970700	3.857600	-11.459000	21.398071	0.000881	20.715442
77.027274	-2.989000	3.855900	-11.523000	21.392669	0.000881	20.691544
78.026781	-3.006800	3.855700	-11.592000	21.414469	0.000881	20.686802
79.028167	-3.001400	3.855900	-11.571000	21.418235	0.000881	20.695313
80.027401	-3.024100	3.854400	-11.655000	21.413227	0.000882	20.739617
81.028810	-3.007600	3.854100	-11.591000	21.428367	0.000881	20.703554
82.028897	-3.004700	3.853800	-11.578000	21.422533	0.000881	20.705304
83.032538	-3.006400	3.855000	-11.588000	21.447592	0.000880	20.709989
84.027914	-3.007400	3.855000	-11.592000	21.433931	0.000883	20.712441
85.026009	-3.012700	3.853200	-11.607000	21.449594	0.000882	20.704879
86.030997	-2.994300	3.853700	-11.538000	21.453916	0.000880	20.693555
87.029818	-2.993000	3.854900	-11.537000	21.469129	0.000883	20.681749
88.029007	-2.999800	3.853500	-11.558000	21.461220	0.000881	20.708925
89.028382	-2.990100	3.854200	-11.523000	21.493746	0.000883	20.704486
90.027346	-2.981100	3.854200	-11.488000	21.493599	0.000881	20.706710
91.028210	-2.979100	3.853900	-11.479000	21.500110	0.000883	20.700422
92.030930	-2.991100	3.853600	-11.525000	21.529244	0.000883	20.703970
93.028149	-2.998500	3.851700	-11.548000	21.529841	0.000882	20.711680
94.028472	-2.985100	3.853000	-11.500000	21.541262	0.000884	20.692287
95.028277	-3.002800	3.850900	-11.562000	21.527283	0.000882	20.719553
96.028469	-2.999500	3.851100	-11.550000	21.526107	0.000882	20.706521
97.031558	-2.992600	3.851200	-11.524000	21.546286	0.000883	20.721024
98.033017	-2.981600	3.852100	-11.485000	21.557078	0.000882	20.719022
99.033761	-3.015300	3.852000	-11.614000	21.579602	0.000883	20.712162
100.031187	-3.005500	3.851100	-11.573000	21.564987	0.000883	20.712236
101.032037	-3.009400	3.849900	-11.585000	21.584185	0.000883	20.696833
102.033631	-3.008200	3.850300	-11.582000	21.601521	0.000885	20.717027
103.033280	-2.990400	3.850100	-11.513000	21.600443	0.000883	20.712154
104.032055	-3.007900	3.849800	-11.579000	21.590043	0.000884	20.711705
105.035205	-2.995400	3.849400	-11.529000	21.589847	0.000883	20.719570
106.032562	-3.001800	3.848000	-11.550000	21.609445	0.000884	20.704567
107.031233	-2.987700	3.849600	-11.500000	21.617402	0.000887	20.730075
108.035055	-3.007700	3.848700	-11.575000	21.618104	0.000886	20.727459
109.037938	-2.979300	3.849000	-11.466000	21.639337	0.000887	20.711721
110.033980	-2.989400	3.847400	-11.500000	21.647669	0.000887	20.713422
111.031145	-2.999600	3.848500	-11.543000	21.639084	0.000886	20.734703
112.033444	-2.987100	3.849300	-11.497000	21.658608	0.000885	20.711092
113.036457	-2.978600	3.847800	-11.460000	21.672274	0.000885	20.730934
114.034279	-3.026700	3.847900	-11.645000	21.673443	0.000887	20.739216
115.036090	-2.997400	3.846700	-11.529000	21.688604	0.000888	20.711714
116.034579	-2.973300	3.848300	-11.440000	21.690663	0.000887	20.718042
117.034667	-3.013500	3.845700	-11.587000	21.702066	0.000886	20.736567
118.034384	-3.017000	3.846000	-11.603000	21.721508	0.000887	20.730420
119.038301	-2.992000	3.846400	-11.507000	21.727576	0.000888	20.726062
120.036633	-2.999500	3.846400	-11.536000	21.750857	0.000886	20.727550
121.036273	-3.024200	3.845100	-11.627000	21.735173	0.000887	20.730820
122.036225	-2.990600	3.846800	-11.503000	21.731024	0.000888	20.743738
123.034987	-3.020100	3.844800	-11.611000	21.755636	0.000889	20.732333
124.041667	-3.015800	3.845300	-11.596000	21.735909	0.000887	20.723496
125.036330	-3.019200	3.844100	-11.605000	21.758846	0.000889	20.723692
126.042510	-2.990000	3.846600	-11.499000	21.773655	0.000888	20.709115
127.037876	-2.995100	3.843300	-11.510000	21.770290	0.000889	20.726611
128.036902	-2.999400	3.844500	-11.530000	21.775109	0.000889	20.742340
129.038278	-3.025100	3.842400	-11.622000	21.776522	0.000890	20.738065
130.037785	-2.985800	3.844900	-11.478000	21.771809	0.000889	20.738563
131.039637	-3.028300	3.843100	-11.635000	21.797473	0.000890	20.725842
132.038953	-3.016800	3.842100	-11.588000	21.791167	0.000892	20.752723
133.038945	-2.977200	3.844200	-11.444000	21.793895	0.000891	20.745970
134.039464	-2.999700	3.843000	-11.527000	21.822687	0.000888	20.732587
135.040743	-3.008400	3.842400	-11.558000	21.828943	0.000892	20.754023
136.041127	-3.009100	3.841600	-11.558000	21.843955	0.000892	20.731115
137.041118	-3.020800	3.841600	-11.602000	21.821641	0.000893	20.740549
138.039310	-3.020800	3.840100	-11.599000	21.837421	0.000894	20.726945
139.039764	-3.004700	3.842400	-11.543000	21.870280	0.000893	20.736127
140.041688	-2.987800	3.841900	-11.477000	21.859760	0.000893	20.734606
141.039221	-2.970000	3.843100	-11.412000	21.854173	0.000895	20.766474
142.042449	-2.994700	3.840000	-11.499000	21.871856	0.000894	20.762361
143.040290	-2.998200	3.840000	-11.512000	21.873807	0.000894	20.729226
144.038827	-2.983200	3.842200	-11.461000	21.874608	0.000893	20.733821
145.044043	-3.016100	3.839900	-11.580000	21.886696	0.000896	20.753033
146.042760	-3.014400	3.840700	-11.576000	21.926013	0.000897	20.745446
147.040772	-2.981900	3.839500	-11.447000	21.917143	0.000896	20.741783
148.041027	-2.994800	3.839200	-11.497000	21.908167	0.000897	20.767887
149.040540	-3.017800	3.837900	-11.580000	21.946919	0.000898	20.749304
150.042263	-2.973700	3.841000	-11.421000	21.925350	0.000897	20.731981
151.041020	-2.977600	3.840800	-11.435000	21.958582	0.000897	20.753866
152.045431	-2.995100	3.839500	-11.499000	21.961530	0.000897	20.762033
153.041389	-3.013200	3.839200	-11.567000	21.977831	0.000898	20.760807
154.042850	-3.018000	3.837300	-11.580000	21.977202	0.000897	20.739789
155.047650	-2.982800	3.839100	-11.450000	21.979178	0.000900	20.742241
156.041691	-2.992400	3.837800	-11.483000	21.989444	0.000898	20.753940
157.043921	-3.019100	3.837800	-11.586000	21.992465	0.000901	20.742740
158.044539	-3.006700	3.839000	-11.541000	22.002314	0.000899	20.734106
159.043905	-3.007500	3.837000	-11.539000	22.013902	0.000902	20.757562
160.045115	-3.011400	3.837600	-11.555000	22.002257	0.000902	20.758706
161.049526	-3.015600	3.836700	-11.569000	22.003980	0.000900	20.768492
162.048848	-2.996600	3.836600	-11.496000	21.993005	0.000903	20.767462
163.046275	-2.986800	3.837100	-11.459000	22.004274	0.000901	20.777322
164.044393	-3.010500	3.836200	-11.547000	22.006120	0.000902	20.758306
165.048489	-3.004400	3.836300	-11.524000	22.005312	0.000903	20.762713
166.052017	-2.992900	3.836900	-11.481000	22.025418	0.000903	20.775254
167.046755	-3.014900	3.835000	-11.561000	22.036597	0.000904	20.744719
168.046462	-2.985700	3.836100	-11.450000	22.014532	0.000904	20.759614
169.046832	-2.998100	3.836500	-11.501000	22.030383	0.000905	20.774535
170.045927	-3.013500	3.834400	-11.554000	22.028056	0.000906	20.766041
171.047347	-2.993000	3.834500	-11.476000	22.042111	0.000904	20.758773
172.046668	-2.990200	3.835200	-11.467000	22.042005	0.000904	20.773366
173.049572	-3.004400	3.833700	-11.516000	22.044847	0.000908	20.775737
174.049302	-3.012400	3.833900	-11.547000	22.100923	0.000907	20.763597
175.047827	-2.987300	3.834800	-11.456000	22.092700	0.000908	20.770538
176.052788	-2.982100	3.833000	-11.430000	22.110535	0.000906	20.777488
177.047376	-2.991100	3.834400	-11.468000	22.119386	0.000906	20.782556
178.050829	-3.005700	3.834300	-11.524000	22.105243	0.000906	20.768397
179.046827	-2.966400	3.834000	-11.371000	22.114185	0.000907	20.768814
180.049458	-3.009100	3.832700	-11.532000	22.129856	0.000909	20.774072
181.050704	-3.026400	3.831700	-11.594000	22.155854	0.000908	20.785876
182.054103	-2.987300	3.832100	-11.445000	22.155201	0.000909	20.783800
183.051343	-3.013500	3.831400	-11.545000	22.181820	0.000910	20.777734
184.051146	-2.994100	3.832100	-11.471000	22.198241	0.000912	20.789433
185.051091	-2.996000	3.832800	-11.481000	22.202275	0.000910	20.795843
186.052668	-2.980200	3.834000	-11.424000	22.215502	0.000910	20.800552
187.057559	-2.984600	3.831500	-11.434000	22.231596	0.000913	20.783949
188.052492	-2.967800	3.831400	-11.370000	22.237556	0.000909	20.797977
189.053471	-2.995400	3.831000	-11.474000	22.230094	0.000911	20.794299
190.053500	-3.005700	3.831700	-11.515000	22.243795	0.000911	20.798534
191.052947	-2.999100	3.829900	-11.484000	22.235695	0.000913	20.800381
192.053424	-2.979200	3.831900	-11.416000	22.238782	0.000911	20.782609
193.052422	-3.009400	3.828900	-11.522000	22.249396	0.000913	20.795133
194.053111	-2.974700	3.829900	-11.392000	22.267963	0.000914	20.806611
195.059429	-2.998800	3.830000	-11.484000	22.259456	0.000914	20.801412
196.052841	-3.007100	3.828300	-11.511000	22.295469	0.000914	20.793850
197.055629	-2.993100	3.829700	-11.460000	22.281557	0.000915	20.802206
198.056642	-2.997700	3.829400	-11.479000	22.281754	0.000914	20.804299
199.054668	-3.004700	3.828600	-11.501000	22.284497	0.000916	20.805623
200.055061	-2.972100	3.829100	-11.380000	22.294686	0.000916	20.807291
201.056006	-2.992900	3.830100	-11.461000	22.309390	0.000916	20.816324
202.055914	-3.019700	3.828900	-11.561000	22.302785	0.000918	20.801650
203.057310	-2.995200	3.828100	-11.464000	22.300442	0.000918	20.812580
204.055716	-2.995100	3.828000	-11.464000	22.318689	0.000920	20.799557
205.057507	-2.983300	3.828200	-11.420000	22.325139	0.000919	20.797007
206.055453	-3.002700	3.826000	-11.487000	22.336749	0.000918	20.811951
207.056501	-2.992300	3.828100	-11.453000	22.335458	0.000920	20.803547
208.062255	-3.001700	3.827000	-11.486000	22.355493	0.000920	20.801323
209.059529	-3.002500	3.826800	-11.489000	22.354318	0.000920	20.799672
210.057812	-3.010600	3.826800	-11.520000	22.352342	0.000920	20.796272
211.057965	-2.988800	3.825500	-11.433000	22.362760	0.000923	20.804806
212.057028	-3.003600	3.826100	-11.491000	22.375805	0.000921	20.812654
213.056895	-3.015900	3.825500	-11.536000	22.399774	0.000923	20.797776
214.057737	-2.998200	3.826300	-11.471000	22.408517	0.000924	20.817437
215.057586	-3.015000	3.824200	-11.530000	22.411162	0.000923	20.822930
216.059700	-2.986700	3.825800	-11.426000	22.405227	0.000923	20.803711
217.058165	-3.004700	3.824500	-11.490000	22.421726	0.000925	20.806482
218.058189	-3.012600	3.824000	-11.519000	22.414852	0.000926	20.831366
219.058129	-3.015000	3.823800	-11.529000	22.433244	0.000925	20.820861
220.058476	-3.000900	3.823700	-11.474000	22.439228	0.000926	20.809310
221.061238	-3.000500	3.823900	-11.472000	22.425791	0.000926	20.811975
222.059062	-2.978100	3.823400	-11.385000	22.465865	0.000926	20.805640
223.058491	-3.008400	3.823200	-11.500000	22.482264	0.000928	20.808787
224.061602	-2.990600	3.823100	-11.432000	22.495219	0.000929	20.807536
225.060016	-2.995700	3.823600	-11.454000	22.486459	0.000929	20.818678
226.061753	-2.995400	3.822700	-11.448000	22.482198	0.000930	20.816307
227.065529	-3.017700	3.821100	-11.530000	22.506744	0.000929	20.815285
228.061685	-3.010800	3.820800	-11.502000	22.517332	0.000928	20.807397
229.066945	-2.983200	3.823400	-11.405000	22.512556	0.000929	20.824425
230.059889	-2.981700	3.822500	-11.397000	22.550651	0.000931	20.808525
231.062098	-3.001600	3.821500	-11.470000	22.544399	0.000931	20.779977
232.062642	-2.997500	3.822200	-11.457000	22.509642	0.000933	20.795428
233.061118	-2.998400	3.821500	-11.457000	22.518613	0.000932	20.821956
234.065049	-3.005300	3.821800	-11.484000	22.534219	0.000932	20.802499
235.064069	-2.979200	3.821800	-11.385000	22.512792	0.000933	20.798583
236.063997	-2.989400	3.820800	-11.421000	22.538374	0.000933	20.789117
237.063885	-2.986300	3.821400	-11.410000	22.538733	0.000934	20.801330
238.063283	-2.994000	3.820900	-11.438000	22.574044	0.000936	20.801607
239.064026	-3.009400	3.818800	-11.491000	22.589340	0.000936	20.797013
240.066465	-3.004300	3.820300	-11.477000	22.575285	0.000936	20.809014
241.065004	-2.998700	3.819300	-11.450000	22.594229	0.000935	20.794323
242.066075	-3.005700	3.819700	-11.480000	22.601804	0.000938	20.795746
243.066653	-3.007100	3.817800	-11.479000	22.616381	0.000938	20.807501
244.068659	-3.017800	3.818000	-11.521000	22.618871	0.000938	20.801460
245.064962	-2.997300	3.818200	-11.443000	22.625253	0.000937	20.786516
246.067480	-3.000800	3.817200	-11.454000	22.619148	0.000940	20.783246
247.067194	-3.004500	3.817400	-11.468000	22.612479	0.000941	20.811654
248.067364	-3.002700	3.817500	-11.461000	22.627309	0.000940	20.793791
249.069372	-2.996600	3.816700	-11.437000	22.635700	0.000940	20.787022
250.069750	-2.978000	3.818500	-11.370000	22.660822	0.000942	20.803650
251.067657	-2.980700	3.818200	-11.380000	22.636753	0.000941	20.789973
252.068872	-2.985800	3.817400	-11.396000	22.643241	0.000942	20.798369
253.070700	-3.019500	3.817200	-11.524000	22.646824	0.000942	20.796268
254.071518	-3.008000	3.816100	-11.477000	22.646709	0.000943	20.781928
255.073141	-2.979300	3.817500	-11.371000	22.643869	0.000942	20.792834
256.070174	-2.996800	3.816100	-11.436000	22.656903	0.000943	20.778862
257.073958	-2.994000	3.815900	-11.424000	22.675895	0.000946	20.777971
258.069070	-2.995300	3.815900	-11.428000	22.681641	0.000946	20.799374
259.071816	-3.003100	3.814800	-11.456000	22.699865	0.000947	20.781118
260.074449	-3.003700	3.814600	-11.457000	22.705929	0.000946	20.776286
261.071958	-2.995500	3.814000	-11.424000	22.695466	0.000946	20.781453
262.073412	-2.992100	3.814700	-11.412000	22.700175	0.000948	20.768626
263.074265	-2.997200	3.814200	-11.431000	22.715127	0.000947	20.785499
264.073636	-2.998800	3.814300	-11.437000	22.720537	0.000947	20.786652
265.075078	-3.001700	3.813800	-11.448000	22.729384	0.000949	20.778918
266.085550	-2.967400	3.815300	-11.320000	22.744164	0.000948	20.776179
267.074651	-3.007200	3.813300	-11.466000	22.746726	0.000947	20.781591
268.074542	-2.987300	3.813300	-11.390000	22.763097	0.000949	20.783291
269.075992	-2.996700	3.813100	-11.426000	22.757295	0.000949	20.788384
270.075953	-2.989600	3.813900	-11.401000	22.752667	0.000950	20.777585
271.079386	-2.994100	3.813000	-11.416000	22.760118	0.000950	20.781255
272.074949	-2.989700	3.812000	-11.395000	22.779574	0.000952	20.781779
273.078446	-2.988100	3.813200	-11.394000	22.754544	0.000952	20.786103
274.077020	-2.985800	3.811600	-11.380000	22.766883	0.000952	20.772385
275.076445	-3.016100	3.811300	-11.493000	22.742693	0.000952	20.771387
276.078129	-3.005700	3.811200	-11.453000	22.746203	0.000953	20.771584
277.074484	-3.030500	3.809100	-11.542000	22.765373	0.000955	20.760914
278.074682	-2.998300	3.811200	-11.426000	22.737943	0.000953	20.775638
279.077693	-2.987700	3.811100	-11.386000	22.759619	0.000955	20.759892
280.076662	-2.994900	3.810300	-11.410000	22.764834	0.000954	20.758003
281.075983	-2.996500	3.811500	-11.420000	22.777075	0.000955	20.767421
282.077810	-3.003800	3.809400	-11.441000	22.772047	0.000955	20.766652
283.076697	-3.006600	3.809400	-11.452000	22.801394	0.000956	20.771394
284.076572	-3.001700	3.808600	-11.431000	22.812312	0.000955	20.770004
285.076411	-2.997900	3.808900	-11.417000	22.796815	0.000957	20.743099
286.076942	-2.995400	3.810100	-11.412000	22.789120	0.000955	20.753882
287.079215	-3.012700	3.808500	-11.473000	22.811651	0.000956	20.754168
288.080754	-2.999000	3.808000	-11.420000	22.828690	0.000958	20.767445
289.079132	-3.012600	3.808100	-11.470000	22.839177	0.000957	20.769415
290.076923	-3.005700	3.807200	-11.443000	22.827523	0.000957	20.766275
291.079406	-3.012100	3.806300	-11.464000	22.840286	0.000959	20.744447
292.080741	-3.005900	3.806200	-11.440000	22.857977	0.000961	20.740359
293.082728	-2.985100	3.806300	-11.361000	22.842138	0.000959	20.773330
294.076991	-2.963900	3.808500	-11.287000	22.825499	0.000959	20.743384
295.079629	-3.004100	3.806200	-11.433000	22.812303	0.000960	20.744863
296.081087	-3.011100	3.805800	-11.458000	22.836197	0.000962	20.751730
297.081455	-3.009600	3.805100	-11.450000	22.860017	0.000963	20.746195
298.085554	-2.990800	3.806100	-11.382000	22.860017	0.000962	20.764214
299.081253	-2.989100	3.807400	-11.378000	22.874591	0.000962	20.746097
300.088168	-3.002200	3.804900	-11.422000	22.883036	0.000963	20.745549
301.081948	-2.974200	3.806700	-11.321000	22.870510	0.000963	20.735845
302.084094	-2.983900	3.805800	-11.353000	22.867499	0.000964	20.753692
303.083111	-3.013800	3.804300	-11.464000	22.849522	0.000964	20.775985
304.082960	-3.002300	3.804400	-11.421000	22.854108	0.000966	20.747388
305.083015	-3.003300	3.804800	-11.425000	22.860383	0.000966	20.749882
306.084935	-2.991700	3.803500	-11.377000	22.900539	0.000965	20.744592
307.091282	-2.992200	3.805400	-11.385000	22.897373	0.000967	20.744739
308.086932	-3.009300	3.802500	-11.441000	22.905802	0.000967	20.744649
309.087116	-3.017200	3.803000	-11.474000	22.909041	0.000966	20.727979
310.088212	-2.996500	3.803900	-11.397000	22.928127	0.000967	20.736670
311.086513	-3.005800	3.803000	-11.430000	22.930624	0.000967	20.751974
312.089259	-2.988300	3.803000	-11.363000	22.922954	0.000968	20.742392
313.086879	-2.990700	3.802500	-11.370000	22.911595	0.000968	20.744763
314.091322	-2.992000	3.802100	-11.374000	22.938653	0.000967	20.744370
315.088201	-2.979600	3.802500	-11.329000	22.961867	0.000969	20.736808
316.088127	-3.006400	3.800700	-11.426000	22.967571	0.000969	20.726401
317.088318	-2.968300	3.802200	-11.285000	22.954980	0.000968	20.733701
318.088297	-3.000700	3.801600	-11.405000	22.958097	0.000971	20.727815
319.091875	-2.998700	3.801400	-11.399000	22.962111	0.000971	20.729466
320.090761	-3.004700	3.799900	-11.416000	22.978658	0.000971	20.726130
321.090121	-2.987900	3.802200	-11.359000	22.978161	0.000971	20.734166
322.089497	-2.997300	3.801000	-11.391000	22.975133	0.000972	20.724020
323.089444	-2.993600	3.800100	-11.375000	22.972367	0.000974	20.723146
324.091288	-2.977600	3.799300	-11.312000	22.966549	0.000974	20.735809
325.089681	-2.994400	3.798800	-11.375000	22.991435	0.000977	20.728974
326.089510	-2.992600	3.799300	-11.369000	22.977809	0.000976	20.723856
327.089489	-2.980100	3.799000	-11.321000	22.984769	0.000974	20.725614
328.089484	-3.008900	3.797600	-11.425000	22.989729	0.000975	20.747655
329.092207	-3.003700	3.798100	-11.408000	23.015912	0.000977	20.718885
330.093121	-3.006800	3.798100	-11.419000	23.016427	0.000976	20.735048
331.095782	-2.997000	3.797900	-11.381000	23.012779	0.000975	20.736609
332.092370	-2.974800	3.798800	-11.299000	23.042592	0.000977	20.732816
333.097618	-2.986000	3.798000	-11.340000	23.034001	0.000978	20.735588
334.094557	-2.983800	3.798100	-11.331000	23.054202	0.000979	20.741130
335.096885	-2.983800	3.796400	-11.327000	23.023492	0.000978	20.731696
336.094706	-2.978800	3.798200	-11.313000	23.052685	0.000980	20.734394
337.096565	-2.993800	3.797000	-11.367000	23.072584	0.000981	20.745324
338.095872	-2.989100	3.795700	-11.345000	23.053443	0.000979	20.698167
339.094420	-2.971600	3.796500	-11.281000	23.076533	0.000980	20.704234
340.097562	-2.994000	3.796000	-11.364000	23.097655	0.000981	20.705010
341.098151	-3.016500	3.794400	-11.444000	23.090165	0.000980	20.706989
342.096660	-3.004400	3.794800	-11.400000	23.073848	0.000981	20.742323
343.095173	-3.017900	3.793800	-11.448000	23.083736	0.000981	20.722359
344.096379	-2.999900	3.793700	-11.380000	23.071017	0.000983	20.702974
345.093857	-2.989200	3.795400	-11.344000	23.037019	0.000983	20.696883
346.094753	-3.003000	3.794200	-11.394000	23.033731	0.000982	20.714927
347.095691	-3.009700	3.793500	-11.417000	23.071368	0.000983	20.695264
348.099341	-2.996100	3.794400	-11.367000	23.071547	0.000983	20.715834
349.096519	-3.005000	3.793900	-11.398000	23.085025	0.000983	20.708002
350.097268	-3.011500	3.792300	-11.419000	23.083100	0.000984	20.727411
351.096840	-2.995700	3.793000	-11.361000	23.109150	0.000985	20.716055
352.096716	-3.008000	3.792200	-11.406000	23.124121	0.000983	20.728686
353.098714	-3.001700	3.792700	-11.383000	23.133070	0.000987	20.709204
354.100566	-3.003300	3.791100	-11.385000	23.154290	0.000984	20.712449
355.109848	-3.011100	3.791400	-11.415000	23.122937	0.000985	20.711852
356.097719	-3.001400	3.791300	-11.378000	23.113580	0.000986	20.712433
357.100897	-3.019100	3.790600	-11.442000	23.083328	0.000987	20.714836
358.097571	-2.998400	3.790300	-11.361000	23.090320	0.000987	20.720895
359.100366	-3.010800	3.789800	-11.409000	23.101660	0.000987	20.718507
360.098087	-2.995800	3.790400	-11.355000	23.095459	0.000986	20.698068
361.097832	-3.009100	3.789800	-11.403000	23.102582	0.000988	20.718483
362.102307	-3.002000	3.789500	-11.375000	23.117756	0.000989	20.717092
363.099218	-3.018300	3.788700	-11.432000	23.130932	0.000988	20.719390
364.101324	-3.018900	3.789000	-11.436000	23.121942	0.000989	20.708483
365.101370	-2.994800	3.788500	-11.345000	23.164486	0.000989	20.709865
366.107463	-3.007900	3.787600	-11.391000	23.165359	0.000990	20.710740
367.103465	-2.990800	3.787900	-11.327000	23.196368	0.000990	20.713364
368.103090	-3.008400	3.787600	-11.394000	23.174504	0.000988	20.699989
369.103198	-2.990100	3.787600	-11.323000	23.192093	0.000990	20.699596
370.104292	-2.996700	3.787300	-11.348000	23.181789	0.000992	20.702547
371.103355	-2.973900	3.787800	-11.264000	23.201939	0.000992	20.708990
372.105688	-2.997100	3.786900	-11.349000	23.205055	0.000992	20.704051
373.105196	-2.967600	3.787800	-11.239000	23.209901	0.000990	20.707011
374.104238	-2.978800	3.787600	-11.282000	23.203497	0.000993	20.708180
375.107931	-3.000900	3.786100	-11.361000	23.204704	0.000991	20.704648
376.106052	-2.982900	3.786200	-11.293000	23.227293	0.000994	20.698361
377.104437	-2.993500	3.785300	-11.330000	23.228810	0.000992	20.697985
378.108066	-3.002700	3.785300	-11.366000	23.230784	0.000993	20.710869
379.105700	-3.003000	3.784000	-11.362000	23.222324	0.000994	20.684372
380.107340	-2.993900	3.784600	-11.329000	23.219665	0.000996	20.675542
381.106089	-2.993200	3.784000	-11.325000	23.231526	0.000997	20.698336
382.105876	-2.985400	3.784100	-11.296000	23.197786	0.000995	20.695818
383.105584	-3.000600	3.784100	-11.353000	23.221777	0.000996	20.692359
384.109065	-2.982700	3.784800	-11.288000	23.240303	0.000996	20.696226
385.106549	-3.007400	3.782700	-11.375000	23.255395	0.000996	20.679580
386.108813	-3.009300	3.782100	-11.380000	23.241086	0.000996	20.679466
387.107673	-2.999500	3.783500	-11.347000	23.229633	0.000996	20.677471
388.109188	-2.995600	3.782500	-11.330000	23.254513	0.000997	20.707149
389.113908	-2.988700	3.781900	-11.301000	23.254619	0.000998	20.685916
390.110076	-2.992700	3.780900	-11.314000	23.284532	0.000999	20.696929
391.114304	-2.995600	3.781100	-11.326000	23.269466	0.000998	20.682302
392.109878	-2.981000	3.782300	-11.275000	23.305855	0.000999	20.721619
393.110695	-2.996100	3.781300	-11.327000	23.316344	0.000999	20.687085
394.109768	-2.996500	3.780300	-11.326000	23.340578	0.000998	20.693356
395.113904	-3.014300	3.779700	-11.392000	23.334428	0.000999	20.697623
396.110912	-3.015200	3.779600	-11.395000	23.356394	0.001000	20.674118
397.109390	-3.001000	3.779600	-11.342000	23.326842	0.000999	20.688597
398.112790	-3.013700	3.778100	-11.385000	23.344877	0.001001	20.667315
399.110313	-3.005100	3.779500	-11.356000	23.335048	0.001001	20.679277
400.121554	-3.012700	3.778200	-11.382000	23.347356	0.001001	20.686398
401.111727	-3.010500	3.778200	-11.373000	23.354869	0.001001	20.653146
402.111656	-3.005400	3.778400	-11.355000	23.359232	0.001002	20.673169
403.110194	-2.986300	3.779100	-11.285000	23.348629	0.001000	20.711857
404.111110	-3.003700	3.777100	-11.343000	23.358849	0.001000	20.672785
405.114197	-3.007000	3.777800	-11.357000	23.332511	0.001002	20.666775
406.112010	-2.996200	3.777600	-11.318000	23.334835	0.001002	20.677641
407.112340	-3.020300	3.776000	-11.403000	23.362275	0.001002	20.678115
408.114026	-3.000000	3.776800	-11.329000	23.349281	0.001001	20.681214
409.113085	-3.010200	3.776500	-11.367000	23.335088	0.001003	20.662246
410.116358	-3.001000	3.776500	-11.331000	23.332160	0.001004	20.664053
411.116346	-3.004100	3.775700	-11.341000	23.341426	0.001004	20.659114
412.114301	-2.994100	3.775700	-11.303000	23.387829	0.001005	20.647300
413.114760	-2.998700	3.774200	-11.317000	23.383049	0.001003	20.674281
414.114092	-2.992300	3.775300	-11.295000	23.385561	0.001004	20.664944
415.116372	-2.969500	3.775900	-11.212000	23.399085	0.001005	20.642459
416.114307	-3.002100	3.773100	-11.326000	23.417045	0.001006	20.678957
417.114912	-2.989800	3.775100	-11.284000	23.435168	0.001006	20.659662
418.114917	-2.997700	3.773900	-11.312000	23.420389	0.001005	20.657650
419.115649	-2.992300	3.774300	-11.292000	23.449636	0.001004	20.673218
420.116162	-3.001500	3.772800	-11.323000	23.456365	0.001005	20.650562
421.116977	-3.011000	3.773600	-11.361000	23.467539	0.001007	20.689741
422.116061	-3.018000	3.771400	-11.381000	23.439971	0.001007	20.668745
423.116732	-3.012300	3.771900	-11.361000	23.401352	0.001005	20.653742
424.118576	-3.000300	3.771500	-11.315000	23.383179	0.001007	20.682473
425.118538	-2.990900	3.771800	-11.279000	23.394884	0.001006	20.679505
426.121669	-3.002200	3.770900	-11.319000	23.402151	0.001009	20.671615
427.121671	-2.991200	3.771600	-11.281000	23.427378	0.001007	20.673193
428.123799	-3.000800	3.771000	-11.314000	23.433308	0.001007	20.660169
429.122384	-3.017800	3.771400	-11.379000	23.436146	0.001010	20.635984
430.122581	-3.011100	3.769800	-11.349000	23.446137	0.001007	20.670658
431.125464	-3.009800	3.769100	-11.344000	23.430233	0.001009	20.657560
432.127505	-2.982700	3.771500	-11.249000	23.443625	0.001010	20.655811
433.124039	-2.989300	3.769100	-11.266000	23.463787	0.001009	20.647095
434.125122	-3.019700	3.768100	-11.378000	23.467726	0.001008	20.645354
435.125885	-2.996500	3.769200	-11.294000	23.484364	0.001009	20.686217
436.126733	-2.970200	3.770300	-11.197000	23.494371	0.001009	20.661158
437.129111	-3.007800	3.768800	-11.335000	23.482578	0.001010	20.687272
438.126814	-2.986700	3.768700	-11.255000	23.477374	0.001010	20.688220
439.131991	-3.005400	3.767000	-11.320000	23.496940	0.001009	20.666104
440.127122	-2.997900	3.767100	-11.292000	23.532791	0.001011	20.665532
441.131545	-3.007100	3.767200	-11.328000	23.531332	0.001011	20.655058
442.128680	-2.990300	3.766800	-11.262000	23.560715	0.001009	20.667919
443.126967	-3.008600	3.765700	-11.329000	23.552870	0.001011	20.679971
444.126458	-2.983200	3.766600	-11.235000	23.534251	0.001012	20.675531
445.129625	-2.984600	3.767300	-11.242000	23.534561	0.001013	20.666832
446.128314	-3.017500	3.765600	-11.361000	23.558660	0.001013	20.648787
447.128455	-3.016200	3.764400	-11.352000	23.530679	0.001012	20.678589
448.130791	-3.006100	3.765200	-11.317000	23.550325	0.001014	20.669833
449.129510	-3.010900	3.763400	-11.330000	23.547039	0.001011	20.660847
450.127708	-3.005200	3.763200	-11.308000	23.539650	0.001012	20.668140
451.127986	-3.011300	3.764400	-11.334000	23.544527	0.001014	20.673504
452.128440	-2.993700	3.764300	-11.268000	23.591378	0.001014	20.678744
453.132244	-3.017100	3.763400	-11.353000	23.579178	0.001014	20.664616
454.129533	-3.000200	3.762000	-11.285000	23.559492	0.001015	20.674754
455.133530	-3.005200	3.763100	-11.308000	23.558945	0.001015	20.669465
456.131334	-3.014800	3.762200	-11.342000	23.554582	0.001015	20.667936
457.131328	-3.008300	3.761600	-11.315000	23.555039	0.001012	20.678352
458.133623	-3.008300	3.761400	-11.313000	23.566815	0.001015	20.662180
459.131458	-3.008500	3.761000	-11.314000	23.560837	0.001014	20.668042
460.132334	-3.007800	3.761700	-11.313000	23.588597	0.001016	20.661730
461.131998	-3.022900	3.760500	-11.365000	23.567533	0.001016	20.676177
462.133130	-3.014700	3.759900	-11.334000	23.589690	0.001016	20.678000
463.132336	-3.011200	3.761200	-11.325000	23.583370	0.001018	20.680200
464.134790	-2.982900	3.759700	-11.213000	23.601939	0.001017	20.673683
465.131258	-3.004600	3.759900	-11.295000	23.568087	0.001017	20.653497
466.134525	-2.998400	3.760300	-11.275000	23.583247	0.001017	20.666799
467.133668	-3.002100	3.759300	-11.285000	23.573282	0.001018	20.666292
468.132653	-2.995800	3.760000	-11.263000	23.603072	0.001016	20.655852
469.137856	-3.005600	3.759200	-11.297000	23.621820	0.001019	20.673226
470.132521	-3.013100	3.756600	-11.318000	23.618607	0.001018	20.681385
471.133261	-2.987000	3.758200	-11.225000	23.634908	0.001018	20.667380
472.131982	-2.993500	3.758200	-11.250000	23.625343	0.001017	20.672015
473.133101	-3.007300	3.756700	-11.296000	23.616634	0.001017	20.679881
474.134984	-2.999900	3.758300	-11.273000	23.632437	0.001017	20.665851
475.136367	-2.982400	3.758300	-11.206000	23.642092	0.001017	20.677428
476.133374	-3.017000	3.755700	-11.330000	23.643487	0.001019	20.686413
477.132850	-3.014100	3.756100	-11.321000	23.671245	0.001018	20.683895
478.134359	-3.009000	3.754700	-11.297000	23.680206	0.001017	20.685767
479.134028	-2.983300	3.755200	-11.201000	23.706414	0.001018	20.662253
480.138437	-2.969700	3.755800	-11.153000	23.707979	0.001017	20.692749
481.134757	-2.991000	3.754700	-11.229000	23.737921	0.001019	20.675825
482.134633	-2.994200	3.754500	-11.239000	23.740538	0.001018	20.698366
483.135522	-2.986700	3.754500	-11.212000	23.743253	0.001018	20.684018
484.136045	-2.997200	3.753900	-11.250000	23.754669	0.001018	20.684083
485.136853	-3.002600	3.753700	-11.270000	23.725037	0.001018	20.679979
486.135681	-3.014600	3.753300	-11.314000	23.738720	0.001020	20.669988
487.139181	-3.001300	3.753000	-11.263000	23.741834	0.001019	20.681647
488.136378	-3.006900	3.752700	-11.283000	23.744052	0.001019	20.672964
489.135690	-3.010600	3.752100	-11.295000	23.746670	0.001019	20.692185
490.139589	-2.995100	3.753100	-11.240000	23.744003	0.001016	20.685718
491.136974	-2.984100	3.752900	-11.197000	23.755533	0.001019	20.678311
492.136797	-3.000700	3.752000	-11.258000	23.770266	0.001019	20.671271
493.137639	-2.997000	3.750700	-11.239000	23.776259	0.001020	20.690084
494.138636	-3.022700	3.750400	-11.335000	23.811156	0.001019	20.689986
495.139484	-3.002100	3.748600	-11.253000	23.804324	0.001021	20.675547
496.141474	-3.008600	3.749800	-11.279000	23.823427	0.001020	20.685694
497.139272	-3.003400	3.750800	-11.264000	23.819399	0.001018	20.673119
498.140113	-3.012800	3.749400	-11.295000	23.841274	0.001020	20.697900
499.139094	-2.969000	3.751700	-11.137000	23.817010	0.001018	20.693011
500.141119	-3.000200	3.747900	-11.243000	23.819970	0.001018	20.697401
501.142008	-2.976600	3.749500	-11.159000	23.816961	0.001019	20.679684
502.140600	-3.031400	3.747100	-11.357000	23.803394	0.001019	20.681728
503.148735	-3.004700	3.747800	-11.260000	23.823109	0.001018	20.676365
504.142772	-2.988200	3.749400	-11.203000	23.849288	0.001021	20.682227
505.140979	-3.021400	3.747100	-11.321000	23.847046	0.001020	20.685669
506.144928	-2.999900	3.746300	-11.237000	23.851702	0.001020	20.684647
507.148850	-2.993300	3.747200	-11.215000	23.831539	0.001019	20.694777
508.146648	-3.019900	3.745200	-11.309000	23.845734	0.001019	20.690992
509.142549	-3.002500	3.745700	-11.245000	23.839211	0.001021	20.681606
510.142033	-3.012600	3.744600	-11.280000	23.824030	0.001022	20.698628
511.147080	-3.004500	3.745900	-11.253000	23.823035	0.001022	20.699527
512.145984	-3.008000	3.743700	-11.259000	23.855737	0.001022	20.694859
513.143105	-3.006600	3.744700	-11.258000	23.861363	0.001021	20.698129
514.148129	-2.990200	3.745500	-11.198000	23.870054	0.001021	20.703999
515.142878	-2.991500	3.745000	-11.202000	23.866075	0.001021	20.696216
516.146502	-3.010100	3.742500	-11.263000	23.885944	0.001020	20.706182
517.152752	-3.014700	3.743000	-11.283000	23.906668	0.001022	20.698513
518.146832	-3.005200	3.742600	-11.245000	23.911299	0.001020	20.685612
519.153913	-2.988100	3.744300	-11.187000	23.888659	0.001021	20.681876
520.145182	-2.971000	3.744000	-11.122000	23.896029	0.001022	20.706338
521.145723	-2.968200	3.743600	-11.110000	23.875394	0.001020	20.693706
522.148514	-2.985300	3.742600	-11.171000	23.844454	0.001020	20.695398
523.149366	-2.984900	3.743400	-11.173000	23.880946	0.001022	20.694058
524.145032	-3.008100	3.742500	-11.256000	23.896811	0.001020	20.700010
525.147025	-2.999500	3.741900	-11.222000	23.912734	0.001021	20.709338
526.147303	-2.996400	3.741600	-11.209000	23.912041	0.001022	20.692046
527.151131	-2.983000	3.742500	-11.162000	23.924881	0.001020	20.698759
528.153496	-3.002600	3.739900	-11.227000	23.965324	0.001023	20.698064
529.150466	-2.973800	3.742300	-11.128000	23.955428	0.001023	20.687190
530.150937	-2.989000	3.740500	-11.179000	23.966996	0.001021	20.716336
531.150664	-3.006300	3.739200	-11.240000	23.985957	0.001021	20.711644
532.151330	-2.991200	3.739400	-11.184000	23.989544	0.001023	20.708602
533.152977	-2.993400	3.740100	-11.195000	23.985941	0.001023	20.717792
534.150290	-3.012000	3.737700	-11.257000	23.987604	0.001020	20.708553
535.151038	-3.013800	3.738700	-11.266000	24.000973	0.001023	20.708210
536.150805	-2.994600	3.738200	-11.193000	23.987164	0.001021	20.695309
537.151302	-3.014400	3.737500	-11.265000	24.005873	0.001022	20.699846
538.151765	-2.995900	3.738000	-11.198000	24.005343	0.001020	20.699315
539.154008	-3.011100	3.738300	-11.254000	24.020261	0.001021	20.707638
540.152390	-2.996500	3.736600	-11.196000	24.002962	0.001021	20.693134
541.154701	-2.997500	3.736100	-11.198000	23.991713	0.001021	20.685171
542.151772	-2.991700	3.736600	-11.178000	24.016380	0.001021	20.693314
543.153264	-3.005000	3.734900	-11.223000	24.006028	0.001024	20.700001
544.157980	-2.997700	3.735300	-11.196000	23.994354	0.001021	20.720539
545.155029	-3.003500	3.735100	-11.217000	24.009590	0.001021	20.703100
546.158214	-2.995600	3.734600	-11.187000	23.988134	0.001021	20.699601
547.155433	-3.000000	3.735300	-11.205000	24.024263	0.001020	20.705962
548.159701	-3.008400	3.733300	-11.230000	24.040069	0.001021	20.717546
549.156086	-2.999600	3.734200	-11.200000	24.037281	0.001022	20.709534
550.158736	-2.981600	3.734100	-11.133000	24.058361	0.001023	20.715503
551.155792	-2.996800	3.733800	-11.189000	24.042466	0.001022	20.723269
552.156516	-2.992000	3.733700	-11.170000	24.027507	0.001022	20.695464
553.156172	-3.007500	3.732700	-11.225000	24.004544	0.001023	20.716533
554.157041	-2.995700	3.732300	-11.180000	23.989259	0.001022	20.681287
555.159303	-3.002600	3.731800	-11.204000	23.990466	0.001022	20.714268
556.156885	-2.982200	3.733400	-11.133000	24.002783	0.001022	20.715241
557.159742	-2.988900	3.731300	-11.151000	24.023334	0.001021	20.725420
558.156209	-2.987600	3.731700	-11.148000	24.029342	0.001020	20.728600
559.156375	-3.004200	3.730100	-11.205000	24.046207	0.001021	20.727970
560.162034	-3.001600	3.729900	-11.195000	24.065543	0.001021	20.710851
561.159722	-3.002200	3.729200	-11.195000	24.096078	0.001020	20.717767
562.160686	-2.977000	3.730900	-11.106000	24.077868	0.001022	20.705667
563.160019	-3.005200	3.728700	-11.203000	24.092670	0.001021	20.715772
564.160728	-3.018100	3.729700	-11.256000	24.067670	0.001021	20.708243
565.165572	-2.996100	3.729500	-11.173000	24.048653	0.001019	20.721414
566.165777	-3.007600	3.727300	-11.209000	24.073311	0.001023	20.729074
567.162495	-3.013000	3.727500	-11.230000	24.050503	0.001023	20.719476
568.161714	-3.031900	3.727700	-11.300000	24.060432	0.001020	20.725640
569.161963	-3.003100	3.728700	-11.196000	24.057171	0.001021	20.705774
570.166059	-2.994500	3.726600	-11.158000	24.072871	0.001022	20.741910
571.161856	-2.990900	3.728200	-11.149000	24.078544	0.001021	20.697336
572.161884	-2.990600	3.727800	-11.147000	24.084250	0.001023	20.750952
573.161894	-3.005000	3.726100	-11.195000	24.105574	0.001022	20.729663
574.161734	-3.012700	3.725700	-11.223000	24.085041	0.001021	20.735149
575.166407	-3.018900	3.725600	-11.246000	24.077077	0.001021	20.754189
576.166056	-2.995900	3.726300	-11.162000	24.080321	0.001023	20.746537
577.164370	-3.007600	3.726000	-11.206000	24.063301	0.001021	20.726622
578.165583	-2.991900	3.723900	-11.141000	24.064141	0.001022	20.730309
579.166167	-2.999300	3.724700	-11.170000	24.091089	0.001021	20.729834
580.164088	-3.005900	3.724000	-11.193000	24.116594	0.001023	20.715110
581.166582	-2.993500	3.725200	-11.150000	24.124011	0.001022	20.751949
582.165112	-3.007300	3.724100	-11.198000	24.149532	0.001020	20.728706
583.169738	-3.007700	3.723400	-11.198000	24.151007	0.001022	20.733031
584.166058	-3.006900	3.723500	-11.195000	24.154202	0.001021	20.736710
585.165298	-3.010500	3.721800	-11.203000	24.156061	0.001022	20.757541
586.170365	-3.007700	3.723100	-11.196000	24.175419	0.001020	20.725273
587.166555	-3.014600	3.721200	-11.216000	24.158954	0.001022	20.731045
588.166078	-3.014200	3.721100	-11.216000	24.164798	0.001020	20.744019
589.165154	-3.013800	3.722000	-11.217000	24.165426	0.001023	20.738010
590.165825	-3.020000	3.721300	-11.237000	24.172916	0.001021	20.741730
591.166440	-3.006900	3.721700	-11.190000	24.191027	0.001021	20.736187
592.168274	-3.004000	3.720700	-11.176000	24.178125	0.001022	20.748851
593.166200	-3.005900	3.720900	-11.184000	24.169289	0.001020	20.733350
594.168989	-3.000600	3.720600	-11.163000	24.185941	0.001020	20.749578
595.183788	-3.002600	3.721000	-11.172000	24.204214	0.001020	20.737560
596.167498	-3.005300	3.720100	-11.179000	24.208697	0.001022	20.731625
597.171065	-3.005000	3.719200	-11.175000	24.182722	0.001020	20.733072
598.166633	-3.016500	3.719100	-11.218000	24.164269	0.001019	20.759610
599.170711	-2.999900	3.719800	-11.158000	24.138259	0.001019	20.742057
600.168236	-3.000600	3.719300	-11.159000	24.148065	0.001019	20.759953
601.167370	-2.991700	3.718400	-11.123000	24.133206	0.001021	20.740307
602.168791	-2.991800	3.719200	-11.126000	24.133255	0.001020	20.751737
603.169580	-3.001100	3.718000	-11.156000	24.144479	0.001021	20.756356
604.168828	-2.993400	3.716700	-11.125000	24.160022	0.001018	20.749186
605.171025	-2.992400	3.716600	-11.120000	24.180073	0.001020	20.751279
606.170191	-3.020800	3.717100	-11.228000	24.161986	0.001020	20.740250
607.171885	-3.005700	3.716000	-11.167000	24.177440	0.001020	20.745319
608.172757	-3.008300	3.716400	-11.178000	24.195803	0.001019	20.749987
609.172319	-2.997100	3.715500	-11.135000	24.203228	0.001017	20.746529
610.176220	-3.011600	3.715200	-11.188000	24.222047	0.001018	20.745016
611.172246	-3.015800	3.715000	-11.201000	24.216766	0.001018	20.747305
612.171713	-2.986800	3.715800	-11.098000	24.237003	0.001019	20.740103
613.176414	-2.991800	3.714500	-11.112000	24.227549	0.001017	20.751483
614.173046	-3.009300	3.713200	-11.173000	24.269668	0.001018	20.764335
615.180988	-3.017600	3.714400	-11.208000	24.270752	0.001018	20.773957
616.176359	-3.001000	3.714300	-11.146000	24.247419	0.001018	20.758138
617.174689	-3.004200	3.714100	-11.156000	24.249407	0.001017	20.751598
618.178666	-3.005900	3.712000	-11.156000	24.264925	0.001019	20.760051
619.178423	-2.992400	3.713500	-11.112000	24.292382	0.001019	20.771946
620.178255	-2.997600	3.711700	-11.124000	24.294786	0.001018	20.759184
621.175811	-3.024700	3.711700	-11.225000	24.287003	0.001016	20.781249
622.174697	-2.986900	3.712700	-11.088000	24.287402	0.001017	20.778805
623.177581	-2.980200	3.711800	-11.060000	24.279513	0.001017	20.772314
624.180669	-3.019600	3.709600	-11.200000	24.259244	0.001018	20.777113
625.178601	-3.003000	3.710300	-11.141000	24.263075	0.001017	20.752979
626.180351	-3.003100	3.711200	-11.143000	24.245935	0.001015	20.760917
627.177534	-3.000800	3.710000	-11.132000	24.249090	0.001015	20.758865
628.177711	-3.005600	3.710600	-11.151000	24.209463	0.001017	20.779810
629.181082	-2.997000	3.710500	-11.120000	24.202071	0.001016	20.751058
630.176952	-2.999700	3.709500	-11.126000	24.216880	0.001015	20.778715
631.178330	-3.014100	3.707700	-11.174000	24.203318	0.001016	20.763689
632.177141	-2.991000	3.709900	-11.095000	24.217548	0.001014	20.787920
633.177517	-2.996400	3.709200	-11.113000	24.187693	0.001015	20.774570
634.188530	-2.991100	3.708000	-11.090000	24.228991	0.001014	20.774268
635.178749	-3.014400	3.706800	-11.173000	24.216530	0.001015	20.763190
636.180639	-3.012800	3.708000	-11.170000	24.239994	0.001015	20.782933
637.181866	-3.008900	3.706200	-11.151000	24.270883	0.001014	20.776459
638.177917	-2.995400	3.707500	-11.105000	24.281152	0.001014	20.791501
639.180701	-3.020900	3.706100	-11.195000	24.285626	0.001015	20.759005
640.182357	-2.999600	3.706900	-11.118000	24.282692	0.001014	20.761277
641.179007	-2.989900	3.705500	-11.078000	24.264355	0.001014	20.775126
642.179641	-3.013500	3.705700	-11.166000	24.268788	0.001013	20.784315
643.179677	-2.998500	3.704400	-11.106000	24.255504	0.001015	20.777628
644.179654	-2.975100	3.705500	-11.023000	24.252912	0.001013	20.778347
645.183345	-3.013500	3.705100	-11.164000	24.279326	0.001014	20.767384
646.180538	-2.987500	3.705000	-11.067000	24.295772	0.001014	20.781037
647.183972	-3.016500	3.704000	-11.172000	24.307769	0.001013	20.787381
648.180568	-3.003400	3.703900	-11.122000	24.297736	0.001014	20.787749
649.181669	-3.004900	3.703400	-11.126000	24.288812	0.001014	20.793496
650.182264	-2.998900	3.703400	-11.106000	24.266743	0.001012	20.797910
651.182452	-2.966100	3.704300	-10.986000	24.264827	0.001014	20.786506
652.182154	-2.991400	3.703900	-11.078000	24.278984	0.001013	20.802603
653.182566	-2.990900	3.703300	-11.075000	24.236538	0.001013	20.763346
654.182879	-2.990000	3.704100	-11.074000	24.235414	0.001014	20.796831
655.183096	-3.007600	3.701300	-11.131000	24.234688	0.001013	20.788043
656.185187	-3.008300	3.701900	-11.135000	24.248055	0.001011	20.779639
657.184767	-3.000300	3.700700	-11.102000	24.267378	0.001013	20.786694
658.184679	-3.003700	3.700800	-11.115000	24.299578	0.001012	20.804769
659.190324	-2.992500	3.700200	-11.071000	24.321517	0.001011	20.788844
660.185156	-3.004300	3.700200	-11.115000	24.312723	0.001011	20.798515
661.186676	-2.996200	3.700100	-11.085000	24.303270	0.001012	20.793299
662.185724	-3.037000	3.698700	-11.232000	24.329617	0.001014	20.788909
663.186274	-2.974500	3.701100	-11.007000	24.343072	0.001010	20.791027
664.186538	-3.011500	3.699300	-11.139000	24.364423	0.001012	20.805333
665.185628	-3.006000	3.697600	-11.114000	24.326879	0.001010	20.790430
666.189236	-2.990300	3.699100	-11.059000	24.380860	0.001011	20.791950
667.189612	-2.989600	3.699500	-11.060000	24.375954	0.001009	20.810263
668.187737	-3.007900	3.696900	-11.118000	24.396726	0.001009	20.795065
669.188508	-2.991100	3.698400	-11.061000	24.391527	0.001010	20.812609
670.188119	-3.013200	3.696800	-11.136000	24.433771	0.001010	20.785762
671.187536	-3.022500	3.696600	-11.172000	24.439255	0.001012	20.795531
672.188155	-2.989100	3.696500	-11.048000	24.455878	0.001010	20.817424
673.187865	-2.995600	3.696600	-11.071000	24.476673	0.001009	20.810312
674.193557	-3.003600	3.696400	-11.102000	24.487787	0.001009	20.808660
675.188756	-2.995400	3.695600	-11.069000	24.495373	0.001010	20.817694
676.188259	-2.981700	3.697000	-11.022000	24.508850	0.001010	20.809404
677.189462	-2.995100	3.696000	-11.069000	24.493654	0.001009	20.815020
678.190015	-3.008800	3.695200	-11.117000	24.504972	0.001009	20.836332
679.190338	-2.972000	3.696500	-10.983000	24.496253	0.001009	20.816206
680.194224	-2.997700	3.694700	-11.075000	24.514293	0.001009	20.836201
681.189684	-3.010700	3.694300	-11.121000	24.525358	0.001009	20.811268
682.190466	-2.997600	3.693800	-11.071000	24.532862	0.001009	20.815952
683.194543	-3.008200	3.694800	-11.112000	24.526246	0.001007	20.829702
684.190242	-2.993900	3.693800	-11.058000	24.562252	0.001009	20.820309
685.191354	-2.990900	3.692400	-11.043000	24.552156	0.001008	20.822983
686.190290	-3.025200	3.692100	-11.166000	24.551154	0.001009	20.806330
687.190456	-2.993300	3.692100	-11.051000	24.589758	0.001007	20.826097
688.194270	-3.011400	3.691700	-11.116000	24.571882	0.001007	20.796308
689.190822	-3.006300	3.691600	-11.098000	24.525358	0.001009	20.814113
690.193406	-3.000200	3.691900	-11.076000	24.502413	0.001007	20.829972
691.191065	-3.026300	3.690400	-11.168000	24.477251	0.001005	20.798090
692.190980	-2.976000	3.691200	-10.984000	24.488642	0.001007	20.802880
693.193761	-2.970200	3.692800	-10.966000	24.472443	0.001007	20.803698
694.190569	-3.012900	3.691300	-11.121000	24.464808	0.001007	20.804098
695.191598	-3.000300	3.689900	-11.070000	24.444763	0.001009	20.816230
696.193829	-2.986400	3.690700	-11.021000	24.431326	0.001008	20.809388
697.191308	-2.968700	3.690600	-10.955000	24.446222	0.001007	20.795882
698.191134	-3.002100	3.688600	-11.072000	24.445480	0.001007	20.811260
699.192720	-2.968900	3.691300	-10.959000	24.430169	0.001006	20.801115
700.192980	-2.969000	3.690300	-10.954000	24.414205	0.001008	20.785574
701.195900	-3.019000	3.689000	-11.136000	24.409544	0.001006	20.792751
702.192769	-3.002100	3.688600	-11.072000	24.420570	0.001006	20.809502
703.193001	-2.966000	3.689000	-10.940000	24.446181	0.001005	20.783514
704.198829	-3.012100	3.688300	-11.108000	24.472729	0.001006	20.807303
705.194910	-2.991300	3.688000	-11.031000	24.480983	0.001004	20.820800
706.195570	-2.986900	3.688500	-11.016000	24.468671	0.001005	20.792800
707.196321	-3.016400	3.686800	-11.120000	24.485163	0.001004	20.783742
708.197743	-2.995300	3.687500	-11.044000	24.496872	0.001004	20.800232
709.198752	-3.003300	3.686700	-11.071000	24.514733	0.001005	20.784486
710.200961	-2.991400	3.687000	-11.028000	24.538916	0.001006	20.800215
711.200542	-2.989700	3.685900	-11.019000	24.550796	0.001004	20.787004
712.199618	-3.020600	3.685200	-11.130000	24.579728	0.001006	20.778102
713.199956	-3.006800	3.685300	-11.080000	24.563938	0.001003	20.795923
714.201492	-2.987900	3.685400	-11.009000	24.577365	0.001004	20.777153
715.203942	-3.001900	3.684800	-11.060000	24.599225	0.001004	20.798613
716.202218	-3.003100	3.683500	-11.061000	24.602427	0.001002	20.787127
717.203961	-3.015400	3.683500	-11.106000	24.625305	0.001003	20.783530
718.203887	-2.992800	3.684200	-11.024000	24.632971	0.001004	20.776524
719.202593	-2.985000	3.682900	-10.991000	24.633941	0.001003	20.775126
720.201433	-2.988500	3.683400	-11.006000	24.635994	0.001002	20.777186
721.204555	-2.983500	3.684600	-10.991000	24.648036	0.001001	20.791165
722.203847	-3.007700	3.681700	-11.072000	24.636744	0.001002	20.776516
723.204076	-3.006400	3.683000	-11.070000	24.622698	0.001002	20.775224
724.203019	-3.012700	3.681400	-11.089000	24.618217	0.001002	20.784478
725.203619	-2.984500	3.683600	-10.993000	24.557803	0.001004	20.792138
726.205207	-2.988500	3.681700	-11.002000	24.553770	0.001002	20.801842
727.202952	-2.996900	3.682600	-11.035000	24.543894	0.001002	20.763484
728.204715	-3.009700	3.680600	-11.077000	24.541312	0.000999	20.771324
729.205152	-2.996800	3.681300	-11.031000	24.583289	0.000998	20.767923
730.205813	-2.988000	3.680900	-10.998000	24.586303	0.000999	20.779483
731.207784	-2.977500	3.681400	-10.960000	24.592740	0.000999	20.773613
732.206587	-3.008700	3.678700	-11.067000	24.586466	0.001001	20.772534
733.209588	-2.976800	3.679900	-10.953000	24.594663	0.000999	20.768430
734.207649	-2.997100	3.679500	-11.026000	24.603014	0.000999	20.786293
735.207664	-2.990300	3.679200	-11.001000	24.634699	0.000998	20.781576
736.212024	-2.985700	3.678400	-10.981000	24.636108	0.000998	20.786784
737.212075	-2.971900	3.679600	-10.934000	24.658912	0.000996	20.772681
738.208479	-2.990800	3.679500	-11.004000	24.672428	0.000997	20.774390
739.207728	-3.007500	3.677500	-11.059000	24.684216	0.000997	20.772469
740.207322	-2.999900	3.677600	-11.031000	24.692200	0.000995	20.773368
741.206740	-2.993600	3.677500	-11.008000	24.706441	0.000997	20.780546
742.211057	-3.009800	3.676800	-11.065000	24.692942	0.000995	20.778854
743.208309	-2.991200	3.678100	-11.001000	24.676917	0.000996	20.783636
744.211757	-3.019900	3.676300	-11.100000	24.695785	0.000995	20.790716
745.207534	-3.016200	3.674900	-11.083000	24.684721	0.000993	20.769657
746.207650	-3.007800	3.674800	-11.052000	24.692005	0.000996	20.777914
747.217379	-3.008300	3.674100	-11.052000	24.699410	0.000995	20.776336
748.209288	-3.014700	3.674800	-11.078000	24.704257	0.000994	20.764605
749.211999	-2.987700	3.676700	-10.984000	24.723573	0.000995	20.767392
750.211590	-2.994000	3.675800	-11.004000	24.715174	0.000992	20.765602
751.212393	-3.012500	3.673700	-11.065000	24.752868	0.000992	20.777350
752.211793	-2.999300	3.674100	-11.018000	24.720616	0.000992	20.776753
753.213237	-3.003700	3.674500	-11.036000	24.730986	0.000991	20.775780
754.210431	-3.012200	3.674400	-11.066000	24.710767	0.000993	20.764972
755.211215	-3.008800	3.673000	-11.050000	24.680502	0.000993	20.766370
756.212613	-3.006000	3.673500	-11.041000	24.666774	0.000992	20.776303
757.213823	-2.961800	3.674600	-10.881000	24.624792	0.000989	20.771635
758.213177	-3.003300	3.673100	-11.030000	24.608294	0.000991	20.736588
759.212994	-3.015300	3.671200	-11.068000	24.637322	0.000992	20.765242
760.211748	-3.001600	3.671400	-11.019000	24.650122	0.000992	20.766706
761.211961	-3.006600	3.670600	-11.035000	24.675524	0.000990	20.791248
762.214926	-2.964700	3.672300	-10.886000	24.695296	0.000989	20.763673
763.212076	-3.013300	3.670400	-11.060000	24.730783	0.000990	20.758506
764.212773	-2.998500	3.670900	-11.005000	24.719842	0.000988	20.768864
765.212598	-2.973300	3.672100	-10.917000	24.734310	0.000989	20.755882
766.213123	-2.996400	3.670300	-10.996000	24.751499	0.000990	20.752268
767.213748	-2.977000	3.670900	-10.927000	24.743320	0.000989	20.756388
768.216916	-3.008700	3.668700	-11.037000	24.753316	0.000990	20.755039
769.215284	-2.974900	3.669700	-10.915000	24.727182	0.000987	20.761056
770.217208	-2.951800	3.670100	-10.832000	24.689976	0.000989	20.718503
771.215148	-3.006600	3.668200	-11.028000	24.680559	0.000988	20.752203
772.215795	-3.001700	3.669000	-11.012000	24.697610	0.000987	20.771210
773.219405	-3.017100	3.667800	-11.065000	24.709626	0.000987	20.730636
774.214994	-2.996300	3.667800	-10.989000	24.729919	0.000986	20.737250
775.225359	-3.003600	3.666900	-11.012000	24.728184	0.000988	20.748311
776.216703	-3.015100	3.666700	-11.055000	24.719304	0.000987	20.755522
777.218320	-2.979800	3.668000	-10.928000	24.726636	0.000985	20.736800
778.218004	-2.979700	3.667200	-10.927000	24.722359	0.000984	20.746259
779.226208	-2.989200	3.666600	-10.960000	24.727703	0.000984	20.768218
780.217737	-2.991300	3.666900	-10.967000	24.733471	0.000985	20.737969
781.217581	-3.001600	3.665300	-11.000000	24.769453	0.000984	20.764122
782.218300	-2.992400	3.666200	-10.970000	24.815633	0.000984	20.745507
783.217966	-3.000700	3.664900	-10.996000	24.794095	0.000982	20.761825
784.222639	-2.993200	3.665600	-10.969000	24.814656	0.000986	20.744052
785.217777	-2.995800	3.665400	-10.980000	24.812024	0.000983	20.746153
786.221892	-3.005600	3.664400	-11.012000	24.841537	0.000984	20.748744
787.218799	-3.003800	3.665000	-11.008000	24.848077	0.000984	20.742981
788.218697	-3.001400	3.663300	-10.994000	24.823860	0.000981	20.757557
789.220576	-3.002000	3.663500	-10.997000	24.820496	0.000982	20.750388
790.218031	-3.019600	3.663900	-11.062000	24.818264	0.000982	20.738664
791.219217	-3.006300	3.662900	-11.011000	24.797753	0.000980	20.759332
792.218046	-2.984900	3.665500	-10.940000	24.808929	0.000982	20.731666
793.219059	-3.017200	3.662100	-11.048000	24.787921	0.000980	20.727652
794.218648	-3.011800	3.661800	-11.026000	24.778797	0.000981	20.748843
795.221665	-3.005200	3.662200	-11.005000	24.769250	0.000981	20.729303
796.219023	-2.996700	3.662100	-10.973000	24.773722	0.000979	20.746120
797.219024	-2.989000	3.662700	-10.947000	24.791024	0.000979	20.744992
798.218320	-2.980000	3.660900	-10.907000	24.787025	0.000981	20.738133
799.218858	-3.003800	3.661900	-10.998000	24.773201	0.000979	20.749865
800.222812	-3.003000	3.661100	-10.994000	24.790951	0.000977	20.745393
801.218654	-3.005900	3.660100	-11.001000	24.793493	0.000979	20.728976
802.222031	-2.983700	3.661000	-10.922000	24.819128	0.000979	20.714873
803.218725	-2.986800	3.661000	-10.934000	24.801085	0.000977	20.738967
804.219730	-3.021400	3.658200	-11.050000	24.803292	0.000977	20.733595
805.220670	-3.012000	3.659300	-11.021000	24.758163	0.000978	20.728134
806.227600	-2.986600	3.659100	-10.926000	24.757584	0.000976	20.728976
807.222246	-2.987600	3.660400	-10.934000	24.759279	0.000977	20.729728
808.221661	-3.009400	3.658800	-11.009000	24.742237	0.000977	20.738705
809.220768	-2.992200	3.658200	-10.943000	24.735956	0.000976	20.735247
810.221838	-3.015600	3.657300	-11.028000	24.723101	0.000976	20.737045
811.224597	-3.008200	3.656600	-10.999000	24.771270	0.000976	20.737495
812.222897	-2.998300	3.658700	-10.969000	24.783098	0.000976	20.742727
813.226161	-3.002900	3.657000	-10.981000	24.775799	0.000974	20.736350
814.222742	-2.995300	3.657000	-10.953000	24.770643	0.000976	20.714105
815.223388	-3.010900	3.656400	-11.009000	24.790047	0.000976	20.748278
816.225618	-2.988000	3.656400	-10.924000	24.804164	0.000973	20.729254
817.225944	-3.010600	3.655500	-11.005000	24.780019	0.000975	20.711660
818.225576	-3.025900	3.656300	-11.063000	24.756330	0.000977	20.726295
819.225668	-3.000700	3.656100	-10.970000	24.744355	0.000974	20.736089
820.227829	-3.009300	3.656700	-11.003000	24.750179	0.000974	20.714906
821.226928	-2.994100	3.654800	-10.940000	24.779196	0.000974	20.716051
822.234957	-3.013600	3.655000	-11.015000	24.796238	0.000975	20.708970
823.226492	-2.993300	3.654100	-10.936000	24.813670	0.000976	20.736898
824.228209	-3.016500	3.654400	-11.022000	24.821156	0.000973	20.729712
825.226366	-2.991100	3.654100	-10.928000	24.848257	0.000973	20.741264
826.227485	-2.989700	3.654000	-10.923000	24.827746	0.000974	20.726368
827.233155	-3.027300	3.652000	-11.054000	24.847271	0.000973	20.718936
828.227538	-3.006000	3.652900	-10.979000	24.851222	0.000973	20.728118
829.227336	-3.011600	3.652300	-10.999000	24.811519	0.000972	20.702021
830.228395	-3.006000	3.652500	-10.979000	24.823420	0.000973	20.728191
831.228270	-3.010900	3.651200	-10.991000	24.851678	0.000972	20.719566
832.230868	-3.014300	3.650500	-11.003000	24.848102	0.000970	20.705071
833.227898	-3.015200	3.650500	-11.005000	24.860532	0.000970	20.720392
834.231653	-3.028300	3.650900	-11.055000	24.842058	0.000968	20.704694
835.231586	-2.986000	3.651900	-10.905000	24.834295	0.000970	20.713500
836.228477	-3.007000	3.649600	-10.973000	24.829326	0.000968	20.713729
837.231025	-2.974700	3.650900	-10.859000	24.802575	0.000968	20.694941
838.229161	-2.989400	3.651000	-10.913000	24.816529	0.000968	20.700885
839.234827	-3.021700	3.647900	-11.022000	24.832812	0.000968	20.727186
840.230300	-3.010700	3.650100	-10.989000	24.851083	0.000968	20.733195
841.232338	-3.011700	3.648500	-10.987000	24.820398	0.000967	20.726581
842.233135	-2.979500	3.649100	-10.871000	24.835044	0.000966	20.707139
843.230729	-2.998300	3.649000	-10.940000	24.842498	0.000967	20.727423
844.236181	-2.991100	3.648700	-10.913000	24.842897	0.000968	20.692259
845.232248	-2.985000	3.649000	-10.891000	24.853063	0.000967	20.673536
846.232998	-3.005300	3.646600	-10.958000	24.881140	0.000966	20.698399
847.234259	-2.988100	3.647300	-10.898000	24.850260	0.000966	20.722885
848.236702	-3.003400	3.647100	-10.952000	24.847336	0.000964	20.703354
849.233045	-2.969000	3.648500	-10.831000	24.836975	0.000967	20.722354
850.234155	-2.996500	3.648200	-10.929000	24.845756	0.000965	20.676635
851.233620	-3.029000	3.646600	-11.044000	24.823852	0.000964	20.712028
852.235637	-3.004900	3.645400	-10.954000	24.822427	0.000963	20.700639
853.235137	-2.986000	3.645800	-10.885000	24.813328	0.000964	20.692455
854.234465	-3.005300	3.646500	-10.958000	24.817352	0.000963	20.717359
855.235818	-2.984200	3.645300	-10.877000	24.795276	0.000965	20.695202
856.239830	-2.994100	3.645900	-10.915000	24.804050	0.000961	20.700214
857.236991	-3.002000	3.645100	-10.942000	24.817042	0.000962	20.685277
858.238161	-2.978700	3.645700	-10.858000	24.846530	0.000962	20.706338
859.236731	-3.003700	3.644500	-10.946000	24.863880	0.000961	20.726597
860.239999	-2.985300	3.644400	-10.878000	24.858235	0.000963	20.714767
861.237571	-3.013500	3.642300	-10.975000	24.885416	0.000962	20.698898
862.237480	-2.988500	3.644900	-10.891000	24.879747	0.000962	20.696527
863.239249	-3.012700	3.642200	-10.972000	24.923071	0.000960	20.721520
864.239364	-3.003200	3.642300	-10.937000	24.931770	0.000962	20.707016
865.237601	-2.988900	3.643200	-10.888000	24.940599	0.000959	20.698334
866.238527	-2.994800	3.641800	-10.906000	24.970425	0.000961	20.694606
867.239742	-2.999200	3.642500	-10.922000	24.983131	0.000960	20.679382
868.239294	-2.987900	3.640900	-10.877000	25.002108	0.000959	20.696061
869.240655	-2.999400	3.641100	-10.920000	24.988409	0.000961	20.695587
870.239685	-3.003200	3.641100	-10.934000	24.981421	0.000957	20.690943
871.241682	-3.006500	3.640300	-10.943000	24.981022	0.000957	20.680584
872.239491	-3.014000	3.639600	-10.967000	24.954226	0.000958	20.681663
873.244981	-3.018000	3.639800	-10.983000	24.958917	0.000958	20.694434
874.244404	-3.003600	3.640000	-10.932000	24.946512	0.000959	20.678663
875.241830	-3.012600	3.639000	-10.962000	24.962900	0.000956	20.686103
876.239893	-2.993100	3.639700	-10.892000	24.959764	0.000957	20.692439
877.239756	-2.997800	3.640500	-10.912000	24.928317	0.000956	20.681737
878.240106	-3.008400	3.638400	-10.944000	24.903442	0.000958	20.692807
879.239800	-3.015900	3.638200	-10.970000	24.930622	0.000955	20.701122
880.240241	-3.005000	3.637900	-10.932000	24.942155	0.000954	20.687566
881.240088	-2.996000	3.637700	-10.898000	24.954902	0.000957	20.673806
882.244576	-2.992600	3.639200	-10.889000	25.004005	0.000953	20.703182
883.239616	-2.993300	3.637900	-10.887000	24.992196	0.000954	20.675204
884.240148	-3.006300	3.638300	-10.936000	24.983270	0.000953	20.694696
885.240559	-2.966800	3.636800	-10.788000	24.931477	0.000952	20.697238
886.240470	-2.999500	3.637200	-10.909000	24.939459	0.000954	20.674428
887.240687	-2.973800	3.637900	-10.816000	24.922078	0.000953	20.704874
888.239033	-2.992900	3.636200	-10.882000	24.911180	0.000951	20.693935
889.239934	-2.981600	3.634200	-10.834000	24.920734	0.000953	20.682187
890.240822	-3.018500	3.635700	-10.973000	24.955879	0.000951	20.677633
891.243352	-3.014200	3.634900	-10.955000	24.970271	0.000951	20.684967
892.242749	-2.990800	3.635400	-10.872000	25.000512	0.000953	20.674542
893.242652	-3.002200	3.634800	-10.911000	24.997702	0.000950	20.684051
894.241926	-2.989100	3.634800	-10.863000	25.020889	0.000950	20.686937
895.248844	-3.028300	3.634000	-11.004000	25.023454	0.000949	20.689038
896.244172	-3.001900	3.634600	-10.910000	25.065673	0.000948	20.674044
897.247853	-2.972700	3.633700	-10.801000	25.069143	0.000949	20.685114
898.243682	-2.992500	3.633600	-10.872000	25.068646	0.000947	20.704531
899.244031	-3.008700	3.632800	-10.929000	25.064941	0.000949	20.681843
900.243042	-3.012900	3.633600	-10.947000	25.072596	0.000948	20.680993
901.244284	-3.004100	3.634000	-10.916000	25.091441	0.000948	20.695170
902.243511	-3.024300	3.632500	-10.985000	25.078044	0.000948	20.708276
903.240791	-2.983800	3.631500	-10.834000	25.087214	0.000948	20.680969
904.242610	-2.987200	3.632600	-10.850000	25.097524	0.000946	20.684681
905.244137	-3.006300	3.632100	-10.918000	25.107052	0.000944	20.668639
906.246614	-3.035100	3.631100	-11.020000	25.106401	0.000947	20.698334
907.246931	-3.016400	3.631400	-10.952000	25.058621	0.000946	20.695890
908.244518	-3.012300	3.629600	-10.933000	25.068345	0.000944	20.687632
909.246636	-3.003300	3.632000	-10.906000	25.083378	0.000946	20.678540
910.247722	-2.995700	3.631300	-10.877000	25.093566	0.000943	20.681181
911.247279	-2.992000	3.631300	-10.863000	25.069770	0.000944	20.688114
912.248905	-2.997000	3.631000	-10.881000	25.047284	0.000944	20.693519
913.247836	-2.985400	3.630200	-10.837000	25.025898	0.000943	20.692439
914.247575	-3.008500	3.628700	-10.916000	24.978139	0.000941	20.681484
915.246981	-2.997500	3.628900	-10.876000	24.939557	0.000943	20.682587
916.247058	-2.981200	3.629800	-10.820000	24.936869	0.000943	20.680364
917.249622	-3.014700	3.627300	-10.934000	24.935753	0.000941	20.693944
918.247134	-3.010100	3.628800	-10.921000	24.900795	0.000944	20.678295
919.250665	-2.991800	3.628100	-10.853000	24.881507	0.000941	20.687861
920.247714	-2.996900	3.627600	-10.870000	24.870633	0.000940	20.692595
921.248972	-3.025100	3.626100	-10.968000	24.874045	0.000941	20.682269
922.250050	-3.001000	3.625600	-10.880000	24.865493	0.000940	20.677477
923.248981	-2.993100	3.625500	-10.850000	24.904207	0.000940	20.688834
924.249393	-3.012300	3.625300	-10.920000	24.885384	0.000941	20.674207
925.251016	-2.996200	3.624400	-10.858000	24.857494	0.000940	20.687468
926.250050	-3.008300	3.625200	-10.904000	24.895093	0.000939	20.694859
927.249482	-2.998300	3.625400	-10.869000	24.884349	0.000937	20.697827
928.252100	-3.005700	3.624500	-10.893000	24.860133	0.000938	20.691066
929.251538	-3.026000	3.624200	-10.965000	24.872294	0.000939	20.672923
930.257804	-2.997500	3.625400	-10.866000	24.921890	0.000939	20.681451
931.253623	-3.034800	3.622100	-10.991000	24.934401	0.000937	20.698751
932.253199	-3.020800	3.623100	-10.944000	24.949241	0.000938	20.684721
933.256737	-3.001500	3.623100	-10.873000	25.005618	0.000936	20.691523
934.252924	-3.004100	3.623200	-10.884000	25.027070	0.000938	20.708791
935.252897	-3.033800	3.621800	-10.987000	25.067620	0.000936	20.704923
936.255505	-3.008200	3.623000	-10.897000	25.081587	0.000935	20.691442
937.255540	-2.993800	3.621700	-10.842000	25.131898	0.000934	20.707335
938.257195	-3.010100	3.621200	-10.899000	25.149276	0.000935	20.700599
939.259112	-3.009700	3.621900	-10.900000	25.146939	0.000935	20.713426
940.258073	-2.978300	3.621400	-10.784000	25.138160	0.000933	20.674264
941.257681	-3.002300	3.621300	-10.871000	25.116605	0.000931	20.692930
942.258121	-3.027300	3.620100	-10.958000	25.121132	0.000933	20.702217
943.262214	-2.991900	3.621500	-10.833000	25.085976	0.000933	20.691581
944.262352	-2.988400	3.621600	-10.822000	25.097434	0.000933	20.689807
945.259166	-2.987300	3.619900	-10.813000	25.098005	0.000932	20.685637
946.259850	-3.006100	3.619300	-10.879000	25.102997	0.000930	20.696339
947.258493	-2.989500	3.620300	-10.820000	25.125514	0.000930	20.687174
948.258139	-2.989900	3.619900	-10.822000	25.147941	0.000931	20.701629
949.262863	-3.012800	3.618100	-10.899000	25.142639	0.000930	20.678761
950.258938	-3.010200	3.619300	-10.893000	25.157558	0.000930	20.681884
951.260879	-2.988900	3.618700	-10.813000	25.177094	0.000932	20.700550
952.260499	-2.994500	3.618700	-10.835000	25.179154	0.000930	20.697402
953.258974	-3.002600	3.616900	-10.859000	25.201767	0.000929	20.706355
954.262519	-3.012300	3.616900	-10.893000	25.198567	0.000928	20.697925
955.271716	-3.002600	3.616300	-10.857000	25.176809	0.000929	20.697893
956.262850	-3.010400	3.615500	-10.883000	25.219437	0.000927	20.689480
957.259768	-3.000400	3.616100	-10.848000	25.209943	0.000928	20.694647
958.261406	-3.009700	3.615200	-10.880000	25.187403	0.000927	20.695726
959.264812	-2.992500	3.615800	-10.819000	25.181483	0.000928	20.698318
960.265773	-2.989500	3.616100	-10.810000	25.203624	0.000927	20.694941
961.262755	-2.979600	3.615900	-10.773000	25.227360	0.000926	20.714980
962.261388	-2.994600	3.615400	-10.825000	25.234298	0.000927	20.711039
963.263311	-2.975400	3.615800	-10.757000	25.200513	0.000925	20.716002
964.260445	-2.995200	3.615500	-10.829000	25.195171	0.000924	20.718226
965.264189	-2.975900	3.614400	-10.755000	25.174162	0.000924	20.696658
966.261664	-2.999400	3.614700	-10.841000	25.194772	0.000924	20.682261
967.266420	-3.015300	3.613100	-10.894000	25.187313	0.000923	20.716975
968.261989	-3.009600	3.614400	-10.877000	25.173739	0.000923	20.709985
969.263474	-3.008900	3.612100	-10.866000	25.152265	0.000925	20.704548
970.269707	-3.005400	3.613100	-10.858000	25.156011	0.000920	20.715896
971.264581	-3.004300	3.612500	-10.852000	25.147623	0.000922	20.706052
972.264004	-2.994700	3.612000	-10.814000	25.128055	0.000921	20.693045
973.264905	-3.008500	3.610700	-10.861000	25.139871	0.000924	20.713443
974.265589	-2.987200	3.610400	-10.784000	25.119854	0.000923	20.718953
975.267321	-3.024600	3.609900	-10.917000	25.108893	0.000920	20.715062
976.271600	-3.013400	3.609500	-10.876000	25.115506	0.000919	20.683765
977.266466	-3.023300	3.610700	-10.915000	25.139447	0.000919	20.708276
978.267644	-3.002900	3.609800	-10.839000	25.168038	0.000919	20.705684
979.267532	-3.008300	3.609100	-10.855000	25.193013	0.000917	20.714162
980.270348	-3.007200	3.609400	-10.853000	25.231896	0.000918	20.710998
981.271184	-2.993800	3.610400	-10.807000	25.233516	0.000917	20.709780
982.268265	-2.992000	3.608900	-10.797000	25.201474	0.000918	20.726924
983.267689	-2.999000	3.608500	-10.821000	25.217581	0.000915	20.723180
984.267129	-2.997600	3.607200	-10.812000	25.229795	0.000915	20.711260
985.269494	-2.999100	3.607700	-10.819000	25.224575	0.000916	20.702700
986.271170	-2.980900	3.608200	-10.755000	25.199153	0.000916	20.697566
987.269100	-2.994300	3.608100	-10.802000	25.199918	0.000916	20.717776
988.269539	-3.010700	3.605200	-10.853000	25.179536	0.000915	20.709167
989.269413	-3.018900	3.606600	-10.886000	25.211253	0.000914	20.722518
990.269094	-2.984800	3.606500	-10.764000	25.192614	0.000915	20.702381
991.270777	-2.988500	3.606600	-10.777000	25.187867	0.000913	20.720850
992.269274	-3.007600	3.605600	-10.842000	25.183893	0.000914	20.724921
993.272488	-2.997200	3.606400	-10.808000	25.169455	0.000911	20.720384
994.268260	-2.999200	3.604800	-10.811000	25.126597	0.000911	20.731413
995.270556	-2.983800	3.605700	-10.758000	25.132664	0.000911	20.720433
996.269504	-2.994000	3.604500	-10.790000	25.174129	0.000910	20.751156
997.271064	-3.001200	3.603600	-10.813000	25.198371	0.000912	20.722387
998.272955	-3.003900	3.604600	-10.827000	25.220219	0.000911	20.728674
999.270894	-3.007600	3.603900	-10.837000	25.238491	0.000912	20.727578
1000.271408	-2.987600	3.603800	-10.766000	25.240103	0.000911	20.710230
1001.271034	-2.982200	3.604200	-10.748000	25.239167	0.000909	20.712609
1002.273450	-2.961000	3.604300	-10.670000	25.266029	0.000910	20.709232
1003.270861	-2.996500	3.603600	-10.797000	25.286995	0.000909	20.715110
1004.272981	-2.979200	3.602800	-10.732000	25.282745	0.000910	20.711791
1005.270261	-2.999200	3.602100	-10.803000	25.264115	0.000906	20.690240
1006.271188	-2.991000	3.601700	-10.771000	25.269693	0.000908	20.706272
1007.274321	-3.004900	3.602500	-10.825000	25.234322	0.000907	20.710115
1008.274081	-2.981200	3.603000	-10.739000	25.222466	0.000906	20.727137
1009.272665	-3.004500	3.600000	-10.814000	25.221049	0.000905	20.714334
1010.271708	-2.998600	3.601600	-10.798000	25.257121	0.000905	20.711194
1011.271121	-3.012300	3.599000	-10.839000	25.273748	0.000904	20.722199
1012.272385	-3.006700	3.600100	-10.824000	25.231863	0.000904	20.728984
1013.277327	-2.997600	3.601100	-10.794000	25.247651	0.000906	20.727766
1014.273932	-2.991800	3.600500	-10.772000	25.260476	0.000905	20.723098
1015.278354	-2.997500	3.599800	-10.790000	25.259922	0.000903	20.721594
1016.275801	-2.965600	3.599500	-10.674000	25.268700	0.000903	20.719975
1017.275626	-2.987400	3.598800	-10.750000	25.299005	0.000902	20.734756
1018.280609	-2.992400	3.599200	-10.768000	25.307107	0.000905	20.723449
1019.277279	-2.993300	3.597500	-10.767000	25.331313	0.000901	20.731633
1020.276246	-3.001100	3.597400	-10.795000	25.307954	0.000903	20.711022
1021.277174	-2.998600	3.598000	-10.788000	25.279643	0.000902	20.710099
1022.277016	-2.996500	3.595700	-10.774000	25.298737	0.000902	20.725951
1023.277220	-2.999700	3.595600	-10.785000	25.270776	0.000900	20.739604
1024.279741	-2.995500	3.597700	-10.775000	25.238393	0.000900	20.729851
1025.275794	-3.000500	3.595200	-10.787000	25.178877	0.000899	20.724153
1026.278117	-3.011600	3.594500	-10.824000	25.176670	0.000900	20.731895
1027.279555	-2.999300	3.596600	-10.787000	25.189764	0.000899	20.735557
1028.279588	-2.991600	3.596800	-10.758000	25.209429	0.000897	20.733015
1029.280818	-2.997100	3.594800	-10.773000	25.247586	0.000898	20.726278
1030.279130	-3.018200	3.593800	-10.846000	25.239631	0.000896	20.752431
1031.281187	-3.011700	3.594200	-10.824000	25.243336	0.000897	20.725330
1032.280730	-2.992700	3.594900	-10.758000	25.268887	0.000898	20.729646
1033.279092	-2.990000	3.592800	-10.742000	25.252537	0.000895	20.749268
1034.281238	-3.011600	3.592500	-10.819000	25.239337	0.000896	20.752137
1035.280771	-3.002700	3.593200	-10.789000	25.224127	0.000894	20.734020
1036.281302	-3.018600	3.591900	-10.841000	25.179552	0.000895	20.729099
1037.282608	-3.014800	3.591100	-10.824000	25.180122	0.000895	20.726352
1038.282409	-3.007800	3.590500	-10.799000	25.192948	0.000893	20.732590
1039.283671	-2.998600	3.591100	-10.767000	25.226236	0.000893	20.724757
1040.284495	-2.997900	3.591100	-10.763000	25.237245	0.000894	20.755252
1041.282928	-3.001300	3.591200	-10.776000	25.241064	0.000893	20.736800
1042.286736	-3.001800	3.589900	-10.775000	25.241438	0.000893	20.749031
1043.284295	-3.017900	3.588900	-10.829000	25.266908	0.000892	20.763223
1044.284525	-2.994700	3.591900	-10.755000	25.275303	0.000891	20.746995
1045.288769	-2.984700	3.589100	-10.711000	25.264433	0.000891	20.748884
1046.285205	-3.012400	3.587900	-10.808000	25.260631	0.000890	20.736530
1047.288405	-2.989100	3.589500	-10.728000	25.256356	0.000891	20.736032
1048.285890	-3.003300	3.587200	-10.774000	25.293884	0.000889	20.745736
1049.287689	-2.997400	3.587600	-10.752000	25.274147	0.000889	20.741092
1050.289216	-3.010800	3.588400	-10.804000	25.315151	0.000890	20.760926
1051.285698	-3.010200	3.587300	-10.798000	25.331973	0.000887	20.736563
1052.286518	-2.999000	3.585800	-10.752000	25.347728	0.000887	20.771349
1053.285279	-3.002400	3.587400	-10.769000	25.391570	0.000887	20.755154
1054.287601	-3.003800	3.586200	-10.772000	25.409311	0.000886	20.758269
1055.289432	-2.999800	3.586700	-10.757000	25.439108	0.000887	20.772543
1056.288568	-2.999800	3.587800	-10.762000	25.462342	0.000885	20.752726
1057.294716	-3.003300	3.585000	-10.765000	25.443406	0.000886	20.763109
1058.289895	-2.994100	3.584700	-10.732000	25.464255	0.000884	20.771717
1059.288215	-3.009200	3.585500	-10.789000	25.464076	0.000883	20.762054
1060.294207	-3.009400	3.585300	-10.789000	25.474423	0.000885	20.765807
1061.288295	-3.009800	3.584400	-10.787000	25.468749	0.000884	20.748728
1062.287528	-2.992300	3.583800	-10.723000	25.451922	0.000884	20.750797
1063.289486	-3.000000	3.584500	-10.752000	25.459428	0.000882	20.727039
1064.287880	-3.004200	3.583100	-10.763000	25.476198	0.000882	20.764270
1065.290004	-3.003800	3.583100	-10.761000	25.479674	0.000881	20.764442
1066.294117	-2.985400	3.582200	-10.694000	25.469034	0.000880	20.731944
1067.290318	-2.995400	3.582100	-10.729000	25.464296	0.000879	20.775078
1068.290790	-2.993600	3.582600	-10.724000	25.457898	0.000880	20.748737
1069.290787	-3.007700	3.581200	-10.770000	25.472071	0.000879	20.760125
1070.289656	-3.012100	3.581200	-10.785000	25.460861	0.000879	20.761196
1071.293941	-2.994200	3.582800	-10.726000	25.421441	0.000879	20.770925
1072.289862	-3.006900	3.580700	-10.766000	25.385579	0.000878	20.769052
1073.291211	-3.014600	3.580200	-10.792000	25.406437	0.000876	20.769608
1074.292953	-3.013800	3.581000	-10.791000	25.427287	0.000875	20.765414
1075.287929	-3.013500	3.578000	-10.780000	25.435461	0.000876	20.766510
1076.293359	-2.993600	3.580100	-10.716000	25.441648	0.000876	20.768930
1077.293833	-2.987600	3.579900	-10.694000	25.453892	0.000875	20.768423
1078.291125	-2.993500	3.579200	-10.714000	25.477232	0.000875	20.775266
1079.292942	-2.975000	3.580400	-10.651000	25.512726	0.000873	20.785305
1080.292632	-2.989700	3.578500	-10.697000	25.524228	0.000874	20.778838
1081.296172	-3.009900	3.577600	-10.767000	25.518644	0.000874	20.775601
1082.294562	-3.005700	3.577500	-10.751000	25.525791	0.000874	20.773295
1083.292805	-3.011300	3.579200	-10.777000	25.527615	0.000872	20.771333
1084.295733	-2.998800	3.578000	-10.729000	25.520109	0.000871	20.776124
1085.293705	-3.007900	3.577900	-10.761000	25.507703	0.000870	20.754656
1086.292222	-3.033800	3.576800	-10.850000	25.532239	0.000873	20.790676
1087.296218	-3.009100	3.575900	-10.759000	25.523545	0.000871	20.791902
1088.294103	-3.005100	3.577700	-10.749000	25.519645	0.000871	20.776132
1089.294155	-2.985100	3.576800	-10.676000	25.538254	0.000870	20.771113
1090.294794	-2.983600	3.576600	-10.670000	25.565614	0.000871	20.781994
1091.296957	-2.991700	3.576700	-10.700000	25.587991	0.000869	20.784552
1092.297394	-2.995600	3.574500	-10.706000	25.589896	0.000870	20.805432
1093.301585	-2.997100	3.575200	-10.714000	25.602651	0.000868	20.776990
1094.298851	-2.992000	3.574600	-10.694000	25.622260	0.000867	20.779615
1095.299053	-2.994500	3.573900	-10.701000	25.586632	0.000865	20.765643
1096.300754	-2.996600	3.574000	-10.708000	25.601975	0.000868	20.783898
1097.302614	-3.034700	3.572500	-10.840000	25.571222	0.000866	20.797583
1098.303449	-3.003700	3.572600	-10.730000	25.569936	0.000866	20.773058
1099.299119	-2.996400	3.574200	-10.709000	25.590588	0.000863	20.789057
1100.300493	-3.002200	3.571900	-10.722000	25.611182	0.000864	20.777971
1101.301613	-2.976400	3.573100	-10.634000	25.618841	0.000865	20.792302
1102.301996	-2.968700	3.571900	-10.603000	25.593941	0.000863	20.782468
1103.305570	-3.002800	3.571900	-10.724000	25.579029	0.000861	20.788354
1104.302791	-3.023200	3.569900	-10.791000	25.585866	0.000863	20.790479
1105.304085	-3.010900	3.570100	-10.748000	25.562838	0.000863	20.803862
1106.302801	-3.018700	3.569300	-10.773000	25.556472	0.000862	20.797943
1107.304389	-3.007400	3.570200	-10.736000	25.568870	0.000860	20.773410
1108.305513	-2.985800	3.569300	-10.656000	25.588504	0.000861	20.782222
1109.307126	-2.974500	3.570300	-10.619000	25.572655	0.000859	20.789065
1110.306302	-2.998100	3.569000	-10.699000	25.575309	0.000858	20.815912
1111.304652	-2.994200	3.569000	-10.685000	25.562813	0.000859	20.797199
1112.304976	-3.002000	3.568900	-10.713000	25.561869	0.000860	20.785345
1113.307037	-3.024900	3.566600	-10.787000	25.582846	0.000858	20.799774
1114.309799	-2.998000	3.568900	-10.699000	25.538759	0.000857	20.785370
1115.308094	-3.009300	3.566600	-10.732000	25.515501	0.000857	20.798998
1116.308463	-3.000400	3.566500	-10.700000	25.506359	0.000857	20.813525
1117.307253	-2.976500	3.567400	-10.616000	25.507548	0.000857	20.797175
1118.307999	-2.986300	3.568400	-10.655000	25.525246	0.000855	20.785075
1119.313081	-3.017600	3.566100	-10.760000	25.522909	0.000853	20.805489
1120.307799	-2.993700	3.565800	-10.673000	25.542894	0.000855	20.796161
1121.308521	-3.016200	3.567000	-10.758000	25.595447	0.000854	20.795834
1122.309203	-3.020800	3.565100	-10.768000	25.599769	0.000854	20.779786
1123.310333	-2.987700	3.565800	-10.653000	25.613241	0.000853	20.794738
1124.309690	-2.985000	3.564800	-10.640000	25.639654	0.000854	20.785705
1125.310070	-2.989400	3.564200	-10.654000	25.650040	0.000854	20.803723
1126.310548	-2.991500	3.565500	-10.664000	25.646687	0.000852	20.799406
1127.311040	-3.010200	3.564400	-10.729000	25.622536	0.000854	20.816402
1128.310553	-3.008400	3.563700	-10.719000	25.584295	0.000851	20.801229
1129.312327	-3.031200	3.562600	-10.797000	25.613518	0.000849	20.791697
1130.310991	-3.005300	3.564900	-10.712000	25.642308	0.000849	20.807810
1131.310452	-2.988300	3.563400	-10.648000	25.646809	0.000851	20.811857
1132.311986	-3.009100	3.562800	-10.719000	25.660866	0.000850	20.819337
1133.310484	-3.018500	3.560600	-10.746000	25.638832	0.000850	20.815699
1134.312975	-3.002500	3.562400	-10.695000	25.645067	0.000850	20.808211
1135.313541	-3.003600	3.560000	-10.690000	25.645442	0.000848	20.838458
1136.311706	-2.998200	3.561700	-10.678000	25.678463	0.000848	20.812830
1137.313516	-2.980500	3.561200	-10.613000	25.678537	0.000846	20.800101
1138.312314	-2.986800	3.560400	-10.633000	25.654485	0.000847	20.816247
1139.310358	-3.022100	3.560300	-10.757000	25.654037	0.000847	20.815323
1140.313660	-3.007400	3.558900	-10.702000	25.649967	0.000843	20.810287
1141.315238	-2.995200	3.559600	-10.660000	25.640493	0.000846	20.815470
1142.311006	-3.004300	3.559500	-10.693000	25.632744	0.000845	20.823334
1143.312800	-2.976500	3.559600	-10.594000	25.625906	0.000846	20.788018
1144.311371	-2.988200	3.560400	-10.638000	25.638629	0.000845	20.826874
1145.311720	-3.007300	3.559300	-10.703000	25.594877	0.000843	20.812805
1146.313995	-2.995700	3.557600	-10.657000	25.587763	0.000843	20.815617
1147.309306	-3.012300	3.557100	-10.714000	25.576977	0.000842	20.799570
1148.312448	-2.999000	3.558000	-10.669000	25.556904	0.000843	20.815920
1149.312277	-3.000600	3.557200	-10.673000	25.542365	0.000840	20.812225
1150.310035	-3.020400	3.556000	-10.739000	25.533272	0.000841	20.820163
1151.313738	-2.997100	3.555700	-10.656000	25.548470	0.000841	20.822623
1152.310910	-3.007700	3.555600	-10.692000	25.549740	0.000839	20.818683
1153.310513	-3.014300	3.554700	-10.714000	25.547632	0.000840	20.833635
1154.311141	-3.001300	3.554300	-10.667000	25.570099	0.000839	20.818266
1155.309227	-2.997700	3.554300	-10.653000	25.587592	0.000838	20.842946
1156.311368	-3.010700	3.553800	-10.698000	25.573925	0.000838	20.822582
1157.313941	-3.003300	3.553600	-10.672000	25.575935	0.000835	20.822231
1158.313865	-3.001400	3.554900	-10.669000	25.564710	0.000838	20.821863
1159.314841	-2.981400	3.553500	-10.592000	25.536821	0.000834	20.805709
1160.313015	-2.984200	3.552600	-10.600000	25.542463	0.000833	20.798573
1161.314632	-2.983600	3.553800	-10.603000	25.529495	0.000835	20.812576
1162.313165	-2.993600	3.552500	-10.634000	25.537774	0.000834	20.810933
1163.314695	-2.994900	3.552300	-10.637000	25.555048	0.000833	20.835392
1164.314701	-2.988300	3.551700	-10.613000	25.549252	0.000834	20.813451
1165.317104	-3.016700	3.551300	-10.711000	25.529747	0.000834	20.807140
1166.314424	-2.987100	3.552200	-10.610000	25.550375	0.000832	20.823114
1167.318440	-3.013900	3.549900	-10.698000	25.533948	0.000831	20.811832
1168.316213	-3.002400	3.551300	-10.661000	25.562431	0.000832	20.812936
1169.319657	-3.000900	3.550200	-10.653000	25.561202	0.000831	20.802219
1170.315737	-3.017900	3.550500	-10.715000	25.557481	0.000831	20.801327
1171.316401	-3.002900	3.551100	-10.662000	25.575203	0.000829	20.796839
1172.317610	-3.030000	3.549800	-10.755000	25.575471	0.000831	20.789997
1173.317796	-3.008000	3.548000	-10.671000	25.583424	0.000830	20.807941
1174.317614	-3.006400	3.548200	-10.667000	25.603782	0.000828	20.823645
1175.317484	-3.010000	3.548000	-10.678000	25.591947	0.000829	20.812233
1176.318080	-3.018400	3.548000	-10.708000	25.598239	0.000828	20.797215
1177.327051	-3.012300	3.547800	-10.686000	25.593567	0.000826	20.809118
1178.320618	-3.009800	3.546400	-10.673000	25.596497	0.000826	20.804475
1179.318906	-3.008900	3.546300	-10.670000	25.621372	0.000826	20.810492
1180.319149	-3.009700	3.547000	-10.674000	25.622992	0.000825	20.792204
1181.318775	-3.003500	3.548400	-10.656000	25.630367	0.000826	20.786334
1182.318408	-3.009600	3.545300	-10.669000	25.666344	0.000826	20.788329
1183.322398	-3.018500	3.546500	-10.703000	25.709653	0.000823	20.808121
1184.321521	-2.986600	3.546000	-10.589000	25.698396	0.000823	20.814358
1185.321087	-2.977400	3.545200	-10.555000	25.745644	0.000823	20.797330
1186.321687	-2.978800	3.546200	-10.562000	25.759211	0.000822	20.801949
1187.319907	-2.998400	3.544700	-10.627000	25.747711	0.000823	20.815053
1188.323316	-3.001700	3.545300	-10.641000	25.749868	0.000821	20.809159
1189.326460	-3.002800	3.544100	-10.640000	25.739556	0.000819	20.816819
1190.322461	-2.998400	3.543900	-10.625000	25.719981	0.000820	20.790994
1191.321691	-2.988400	3.544200	-10.591000	25.729268	0.000820	20.791787
1192.322556	-2.993700	3.543000	-10.606000	25.726908	0.000819	20.788942
1193.322595	-2.982800	3.543400	-10.568000	25.725972	0.000819	20.775674
1194.323873	-3.005100	3.542700	-10.645000	25.715082	0.000819	20.813574
1195.323046	-2.989100	3.543600	-10.592000	25.706454	0.000819	20.795425
1196.330456	-3.010400	3.543200	-10.665000	25.702857	0.000816	20.783751
1197.324889	-3.014500	3.541200	-10.674000	25.670528	0.000815	20.786841
1198.325969	-3.003300	3.541800	-10.636000	25.654696	0.000818	20.792752
1199.328343	-3.030900	3.539600	-10.726000	25.652018	0.000817	20.772044
1200.326461	-3.012700	3.541100	-10.667000	25.640615	0.000813	20.776712
1201.325584	-3.014900	3.540600	-10.673000	25.667809	0.000814	20.801655
1202.327609	-2.979400	3.542500	-10.554000	25.689509	0.000814	20.778879
1203.326217	-3.001200	3.539500	-10.622000	25.694954	0.000815	20.787667
1204.327540	-2.984400	3.539500	-10.562000	25.675965	0.000810	20.792302
1205.328012	-2.986600	3.539600	-10.570000	25.697282	0.000811	20.765823
1206.326434	-2.999500	3.539300	-10.615000	25.700146	0.000811	20.772020
1207.327532	-3.002800	3.538200	-10.623000	25.736447	0.000813	20.768177
1208.327414	-2.996500	3.538800	-10.603000	25.704387	0.000809	20.804254
1209.327266	-2.982400	3.538900	-10.553000	25.674874	0.000812	20.766076
1210.329457	-2.982600	3.536700	-10.547000	25.702995	0.000808	20.773459
1211.328158	-2.993600	3.537800	-10.590000	25.681931	0.000810	20.794976
1212.329896	-2.983100	3.536800	-10.549000	25.664594	0.000807	20.756699
1213.328112	-2.984000	3.536400	-10.551000	25.684015	0.000808	20.769093
1214.328269	-2.968500	3.537000	-10.498000	25.662054	0.000806	20.786866
1215.330914	-3.004000	3.536700	-10.624000	25.708538	0.000808	20.778078
1216.328927	-2.995700	3.535700	-10.591000	25.703589	0.000807	20.784961
1217.331636	-3.000000	3.535900	-10.607000	25.669722	0.000806	20.761376
1218.329287	-2.988300	3.534300	-10.560000	25.645027	0.000806	20.777350
1219.329485	-2.982600	3.534600	-10.540000	25.654493	0.000806	20.762201
1220.329375	-2.989400	3.535200	-10.567000	25.683241	0.000805	20.777325
1221.331706	-2.965000	3.534700	-10.479000	25.702596	0.000803	20.784912
1222.328535	-2.997600	3.532200	-10.588000	25.735820	0.000804	20.776557
1223.332549	-3.007900	3.532600	-10.624000	25.753180	0.000802	20.763174
1224.329174	-3.000400	3.533700	-10.602000	25.768229	0.000802	20.761220
1225.330450	-3.005900	3.531900	-10.615000	25.773201	0.000801	20.759103
1226.334951	-2.992300	3.532000	-10.567000	25.726761	0.000801	20.777415
1227.329620	-2.992900	3.532900	-10.573000	25.742111	0.000800	20.759642
1228.330294	-3.041300	3.531000	-10.738000	25.780868	0.000800	20.767278
1229.329350	-3.030500	3.530500	-10.697000	25.802012	0.000799	20.761016
1230.332441	-3.003200	3.530100	-10.600000	25.802980	0.000798	20.763411
1231.330132	-3.016700	3.529500	-10.646000	25.766186	0.000798	20.771022
1232.336003	-2.986000	3.530400	-10.541000	25.722993	0.000797	20.755612
1233.333405	-2.977800	3.530700	-10.511000	25.716783	0.000799	20.763599
1234.334448	-2.985500	3.530400	-10.540000	25.695743	0.000795	20.744837
1235.337158	-3.014000	3.529800	-10.637000	25.681801	0.000797	20.748377
1236.336544	-2.984400	3.530400	-10.535000	25.657375	0.000794	20.772682
1237.338718	-3.001000	3.529200	-10.590000	25.624083	0.000795	20.761057
1238.337622	-3.004300	3.526800	-10.594000	25.629871	0.000795	20.761180
1239.336469	-2.999900	3.527200	-10.580000	25.637815	0.000794	20.774849
1240.335069	-2.989100	3.527200	-10.543000	25.641592	0.000793	20.770581
1241.335185	-3.009400	3.527200	-10.614000	25.666409	0.000792	20.750936
1242.338829	-2.986000	3.526900	-10.531000	25.655128	0.000792	20.755253
1243.336496	-2.992600	3.528100	-10.557000	25.628739	0.000792	20.767156
1244.335822	-2.982700	3.528200	-10.523000	25.656023	0.000791	20.772748
1245.337054	-3.011800	3.525600	-10.618000	25.668542	0.000792	20.782476
1246.336785	-2.998300	3.525800	-10.570000	25.673190	0.000791	20.757272
1247.337971	-3.001200	3.526400	-10.582000	25.647322	0.000790	20.761163
1248.339787	-2.999500	3.525400	-10.574000	25.667565	0.000789	20.744510
1249.338155	-3.021800	3.523800	-10.646000	25.664953	0.000789	20.755163
1250.336703	-2.992500	3.525300	-10.546000	25.669551	0.000787	20.759782
1251.338840	-2.994500	3.524700	-10.554000	25.651262	0.000789	20.767965
1252.338931	-3.017900	3.522800	-10.630000	25.667704	0.000785	20.744175
1253.339366	-3.031000	3.521100	-10.671000	25.673768	0.000787	20.772552
1254.338604	-2.996600	3.522200	-10.552000	25.706764	0.000786	20.759226
1255.341584	-3.021000	3.521800	-10.639000	25.710761	0.000787	20.761343
1256.340050	-2.991600	3.523500	-10.539000	25.725387	0.000785	20.757068
1257.338949	-3.001400	3.523000	-10.573000	25.714708	0.000783	20.741126
1258.343513	-3.001100	3.520700	-10.565000	25.708759	0.000783	20.760755
1259.341868	-3.002800	3.520600	-10.570000	25.713707	0.000784	20.753397
1260.338972	-3.013600	3.520500	-10.608000	25.708278	0.000781	20.760747
1261.341621	-3.000400	3.520600	-10.561000	25.755387	0.000784	20.744527
1262.341337	-2.988200	3.520400	-10.517000	25.742918	0.000785	20.739589
1263.341982	-2.962100	3.520900	-10.428000	25.747663	0.000779	20.736768
1264.344577	-2.966400	3.520400	-10.441000	25.758919	0.000781	20.756610
1265.342257	-2.986500	3.519100	-10.508000	25.759977	0.000780	20.721162
1266.344026	-2.993900	3.519300	-10.536000	25.781813	0.000780	20.728397
1267.341247	-2.993300	3.518600	-10.531000	25.761792	0.000779	20.756651
1268.342756	-2.996700	3.517500	-10.540000	25.729098	0.000779	20.737087
1269.342618	-3.005700	3.517300	-10.571000	25.717215	0.000778	20.736532
1270.343745	-3.010300	3.517300	-10.587000	25.691032	0.000780	20.757649
1271.344120	-3.003500	3.516300	-10.559000	25.661461	0.000776	20.735534
1272.342358	-3.023100	3.515800	-10.627000	25.650701	0.000779	20.739900
1273.341794	-3.007000	3.516000	-10.570000	25.663041	0.000776	20.746604
1274.341340	-2.991000	3.516500	-10.517000	25.692912	0.000777	20.762856
1275.343824	-3.014700	3.514600	-10.594000	25.671286	0.000777	20.761050
1276.342680	-2.977100	3.515600	-10.465000	25.680141	0.000777	20.742442
1277.344234	-2.991600	3.515000	-10.515000	25.687329	0.000778	20.740178
1278.341571	-2.980700	3.515600	-10.478000	25.692920	0.000776	20.763813
1279.342646	-3.005800	3.515300	-10.566000	25.711803	0.000778	20.739156
1280.348348	-2.999600	3.513600	-10.539000	25.715922	0.000775	20.756096
1281.343557	-3.004600	3.513500	-10.555000	25.691000	0.000773	20.737701
1282.343482	-2.989900	3.514800	-10.508000	25.697405	0.000772	20.726116
1283.343598	-3.009000	3.511800	-10.566000	25.692107	0.000772	20.749719
1284.343718	-3.000900	3.512800	-10.540000	25.704177	0.000775	20.750937
1285.344810	-2.989100	3.512100	-10.495000	25.719601	0.000773	20.731815
1286.346453	-3.005100	3.512700	-10.555000	25.765943	0.000772	20.739009
1287.344197	-3.001200	3.511100	-10.537000	25.768499	0.000772	20.754379
1288.345932	-2.997100	3.510600	-10.521000	25.744864	0.000770	20.738699
1289.345181	-2.996400	3.509500	-10.513000	25.740364	0.000771	20.733230
1290.345910	-3.006100	3.510200	-10.550000	25.754566	0.000769	20.720942
1291.347840	-3.000000	3.509500	-10.526000	25.757203	0.000770	20.726910
1292.347486	-2.986000	3.509600	-10.479000	25.758367	0.000765	20.734718
1293.347776	-2.992100	3.509700	-10.500000	25.766904	0.000768	20.735233
1294.346532	-2.996700	3.509100	-10.515000	25.773839	0.000766	20.734612
1295.346200	-2.999300	3.509100	-10.525000	25.799800	0.000766	20.727499
1296.348663	-3.008600	3.508200	-10.553000	25.852666	0.000765	20.732241
1297.348689	-2.995300	3.507800	-10.506000	25.851462	0.000764	20.740989
1298.347532	-3.036000	3.507700	-10.648000	25.845082	0.000766	20.748330
1299.347564	-3.008900	3.506300	-10.549000	25.870163	0.000763	20.727532
1300.345687	-3.016900	3.504600	-10.572000	25.869528	0.000762	20.731636
1301.347655	-2.989200	3.506500	-10.480000	25.820179	0.000763	20.728055
1302.351720	-3.002800	3.506300	-10.527000	25.800102	0.000761	20.722586
1303.351917	-3.007400	3.505400	-10.541000	25.750587	0.000761	20.734015
1304.350575	-3.019800	3.505000	-10.582000	25.756300	0.000761	20.728374
1305.349105	-3.008700	3.504700	-10.543000	25.771674	0.000760	20.737653
1306.350981	-3.006500	3.504100	-10.534000	25.796399	0.000761	20.723608
1307.354362	-3.006300	3.503200	-10.531000	25.829066	0.000758	20.719912
1308.352485	-3.004700	3.503800	-10.527000	25.818007	0.000758	20.733459
1309.353298	-3.015500	3.502400	-10.559000	25.809811	0.000758	20.739452
1310.351733	-3.001600	3.502500	-10.512000	25.816501	0.000757	20.713454
1311.352447	-2.969400	3.504600	-10.405000	25.809323	0.000756	20.715726
1312.356464	-3.001500	3.502100	-10.511000	25.834983	0.000757	20.731072
1313.355804	-2.987500	3.503600	-10.465000	25.841860	0.000755	20.712375
1314.352254	-3.029600	3.500100	-10.603000	25.852227	0.000756	20.726584
1315.352360	-3.003500	3.500900	-10.514000	25.820627	0.000754	20.735618
1316.352845	-3.000400	3.499900	-10.500000	25.841347	0.000756	20.718972
1317.353866	-2.971900	3.499700	-10.399000	25.854595	0.000753	20.719479
1318.355484	-2.993800	3.499600	-10.476000	25.865500	0.000755	20.732805
1319.354421	-2.985300	3.500000	-10.448000	25.884103	0.000754	20.734424
1320.357477	-2.985200	3.500200	-10.447000	25.870594	0.000754	20.708049
1321.354305	-3.004100	3.499100	-10.511000	25.861716	0.000753	20.717623
1322.354900	-3.016700	3.498500	-10.553000	25.839621	0.000751	20.707281
1323.358708	-3.008200	3.498200	-10.523000	25.856605	0.000750	20.710592
1324.354930	-3.005400	3.497600	-10.511000	25.881743	0.000751	20.706921
1325.357597	-3.012100	3.497500	-10.533000	25.883119	0.000751	20.717786
1326.356642	-3.009400	3.496900	-10.522000	25.882419	0.000749	20.707125
1327.355001	-2.988300	3.498100	-10.453000	25.891810	0.000749	20.721776
1328.357474	-3.013300	3.496800	-10.535000	25.911364	0.000751	20.709177
1329.355258	-3.026600	3.494400	-10.574000	25.902047	0.000749	20.702661
1330.356711	-2.999100	3.497800	-10.490000	25.871066	0.000749	20.711843
1331.357444	-2.995300	3.496300	-10.472000	25.810625	0.000746	20.700912
1332.356187	-3.021400	3.495800	-10.559000	25.778054	0.000747	20.713715
1333.357646	-3.007400	3.494900	-10.509000	25.740437	0.000747	20.710543
1334.361392	-2.987000	3.494700	-10.438000	25.755519	0.000745	20.707673
1335.358820	-2.992300	3.493800	-10.454000	25.741227	0.000747	20.719871
1336.358554	-3.013700	3.493800	-10.528000	25.738671	0.000744	20.696440
1337.359489	-2.999300	3.493500	-10.477000	25.747713	0.000743	20.726387
1338.362835	-3.006200	3.491400	-10.495000	25.752116	0.000743	20.704730
1339.359889	-2.968800	3.494300	-10.372000	25.776313	0.000742	20.720975
1340.360285	-3.020500	3.491500	-10.544000	25.796407	0.000743	20.718874
1341.360317	-2.983000	3.493000	-10.418000	25.812627	0.000742	20.707191
1342.359264	-2.988000	3.491600	-10.432000	25.823882	0.000742	20.710911
1343.358685	-2.987300	3.491000	-10.427000	25.777444	0.000743	20.709309
1344.360690	-3.001100	3.489600	-10.470000	25.794389	0.000743	20.707837
1345.359500	-2.998600	3.489300	-10.462000	25.776207	0.000741	20.700953
1346.363831	-2.990700	3.489900	-10.435000	25.804635	0.000739	20.707224
1347.360510	-3.020000	3.489400	-10.537000	25.791304	0.000740	20.704264
1348.359270	-2.997300	3.489700	-10.458000	25.785298	0.000739	20.684953
1349.361180	-3.014500	3.489400	-10.518000	25.795455	0.000740	20.716021
1350.359396	-2.994600	3.488600	-10.446000	25.793461	0.000738	20.688412
1351.360113	-2.998000	3.487700	-10.455000	25.823248	0.000737	20.702687
1352.361140	-2.985400	3.487700	-10.411000	25.825502	0.000736	20.686458
1353.362987	-2.999300	3.487900	-10.458000	25.851414	0.000737	20.703480
1354.363044	-3.004600	3.487500	-10.478000	25.820562	0.000737	20.710895
1355.366129	-3.006300	3.485700	-10.478000	25.783866	0.000736	20.694895
1356.363487	-2.994800	3.486000	-10.438000	25.773774	0.000736	20.685706
1357.363940	-2.972100	3.485100	-10.357000	25.774718	0.000736	20.711786
1358.363405	-2.989300	3.486100	-10.420000	25.787390	0.000736	20.702229
1359.364443	-2.983300	3.485100	-10.396000	25.790841	0.000735	20.691470
1360.370234	-2.992400	3.485100	-10.428000	25.846360	0.000733	20.690341
1361.365845	-3.011300	3.484300	-10.492000	25.843227	0.000734	20.705687
1362.369114	-2.987000	3.483200	-10.404000	25.840078	0.000733	20.707739
1363.366421	-2.994800	3.483300	-10.431000	25.816526	0.000734	20.685976
1364.368697	-2.997300	3.482200	-10.436000	25.809372	0.000732	20.682108
1365.368901	-3.013100	3.481100	-10.489000	25.826389	0.000731	20.710585
1366.367490	-2.996100	3.481900	-10.432000	25.796033	0.000732	20.685305
1367.369275	-3.003900	3.480900	-10.455000	25.761965	0.000730	20.703243
1368.370778	-2.986600	3.482700	-10.400000	25.742294	0.000730	20.688224
1369.370105	-2.996200	3.479900	-10.426000	25.729304	0.000727	20.694617
1370.371217	-2.985100	3.482100	-10.394000	25.763910	0.000729	20.696661
1371.381025	-3.014500	3.480600	-10.491000	25.771357	0.000729	20.698926
1372.376579	-3.006200	3.480100	-10.461000	25.764472	0.000728	20.708606
1373.372658	-3.006700	3.479300	-10.460000	25.764578	0.000727	20.686899
1374.371626	-3.000300	3.478400	-10.435000	25.750913	0.000728	20.691666
1375.372442	-3.011000	3.478700	-10.472000	25.756105	0.000726	20.687398
1376.375405	-2.997500	3.479000	-10.427000	25.778568	0.000726	20.688150
1377.373105	-2.985400	3.478900	-10.384000	25.795382	0.000725	20.692712
1378.374066	-3.007200	3.477700	-10.457000	25.785201	0.000724	20.687226
1379.372592	-3.015200	3.476500	-10.481000	25.754543	0.000723	20.695312
1380.372546	-3.020900	3.477000	-10.502000	25.754144	0.000723	20.684005
1381.375626	-2.999400	3.476300	-10.424000	25.751319	0.000723	20.682116
1382.375504	-2.979200	3.476200	-10.356000	25.762535	0.000722	20.711876
1383.372971	-2.990600	3.475500	-10.391000	25.740161	0.000722	20.697462
1384.373752	-3.011400	3.475700	-10.466000	25.763348	0.000722	20.691829
1385.383311	-2.984000	3.474600	-10.367000	25.747738	0.000723	20.704126
1386.374103	-3.020000	3.473800	-10.489000	25.775394	0.000721	20.697291
1387.378558	-3.012800	3.473100	-10.462000	25.778551	0.000722	20.715637
1388.375806	-3.006700	3.472900	-10.441000	25.735668	0.000719	20.710969
1389.379957	-2.988500	3.474600	-10.383000	25.721035	0.000720	20.685836
1390.378106	-3.023400	3.472400	-10.497000	25.687892	0.000720	20.703283
1391.378124	-3.008200	3.472500	-10.445000	25.702681	0.000718	20.690635
1392.381478	-2.991300	3.472600	-10.387000	25.720961	0.000718	20.696669
1393.380711	-3.010700	3.470500	-10.448000	25.761216	0.000718	20.686368
1394.377700	-2.985200	3.472300	-10.364000	25.762160	0.000719	20.674038
1395.379197	-2.995500	3.470400	-10.395000	25.800395	0.000718	20.699171
1396.379411	-2.989600	3.472400	-10.379000	25.818039	0.000716	20.691764
1397.379917	-3.006600	3.471100	-10.435000	25.828643	0.000717	20.697200
1398.383224	-2.997400	3.470800	-10.402000	25.846751	0.000717	20.695001
1399.381424	-2.987800	3.469900	-10.366000	25.827951	0.000715	20.697928
1400.382190	-2.981000	3.469700	-10.342000	25.863051	0.000715	20.687667
1401.389529	-3.015600	3.468900	-10.460000	25.907622	0.000713	20.694036
1402.380965	-3.013900	3.468600	-10.451000	25.906995	0.000715	20.679181
1403.382945	-3.001900	3.469200	-10.414000	25.899997	0.000714	20.675943
1404.384570	-2.991200	3.467200	-10.370000	25.903593	0.000713	20.707535
1405.384350	-3.005900	3.467300	-10.422000	25.903244	0.000713	20.694380
1406.385046	-2.981900	3.467700	-10.340000	25.860097	0.000713	20.697029
1407.388264	-2.981300	3.466700	-10.334000	25.866404	0.000712	20.671120
1408.390245	-3.010600	3.465000	-10.431000	25.878855	0.000712	20.697380
1409.388453	-3.003900	3.465200	-10.408000	25.873883	0.000711	20.709456
1410.387516	-2.994600	3.464800	-10.375000	25.875120	0.000710	20.710699
1411.388430	-2.998400	3.465900	-10.390000	25.905400	0.000711	20.666198
1412.388375	-2.990200	3.465200	-10.361000	25.873728	0.000710	20.682272
1413.388654	-3.007100	3.463700	-10.415000	25.884356	0.000710	20.703382
1414.390542	-3.005400	3.464100	-10.410000	25.879107	0.000708	20.717550
1415.388231	-2.998100	3.462200	-10.379000	25.890012	0.000708	20.704322
1416.392415	-3.009500	3.461900	-10.418000	25.882778	0.000708	20.701796
1417.390012	-3.006500	3.462400	-10.409000	25.894675	0.000706	20.689565
1418.391094	-3.004700	3.461100	-10.398000	25.935583	0.000705	20.698419
1419.396616	-2.980400	3.461100	-10.314000	25.958733	0.000704	20.710773
1420.391976	-2.998200	3.462300	-10.379000	25.965089	0.000707	20.713839
1421.393525	-3.021800	3.460400	-10.456000	25.941092	0.000706	20.691625
1422.391177	-2.994000	3.460300	-10.359000	25.920154	0.000706	20.701412
1423.393620	-2.981700	3.462900	-10.324000	25.929765	0.000704	20.703006
1424.391049	-2.989000	3.459300	-10.339000	25.907525	0.000704	20.717175
1425.395049	-3.001300	3.460200	-10.384000	25.920732	0.000703	20.709106
1426.392359	-2.996300	3.460100	-10.366000	25.945975	0.000704	20.701273
1427.393141	-3.012900	3.458000	-10.417000	25.941182	0.000704	20.716848
1428.393321	-3.014900	3.458600	-10.426000	25.961468	0.000702	20.707830
1429.392077	-3.007200	3.456300	-10.393000	25.967335	0.000703	20.703767
1430.396088	-3.004000	3.456600	-10.383000	25.979557	0.000701	20.712253
1431.392694	-2.980400	3.458200	-10.304000	25.948676	0.000699	20.699720
1432.397089	-2.985400	3.457000	-10.320000	25.949913	0.000700	20.709498
1433.393250	-3.005800	3.456000	-10.387000	25.920309	0.000700	20.706784
1434.395148	-3.008800	3.456200	-10.398000	25.921644	0.000698	20.693425
1435.394945	-3.007900	3.455200	-10.392000	25.940075	0.000700	20.686336
1436.393557	-3.016600	3.454000	-10.418000	25.960443	0.000696	20.725768
1437.397994	-3.008200	3.454900	-10.391000	25.931425	0.000697	20.692346
1438.393778	-2.994600	3.453900	-10.342000	25.934282	0.000696	20.710389
1439.393891	-3.023000	3.452200	-10.435000	25.893016	0.000697	20.697856
1440.400258	-2.993300	3.452900	-10.335000	25.865038	0.000694	20.715745
1441.398754	-3.012600	3.452700	-10.399000	25.855924	0.000696	20.726504
1442.395305	-2.968200	3.453700	-10.250000	25.851904	0.000694	20.710136
1443.397060	-3.008100	3.452800	-10.386000	25.887369	0.000696	20.713995
1444.395572	-2.994800	3.452900	-10.339000	25.934371	0.000694	20.702893
1445.395402	-2.980200	3.454200	-10.293000	25.942200	0.000693	20.716922
1446.396672	-3.009100	3.450400	-10.381000	25.967409	0.000691	20.702418
1447.393240	-3.017900	3.449900	-10.410000	25.954788	0.000694	20.710602
1448.395665	-2.975700	3.451000	-10.268000	25.933363	0.000691	20.734598
1449.398242	-3.006400	3.450500	-10.373000	25.941809	0.000690	20.721746
1450.398596	-3.007500	3.449500	-10.373000	25.973414	0.000691	20.716988
1451.399983	-3.006700	3.449000	-10.369000	25.974000	0.000692	20.720896
1452.398220	-3.012000	3.448500	-10.386000	25.968988	0.000689	20.722972
1453.402823	-2.999100	3.449200	-10.344000	25.958458	0.000691	20.708125
1454.397264	-2.986000	3.449000	-10.297000	25.934559	0.000690	20.736748
1455.399207	-3.000900	3.447700	-10.344000	25.888370	0.000690	20.727330
1456.399792	-3.003700	3.448000	-10.356000	25.891056	0.000690	20.719596
1457.398939	-2.989900	3.447900	-10.308000	25.877165	0.000687	20.718443
1458.407350	-3.005900	3.445400	-10.356000	25.829891	0.000688	20.737811
1459.400185	-3.009600	3.445600	-10.369000	25.876098	0.000689	20.728279
1460.402028	-2.975400	3.445900	-10.250000	25.900642	0.000687	20.720217
1461.402638	-3.012100	3.445800	-10.376000	25.869759	0.000688	20.695355
1462.405161	-3.007700	3.445500	-10.362000	25.864543	0.000686	20.735637
1463.402381	-3.019600	3.444200	-10.399000	25.844393	0.000686	20.725826
1464.406583	-2.991100	3.445000	-10.302000	25.824593	0.000684	20.722531
1465.403477	-2.997400	3.443800	-10.321000	25.846298	0.000686	20.728214
1466.404065	-3.004900	3.443400	-10.346000	25.862541	0.000687	20.729358
1467.407140	-2.977600	3.444300	-10.254000	25.836972	0.000685	20.708887
1468.405808	-3.000600	3.442600	-10.329000	25.883081	0.000684	20.713007
1469.408273	-2.998900	3.442300	-10.322000	25.892464	0.000683	20.741875
1470.406179	-3.003200	3.442800	-10.338000	25.932908	0.000682	20.733667
1471.407474	-3.012400	3.442700	-10.370000	25.946693	0.000682	20.739929
1472.410557	-2.997100	3.443100	-10.317000	25.950314	0.000682	20.726971
1473.410249	-2.991800	3.440900	-10.293000	25.961414	0.000682	20.733381
1474.409664	-3.009500	3.441000	-10.355000	25.942600	0.000682	20.736292
1475.407737	-2.981600	3.442800	-10.263000	25.949110	0.000681	20.739513
1476.406647	-2.995800	3.438900	-10.301000	25.952154	0.000680	20.735933
1477.407230	-3.002600	3.439400	-10.325000	25.982530	0.000678	20.715715
1478.411304	-3.003000	3.439300	-10.327000	26.013060	0.000680	20.727896
1479.407928	-2.989700	3.439300	-10.281000	26.005729	0.000679	20.732859
1480.410633	-3.005600	3.438300	-10.334000	26.029993	0.000677	20.743961
1481.407212	-2.996100	3.437800	-10.299000	26.053369	0.000677	20.729515
1482.409544	-3.019300	3.437300	-10.377000	26.066453	0.000677	20.755464
1483.410378	-2.994800	3.437700	-10.293000	26.076509	0.000676	20.751818
1484.409940	-3.009500	3.437000	-10.343000	26.093189	0.000676	20.733489
1485.410262	-2.988200	3.436200	-10.267000	26.098656	0.000675	20.733767
1486.410610	-2.986800	3.437100	-10.265000	26.142021	0.000675	20.741305
1487.411704	-3.010100	3.436200	-10.340000	26.128654	0.000674	20.737830
1488.410636	-2.998400	3.435300	-10.299000	26.130249	0.000674	20.742752
1489.411829	-2.985600	3.434800	-10.254000	26.115092	0.000675	20.732737
1490.417414	-3.007200	3.434500	-10.327000	26.159847	0.000673	20.724128
1491.410303	-3.004600	3.433600	-10.315000	26.113407	0.000671	20.751434
1492.411017	-3.011200	3.432800	-10.336000	26.102749	0.000671	20.752579
1493.412761	-3.031000	3.433000	-10.405000	26.082702	0.000673	20.737650
1494.415162	-3.004100	3.434000	-10.315000	26.100910	0.000671	20.762111
1495.412322	-2.999300	3.432600	-10.293000	26.052947	0.000671	20.751851
1496.413464	-3.009300	3.433300	-10.329000	26.044151	0.000670	20.736375
1497.412808	-3.003500	3.431600	-10.305000	26.028610	0.000671	20.715069
1498.412587	-3.015200	3.431000	-10.344000	26.017983	0.000670	20.753232
1499.415254	-2.990600	3.432200	-10.263000	26.049269	0.000669	20.743414
1500.415704	-3.001800	3.429900	-10.294000	26.059683	0.000670	20.735386
1501.413476	-3.004200	3.431000	-10.306000	26.093148	0.000667	20.740086
1502.414143	-2.999100	3.429500	-10.284000	26.103554	0.000668	20.740111
1503.414433	-3.007200	3.430700	-10.316000	26.088852	0.000667	20.756159
1504.414038	-3.002500	3.429500	-10.295000	26.054183	0.000667	20.745981
1505.417483	-2.998900	3.429000	-10.282000	26.015851	0.000664	20.745400
1506.415820	-3.012600	3.428700	-10.329000	25.977233	0.000668	20.751646
1507.417377	-3.025700	3.428300	-10.372000	25.937442	0.000664	20.742490
1508.416991	-3.006900	3.429100	-10.308000	25.940469	0.000666	20.752643
1509.416843	-2.991900	3.427900	-10.254000	25.974279	0.000663	20.750575
1510.420431	-3.007200	3.426200	-10.302000	26.007567	0.000663	20.768373
1511.419218	-2.999400	3.426200	-10.275000	26.030375	0.000662	20.761889
1512.417429	-3.020400	3.426000	-10.347000	26.011375	0.000664	20.760818
1513.418656	-2.989900	3.426800	-10.245000	25.992278	0.000662	20.759175
1514.418390	-3.017800	3.424800	-10.334000	25.981179	0.000661	20.746601
1515.417605	-3.009400	3.424300	-10.303000	25.953431	0.000661	20.754286
1516.421561	-2.998900	3.424000	-10.267000	25.954465	0.000660	20.753428
1517.418135	-2.993100	3.424200	-10.248000	25.965458	0.000660	20.742186
1518.419210	-2.980700	3.424200	-10.206000	25.995183	0.000659	20.736014
1519.419188	-2.979000	3.424200	-10.200000	25.988388	0.000660	20.769018
1520.419401	-2.996600	3.422400	-10.254000	26.025118	0.000658	20.770833
1521.419222	-2.986400	3.423600	-10.222000	26.035972	0.000659	20.746650
1522.419034	-3.013600	3.422100	-10.311000	26.063921	0.000657	20.753869
1523.418554	-3.016700	3.420800	-10.320000	26.097199	0.000657	20.762175
1524.418356	-3.040400	3.420600	-10.399000	26.090446	0.000656	20.762502
1525.418740	-2.997300	3.421800	-10.256000	26.080715	0.000658	20.740396
1526.423021	-2.999600	3.421200	-10.262000	26.096727	0.000655	20.758382
1527.420131	-2.987600	3.420500	-10.218000	26.113447	0.000655	20.742938
1528.422760	-2.988400	3.420000	-10.218000	26.135999	0.000655	20.767023
1529.420325	-3.004000	3.420400	-10.273000	26.119483	0.000656	20.752798
1530.422544	-2.988900	3.420300	-10.223000	26.150205	0.000655	20.761856
1531.423048	-2.993400	3.419300	-10.234000	26.139750	0.000655	20.756567
1532.419893	-2.986300	3.420600	-10.213000	26.181055	0.000654	20.758243
1533.421799	-3.018600	3.418400	-10.318000	26.168713	0.000653	20.769549
1534.420877	-3.010400	3.417900	-10.288000	26.136870	0.000653	20.760311
1535.419401	-3.016800	3.418700	-10.312000	26.139303	0.000652	20.770342
1536.420383	-3.018100	3.417500	-10.314000	26.120720	0.000653	20.763524
1537.423388	-3.016200	3.415700	-10.302000	26.102276	0.000652	20.783398
1538.419912	-2.991700	3.417400	-10.223000	26.104814	0.000650	20.761766
1539.419739	-3.014900	3.416200	-10.299000	26.117970	0.000651	20.759812
1540.421400	-2.994500	3.415400	-10.226000	26.139156	0.000651	20.755496
1541.420441	-3.006900	3.415100	-10.267000	26.139075	0.000651	20.766794
1542.423937	-3.003400	3.414600	-10.254000	26.121542	0.000650	20.772410
1543.420500	-2.998500	3.415600	-10.241000	26.129068	0.000649	20.780447
1544.422608	-2.995300	3.414600	-10.226000	26.123275	0.000649	20.763720
1545.422708	-3.013100	3.412700	-10.282000	26.161188	0.000650	20.776212
1546.421411	-2.995200	3.413300	-10.223000	26.183024	0.000648	20.772076
1547.423850	-3.000700	3.412400	-10.238000	26.196806	0.000647	20.772648
1548.421462	-2.973300	3.414200	-10.150000	26.188378	0.000645	20.767972
1549.422799	-3.001400	3.412100	-10.239000	26.184823	0.000647	20.780047
1550.423224	-2.993500	3.412800	-10.214000	26.233366	0.000647	20.774300
1551.421913	-2.999300	3.410700	-10.228000	26.258276	0.000644	20.775150
1552.421474	-3.003000	3.409800	-10.239000	26.253647	0.000645	20.803216
1553.422722	-3.010500	3.411300	-10.268000	26.243666	0.000643	20.787495
1554.421480	-2.970000	3.411300	-10.130000	26.209295	0.000644	20.779982
1555.423692	-2.995100	3.410000	-10.212000	26.180780	0.000645	20.778355
1556.422644	-2.998000	3.409100	-10.218000	26.125368	0.000643	20.789057
1557.422649	-2.997300	3.409500	-10.217000	26.068683	0.000644	20.787577
1558.426310	-3.011500	3.408500	-10.264000	26.069155	0.000643	20.771456
1559.422447	-2.997500	3.409000	-10.218000	26.082393	0.000643	20.794240
1560.423950	-2.970600	3.409400	-10.127000	26.093312	0.000641	20.772495
1561.425878	-3.007200	3.407500	-10.246000	26.099016	0.000641	20.790080
1562.421113	-3.020800	3.406000	-10.288000	26.099317	0.000641	20.794175
1563.421185	-2.985900	3.408100	-10.175000	26.099195	0.000641	20.791208
1564.424808	-3.001500	3.408100	-10.229000	26.115776	0.000639	20.784161
1565.423328	-2.998800	3.407300	-10.217000	26.121414	0.000638	20.804051
1566.422770	-2.995500	3.406200	-10.203000	26.116842	0.000640	20.786180
1567.422064	-3.025000	3.405200	-10.300000	26.097836	0.000638	20.796457
1568.423018	-3.006700	3.406300	-10.240000	26.064852	0.000637	20.791315
1569.427540	-3.022500	3.404700	-10.290000	25.991003	0.000637	20.768326
1570.425262	-3.000900	3.405500	-10.218000	26.013258	0.000637	20.790211
1571.428218	-3.009800	3.404200	-10.245000	26.009409	0.000635	20.801991
1572.425388	-2.989900	3.404700	-10.180000	26.015593	0.000638	20.785919
1573.432829	-3.002100	3.403000	-10.215000	26.051459	0.000635	20.800144
1574.425563	-3.009500	3.403700	-10.242000	26.090474	0.000636	20.796670
1575.423889	-2.996700	3.402500	-10.195000	26.111782	0.000638	20.792950
1576.427396	-3.044100	3.401200	-10.353000	26.125711	0.000635	20.808368
1577.426220	-3.003900	3.402600	-10.221000	26.148012	0.000635	20.795689
1578.425838	-2.995800	3.401400	-10.189000	26.126305	0.000635	20.809913
1579.427303	-3.011000	3.401900	-10.242000	26.145498	0.000636	20.806439
1580.429101	-3.019500	3.401300	-10.269000	26.127819	0.000633	20.806218
1581.428337	-3.009800	3.399600	-10.231000	26.087529	0.000633	20.825005
1582.427532	-3.002400	3.400200	-10.208000	26.074112	0.000634	20.810576
1583.427844	-3.011600	3.399800	-10.238000	26.101881	0.000632	20.808606
1584.428852	-3.018500	3.399700	-10.261000	26.113979	0.000632	20.813176
1585.431283	-3.006800	3.398200	-10.217000	26.103607	0.000631	20.836417
1586.427014	-3.015400	3.398700	-10.247000	26.092981	0.000631	20.815310
1587.432636	-3.016200	3.398200	-10.247000	26.088115	0.000628	20.805679
1588.429474	-3.012500	3.397300	-10.232000	26.088010	0.000629	20.792771
1589.428075	-3.008400	3.398200	-10.222000	26.128113	0.000627	20.805091
1590.432956	-3.025700	3.397000	-10.277000	26.116706	0.000629	20.805958
1591.432195	-3.008400	3.396600	-10.217000	26.126396	0.000628	20.794358
1592.429733	-3.018300	3.397100	-10.252000	26.141545	0.000627	20.816692
1593.429774	-3.030900	3.395800	-10.291000	26.157768	0.000627	20.826354
1594.429662	-3.018900	3.396100	-10.251000	26.169158	0.000626	20.810299
1595.430226	-2.984100	3.396400	-10.134000	26.146061	0.000626	20.814591
1596.431886	-3.006200	3.394200	-10.202000	26.115242	0.000625	20.816815
1597.440086	-2.999300	3.395800	-10.184000	26.102151	0.000625	20.815989
1598.431583	-2.960100	3.396700	-10.054000	26.092111	0.000625	20.834350
1599.432590	-3.020100	3.393900	-10.249000	26.074976	0.000625	20.835151
1600.433255	-3.009300	3.392700	-10.209000	26.058012	0.000622	20.819055
1601.434469	-3.003300	3.393900	-10.192000	26.096309	0.000622	20.831930
1602.431871	-2.988300	3.395800	-10.146000	26.123435	0.000623	20.829788
1603.433467	-3.009500	3.392400	-10.209000	26.169923	0.000622	20.824344
1604.432376	-3.023700	3.390600	-10.252000	26.129562	0.000620	20.826461
1605.432850	-2.976700	3.392900	-10.098000	26.132417	0.000621	20.815581
1606.434878	-2.994500	3.392100	-10.157000	26.097026	0.000621	20.841658
1607.432855	-3.018200	3.390300	-10.232000	26.047451	0.000620	20.824091
1608.437852	-3.014700	3.389500	-10.217000	26.056694	0.000619	20.829110
1609.436289	-2.970900	3.392400	-10.077000	26.044253	0.000619	20.828938
1610.436070	-2.992000	3.390100	-10.142000	26.065432	0.000618	20.845476
1611.440516	-3.002400	3.390000	-10.177000	26.091989	0.000620	20.844658
1612.441789	-2.992500	3.391100	-10.147000	26.126185	0.000620	20.838715
1613.441009	-2.978000	3.391100	-10.098000	26.141107	0.000616	20.836639
1614.437968	-2.990300	3.389100	-10.133000	26.157053	0.000617	20.815679
1615.441810	-2.974100	3.388800	-10.077000	26.169224	0.000616	20.801830
1616.439190	-2.993200	3.388100	-10.140000	26.167629	0.000618	20.822987
1617.439081	-2.998000	3.387200	-10.155000	26.161649	0.000615	20.835470
1618.437547	-2.977600	3.388000	-10.087000	26.165172	0.000613	20.823363
1619.442247	-2.978000	3.386600	-10.084000	26.187692	0.000615	20.817543
1620.439260	-2.969900	3.387400	-10.060000	26.209600	0.000612	20.845247
1621.440151	-3.001800	3.386900	-10.165000	26.238383	0.000611	20.838135
1622.441436	-2.993000	3.386600	-10.135000	26.256987	0.000611	20.826012
1623.441291	-2.997900	3.386500	-10.151000	26.266489	0.000612	20.839354
1624.440050	-2.985400	3.386100	-10.108000	26.274087	0.000610	20.826601
1625.438959	-2.989200	3.385000	-10.117000	26.239725	0.000612	20.822415
1626.440733	-2.985200	3.385100	-10.104000	26.217296	0.000611	20.807463
1627.440166	-2.972500	3.385900	-10.063000	26.253628	0.000609	20.814575
1628.439651	-2.991000	3.383900	-10.120000	26.259038	0.000608	20.827598
1629.439077	-2.982500	3.384400	-10.093000	26.223837	0.000607	20.811191
1630.440213	-3.011500	3.384400	-10.191000	26.213774	0.000609	20.816725
1631.440815	-3.006300	3.382900	-10.168000	26.205695	0.000607	20.814772
1632.439908	-3.006400	3.382600	-10.169000	26.169240	0.000607	20.840253
1633.444316	-2.996600	3.381600	-10.131000	26.136730	0.000608	20.795732
1634.438397	-3.011400	3.380400	-10.179000	26.147517	0.000605	20.797563
1635.443065	-2.988400	3.382200	-10.106000	26.134972	0.000605	20.819096
1636.440279	-3.010600	3.381200	-10.178000	26.134891	0.000606	20.807161
1637.439609	-2.989600	3.382300	-10.110000	26.175431	0.000604	20.819447
1638.444691	-3.005900	3.380700	-10.160000	26.194647	0.000603	20.815050
1639.442665	-3.023900	3.379100	-10.217000	26.234437	0.000603	20.820894
1640.442187	-2.993700	3.380400	-10.118000	26.286330	0.000604	20.803817
1641.443367	-3.002600	3.378500	-10.142000	26.267726	0.000603	20.795553
1642.445065	-3.009100	3.380100	-10.170000	26.270508	0.000603	20.787917
1643.443954	-2.993400	3.378300	-10.112000	26.257517	0.000603	20.801888
1644.445988	-3.000100	3.377700	-10.132000	26.268149	0.000602	20.825849
1645.444451	-3.010200	3.379600	-10.172000	26.277756	0.000601	20.808477
1646.445516	-2.995900	3.379600	-10.124000	26.302022	0.000600	20.795405
1647.444729	-2.983200	3.378100	-10.077000	26.314037	0.000601	20.810325
1648.442945	-2.993000	3.377700	-10.109000	26.363795	0.000599	20.817184
1649.450273	-2.972300	3.379200	-10.043000	26.338074	0.000599	20.801291
1650.445476	-2.997900	3.376600	-10.122000	26.313159	0.000597	20.814184
1651.444662	-3.015100	3.375900	-10.177000	26.216792	0.000600	20.787991
1652.444167	-2.985300	3.376200	-10.077000	26.235414	0.000599	20.794850
1653.444739	-3.010500	3.376400	-10.164000	26.232835	0.000598	20.798896
1654.446004	-3.006100	3.374800	-10.143000	26.283646	0.000600	20.808706
1655.448914	-2.994800	3.375400	-10.107000	26.306212	0.000598	20.786814
1656.444867	-3.004800	3.375100	-10.140000	26.264188	0.000597	20.818549
1657.444477	-3.010700	3.373700	-10.156000	26.255849	0.000599	20.776031
1658.445081	-3.001800	3.374100	-10.128000	26.222495	0.000598	20.791351
1659.444819	-2.984800	3.374300	-10.071000	26.249960	0.000597	20.810889
1660.452658	-2.991600	3.373100	-10.090000	26.254182	0.000596	20.804701
1661.448146	-2.998900	3.372700	-10.113000	26.201279	0.000597	20.787574
1662.446305	-3.017800	3.372000	-10.175000	26.156159	0.000597	20.776374
1663.446743	-3.016300	3.372100	-10.170000	26.149553	0.000596	20.771158
1664.446719	-3.023700	3.371100	-10.192000	26.150626	0.000594	20.783617
1665.447416	-2.992000	3.371400	-10.086000	26.197333	0.000596	20.790722
1666.447365	-3.033500	3.371500	-10.225000	26.205550	0.000594	20.793289
1667.445538	-3.005700	3.371100	-10.132000	26.200677	0.000593	20.770374
1668.448964	-2.987500	3.370600	-10.069000	26.163156	0.000592	20.797156
1669.446226	-2.975800	3.369900	-10.027000	26.184585	0.000593	20.784076
1670.445105	-3.005400	3.369000	-10.124000	26.179956	0.000591	20.779899
1671.447867	-3.000200	3.370800	-10.112000	26.231388	0.000590	20.786063
1672.446459	-2.998100	3.369400	-10.101000	26.227117	0.000590	20.771339
1673.451210	-2.991300	3.369600	-10.079000	26.245543	0.000589	20.774683
1674.451068	-3.006000	3.368500	-10.124000	26.220553	0.000589	20.793192
1675.449641	-2.985800	3.367800	-10.054000	26.220406	0.000589	20.767914
1676.453327	-2.977000	3.368500	-10.027000	26.242355	0.000586	20.785229
1677.450639	-2.998400	3.368000	-10.097000	26.252808	0.000587	20.776294
1678.453979	-3.026700	3.366100	-10.188000	26.241509	0.000586	20.782483
1679.451982	-2.991900	3.366900	-10.073000	26.277962	0.000588	20.774070
1680.452427	-2.992100	3.366200	-10.071000	26.279321	0.000587	20.780652
1681.452366	-2.991400	3.365700	-10.067000	26.280606	0.000584	20.773883
1682.457862	-3.002900	3.365000	-10.104000	26.329755	0.000586	20.773016
1683.452480	-2.995900	3.365200	-10.081000	26.340875	0.000585	20.782295
1684.453359	-3.014700	3.365500	-10.145000	26.334180	0.000583	20.775092
1685.456069	-2.974800	3.364700	-10.008000	26.336328	0.000583	20.782467
1686.458650	-2.992800	3.363200	-10.065000	26.340086	0.000583	20.775338
1687.455479	-3.010800	3.364400	-10.129000	26.329528	0.000582	20.775158
1688.454560	-3.021500	3.361700	-10.156000	26.344771	0.000581	20.766771
1689.455585	-3.026800	3.362300	-10.175000	26.332285	0.000582	20.776507
1690.454911	-2.992700	3.362300	-10.061000	26.273886	0.000580	20.762862
1691.454772	-3.004000	3.362300	-10.098000	26.234700	0.000581	20.754303
1692.456243	-3.013100	3.361500	-10.127000	26.229429	0.000579	20.778404
1693.453848	-3.014300	3.361400	-10.132000	26.211181	0.000577	20.756273
1694.454080	-3.015400	3.360100	-10.131000	26.244804	0.000580	20.787216
1695.454345	-2.995800	3.361700	-10.070000	26.261912	0.000579	20.770743
1696.454921	-2.977600	3.361000	-10.007000	26.275546	0.000578	20.768324
1697.455081	-3.008200	3.359700	-10.106000	26.303830	0.000578	20.763557
1698.457910	-3.006500	3.360200	-10.101000	26.320994	0.000577	20.759944
1699.459274	-3.011700	3.359000	-10.115000	26.325704	0.000575	20.764677
1700.457840	-3.015600	3.359300	-10.129000	26.356322	0.000574	20.774112
1701.457074	-3.013000	3.358200	-10.117000	26.347683	0.000573	20.753575
1702.457607	-2.992000	3.359400	-10.050000	26.368385	0.000575	20.774856
1703.463136	-2.995100	3.357900	-10.057000	26.364286	0.000576	20.741337
1704.457413	-2.993600	3.358000	-10.051000	26.386459	0.000573	20.774055
1705.460463	-3.002500	3.358800	-10.084000	26.410771	0.000574	20.788059
1706.463689	-2.997400	3.359100	-10.067000	26.390852	0.000571	20.757132
1707.458629	-2.970100	3.357500	-9.971400	26.364481	0.000573	20.749594
1708.459324	-2.988100	3.358100	-10.033000	26.352190	0.000571	20.759053
1709.462639	-3.029500	3.355900	-10.165000	26.292792	0.000571	20.747722
1710.458976	-3.009100	3.355300	-10.093000	26.291653	0.000570	20.765544
1711.460350	-2.987100	3.356100	-10.024000	26.291304	0.000568	20.746700
1712.457996	-2.960600	3.358300	-9.941900	26.292320	0.000568	20.745826
1713.458755	-2.996000	3.355700	-10.053000	26.289018	0.000569	20.753887
1714.463188	-2.996800	3.354100	-10.050000	26.289074	0.000567	20.752521
1715.459400	-2.983700	3.355800	-10.012000	26.229771	0.000567	20.751246
1716.463309	-2.983600	3.354400	-10.007000	26.233350	0.000566	20.746782
1717.461380	-2.984500	3.354800	-10.012000	26.206870	0.000564	20.751941
1718.459238	-2.997000	3.353400	-10.048000	26.192568	0.000566	20.756535
1719.467397	-2.969200	3.353700	-9.957200	26.199646	0.000565	20.741836
1720.462025	-3.004000	3.354200	-10.074000	26.242836	0.000565	20.763427
1721.461682	-3.006000	3.353600	-10.079000	26.273529	0.000564	20.757761
1722.463171	-2.989300	3.352900	-10.022000	26.307475	0.000564	20.749676
1723.462882	-2.979800	3.352200	-9.987900	26.334400	0.000563	20.745915
1724.466762	-2.983000	3.351600	-9.995900	26.335343	0.000564	20.739276
1725.463333	-2.990700	3.351600	-10.021000	26.334725	0.000562	20.752880
1726.465942	-2.979000	3.350700	-9.981000	26.383530	0.000562	20.742186
1727.466787	-3.003700	3.348500	-10.057000	26.379870	0.000561	20.734714
1728.464506	-3.013100	3.348800	-10.089000	26.426078	0.000560	20.751286
1729.464562	-3.003400	3.349700	-10.059000	26.451357	0.000560	20.740658
1730.466423	-2.998200	3.349400	-10.040000	26.466339	0.000560	20.737223
1731.463920	-3.018300	3.348100	-10.105000	26.454895	0.000560	20.748007
1732.464124	-3.006300	3.348700	-10.066000	26.470787	0.000559	20.724625
1733.463832	-3.015400	3.347100	-10.092000	26.446777	0.000559	20.748857
1734.464918	-2.970800	3.348400	-9.946400	26.482800	0.000558	20.744761
1735.466601	-2.986700	3.348400	-10.000000	26.464386	0.000558	20.738580
1736.464865	-3.005300	3.345500	-10.053000	26.467884	0.000556	20.725974
1737.470149	-2.986000	3.346800	-9.992700	26.457212	0.000557	20.735637
1738.466402	-2.995800	3.346500	-10.024000	26.456163	0.000556	20.723202
1739.466192	-3.006900	3.344800	-10.057000	26.448379	0.000558	20.737190
1740.470223	-2.990800	3.347400	-10.011000	26.459620	0.000553	20.750860
1741.467948	-2.989900	3.345900	-10.002000	26.429631	0.000553	20.738735
1742.467876	-2.974000	3.345200	-9.946900	26.429810	0.000553	20.729905
1743.472780	-3.007800	3.344100	-10.058000	26.460351	0.000552	20.723618
1744.469244	-2.999900	3.344700	-10.033000	26.443743	0.000550	20.739642
1745.469410	-2.998900	3.343700	-10.026000	26.399894	0.000550	20.734451
1746.471205	-2.991900	3.344300	-10.005000	26.408865	0.000550	20.732088
1747.468607	-2.983600	3.344200	-9.977300	26.405189	0.000550	20.747360
1748.468751	-3.026300	3.341500	-10.111000	26.381681	0.000549	20.726577
1749.469731	-2.992100	3.343300	-10.002000	26.405912	0.000549	20.730543
1750.475038	-2.999700	3.343600	-10.029000	26.413558	0.000548	20.722105
1751.472013	-3.007000	3.341400	-10.047000	26.433355	0.000549	20.726831
1752.469089	-3.004800	3.341200	-10.039000	26.466133	0.000546	20.718524
1753.470721	-2.990200	3.342100	-9.992900	26.464393	0.000548	20.727207
1754.469652	-2.996900	3.341100	-10.012000	26.449525	0.000549	20.718900
1755.469140	-2.991600	3.341300	-9.994500	26.458016	0.000546	20.698984
1756.471416	-3.017100	3.339300	-10.074000	26.453347	0.000544	20.719423
1757.470230	-3.010900	3.339300	-10.053000	26.431004	0.000546	20.723045
1758.470152	-2.998600	3.339500	-10.013000	26.434534	0.000545	20.713790
1759.469462	-2.989300	3.340100	-9.983700	26.453998	0.000546	20.720077
1760.469687	-2.971500	3.339200	-9.921400	26.451290	0.000544	20.716881
1761.470048	-2.993700	3.338200	-9.992200	26.469167	0.000543	20.715409
1762.470455	-3.004000	3.337200	-10.024000	26.492005	0.000543	20.703751
1763.476458	-2.993100	3.338200	-9.989900	26.474226	0.000542	20.720020
1764.473882	-2.994100	3.338100	-9.993800	26.459911	0.000542	20.714640
1765.474370	-3.021700	3.335600	-10.077000	26.478968	0.000542	20.723838
1766.471937	-3.007700	3.337200	-10.036000	26.488280	0.000540	20.699058
1767.480624	-3.006600	3.336700	-10.031000	26.509735	0.000541	20.721573
1768.473822	-3.012100	3.336500	-10.049000	26.543666	0.000540	20.704470
1769.472985	-2.995400	3.336000	-9.991900	26.534061	0.000541	20.707618
1770.472660	-3.014200	3.334900	-10.051000	26.546724	0.000540	20.716079
1771.474218	-2.967400	3.336800	-9.900400	26.514648	0.000539	20.719873
1772.473199	-2.994400	3.336900	-9.990900	26.559086	0.000537	20.701004
1773.476276	-3.008500	3.333700	-10.029000	26.558101	0.000535	20.686262
1774.472034	-3.004800	3.332800	-10.014000	26.570935	0.000537	20.702957
1775.477923	-2.980700	3.334400	-9.937400	26.583540	0.000534	20.699033
1776.471538	-3.018000	3.332500	-10.056000	26.591193	0.000534	20.700088
1777.473337	-3.006400	3.331900	-10.016000	26.573415	0.000534	20.716357
1778.479672	-3.040200	3.331800	-10.129000	26.562826	0.000535	20.711877
1779.472233	-3.017500	3.331500	-10.052000	26.544373	0.000534	20.695223
1780.474701	-3.010600	3.331900	-10.030000	26.549139	0.000534	20.682943
1781.472940	-3.011800	3.332400	-10.035000	26.574163	0.000531	20.699090
1782.473954	-3.006700	3.332900	-10.020000	26.537965	0.000532	20.712490
1783.475382	-3.019400	3.330400	-10.055000	26.519991	0.000533	20.725718
1784.476321	-2.988100	3.330600	-9.951300	26.529653	0.000531	20.703660
1785.475139	-2.983000	3.330100	-9.932700	26.526155	0.000531	20.702515
1786.476675	-2.990100	3.331700	-9.961300	26.539940	0.000532	20.705941
1787.475570	-3.001500	3.329800	-9.993500	26.530840	0.000531	20.706277
1788.476227	-2.982900	3.329000	-9.928900	26.580271	0.000531	20.688633
1789.478103	-2.995800	3.327800	-9.968000	26.601325	0.000530	20.705058
1790.477102	-2.988100	3.329100	-9.945400	26.595836	0.000530	20.688633
1791.480130	-2.990700	3.328000	-9.952300	26.643890	0.000528	20.708492
1792.476894	-2.980600	3.328100	-9.919300	26.627389	0.000528	20.701862
1793.475729	-3.018400	3.326300	-10.038000	26.597950	0.000527	20.698820
1794.479517	-2.977900	3.327400	-9.907900	26.619144	0.000529	20.703055
1795.475934	-3.004600	3.326100	-9.992100	26.635058	0.000527	20.698191
1796.474781	-2.976000	3.327800	-9.902000	26.637783	0.000526	20.684807
1797.476766	-2.968500	3.326800	-9.874900	26.603107	0.000524	20.704478
1798.478277	-2.986500	3.326600	-9.932500	26.546870	0.000525	20.692517
1799.476942	-2.973500	3.327200	-9.891700	26.484328	0.000524	20.703620
1800.479911	-3.006900	3.324700	-9.995700	26.451461	0.000523	20.700456
1801.475871	-3.016600	3.323700	-10.025000	26.427572	0.000523	20.699679
1802.477377	-3.002000	3.324400	-9.978100	26.407067	0.000522	20.688078
1803.478108	-2.985100	3.325400	-9.925900	26.435575	0.000521	20.685437
1804.477280	-2.970000	3.324500	-9.873000	26.435934	0.000519	20.719939
1805.482849	-2.980700	3.323800	-9.906200	26.436210	0.000524	20.712155
1806.476726	-3.018400	3.321700	-10.024000	26.431395	0.000520	20.701625
1807.479391	-2.984900	3.323700	-9.919600	26.438203	0.000520	20.696139
1808.478014	-2.998400	3.323000	-9.962700	26.458358	0.000522	20.702173
1809.478653	-2.985600	3.322300	-9.919100	26.460343	0.000519	20.691839
1810.479044	-2.983500	3.321400	-9.909000	26.480285	0.000519	20.686753
1811.478545	-2.981300	3.321700	-9.902000	26.494454	0.000518	20.696728
1812.478416	-3.008100	3.320800	-9.987500	26.496422	0.000517	20.688748
1813.478860	-2.986700	3.320800	-9.917100	26.519015	0.000518	20.691070
1814.480372	-2.989400	3.319900	-9.923500	26.516339	0.000517	20.710193
1815.481594	-3.000300	3.319900	-9.959400	26.530312	0.000515	20.682984
1816.478687	-3.019100	3.320000	-10.022000	26.560574	0.000516	20.693490
1817.478615	-2.980600	3.320500	-9.895900	26.595853	0.000514	20.720895
1818.479342	-3.000600	3.317000	-9.952000	26.621421	0.000513	20.707242
1819.479961	-2.994300	3.318700	-9.935800	26.651363	0.000514	20.696564
1820.484071	-3.002800	3.318900	-9.964800	26.611499	0.000512	20.691102
1821.480581	-3.020400	3.317500	-10.019000	26.625153	0.000513	20.701036
1822.481601	-2.994500	3.316400	-9.929900	26.647793	0.000509	20.706726
1823.479226	-3.009400	3.316900	-9.981300	26.666708	0.000512	20.688756
1824.479201	-2.997900	3.317400	-9.944400	26.644613	0.000511	20.692623
1825.488073	-3.015400	3.316100	-9.999200	26.640149	0.000509	20.705680
1826.482877	-3.000300	3.316400	-9.949200	26.621974	0.000509	20.695943
1827.482431	-3.010400	3.315300	-9.979500	26.621656	0.000507	20.693727
1828.480074	-3.007000	3.315000	-9.967000	26.634814	0.000508	20.711223
1829.480004	-3.002400	3.313300	-9.946600	26.591802	0.000508	20.686474
1830.480535	-3.035400	3.312300	-10.053000	26.580579	0.000507	20.718343
1831.482720	-3.006100	3.313600	-9.959900	26.542616	0.000508	20.684921
1832.479364	-2.998100	3.313600	-9.932200	26.576334	0.000507	20.689418
1833.481342	-2.985300	3.313500	-9.890400	26.599398	0.000506	20.702172
1834.480578	-3.017700	3.311900	-9.992700	26.606993	0.000505	20.679934
1835.484429	-2.997800	3.313000	-9.930300	26.597267	0.000506	20.701452
1836.481239	-2.997600	3.313200	-9.930800	26.590639	0.000504	20.690995
1837.482733	-3.001200	3.312300	-9.939900	26.570682	0.000505	20.685158
1838.481289	-3.000200	3.312100	-9.936100	26.576163	0.000502	20.695410
1839.481777	-3.007500	3.310400	-9.955100	26.549228	0.000501	20.685877
1840.482570	-2.993600	3.311400	-9.911300	26.520527	0.000502	20.678838
1841.483870	-3.000000	3.311200	-9.930200	26.510003	0.000503	20.679639
1842.485214	-3.028000	3.310200	-10.022000	26.513598	0.000499	20.718818
1843.480279	-3.006000	3.309400	-9.947000	26.514989	0.000500	20.695083
1844.483431	-3.007500	3.310000	-9.952300	26.551156	0.000500	20.706783
1845.483597	-3.017800	3.308100	-9.982300	26.558808	0.000499	20.694560
1846.484011	-3.035300	3.308700	-10.041000	26.572536	0.000500	20.697454
1847.486736	-2.997600	3.307800	-9.913900	26.580457	0.000499	20.689295
1848.485834	-3.002700	3.308000	-9.931800	26.567583	0.000497	20.686310
1849.487790	-3.007900	3.306800	-9.944800	26.587655	0.000498	20.707911
1850.485373	-3.000300	3.309700	-9.929500	26.580311	0.000496	20.701951
1851.486303	-3.003300	3.306300	-9.928600	26.571544	0.000496	20.682231
1852.488977	-2.991300	3.307400	-9.892900	26.558979	0.000495	20.706113
1853.488470	-2.985200	3.306400	-9.869500	26.533214	0.000494	20.698231
1854.495648	-2.997600	3.307500	-9.913700	26.506522	0.000496	20.699376
1855.486858	-2.970100	3.307500	-9.822700	26.495396	0.000493	20.708108
1856.488540	-2.995800	3.305200	-9.900500	26.486262	0.000491	20.687545
1857.488943	-2.998300	3.306500	-9.913500	26.477593	0.000492	20.683572
1858.489006	-3.013800	3.305600	-9.960400	26.483554	0.000491	20.701420
1859.487870	-2.981300	3.304900	-9.851800	26.500284	0.000492	20.701167
1860.491864	-3.033400	3.302700	-10.017000	26.495404	0.000491	20.703848
1861.489954	-3.003000	3.303000	-9.915800	26.519755	0.000492	20.697504
1862.490858	-3.005100	3.303700	-9.927400	26.543584	0.000491	20.700594
1863.492462	-3.009200	3.303600	-9.939500	26.605400	0.000490	20.695877
1864.490153	-3.001200	3.303900	-9.914800	26.630146	0.000489	20.703685
1865.491557	-2.996000	3.302300	-9.892700	26.678189	0.000488	20.694609
1866.491757	-3.007900	3.301300	-9.928400	26.690054	0.000488	20.699899
1867.494976	-2.989400	3.301700	-9.868800	26.689435	0.000490	20.711607
1868.496727	-2.986900	3.302400	-9.863000	26.697282	0.000486	20.710012
1869.493558	-2.982900	3.301600	-9.847300	26.625633	0.000485	20.706260
1870.496516	-2.991900	3.299900	-9.871400	26.616175	0.000484	20.721884
1871.494028	-2.997600	3.299400	-9.888500	26.622908	0.000486	20.710159
1872.494152	-2.988700	3.300400	-9.863100	26.617118	0.000485	20.699122
1873.497994	-2.993400	3.300500	-9.877900	26.643556	0.000482	20.715269
1874.498258	-3.010800	3.299100	-9.932200	26.661105	0.000483	20.710152
1875.495229	-3.020300	3.298900	-9.962700	26.703365	0.000482	20.718973
1876.496443	-2.998500	3.297600	-9.886800	26.718750	0.000482	20.718793
1877.495645	-2.976200	3.299200	-9.818100	26.737558	0.000479	20.715891
1878.495473	-2.989900	3.296200	-9.854500	26.728353	0.000479	20.719913
1879.498284	-3.012300	3.296600	-9.927600	26.722962	0.000479	20.711174
1880.497759	-3.015900	3.295300	-9.937400	26.735053	0.000480	20.722856
1881.500124	-3.005300	3.297100	-9.906600	26.731980	0.000479	20.721188
1882.497501	-2.993600	3.296000	-9.865800	26.753723	0.000479	20.719815
1883.498714	-3.008000	3.295900	-9.913400	26.725572	0.000479	20.708582
1884.504132	-2.969100	3.296000	-9.785500	26.736972	0.000476	20.717199
1885.499092	-3.036800	3.294000	-10.002000	26.717433	0.000478	20.717943
1886.500368	-3.004200	3.294200	-9.894300	26.680718	0.000477	20.700471
1887.498208	-3.010300	3.293300	-9.913000	26.665626	0.000477	20.721810
1888.498435	-2.996000	3.294200	-9.868400	26.687419	0.000477	20.713373
1889.499151	-2.996300	3.294600	-9.869600	26.717100	0.000479	20.707176
1890.501817	-3.006100	3.292600	-9.896500	26.694535	0.000475	20.717207
1891.499857	-3.007000	3.292200	-9.898800	26.701089	0.000475	20.716684
1892.499283	-3.010000	3.291900	-9.907700	26.692404	0.000475	20.722178
1893.499942	-3.011600	3.294300	-9.919900	26.713790	0.000473	20.728981
1894.501635	-2.996300	3.293000	-9.865800	26.708155	0.000472	20.699606
1895.503335	-2.986200	3.291800	-9.828700	26.658633	0.000471	20.714780
1896.503804	-2.997500	3.291400	-9.865700	26.601708	0.000471	20.722988
1897.502798	-2.997600	3.292000	-9.867200	26.556719	0.000469	20.735611
1898.502570	-3.011400	3.289200	-9.904900	26.521618	0.000469	20.720715
1899.502440	-3.015800	3.288500	-9.916300	26.540755	0.000469	20.747065
1900.506274	-2.999300	3.289600	-9.864700	26.558305	0.000469	20.750008
1901.504428	-2.980700	3.290300	-9.806400	26.586306	0.000469	20.723152
1902.504196	-2.970100	3.291400	-9.774100	26.632156	0.000467	20.708550
1903.505234	-3.008900	3.288600	-9.894400	26.650152	0.000467	20.715263
1904.506018	-3.012400	3.287400	-9.900500	26.685086	0.000465	20.730469
1905.505644	-3.031800	3.287900	-9.967500	26.691356	0.000466	20.716857
1906.507745	-3.003500	3.287800	-9.873600	26.685330	0.000466	20.724550
1907.520624	-2.968400	3.288500	-9.760000	26.683549	0.000466	20.730820
1908.508588	-2.989000	3.288900	-9.829700	26.692486	0.000465	20.714199
1909.507918	-2.995700	3.287600	-9.847800	26.699268	0.000463	20.742830
1910.510164	-2.989600	3.286100	-9.823500	26.733005	0.000464	20.722219
1911.511647	-3.021100	3.285200	-9.923700	26.737909	0.000462	20.734737
1912.510834	-3.012700	3.284600	-9.894400	26.726492	0.000462	20.740329
1913.512182	-3.010800	3.285500	-9.890600	26.708456	0.000461	20.741162
1914.509390	-2.998100	3.286000	-9.850700	26.697576	0.000461	20.724059
1915.509442	-3.022500	3.283000	-9.920600	26.645639	0.000460	20.728744
1916.512516	-3.005000	3.282200	-9.861900	26.622462	0.000458	20.726307
1917.514464	-3.014000	3.284200	-9.897700	26.600269	0.000459	20.740034
1918.510389	-3.002600	3.283900	-9.858700	26.629894	0.000460	20.737573
1919.511023	-3.006700	3.284100	-9.873300	26.650525	0.000459	20.743140
1920.510567	-3.002900	3.283000	-9.857300	26.717141	0.000457	20.729504
1921.515580	-3.010500	3.282400	-9.880300	26.725532	0.000457	20.739838
1922.511043	-2.988800	3.282800	-9.810800	26.738664	0.000456	20.737393
1923.510705	-3.002600	3.280300	-9.847900	26.758025	0.000456	20.739789
1924.511879	-2.992300	3.280600	-9.814300	26.808144	0.000455	20.732332
1925.511290	-3.028000	3.279400	-9.929400	26.819007	0.000456	20.727133
1926.512004	-3.003400	3.280100	-9.848800	26.799022	0.000453	20.747343
1927.513468	-3.010800	3.279700	-9.873800	26.800192	0.000455	20.727656
1928.512115	-3.018600	3.279900	-9.898900	26.774474	0.000453	20.741154
1929.525624	-2.995900	3.279400	-9.822500	26.725061	0.000452	20.722767
1930.516117	-3.012800	3.278200	-9.873500	26.706017	0.000452	20.725433
1931.511399	-3.005400	3.277900	-9.851000	26.721776	0.000452	20.734638
1932.522021	-2.999700	3.278800	-9.834900	26.723898	0.000450	20.742936
1933.516531	-3.034500	3.278300	-9.946800	26.746276	0.000449	20.737459
1934.513516	-3.023300	3.277100	-9.906200	26.793712	0.000450	20.739633
1935.518505	-3.006700	3.276500	-9.850500	26.788720	0.000449	20.745994
1936.520059	-2.997600	3.276900	-9.821900	26.822081	0.000450	20.734965
1937.519066	-2.981500	3.277000	-9.769000	26.805494	0.000448	20.748161
1938.516536	-2.999500	3.277300	-9.829000	26.790387	0.000446	20.746722
1939.513307	-2.986100	3.275700	-9.780800	26.791095	0.000446	20.732734
1940.517182	-2.997100	3.275800	-9.817700	26.809413	0.000447	20.735979
1941.513927	-2.990100	3.275500	-9.793000	26.811869	0.000444	20.755993
1942.514860	-2.992300	3.276200	-9.802100	26.872181	0.000445	20.752625
1943.518735	-3.006300	3.274100	-9.842300	26.864416	0.000444	20.769474
1944.514801	-3.002200	3.274000	-9.827800	26.872823	0.000443	20.730510
1945.516813	-2.997500	3.275100	-9.815600	26.834431	0.000443	20.734581
1946.518686	-3.013000	3.273500	-9.862500	26.812243	0.000443	20.751627
1947.515628	-3.003600	3.273900	-9.832300	26.839944	0.000441	20.752453
1948.517254	-3.009000	3.272600	-9.846000	26.850489	0.000440	20.748357
1949.524300	-2.980100	3.272600	-9.751400	26.876628	0.000443	20.768951
1950.516818	-2.984800	3.272900	-9.768200	26.858896	0.000441	20.766768
1951.516269	-2.999900	3.271700	-9.813300	26.842595	0.000439	20.751799
1952.516386	-3.023100	3.270800	-9.886300	26.827724	0.000438	20.758184
1953.516730	-2.999100	3.271400	-9.810500	26.859612	0.000440	20.768910
1954.517179	-3.009000	3.270400	-9.839200	26.864035	0.000436	20.748227
1955.517473	-2.984600	3.270600	-9.760500	26.909100	0.000434	20.759402
1956.519417	-2.972800	3.270800	-9.721700	26.920417	0.000434	20.774576
1957.523759	-3.030000	3.269700	-9.905200	26.926840	0.000435	20.745946
1958.517052	-2.990100	3.269100	-9.772500	26.949327	0.000435	20.757653
1959.521472	-3.010000	3.267800	-9.833800	26.975024	0.000435	20.756467
1960.519010	-2.987200	3.269600	-9.764500	27.006932	0.000433	20.767692
1961.522816	-2.999900	3.266400	-9.796300	27.020533	0.000434	20.750548
1962.518295	-2.996300	3.268500	-9.792800	27.060625	0.000432	20.741556
1963.517074	-2.986500	3.267000	-9.755800	27.072957	0.000433	20.756329
1964.523283	-2.997300	3.266900	-9.790300	27.111023	0.000430	20.770431
1965.522855	-3.002600	3.267400	-9.809400	27.132287	0.000430	20.763368
1966.520072	-2.985600	3.265500	-9.749000	27.135213	0.000431	20.765362
1967.520136	-3.011300	3.265600	-9.832400	27.134498	0.000428	20.754685
1968.519732	-2.978000	3.265900	-9.725000	27.140001	0.000428	20.775868
1969.518353	-2.999900	3.265300	-9.794300	27.137578	0.000428	20.775328
1970.523794	-2.989600	3.264500	-9.758400	27.133912	0.000426	20.756941
1971.521609	-2.980300	3.263800	-9.726100	27.138789	0.000427	20.765166
1972.524418	-3.004100	3.264400	-9.805600	27.093733	0.000427	20.746878
1973.519464	-3.007300	3.262700	-9.811100	27.063486	0.000424	20.773357
1974.519138	-2.988200	3.263500	-9.749700	27.053138	0.000425	20.783814
1975.523289	-3.026700	3.261800	-9.871800	27.046521	0.000424	20.757244
1976.520942	-3.020700	3.261800	-9.852000	27.047708	0.000423	20.759386
1977.522471	-3.026700	3.261400	-9.870700	27.102227	0.000425	20.771068
1978.522384	-3.018900	3.261800	-9.846400	27.079451	0.000421	20.768076
1979.525203	-3.005800	3.260300	-9.797900	27.051707	0.000420	20.765779
1980.523511	-3.014600	3.259000	-9.823300	27.031661	0.000419	20.767430
1981.524702	-2.978500	3.260600	-9.710100	27.031937	0.000420	20.779088
1982.523885	-2.978700	3.261400	-9.713300	27.028190	0.000421	20.784328
1983.527833	-2.992500	3.260200	-9.754800	26.990153	0.000419	20.794914
1984.525846	-3.010600	3.257900	-9.805800	27.017988	0.000419	20.790190
1985.524839	-2.985700	3.257800	-9.724700	27.017248	0.000418	20.784704
1986.527470	-2.976800	3.259100	-9.700600	27.044244	0.000416	20.782930
1987.528649	-3.001800	3.258100	-9.778000	27.047130	0.000417	20.788203
1988.529181	-3.004900	3.256700	-9.784900	27.120971	0.000415	20.773324
1989.525084	-2.988700	3.257300	-9.734100	27.093456	0.000413	20.779316
1990.525664	-2.992300	3.256000	-9.741300	27.104820	0.000413	20.786952
1991.527383	-2.983600	3.257700	-9.719500	27.107624	0.000415	20.793566
1992.528382	-3.007000	3.255900	-9.789900	27.116728	0.000412	20.770005
1993.525620	-3.000600	3.254700	-9.765300	27.104722	0.000410	20.790173
1994.526336	-2.996000	3.256100	-9.755000	27.090627	0.000411	20.793541
1995.525468	-2.989100	3.254900	-9.728000	27.099431	0.000411	20.793860
1996.525317	-3.014300	3.254400	-9.807900	27.103723	0.000409	20.782529
1997.531642	-2.995600	3.255000	-9.749300	27.100137	0.000410	20.781294
1998.526340	-2.993300	3.253500	-9.737200	27.084376	0.000409	20.780616
1999.530548	-2.972800	3.255000	-9.675200	27.042520	0.000408	20.803956
2000.525787	-2.989200	3.253000	-9.722300	27.053178	0.000406	20.785750
2001.528855	-2.987300	3.251800	-9.713000	27.077727	0.000406	20.799059
2002.528349	-2.991100	3.251700	-9.724700	27.109437	0.000405	20.786854
2003.528381	-3.016400	3.251000	-9.805300	27.090229	0.000404	20.768958
2004.529789	-3.010600	3.251200	-9.787500	27.137675	0.000406	20.802452
2005.531996	-2.976500	3.252200	-9.679200	27.139959	0.000403	20.784360
2006.530441	-2.992800	3.250600	-9.727500	27.136959	0.000403	20.783240
2007.545063	-2.982900	3.250200	-9.694100	27.140535	0.000405	20.780673
2008.539176	-2.989200	3.249400	-9.710400	27.135171	0.000403	20.801356
2009.531601	-2.973300	3.250500	-9.664100	27.133293	0.000401	20.804683
2010.532100	-2.977600	3.248900	-9.673100	27.105575	0.000401	20.790083
2011.532721	-2.979200	3.249500	-9.679300	27.069671	0.000399	20.812294
2012.531802	-3.037500	3.247600	-9.864400	27.037813	0.000399	20.776937
2013.538786	-3.007900	3.248700	-9.770800	27.016808	0.000399	20.799435
2014.532162	-2.997500	3.249400	-9.738700	26.964699	0.000398	20.830483
2015.532224	-3.007900	3.247800	-9.767100	26.946732	0.000399	20.797718
2016.531392	-2.997600	3.247100	-9.732900	26.890245	0.000396	20.796394
2017.530768	-2.993900	3.246300	-9.718600	26.919164	0.000396	20.807929
2018.532972	-3.005800	3.246300	-9.756800	26.962170	0.000395	20.825570
2019.535363	-3.002900	3.246700	-9.748400	26.998745	0.000396	20.798814
2020.531841	-3.007200	3.245200	-9.757800	27.037708	0.000395	20.800064
2021.531599	-3.006600	3.247200	-9.761100	27.079076	0.000394	20.801838
2022.532894	-3.019200	3.243400	-9.791300	27.105323	0.000391	20.795519
2023.532896	-3.015500	3.244000	-9.779800	27.109867	0.000394	20.826641
2024.535426	-3.011100	3.242600	-9.763200	27.141405	0.000392	20.809049
2025.534444	-3.001700	3.243400	-9.735200	27.107566	0.000389	20.810103
2026.539829	-2.999200	3.242300	-9.723200	27.130399	0.000389	20.808411
2027.536984	-2.976000	3.243800	-9.653000	27.133667	0.000388	20.796050
2028.537742	-2.996200	3.242900	-9.715000	27.158815	0.000388	20.807593
2029.537501	-3.011300	3.240200	-9.755200	27.202478	0.000386	20.809784
2030.534801	-3.000600	3.240200	-9.721700	27.190124	0.000384	20.839083
2031.537734	-3.020000	3.240100	-9.781300	27.158514	0.000383	20.816299
2032.539516	-3.011300	3.239700	-9.754800	27.186978	0.000384	20.823117
2033.537645	-2.990300	3.240500	-9.688900	27.238670	0.000383	20.812996
2034.540798	-2.977300	3.241800	-9.649500	27.201421	0.000382	20.815359
2035.537032	-2.990700	3.238400	-9.683900	27.152987	0.000382	20.842982
2036.538415	-2.996700	3.238300	-9.702700	27.148354	0.000381	20.806080
2037.537258	-2.989100	3.239200	-9.681400	27.149272	0.000380	20.828340
2038.539575	-3.029100	3.236000	-9.801600	27.173672	0.000382	20.799777
2039.541552	-3.007200	3.237900	-9.735300	27.200438	0.000381	20.810576
2040.538881	-2.985700	3.239400	-9.670400	27.229965	0.000379	20.814672
2041.538482	-3.021200	3.236900	-9.778400	27.278665	0.000378	20.839948
2042.540641	-2.998200	3.237200	-9.704100	27.263580	0.000377	20.826198
2043.537920	-2.982300	3.237600	-9.654400	27.255819	0.000380	20.832615
2044.539070	-2.996100	3.234900	-9.691000	27.278291	0.000377	20.829141
2045.542850	-3.035400	3.234700	-9.818000	27.286954	0.000377	20.841174
2046.539676	-3.024300	3.234800	-9.781700	27.263670	0.000376	20.820125
2047.541215	-3.009000	3.233800	-9.729600	27.260086	0.000377	20.839278
2048.539621	-2.995700	3.234300	-9.688100	27.308857	0.000373	20.843766
2049.539152	-2.987300	3.234900	-9.661600	27.300404	0.000372	20.813453
2050.542882	-2.987400	3.233000	-9.657600	27.316374	0.000373	20.829043
2051.537912	-3.006100	3.232900	-9.717400	27.319527	0.000372	20.843594
2052.539608	-3.010600	3.231800	-9.729000	27.311709	0.000372	20.832885
2053.539566	-3.017300	3.230900	-9.747200	27.264352	0.000369	20.819389
2054.542964	-2.995900	3.232300	-9.683100	27.237475	0.000371	20.853519
2055.541849	-2.976800	3.232800	-9.622300	27.239784	0.000370	20.813642
2056.546119	-2.992000	3.232900	-9.672800	27.229754	0.000368	20.822046
2057.542802	-2.991300	3.232000	-9.666400	27.223228	0.000367	20.822594
2058.542116	-3.006200	3.229400	-9.707400	27.176021	0.000366	20.832959
2059.544596	-2.988900	3.229500	-9.651500	27.167479	0.000366	20.855660
2060.544369	-3.011800	3.228400	-9.722000	27.173713	0.000364	20.837275
2061.546673	-2.994700	3.230200	-9.672500	27.197601	0.000364	20.839965
2062.543831	-2.981800	3.229600	-9.628800	27.201722	0.000364	20.844584
2063.547822	-2.996000	3.228200	-9.670900	27.211175	0.000364	20.839393
2064.545844	-3.003800	3.227100	-9.692400	27.223805	0.000363	20.855415
2065.544937	-3.016100	3.226400	-9.728800	27.234972	0.000362	20.840096
2066.554205	-2.982300	3.228100	-9.625600	27.297138	0.000360	20.833401
2067.547229	-2.978000	3.227800	-9.611400	27.336285	0.000361	20.832477
2068.545377	-2.989600	3.226100	-9.643800	27.367516	0.000362	20.836867
2069.546581	-3.006000	3.224800	-9.692600	27.399566	0.000360	20.851565
2070.545251	-2.994700	3.224400	-9.654600	27.435638	0.000359	20.840913
2071.548100	-3.007300	3.223200	-9.691900	27.450297	0.000358	20.836221
2072.557676	-3.010300	3.224400	-9.704600	27.468353	0.000359	20.840635
2073.547205	-3.041900	3.222800	-9.802000	27.448925	0.000356	20.835788
2074.547077	-2.975800	3.223300	-9.590600	27.416404	0.000357	20.831521
2075.548904	-2.976400	3.225000	-9.597500	27.435379	0.000356	20.837333
2076.549509	-2.998400	3.222600	-9.660700	27.445447	0.000354	20.833712
2077.552894	-2.988700	3.225100	-9.635900	27.481460	0.000355	20.819684
2078.548754	-2.991700	3.221800	-9.637400	27.504448	0.000353	20.851345
2079.551703	-3.005800	3.221600	-9.682700	27.512313	0.000353	20.855465
2080.549433	-2.996000	3.220400	-9.647600	27.524200	0.000354	20.826175
2081.548342	-2.986000	3.220600	-9.615300	27.501271	0.000353	20.807847
2082.549714	-2.991600	3.220600	-9.633600	27.488717	0.000352	20.841683
2083.554481	-3.002900	3.220400	-9.669300	27.491594	0.000351	20.826085
2084.552960	-3.013500	3.220200	-9.703200	27.515816	0.000351	20.812050
2085.551447	-3.013400	3.218700	-9.698400	27.527159	0.000351	20.827729
2086.551835	-2.967500	3.218500	-9.549600	27.551803	0.000348	20.830239
2087.552924	-3.010900	3.217800	-9.687400	27.561374	0.000347	20.838447
2088.554981	-2.987000	3.217400	-9.608600	27.572562	0.000344	20.834531
2089.554107	-3.009100	3.215700	-9.675800	27.607280	0.000345	20.819677
2090.556941	-2.984100	3.216400	-9.597100	27.557199	0.000344	20.829504
2091.553570	-3.013600	3.214700	-9.686800	27.529126	0.000343	20.820699
2092.552420	-2.992600	3.216100	-9.623200	27.522000	0.000341	20.817323
2093.557231	-3.006100	3.215100	-9.663800	27.510113	0.000343	20.825752
2094.554277	-2.986900	3.215400	-9.603300	27.485038	0.000342	20.819490
2095.552481	-3.012000	3.213700	-9.679200	27.483819	0.000341	20.799298
2096.553827	-2.976900	3.215300	-9.569800	27.520644	0.000340	20.818804
2097.556616	-2.998400	3.213900	-9.635300	27.460864	0.000339	20.818403
2098.552888	-3.007400	3.212500	-9.660300	27.446035	0.000339	20.832407
2099.554408	-2.997100	3.213800	-9.629400	27.470396	0.000337	20.815664
2100.558720	-2.979800	3.215600	-9.581300	27.487687	0.000337	20.810301
2101.554757	-3.022200	3.210500	-9.701600	27.505937	0.000334	20.835775
2102.553486	-2.986000	3.212000	-9.590000	27.510584	0.000336	20.814372
2103.553914	-3.003300	3.211900	-9.644500	27.515939	0.000334	20.815018
2104.554465	-3.000100	3.208900	-9.626100	27.478034	0.000333	20.817185
2105.556714	-2.992600	3.210500	-9.607300	27.489255	0.000333	20.820888
2106.556191	-2.997200	3.208300	-9.614800	27.480894	0.000332	20.817217
2107.555728	-2.991200	3.209300	-9.598700	27.446465	0.000333	20.820038
2108.555739	-3.018500	3.208300	-9.682700	27.420096	0.000330	20.817691
2109.556362	-3.006700	3.207700	-9.643500	27.439298	0.000329	20.821836
2110.557205	-2.995700	3.208400	-9.610100	27.457549	0.000328	20.798946
2111.555753	-3.011000	3.207000	-9.655600	27.463773	0.000328	20.821330
2112.555501	-2.984600	3.207500	-9.571300	27.484168	0.000327	20.812925
2113.557493	-2.997500	3.205800	-9.608600	27.472532	0.000328	20.813547
2114.556711	-2.975700	3.205000	-9.535600	27.452714	0.000330	20.808781
2115.562213	-2.985800	3.206100	-9.571600	27.463968	0.000327	20.814414
2116.556823	-2.993600	3.205100	-9.593700	27.455907	0.000325	20.817684
2117.558062	-2.986800	3.205800	-9.573900	27.453250	0.000325	20.809795
2118.558864	-2.989400	3.207000	-9.586500	27.467048	0.000325	20.808503
2119.557232	-3.001500	3.203800	-9.614700	27.425118	0.000324	20.793821
2120.560259	-2.996000	3.202700	-9.593700	27.443621	0.000323	20.803427
2121.562541	-2.996000	3.202600	-9.593200	27.449050	0.000322	20.814104
2122.558396	-2.974300	3.202900	-9.525500	27.470185	0.000323	20.810711
2123.559262	-3.008500	3.202500	-9.634000	27.497292	0.000319	20.802422
2124.558186	-2.991700	3.201300	-9.576600	27.546695	0.000320	20.794280
2125.559169	-2.997800	3.200900	-9.593900	27.594981	0.000318	20.801613
2126.562577	-2.990300	3.199900	-9.567700	27.569705	0.000320	20.790405
2127.559766	-3.001100	3.199900	-9.601700	27.502185	0.000318	20.794542
2128.563781	-3.012000	3.198600	-9.632700	27.461841	0.000316	20.791411
2129.560466	-3.016800	3.198300	-9.647700	27.421293	0.000319	20.811783
2130.563753	-3.002800	3.199800	-9.607700	27.444940	0.000315	20.788158
2131.566856	-3.004200	3.198000	-9.605700	27.469057	0.000318	20.795352
2132.570612	-2.981100	3.198700	-9.533800	27.489063	0.000315	20.806470
2133.562335	-3.001900	3.196700	-9.595000	27.492110	0.000314	20.814278
2134.563836	-3.028300	3.199100	-9.687200	27.526880	0.000314	20.812749
2135.563335	-2.998800	3.196400	-9.585300	27.549695	0.000313	20.802514
2136.565747	-2.996800	3.196700	-9.578800	27.509288	0.000311	20.809749
2137.562899	-3.014200	3.194900	-9.629100	27.482222	0.000310	20.820451
2138.565407	-2.985000	3.194800	-9.535400	27.500554	0.000310	20.804755
2139.561057	-3.003600	3.195600	-9.597100	27.530009	0.000309	20.792664
2140.563927	-2.991500	3.194200	-9.555200	27.564736	0.000307	20.790146
2141.562189	-2.970600	3.193700	-9.486400	27.601143	0.000309	20.789795
2142.566551	-2.999700	3.192300	-9.573500	27.635787	0.000309	20.769652
2143.564255	-2.977400	3.193500	-9.507700	27.676677	0.000309	20.800840
2144.563528	-2.994200	3.192600	-9.558500	27.672509	0.000305	20.803284
2145.565014	-3.008300	3.192100	-9.601900	27.712804	0.000304	20.783615
2146.565069	-2.991100	3.192000	-9.546800	27.699709	0.000307	20.805051
2147.568870	-2.996200	3.189700	-9.556200	27.635674	0.000304	20.786608
2148.565567	-3.000800	3.189600	-9.570000	27.630190	0.000302	20.797211
2149.566080	-2.999900	3.189600	-9.567700	27.652061	0.000302	20.791243
2150.566442	-3.004500	3.188500	-9.578400	27.635495	0.000301	20.782161
2151.567761	-2.983200	3.188100	-9.510400	27.676539	0.000300	20.775097
2152.568110	-3.003100	3.189100	-9.576100	27.713309	0.000300	20.781278
2153.567380	-2.994600	3.187800	-9.545500	27.743692	0.000298	20.788619
2154.567507	-2.982100	3.187800	-9.505000	27.726136	0.000298	20.779013
2155.569490	-3.005200	3.186600	-9.576100	27.755446	0.000297	20.789069
2156.566853	-2.993400	3.188100	-9.542100	27.764569	0.000297	20.778809
2157.567016	-3.013200	3.185300	-9.597400	27.794642	0.000297	20.797694
2158.569746	-2.995000	3.185200	-9.538600	27.773619	0.000296	20.794080
2159.568038	-2.974400	3.185400	-9.474100	27.756974	0.000295	20.811469
2160.570402	-3.003300	3.184200	-9.561800	27.753822	0.000294	20.780796
2161.568022	-3.012900	3.184400	-9.593800	27.751662	0.000295	20.795217
2162.567496	-3.014400	3.182400	-9.592100	27.711497	0.000293	20.795102
2163.571838	-2.999100	3.182600	-9.543800	27.695819	0.000294	20.771738
2164.569112	-3.009700	3.180900	-9.572500	27.675281	0.000291	20.777150
2165.570952	-2.997400	3.183600	-9.541700	27.629322	0.000292	20.780690
2166.569493	-3.011200	3.179900	-9.574600	27.573472	0.000290	20.793247
2167.568457	-3.010000	3.181500	-9.575500	27.549991	0.000289	20.771043
2168.568613	-3.022600	3.178600	-9.606300	27.578924	0.000288	20.784034
2169.570442	-3.006400	3.179100	-9.556500	27.591819	0.000289	20.778990
2170.568309	-2.984900	3.179500	-9.489900	27.618386	0.000289	20.793869
2171.567631	-3.007800	3.178000	-9.557500	27.637755	0.000286	20.789176
2172.567002	-3.009900	3.178600	-9.566300	27.648569	0.000285	20.782513
2173.568021	-2.999300	3.179200	-9.533700	27.624187	0.000285	20.773627
2174.572463	-2.981800	3.178500	-9.476400	27.613447	0.000286	20.796485
2175.571761	-2.994700	3.176400	-9.511300	27.644840	0.000284	20.790615
2176.574310	-3.000900	3.175300	-9.528200	27.605160	0.000285	20.777715
2177.569011	-2.958700	3.177200	-9.398600	27.599610	0.000283	20.777347
2178.569026	-3.002300	3.175500	-9.532900	27.555338	0.000282	20.762198
2179.571192	-3.008800	3.174700	-9.551200	27.490505	0.000281	20.768092
2180.569396	-3.004300	3.175800	-9.538600	27.454379	0.000282	20.800973
2181.570116	-3.012700	3.173100	-9.558900	27.422687	0.000280	20.770512
2182.576069	-3.007000	3.172700	-9.537700	27.411871	0.000280	20.752992
2183.570734	-2.995000	3.174000	-9.504600	27.411099	0.000280	20.789201
2184.572245	-3.011800	3.171600	-9.551800	27.395448	0.000278	20.782464
2185.572161	-2.989600	3.172600	-9.482900	27.418389	0.000278	20.779938
2186.570197	-2.970000	3.172400	-9.421200	27.479194	0.000278	20.790378
2187.583540	-2.971000	3.171600	-9.421500	27.547480	0.000277	20.752870
2188.573989	-2.993300	3.171700	-9.493100	27.594605	0.000276	20.767569
2189.572975	-3.006500	3.169200	-9.526700	27.675589	0.000275	20.762287
2190.581018	-3.006500	3.171400	-9.532600	27.701595	0.000275	20.767119
2191.574091	-2.989000	3.169300	-9.471200	27.737453	0.000275	20.760056
2192.577264	-3.012800	3.167000	-9.541400	27.760548	0.000274	20.772392
2193.584069	-3.020000	3.166800	-9.562500	27.727818	0.000272	20.787818
2194.573760	-3.012200	3.166200	-9.536500	27.727022	0.000271	20.768999
2195.585170	-2.995900	3.168000	-9.490000	27.741385	0.000272	20.750261
2196.585943	-2.982200	3.165100	-9.437800	27.770394	0.000272	20.769498
2197.574400	-3.008200	3.164600	-9.518000	27.788696	0.000271	20.772269
2198.575993	-2.974700	3.164700	-9.413400	27.836581	0.000271	20.761666
2199.578388	-2.987600	3.162700	-9.447000	27.880201	0.000270	20.765737
2200.579333	-2.968400	3.163800	-9.390200	27.886974	0.000270	20.756433
2201.581970	-3.011200	3.161700	-9.519300	27.929503	0.000269	20.753244
2202.577997	-3.011500	3.162800	-9.523300	27.895958	0.000269	20.783967
2203.583235	-3.001400	3.164700	-9.496800	27.792034	0.000268	20.755713
2204.583374	-3.007900	3.159900	-9.502100	27.738126	0.000269	20.773061
2205.576637	-2.982800	3.161100	-9.427600	27.718385	0.000266	20.748928
2206.581574	-3.016700	3.158900	-9.529000	27.714714	0.000266	20.757561
2207.579952	-2.988800	3.159400	-9.441700	27.703266	0.000264	20.759792
2208.580106	-2.988600	3.158300	-9.438400	27.751969	0.000264	20.750481
2209.579412	-3.006800	3.156900	-9.491100	27.782294	0.000263	20.736901
2210.581241	-3.017800	3.157100	-9.526700	27.810562	0.000262	20.736901
2211.577968	-3.011900	3.157700	-9.509500	27.853719	0.000261	20.760896
2212.579477	-3.000000	3.158400	-9.473800	27.886543	0.000261	20.735135
2213.579709	-2.999800	3.156400	-9.467200	27.853719	0.000258	20.761370
2214.580402	-3.005800	3.156500	-9.486500	27.809806	0.000258	20.747046
2215.580502	-2.991200	3.154600	-9.435100	27.768938	0.000259	20.738160
2216.583558	-3.014000	3.153800	-9.505000	27.781887	0.000260	20.739811
2217.585372	-3.012400	3.155200	-9.503400	27.817913	0.000259	20.753783
2218.583075	-3.013800	3.152600	-9.501100	27.836653	0.000258	20.766006
2219.585494	-3.005400	3.153100	-9.474400	27.896322	0.000256	20.745926
2220.583158	-3.041300	3.150600	-9.580600	27.920819	0.000256	20.741659
2221.583797	-3.020600	3.150600	-9.515100	27.930932	0.000257	20.737612
2222.588475	-3.026500	3.150600	-9.533900	27.953202	0.000255	20.729682
2223.589283	-3.029500	3.148800	-9.537500	27.953795	0.000254	20.733598
2224.590017	-3.020200	3.149300	-9.510500	27.982157	0.000255	20.765940
2225.583806	-2.976100	3.149600	-9.371700	27.976009	0.000252	20.761648
2226.583823	-3.005100	3.148300	-9.460200	27.933563	0.000253	20.740261
2227.585193	-2.982900	3.147800	-9.389100	27.840089	0.000252	20.734374
2228.586588	-2.965200	3.147400	-9.330200	27.802991	0.000251	20.746826
2229.583727	-3.007400	3.147500	-9.464000	27.768036	0.000251	20.729665
2230.586442	-2.997200	3.144400	-9.423800	27.816483	0.000251	20.731954
2231.585885	-2.995600	3.145200	-9.421100	27.820528	0.000251	20.741241
2232.586848	-3.008800	3.145100	-9.461100	27.851647	0.000251	20.722299
2233.588717	-3.013800	3.143200	-9.472100	27.814679	0.000251	20.745787
2234.586258	-3.000100	3.142400	-9.427000	27.781277	0.000246	20.746310
2235.585344	-2.982400	3.144400	-9.375300	27.746882	0.000249	20.752000
2236.584150	-3.045000	3.140500	-9.561500	27.685052	0.000247	20.739091
2237.586445	-3.017900	3.140800	-9.477100	27.673783	0.000246	20.708784
2238.589470	-3.000400	3.141200	-9.423600	27.696920	0.000246	20.713575
2239.586894	-3.002000	3.141900	-9.430600	27.707059	0.000245	20.743694
2240.588827	-3.020300	3.138400	-9.478200	27.720423	0.000242	20.741020
2241.588276	-3.011000	3.138200	-9.448200	27.687521	0.000246	20.738257
2242.588118	-3.013400	3.137000	-9.451800	27.666683	0.000242	20.719184
2243.588871	-2.957600	3.138000	-9.279900	27.597267	0.000241	20.734210
2244.592280	-3.025000	3.135900	-9.484800	27.578271	0.000242	20.730269
2245.590607	-3.013700	3.137800	-9.455000	27.581423	0.000240	20.712577
2246.589932	-3.001100	3.135400	-9.407700	27.609421	0.000240	20.698074
2247.589034	-3.015300	3.133300	-9.447400	27.675814	0.000241	20.739753
2248.590325	-3.018300	3.133300	-9.455700	27.699666	0.000239	20.728667
2249.592589	-3.007400	3.132700	-9.420000	27.749465	0.000241	20.717614
2250.591418	-3.016200	3.132000	-9.446200	27.802454	0.000240	20.727318
2251.593274	-2.984100	3.133200	-9.349100	27.856708	0.000238	20.710796
2252.592343	-2.975700	3.131800	-9.317600	27.870216	0.000236	20.713011
2253.594146	-3.002300	3.130900	-9.398800	27.899205	0.000239	20.734129
2254.593031	-2.996100	3.129800	-9.376300	27.892895	0.000240	20.708810
2255.592056	-2.991800	3.130200	-9.364300	27.902024	0.000236	20.722266
2256.592398	-3.033800	3.127300	-9.486100	27.943797	0.000237	20.736811
2257.591418	-3.000500	3.126900	-9.381100	27.956199	0.000236	20.702825
2258.599084	-3.015100	3.127800	-9.428300	27.987980	0.000234	20.717746
2259.592613	-3.008300	3.126800	-9.405000	28.039349	0.000236	20.722512
2260.593274	-2.998500	3.125900	-9.371800	28.084593	0.000235	20.718269
2261.592835	-3.007100	3.124200	-9.393400	28.116126	0.000235	20.735789
2262.595443	-3.011600	3.124300	-9.407900	28.132440	0.000233	20.730401
2263.593553	-3.000300	3.123100	-9.369100	28.127926	0.000232	20.729649
2264.593450	-2.999900	3.122800	-9.366900	28.136208	0.000232	20.706218
2265.597750	-3.024900	3.121100	-9.439500	28.107819	0.000233	20.713674
2266.595473	-3.010000	3.122400	-9.396600	28.097952	0.000232	20.708957
2267.596698	-2.996400	3.121200	-9.350800	28.060927	0.000230	20.723370
2268.594220	-2.980000	3.122300	-9.303400	28.041436	0.000230	20.725561
2269.593254	-2.977500	3.120400	-9.290800	28.019078	0.000230	20.707321
2270.594569	-2.992600	3.117900	-9.330000	27.994283	0.000230	20.714606
2271.603185	-3.000000	3.117500	-9.351600	28.010696	0.000229	20.706945
2272.596694	-3.052800	3.115900	-9.509800	27.989328	0.000229	20.709144
2273.600770	-2.985800	3.117800	-9.308000	27.966100	0.000229	20.721326
2274.596565	-3.021100	3.114600	-9.408500	27.915401	0.000227	20.691631
2275.597156	-3.033500	3.113300	-9.443300	27.923060	0.000226	20.717835
2276.600557	-3.001100	3.113400	-9.341400	27.939646	0.000228	20.694698
2277.596873	-2.991100	3.113200	-9.311300	27.980012	0.000229	20.712570
2278.600690	-3.015400	3.112800	-9.385100	27.997100	0.000226	20.706536
2279.603829	-3.017500	3.111300	-9.386100	27.993478	0.000225	20.701467
2280.598233	-2.991600	3.111800	-9.308400	27.935463	0.000226	20.702816
2281.600636	-3.013900	3.110100	-9.372600	27.902437	0.000227	20.709405
2282.599045	-2.996300	3.108100	-9.312100	27.886444	0.000226	20.699946
2283.601997	-3.001900	3.109000	-9.330800	27.890440	0.000224	20.709659
2284.599861	-3.006700	3.107900	-9.343900	27.878411	0.000224	20.703715
2285.601400	-2.999400	3.105600	-9.313900	27.862864	0.000224	20.695654
2286.601410	-2.991600	3.106700	-9.292500	27.908066	0.000225	20.707010
2287.601696	-3.018900	3.104600	-9.372100	27.926024	0.000222	20.706592
2288.601529	-3.003300	3.104400	-9.323300	27.946232	0.000223	20.699430
2289.602450	-2.982000	3.104400	-9.255900	27.984089	0.000222	20.711457
2290.604793	-3.008100	3.101400	-9.328000	28.035036	0.000222	20.709160
2291.600337	-2.988800	3.103200	-9.273500	28.065255	0.000223	20.713027
2292.603629	-2.996800	3.101000	-9.291900	28.121557	0.000222	20.699529
2293.601723	-2.972500	3.101400	-9.217400	28.129735	0.000222	20.696381
2294.603420	-3.009300	3.099700	-9.326000	28.136654	0.000221	20.702873
2295.603398	-2.996200	3.098400	-9.282600	28.107671	0.000222	20.695506
2296.605553	-3.009800	3.098700	-9.325400	28.101182	0.000221	20.686603
2297.608057	-2.990800	3.096800	-9.261000	28.108694	0.000220	20.701278
2298.608966	-3.000100	3.096900	-9.289500	28.093890	0.000219	20.715300
2299.606167	-3.001800	3.095700	-9.291000	28.069494	0.000219	20.697379
2300.606266	-3.015900	3.093100	-9.327200	28.011556	0.000219	20.737684
2301.605112	-2.991900	3.094700	-9.257700	28.050556	0.000217	20.702971
2302.604096	-2.982200	3.092900	-9.222600	28.066847	0.000219	20.716526
2303.607503	-2.981900	3.093100	-9.222700	28.091779	0.000219	20.692310
2304.608321	-2.987800	3.091200	-9.234700	28.052342	0.000220	20.720892
2305.610840	-3.014500	3.089400	-9.311700	28.070339	0.000219	20.705342
2306.605924	-3.001800	3.089700	-9.273700	28.113575	0.000219	20.711882
2307.606445	-3.005700	3.088900	-9.284000	28.128696	0.000217	20.722363
2308.612744	-3.021300	3.087800	-9.328400	28.130263	0.000218	20.688851
2309.606162	-3.003500	3.086900	-9.270100	28.082139	0.000219	20.703944
2310.607692	-3.015600	3.085900	-9.305100	28.056776	0.000217	20.693111
2311.606994	-2.978200	3.086800	-9.191800	28.080799	0.000215	20.697853
2312.608992	-2.995500	3.083500	-9.235200	28.075479	0.000217	20.705775
2313.606454	-2.977400	3.084700	-9.183600	28.076665	0.000218	20.704598
2314.610573	-3.000600	3.082300	-9.247400	28.093744	0.000216	20.702349
2315.606468	-3.003600	3.080300	-9.251200	28.135809	0.000215	20.702022
2316.607983	-3.033300	3.079400	-9.340100	28.159691	0.000216	20.680070
2317.608272	-3.020000	3.080400	-9.302000	28.197330	0.000216	20.705636
2318.606842	-3.000200	3.079000	-9.236400	28.225839	0.000216	20.701148
2319.609303	-3.002200	3.077400	-9.238000	28.262110	0.000214	20.705423
2320.606238	-3.011500	3.077300	-9.266200	28.276060	0.000216	20.700976
2321.608877	-2.984600	3.076700	-9.181700	28.288255	0.000216	20.709462
2322.608606	-2.998300	3.074500	-9.217200	28.326034	0.000214	20.697713
2323.606162	-2.992100	3.074500	-9.198100	28.362684	0.000215	20.683406
2324.608900	-3.009300	3.072000	-9.243700	28.365428	0.000213	20.708457
2325.614989	-2.971300	3.073300	-9.131200	28.405810	0.000215	20.690323
2326.606621	-3.003500	3.071900	-9.225800	28.334032	0.000213	20.718570
2327.607770	-2.976100	3.072600	-9.143500	28.305550	0.000213	20.703641
2328.609810	-2.997300	3.069400	-9.199100	28.299987	0.000215	20.716534
2329.609463	-2.988500	3.068700	-9.169400	28.276628	0.000213	20.694909
2330.614698	-3.012600	3.067300	-9.239200	28.257125	0.000213	20.710361
2331.608804	-3.015600	3.066600	-9.245400	28.280476	0.000214	20.684559
2332.612390	-3.037800	3.065500	-9.311700	28.290780	0.000212	20.703944
2333.610017	-3.017400	3.063900	-9.244500	28.291405	0.000212	20.713583
2334.607989	-2.981300	3.064900	-9.136400	28.307019	0.000210	20.691843
2335.610489	-2.997400	3.062600	-9.178500	28.309090	0.000211	20.706258
2336.611678	-2.966900	3.062800	-9.084600	28.290927	0.000211	20.714049
2337.609466	-2.972200	3.062200	-9.100200	28.317842	0.000211	20.711277
2338.610657	-3.019600	3.058600	-9.233600	28.340227	0.000211	20.722437
2339.611791	-2.995300	3.059600	-9.164100	28.385945	0.000211	20.696398
2340.611412	-3.008100	3.057000	-9.194900	28.388721	0.000211	20.715791
2341.615705	-3.015100	3.057700	-9.218100	28.420538	0.000210	20.688083
2342.612937	-3.002500	3.054800	-9.171600	28.451591	0.000210	20.692801
2343.611089	-3.019800	3.053100	-9.218500	28.493367	0.000212	20.714483
2344.611607	-2.997200	3.053300	-9.150400	28.490842	0.000210	20.701508
2345.610939	-3.001900	3.052500	-9.162800	28.466764	0.000209	20.718988
2346.614621	-3.008500	3.050300	-9.176100	28.455123	0.000211	20.718645
2347.613332	-3.003200	3.050300	-9.159600	28.425288	0.000211	20.701402
2348.614569	-2.991100	3.049300	-9.119000	28.432709	0.000208	20.713617
2349.613891	-2.979800	3.049600	-9.085800	28.416570	0.000209	20.718229
2350.613855	-3.007500	3.047000	-9.161900	28.428585	0.000207	20.705197
2351.617032	-3.015800	3.046700	-9.188400	28.428731	0.000207	20.714354
2352.617635	-3.009100	3.045100	-9.162300	28.388934	0.000206	20.727860
2353.614695	-2.996600	3.042900	-9.117600	28.384120	0.000207	20.697880
2354.616168	-3.008900	3.043700	-9.157400	28.365382	0.000208	20.724533
2355.614284	-2.991700	3.042600	-9.100700	28.328059	0.000207	20.728203
2356.615734	-2.993400	3.040100	-9.098300	28.347602	0.000206	20.708525
2357.616680	-3.001100	3.039600	-9.120600	28.346441	0.000205	20.729169
2358.616213	-2.993300	3.038500	-9.094000	28.346701	0.000206	20.686754
2359.616372	-2.985600	3.037800	-9.069000	28.376197	0.000207	20.712663
2360.617645	-2.993500	3.036300	-9.088500	28.383456	0.000206	20.718549
2361.615767	-2.992600	3.034300	-9.079700	28.418398	0.000204	20.737615
2362.617738	-2.986000	3.034000	-9.057200	28.441041	0.000205	20.703515
2363.619064	-3.020100	3.033300	-9.159500	28.417814	0.000205	20.712844
2364.619358	-3.008300	3.030600	-9.116300	28.431291	0.000204	20.724519
2365.619671	-2.997800	3.030400	-9.084100	28.446952	0.000203	20.704726
2366.616394	-2.997800	3.029500	-9.081200	28.473661	0.000204	20.706492
2367.617235	-3.012900	3.028200	-9.122100	28.492721	0.000205	20.715256
2368.621071	-3.008900	3.028000	-9.108900	28.494621	0.000204	20.738982
2369.620280	-2.996600	3.026100	-9.067500	28.481706	0.000203	20.715543
2370.616268	-2.999400	3.024600	-9.071100	28.506580	0.000204	20.709771
2371.619779	-2.991300	3.022600	-9.039900	28.504120	0.000202	20.735745
2372.617713	-3.009900	3.022000	-9.094900	28.497187	0.000203	20.722125
2373.622682	-2.982500	3.020500	-9.007800	28.424944	0.000203	20.730456
2374.618016	-2.982700	3.020600	-9.007400	28.326894	0.000203	20.727979
2375.622765	-3.013600	3.017500	-9.092600	28.256701	0.000204	20.723213
2376.617367	-3.013500	3.017100	-9.090200	28.224296	0.000202	20.736580
2377.619425	-3.010500	3.014700	-9.074800	28.206821	0.000203	20.724677
2378.620182	-3.005000	3.014500	-9.057700	28.197443	0.000200	20.719976
2379.619399	-3.012500	3.013900	-9.078100	28.190030	0.000200	20.736221
2380.618593	-3.014900	3.011100	-9.077000	28.230452	0.000203	20.734717
2381.619777	-2.979700	3.011100	-8.970400	28.271895	0.000203	20.732820
2382.618875	-3.002500	3.008300	-9.031600	28.334601	0.000202	20.727678
2383.622398	-2.998400	3.008700	-9.020100	28.370462	0.000203	20.749090
2384.621613	-2.982000	3.008700	-8.970500	28.393633	0.000200	20.728324
2385.620676	-3.015100	3.005200	-9.060300	28.387585	0.000201	20.708008
2386.620387	-2.984000	3.006800	-8.970700	28.356360	0.000200	20.725405
2387.619440	-2.992700	3.004800	-8.991300	28.359283	0.000203	20.729771
2388.620040	-2.991100	3.003500	-8.982900	28.361849	0.000202	20.729985
2389.625401	-3.010800	3.000000	-9.031600	28.317274	0.000202	20.734889
2390.622948	-2.991000	3.000700	-8.974500	28.305518	0.000200	20.730164
2391.620565	-2.999600	2.999200	-8.995800	28.331077	0.000204	20.748787
2392.619920	-3.005900	2.997200	-9.008500	28.381212	0.000202	20.728619
2393.620183	-3.022400	2.996100	-9.054400	28.424874	0.000201	20.722798
2394.622895	-2.992800	2.994400	-8.961000	28.381424	0.000202	20.745428
2395.622374	-3.006800	2.994300	-9.002200	28.386806	0.000200	20.740891
2396.622865	-3.005400	2.991800	-8.991000	28.406754	0.000200	20.714034
2397.620795	-3.014700	2.989600	-9.011300	28.405073	0.000200	20.732731
2398.634697	-3.001500	2.989300	-8.971900	28.414961	0.000200	20.730835
2399.626989	-2.956100	2.989700	-8.837100	28.454221	0.000200	20.748085
2400.624569	-2.995100	2.987200	-8.946300	28.500186	0.000202	20.736525
2401.621069	-3.010600	2.985200	-8.986300	28.523776	0.000200	20.743687
2402.622294	-3.011500	2.983000	-8.982100	28.587733	0.000201	20.745984
2403.622649	-3.018900	2.981800	-9.000300	28.611695	0.000203	20.750202
2404.623405	-2.991000	2.980700	-8.913700	28.625599	0.000199	20.728643
2405.627602	-2.981200	2.980400	-8.883100	28.652879	0.000199	20.743792
2406.623836	-2.986900	2.979000	-8.896700	28.676344	0.000199	20.741822
2407.630759	-3.000700	2.977500	-8.933600	28.671483	0.000199	20.734080
2408.624724	-2.980600	2.975800	-8.868500	28.660817	0.000199	20.745149
2409.623055	-2.989800	2.975400	-8.894700	28.613602	0.000200	20.741218
2410.625041	-2.985500	2.972800	-8.873900	28.584745	0.000199	20.733965
2411.624585	-2.999600	2.970200	-8.908400	28.611734	0.000198	20.752613
2412.624945	-2.969300	2.971000	-8.820900	28.582887	0.000199	20.745844
2413.623508	-2.996500	2.968700	-8.895100	28.541846	0.000199	20.751453
2414.625847	-3.001600	2.966300	-8.902400	28.491914	0.000198	20.738151
2415.625632	-3.011300	2.966000	-8.929200	28.432237	0.000200	20.765776
2416.628919	-2.994900	2.964800	-8.878900	28.409887	0.000198	20.748485
2417.625902	-3.006400	2.963200	-8.907500	28.415765	0.000199	20.746343
2418.627039	-3.001900	2.960500	-8.885900	28.424735	0.000198	20.742574
2419.626273	-2.986400	2.960700	-8.840400	28.409521	0.000200	20.723934
2420.625075	-3.017300	2.957600	-8.923200	28.417672	0.000199	20.757748
2421.629033	-3.002100	2.958200	-8.879900	28.462055	0.000198	20.749809
2422.626678	-3.012600	2.955500	-8.902800	28.509139	0.000199	20.755499
2423.628942	-3.025500	2.953100	-8.933900	28.540116	0.000197	20.756824
2424.629616	-2.989900	2.953000	-8.828500	28.591783	0.000198	20.759072
2425.630126	-2.998800	2.951000	-8.848100	28.603894	0.000199	20.759416
2426.633435	-2.977800	2.949600	-8.782300	28.609275	0.000197	20.741127
2427.634832	-3.009500	2.947100	-8.867900	28.630339	0.000198	20.762342
2428.628588	-3.004900	2.945600	-8.850500	28.651645	0.000199	20.767681
2429.632126	-2.995200	2.944900	-8.819500	28.673349	0.000200	20.753979
2430.634456	-2.998900	2.941700	-8.821300	28.683470	0.000198	20.755638
2431.630567	-2.976600	2.941900	-8.754600	28.651970	0.000198	20.761843
2432.639174	-3.009400	2.939300	-8.844300	28.665354	0.000197	20.786230
2433.632025	-3.000600	2.936700	-8.811200	28.659429	0.000196	20.754657
2434.634041	-2.995700	2.936600	-8.796200	28.639957	0.000197	20.753063
2435.632866	-2.987400	2.935400	-8.767400	28.624404	0.000198	20.755891
2436.632140	-3.028200	2.932800	-8.880100	28.611798	0.000200	20.746039
2437.635431	-2.988100	2.932200	-8.760200	28.596377	0.000197	20.766069
2438.632875	-2.988500	2.928400	-8.750800	28.556642	0.000198	20.766355
2439.634712	-2.994200	2.928700	-8.768000	28.545196	0.000196	20.757672
2440.635980	-3.028200	2.925500	-8.857900	28.567722	0.000198	20.771350
2441.634664	-3.038200	2.924900	-8.884800	28.573372	0.000196	20.761392
2442.633333	-2.996100	2.923200	-8.757900	28.596570	0.000197	20.771006
2443.637932	-2.982400	2.922700	-8.716100	28.643397	0.000197	20.756528
2444.634789	-2.990800	2.920800	-8.734600	28.675636	0.000198	20.769085
2445.635030	-3.014500	2.918600	-8.797700	28.698630	0.000197	20.754786
2446.634156	-2.994100	2.917200	-8.733100	28.750508	0.000197	20.759626
2447.639566	-2.987200	2.914800	-8.705400	28.794950	0.000201	20.760296
2448.639928	-2.993900	2.913200	-8.721000	28.811976	0.000198	20.770809
2449.634938	-2.995500	2.912300	-8.722300	28.833052	0.000197	20.761220
2450.638151	-3.000300	2.910700	-8.731900	28.839600	0.000197	20.775878
2451.635922	-3.002000	2.908800	-8.731400	28.815327	0.000197	20.775134
2452.635635	-2.998400	2.907900	-8.718300	28.773776	0.000199	20.764572
2453.637378	-2.996700	2.905400	-8.705000	28.779254	0.000197	20.771986
2454.634858	-3.005000	2.903300	-8.723000	28.736167	0.000198	20.768888
2455.634844	-2.989300	2.902000	-8.673800	28.708572	0.000195	20.786138
2456.634177	-3.019500	2.899600	-8.753600	28.715982	0.000197	20.761833
2457.638606	-2.995600	2.898800	-8.682400	28.727928	0.000197	20.771495
2458.642662	-3.016300	2.895400	-8.732400	28.712272	0.000196	20.776588
2459.635964	-3.028600	2.892700	-8.759700	28.692079	0.000197	20.770473
2460.635120	-2.986700	2.894300	-8.643400	28.647503	0.000195	20.763508
2461.637023	-3.000500	2.891200	-8.673100	28.655506	0.000199	20.784846
2462.635741	-3.021600	2.887000	-8.722000	28.671268	0.000196	20.774643
2463.636977	-3.002400	2.886600	-8.665300	28.702711	0.000196	20.787347
2464.639400	-3.020600	2.883500	-8.709000	28.750840	0.000197	20.753796
2465.636651	-2.993800	2.882600	-8.629400	28.782978	0.000198	20.779058
2466.640802	-3.024600	2.880300	-8.710400	28.803884	0.000195	20.780202
2467.636076	-3.000900	2.878900	-8.638000	28.885556	0.000196	20.761955
2468.637402	-2.984200	2.879100	-8.590500	28.884939	0.000197	20.787413
2469.639942	-2.968400	2.875800	-8.535900	28.869358	0.000196	20.784045
2470.642861	-2.990200	2.875900	-8.597200	28.858054	0.000195	20.786882
2471.639102	-2.987600	2.871700	-8.579100	28.852033	0.000198	20.778445
2472.642427	-2.982100	2.871200	-8.560600	28.833255	0.000196	20.787503
2473.640276	-3.018400	2.867200	-8.653900	28.831396	0.000197	20.779941
2474.640853	-2.992100	2.865300	-8.572300	28.834423	0.000197	20.784413
2475.638099	-2.998700	2.864000	-8.587600	28.813437	0.000198	20.772281
2476.639636	-3.001700	2.861400	-8.588100	28.820295	0.000195	20.782034
2477.638776	-2.984700	2.860300	-8.536100	28.835113	0.000196	20.782737
2478.637651	-2.978400	2.858000	-8.510300	28.842068	0.000196	20.772674
2479.638896	-3.026500	2.853600	-8.635200	28.863768	0.000196	20.792638
2480.640295	-3.022900	2.853000	-8.623200	28.876727	0.000196	20.792891
2481.638648	-3.005200	2.852400	-8.571900	28.879122	0.000194	20.777285
2482.640141	-3.008300	2.849300	-8.571100	28.895376	0.000198	20.791289
2483.640434	-3.000500	2.849800	-8.549300	28.926536	0.000195	20.793284
2484.640890	-2.981300	2.846300	-8.485200	28.947374	0.000195	20.779664
2485.645254	-3.012800	2.843900	-8.567600	28.933377	0.000195	20.771726
2486.640162	-2.969800	2.842100	-8.439400	28.914251	0.000194	20.817416
2487.640832	-2.991500	2.840500	-8.496700	28.908822	0.000194	20.804361
2488.639425	-3.004200	2.836900	-8.521300	28.903052	0.000196	20.797600
2489.639104	-2.999600	2.835300	-8.503700	28.921732	0.000196	20.802194
2490.639590	-3.009200	2.833200	-8.525000	28.983531	0.000197	20.801393
2491.643886	-2.989800	2.831100	-8.463100	28.989471	0.000196	20.796946
2492.642509	-2.986300	2.828500	-8.446400	29.003500	0.000196	20.797804
2493.642329	-3.009100	2.825200	-8.499700	28.936266	0.000195	20.807827
2494.642701	-2.968900	2.825000	-8.386800	28.884648	0.000195	20.805612
2495.643018	-2.960000	2.823500	-8.356600	28.781860	0.000195	20.786466
2496.649049	-3.033300	2.817800	-8.545300	28.765637	0.000196	20.811375
2497.641603	-2.988500	2.818100	-8.421000	28.749737	0.000196	20.792041
2498.645920	-3.001800	2.814400	-8.447300	28.746808	0.000196	20.804263
2499.643956	-2.992300	2.814500	-8.420600	28.795023	0.000194	20.788820
2500.642718	-2.992600	2.811000	-8.411300	28.837313	0.000196	20.800600
2501.650167	-3.019900	2.806400	-8.474400	28.896098	0.000196	20.800551
2502.644579	-3.016900	2.805200	-8.461900	28.901567	0.000196	20.800371
2503.646045	-3.002000	2.802500	-8.413100	28.915492	0.000196	20.810606
2504.645467	-3.035100	2.799300	-8.494700	28.872143	0.000196	20.805342
2505.646040	-2.982500	2.798800	-8.345900	28.824336	0.000195	20.799856
2506.645916	-2.996900	2.795300	-8.376700	28.841995	0.000195	20.802946
2507.648190	-2.994100	2.792800	-8.360700	28.839495	0.000196	20.815601
2508.644469	-3.013100	2.789800	-8.405100	28.822599	0.000194	20.809960
2509.644420	-3.025700	2.786500	-8.428900	28.819224	0.000195	20.817939
2510.645571	-2.981300	2.785700	-8.304500	28.787467	0.000195	20.815348
2511.649817	-2.995600	2.781300	-8.331200	28.781673	0.000196	20.809985
2512.649889	-2.989600	2.778700	-8.305500	28.820797	0.000197	20.816206
2513.646727	-2.994200	2.776400	-8.312200	28.855774	0.000196	20.807344
2514.649102	-3.011300	2.774900	-8.355300	28.910412	0.000196	20.834886
2515.647641	-3.017800	2.771300	-8.361800	28.952956	0.000197	20.813737
2516.648622	-3.012700	2.768500	-8.338000	28.978370	0.000193	20.826539
2517.648308	-3.018600	2.764800	-8.344900	28.951820	0.000196	20.813540
2518.651155	-2.999200	2.763400	-8.286600	28.951195	0.000194	20.808644
2519.648246	-3.004300	2.760100	-8.290900	28.995556	0.000195	20.811611
2520.647843	-2.998000	2.756800	-8.264000	29.017731	0.000195	20.807401
2521.647505	-3.005900	2.754900	-8.279400	28.974515	0.000194	20.830241
2522.646691	-2.982500	2.751800	-8.206600	28.982264	0.000195	20.828091
2523.648228	-3.006000	2.747100	-8.257100	28.974881	0.000196	20.811170
2524.646850	-2.999100	2.743800	-8.227000	28.958416	0.000196	20.817341
2525.651670	-2.997100	2.742700	-8.218700	28.965776	0.000197	20.803419
2526.648165	-2.967200	2.739400	-8.126400	28.962571	0.000195	20.813941
2527.650375	-3.005800	2.737100	-8.225700	28.960072	0.000197	20.828018
2528.652785	-3.002300	2.733400	-8.205400	28.964998	0.000195	20.833454
2529.650676	-2.995200	2.729900	-8.176300	28.944980	0.000193	20.815658
2530.650111	-3.002300	2.724700	-8.179400	28.971237	0.000193	20.826939
2531.650283	-2.989600	2.724000	-8.143100	28.958279	0.000197	20.851815
2532.651431	-3.005500	2.719800	-8.173600	28.996668	0.000195	20.804197
2533.649780	-3.040300	2.713900	-8.249100	28.993715	0.000195	20.834886
2534.651055	-3.007900	2.711900	-8.156200	29.053781	0.000194	20.814800
2535.651734	-3.008700	2.709200	-8.149800	29.048524	0.000194	20.844115
2536.650933	-2.973100	2.706400	-8.045700	29.096077	0.000195	20.841295
2537.650726	-2.983100	2.702900	-8.060500	29.140780	0.000196	20.842243
2538.655872	-3.014100	2.698400	-8.131800	29.163958	0.000194	20.816763
2539.652836	-3.030600	2.694200	-8.164300	29.128367	0.000194	20.823098
2540.652959	-2.986400	2.690300	-8.032600	29.161727	0.000193	20.832532
2541.649344	-2.990300	2.687800	-8.036500	29.177060	0.000194	20.820482
2542.655742	-3.000700	2.682100	-8.046600	29.200823	0.000197	20.830203
2543.655602	-2.992300	2.680400	-8.019300	29.180841	0.000194	20.828085
2544.654670	-2.981300	2.675800	-7.976200	29.208424	0.000196	20.859199
2545.652182	-3.020300	2.671300	-8.066400	29.206915	0.000194	20.841557
2546.652888	-2.962300	2.669500	-7.906900	29.197756	0.000195	20.841337
2547.653334	-2.989800	2.663500	-7.962100	29.210979	0.000196	20.838067
2548.652374	-3.003700	2.659600	-7.987200	29.170409	0.000195	20.838435
2549.660913	-2.981000	2.655700	-7.915400	29.171731	0.000196	20.835500
2550.655175	-3.010200	2.651500	-7.979600	29.163951	0.000195	20.838565
2551.660425	-3.008100	2.647700	-7.964000	29.192929	0.000195	20.835524
2552.655797	-2.986300	2.642300	-7.890100	29.211847	0.000197	20.845579
2553.656037	-3.008800	2.639300	-7.939300	29.221111	0.000197	20.835475
2554.657122	-2.973200	2.634900	-7.833200	29.234359	0.000196	20.845506
2555.657759	-2.989600	2.630200	-7.861400	29.208180	0.000195	20.864643
2556.657260	-3.006500	2.624900	-7.889600	29.217940	0.000196	20.839391
2557.655504	-3.001800	2.621700	-7.868400	29.254842	0.000196	20.845285
2558.657682	-2.996600	2.615700	-7.836100	29.316029	0.000198	20.840094
2559.663357	-2.998600	2.610200	-7.825000	29.332666	0.000196	20.845955
2560.657757	-2.982400	2.606400	-7.772500	29.341507	0.000197	20.821676
2561.661823	-2.997500	2.601300	-7.795500	29.331952	0.000197	20.840968
2562.658226	-3.009200	2.594300	-7.806000	29.335635	0.000196	20.832827
2563.656841	-2.996000	2.591600	-7.762900	29.307463	0.000196	20.839521
2564.658477	-3.020100	2.583400	-7.801200	29.340096	0.000199	20.813615
2565.662985	-2.982900	2.578500	-7.690200	29.362215	0.000196	20.824054
2566.660100	-2.961300	2.574600	-7.622500	29.357681	0.000196	20.822330
2567.658259	-3.007500	2.568800	-7.724700	29.377537	0.000197	20.830962
2568.658875	-3.016100	2.561600	-7.724900	29.389874	0.000196	20.826801
2569.660346	-3.049700	2.555300	-7.791600	29.373035	0.000196	20.823106
2570.664317	-3.009000	2.550000	-7.671100	29.403914	0.000197	20.826253
2571.660778	-3.020100	2.544700	-7.684000	29.412552	0.000197	20.825477
2572.662885	-3.004300	2.538100	-7.623900	29.441669	0.000198	20.815471
2573.659464	-3.002000	2.533100	-7.603200	29.496212	0.000199	20.831093
2574.661580	-2.995600	2.527300	-7.570200	29.537038	0.000196	20.823408
2575.666425	-3.009700	2.521300	-7.587300	29.569615	0.000197	20.817367
2576.667255	-2.987800	2.515500	-7.514300	29.619545	0.000195	20.853001
2577.660143	-3.003300	2.509600	-7.534600	29.657600	0.000197	20.815977
2578.661657	-2.999700	2.502600	-7.506200	29.636760	0.000198	20.817252
2579.661675	-2.993700	2.496700	-7.473400	29.652451	0.000196	20.821217
