LabVIEW Measurement	
Writer_Version	2
Reader_Version	2
Separator	Tab
Decimal_Separator	.
Multi_Headings	No
X_Columns	One
Time_Pref	Absolute
Operator	admin
Description	Clolumns are: time, Current, Voltage, Power, Battery Temp, and Chamber Temp
Date	2024/08/16
Time	13:06:06.104549407958984375
***End_of_Header***	
	
Channels	6						
Samples	1	1	1	1	1	1	
Date	2024/08/23	2024/08/23	2024/08/23	2024/08/23	2024/08/23	2024/08/23	
Time	06:11:15.2853374481201171875	06:11:15.2923994064331054688	06:11:15.2993869781494140625	06:11:15.267078399658203125	06:11:15.267078399658203125	06:11:15.267078399658203125	
X_Dimension	Time	Time	Time	Time	Time	Time	
X0	0.0000000000000000E+0	0.0000000000000000E+0	0.0000000000000000E+0	0.0000000000000000E+0	0.0000000000000000E+0	0.0000000000000000E+0	
Delta_X	1.000000	1.000000	1.000000	1.000000	1.000000	1.000000	
***End_of_Header***							
X_Value	Untitled	Untitled 1	Untitled 2	Untitled 3	Untitled 4	Untitled 5	Comment
0.000000	-0.002200	4.108200	-0.009018	21.104409	0.000971	20.861208
1.003847	-3.028200	3.953200	-11.967000	21.098093	0.000970	20.857260
2.001562	-2.991300	3.948500	-11.811000	21.092226	0.000969	20.859452
3.001967	-3.006700	3.940700	-11.848000	21.107272	0.000968	20.840838
4.001895	-3.000900	3.938500	-11.818000	21.110467	0.000969	20.848775
4.999565	-3.016600	3.935500	-11.871000	21.128042	0.000966	20.853078
6.003205	-3.019700	3.931400	-11.871000	21.115176	0.000967	20.851115
7.007843	-3.003500	3.928200	-11.797000	21.092391	0.000963	20.844445
8.004663	-3.006700	3.925300	-11.801000	21.104642	0.000964	20.855277
9.004239	-3.007300	3.925800	-11.805000	21.121928	0.000963	20.844593
10.003508	-3.008700	3.922800	-11.800000	21.124299	0.000963	20.844119
11.002938	-3.027000	3.920100	-11.865000	21.112564	0.000962	20.836649
12.002387	-3.026900	3.919300	-11.862000	21.090039	0.000962	20.841145
13.005354	-2.995700	3.918500	-11.737000	21.129580	0.000961	20.836126
14.004678	-2.994000	3.917700	-11.728000	21.134745	0.000959	20.841292
15.003870	-2.995000	3.915700	-11.726000	21.120254	0.000960	20.848608
16.004112	-2.990900	3.915300	-11.710000	21.125314	0.000957	20.836600
17.006822	-2.996200	3.914000	-11.726000	21.124366	0.000957	20.845134
18.011933	-2.991200	3.911900	-11.700000	21.142828	0.000957	20.826144
19.014133	-2.989900	3.912300	-11.697000	21.137558	0.000958	20.823244
20.008688	-3.012100	3.909900	-11.776000	21.140556	0.000957	20.833355
21.011291	-3.001800	3.909200	-11.734000	21.145795	0.000955	20.827690
22.011940	-2.982500	3.909600	-11.659000	21.160113	0.000956	20.833952
23.018292	-2.996000	3.908500	-11.707000	21.153846	0.000954	20.817252
24.011086	-2.999900	3.907300	-11.720000	21.134437	0.000955	20.811587
25.009745	-2.991400	3.906100	-11.683000	21.175004	0.000956	20.832252
26.010932	-2.995400	3.905300	-11.698000	21.167666	0.000953	20.828231
27.010805	-3.004200	3.904400	-11.728000	21.163917	0.000950	20.826377
28.018024	-2.999100	3.903200	-11.705000	21.175521	0.000953	20.834666
29.009853	-3.021200	3.902700	-11.789000	21.180637	0.000951	20.844998
30.008818	-2.978700	3.903100	-11.625000	21.169057	0.000951	20.811605
31.016545	-3.001400	3.902300	-11.712000	21.191661	0.000953	20.829949
32.010202	-2.980200	3.902100	-11.628000	21.198322	0.000951	20.827129
33.011362	-3.005800	3.900100	-11.722000	21.209329	0.000952	20.808268
34.012376	-3.009700	3.900900	-11.740000	21.212222	0.000951	20.841033
35.010284	-3.019000	3.901200	-11.776000	21.218390	0.000949	20.828238
36.009066	-2.999700	3.901100	-11.701000	21.211003	0.000950	20.817529
37.011986	-3.039000	3.897300	-11.842000	21.215964	0.000949	20.827234
38.011909	-2.989700	3.898800	-11.655000	21.236518	0.000947	20.804173
39.018767	-2.992100	3.898300	-11.663000	21.231606	0.000947	20.810164
40.011251	-2.990800	3.897200	-11.655000	21.232178	0.000949	20.828754
41.018175	-2.989500	3.897700	-11.651000	21.233403	0.000946	20.813385
42.015460	-2.995100	3.896100	-11.668000	21.212351	0.000947	20.796593
43.012826	-2.978400	3.895800	-11.602000	21.248268	0.000947	20.811661
44.015917	-2.996500	3.894700	-11.668000	21.252510	0.000946	20.804998
45.011035	-3.007600	3.895200	-11.714000	21.261663	0.000947	20.803249
46.014930	-3.001300	3.894100	-11.685000	21.246028	0.000945	20.809420
47.012386	-2.986100	3.895500	-11.632000	21.260746	0.000945	20.801858
48.010211	-2.982800	3.894400	-11.615000	21.236739	0.000946	20.819567
49.011462	-3.025600	3.893700	-11.780000	21.275955	0.000944	20.813280
50.016212	-2.996400	3.893100	-11.665000	21.279069	0.000944	20.810232
51.017375	-2.980400	3.893600	-11.604000	21.287502	0.000944	20.807762
52.013460	-3.003400	3.891700	-11.687000	21.288531	0.000943	20.804050
53.017441	-3.017000	3.891800	-11.740000	21.285354	0.000944	20.817467
54.024347	-2.987200	3.893700	-11.630000	21.314240	0.000944	20.796106
55.018282	-3.015900	3.892000	-11.736000	21.316283	0.000941	20.801469
56.018184	-3.018000	3.890600	-11.740000	21.322149	0.000942	20.808760
57.014762	-2.996400	3.890800	-11.658000	21.322241	0.000944	20.796050
58.015159	-2.989200	3.891900	-11.632000	21.339451	0.000942	20.804258
59.018177	-2.992300	3.890700	-11.641000	21.323730	0.000942	20.831204
60.019843	-3.004700	3.890500	-11.688000	21.344590	0.000942	20.802762
61.022424	-3.008700	3.889200	-11.701000	21.336305	0.000941	20.805853
62.017650	-2.986900	3.891100	-11.622000	21.360567	0.000942	20.794565
63.020666	-2.994200	3.889400	-11.644000	21.363491	0.000943	20.822146
64.017881	-2.998900	3.888900	-11.661000	21.353403	0.000941	20.813949
65.016688	-3.020600	3.887600	-11.742000	21.366328	0.000940	20.790845
66.023711	-3.002400	3.886800	-11.668000	21.368322	0.000939	20.820815
67.016944	-3.021100	3.887400	-11.743000	21.387223	0.000940	20.816018
68.021295	-3.010300	3.886700	-11.700000	21.383179	0.000939	20.798696
69.018254	-2.995600	3.887700	-11.644000	21.390909	0.000938	20.776084
70.016336	-2.997600	3.887300	-11.652000	21.395045	0.000939	20.798714
71.019329	-2.999700	3.886600	-11.658000	21.401704	0.000939	20.803954
72.018331	-3.003800	3.886100	-11.672000	21.425498	0.000940	20.779397
73.020479	-2.986300	3.887500	-11.608000	21.439111	0.000937	20.799182
74.019711	-3.000300	3.885200	-11.656000	21.426341	0.000938	20.797310
75.021099	-3.014300	3.885200	-11.710000	21.410523	0.000937	20.797605
76.023865	-3.005600	3.885400	-11.677000	21.406584	0.000938	20.800302
77.024710	-2.996300	3.885600	-11.641000	21.433042	0.000937	20.797851
78.016858	-2.992300	3.886200	-11.627000	21.432255	0.000938	20.783787
79.032124	-2.998900	3.884600	-11.649000	21.447518	0.000937	20.800955
80.016735	-2.980000	3.884100	-11.573000	21.465796	0.000936	20.783682
81.016724	-3.006600	3.883300	-11.675000	21.467926	0.000937	20.789132
82.021890	-2.995200	3.883800	-11.632000	21.486875	0.000935	20.791022
83.021606	-2.995000	3.884300	-11.632000	21.488100	0.000935	20.794145
84.016590	-2.978300	3.883200	-11.564000	21.482087	0.000935	20.791447
85.023845	-2.996400	3.882300	-11.631000	21.486463	0.000937	20.795352
86.022165	-3.020700	3.881200	-11.723000	21.500027	0.000935	20.790906
87.015762	-3.006500	3.882600	-11.672000	21.498587	0.000938	20.795155
88.022483	-3.018800	3.881400	-11.715000	21.488832	0.000937	20.781128
89.019998	-2.995100	3.881700	-11.624000	21.512975	0.000935	20.773516
90.021842	-3.001500	3.881500	-11.650000	21.517492	0.000938	20.785149
91.023161	-3.000600	3.881500	-11.646000	21.518693	0.000936	20.768806
92.020137	-3.006200	3.881500	-11.667000	21.523456	0.000937	20.774046
93.027019	-2.982200	3.882200	-11.576000	21.508489	0.000937	20.767131
94.021073	-3.000500	3.879900	-11.641000	21.536748	0.000935	20.764114
95.026726	-2.998900	3.882300	-11.642000	21.554705	0.000936	20.796781
96.021210	-3.005000	3.882700	-11.666000	21.544231	0.000935	20.756903
97.022890	-3.003200	3.881700	-11.656000	21.572034	0.000936	20.779034
98.023581	-2.999000	3.880700	-11.638000	21.565825	0.000935	20.772347
99.025843	-2.985700	3.881500	-11.588000	21.552533	0.000937	20.760942
100.025714	-2.994300	3.879800	-11.615000	21.574526	0.000936	20.781528
101.024927	-3.011100	3.878400	-11.676000	21.573301	0.000935	20.776509
102.037374	-2.999800	3.879100	-11.635000	21.575123	0.000937	20.783073
103.024081	-2.998200	3.880800	-11.635000	21.572827	0.000937	20.772716
104.032983	-2.995100	3.879800	-11.619000	21.604869	0.000938	20.771589
105.024700	-2.996000	3.880200	-11.624000	21.609583	0.000938	20.782470
106.033514	-2.994700	3.877400	-11.609000	21.621804	0.000936	20.761982
107.028462	-2.999100	3.878200	-11.630000	21.620400	0.000936	20.753465
108.033566	-3.002700	3.877100	-11.641000	21.613188	0.000935	20.760947
109.028388	-2.987700	3.879500	-11.589000	21.606930	0.000938	20.771754
110.034190	-3.000200	3.876500	-11.628000	21.611299	0.000937	20.774230
111.030226	-3.005400	3.876800	-11.650000	21.621379	0.000936	20.737849
112.027469	-3.014300	3.876500	-11.684000	21.612481	0.000936	20.764033
113.030578	-3.008800	3.876400	-11.662000	21.612745	0.000938	20.760504
114.028698	-3.004900	3.876900	-11.649000	21.610555	0.000937	20.774908
115.034761	-2.975400	3.878600	-11.540000	21.624819	0.000938	20.747455
116.029320	-3.000700	3.876800	-11.633000	21.634018	0.000937	20.754765
117.032169	-2.989300	3.877200	-11.588000	21.634867	0.000938	20.778374
118.031477	-2.993900	3.877400	-11.606000	21.643076	0.000937	20.736328
119.031372	-2.995500	3.875400	-11.608000	21.641925	0.000938	20.752720
120.031917	-2.972000	3.876500	-11.520000	21.642122	0.000938	20.746753
121.031160	-3.002500	3.876600	-11.638000	21.640005	0.000939	20.756489
122.035738	-3.007500	3.875700	-11.655000	21.658631	0.000938	20.758533
123.032573	-2.970800	3.877200	-11.517000	21.674396	0.000939	20.765776
124.033504	-2.999600	3.875600	-11.624000	21.672894	0.000940	20.762850
125.033556	-2.998400	3.874600	-11.616000	21.658779	0.000940	20.772906
126.039461	-3.004300	3.874500	-11.640000	21.688929	0.000940	20.748551
127.037151	-2.988000	3.875900	-11.580000	21.669276	0.000940	20.766342
128.031842	-2.997700	3.873800	-11.611000	21.713713	0.000940	20.758182
129.036180	-3.001200	3.874700	-11.628000	21.714735	0.000942	20.765369
130.034315	-3.007500	3.873200	-11.648000	21.734086	0.000942	20.760553
131.043861	-3.023900	3.872600	-11.709000	21.719171	0.000939	20.756532
132.038471	-3.011200	3.874900	-11.667000	21.730173	0.000939	20.748102
133.039011	-2.986500	3.874300	-11.570000	21.729741	0.000940	20.759524
134.040165	-2.999500	3.873500	-11.617000	21.755479	0.000939	20.729806
135.042077	-3.028700	3.872800	-11.728000	21.781837	0.000940	20.755713
136.041046	-3.003300	3.873200	-11.632000	21.739648	0.000941	20.756163
137.043195	-2.995500	3.872400	-11.598000	21.753676	0.000943	20.773047
138.040239	-3.000500	3.871800	-11.616000	21.754107	0.000941	20.736967
139.037467	-3.009100	3.873500	-11.655000	21.757989	0.000939	20.745595
140.037715	-3.000400	3.870800	-11.613000	21.772731	0.000939	20.764617
141.040881	-3.015300	3.872000	-11.674000	21.770842	0.000940	20.740441
142.045895	-2.997300	3.872900	-11.606000	21.777272	0.000941	20.746402
143.041932	-3.003700	3.871000	-11.625000	21.786999	0.000940	20.756138
144.046377	-3.002100	3.870800	-11.620000	21.779942	0.000940	20.740539
145.043972	-3.012000	3.871400	-11.660000	21.772436	0.000941	20.762899
146.043519	-3.001200	3.870400	-11.614000	21.796899	0.000940	20.749924
147.041439	-3.018500	3.870700	-11.682000	21.799870	0.000942	20.759063
148.044672	-2.982500	3.871900	-11.547000	21.817504	0.000942	20.734037
149.041340	-2.989700	3.870700	-11.572000	21.825224	0.000941	20.735601
150.040641	-3.019500	3.869500	-11.683000	21.841429	0.000942	20.760356
151.042496	-3.006600	3.869100	-11.632000	21.850111	0.000942	20.737276
152.041480	-3.004700	3.868300	-11.622000	21.856571	0.000939	20.766977
153.047825	-3.024900	3.867900	-11.697000	21.860139	0.000943	20.737831
154.042941	-3.017200	3.869800	-11.674000	21.860139	0.000942	20.751582
155.044780	-3.010700	3.868700	-11.646000	21.859444	0.000943	20.724806
156.045742	-3.000500	3.868400	-11.606000	21.873631	0.000942	20.730946
157.042251	-3.004200	3.868900	-11.622000	21.867399	0.000943	20.732769
158.051637	-2.991400	3.869600	-11.574000	21.886845	0.000943	20.713352
159.057979	-3.001500	3.867500	-11.607000	21.886827	0.000943	20.743207
160.047479	-3.002900	3.868100	-11.615000	21.896203	0.000941	20.733151
161.048033	-2.974100	3.869800	-11.509000	21.899772	0.000944	20.731033
162.048155	-3.019000	3.867200	-11.675000	21.900866	0.000943	20.718852
163.051816	-3.006600	3.866800	-11.625000	21.920965	0.000942	20.713365
164.051536	-3.006200	3.868000	-11.627000	21.908852	0.000943	20.723052
165.051329	-2.988900	3.867400	-11.558000	21.897687	0.000945	20.726101
166.045901	-2.992600	3.866600	-11.570000	21.921052	0.000945	20.731945
167.050434	-2.990000	3.866900	-11.561000	21.941722	0.000944	20.737937
168.048068	-3.014800	3.865700	-11.653000	21.928305	0.000944	20.721661
169.052117	-3.020000	3.865000	-11.672000	21.913774	0.000945	20.731299
170.046675	-2.994600	3.866800	-11.579000	21.930409	0.000947	20.713810
171.051646	-2.993400	3.866100	-11.571000	21.905981	0.000945	20.705004
172.051080	-3.019200	3.863200	-11.663000	21.929198	0.000948	20.722081
173.052412	-2.981900	3.866100	-11.527000	21.932139	0.000948	20.721705
174.056694	-3.014000	3.865700	-11.650000	21.938100	0.000948	20.717241
175.050400	-3.023300	3.862500	-11.675000	21.954851	0.000947	20.703662
176.054243	-3.011700	3.864100	-11.637000	21.964934	0.000949	20.719920
177.050654	-3.010600	3.864000	-11.632000	21.966952	0.000947	20.721466
178.055349	-2.987400	3.865900	-11.548000	21.987449	0.000947	20.708793
179.053807	-3.019700	3.862500	-11.663000	21.991466	0.000950	20.727514
180.058354	-3.003000	3.864900	-11.606000	21.998669	0.000949	20.712913
181.052321	-3.001500	3.865000	-11.600000	21.996793	0.000948	20.727630
182.055726	-2.996000	3.863600	-11.574000	22.012707	0.000947	20.707050
183.056174	-2.985400	3.863800	-11.534000	22.033930	0.000950	20.716442
184.053197	-2.988400	3.863100	-11.544000	22.035123	0.000950	20.713369
185.059325	-2.993600	3.862900	-11.563000	22.042553	0.000950	20.716541
186.053722	-2.988400	3.865300	-11.550000	22.059629	0.000951	20.710401
187.058955	-2.989100	3.862600	-11.543000	22.071445	0.000955	20.699470
188.058851	-2.987200	3.862900	-11.539000	22.057784	0.000951	20.700018
189.058166	-2.988600	3.863400	-11.546000	22.054075	0.000953	20.719066
190.056883	-2.984300	3.863000	-11.528000	22.081300	0.000952	20.704594
191.063933	-2.993600	3.862400	-11.562000	22.090064	0.000952	20.706730
192.066270	-2.964200	3.863300	-11.450000	22.097249	0.000952	20.692585
193.055504	-3.018800	3.860500	-11.653000	22.096603	0.000953	20.708535
194.060391	-2.990800	3.860700	-11.545000	22.090692	0.000954	20.694081
195.055857	-3.001600	3.862200	-11.592000	22.099150	0.000953	20.713930
196.058885	-3.021700	3.859900	-11.662000	22.103283	0.000954	20.705265
197.061415	-3.006200	3.860900	-11.605000	22.090667	0.000954	20.701170
198.060578	-3.004900	3.860000	-11.598000	22.104753	0.000954	20.700098
199.057682	-3.017700	3.860100	-11.648000	22.104489	0.000954	20.696989
200.061950	-3.012600	3.859200	-11.625000	22.108530	0.000956	20.696768
201.063861	-3.018100	3.860100	-11.649000	22.090158	0.000955	20.707298
202.057828	-3.011500	3.859300	-11.620000	22.089887	0.000959	20.695173
203.063974	-3.009300	3.859900	-11.615000	22.133730	0.000956	20.709195
204.063240	-3.020800	3.859500	-11.658000	22.128797	0.000956	20.692876
205.064374	-3.006400	3.859500	-11.602000	22.124387	0.000958	20.709325
206.062389	-3.003000	3.859800	-11.589000	22.140619	0.000959	20.683848
207.068527	-2.967100	3.861300	-11.456000	22.131793	0.000958	20.706782
208.062495	-3.013100	3.859400	-11.627000	22.134407	0.000960	20.697070
209.062712	-3.009100	3.859200	-11.612000	22.158560	0.000959	20.689957
210.066199	-3.001500	3.857600	-11.578000	22.140921	0.000959	20.696005
211.060655	-3.010300	3.858800	-11.616000	22.155245	0.000960	20.714615
212.065604	-2.985500	3.859800	-11.523000	22.172645	0.000960	20.705482
213.063325	-3.003500	3.858600	-11.589000	22.161752	0.000960	20.690308
214.068787	-2.992500	3.857700	-11.543000	22.178020	0.000961	20.689525
215.064698	-3.011300	3.857400	-11.615000	22.160977	0.000962	20.696645
216.063122	-3.015700	3.856600	-11.627000	22.166365	0.000962	20.693504
217.067185	-3.016500	3.856900	-11.634000	22.155171	0.000963	20.684192
218.069736	-3.012600	3.858300	-11.622000	22.147415	0.000963	20.703456
219.063959	-2.990200	3.857400	-11.533000	22.188919	0.000963	20.682419
220.066556	-2.999800	3.857500	-11.571000	22.194780	0.000966	20.681649
221.063920	-2.997100	3.856700	-11.557000	22.198046	0.000966	20.709103
222.061566	-2.988100	3.856800	-11.524000	22.230182	0.000964	20.698604
223.064157	-2.992200	3.856900	-11.539000	22.214947	0.000965	20.699472
224.063398	-2.993400	3.856200	-11.541000	22.201638	0.000966	20.684723
225.065040	-3.000400	3.855200	-11.564000	22.191483	0.000966	20.702532
226.064600	-2.992200	3.855300	-11.535000	22.212727	0.000967	20.699145
227.065587	-2.986700	3.854700	-11.512000	22.192504	0.000968	20.690277
228.068795	-2.984400	3.854600	-11.503000	22.226731	0.000969	20.697993
229.063303	-2.992600	3.855400	-11.536000	22.237647	0.000968	20.689482
230.066354	-2.995800	3.855600	-11.550000	22.242937	0.000970	20.689089
231.062542	-2.999100	3.855500	-11.562000	22.276700	0.000969	20.725268
232.066685	-2.998200	3.853100	-11.552000	22.249585	0.000970	20.695745
233.065545	-3.015600	3.852500	-11.617000	22.258551	0.000969	20.708992
234.070927	-3.005900	3.852400	-11.578000	22.271417	0.000969	20.695320
235.070434	-2.997500	3.853900	-11.551000	22.272764	0.000970	20.679598
236.068349	-2.969800	3.855500	-11.449000	22.280488	0.000970	20.682117
237.068960	-3.014400	3.852000	-11.610000	22.284911	0.000972	20.684174
238.066174	-3.019000	3.851700	-11.627000	22.304417	0.000971	20.718408
239.078153	-3.000500	3.854900	-11.566000	22.336574	0.000973	20.710304
240.066854	-2.990300	3.854500	-11.525000	22.323789	0.000972	20.684224
241.079954	-3.001500	3.852100	-11.560000	22.318531	0.000974	20.695555
242.069515	-2.984100	3.852900	-11.497000	22.303772	0.000974	20.704484
243.069992	-2.988900	3.852700	-11.514000	22.299043	0.000973	20.720139
244.069085	-3.004700	3.852200	-11.572000	22.325911	0.000974	20.694410
245.075242	-2.993700	3.851800	-11.530000	22.291270	0.000972	20.714252
246.072724	-3.003900	3.851300	-11.567000	22.314922	0.000976	20.699053
247.068606	-2.985600	3.851700	-11.498000	22.316995	0.000974	20.701129
248.072384	-2.990700	3.851300	-11.517000	22.336679	0.000974	20.715151
249.072402	-2.994600	3.851600	-11.533000	22.324515	0.000976	20.687796
250.075489	-3.008500	3.851000	-11.585000	22.358012	0.000976	20.685302
251.073503	-2.981700	3.851200	-11.481000	22.348001	0.000976	20.694719
252.073360	-2.992300	3.851000	-11.523000	22.366868	0.000977	20.705077
253.071390	-2.983100	3.850300	-11.484000	22.367212	0.000979	20.710638
254.070554	-2.985600	3.850300	-11.494000	22.375107	0.000976	20.699577
255.076758	-3.002300	3.849700	-11.557000	22.361179	0.000979	20.713606
256.076915	-2.989400	3.848300	-11.503000	22.361856	0.000978	20.716654
257.074275	-2.983900	3.849900	-11.486000	22.361382	0.000980	20.690100
258.074535	-2.959600	3.850900	-11.396000	22.358713	0.000979	20.705446
259.071197	-3.021300	3.848900	-11.628000	22.357594	0.000979	20.698635
260.073293	-3.001900	3.849400	-11.555000	22.373890	0.000979	20.715429
261.076766	-3.003700	3.848600	-11.559000	22.394896	0.000983	20.717023
262.070827	-3.002500	3.849700	-11.556000	22.398463	0.000980	20.685980
263.071577	-3.000500	3.847800	-11.544000	22.395597	0.000980	20.712984
264.073261	-2.998500	3.848700	-11.539000	22.404538	0.000982	20.693012
265.070985	-2.984400	3.848400	-11.484000	22.423312	0.000983	20.717979
266.075497	-3.017900	3.847300	-11.610000	22.432732	0.000983	20.709394
267.075098	-2.991700	3.848200	-11.512000	22.452169	0.000984	20.713686
268.073598	-2.995800	3.846700	-11.522000	22.445541	0.000984	20.688080
269.076304	-2.993900	3.847900	-11.519000	22.431908	0.000985	20.728010
270.075415	-3.005000	3.846900	-11.560000	22.432960	0.000985	20.711993
271.075514	-2.985600	3.848000	-11.488000	22.422470	0.000985	20.707651
272.075808	-3.000500	3.845100	-11.536000	22.433864	0.000987	20.713373
273.077572	-2.985000	3.847600	-11.484000	22.433489	0.000984	20.699720
274.076303	-3.013400	3.845700	-11.587000	22.421782	0.000987	20.711704
275.078707	-3.007500	3.844700	-11.562000	22.435015	0.000987	20.696506
276.076699	-2.979800	3.846200	-11.460000	22.443562	0.000987	20.722137
277.081867	-3.013200	3.843600	-11.580000	22.446010	0.000987	20.712733
278.082253	-3.005400	3.844600	-11.553000	22.458775	0.000988	20.718406
279.077889	-3.015900	3.844300	-11.593000	22.470791	0.000989	20.719533
280.078583	-3.005500	3.846300	-11.558000	22.471860	0.000989	20.707801
281.074656	-3.008400	3.844300	-11.565000	22.502771	0.000988	20.712205
282.083385	-2.989700	3.846500	-11.499000	22.509897	0.000990	20.707962
283.074893	-2.978400	3.844300	-11.449000	22.512787	0.000990	20.740730
284.079340	-2.985400	3.843600	-11.474000	22.527593	0.000992	20.711935
285.076666	-3.000700	3.843600	-11.531000	22.533183	0.000992	20.693824
286.076293	-2.981900	3.844500	-11.463000	22.557906	0.000993	20.697248
287.078563	-2.994700	3.844800	-11.513000	22.517941	0.000993	20.727399
288.085129	-3.012900	3.842400	-11.576000	22.540820	0.000993	20.725657
289.081090	-2.985700	3.843000	-11.473000	22.526667	0.000994	20.718593
290.076667	-3.007300	3.843000	-11.556000	22.542192	0.000995	20.724659
291.080768	-2.989400	3.843900	-11.490000	22.541644	0.000994	20.725060
292.078710	-3.000200	3.842800	-11.528000	22.559063	0.000995	20.710736
293.080936	-3.024600	3.841500	-11.618000	22.548998	0.000997	20.712035
294.079980	-2.996900	3.842600	-11.515000	22.569731	0.000998	20.718576
295.083253	-2.996100	3.842700	-11.513000	22.579157	0.000996	20.735129
296.080441	-2.984100	3.843800	-11.469000	22.552018	0.000998	20.706524
297.079048	-2.997100	3.841700	-11.512000	22.571428	0.000997	20.730233
298.083232	-2.994000	3.841100	-11.499000	22.577859	0.000999	20.711543
299.078322	-3.007300	3.840800	-11.549000	22.601807	0.000999	20.694750
300.083058	-2.993400	3.841800	-11.499000	22.609424	0.001000	20.718502
301.083321	-2.998600	3.841700	-11.518000	22.608901	0.001000	20.722720
302.083834	-3.014100	3.840600	-11.575000	22.600853	0.001001	20.708020
303.083836	-3.002900	3.840400	-11.531000	22.589270	0.001001	20.722973
304.085803	-2.991800	3.839600	-11.486000	22.611096	0.001004	20.721125
305.086082	-3.004500	3.839100	-11.533000	22.598013	0.001004	20.720349
306.088467	-3.003800	3.840100	-11.534000	22.603066	0.001002	20.716876
307.085990	-2.988000	3.839500	-11.470000	22.605237	0.001002	20.728533
308.083547	-2.993000	3.840600	-11.494000	22.639739	0.001005	20.737487
309.092183	-2.995800	3.838600	-11.499000	22.639038	0.001006	20.735836
310.090252	-2.998100	3.840500	-11.513000	22.661539	0.001006	20.715225
311.090424	-2.989100	3.838500	-11.473000	22.669089	0.001006	20.727529
312.086751	-3.019300	3.838700	-11.588000	22.692579	0.001007	20.742998
313.088529	-3.023900	3.836900	-11.601000	22.688294	0.001008	20.741551
314.090746	-2.996600	3.838300	-11.501000	22.682084	0.001006	20.723002
315.092048	-3.013700	3.837100	-11.562000	22.694686	0.001008	20.736574
316.087901	-3.001000	3.837200	-11.514000	22.694269	0.001009	20.709128
317.085958	-2.980700	3.837500	-11.438000	22.716215	0.001011	20.731587
318.090950	-2.992200	3.837600	-11.482000	22.727643	0.001010	20.736870
319.089597	-2.984900	3.836200	-11.449000	22.732973	0.001012	20.727509
320.091268	-3.007600	3.836700	-11.538000	22.712096	0.001010	20.747375
321.090416	-2.996800	3.837800	-11.500000	22.738401	0.001011	20.735317
322.090039	-2.976600	3.838400	-11.425000	22.736402	0.001012	20.762240
323.096431	-2.991800	3.835300	-11.472000	22.733292	0.001011	20.758650
324.095355	-2.973200	3.836100	-11.404000	22.713429	0.001012	20.734959
325.087718	-3.010200	3.833900	-11.539000	22.732493	0.001012	20.738408
326.087050	-2.991600	3.834900	-11.472000	22.737595	0.001014	20.729768
327.087092	-3.007600	3.833900	-11.529000	22.739113	0.001014	20.737453
328.089783	-2.982200	3.835200	-11.437000	22.709814	0.001014	20.737503
329.091905	-2.988000	3.834900	-11.457000	22.712580	0.001015	20.734110
330.093688	-2.999800	3.834200	-11.501000	22.717935	0.001012	20.729515
331.098023	-3.002200	3.833200	-11.507000	22.735799	0.001017	20.751204
332.095068	-2.989700	3.835100	-11.464000	22.763948	0.001015	20.756642
333.093421	-2.994600	3.833100	-11.477000	22.760666	0.001016	20.748138
334.095430	-2.982500	3.833000	-11.432000	22.758766	0.001015	20.725845
335.093506	-3.015800	3.832000	-11.554000	22.779119	0.001017	20.747183
336.120651	-3.013300	3.833600	-11.550000	22.804384	0.001017	20.744517
337.098968	-2.997800	3.832700	-11.488000	22.798606	0.001017	20.742048
338.100827	-3.015500	3.831700	-11.553000	22.827920	0.001018	20.756241
339.095291	-3.006100	3.831800	-11.518000	22.822388	0.001020	20.725568
340.093463	-3.004300	3.832500	-11.514000	22.831160	0.001019	20.738149
341.095265	-2.983100	3.833200	-11.434000	22.874661	0.001019	20.741900
342.096101	-3.020900	3.831400	-11.572000	22.836471	0.001021	20.740625
343.098826	-3.029000	3.832200	-11.606000	22.825683	0.001020	20.771070
344.099949	-3.009500	3.831700	-11.531000	22.821897	0.001019	20.750681
345.101581	-3.001200	3.831200	-11.497000	22.830963	0.001022	20.753600
346.101339	-2.993700	3.829700	-11.462000	22.842298	0.001022	20.760214
347.102179	-3.007900	3.830700	-11.522000	22.854137	0.001024	20.747418
348.101270	-3.012200	3.830000	-11.536000	22.852255	0.001022	20.762602
349.103877	-3.005400	3.830000	-11.509000	22.838241	0.001024	20.756150
350.102037	-3.001500	3.829400	-11.492000	22.871821	0.001023	20.754703
351.101794	-2.994300	3.829400	-11.466000	22.904047	0.001023	20.746684
352.099442	-2.999800	3.829700	-11.488000	22.901011	0.001024	20.769722
353.097595	-3.007700	3.827900	-11.511000	22.921804	0.001021	20.743611
354.101433	-2.979600	3.830100	-11.411000	22.920906	0.001026	20.758834
355.099710	-2.974800	3.830300	-11.393000	22.928878	0.001024	20.777726
356.100323	-3.008600	3.828100	-11.517000	22.930175	0.001023	20.753421
357.104455	-3.012600	3.827200	-11.529000	22.958368	0.001026	20.758433
358.103306	-2.998000	3.828200	-11.476000	22.948976	0.001027	20.777000
359.104691	-2.998500	3.828400	-11.478000	22.923721	0.001028	20.750274
360.100430	-2.994300	3.827900	-11.461000	22.946838	0.001028	20.769641
361.103443	-2.996600	3.825600	-11.462000	22.956868	0.001028	20.757879
362.105621	-2.997800	3.826500	-11.470000	22.937913	0.001029	20.751216
363.107021	-3.035200	3.825900	-11.609000	22.905054	0.001030	20.767608
364.101413	-2.991100	3.827400	-11.447000	22.933886	0.001031	20.755716
365.105706	-2.994600	3.826300	-11.457000	22.936290	0.001030	20.759547
366.104253	-3.001700	3.824700	-11.478000	22.922159	0.001031	20.764356
367.103222	-2.988100	3.825000	-11.429000	22.943695	0.001030	20.778346
368.106942	-3.001600	3.825300	-11.480000	22.947438	0.001031	20.758863
369.103604	-3.009000	3.824800	-11.508000	22.939313	0.001032	20.763998
370.101704	-3.001000	3.825900	-11.480000	22.920080	0.001033	20.780766
371.104348	-2.982800	3.824700	-11.407000	22.925065	0.001032	20.760156
372.104363	-3.003200	3.824600	-11.484000	22.941974	0.001031	20.780889
373.105727	-3.002500	3.824100	-11.480000	22.923099	0.001036	20.753443
374.107390	-2.991900	3.823500	-11.438000	22.914198	0.001033	20.771554
375.105270	-3.024900	3.822400	-11.561000	22.925280	0.001033	20.776018
376.105055	-2.995900	3.823000	-11.451000	22.925501	0.001034	20.775765
377.108421	-3.012600	3.822800	-11.515000	22.924327	0.001034	20.783124
378.103863	-3.014600	3.823800	-11.527000	22.942741	0.001036	20.776917
379.107069	-3.012700	3.822600	-11.516000	22.956183	0.001038	20.779952
380.105308	-2.990800	3.824300	-11.437000	22.974142	0.001035	20.777083
381.106960	-3.007000	3.821000	-11.489000	22.979649	0.001036	20.769798
382.103898	-2.968300	3.822200	-11.344000	22.987736	0.001037	20.790229
383.104315	-3.010300	3.822700	-11.506000	23.005376	0.001038	20.776134
384.106472	-2.978300	3.823500	-11.387000	23.010255	0.001037	20.787662
385.112499	-3.006400	3.821700	-11.488000	23.023720	0.001038	20.780290
386.107126	-2.996700	3.823500	-11.456000	23.031821	0.001039	20.772285
387.110183	-2.994400	3.820900	-11.441000	23.031421	0.001040	20.769988
388.107519	-2.997900	3.821400	-11.456000	23.056330	0.001041	20.797317
389.109436	-2.998200	3.820300	-11.453000	23.050129	0.001040	20.778776
390.112772	-3.001000	3.820700	-11.465000	23.067392	0.001040	20.791332
391.107412	-2.991700	3.820400	-11.428000	23.075104	0.001042	20.790525
392.113869	-2.990300	3.820300	-11.424000	23.049772	0.001042	20.791220
393.115362	-2.986700	3.820100	-11.408000	23.048776	0.001042	20.779317
394.110121	-3.004100	3.818200	-11.468000	23.032589	0.001043	20.787753
395.115242	-3.002500	3.818200	-11.463000	23.017470	0.001042	20.777347
396.112012	-3.003000	3.819000	-11.467000	23.043964	0.001045	20.798677
397.110800	-3.014500	3.817900	-11.509000	23.062752	0.001042	20.788579
398.110923	-3.001200	3.818000	-11.457000	23.067200	0.001045	20.794933
399.111058	-3.009500	3.818000	-11.489000	23.077064	0.001045	20.818092
400.109659	-3.003400	3.817000	-11.463000	23.088575	0.001044	20.809712
401.113665	-2.989600	3.817000	-11.409000	23.097934	0.001044	20.799650
402.112927	-3.019500	3.816200	-11.522000	23.130861	0.001046	20.806565
403.111694	-3.012200	3.816200	-11.495000	23.114594	0.001046	20.781256
404.112675	-3.018500	3.816000	-11.517000	23.144969	0.001045	20.796047
405.114564	-2.993800	3.817000	-11.427000	23.163349	0.001048	20.821577
406.116369	-2.992400	3.816100	-11.418000	23.157395	0.001047	20.805653
407.113318	-3.005900	3.815700	-11.468000	23.164117	0.001047	20.794372
408.118684	-2.991900	3.816200	-11.417000	23.156140	0.001048	20.804396
409.112507	-2.982500	3.816300	-11.381000	23.197852	0.001048	20.811108
410.115442	-2.996800	3.815200	-11.432000	23.194386	0.001048	20.804790
411.113465	-2.998800	3.816200	-11.443000	23.192266	0.001051	20.816415
412.114086	-2.987900	3.814500	-11.397000	23.213208	0.001050	20.796624
413.111831	-3.001700	3.814500	-11.449000	23.215868	0.001048	20.804506
414.118372	-2.997700	3.813800	-11.432000	23.217877	0.001050	20.814105
415.113926	-3.002900	3.813400	-11.451000	23.199375	0.001052	20.793668
416.114361	-3.006300	3.814200	-11.466000	23.150565	0.001051	20.799284
417.121155	-3.006600	3.813400	-11.463000	23.155340	0.001051	20.830146
418.113540	-3.003200	3.814700	-11.453000	23.152329	0.001051	20.824284
419.120236	-2.988100	3.812000	-11.390000	23.135319	0.001052	20.804394
420.115746	-2.997800	3.812800	-11.429000	23.148530	0.001052	20.806253
421.113364	-3.000800	3.811600	-11.436000	23.144745	0.001054	20.806253
422.114115	-3.006500	3.811300	-11.458000	23.170892	0.001053	20.824394
423.114461	-2.979100	3.813900	-11.362000	23.151615	0.001054	20.813611
424.115455	-3.007200	3.811800	-11.462000	23.168551	0.001054	20.818254
425.114617	-2.999100	3.811500	-11.430000	23.150441	0.001053	20.835194
426.117711	-3.019200	3.810800	-11.504000	23.197610	0.001054	20.809917
427.121521	-2.989900	3.812300	-11.398000	23.204105	0.001057	20.824011
428.123311	-3.018200	3.809100	-11.495000	23.196190	0.001057	20.811813
429.119502	-3.000000	3.809800	-11.428000	23.184515	0.001057	20.820976
430.114339	-2.993800	3.810200	-11.405000	23.183230	0.001055	20.823007
431.116536	-2.999100	3.809400	-11.424000	23.207718	0.001057	20.814356
432.114521	-3.003100	3.809900	-11.441000	23.207515	0.001056	20.832170
433.125268	-3.020000	3.807400	-11.497000	23.203705	0.001056	20.833568
434.114787	-3.004000	3.808600	-11.439000	23.217801	0.001058	20.828728
435.120278	-3.009500	3.808200	-11.458000	23.220634	0.001057	20.817816
436.116775	-3.002600	3.808600	-11.434000	23.227362	0.001057	20.838783
437.120445	-3.004000	3.809000	-11.441000	23.222729	0.001058	20.819442
438.115305	-3.044900	3.807600	-11.592000	23.243050	0.001057	20.826530
439.120835	-3.003400	3.807700	-11.435000	23.246362	0.001059	20.825107
440.114671	-3.002400	3.807400	-11.431000	23.260826	0.001058	20.855248
441.114984	-3.011300	3.807200	-11.464000	23.266233	0.001059	20.839331
442.115602	-2.976400	3.806500	-11.328000	23.262147	0.001060	20.827650
443.114051	-3.022700	3.806600	-11.505000	23.296531	0.001057	20.836505
444.119016	-2.981300	3.807900	-11.350000	23.277711	0.001060	20.800100
445.118397	-3.013100	3.806700	-11.469000	23.301090	0.001062	20.831117
446.120597	-2.992900	3.806300	-11.391000	23.313839	0.001062	20.821135
447.115606	-3.008600	3.805300	-11.448000	23.341272	0.001061	20.838198
448.115436	-3.011800	3.803900	-11.456000	23.351705	0.001062	20.825895
449.121861	-3.006400	3.805700	-11.441000	23.363034	0.001062	20.831086
450.122150	-2.997800	3.805400	-11.407000	23.377903	0.001059	20.818961
451.117669	-3.005100	3.804800	-11.434000	23.342520	0.001064	20.838974
452.120238	-2.994600	3.804000	-11.390000	23.357032	0.001063	20.851621
453.124348	-3.010600	3.803200	-11.449000	23.349560	0.001061	20.822797
454.118853	-3.023200	3.802800	-11.496000	23.343116	0.001062	20.837674
455.125421	-3.018900	3.803500	-11.480000	23.352473	0.001064	20.831880
456.123506	-2.979800	3.802400	-11.330000	23.375580	0.001062	20.846978
457.121206	-2.991100	3.803300	-11.375000	23.376975	0.001063	20.845057
458.123346	-2.980100	3.803500	-11.333000	23.361983	0.001064	20.836670
459.123515	-3.001700	3.802800	-11.414000	23.379487	0.001064	20.848049
460.126428	-2.985900	3.803200	-11.355000	23.354586	0.001063	20.834946
461.126033	-3.008100	3.801800	-11.435000	23.351926	0.001064	20.843185
462.123183	-2.994400	3.801200	-11.381000	23.361682	0.001066	20.860075
463.119752	-2.990400	3.800600	-11.364000	23.373860	0.001064	20.844306
464.123209	-2.995100	3.802500	-11.388000	23.369332	0.001065	20.853043
465.120823	-2.999900	3.800900	-11.402000	23.383745	0.001067	20.861799
466.121150	-3.011200	3.801000	-11.445000	23.383770	0.001067	20.834798
467.123562	-3.015500	3.800100	-11.458000	23.418924	0.001066	20.866239
468.129036	-3.004000	3.799000	-11.411000	23.408867	0.001066	20.836719
469.124788	-2.996500	3.799800	-11.385000	23.429005	0.001067	20.853585
470.125918	-3.026900	3.798900	-11.497000	23.428729	0.001067	20.847618
471.130323	-3.020300	3.798500	-11.472000	23.460651	0.001068	20.866811
472.123237	-2.991400	3.799200	-11.364000	23.466450	0.001067	20.857452
473.125004	-2.998500	3.797600	-11.385000	23.456018	0.001068	20.851263
474.122898	-2.986300	3.798900	-11.345000	23.443190	0.001067	20.858319
475.123295	-3.002800	3.797900	-11.403000	23.469092	0.001072	20.874323
476.131096	-2.985500	3.799200	-11.340000	23.445163	0.001069	20.843702
477.132499	-2.996500	3.796800	-11.376000	23.448923	0.001067	20.856005
478.125702	-2.984500	3.797700	-11.332000	23.441403	0.001067	20.873122
479.128823	-3.010100	3.796500	-11.426000	23.435008	0.001069	20.867187
480.128612	-2.978700	3.796600	-11.308000	23.452511	0.001067	20.863394
481.125270	-3.001800	3.793800	-11.387000	23.437969	0.001070	20.860672
482.132800	-2.999900	3.795600	-11.385000	23.446140	0.001071	20.877870
483.125246	-2.996700	3.796100	-11.375000	23.446354	0.001073	20.865758
484.128539	-3.003100	3.796300	-11.399000	23.461996	0.001072	20.868634
485.129054	-3.008800	3.795100	-11.418000	23.479474	0.001071	20.860549
486.126029	-2.997500	3.795300	-11.375000	23.454704	0.001072	20.868911
487.130375	-3.008900	3.794500	-11.416000	23.457444	0.001074	20.870235
488.138626	-3.002900	3.793700	-11.391000	23.456572	0.001073	20.857033
489.134759	-2.999900	3.795000	-11.384000	23.462150	0.001073	20.859780
490.126291	-2.998600	3.793500	-11.374000	23.473226	0.001073	20.868037
491.130992	-3.012100	3.793700	-11.425000	23.485857	0.001072	20.878800
492.129363	-3.032600	3.792000	-11.497000	23.498076	0.001074	20.876349
493.130538	-3.006500	3.793500	-11.404000	23.479572	0.001073	20.853536
494.135784	-2.966600	3.793300	-11.252000	23.486772	0.001072	20.870709
495.131558	-2.976800	3.792800	-11.289000	23.505374	0.001074	20.833881
496.125626	-3.013200	3.791200	-11.421000	23.472336	0.001075	20.861455
497.129677	-2.974700	3.794300	-11.286000	23.464718	0.001073	20.855716
498.133519	-2.978100	3.792400	-11.294000	23.468951	0.001074	20.870863
499.127944	-2.997400	3.791200	-11.363000	23.490342	0.001072	20.866227
500.133916	-2.997900	3.791600	-11.365000	23.489095	0.001074	20.870667
501.131481	-3.019200	3.790900	-11.445000	23.475107	0.001073	20.861862
502.128520	-2.986400	3.791700	-11.323000	23.504288	0.001074	20.854128
503.138103	-3.013600	3.788700	-11.416000	23.529253	0.001074	20.829368
504.132351	-3.019000	3.789100	-11.438000	23.554721	0.001074	20.852053
505.131796	-2.996900	3.789800	-11.355000	23.560846	0.001074	20.856769
506.130723	-3.020200	3.789300	-11.444000	23.562086	0.001075	20.857065
507.131630	-2.989400	3.789800	-11.328000	23.551834	0.001076	20.857219
508.131025	-2.993300	3.788500	-11.338000	23.581160	0.001077	20.833512
509.133046	-3.021900	3.787500	-11.443000	23.582646	0.001077	20.847329
510.131193	-2.994800	3.788300	-11.345000	23.585718	0.001075	20.858469
511.130718	-2.991200	3.787800	-11.329000	23.605510	0.001075	20.836585
512.129059	-2.994500	3.787100	-11.340000	23.605577	0.001074	20.855143
513.131406	-2.983000	3.788300	-11.299000	23.624748	0.001077	20.846862
514.138328	-2.989600	3.787600	-11.323000	23.629803	0.001076	20.839128
515.133658	-3.013100	3.785800	-11.406000	23.612500	0.001077	20.832687
516.136082	-2.994500	3.786400	-11.337000	23.618919	0.001076	20.848130
517.136044	-2.995900	3.786600	-11.343000	23.594569	0.001077	20.832729
518.130034	-3.012400	3.785700	-11.404000	23.578494	0.001077	20.838426
519.134787	-2.991000	3.785400	-11.321000	23.579286	0.001076	20.850125
520.148289	-3.010800	3.785600	-11.397000	23.558597	0.001077	20.841239
521.130590	-3.017800	3.784800	-11.420000	23.585607	0.001075	20.828013
522.132196	-2.978600	3.785500	-11.274000	23.587769	0.001076	20.849145
523.134220	-2.999900	3.785700	-11.356000	23.578438	0.001078	20.826516
524.134686	-3.006500	3.782800	-11.370000	23.555980	0.001077	20.819176
525.139859	-2.993600	3.782700	-11.323000	23.577787	0.001077	20.850044
526.136345	-2.989500	3.783800	-11.311000	23.572234	0.001079	20.839736
527.134056	-2.992900	3.783200	-11.322000	23.562602	0.001079	20.850943
528.136928	-3.012600	3.783200	-11.397000	23.576319	0.001077	20.840038
529.138499	-2.985900	3.782100	-11.292000	23.572104	0.001076	20.825857
530.136724	-3.003700	3.782300	-11.361000	23.561527	0.001077	20.828055
531.137739	-3.008800	3.782100	-11.378000	23.572577	0.001076	20.834865
532.137402	-3.009300	3.781700	-11.378000	23.578204	0.001077	20.834342
533.138442	-3.005700	3.780600	-11.363000	23.592166	0.001080	20.827950
534.139524	-3.027500	3.779900	-11.443000	23.606184	0.001078	20.851011
535.133594	-3.023900	3.780400	-11.430000	23.608119	0.001077	20.840148
536.137228	-3.011400	3.779800	-11.381000	23.627290	0.001079	20.832815
537.137897	-3.017400	3.778900	-11.401000	23.634279	0.001077	20.817537
538.142506	-3.001600	3.780800	-11.347000	23.633008	0.001080	20.829538
539.139050	-2.998300	3.780800	-11.336000	23.619961	0.001079	20.836373
540.141136	-2.989800	3.778900	-11.296000	23.639475	0.001079	20.825117
541.141275	-3.007500	3.778500	-11.361000	23.646275	0.001079	20.821028
542.140459	-3.006800	3.779400	-11.363000	23.670390	0.001078	20.825289
543.142296	-2.996700	3.778900	-11.323000	23.674923	0.001081	20.827463
544.137321	-3.006200	3.778400	-11.357000	23.715368	0.001079	20.841933
545.135468	-2.999600	3.778000	-11.331000	23.691802	0.001080	20.837746
546.142207	-3.024600	3.776000	-11.419000	23.705510	0.001081	20.827783
547.145267	-3.006000	3.777300	-11.353000	23.695407	0.001079	20.815757
548.139681	-3.010500	3.777000	-11.369000	23.671532	0.001082	20.832124
549.140398	-3.005100	3.777800	-11.352000	23.688761	0.001080	20.833276
550.141229	-3.001900	3.776800	-11.337000	23.683933	0.001081	20.809470
551.141011	-3.027400	3.775400	-11.428000	23.646367	0.001081	20.818750
552.146456	-3.014600	3.775300	-11.379000	23.665292	0.001082	20.820179
553.139996	-2.993800	3.775100	-11.301000	23.658050	0.001081	20.818134
554.142359	-3.031400	3.773300	-11.438000	23.646054	0.001083	20.814643
555.146714	-3.003400	3.775000	-11.337000	23.648051	0.001081	20.812377
556.142842	-2.975400	3.775000	-11.231000	23.645311	0.001082	20.813424
557.147352	-2.996300	3.775200	-11.310000	23.646779	0.001081	20.825801
558.143850	-2.988200	3.774000	-11.276000	23.669593	0.001081	20.807895
559.142510	-2.990700	3.774000	-11.286000	23.687810	0.001085	20.809089
560.143472	-2.998300	3.773200	-11.313000	23.688062	0.001084	20.815032
561.145412	-2.980400	3.773200	-11.245000	23.699770	0.001081	20.815390
562.143287	-2.979900	3.773200	-11.243000	23.716771	0.001084	20.807779
563.141529	-2.994400	3.773700	-11.300000	23.704604	0.001085	20.798425
564.142344	-3.009700	3.771600	-11.351000	23.697191	0.001084	20.824183
565.145208	-3.018800	3.772500	-11.387000	23.695145	0.001084	20.796529
566.149858	-2.995200	3.771500	-11.296000	23.718952	0.001083	20.806647
567.146394	-3.011400	3.771900	-11.358000	23.702596	0.001085	20.796886
568.149967	-3.003200	3.771700	-11.326000	23.691553	0.001084	20.806204
569.146450	-2.988400	3.770200	-11.266000	23.691928	0.001082	20.804209
570.143366	-3.016800	3.770000	-11.372000	23.689115	0.001084	20.792854
571.143037	-3.031400	3.770400	-11.427000	23.674005	0.001083	20.795249
572.143294	-2.997900	3.770100	-11.301000	23.693844	0.001082	20.808975
573.143611	-3.017600	3.769700	-11.375000	23.719168	0.001084	20.789320
574.144842	-3.003900	3.769000	-11.321000	23.724819	0.001083	20.810158
575.142848	-3.019200	3.768500	-11.377000	23.736096	0.001083	20.791118
576.145271	-3.025400	3.767700	-11.397000	23.729401	0.001082	20.794837
577.148101	-3.003800	3.768800	-11.319000	23.705853	0.001084	20.811057
578.144009	-2.981200	3.768100	-11.232000	23.692414	0.001083	20.812757
579.150343	-3.020300	3.767700	-11.378000	23.724580	0.001085	20.807073
580.143962	-2.996300	3.767000	-11.286000	23.728290	0.001082	20.803681
581.147907	-3.020300	3.765400	-11.371000	23.714428	0.001085	20.804481
582.149447	-2.985600	3.767100	-11.247000	23.755204	0.001084	20.802216
583.146197	-3.025500	3.764500	-11.387000	23.762820	0.001085	20.782824
584.149613	-3.003500	3.765400	-11.309000	23.771461	0.001083	20.822309
585.147095	-3.010100	3.765200	-11.332000	23.772929	0.001082	20.799125
586.148090	-3.011100	3.766300	-11.340000	23.766529	0.001083	20.795079
587.147810	-3.026700	3.764100	-11.391000	23.806887	0.001084	20.785282
588.148088	-3.029500	3.763700	-11.401000	23.778936	0.001083	20.780017
589.145878	-3.009700	3.764200	-11.328000	23.788352	0.001083	20.794674
590.150139	-3.009900	3.765600	-11.333000	23.762643	0.001085	20.791656
591.150764	-2.985800	3.763600	-11.237000	23.779318	0.001084	20.782296
592.147428	-3.027800	3.762000	-11.389000	23.777230	0.001084	20.768349
593.151412	-2.990400	3.762600	-11.251000	23.798461	0.001082	20.782524
594.147857	-3.005200	3.762700	-11.306000	23.800710	0.001083	20.785727
595.153175	-2.988800	3.763500	-11.247000	23.810763	0.001082	20.777789
596.148326	-2.989300	3.762500	-11.246000	23.824134	0.001083	20.771755
597.150818	-2.981600	3.762100	-11.216000	23.835427	0.001083	20.776441
598.152477	-3.005700	3.761600	-11.305000	23.857463	0.001082	20.776725
599.149277	-2.994700	3.761600	-11.263000	23.868013	0.001081	20.757906
600.154721	-2.976300	3.761200	-11.193000	23.864580	0.001083	20.788129
601.156684	-2.989500	3.760600	-11.241000	23.842761	0.001084	20.794700
602.150376	-3.000600	3.759900	-11.281000	23.864796	0.001083	20.787872
603.153990	-2.990400	3.760600	-11.244000	23.870520	0.001081	20.779386
604.152709	-2.991800	3.760600	-11.250000	23.866387	0.001083	20.771923
605.154922	-3.002500	3.759600	-11.286000	23.864428	0.001083	20.758105
606.159388	-3.029100	3.760000	-11.389000	23.903056	0.001083	20.770760
607.153417	-2.987300	3.759900	-11.231000	23.875949	0.001083	20.756854
608.158811	-2.993600	3.759900	-11.254000	23.880057	0.001080	20.774251
609.155854	-3.008100	3.759000	-11.307000	23.867315	0.001083	20.774750
610.153730	-3.007500	3.758900	-11.304000	23.859854	0.001083	20.767268
611.162010	-3.004400	3.759400	-11.294000	23.864895	0.001083	20.778487
612.155387	-3.004500	3.758200	-11.291000	23.863059	0.001082	20.790397
613.158891	-2.998700	3.759000	-11.271000	23.838242	0.001083	20.782108
614.156955	-2.991300	3.759100	-11.243000	23.814506	0.001083	20.762102
615.157531	-2.998100	3.756300	-11.260000	23.785389	0.001085	20.767521
616.157693	-3.006200	3.756700	-11.293000	23.802204	0.001083	20.785803
617.157352	-2.998300	3.757100	-11.263000	23.786697	0.001085	20.767883
618.158141	-3.006500	3.756300	-11.292000	23.795258	0.001082	20.766984
619.158777	-3.012400	3.755900	-11.313000	23.822815	0.001083	20.772804
620.159010	-2.995700	3.755700	-11.250000	23.783232	0.001083	20.782902
621.157575	-3.027800	3.753900	-11.365000	23.821089	0.001081	20.774392
622.158546	-3.010400	3.754100	-11.301000	23.824823	0.001083	20.763911
623.159986	-2.984700	3.755800	-11.208000	23.827457	0.001084	20.771294
624.157022	-2.999300	3.753600	-11.258000	23.846040	0.001082	20.778073
625.157995	-3.011300	3.753700	-11.303000	23.856640	0.001081	20.796762
626.156389	-3.001600	3.754600	-11.268000	23.823188	0.001083	20.771281
627.162130	-3.003700	3.754200	-11.275000	23.824330	0.001082	20.753459
628.160700	-3.010700	3.751300	-11.292000	23.859649	0.001083	20.772278
629.159082	-2.994200	3.753500	-11.237000	23.814928	0.001081	20.780069
630.159449	-3.019500	3.753100	-11.332000	23.814946	0.001082	20.755904
631.163008	-3.016200	3.752000	-11.316000	23.800157	0.001081	20.758619
632.162294	-2.997600	3.752500	-11.248000	23.790975	0.001081	20.775967
633.163666	-3.008700	3.752000	-11.286000	23.786583	0.001080	20.758760
634.163270	-3.006500	3.751900	-11.279000	23.817770	0.001082	20.763952
635.157877	-2.993200	3.752100	-11.230000	23.807422	0.001082	20.764007
636.163925	-2.996900	3.751500	-11.242000	23.834174	0.001083	20.769020
637.163429	-3.005600	3.749800	-11.269000	23.855355	0.001080	20.767499
638.166491	-3.019300	3.749500	-11.319000	23.876953	0.001081	20.774457
639.165730	-3.009000	3.750000	-11.283000	23.889321	0.001081	20.757461
640.165401	-3.016500	3.749500	-11.309000	23.927769	0.001082	20.750496
641.162349	-3.001500	3.750300	-11.255000	23.938073	0.001081	20.770787
642.160997	-2.994400	3.749400	-11.226000	23.951890	0.001080	20.756193
643.161245	-3.005300	3.749300	-11.267000	23.963834	0.001081	20.759161
644.165764	-2.997600	3.749000	-11.237000	23.950514	0.001082	20.756709
645.165817	-3.013400	3.747700	-11.292000	23.926995	0.001083	20.763945
646.166050	-3.003500	3.749200	-11.259000	23.923139	0.001081	20.764345
647.167668	-3.001400	3.747700	-11.247000	23.926284	0.001082	20.761809
648.165777	-3.012700	3.747900	-11.290000	23.931103	0.001082	20.758107
649.173227	-3.014500	3.745400	-11.289000	23.927394	0.001083	20.752965
650.170921	-2.999400	3.746700	-11.237000	23.944294	0.001079	20.768016
651.169404	-2.981600	3.747100	-11.171000	23.934260	0.001082	20.764117
652.169573	-2.976200	3.748700	-11.156000	23.957257	0.001081	20.752565
653.166276	-2.983000	3.747000	-11.176000	23.967119	0.001081	20.778103
654.169580	-2.990900	3.747500	-11.208000	23.964650	0.001081	20.751444
655.170969	-3.009500	3.744200	-11.267000	23.989440	0.001080	20.745009
656.168904	-3.020200	3.744200	-11.307000	23.988967	0.001080	20.762554
657.167533	-3.009000	3.745600	-11.269000	23.957085	0.001080	20.742435
658.170251	-2.997300	3.745200	-11.224000	23.970902	0.001080	20.744437
659.171777	-3.011600	3.744400	-11.276000	23.955648	0.001081	20.753323
660.168301	-3.020700	3.743500	-11.308000	23.963932	0.001079	20.722273
661.176126	-2.972100	3.744900	-11.129000	23.975003	0.001079	20.751869
662.173959	-3.003100	3.743300	-11.239000	23.987807	0.001080	20.749062
663.177395	-3.001300	3.743200	-11.233000	24.001911	0.001078	20.724324
664.173528	-3.020600	3.742400	-11.303000	24.017864	0.001080	20.725624
665.177941	-3.002600	3.741700	-11.234000	24.005375	0.001079	20.734911
666.175490	-3.010100	3.741800	-11.262000	23.978498	0.001080	20.753003
667.176988	-3.042400	3.740800	-11.379000	23.970638	0.001078	20.725680
668.176693	-3.017900	3.741200	-11.289000	23.945081	0.001081	20.738932
669.174845	-3.007100	3.740100	-11.246000	23.906364	0.001078	20.726659
670.181602	-3.002800	3.739400	-11.228000	23.912283	0.001078	20.746347
671.180989	-3.027600	3.740300	-11.323000	23.910987	0.001078	20.742676
672.176684	-3.013600	3.740500	-11.272000	23.912517	0.001077	20.740891
673.179112	-3.005500	3.740600	-11.242000	23.901439	0.001078	20.734524
674.178807	-2.992500	3.740600	-11.193000	23.935539	0.001078	20.731260
675.178370	-2.994900	3.739200	-11.198000	23.931179	0.001077	20.748700
676.183295	-2.996300	3.739300	-11.203000	23.966077	0.001076	20.741495
677.179231	-3.022300	3.738600	-11.297000	23.938131	0.001078	20.762784
678.186467	-3.006600	3.738700	-11.240000	23.946722	0.001077	20.729672
679.177956	-2.989400	3.739400	-11.177000	23.936467	0.001078	20.728397
680.192388	-3.006400	3.738000	-11.236000	23.911977	0.001075	20.732289
681.178185	-3.003100	3.739200	-11.226000	23.888618	0.001076	20.714554
682.180949	-2.983600	3.739300	-11.155000	23.881255	0.001077	20.709067
683.179648	-3.012900	3.736300	-11.256000	23.918211	0.001077	20.722418
684.179487	-2.989300	3.737500	-11.172000	23.914085	0.001078	20.728238
685.181320	-3.013900	3.735400	-11.257000	23.904604	0.001075	20.723472
686.182582	-3.003600	3.736000	-11.220000	23.905101	0.001075	20.735825
687.189930	-2.994200	3.736100	-11.186000	23.906127	0.001075	20.726896
688.181430	-2.988600	3.736000	-11.165000	23.892568	0.001074	20.734637
689.184120	-2.994900	3.734500	-11.183000	23.867279	0.001075	20.729193
690.184685	-3.006100	3.733300	-11.221000	23.869496	0.001076	20.742323
691.181792	-3.004000	3.734800	-11.218000	23.874519	0.001076	20.729341
692.186478	-2.980800	3.734200	-11.130000	23.915087	0.001076	20.735407
693.182674	-3.006700	3.733700	-11.225000	23.948038	0.001076	20.720560
694.185796	-2.994300	3.733300	-11.178000	23.972723	0.001075	20.720658
695.183355	-2.984200	3.732700	-11.138000	24.011795	0.001074	20.722857
696.180863	-2.993600	3.732700	-11.173000	24.014822	0.001074	20.729211
697.197303	-3.021100	3.731600	-11.273000	24.035533	0.001076	20.733861
698.186712	-3.020600	3.732700	-11.274000	24.038622	0.001074	20.734588
699.182862	-3.000700	3.733300	-11.201000	24.042398	0.001073	20.730788
700.187274	-3.020700	3.731800	-11.272000	24.038419	0.001074	20.748610
701.185924	-3.009700	3.731700	-11.230000	24.078883	0.001075	20.725653
702.186921	-2.985500	3.732300	-11.142000	24.075836	0.001074	20.726865
703.194051	-3.028200	3.731200	-11.297000	24.070796	0.001070	20.729397
704.184325	-2.998100	3.731200	-11.185000	24.073773	0.001071	20.720528
705.191667	-3.018700	3.731100	-11.263000	24.087158	0.001070	20.727789
706.186119	-3.002100	3.730600	-11.199000	24.079895	0.001070	20.719555
707.188771	-3.013600	3.730000	-11.239000	24.090695	0.001072	20.723275
708.187174	-3.014000	3.729900	-11.241000	24.104129	0.001071	20.723472
709.186055	-3.014100	3.730100	-11.241000	24.117797	0.001070	20.727697
710.186730	-2.987500	3.730100	-11.143000	24.113867	0.001070	20.719488
711.186636	-3.003500	3.729300	-11.200000	24.137229	0.001071	20.718737
712.192340	-2.994100	3.729400	-11.165000	24.098795	0.001071	20.727605
713.186526	-3.004400	3.726900	-11.196000	24.110558	0.001071	20.728498
714.193518	-3.014400	3.728300	-11.237000	24.116231	0.001070	20.734662
715.191164	-3.009900	3.728400	-11.221000	24.097800	0.001071	20.717598
716.190033	-2.993200	3.727100	-11.154000	24.104345	0.001068	20.725111
717.188992	-3.003700	3.728100	-11.197000	24.119701	0.001070	20.737194
718.188108	-2.990700	3.727900	-11.148000	24.137396	0.001070	20.754942
719.194783	-3.016800	3.726700	-11.241000	24.135480	0.001071	20.723622
720.187536	-3.003500	3.727200	-11.193000	24.135162	0.001072	20.722828
721.192877	-3.008200	3.725900	-11.207000	24.095702	0.001070	20.722132
722.190344	-3.003700	3.725500	-11.188000	24.103585	0.001071	20.716762
723.192229	-3.007400	3.725000	-11.202000	24.106698	0.001069	20.730316
724.189962	-2.993700	3.725900	-11.153000	24.080027	0.001069	20.748138
725.190831	-2.993800	3.724400	-11.149000	24.087475	0.001069	20.715777
726.188483	-2.993300	3.725000	-11.149000	24.102555	0.001068	20.715728
727.192870	-2.996300	3.725200	-11.161000	24.129747	0.001069	20.721665
728.193954	-2.980300	3.725100	-11.100000	24.118475	0.001069	20.716996
729.193175	-3.003000	3.723900	-11.180000	24.139405	0.001070	20.704797
730.192699	-2.998600	3.723700	-11.165000	24.147344	0.001067	20.719399
731.191024	-3.003700	3.722500	-11.180000	24.159033	0.001068	20.720217
732.194116	-3.000900	3.723000	-11.171000	24.186256	0.001067	20.722866
733.195446	-2.995100	3.723900	-11.153000	24.202065	0.001068	20.733508
734.196803	-2.977600	3.722900	-11.084000	24.215669	0.001068	20.724393
735.198439	-3.013700	3.722000	-11.215000	24.200549	0.001069	20.734358
736.194934	-2.987300	3.722700	-11.119000	24.206320	0.001069	20.725921
737.194456	-3.015500	3.720700	-11.219000	24.206688	0.001066	20.722022
738.195683	-2.990600	3.723400	-11.134000	24.194820	0.001066	20.731931
739.195477	-3.008900	3.721200	-11.196000	24.166008	0.001067	20.745233
740.190926	-2.975200	3.722400	-11.074000	24.144489	0.001067	20.722700
741.199062	-2.979900	3.722100	-11.090000	24.134310	0.001066	20.702057
742.193534	-2.991300	3.721900	-11.132000	24.163522	0.001066	20.720926
743.197145	-3.011600	3.720400	-11.203000	24.158721	0.001067	20.743613
744.197362	-3.012500	3.719400	-11.204000	24.160563	0.001066	20.735029
745.200651	-3.008700	3.721000	-11.193000	24.155713	0.001067	20.731112
746.202515	-2.995200	3.718800	-11.137000	24.125825	0.001064	20.729111
747.194116	-2.999900	3.719400	-11.157000	24.135679	0.001062	20.729037
748.197218	-3.000200	3.718800	-11.157000	24.153220	0.001066	20.726715
749.198498	-2.990100	3.719300	-11.120000	24.176286	0.001064	20.740842
750.195543	-2.985500	3.718200	-11.099000	24.168347	0.001063	20.720076
751.198040	-2.991600	3.719600	-11.126000	24.196042	0.001064	20.721776
752.200837	-3.007300	3.716400	-11.176000	24.181725	0.001062	20.742978
753.197134	-2.981200	3.717200	-11.081000	24.190535	0.001064	20.723839
754.199975	-2.998500	3.716500	-11.144000	24.190762	0.001062	20.718377
755.203172	-3.004200	3.717000	-11.166000	24.190559	0.001062	20.714379
756.201269	-2.991600	3.717300	-11.120000	24.185138	0.001064	20.713210
757.203463	-2.992700	3.716100	-11.121000	24.207805	0.001061	20.733575
758.202099	-3.002300	3.715900	-11.155000	24.186784	0.001062	20.739992
759.203300	-3.027800	3.713300	-11.242000	24.207854	0.001061	20.728408
760.204636	-3.013800	3.715800	-11.198000	24.199013	0.001060	20.723333
761.201164	-3.015000	3.715000	-11.200000	24.204692	0.001060	20.738988
762.199348	-3.025000	3.714400	-11.234000	24.205938	0.001062	20.713210
763.208099	-3.027100	3.714400	-11.243000	24.250398	0.001061	20.732676
764.208949	-2.996900	3.713900	-11.130000	24.259894	0.001060	20.730347
765.205620	-3.004900	3.713000	-11.156000	24.267342	0.001060	20.752517
766.211198	-2.999400	3.714000	-11.139000	24.278238	0.001059	20.744007
767.206825	-2.989400	3.713500	-11.100000	24.288294	0.001061	20.725169
768.206439	-3.011600	3.712600	-11.180000	24.290577	0.001060	20.732202
769.209783	-3.003700	3.713800	-11.155000	24.304365	0.001059	20.718057
770.205930	-3.015900	3.712700	-11.196000	24.298766	0.001059	20.722872
771.210783	-3.007800	3.713300	-11.168000	24.309785	0.001059	20.758583
772.208933	-3.027600	3.711700	-11.236000	24.308693	0.001057	20.750375
773.204776	-3.004000	3.711800	-11.149000	24.296550	0.001059	20.737245
774.209529	-3.007700	3.711100	-11.161000	24.289982	0.001056	20.748201
775.205436	-3.007800	3.711900	-11.164000	24.281375	0.001055	20.746205
776.208759	-3.009400	3.710500	-11.165000	24.268017	0.001058	20.753669
777.208057	-2.989300	3.711500	-11.094000	24.285850	0.001056	20.745004
778.205129	-3.002300	3.711200	-11.141000	24.253566	0.001055	20.755769
779.206978	-3.024000	3.708900	-11.213000	24.255549	0.001056	20.724566
780.207033	-3.005400	3.710400	-11.150000	24.263431	0.001056	20.736266
781.208007	-3.018600	3.710300	-11.199000	24.259827	0.001056	20.766792
782.205972	-3.025000	3.708900	-11.218000	24.297748	0.001053	20.727540
783.211792	-3.004500	3.709900	-11.145000	24.289607	0.001054	20.742609
784.208705	-2.997500	3.709200	-11.118000	24.290006	0.001055	20.745380
785.208627	-3.000300	3.708500	-11.126000	24.286084	0.001053	20.739075
786.209628	-3.008000	3.708100	-11.153000	24.294635	0.001055	20.724892
787.209138	-3.016000	3.708100	-11.183000	24.285255	0.001053	20.752942
788.215180	-2.990000	3.708300	-11.087000	24.308392	0.001054	20.734425
789.211398	-3.004500	3.706500	-11.135000	24.298994	0.001053	20.735429
790.212411	-2.993900	3.708200	-11.100000	24.298840	0.001053	20.730059
791.211339	-2.989300	3.708200	-11.083000	24.274260	0.001054	20.753768
792.211137	-3.003800	3.707200	-11.135000	24.302407	0.001054	20.752130
793.209615	-3.021800	3.706900	-11.199000	24.339546	0.001053	20.771842
794.217161	-3.013200	3.706200	-11.167000	24.335611	0.001053	20.747031
795.212760	-3.002000	3.706400	-11.126000	24.328226	0.001053	20.747210
796.213211	-3.008300	3.705500	-11.147000	24.326084	0.001054	20.763553
797.213664	-3.004300	3.706200	-11.134000	24.315089	0.001054	20.739721
798.213395	-3.020600	3.705300	-11.191000	24.300037	0.001052	20.753072
799.217371	-3.021500	3.704300	-11.192000	24.265605	0.001052	20.751249
800.210992	-3.011200	3.704300	-11.152000	24.242890	0.001052	20.755966
801.216912	-3.031200	3.704200	-11.227000	24.266974	0.001052	20.740294
802.209691	-2.983200	3.703900	-11.048000	24.269582	0.001051	20.752394
803.213705	-2.987700	3.703800	-11.065000	24.258833	0.001052	20.772432
804.213395	-3.014000	3.703200	-11.160000	24.226314	0.001050	20.761151
805.213498	-3.014100	3.704100	-11.163000	24.205907	0.001047	20.759648
806.213750	-3.008600	3.702700	-11.139000	24.187085	0.001049	20.755942
807.211408	-3.004100	3.702500	-11.121000	24.228132	0.001050	20.747800
808.213276	-3.012500	3.703100	-11.154000	24.241466	0.001048	20.750270
809.215460	-2.996500	3.702800	-11.095000	24.238948	0.001047	20.745373
810.219192	-2.980600	3.702100	-11.033000	24.238426	0.001049	20.743428
811.223335	-2.991400	3.701700	-11.072000	24.200094	0.001047	20.768990
812.216485	-3.008300	3.701900	-11.135000	24.190037	0.001050	20.768861
813.216980	-2.997000	3.701200	-11.091000	24.190952	0.001050	20.760294
814.217549	-2.992300	3.701200	-11.073000	24.219886	0.001047	20.761341
815.222974	-3.002700	3.700700	-11.110000	24.238420	0.001045	20.772345
816.219465	-3.005700	3.700300	-11.120000	24.286628	0.001046	20.767597
817.216371	-2.986800	3.702000	-11.057000	24.293823	0.001048	20.755848
818.220623	-3.017400	3.698500	-11.158000	24.305210	0.001048	20.747355
819.220689	-2.999600	3.699600	-11.095000	24.304762	0.001047	20.775356
820.218508	-2.993600	3.700400	-11.077000	24.278365	0.001046	20.777326
821.224425	-2.998600	3.699800	-11.093000	24.283743	0.001046	20.784143
822.223580	-3.007600	3.699100	-11.125000	24.280176	0.001044	20.772030
823.223573	-3.003100	3.698300	-11.105000	24.265645	0.001046	20.760773
824.221493	-2.999600	3.698400	-11.093000	24.259801	0.001045	20.764394
825.225515	-2.980900	3.699600	-11.026000	24.262459	0.001043	20.772750
826.227054	-2.993900	3.699400	-11.075000	24.308260	0.001045	20.769856
827.223066	-3.010300	3.697600	-11.130000	24.330592	0.001042	20.773291
828.231647	-2.988700	3.697700	-11.050000	24.347412	0.001044	20.768827
829.225173	-3.013900	3.697400	-11.142000	24.334103	0.001044	20.789616
830.225912	-2.991300	3.697000	-11.058000	24.332514	0.001043	20.761469
831.227581	-3.002700	3.696400	-11.098000	24.305533	0.001043	20.776604
832.223865	-3.016500	3.694600	-11.142000	24.302403	0.001044	20.793378
833.227396	-3.000500	3.696200	-11.089000	24.283097	0.001040	20.773537
834.226856	-3.014300	3.696200	-11.140000	24.278216	0.001044	20.765796
835.226556	-2.987000	3.697400	-11.043000	24.287197	0.001042	20.777176
836.227632	-3.001600	3.695300	-11.090000	24.310456	0.001043	20.779171
837.232131	-3.008200	3.695500	-11.114000	24.319879	0.001041	20.781037
838.223887	-3.003900	3.694300	-11.096000	24.314526	0.001042	20.783253
839.228866	-3.021900	3.693700	-11.161000	24.309995	0.001039	20.777760
840.225718	-3.015600	3.693000	-11.134000	24.331615	0.001038	20.780008
841.228406	-2.993200	3.694500	-11.056000	24.339178	0.001040	20.788069
842.233500	-2.991700	3.695800	-11.055000	24.382803	0.001040	20.793425
843.229416	-2.987300	3.694200	-11.034000	24.388744	0.001039	20.793222
844.234441	-2.991800	3.692900	-11.047000	24.388916	0.001039	20.780118
845.230946	-3.002600	3.694200	-11.091000	24.368543	0.001038	20.798561
846.233187	-2.987400	3.692300	-11.030000	24.377849	0.001040	20.785137
847.229829	-2.994600	3.693400	-11.059000	24.401677	0.001039	20.804300
848.232027	-2.989700	3.692500	-11.038000	24.392925	0.001037	20.769914
849.230165	-2.991700	3.691600	-11.043000	24.376001	0.001037	20.788024
850.232361	-2.980700	3.692300	-11.004000	24.381679	0.001038	20.805100
851.236032	-3.005100	3.691000	-11.089000	24.404268	0.001040	20.790303
852.232838	-3.003300	3.691900	-11.087000	24.431631	0.001036	20.797366
853.235694	-2.996700	3.691400	-11.061000	24.448240	0.001036	20.791269
854.233191	-3.001000	3.690000	-11.072000	24.436456	0.001037	20.785137
855.233062	-2.995300	3.689700	-11.051000	24.456460	0.001036	20.796197
856.231750	-2.978200	3.691500	-10.992000	24.459117	0.001035	20.796018
857.232975	-3.005100	3.690900	-11.090000	24.496999	0.001035	20.804626
858.235327	-3.011800	3.689100	-11.109000	24.486934	0.001034	20.796899
859.234828	-3.007000	3.689600	-11.093000	24.479992	0.001034	20.801788
860.232378	-3.016700	3.687700	-11.123000	24.489518	0.001035	20.785266
861.233109	-2.997800	3.689400	-11.059000	24.495146	0.001033	20.805612
862.234266	-2.986800	3.688000	-11.014000	24.489402	0.001033	20.787995
863.237914	-3.004700	3.688100	-11.081000	24.491120	0.001032	20.804892
864.235873	-2.971800	3.688500	-10.960000	24.485204	0.001032	20.809862
865.237371	-2.995600	3.688000	-11.046000	24.494705	0.001033	20.793316
866.237336	-2.974800	3.689800	-10.975000	24.487819	0.001034	20.792571
867.235538	-2.986100	3.687000	-11.009000	24.492699	0.001032	20.816907
868.241682	-3.001100	3.687700	-11.066000	24.499910	0.001033	20.783839
869.240920	-2.993600	3.686800	-11.036000	24.510884	0.001032	20.801962
870.244751	-2.998400	3.685600	-11.050000	24.503047	0.001030	20.791254
871.241767	-2.990200	3.686900	-11.023000	24.495688	0.001033	20.809949
872.241878	-3.031500	3.684900	-11.169000	24.506036	0.001031	20.791882
873.239655	-3.014900	3.686100	-11.111000	24.486334	0.001029	20.801513
874.240391	-2.993700	3.685500	-11.033000	24.496738	0.001031	20.799149
875.241733	-2.977600	3.685400	-10.973000	24.520238	0.001030	20.799019
876.239650	-2.979800	3.686600	-10.984000	24.483837	0.001031	20.828879
877.244948	-2.986400	3.685200	-11.004000	24.470923	0.001030	20.816871
878.243086	-3.007000	3.683800	-11.075000	24.491613	0.001029	20.797800
879.249323	-3.016900	3.682900	-11.111000	24.494879	0.001030	20.806766
880.243531	-3.003400	3.684600	-11.065000	24.505539	0.001031	20.790909
881.241931	-2.995600	3.684700	-11.036000	24.522779	0.001031	20.787344
882.241967	-3.002400	3.683900	-11.058000	24.514028	0.001030	20.808435
883.241719	-3.007200	3.682200	-11.073000	24.494847	0.001029	20.827597
884.246943	-3.017800	3.682100	-11.110000	24.513401	0.001030	20.814919
885.244689	-3.014300	3.681800	-11.097000	24.520318	0.001029	20.797677
886.248300	-3.011400	3.682300	-11.088000	24.507079	0.001029	20.803360
887.245746	-2.991200	3.681800	-11.011000	24.552815	0.001027	20.790927
888.243936	-2.999500	3.682400	-11.045000	24.552115	0.001028	20.802079
889.246299	-3.012100	3.680200	-11.084000	24.517550	0.001028	20.815288
890.245534	-3.009700	3.681000	-11.078000	24.495338	0.001024	20.811969
891.245627	-3.013300	3.680800	-11.091000	24.504783	0.001027	20.806746
892.248481	-3.028200	3.679900	-11.142000	24.495828	0.001027	20.811986
893.247317	-2.998200	3.679900	-11.033000	24.484983	0.001025	20.812011
894.247533	-3.006800	3.681100	-11.067000	24.517672	0.001026	20.813040
895.250750	-2.977700	3.681100	-10.960000	24.503439	0.001026	20.803975
896.247924	-3.010100	3.679400	-11.074000	24.544824	0.001026	20.818470
897.249512	-3.024300	3.678500	-11.123000	24.541687	0.001024	20.817694
898.246173	-3.015300	3.678800	-11.092000	24.574067	0.001027	20.796604
899.253261	-3.010500	3.679900	-11.077000	24.548954	0.001025	20.822140
900.244598	-3.039100	3.676700	-11.173000	24.521219	0.001024	20.816598
901.250799	-3.032400	3.678000	-11.152000	24.505568	0.001025	20.814646
902.249846	-3.009800	3.678600	-11.071000	24.527356	0.001025	20.825126
903.248606	-3.011000	3.677300	-11.072000	24.512706	0.001024	20.831290
904.250311	-3.000200	3.678300	-11.034000	24.488751	0.001021	20.822429
905.250250	-2.981300	3.677300	-10.962000	24.522249	0.001024	20.815735
906.253882	-2.993900	3.677200	-11.009000	24.550929	0.001024	20.820329
907.250512	-2.959000	3.677800	-10.880000	24.552291	0.001021	20.826911
908.249904	-2.998300	3.677200	-11.024000	24.562093	0.001022	20.826314
909.250875	-3.022100	3.676500	-11.110000	24.584591	0.001020	20.832292
910.251945	-2.987000	3.676600	-10.981000	24.564393	0.001021	20.830519
911.253687	-3.006200	3.675700	-11.049000	24.562902	0.001018	20.824281
912.250452	-3.015500	3.674800	-11.081000	24.535038	0.001019	20.842316
913.251622	-3.000800	3.675900	-11.029000	24.564534	0.001018	20.835875
914.248136	-3.015800	3.674000	-11.080000	24.533344	0.001018	20.831608
915.252708	-3.012500	3.673800	-11.065000	24.515834	0.001018	20.820678
916.251643	-3.017600	3.675300	-11.089000	24.540377	0.001018	20.833449
917.258237	-3.001000	3.674500	-11.026000	24.555444	0.001017	20.830548
918.250967	-3.001500	3.674200	-11.027000	24.550245	0.001016	20.831970
919.252008	-3.014700	3.673800	-11.075000	24.524082	0.001017	20.840807
920.249296	-2.997200	3.672800	-11.007000	24.486771	0.001017	20.842728
921.256938	-2.995100	3.674400	-11.004000	24.545317	0.001017	20.835560
922.254763	-3.022000	3.672800	-11.099000	24.552927	0.001016	20.843195
923.256506	-3.003100	3.673100	-11.029000	24.584834	0.001018	20.852924
924.248672	-2.996200	3.671700	-11.000000	24.584865	0.001016	20.842524
925.252184	-2.998300	3.672700	-11.011000	24.597520	0.001017	20.852376
926.251485	-3.004700	3.672100	-11.031000	24.606621	0.001016	20.843491
927.250822	-2.993000	3.672000	-10.990000	24.619656	0.001017	20.877431
928.251217	-2.999200	3.672400	-11.013000	24.616771	0.001017	20.845615
929.255689	-3.006700	3.671700	-11.039000	24.610622	0.001015	20.844186
930.254727	-3.014000	3.669900	-11.059000	24.626817	0.001015	20.845264
931.255106	-2.994300	3.671300	-10.991000	24.615298	0.001015	20.835128
932.254079	-3.009600	3.670200	-11.045000	24.615004	0.001016	20.843842
933.257302	-2.987000	3.671100	-10.964000	24.626173	0.001015	20.843195
934.257262	-3.005000	3.669800	-11.027000	24.604485	0.001013	20.838977
935.260755	-3.008900	3.669300	-11.039000	24.607051	0.001013	20.853879
936.259683	-3.003100	3.669400	-11.018000	24.573020	0.001012	20.840597
937.254774	-3.008700	3.669300	-11.038000	24.554173	0.001014	20.860566
938.258710	-2.994900	3.669300	-10.988000	24.552902	0.001014	20.853128
939.261314	-2.993700	3.668900	-10.982000	24.568074	0.001013	20.848910
940.261596	-2.989500	3.669300	-10.968000	24.564888	0.001013	20.863256
941.260962	-2.982400	3.669200	-10.943000	24.569719	0.001013	20.858146
942.256658	-2.982600	3.668500	-10.941000	24.563901	0.001011	20.861791
943.261652	-3.004200	3.667400	-11.016000	24.556364	0.001010	20.849015
944.258802	-2.998400	3.666900	-10.993000	24.575568	0.001011	20.871600
945.262314	-2.997700	3.666500	-10.990000	24.587609	0.001011	20.841010
946.263855	-2.992800	3.668100	-10.977000	24.580539	0.001011	20.867579
947.258953	-3.002500	3.665800	-11.006000	24.581319	0.001011	20.846552
948.262302	-2.984600	3.665900	-10.940000	24.612304	0.001011	20.847771
949.263114	-2.999600	3.667300	-10.999000	24.635981	0.001010	20.878638
950.255619	-2.974900	3.667100	-10.908000	24.631360	0.001009	20.869261
951.256000	-2.995100	3.665500	-10.978000	24.656944	0.001007	20.854630
952.258362	-2.991500	3.664800	-10.962000	24.654987	0.001008	20.843184
953.258439	-2.981700	3.666200	-10.931000	24.686786	0.001007	20.861816
954.262267	-2.997500	3.664600	-10.983000	24.722875	0.001008	20.857728
955.265907	-3.001400	3.666400	-11.004000	24.711283	0.001007	20.867432
956.258447	-3.011300	3.664700	-11.034000	24.708245	0.001007	20.864858
957.261611	-3.012300	3.663200	-11.033000	24.683951	0.001006	20.861816
958.260368	-2.998900	3.664400	-10.988000	24.653955	0.001006	20.848312
959.259997	-3.011300	3.664400	-11.033000	24.668953	0.001004	20.845345
960.260225	-3.003900	3.664500	-11.007000	24.620828	0.001005	20.862013
961.259934	-3.000900	3.663300	-10.993000	24.590609	0.001006	20.857296
962.263573	-2.991500	3.662800	-10.956000	24.562053	0.001004	20.885066
963.264295	-2.993800	3.663900	-10.968000	24.544851	0.001004	20.851213
964.264440	-2.985600	3.663600	-10.935000	24.551957	0.001007	20.836059
965.264082	-2.978000	3.662900	-10.906000	24.570590	0.001003	20.863288
966.264944	-2.999000	3.662900	-10.984000	24.600232	0.001001	20.842296
967.265507	-2.985600	3.663700	-10.938000	24.605700	0.001002	20.838774
968.264753	-2.985800	3.662600	-10.935000	24.623037	0.001005	20.861385
969.262012	-2.985400	3.661900	-10.931000	24.630696	0.001002	20.856268
970.268270	-2.984500	3.662800	-10.929000	24.646510	0.001002	20.873083
971.264807	-2.999000	3.660800	-10.978000	24.638330	0.001003	20.846859
972.264381	-2.991900	3.661200	-10.953000	24.636170	0.001001	20.844692
973.266542	-3.000300	3.660900	-10.983000	24.586945	0.001004	20.839870
974.266991	-3.018700	3.660100	-11.048000	24.582177	0.001001	20.859267
975.271191	-2.998100	3.660000	-10.972000	24.573062	0.000999	20.838743
976.265247	-2.994600	3.659600	-10.958000	24.594555	0.000999	20.868367
977.270066	-2.984400	3.658900	-10.919000	24.574487	0.001000	20.848232
978.269040	-2.994200	3.659300	-10.956000	24.583539	0.000998	20.838349
979.269914	-3.000400	3.658900	-10.976000	24.580900	0.000999	20.834753
980.271019	-3.004100	3.659500	-10.992000	24.573069	0.001000	20.852025
981.271508	-2.991200	3.659300	-10.944000	24.594082	0.000999	20.844186
982.269756	-3.008400	3.657100	-11.000000	24.593088	0.000999	20.830861
983.270400	-2.989100	3.659200	-10.937000	24.615592	0.000999	20.837320
984.270370	-3.008000	3.656900	-10.998000	24.608130	0.000998	20.834100
985.272807	-3.004100	3.656900	-10.985000	24.590719	0.000994	20.832751
986.268809	-2.991500	3.657300	-10.940000	24.578506	0.000997	20.852739
987.267353	-3.017500	3.655600	-11.029000	24.618470	0.000997	20.824561
988.270677	-2.997600	3.656800	-10.960000	24.630014	0.000995	20.837566
989.267998	-3.011500	3.655900	-11.009000	24.640004	0.000996	20.834789
990.271681	-2.990700	3.655700	-10.932000	24.672934	0.000997	20.835589
991.274274	-3.020900	3.654800	-11.039000	24.699812	0.000996	20.843120
992.269071	-3.022000	3.655600	-11.045000	24.721032	0.000996	20.817948
993.268944	-2.990900	3.655600	-10.933000	24.709219	0.000995	20.833594
994.268754	-3.012800	3.654300	-11.009000	24.685097	0.000993	20.830725
995.270725	-2.984200	3.654800	-10.906000	24.684526	0.000992	20.830152
996.273466	-3.023200	3.654600	-11.048000	24.692951	0.000993	20.833391
997.276043	-3.024500	3.652900	-11.048000	24.673995	0.000994	20.823852
998.272871	-3.002900	3.653400	-10.969000	24.681783	0.000993	20.824080
999.273773	-3.002600	3.653000	-10.967000	24.676935	0.000991	20.823009
1000.274850	-2.989200	3.654100	-10.922000	24.652829	0.000993	20.836752
1001.274146	-2.975900	3.653500	-10.871000	24.689465	0.000990	20.853126
1002.277586	-2.993800	3.653500	-10.936000	24.681586	0.000989	20.813452
1003.270118	-2.981900	3.652900	-10.892000	24.710826	0.000993	20.833785
1004.276451	-2.992200	3.652800	-10.929000	24.712317	0.000991	20.817263
1005.275372	-2.994100	3.652800	-10.936000	24.678395	0.000990	20.822103
1006.274873	-3.010900	3.650600	-10.990000	24.687667	0.000990	20.832830
1007.274785	-3.020000	3.652000	-11.027000	24.701142	0.000988	20.824067
1008.276504	-3.028900	3.650100	-11.054000	24.727756	0.000990	20.812842
1009.276916	-2.996900	3.650700	-10.940000	24.709420	0.000990	20.809615
1010.276375	-3.016400	3.650000	-11.010000	24.724271	0.000989	20.804602
1011.278195	-2.988900	3.652500	-10.916000	24.740826	0.000989	20.809362
1012.273790	-3.004200	3.649900	-10.964000	24.740329	0.000988	20.832570
1013.279721	-2.980100	3.650800	-10.879000	24.721632	0.000988	20.825662
1014.276398	-2.983900	3.649100	-10.888000	24.718447	0.000985	20.804922
1015.279958	-3.018000	3.648500	-11.010000	24.730302	0.000987	20.817767
1016.278858	-2.992100	3.650200	-10.920000	24.728019	0.000986	20.787976
1017.275208	-3.012900	3.647800	-10.988000	24.740525	0.000985	20.825655
1018.279374	-2.998200	3.648600	-10.938000	24.724282	0.000985	20.821683
1019.282141	-2.988300	3.649500	-10.905000	24.751736	0.000985	20.817939
1020.282155	-2.979600	3.649600	-10.873000	24.757780	0.000986	20.808832
1021.278435	-3.016100	3.647500	-11.000000	24.765455	0.000984	20.823173
1022.278363	-3.002700	3.646700	-10.949000	24.749772	0.000982	20.827348
1023.284495	-2.971000	3.648300	-10.838000	24.775623	0.000983	20.812514
1024.281816	-2.984900	3.647900	-10.888000	24.800768	0.000980	20.809300
1025.286154	-2.994500	3.647300	-10.921000	24.794000	0.000981	20.787808
1026.282806	-3.002600	3.646100	-10.946000	24.805934	0.000980	20.805001
1027.283628	-2.988200	3.646800	-10.896000	24.772960	0.000981	20.831652
1028.287465	-2.991200	3.646200	-10.906000	24.740260	0.000980	20.800259
1029.280913	-2.991000	3.645600	-10.901000	24.742101	0.000980	20.829133
1030.281285	-3.001800	3.645000	-10.939000	24.760521	0.000981	20.819644
1031.288282	-3.005800	3.644600	-10.954000	24.729662	0.000980	20.782038
1032.286495	-3.000600	3.645200	-10.937000	24.732694	0.000978	20.786977
1033.284481	-3.001200	3.645200	-10.939000	24.739456	0.000977	20.815099
1034.288205	-3.003200	3.643800	-10.942000	24.738308	0.000977	20.797826
1035.286667	-2.998100	3.645300	-10.927000	24.739578	0.000977	20.802894
1036.288152	-2.970900	3.644400	-10.826000	24.747512	0.000976	20.802322
1037.286726	-2.990300	3.643100	-10.893000	24.692304	0.000977	20.798128
1038.286914	-2.997700	3.642900	-10.919000	24.679588	0.000977	20.808602
1039.288679	-3.025800	3.642000	-11.018000	24.660516	0.000973	20.825499
1040.288677	-3.025900	3.642000	-11.019000	24.661331	0.000975	20.822051
1041.290021	-3.013900	3.643100	-10.979000	24.678220	0.000973	20.805807
1042.288825	-3.009300	3.641200	-10.956000	24.703287	0.000975	20.782123
1043.296523	-2.999300	3.641000	-10.921000	24.684202	0.000974	20.808491
1044.290490	-3.012900	3.641400	-10.970000	24.735589	0.000974	20.806952
1045.292323	-2.988700	3.641900	-10.884000	24.760600	0.000974	20.805972
1046.286633	-2.987200	3.641700	-10.878000	24.766221	0.000973	20.791224
1047.293639	-3.004900	3.641400	-10.940000	24.792182	0.000972	20.787881
1048.289782	-3.005300	3.641400	-10.942000	24.790881	0.000972	20.798903
1049.293882	-2.990200	3.641300	-10.887000	24.802244	0.000973	20.794186
1050.291730	-3.012100	3.639700	-10.963000	24.820419	0.000969	20.786821
1051.291696	-3.026600	3.640700	-11.017000	24.847128	0.000972	20.795608
1052.296197	-3.012700	3.638500	-10.961000	24.824468	0.000972	20.802738
1053.296974	-2.992400	3.639200	-10.889000	24.819768	0.000971	20.798970
1054.295082	-2.985400	3.638500	-10.860000	24.805539	0.000972	20.793698
1055.292822	-3.006000	3.639000	-10.937000	24.789174	0.000970	20.795293
1056.294696	-3.004100	3.639300	-10.931000	24.777037	0.000972	20.789751
1057.291332	-3.009900	3.637200	-10.946000	24.772435	0.000969	20.806469
1058.295308	-3.022700	3.637200	-10.994000	24.788223	0.000970	20.796235
1059.292403	-2.997600	3.638300	-10.905000	24.792346	0.000969	20.794683
1060.296258	-3.014100	3.636800	-10.961000	24.796665	0.000969	20.789060
1061.301210	-2.987000	3.637200	-10.862000	24.782834	0.000967	20.801733
1062.295706	-3.002400	3.636100	-10.914000	24.782460	0.000968	20.792348
1063.296902	-3.004600	3.636500	-10.926000	24.777581	0.000968	20.785556
1064.295743	-2.985400	3.637200	-10.856000	24.807886	0.000968	20.797477
1065.298268	-3.018300	3.635800	-10.973000	24.822410	0.000968	20.778862
1066.302350	-3.012200	3.635900	-10.951000	24.834190	0.000968	20.788314
1067.299358	-3.014800	3.633600	-10.953000	24.834467	0.000967	20.788117
1068.299294	-2.990900	3.635800	-10.873000	24.854254	0.000966	20.773836
1069.300989	-2.986500	3.635800	-10.857000	24.868973	0.000966	20.790506
1070.301314	-2.983400	3.635200	-10.843000	24.841369	0.000967	20.788406
1071.302423	-3.006000	3.635000	-10.926000	24.851357	0.000965	20.784206
1072.301754	-2.980700	3.635400	-10.835000	24.879777	0.000965	20.780012
1073.303439	-3.000100	3.633500	-10.900000	24.852774	0.000963	20.783732
1074.304882	-2.994200	3.635700	-10.885000	24.841079	0.000965	20.794754
1075.298976	-3.022200	3.632800	-10.977000	24.817733	0.000963	20.798350
1076.308615	-3.010800	3.632200	-10.934000	24.843165	0.000963	20.755595
1077.304592	-2.989000	3.633500	-10.859000	24.850774	0.000963	20.781249
1078.306711	-3.007700	3.631600	-10.922000	24.881028	0.000962	20.772258
1079.303261	-3.011200	3.631700	-10.935000	24.906287	0.000961	20.784808
1080.306711	-2.980200	3.632600	-10.825000	24.900562	0.000961	20.769105
1081.305472	-3.006400	3.631800	-10.917000	24.903096	0.000962	20.770226
1082.304672	-3.017700	3.630200	-10.954000	24.903992	0.000962	20.768280
1083.300749	-3.010100	3.631900	-10.930000	24.885217	0.000963	20.789740
1084.311628	-2.998400	3.631300	-10.887000	24.853779	0.000960	20.771463
1085.306636	-3.014700	3.630000	-10.942000	24.839556	0.000960	20.772362
1086.309506	-3.005600	3.629800	-10.909000	24.833911	0.000960	20.768593
1087.311922	-2.984300	3.631600	-10.836000	24.839574	0.000959	20.779018
1088.310311	-2.998700	3.629900	-10.884000	24.822143	0.000959	20.769110
1089.309053	-2.984400	3.630400	-10.833000	24.817320	0.000958	20.767589
1090.308566	-2.999700	3.628900	-10.885000	24.819203	0.000956	20.751935
1091.305418	-3.000500	3.628600	-10.886000	24.838819	0.000957	20.767829
1092.315608	-3.023800	3.627800	-10.969000	24.836009	0.000957	20.770224
1093.305172	-3.011800	3.628000	-10.925000	24.827032	0.000958	20.767853
1094.308547	-3.041300	3.626200	-11.026000	24.782142	0.000956	20.779227
1095.314624	-3.001300	3.627700	-10.886000	24.753296	0.000955	20.764503
1096.309891	-2.990600	3.626700	-10.844000	24.717141	0.000954	20.778008
1097.308566	-3.010000	3.627700	-10.919000	24.713061	0.000954	20.740721
1098.313135	-2.997600	3.628400	-10.875000	24.743742	0.000955	20.763450
1099.309758	-2.995600	3.627100	-10.864000	24.749583	0.000953	20.766941
1100.306746	-3.001300	3.626700	-10.883000	24.759628	0.000953	20.775125
1101.311284	-2.997000	3.625000	-10.863000	24.801451	0.000951	20.780587
1102.311610	-2.978000	3.626600	-10.799000	24.826988	0.000951	20.781560
1103.325514	-3.013300	3.625400	-10.924000	24.840861	0.000952	20.771301
1104.311159	-3.003200	3.624600	-10.884000	24.863342	0.000950	20.761621
1105.316005	-3.020600	3.623200	-10.943000	24.861575	0.000951	20.744199
1106.313589	-3.000200	3.624900	-10.875000	24.846733	0.000952	20.749218
1107.309558	-3.018200	3.624200	-10.937000	24.812986	0.000949	20.762766
1108.310651	-3.009600	3.624200	-10.906000	24.836585	0.000949	20.766535
1109.312133	-3.022700	3.623900	-10.953000	24.855035	0.000949	20.756128
1110.310010	-2.994200	3.624000	-10.850000	24.864134	0.000948	20.755302
1111.308368	-2.998400	3.623200	-10.862000	24.871214	0.000949	20.762408
1112.309833	-3.001600	3.622300	-10.872000	24.869275	0.000946	20.746712
1113.312310	-3.015500	3.622500	-10.921000	24.912112	0.000948	20.745135
1114.312221	-3.032900	3.620400	-10.979000	24.944040	0.000945	20.765327
1115.309707	-3.008000	3.622900	-10.896000	24.934672	0.000946	20.751657
1116.315273	-3.011300	3.621900	-10.905000	24.939113	0.000944	20.757537
1117.311452	-3.015000	3.619600	-10.913000	24.906443	0.000945	20.752247
1118.311541	-3.010500	3.621000	-10.899000	24.891098	0.000943	20.761977
1119.313586	-3.014600	3.620900	-10.914000	24.846462	0.000942	20.747050
1120.314582	-3.020900	3.619800	-10.934000	24.843708	0.000944	20.748078
1121.316802	-3.040600	3.618900	-11.002000	24.805751	0.000942	20.749815
1122.313700	-3.014900	3.619600	-10.912000	24.776342	0.000942	20.750646
1123.324448	-2.984400	3.620600	-10.805000	24.767009	0.000942	20.748392
1124.322541	-2.971300	3.620800	-10.758000	24.764468	0.000942	20.748687
1125.322881	-2.992800	3.619300	-10.830000	24.772795	0.000941	20.741870
1126.321566	-3.016500	3.619600	-10.918000	24.780379	0.000943	20.749007
1127.321870	-2.992200	3.620300	-10.832000	24.752398	0.000944	20.742738
1128.317269	-3.012700	3.618700	-10.901000	24.741850	0.000940	20.746378
1129.319423	-3.000400	3.617500	-10.853000	24.748041	0.000942	20.743108
1130.323817	-2.995100	3.617400	-10.833000	24.728767	0.000938	20.743680
1131.321347	-3.010000	3.616700	-10.885000	24.739051	0.000938	20.741198
1132.322890	-3.007500	3.617700	-10.879000	24.747408	0.000939	20.731093
1133.318929	-2.985000	3.617000	-10.795000	24.781543	0.000939	20.744486
1134.321005	-3.000300	3.616700	-10.850000	24.825501	0.000938	20.745927
1135.322244	-3.010100	3.615700	-10.882000	24.836717	0.000937	20.753865
1136.321187	-3.018700	3.615500	-10.913000	24.840686	0.000936	20.755952
1137.327880	-2.996100	3.615900	-10.831000	24.856455	0.000937	20.760398
1138.318988	-3.023400	3.613300	-10.923000	24.856393	0.000935	20.759388
1139.322226	-2.971800	3.615500	-10.743000	24.864155	0.000935	20.752479
1140.322181	-2.987900	3.613800	-10.796000	24.901127	0.000936	20.748808
1141.322951	-2.985200	3.614500	-10.788000	24.884519	0.000935	20.743044
1142.320248	-2.981800	3.615900	-10.781000	24.882868	0.000933	20.742810
1143.326976	-2.988400	3.613900	-10.798000	24.853828	0.000935	20.751598
1144.320242	-2.987900	3.613900	-10.797000	24.864111	0.000934	20.724933
1145.326755	-2.995000	3.613800	-10.822000	24.862651	0.000934	20.738641
1146.327376	-2.986800	3.613800	-10.791000	24.843170	0.000933	20.738530
1147.327244	-3.003200	3.612400	-10.848000	24.814081	0.000931	20.740156
1148.322546	-2.997300	3.613000	-10.829000	24.787175	0.000932	20.741129
1149.325658	-2.992200	3.611500	-10.805000	24.788242	0.000932	20.747890
1150.325261	-3.007300	3.610500	-10.857000	24.775535	0.000931	20.730869
1151.324249	-2.998000	3.611100	-10.824000	24.813755	0.000931	20.724181
1152.325346	-3.009400	3.611000	-10.865000	24.797262	0.000930	20.744140
1153.323980	-3.032800	3.609400	-10.946000	24.845753	0.000930	20.735906
1154.324690	-3.017500	3.610200	-10.893000	24.871093	0.000928	20.734786
1155.325554	-3.014600	3.610100	-10.881000	24.889714	0.000928	20.734983
1156.327400	-3.011200	3.609500	-10.868000	24.924477	0.000927	20.737156
1157.326319	-3.006100	3.609800	-10.850000	24.950981	0.000927	20.727722
1158.331469	-2.984700	3.609900	-10.772000	24.966564	0.000927	20.744312
1159.326332	-2.996800	3.609300	-10.814000	24.958484	0.000927	20.747582
1160.329687	-2.985000	3.609600	-10.773000	24.965024	0.000926	20.720954
1161.331829	-2.976800	3.609100	-10.742000	24.967042	0.000926	20.736257
1162.326784	-3.005300	3.607800	-10.842000	24.974901	0.000925	20.731343
1163.332319	-2.964400	3.608500	-10.696000	25.005882	0.000926	20.738259
1164.335221	-3.011900	3.606900	-10.863000	24.996680	0.000926	20.729496
1165.328086	-3.016000	3.607800	-10.880000	24.980171	0.000923	20.740426
1166.331922	-2.996200	3.607700	-10.808000	25.015403	0.000923	20.747342
1167.332562	-3.008700	3.606800	-10.851000	24.998649	0.000923	20.729576
1168.329270	-2.991900	3.607200	-10.791000	24.946343	0.000921	20.734921
1169.324924	-3.010600	3.604700	-10.852000	24.893335	0.000921	20.714907
1170.330278	-2.992300	3.606100	-10.788000	24.892292	0.000922	20.723818
1171.329702	-2.986600	3.605700	-10.768000	24.882549	0.000921	20.736800
1172.328929	-2.990300	3.607000	-10.784000	24.891973	0.000920	20.730611
1173.329221	-3.002700	3.605000	-10.824000	24.878003	0.000920	20.749307
1174.338517	-2.992400	3.604900	-10.786000	24.854363	0.000920	20.714200
1175.332389	-2.995100	3.603800	-10.792000	24.878064	0.000918	20.721393
1176.332974	-3.012500	3.604700	-10.858000	24.851534	0.000918	20.728432
1177.330410	-2.999300	3.602800	-10.804000	24.837122	0.000919	20.733408
1178.336640	-2.991200	3.604500	-10.779000	24.836839	0.000918	20.713683
1179.332582	-2.978300	3.604400	-10.733000	24.826851	0.000917	20.741592
1180.331324	-3.005100	3.603100	-10.826000	24.809345	0.000917	20.732558
1181.336839	-3.009000	3.602200	-10.838000	24.814549	0.000917	20.708381
1182.329243	-2.991100	3.603900	-10.778000	24.820218	0.000917	20.724503
1183.332536	-3.006800	3.601400	-10.828000	24.820844	0.000915	20.723235
1184.332663	-3.003800	3.602100	-10.819000	24.848817	0.000916	20.748939
1185.334829	-2.988300	3.602000	-10.762000	24.861978	0.000914	20.728956
1186.333258	-3.010800	3.601600	-10.843000	24.836116	0.000913	20.737614
1187.333340	-3.002600	3.600300	-10.810000	24.824925	0.000914	20.730649
1188.335287	-2.988000	3.601000	-10.759000	24.820182	0.000913	20.739641
1189.334595	-2.984100	3.601200	-10.744000	24.813641	0.000913	20.722644
1190.334487	-3.008400	3.599800	-10.828000	24.853162	0.000913	20.731488
1191.340221	-3.005900	3.599000	-10.816000	24.857708	0.000912	20.725619
1192.336411	-3.014300	3.599200	-10.849000	24.892447	0.000911	20.720655
1193.333339	-2.988800	3.600000	-10.758000	24.907589	0.000913	20.745337
1194.338458	-2.987200	3.599900	-10.752000	24.943947	0.000909	20.753380
1195.335733	-2.996500	3.599100	-10.783000	24.969058	0.000911	20.737806
1196.339976	-2.998700	3.597500	-10.786000	25.004419	0.000909	20.747222
1197.336926	-2.990100	3.598800	-10.759000	25.023528	0.000910	20.727522
1198.336015	-3.003500	3.597000	-10.802000	25.050239	0.000907	20.744851
1199.336430	-3.017700	3.596100	-10.851000	25.038541	0.000909	20.732160
1200.342822	-3.007200	3.595500	-10.811000	24.987224	0.000908	20.727590
1201.339543	-3.013600	3.595700	-10.834000	24.978175	0.000907	20.714239
1202.334504	-2.998700	3.595700	-10.782000	24.988119	0.000905	20.733231
1203.338479	-3.016900	3.594900	-10.844000	25.011352	0.000906	20.735689
1204.340863	-3.003400	3.594600	-10.795000	25.023904	0.000904	20.727424
1205.342414	-3.005700	3.594400	-10.803000	25.043725	0.000907	20.720294
1206.339049	-2.999100	3.595200	-10.782000	25.037069	0.000905	20.736847
1207.339767	-2.987000	3.595100	-10.737000	25.029253	0.000904	20.724733
1208.341290	-2.983000	3.595200	-10.724000	24.985979	0.000903	20.736773
1209.340177	-3.012400	3.594400	-10.827000	24.999133	0.000903	20.724371
1210.344676	-2.981300	3.593900	-10.713000	25.024721	0.000903	20.713071
1211.337690	-2.998600	3.593600	-10.773000	25.034364	0.000903	20.725596
1212.340168	-3.002500	3.593600	-10.789000	25.050523	0.000900	20.715737
1213.338655	-2.987200	3.592500	-10.730000	25.076116	0.000900	20.726256
1214.340521	-2.987700	3.593800	-10.737000	25.073583	0.000901	20.727506
1215.339909	-3.006800	3.592300	-10.800000	25.078061	0.000898	20.753814
1216.341327	-2.998900	3.592100	-10.771000	25.068197	0.000900	20.733954
1217.341172	-2.990800	3.592500	-10.742000	25.089918	0.000900	20.724938
1218.341330	-3.000400	3.591400	-10.774000	25.086122	0.000897	20.730610
1219.341196	-3.000600	3.591100	-10.774000	25.099022	0.000899	20.725068
1220.341104	-3.006400	3.589400	-10.790000	25.083392	0.000898	20.728818
1221.344940	-3.004700	3.591500	-10.790000	25.125332	0.000898	20.735833
1222.342837	-3.013000	3.588700	-10.812000	25.122872	0.000897	20.734312
1223.349102	-3.011900	3.589900	-10.811000	25.120989	0.000895	20.737163
1224.343114	-3.011900	3.587900	-10.806000	25.109954	0.000898	20.726085
1225.347856	-2.978300	3.589100	-10.688000	25.128595	0.000894	20.728677
1226.350522	-2.993800	3.588300	-10.741000	25.123504	0.000896	20.742059
1227.350083	-2.995400	3.588200	-10.746000	25.104562	0.000895	20.732526
1228.348042	-2.985400	3.587700	-10.709000	25.092932	0.000894	20.729860
1229.348014	-3.000400	3.587600	-10.763000	25.028269	0.000892	20.716632
1230.349499	-2.979900	3.587000	-10.688000	25.045875	0.000893	20.723875
1231.344213	-3.013500	3.586000	-10.804000	25.018159	0.000893	20.738728
1232.348319	-2.999400	3.587400	-10.759000	25.004362	0.000892	20.720137
1233.347789	-3.015000	3.586400	-10.811000	25.015055	0.000891	20.733716
1234.349542	-3.002000	3.587200	-10.767000	25.053961	0.000891	20.741949
1235.346842	-3.018500	3.584500	-10.819000	25.075143	0.000893	20.748040
1236.347578	-3.014300	3.585800	-10.808000	25.061875	0.000892	20.740884
1237.351107	-3.025400	3.584600	-10.844000	25.085443	0.000891	20.734671
1238.348082	-3.000300	3.586400	-10.759000	25.084327	0.000889	20.730705
1239.347787	-3.011700	3.584200	-10.793000	25.093896	0.000888	20.736044
1240.345862	-3.005300	3.584000	-10.769000	25.102177	0.000888	20.735822
1241.347575	-2.964300	3.584500	-10.624000	25.089148	0.000888	20.725113
1242.348342	-2.985600	3.585000	-10.702000	25.102282	0.000889	20.749204
1243.352402	-2.983000	3.583400	-10.687000	25.145582	0.000889	20.718703
1244.350171	-2.992600	3.582300	-10.719000	25.167480	0.000887	20.750171
1245.349142	-3.014200	3.583300	-10.799000	25.180785	0.000885	20.739345
1246.349663	-3.018700	3.581500	-10.809000	25.165020	0.000884	20.723044
1247.347339	-2.996700	3.582900	-10.736000	25.156722	0.000884	20.753121
1248.352391	-3.010000	3.582200	-10.780000	25.150207	0.000882	20.724294
1249.345857	-3.002500	3.581600	-10.751000	25.137749	0.000885	20.732177
1250.351799	-2.987100	3.582700	-10.700000	25.112201	0.000884	20.742092
1251.353055	-3.008400	3.581500	-10.774000	25.145208	0.000881	20.728759
1252.350851	-3.008400	3.579600	-10.768000	25.138774	0.000883	20.737473
1253.355418	-3.003400	3.580000	-10.750000	25.146460	0.000884	20.725748
1254.356971	-2.998700	3.580400	-10.735000	25.167756	0.000883	20.747603
1255.355816	-3.004300	3.581000	-10.757000	25.182576	0.000881	20.724073
1256.354007	-3.009300	3.579400	-10.771000	25.174687	0.000882	20.732275
1257.353405	-2.999100	3.578900	-10.732000	25.166615	0.000879	20.748354
1258.349963	-3.009600	3.579700	-10.772000	25.198572	0.000878	20.738710
1259.358160	-2.991000	3.578700	-10.703000	25.172903	0.000879	20.738070
1260.355906	-2.994800	3.577600	-10.712000	25.182447	0.000880	20.751920
1261.358081	-2.975400	3.577900	-10.644000	25.174638	0.000880	20.741709
1262.353892	-2.986800	3.577500	-10.684000	25.152937	0.000879	20.745053
1263.355297	-2.985600	3.577100	-10.679000	25.137669	0.000879	20.752486
1264.362651	-3.011600	3.576800	-10.771000	25.106796	0.000878	20.735717
1265.353352	-3.009200	3.577100	-10.764000	25.093644	0.000876	20.751913
1266.355599	-2.995600	3.577400	-10.715000	25.102588	0.000878	20.767530
1267.356206	-2.994800	3.576300	-10.709000	25.137092	0.000875	20.766132
1268.355178	-2.994800	3.575300	-10.706000	25.152329	0.000877	20.743969
1269.364278	-3.019700	3.575700	-10.797000	25.157665	0.000875	20.753119
1270.362821	-2.992400	3.575500	-10.698000	25.156745	0.000874	20.749351
1271.358516	-2.985900	3.574900	-10.673000	25.203079	0.000874	20.752719
1272.360192	-2.990400	3.575500	-10.692000	25.178317	0.000876	20.764370
1273.360020	-3.015500	3.573800	-10.776000	25.224172	0.000875	20.770103
1274.361346	-2.993400	3.573600	-10.696000	25.225969	0.000874	20.765743
1275.363384	-2.988300	3.573100	-10.676000	25.206348	0.000872	20.770700
1276.360526	-2.989700	3.574700	-10.686000	25.237991	0.000874	20.762639
1277.359148	-3.019000	3.572100	-10.783000	25.229483	0.000873	20.760262
1278.359677	-2.987300	3.573500	-10.674000	25.223540	0.000871	20.746233
1279.357393	-3.000000	3.572700	-10.717000	25.229826	0.000871	20.753968
1280.358987	-2.993500	3.572900	-10.694000	25.204844	0.000869	20.767768
1281.363763	-2.993000	3.573900	-10.696000	25.183941	0.000872	20.761481
1282.361841	-3.009200	3.571700	-10.747000	25.159448	0.000870	20.753961
1283.365829	-3.006900	3.571200	-10.737000	25.164993	0.000869	20.764744
1284.358096	-3.008800	3.572700	-10.748000	25.170084	0.000868	20.771278
1285.363395	-2.989200	3.572100	-10.677000	25.197072	0.000868	20.784621
1286.365718	-3.013000	3.570300	-10.757000	25.226882	0.000867	20.751960
1287.363214	-2.995100	3.571100	-10.694000	25.195459	0.000866	20.774467
1288.367379	-3.000500	3.569600	-10.709000	25.180990	0.000866	20.771320
1289.362342	-2.975200	3.570300	-10.621000	25.210640	0.000866	20.767896
1290.363226	-2.992100	3.570700	-10.683000	25.191840	0.000866	20.751867
1291.363027	-2.979900	3.569400	-10.635000	25.227328	0.000865	20.796979
1292.363671	-2.993900	3.568900	-10.684000	25.225071	0.000864	20.768635
1293.368105	-3.026000	3.566800	-10.792000	25.210480	0.000863	20.762994
1294.366527	-3.009000	3.567200	-10.733000	25.214031	0.000862	20.786000
1295.365981	-2.997400	3.566500	-10.688000	25.215497	0.000864	20.768031
1296.371718	-2.991700	3.568600	-10.674000	25.196752	0.000861	20.759170
1297.380555	-2.988000	3.568600	-10.662000	25.233878	0.000862	20.780796
1298.364830	-3.007600	3.565900	-10.723000	25.236043	0.000860	20.783444
1299.368853	-2.988200	3.566000	-10.654000	25.231216	0.000860	20.762476
1300.367456	-2.987900	3.567100	-10.656000	25.231608	0.000860	20.779940
1301.368582	-2.995000	3.566600	-10.681000	25.222488	0.000859	20.770309
1302.368226	-3.005600	3.565300	-10.715000	25.217090	0.000860	20.776269
1303.368080	-2.981300	3.565700	-10.628000	25.267869	0.000859	20.775093
1304.374280	-2.985200	3.564600	-10.640000	25.240226	0.000857	20.780056
1305.369160	-2.972100	3.566100	-10.597000	25.253173	0.000856	20.760812
1306.373943	-2.981900	3.564700	-10.629000	25.201418	0.000857	20.786614
1307.370363	-3.011600	3.562100	-10.726000	25.214974	0.000855	20.777464
1308.367435	-2.984100	3.564600	-10.635000	25.194604	0.000854	20.784514
1309.368300	-3.015500	3.561400	-10.738000	25.127175	0.000856	20.776091
1310.367503	-2.986700	3.564000	-10.643000	25.114017	0.000854	20.791805
1311.368329	-2.970300	3.563600	-10.584000	25.061618	0.000854	20.784724
1312.368924	-2.972200	3.564200	-10.592000	25.065838	0.000855	20.780426
1313.371313	-2.985400	3.562400	-10.634000	25.077653	0.000853	20.762414
1314.370251	-2.985400	3.561500	-10.631000	25.084542	0.000852	20.775019
1315.370267	-2.990900	3.562200	-10.653000	25.086352	0.000853	20.786319
1316.371501	-2.996100	3.561500	-10.669000	25.067660	0.000851	20.782255
1317.375465	-3.004300	3.560700	-10.697000	25.065372	0.000851	20.761465
1318.374201	-3.019500	3.559800	-10.748000	25.107785	0.000849	20.793610
1319.374409	-3.001800	3.559900	-10.685000	25.101228	0.000850	20.798407
1320.372481	-3.010500	3.560200	-10.717000	25.068863	0.000848	20.773031
1321.373130	-3.016900	3.558700	-10.735000	25.052079	0.000849	20.777520
1322.372918	-3.001100	3.558800	-10.680000	25.019615	0.000849	20.792348
1323.376019	-3.023900	3.558200	-10.758000	25.050889	0.000850	20.778696
1324.377164	-2.979100	3.560200	-10.604000	25.067722	0.000850	20.785162
1325.375731	-3.016700	3.558700	-10.734000	25.081144	0.000848	20.797687
1326.375671	-3.014400	3.557400	-10.722000	25.108914	0.000848	20.787631
1327.379503	-3.000200	3.556600	-10.669000	25.124556	0.000848	20.786738
1328.382104	-2.992300	3.558200	-10.646000	25.153889	0.000847	20.782994
1329.377854	-2.991400	3.557200	-10.639000	25.160102	0.000847	20.784965
1330.381542	-2.988800	3.558600	-10.634000	25.122262	0.000846	20.780168
1331.382198	-3.012600	3.556700	-10.714000	25.112674	0.000846	20.793777
1332.381021	-2.987800	3.556900	-10.626000	25.145663	0.000846	20.792281
1333.379884	-2.986400	3.555600	-10.618000	25.175468	0.000844	20.770993
1334.379769	-3.004400	3.554500	-10.678000	25.172088	0.000844	20.795575
1335.386549	-2.987800	3.556600	-10.625000	25.169702	0.000846	20.795076
1336.382704	-2.973600	3.554700	-10.569000	25.195979	0.000845	20.811973
1337.381955	-2.977400	3.556600	-10.588000	25.219170	0.000844	20.800643
1338.384368	-2.971200	3.555900	-10.565000	25.216686	0.000844	20.791037
1339.383492	-3.019700	3.553700	-10.731000	25.251439	0.000842	20.814073
1340.382754	-3.017200	3.554100	-10.722000	25.226709	0.000841	20.799677
1341.379663	-3.005200	3.552500	-10.674000	25.242300	0.000843	20.805373
1342.380889	-3.009800	3.553600	-10.694000	25.245281	0.000843	20.791770
1343.383363	-3.019500	3.550700	-10.721000	25.268723	0.000839	20.799658
1344.380294	-3.022200	3.552200	-10.734000	25.248741	0.000840	20.786234
1345.385664	-3.014400	3.551900	-10.703000	25.258665	0.000841	20.790034
1346.380948	-3.010300	3.550200	-10.687000	25.224280	0.000838	20.788704
1347.385542	-2.982200	3.551900	-10.591000	25.216258	0.000837	20.794874
1348.379525	-2.991300	3.552100	-10.625000	25.209450	0.000839	20.805109
1349.387545	-2.990300	3.552200	-10.621000	25.177414	0.000838	20.818939
1350.382760	-3.007100	3.551000	-10.676000	25.205850	0.000838	20.788218
1351.383049	-3.006400	3.551000	-10.675000	25.229918	0.000837	20.787251
1352.384145	-2.999300	3.551200	-10.650000	25.203746	0.000835	20.802702
1353.378467	-3.003900	3.549700	-10.663000	25.210309	0.000834	20.809765
1354.385282	-3.020000	3.548500	-10.716000	25.242179	0.000836	20.801932
1355.385282	-3.013200	3.548800	-10.692000	25.238523	0.000833	20.808693
1356.385310	-3.004900	3.548400	-10.661000	25.249386	0.000834	20.809641
1357.385080	-3.016300	3.547900	-10.701000	25.263952	0.000834	20.800085
1358.385564	-3.025800	3.547400	-10.733000	25.269325	0.000832	20.826341
1359.387307	-3.008400	3.547200	-10.670000	25.290608	0.000832	20.808355
1360.381533	-3.007800	3.547400	-10.669000	25.272183	0.000833	20.808823
1361.385497	-3.016300	3.546900	-10.697000	25.253219	0.000832	20.813964
1362.381480	-2.997400	3.547600	-10.632000	25.273257	0.000830	20.809901
1363.385018	-3.004700	3.546400	-10.654000	25.276035	0.000832	20.797517
1364.382134	-3.006600	3.545900	-10.660000	25.301568	0.000830	20.803712
1365.386308	-3.010000	3.545700	-10.671000	25.298618	0.000829	20.798854
1366.383791	-2.990900	3.545900	-10.605000	25.317501	0.000830	20.796003
1367.388948	-3.011500	3.546300	-10.679000	25.314018	0.000829	20.824747
1368.385652	-3.029800	3.545800	-10.742000	25.331773	0.000829	20.801323
1369.386883	-3.004600	3.545600	-10.652000	25.326523	0.000826	20.821182
1370.391095	-3.014000	3.545000	-10.684000	25.320709	0.000827	20.817715
1371.389002	-2.988900	3.545000	-10.595000	25.332785	0.000825	20.810873
1372.391785	-2.974800	3.544000	-10.542000	25.322549	0.000826	20.811502
1373.385853	-3.004100	3.543300	-10.643000	25.327964	0.000827	20.797499
1374.389743	-2.977100	3.544300	-10.550000	25.333883	0.000827	20.806286
1375.394286	-3.009400	3.542800	-10.659000	25.324812	0.000824	20.817093
1376.397166	-2.981900	3.544500	-10.568000	25.325260	0.000824	20.827025
1377.392523	-3.017100	3.542200	-10.686000	25.326824	0.000825	20.812949
1378.387724	-3.012000	3.541800	-10.667000	25.359862	0.000823	20.818146
1379.392477	-2.992200	3.541600	-10.597000	25.363412	0.000823	20.813177
1380.392705	-2.992200	3.541400	-10.595000	25.337146	0.000822	20.796286
1381.395454	-2.996900	3.540700	-10.610000	25.367018	0.000821	20.810634
1382.391232	-3.014800	3.540300	-10.672000	25.364038	0.000823	20.833245
1383.390383	-3.010700	3.539700	-10.656000	25.339703	0.000820	20.804070
1384.395580	-2.994000	3.539200	-10.594000	25.327204	0.000819	20.822814
1385.396587	-2.998900	3.539600	-10.615000	25.295717	0.000822	20.813959
1386.395207	-2.970000	3.540500	-10.514000	25.319599	0.000820	20.826084
1387.391634	-2.981600	3.540100	-10.555000	25.323402	0.000819	20.823738
1388.398210	-2.978000	3.540600	-10.543000	25.302623	0.000819	20.820893
1389.396662	-2.989800	3.537700	-10.576000	25.282862	0.000815	20.823337
1390.405575	-3.001200	3.539300	-10.621000	25.262132	0.000817	20.832395
1391.399027	-2.985500	3.538800	-10.564000	25.254729	0.000817	20.833972
1392.398983	-2.998700	3.539400	-10.612000	25.263328	0.000816	20.826010
1393.405684	-3.013600	3.537800	-10.660000	25.247921	0.000816	20.847051
1394.400743	-2.998500	3.537900	-10.607000	25.250681	0.000815	20.829908
1395.399542	-3.000500	3.537200	-10.612000	25.281182	0.000816	20.843935
1396.402333	-2.981900	3.537600	-10.547000	25.294681	0.000814	20.857014
1397.395470	-2.999800	3.536300	-10.606000	25.328346	0.000814	20.857150
1398.399164	-2.994500	3.535800	-10.587000	25.339575	0.000814	20.860838
1399.398252	-2.993000	3.536800	-10.585000	25.324936	0.000816	20.832390
1400.397406	-2.993400	3.535100	-10.580000	25.329591	0.000812	20.853185
1401.399316	-2.994100	3.535300	-10.584000	25.297111	0.000813	20.835747
1402.398942	-3.020300	3.534700	-10.675000	25.314682	0.000813	20.833949
1403.398347	-2.989200	3.535200	-10.566000	25.342722	0.000814	20.842188
1404.397520	-3.005400	3.534300	-10.621000	25.392612	0.000811	20.847237
1405.397533	-2.985000	3.534400	-10.548000	25.384627	0.000811	20.836375
1406.397957	-2.982700	3.533400	-10.538000	25.389454	0.000811	20.831739
1407.398823	-2.980600	3.533900	-10.532000	25.371964	0.000808	20.834091
1408.407843	-2.989400	3.533000	-10.560000	25.395973	0.000810	20.845871
1409.402100	-2.974800	3.533100	-10.509000	25.381237	0.000807	20.828229
1410.398868	-2.980100	3.532000	-10.524000	25.394115	0.000811	20.837367
1411.405368	-2.992900	3.532000	-10.570000	25.415144	0.000811	20.844732
1412.413771	-3.022700	3.530200	-10.669000	25.426875	0.000808	20.840865
1413.411469	-2.998000	3.531600	-10.587000	25.422625	0.000808	20.847029
1414.406625	-3.002800	3.530300	-10.600000	25.433069	0.000807	20.844240
1415.406312	-3.022900	3.529800	-10.669000	25.419211	0.000806	20.843126
1416.407431	-2.975600	3.530700	-10.504000	25.438270	0.000805	20.840928
1417.409420	-2.965200	3.531400	-10.469000	25.407657	0.000806	20.833422
1418.411006	-3.017000	3.529600	-10.648000	25.441109	0.000805	20.827184
1419.406353	-3.008100	3.528400	-10.612000	25.419039	0.000804	20.854807
1420.408616	-3.014900	3.528100	-10.635000	25.405916	0.000805	20.839259
1421.409787	-2.994300	3.527700	-10.561000	25.381165	0.000801	20.848071
1422.419247	-2.993600	3.529100	-10.563000	25.341952	0.000802	20.835725
1423.410283	-2.984200	3.529400	-10.530000	25.302830	0.000802	20.846230
1424.413177	-3.031600	3.525800	-10.687000	25.274428	0.000799	20.830990
1425.405069	-3.005200	3.527200	-10.599000	25.307388	0.000799	20.862185
1426.409360	-2.997700	3.527100	-10.572000	25.309252	0.000799	20.840350
1427.417477	-3.010800	3.526400	-10.616000	25.331828	0.000799	20.821293
1428.414583	-3.001400	3.526700	-10.584000	25.300083	0.000799	20.836834
1429.412007	-3.000400	3.527500	-10.583000	25.262401	0.000796	20.823183
1430.409335	-2.997200	3.526900	-10.570000	25.266112	0.000797	20.820745
1431.417384	-3.009500	3.525400	-10.608000	25.256170	0.000798	20.823565
1432.418809	-2.997100	3.525400	-10.565000	25.268547	0.000796	20.838362
1433.412991	-3.008700	3.525300	-10.605000	25.284082	0.000795	20.823140
1434.413747	-2.998900	3.525000	-10.570000	25.229527	0.000794	20.820523
1435.409616	-3.019500	3.523400	-10.636000	25.235936	0.000796	20.817001
1436.414981	-3.021000	3.522800	-10.641000	25.222491	0.000795	20.813934
1437.413866	-2.991700	3.524500	-10.544000	25.224601	0.000792	20.828854
1438.413728	-2.985300	3.523200	-10.516000	25.266682	0.000794	20.829852
1439.415208	-3.001500	3.522800	-10.572000	25.275956	0.000793	20.813559
1440.412727	-2.995600	3.523000	-10.552000	25.318630	0.000791	20.829852
1441.413645	-3.002000	3.521900	-10.571000	25.322782	0.000792	20.822641
1442.412605	-2.998100	3.522600	-10.560000	25.309639	0.000791	20.825092
1443.410740	-3.000400	3.522200	-10.567000	25.290522	0.000791	20.819174
1444.414240	-3.011100	3.520100	-10.599000	25.312246	0.000789	20.822019
1445.415167	-2.986800	3.522600	-10.519000	25.315803	0.000789	20.819901
1446.411648	-2.996200	3.521300	-10.550000	25.328511	0.000789	20.807531
1447.415405	-3.006400	3.520200	-10.581000	25.320574	0.000789	20.815683
1448.410323	-3.019800	3.519400	-10.626000	25.386759	0.000788	20.822395
1449.411853	-3.007300	3.520400	-10.585000	25.419764	0.000788	20.812389
1450.412590	-2.975300	3.519000	-10.469000	25.423549	0.000788	20.817137
1451.416238	-2.978200	3.519500	-10.480000	25.419078	0.000786	20.825924
1452.413876	-2.978200	3.520300	-10.483000	25.394800	0.000785	20.806761
1453.415781	-3.008200	3.519100	-10.585000	25.345818	0.000785	20.807365
1454.417545	-3.008700	3.518700	-10.585000	25.300508	0.000783	20.798381
1455.417034	-3.030200	3.515400	-10.651000	25.244561	0.000785	20.795789
1456.418738	-3.001800	3.518200	-10.560000	25.239716	0.000782	20.791398
1457.420677	-2.995600	3.516700	-10.533000	25.237054	0.000785	20.787303
1458.418584	-3.002000	3.516300	-10.555000	25.278025	0.000781	20.801885
1459.414590	-3.003700	3.515700	-10.560000	25.306752	0.000781	20.807495
1460.418443	-3.003800	3.514900	-10.557000	25.327635	0.000781	20.785789
1461.415062	-3.034400	3.513300	-10.659000	25.327163	0.000782	20.797643
1462.418274	-2.971900	3.516200	-10.449000	25.337184	0.000780	20.806282
1463.420456	-2.999200	3.514600	-10.540000	25.333805	0.000780	20.797200
1464.417947	-3.001600	3.514000	-10.546000	25.324231	0.000780	20.813665
1465.420382	-2.981800	3.514400	-10.478000	25.374042	0.000779	20.776435
1466.420098	-2.997800	3.514100	-10.534000	25.384652	0.000779	20.772863
1467.418818	-3.018100	3.513500	-10.602000	25.391171	0.000779	20.788419
1468.419122	-2.993800	3.513200	-10.517000	25.393452	0.000778	20.780752
1469.416003	-2.985300	3.513400	-10.487000	25.376238	0.000778	20.805667
1470.418149	-3.048500	3.511000	-10.701000	25.353792	0.000779	20.773172
1471.420770	-2.990900	3.512300	-10.504000	25.368211	0.000779	20.783856
1472.420987	-2.996500	3.511600	-10.521000	25.326035	0.000776	20.803149
1473.423462	-2.989700	3.513000	-10.502000	25.302196	0.000775	20.804817
1474.425141	-2.998200	3.511900	-10.527000	25.268274	0.000776	20.807743
1475.421986	-3.013000	3.510400	-10.575000	25.265164	0.000775	20.777119
1476.426031	-3.001500	3.511200	-10.537000	25.276327	0.000774	20.773628
1477.420040	-3.016000	3.509300	-10.583000	25.256946	0.000774	20.792576
1478.445388	-2.995400	3.510700	-10.515000	25.267924	0.000772	20.780839
1479.423792	-2.953900	3.509600	-10.367000	25.258308	0.000773	20.771658
1480.423960	-2.988800	3.508800	-10.486000	25.253137	0.000772	20.793968
1481.423914	-3.002700	3.509000	-10.536000	25.265772	0.000773	20.788635
1482.425645	-2.988600	3.508800	-10.486000	25.262761	0.000771	20.793198
1483.425536	-2.986800	3.508300	-10.477000	25.296119	0.000772	20.795871
1484.422945	-2.991200	3.508500	-10.494000	25.285950	0.000772	20.770962
1485.427896	-2.993900	3.507800	-10.501000	25.282945	0.000772	20.785489
1486.425763	-3.009400	3.506100	-10.551000	25.285306	0.000770	20.789756
1487.427647	-3.001200	3.506000	-10.521000	25.315855	0.000771	20.773013
1488.428209	-2.988200	3.507200	-10.478000	25.334475	0.000770	20.775587
1489.427660	-3.022600	3.504800	-10.592000	25.331317	0.000770	20.789485
1490.425962	-2.982400	3.506600	-10.457000	25.324601	0.000770	20.796967
1491.427944	-2.986500	3.505600	-10.468000	25.285656	0.000767	20.773986
1492.428040	-2.984500	3.506200	-10.463000	25.270072	0.000766	20.782046
1493.424664	-3.023800	3.503700	-10.593000	25.244072	0.000766	20.766849
1494.428904	-2.990200	3.504900	-10.479000	25.238430	0.000766	20.789633
1495.428727	-3.005700	3.504100	-10.531000	25.268183	0.000766	20.799590
1496.429242	-3.006300	3.503400	-10.531000	25.250831	0.000764	20.791179
1497.433836	-3.010700	3.504200	-10.549000	25.241785	0.000765	20.788734
1498.426786	-3.001700	3.502800	-10.513000	25.241484	0.000765	20.770888
1499.430880	-2.996100	3.503100	-10.494000	25.235823	0.000765	20.778007
1500.432620	-3.009600	3.502700	-10.540000	25.224016	0.000763	20.795077
1501.439731	-3.006300	3.501500	-10.525000	25.233903	0.000764	20.779398
1502.428318	-3.001700	3.501100	-10.509000	25.265244	0.000763	20.776252
1503.430807	-3.021700	3.501100	-10.578000	25.283564	0.000762	20.774731
1504.431771	-3.002000	3.501000	-10.509000	25.304638	0.000761	20.787828
1505.432113	-2.994000	3.500800	-10.480000	25.287318	0.000761	20.769964
1506.432446	-2.984000	3.501000	-10.446000	25.314009	0.000760	20.777797
1507.433034	-2.984000	3.501300	-10.446000	25.314279	0.000760	20.765265
1508.435463	-2.990300	3.500000	-10.465000	25.299363	0.000759	20.769256
1509.430716	-2.989700	3.499200	-10.460000	25.322797	0.000761	20.757697
1510.435558	-3.004700	3.498000	-10.509000	25.298547	0.000759	20.764643
1511.430872	-2.976600	3.498900	-10.414000	25.238336	0.000760	20.792858
1512.438241	-3.018900	3.497300	-10.557000	25.224714	0.000759	20.763534
1513.440038	-3.021100	3.496600	-10.562000	25.226474	0.000756	20.778578
1514.437239	-2.999400	3.497300	-10.488000	25.196671	0.000757	20.771890
1515.436967	-2.993800	3.498000	-10.472000	25.191273	0.000756	20.772161
1516.437874	-3.017400	3.496600	-10.550000	25.187942	0.000757	20.750799
1517.436055	-3.015800	3.496200	-10.543000	25.211078	0.000755	20.776397
1518.436702	-3.001500	3.496800	-10.495000	25.214286	0.000755	20.771083
1519.440925	-2.994400	3.496800	-10.470000	25.284256	0.000756	20.753139
1520.438195	-3.004900	3.496300	-10.506000	25.316810	0.000754	20.773971
1521.438698	-3.001900	3.496300	-10.494000	25.311143	0.000755	20.775393
1522.440330	-2.979500	3.495300	-10.413000	25.336993	0.000753	20.753933
1523.448499	-2.999000	3.494000	-10.477000	25.322740	0.000752	20.767122
1524.445476	-2.975300	3.495500	-10.399000	25.313952	0.000751	20.749289
1525.442116	-3.015500	3.493500	-10.532000	25.318913	0.000751	20.782246
1526.442973	-2.980900	3.493900	-10.413000	25.297931	0.000751	20.754541
1527.440690	-2.978600	3.494700	-10.408000	25.323187	0.000753	20.749554
1528.443720	-2.998000	3.492500	-10.469000	25.324174	0.000750	20.780417
1529.451316	-2.984400	3.493400	-10.425000	25.347191	0.000750	20.763224
1530.443775	-2.968100	3.492800	-10.366000	25.366104	0.000749	20.755662
1531.443375	-2.981700	3.493600	-10.416000	25.363639	0.000750	20.763144
1532.445160	-2.998600	3.492300	-10.471000	25.399674	0.000749	20.764714
1533.451170	-3.010700	3.490800	-10.508000	25.412804	0.000748	20.758932
1534.445168	-3.004700	3.490400	-10.487000	25.401017	0.000748	20.753734
1535.447962	-3.014800	3.489800	-10.520000	25.379890	0.000747	20.766186
1536.447157	-2.958300	3.492100	-10.329000	25.359144	0.000746	20.756259
1537.446374	-2.990100	3.490400	-10.436000	25.333196	0.000746	20.745852
1538.447806	-3.003400	3.489100	-10.478000	25.304365	0.000746	20.742034
1539.453466	-2.989000	3.488800	-10.427000	25.337519	0.000745	20.740710
1540.446398	-2.979700	3.489300	-10.395000	25.346338	0.000745	20.773273
1541.448124	-2.995100	3.487800	-10.446000	25.319623	0.000743	20.747872
1542.448154	-3.006100	3.486900	-10.481000	25.305340	0.000746	20.740169
1543.443848	-2.991800	3.488300	-10.435000	25.298477	0.000746	20.751770
1544.461530	-2.991400	3.486600	-10.429000	25.312522	0.000745	20.764924
1545.449203	-3.000800	3.487600	-10.464000	25.320998	0.000743	20.747829
1546.445798	-2.987000	3.486700	-10.414000	25.312491	0.000745	20.758254
1547.454990	-2.987700	3.487200	-10.417000	25.306236	0.000741	20.743439
1548.452750	-3.012400	3.485500	-10.498000	25.274448	0.000743	20.740920
1549.458362	-2.987100	3.485800	-10.410000	25.286646	0.000741	20.748426
1550.453751	-3.004400	3.485600	-10.471000	25.265198	0.000741	20.731159
1551.450968	-3.002200	3.483800	-10.458000	25.311308	0.000739	20.747583
1552.448207	-2.995100	3.483600	-10.433000	25.313442	0.000739	20.749726
1553.464734	-2.997600	3.483000	-10.439000	25.314883	0.000742	20.748328
1554.455271	-2.996300	3.482700	-10.434000	25.308621	0.000740	20.746308
1555.453443	-3.002600	3.483200	-10.458000	25.334496	0.000738	20.751426
1556.462188	-2.988200	3.482300	-10.405000	25.352441	0.000739	20.715862
1557.455010	-3.004300	3.483400	-10.465000	25.357618	0.000738	20.727225
1558.453121	-3.003500	3.483100	-10.460000	25.345683	0.000739	20.748907
1559.454880	-2.968700	3.482400	-10.337000	25.361070	0.000736	20.736382
1560.452090	-3.009200	3.482200	-10.477000	25.383614	0.000736	20.740052
1561.451168	-2.986300	3.482000	-10.397000	25.396241	0.000736	20.739929
1562.453148	-3.014700	3.479700	-10.489000	25.377408	0.000736	20.766538
1563.463499	-2.981700	3.481700	-10.380000	25.383946	0.000736	20.755559
1564.454447	-3.000500	3.479500	-10.439000	25.387227	0.000734	20.735145
1565.457535	-2.987400	3.479600	-10.393000	25.410843	0.000734	20.751273
1566.455368	-3.005100	3.479200	-10.454000	25.403362	0.000735	20.726216
1567.456167	-2.995300	3.479100	-10.420000	25.420637	0.000733	20.742615
1568.457065	-3.001800	3.478900	-10.442000	25.429591	0.000733	20.738329
1569.454221	-2.991500	3.478800	-10.405000	25.407471	0.000732	20.720384
1570.453778	-2.977200	3.477900	-10.353000	25.343502	0.000732	20.744346
1571.454477	-2.989600	3.477200	-10.394000	25.365304	0.000728	20.720243
1572.457645	-2.995500	3.477300	-10.415000	25.342018	0.000732	20.728157
1573.462673	-2.994600	3.476100	-10.408000	25.311028	0.000730	20.742087
1574.458138	-3.011500	3.477000	-10.470000	25.292862	0.000729	20.744710
1575.458030	-3.009600	3.476000	-10.461000	25.321792	0.000731	20.714486
1576.455879	-3.005400	3.475700	-10.445000	25.296095	0.000727	20.730411
1577.456150	-3.010800	3.475000	-10.461000	25.309845	0.000728	20.730467
1578.457750	-3.009300	3.475600	-10.458000	25.303259	0.000726	20.722431
1579.456324	-3.013000	3.474400	-10.467000	25.323400	0.000730	20.720842
1580.459692	-3.016800	3.473700	-10.478000	25.344049	0.000724	20.703642
1581.471506	-3.019000	3.473300	-10.485000	25.316463	0.000726	20.728103
1582.465518	-2.976900	3.474700	-10.343000	25.283651	0.000723	20.734513
1583.460026	-2.986500	3.474900	-10.377000	25.330907	0.000725	20.713206
1584.465079	-3.015500	3.471900	-10.467000	25.318181	0.000724	20.752588
1585.461898	-3.017900	3.473300	-10.481000	25.336377	0.000725	20.726761
1586.458431	-3.005500	3.473100	-10.437000	25.346637	0.000724	20.730424
1587.463107	-2.993400	3.471700	-10.392000	25.382005	0.000726	20.737962
1588.461473	-2.994900	3.472000	-10.396000	25.392376	0.000724	20.717080
1589.471551	-3.006400	3.472200	-10.438000	25.421400	0.000723	20.729156
1590.461757	-3.007100	3.471200	-10.437000	25.429011	0.000722	20.718306
1591.457344	-2.992900	3.470500	-10.386000	25.448812	0.000720	20.691720
1592.469543	-2.983900	3.470000	-10.353000	25.444587	0.000722	20.705970
1593.462559	-3.000800	3.470000	-10.411000	25.450865	0.000720	20.709431
1594.461353	-2.994400	3.469400	-10.388000	25.464307	0.000721	20.751380
1595.458155	-3.004700	3.468800	-10.422000	25.487517	0.000720	20.725374
1596.468874	-2.986400	3.468600	-10.357000	25.475664	0.000720	20.727222
1597.462811	-2.992400	3.469400	-10.380000	25.472628	0.000719	20.716112
1598.463210	-2.997000	3.468100	-10.393000	25.485499	0.000718	20.728089
1599.464364	-3.003600	3.467400	-10.414000	25.509524	0.000717	20.703850
1600.464932	-2.988300	3.467700	-10.362000	25.483684	0.000717	20.725792
1601.465371	-2.983200	3.467700	-10.344000	25.446271	0.000717	20.708136
1602.465120	-3.011200	3.466400	-10.437000	25.445302	0.000716	20.705266
1603.464000	-3.009600	3.464900	-10.427000	25.421987	0.000715	20.720735
1604.466967	-2.989000	3.465600	-10.358000	25.409219	0.000715	20.712182
1605.473279	-2.996000	3.462900	-10.374000	25.428401	0.000716	20.709158
1606.464476	-2.982000	3.466300	-10.336000	25.425169	0.000715	20.706387
1607.466054	-2.982200	3.465000	-10.332000	25.478796	0.000713	20.709503
1608.466896	-3.000200	3.465000	-10.395000	25.457597	0.000713	20.713345
1609.467343	-2.998900	3.465100	-10.390000	25.451109	0.000713	20.706830
1610.466771	-2.973000	3.464500	-10.298000	25.412739	0.000711	20.711449
1611.463552	-3.014000	3.462100	-10.434000	25.393826	0.000710	20.689611
1612.466113	-2.988600	3.462400	-10.346000	25.363175	0.000711	20.706251
1613.479981	-2.984900	3.463800	-10.338000	25.370737	0.000711	20.705783
1614.463562	-3.005300	3.462000	-10.403000	25.390300	0.000711	20.723057
1615.469952	-3.027700	3.460700	-10.476000	25.407649	0.000710	20.716296
1616.469546	-2.984000	3.462700	-10.332000	25.405386	0.000712	20.702168
1617.473195	-3.010400	3.459800	-10.415000	25.392263	0.000709	20.716018
1618.464612	-2.991600	3.460800	-10.352000	25.373055	0.000709	20.704792
1619.471299	-3.002500	3.460300	-10.389000	25.367168	0.000709	20.698880
1620.466002	-3.033000	3.458800	-10.489000	25.345575	0.000709	20.712761
1621.470903	-3.011000	3.458600	-10.413000	25.341840	0.000708	20.715649
1622.474355	-2.996700	3.460500	-10.370000	25.333948	0.000709	20.724321
1623.466940	-2.997400	3.458200	-10.364000	25.366507	0.000708	20.726193
1624.470524	-3.016600	3.457800	-10.430000	25.390890	0.000708	20.708476
1625.477160	-3.003900	3.457400	-10.385000	25.420149	0.000707	20.707035
1626.472608	-2.972400	3.458800	-10.280000	25.426067	0.000707	20.700649
1627.474297	-3.014200	3.458200	-10.422000	25.428955	0.000705	20.718724
1628.475554	-2.994500	3.457900	-10.354000	25.439043	0.000705	20.734544
1629.475192	-2.988700	3.457300	-10.332000	25.420904	0.000704	20.705422
1630.476726	-3.004700	3.456900	-10.386000	25.408976	0.000704	20.704351
1631.474295	-2.985600	3.457000	-10.320000	25.399116	0.000704	20.693500
1632.476992	-3.009700	3.454700	-10.395000	25.380632	0.000702	20.719513
1633.482512	-2.995400	3.456000	-10.351000	25.406199	0.000704	20.725745
1634.477739	-2.999300	3.456100	-10.365000	25.392413	0.000700	20.723282
1635.478351	-2.997900	3.455400	-10.357000	25.383651	0.000701	20.703102
1636.482519	-3.015600	3.453700	-10.413000	25.358371	0.000701	20.713756
1637.477033	-3.011200	3.453400	-10.398000	25.386907	0.000701	20.727237
1638.479584	-2.996600	3.454400	-10.350000	25.386851	0.000700	20.713904
1639.483605	-2.986600	3.453300	-10.313000	25.363167	0.000701	20.696285
1640.482799	-2.990100	3.453100	-10.324000	25.366522	0.000701	20.716724
1641.479550	-2.990200	3.452900	-10.324000	25.331307	0.000699	20.729256
1642.483725	-2.965800	3.453900	-10.242000	25.362873	0.000700	20.711164
1643.489003	-2.992800	3.452400	-10.332000	25.373464	0.000697	20.721799
1644.479856	-2.994400	3.452200	-10.337000	25.386116	0.000697	20.697991
1645.485445	-2.990700	3.452000	-10.322000	25.406942	0.000699	20.731234
1646.483821	-2.993300	3.451400	-10.331000	25.414823	0.000699	20.707377
1647.485116	-2.974600	3.450900	-10.264000	25.423108	0.000696	20.711904
1648.480314	-2.990500	3.451100	-10.320000	25.435655	0.000697	20.729245
1649.487086	-2.996500	3.450500	-10.338000	25.466102	0.000697	20.713825
1650.481780	-2.999200	3.449700	-10.345000	25.460663	0.000695	20.716424
1651.479402	-3.013600	3.448600	-10.392000	25.477042	0.000692	20.713431
1652.494524	-2.993800	3.448500	-10.323000	25.481990	0.000694	20.730256
1653.484902	-2.996400	3.447600	-10.330000	25.431897	0.000694	20.730688
1654.483627	-3.003500	3.448500	-10.356000	25.446657	0.000691	20.729862
1655.484659	-3.003300	3.447500	-10.353000	25.457045	0.000694	20.729388
1656.483370	-3.013700	3.447000	-10.387000	25.425188	0.000691	20.708303
1657.485465	-3.014200	3.447800	-10.391000	25.458493	0.000692	20.718987
1658.489574	-2.994900	3.446400	-10.321000	25.474921	0.000690	20.727424
1659.484118	-2.998700	3.445400	-10.331000	25.453551	0.000692	20.706911
1660.494376	-2.989900	3.446700	-10.304000	25.416874	0.000691	20.712756
1661.495471	-3.006300	3.445900	-10.359000	25.359313	0.000693	20.723711
1662.488231	-3.002800	3.444300	-10.341000	25.350243	0.000690	20.719345
1663.485501	-3.000000	3.444600	-10.332000	25.337119	0.000690	20.701424
1664.496155	-2.987300	3.444900	-10.290000	25.362066	0.000692	20.724105
1665.486358	-3.006100	3.444300	-10.352000	25.355959	0.000690	20.709911
1666.490567	-2.996700	3.443400	-10.318000	25.396992	0.000688	20.712707
1667.491705	-2.999800	3.443000	-10.327000	25.433400	0.000688	20.710385
1668.489652	-3.023400	3.443500	-10.410000	25.482703	0.000688	20.702520
1669.490016	-3.011500	3.443000	-10.366000	25.467520	0.000688	20.709560
1670.494534	-3.013600	3.442400	-10.373000	25.511131	0.000686	20.715422
1671.491373	-2.999300	3.442100	-10.323000	25.519759	0.000686	20.734045
1672.488567	-3.009900	3.440300	-10.353000	25.514583	0.000686	20.736908
1673.502163	-2.994700	3.442000	-10.307000	25.518906	0.000685	20.736033
1674.490671	-2.994400	3.441600	-10.304000	25.513817	0.000684	20.727603
1675.491356	-3.006200	3.439800	-10.339000	25.517808	0.000683	20.719757
1676.507904	-2.993500	3.441300	-10.301000	25.535903	0.000683	20.731766
1677.492158	-3.007400	3.438900	-10.341000	25.573968	0.000685	20.723052
1678.498258	-2.979300	3.439900	-10.247000	25.555261	0.000685	20.728921
1679.491552	-3.014400	3.438600	-10.363000	25.614294	0.000681	20.712816
1680.494846	-2.992900	3.439100	-10.292000	25.588426	0.000681	20.722398
1681.492499	-3.020900	3.437000	-10.382000	25.579854	0.000681	20.705254
1682.509889	-3.012700	3.437700	-10.356000	25.602240	0.000681	20.741963
1683.504498	-3.012600	3.438200	-10.357000	25.617396	0.000683	20.728735
1684.496075	-2.992500	3.438500	-10.287000	25.591105	0.000678	20.728409
1685.493494	-3.004200	3.437700	-10.325000	25.630818	0.000680	20.724671
1686.501746	-2.990900	3.437000	-10.279000	25.588027	0.000680	20.724369
1687.494703	-3.020000	3.435800	-10.375000	25.597739	0.000680	20.723691
1688.500263	-3.010600	3.436300	-10.345000	25.611878	0.000680	20.724141
1689.493459	-3.014400	3.435700	-10.355000	25.563501	0.000679	20.728187
1690.500748	-3.028400	3.436100	-10.404000	25.581393	0.000680	20.716757
1691.499512	-3.003300	3.434300	-10.314000	25.581963	0.000678	20.706898
1692.500439	-2.988600	3.434500	-10.264000	25.573912	0.000677	20.762826
1693.502342	-3.001400	3.434900	-10.309000	25.589842	0.000677	20.730934
1694.501773	-2.993200	3.435200	-10.282000	25.574685	0.000677	20.740842
1695.499155	-2.997300	3.433200	-10.288000	25.596899	0.000677	20.731383
1696.503301	-3.002900	3.431900	-10.305000	25.570639	0.000674	20.740572
1697.504867	-3.014700	3.432800	-10.348000	25.544892	0.000675	20.741267
1698.501695	-2.996900	3.432600	-10.285000	25.538509	0.000675	20.741495
1699.496605	-3.012700	3.432600	-10.341000	25.530384	0.000674	20.729068
1700.507768	-2.983900	3.430700	-10.236000	25.566715	0.000674	20.729992
1701.510430	-3.008900	3.432100	-10.326000	25.575335	0.000674	20.727744
1702.503331	-2.991400	3.431700	-10.264000	25.529741	0.000673	20.726999
1703.496636	-2.974800	3.432900	-10.211000	25.500345	0.000672	20.737782
1704.502678	-3.000300	3.430700	-10.293000	25.482850	0.000673	20.750086
1705.502865	-2.995800	3.431000	-10.277000	25.467440	0.000671	20.727498
1706.505749	-3.004200	3.430600	-10.306000	25.466502	0.000671	20.741730
1707.500037	-2.997300	3.430800	-10.283000	25.492643	0.000672	20.730996
1708.505471	-3.002500	3.429700	-10.297000	25.501607	0.000671	20.750905
1709.500936	-2.990600	3.428200	-10.252000	25.541649	0.000671	20.736114
1710.502152	-2.986700	3.429700	-10.243000	25.525326	0.000670	20.747698
1711.519413	-2.992600	3.428000	-10.257000	25.529600	0.000670	20.745825
1712.498411	-2.992200	3.430000	-10.261000	25.525148	0.000670	20.746096
1713.503409	-2.991600	3.427200	-10.252000	25.539123	0.000670	20.747328
1714.504410	-2.977200	3.426500	-10.200000	25.527485	0.000669	20.745123
1715.503524	-3.003800	3.426900	-10.293000	25.513743	0.000668	20.737013
1716.511299	-2.978100	3.426900	-10.205000	25.509046	0.000667	20.764065
1717.509121	-3.015600	3.425700	-10.329000	25.483525	0.000669	20.742703
1718.516364	-2.988000	3.425300	-10.233000	25.483948	0.000665	20.746447
1719.507818	-2.966600	3.426800	-10.164000	25.428483	0.000665	20.745752
1720.509507	-3.013300	3.425700	-10.321000	25.413967	0.000666	20.746823
1721.508499	-3.000200	3.423800	-10.272000	25.392589	0.000666	20.738632
1722.509034	-3.007800	3.423700	-10.297000	25.423540	0.000665	20.759281
1723.516639	-3.007500	3.424000	-10.296000	25.383298	0.000664	20.758228
1724.504562	-3.006600	3.423400	-10.292000	25.352604	0.000665	20.753486
1725.509233	-2.994100	3.424000	-10.251000	25.362723	0.000665	20.736145
1726.509020	-3.015400	3.422600	-10.319000	25.375253	0.000663	20.756787
1727.506359	-2.998100	3.422400	-10.259000	25.368065	0.000663	20.742931
1728.511907	-2.987800	3.422400	-10.224000	25.418119	0.000663	20.750992
1729.508390	-2.982700	3.422400	-10.207000	25.477516	0.000661	20.736668
1730.509829	-2.991800	3.422100	-10.237000	25.518496	0.000663	20.766443
1731.510470	-3.013600	3.421700	-10.311000	25.567028	0.000661	20.757335
1732.507528	-3.006600	3.420500	-10.284000	25.579433	0.000662	20.762681
1733.511932	-3.006300	3.419700	-10.280000	25.541239	0.000661	20.745660
1734.514135	-2.997500	3.420100	-10.251000	25.525941	0.000659	20.757798
1735.513170	-3.003000	3.419800	-10.268000	25.480981	0.000659	20.755796
1736.513466	-3.010800	3.419900	-10.296000	25.458341	0.000658	20.754398
1737.513367	-2.981600	3.418700	-10.192000	25.435977	0.000657	20.734785
1738.512321	-3.015500	3.417300	-10.303000	25.475770	0.000657	20.744398
1739.513489	-3.020600	3.417100	-10.321000	25.485482	0.000658	20.772171
1740.512597	-3.013600	3.418500	-10.301000	25.494950	0.000658	20.767454
1741.511172	-2.982700	3.418300	-10.195000	25.560205	0.000657	20.775139
1742.511553	-3.013600	3.416400	-10.294000	25.573155	0.000655	20.764911
1743.514747	-3.017300	3.415500	-10.305000	25.642752	0.000656	20.769375
1744.513487	-3.032500	3.416400	-10.359000	25.655333	0.000656	20.748346
1745.512654	-2.979400	3.418300	-10.183000	25.667233	0.000655	20.777369
1746.515896	-2.982600	3.417400	-10.191000	25.688869	0.000653	20.765908
1747.512362	-2.991900	3.415700	-10.219000	25.675185	0.000655	20.759751
1748.519234	-3.003600	3.416300	-10.261000	25.656449	0.000652	20.761795
1749.519420	-2.999600	3.416700	-10.248000	25.619055	0.000653	20.761697
1750.514492	-2.999900	3.414200	-10.242000	25.583475	0.000652	20.752041
1751.516478	-2.997000	3.414900	-10.234000	25.535121	0.000654	20.777923
1752.517564	-3.003900	3.414400	-10.256000	25.525703	0.000651	20.763249
1753.518478	-2.982300	3.414500	-10.182000	25.501304	0.000651	20.765300
1754.523542	-2.985700	3.414600	-10.193000	25.547428	0.000652	20.782696
1755.521669	-2.985500	3.413700	-10.191000	25.544651	0.000649	20.779433
1756.521254	-2.987800	3.414000	-10.199000	25.554069	0.000649	20.762338
1757.517009	-3.009900	3.412500	-10.271000	25.582250	0.000648	20.767881
1758.527865	-3.027600	3.410700	-10.326000	25.620436	0.000649	20.768773
1759.521938	-3.018000	3.410400	-10.291000	25.657371	0.000649	20.779317
1760.516825	-3.002300	3.412400	-10.244000	25.663532	0.000647	20.770806
1761.517575	-2.997500	3.411400	-10.225000	25.614588	0.000647	20.778547
1762.520024	-3.005800	3.411200	-10.252000	25.615588	0.000648	20.763904
1763.526125	-3.022400	3.411300	-10.308000	25.609800	0.000646	20.772790
1764.523782	-3.000000	3.410200	-10.229000	25.609181	0.000646	20.784971
1765.523674	-2.982300	3.409700	-10.168000	25.618997	0.000647	20.778234
1766.524067	-2.997200	3.410600	-10.221000	25.620623	0.000646	20.779393
1767.521211	-2.999500	3.409500	-10.225000	25.590935	0.000645	20.779923
1768.526439	-2.977500	3.410000	-10.151000	25.610960	0.000644	20.777749
1769.529003	-2.996900	3.409200	-10.216000	25.639563	0.000644	20.779923
1770.523751	-3.014700	3.409500	-10.278000	25.649287	0.000644	20.769301
1771.526058	-2.995900	3.407700	-10.208000	25.672242	0.000643	20.762958
1772.524598	-3.009500	3.407600	-10.254000	25.626357	0.000643	20.785626
1773.527812	-3.012500	3.407400	-10.264000	25.628154	0.000642	20.781267
1774.528698	-2.990100	3.406400	-10.184000	25.602262	0.000642	20.778022
1775.524660	-3.015100	3.406400	-10.270000	25.558955	0.000642	20.787635
1776.524247	-2.999900	3.407200	-10.219000	25.538653	0.000641	20.779100
1777.528246	-3.009500	3.405100	-10.247000	25.535103	0.000640	20.787863
1778.534899	-2.977600	3.405400	-10.139000	25.521645	0.000640	20.768657
1779.525003	-2.998800	3.404700	-10.209000	25.549827	0.000642	20.784631
1780.531942	-2.995200	3.405900	-10.199000	25.556094	0.000638	20.792347
1781.528131	-2.988400	3.404300	-10.172000	25.556254	0.000637	20.779232
1782.538867	-2.985200	3.402800	-10.157000	25.480752	0.000638	20.806301
1783.530683	-2.991600	3.402800	-10.179000	25.478601	0.000639	20.779959
1784.542723	-2.986000	3.403300	-10.162000	25.466698	0.000638	20.789344
1785.528393	-3.001300	3.403700	-10.213000	25.492251	0.000637	20.808366
1786.530278	-2.989100	3.403600	-10.172000	25.522028	0.000637	20.789431
1787.530189	-2.987400	3.403200	-10.165000	25.544814	0.000635	20.778648
1788.532290	-2.991300	3.402400	-10.177000	25.557415	0.000637	20.783717
1789.534075	-2.996200	3.402100	-10.192000	25.528418	0.000635	20.772614
1790.533088	-2.981500	3.401600	-10.140000	25.505534	0.000635	20.791833
1791.543093	-2.969600	3.402300	-10.101000	25.509962	0.000637	20.795805
1792.537037	-2.986700	3.402200	-10.159000	25.495920	0.000637	20.794980
1793.534850	-3.001600	3.401700	-10.209000	25.538487	0.000633	20.804063
1794.534998	-3.001300	3.401700	-10.209000	25.565878	0.000634	20.781784
1795.529251	-3.001200	3.399700	-10.202000	25.577478	0.000634	20.768778
1796.529551	-3.003000	3.400100	-10.209000	25.614905	0.000634	20.807315
1797.549008	-3.027600	3.399800	-10.291000	25.658215	0.000633	20.791071
1798.535771	-2.984500	3.399000	-10.144000	25.649270	0.000632	20.809587
1799.551818	-2.992600	3.398500	-10.169000	25.645144	0.000632	20.787899
1800.537220	-3.007100	3.398400	-10.218000	25.647651	0.000631	20.792314
1801.540087	-3.000100	3.397700	-10.193000	25.659583	0.000632	20.783909
1802.532289	-3.023100	3.396100	-10.266000	25.668112	0.000631	20.788208
1803.528899	-3.019500	3.397300	-10.257000	25.692751	0.000629	20.815800
1804.533628	-3.004900	3.397500	-10.208000	25.699685	0.000630	20.806644
1805.532695	-2.992500	3.396600	-10.162000	25.695020	0.000629	20.818079
1806.533227	-3.016500	3.397300	-10.246000	25.669780	0.000632	20.796047
1807.546310	-3.020300	3.395100	-10.252000	25.632785	0.000628	20.801565
1808.549256	-2.983800	3.397200	-10.136000	25.629529	0.000629	20.798295
1809.533404	-2.990700	3.396000	-10.155000	25.614397	0.000629	20.818185
1810.538247	-2.992100	3.396500	-10.161000	25.615212	0.000628	20.785338
1811.534514	-3.028300	3.394400	-10.278000	25.644489	0.000626	20.802889
1812.536728	-2.999400	3.395100	-10.183000	25.672091	0.000625	20.801688
1813.535837	-3.003000	3.394400	-10.192000	25.667891	0.000627	20.820703
1814.535002	-3.003500	3.394500	-10.193000	25.725019	0.000624	20.826874
1815.551155	-2.979700	3.395100	-10.116000	25.731131	0.000626	20.792710
1816.541494	-3.004400	3.393500	-10.194000	25.746905	0.000626	20.815192
1817.543455	-2.994600	3.393800	-10.162000	25.739562	0.000626	20.812084
1818.536701	-2.996700	3.391700	-10.163000	25.763238	0.000625	20.813580
1819.541621	-3.007600	3.391500	-10.199000	25.803410	0.000623	20.804146
1820.538163	-3.009300	3.392700	-10.209000	25.763839	0.000623	20.809442
1821.538674	-3.016900	3.391100	-10.229000	25.739831	0.000622	20.812828
1822.544223	-2.987800	3.392200	-10.133000	25.786399	0.000622	20.820723
1823.539742	-3.012800	3.390800	-10.215000	25.778343	0.000622	20.803623
1824.545272	-3.024400	3.390100	-10.252000	25.756433	0.000620	20.829978
1825.543639	-3.011500	3.390600	-10.210000	25.752062	0.000621	20.813734
1826.539799	-2.975500	3.390800	-10.089000	25.756139	0.000620	20.812614
1827.547706	-3.020600	3.389600	-10.237000	25.750230	0.000621	20.823273
1828.545924	-3.001400	3.388800	-10.170000	25.740341	0.000619	20.818556
1829.536502	-2.983400	3.390300	-10.114000	25.748911	0.000618	20.827639
1830.540861	-2.983000	3.388800	-10.107000	25.752272	0.000619	20.831014
1831.544275	-2.994800	3.388300	-10.147000	25.778657	0.000617	20.822430
1832.542274	-3.011000	3.387200	-10.198000	25.726658	0.000617	20.821882
1833.547286	-3.019100	3.388000	-10.228000	25.737215	0.000618	20.832959
1834.544918	-2.981900	3.388000	-10.101000	25.678832	0.000615	20.826002
1835.548221	-2.990600	3.387300	-10.128000	25.639648	0.000617	20.808933
1836.545175	-2.997800	3.386800	-10.152000	25.629581	0.000615	20.832959
1837.545242	-3.025400	3.386200	-10.244000	25.619170	0.000617	20.835306
1838.561162	-3.003800	3.386900	-10.173000	25.630119	0.000616	20.830182
1839.545703	-2.976200	3.387400	-10.081000	25.670083	0.000616	20.812947
1840.551109	-2.993100	3.386900	-10.136000	25.682822	0.000616	20.832380
1841.551781	-3.009000	3.386000	-10.187000	25.691424	0.000614	20.832011
1842.550441	-2.998900	3.386300	-10.154000	25.732341	0.000612	20.831857
1843.554311	-3.005900	3.384700	-10.173000	25.729711	0.000613	20.846284
1844.553076	-3.001400	3.385400	-10.160000	25.752087	0.000612	20.836043
1845.549936	-2.995900	3.385600	-10.142000	25.729900	0.000611	20.829405
1846.548081	-2.985700	3.385400	-10.106000	25.715291	0.000611	20.845077
1847.551016	-3.000600	3.384000	-10.154000	25.726001	0.000611	20.832601
1848.547772	-3.010800	3.382600	-10.183000	25.754643	0.000611	20.831499
1849.554214	-2.981800	3.383400	-10.088000	25.786049	0.000610	20.843131
1850.554586	-2.993200	3.383600	-10.127000	25.772010	0.000608	20.848469
1851.556009	-3.000100	3.383600	-10.149000	25.785228	0.000610	20.848469
1852.554143	-3.002800	3.380900	-10.151000	25.807168	0.000608	20.844430
1853.551067	-3.040600	3.380700	-10.278000	25.828923	0.000608	20.850162
1854.554277	-3.017500	3.380700	-10.200000	25.858317	0.000605	20.850292
1855.556366	-2.997200	3.381700	-10.135000	25.882879	0.000606	20.856948
1856.556390	-2.997300	3.380600	-10.132000	25.875830	0.000606	20.853186
1857.552837	-2.969000	3.380700	-10.035000	25.861093	0.000605	20.845021
1858.558687	-2.993600	3.381700	-10.122000	25.866862	0.000606	20.829479
1859.557798	-2.988300	3.381000	-10.102000	25.828053	0.000606	20.853081
1860.552779	-3.005800	3.379100	-10.156000	25.801522	0.000603	20.829276
1861.556767	-3.007100	3.379300	-10.161000	25.745030	0.000604	20.844602
1862.559943	-3.021800	3.378400	-10.208000	25.717700	0.000603	20.862194
1863.558643	-3.002400	3.378800	-10.144000	25.704832	0.000605	20.854485
1864.558087	-3.004500	3.379700	-10.153000	25.671216	0.000604	20.844430
1865.556470	-2.994100	3.379300	-10.115000	25.650119	0.000603	20.852164
1866.552869	-2.978700	3.377900	-10.061000	25.637250	0.000603	20.854886
1867.560213	-2.993900	3.378200	-10.113000	25.640034	0.000600	20.840138
1868.559739	-2.992200	3.376300	-10.102000	25.673674	0.000599	20.850692
1869.560072	-2.975400	3.378100	-10.050000	25.671622	0.000599	20.829191
1870.559288	-2.998800	3.377200	-10.126000	25.699296	0.000599	20.847503
1871.561095	-2.993500	3.376600	-10.108000	25.703877	0.000599	20.841199
1872.552851	-3.000100	3.375900	-10.127000	25.722427	0.000598	20.849874
1873.572028	-2.983000	3.377400	-10.074000	25.703453	0.000597	20.836507
1874.558266	-2.996700	3.376300	-10.117000	25.712895	0.000597	20.830343
1875.558136	-3.005700	3.375000	-10.144000	25.765692	0.000597	20.847812
1876.563620	-2.998700	3.375300	-10.121000	25.801598	0.000596	20.844525
1877.571821	-3.012500	3.373600	-10.162000	25.813349	0.000597	20.844949
1878.563594	-3.010500	3.373800	-10.156000	25.815066	0.000594	20.837191
1879.563230	-3.020700	3.374500	-10.193000	25.843639	0.000596	20.835073
1880.559986	-3.028300	3.371600	-10.209000	25.851810	0.000596	20.827160
1881.555311	-2.989500	3.373700	-10.083000	25.858994	0.000596	20.841490
1882.565971	-2.994500	3.374600	-10.104000	25.865480	0.000595	20.843263
1883.566466	-2.999900	3.373400	-10.118000	25.870721	0.000594	20.846157
1884.563424	-3.011300	3.371000	-10.151000	25.883196	0.000595	20.832611
1885.558779	-3.012000	3.370900	-10.152000	25.885328	0.000594	20.826693
1886.559867	-3.037400	3.371000	-10.237000	25.874234	0.000593	20.842101
1887.559265	-3.021200	3.370700	-10.181000	25.893824	0.000592	20.827167
1888.565952	-3.019500	3.371100	-10.179000	25.897785	0.000592	20.848215
1889.559108	-3.007700	3.371400	-10.139000	25.893261	0.000592	20.832291
1890.558585	-3.016100	3.370000	-10.162000	25.876822	0.000592	20.829053
1891.560224	-2.998600	3.370400	-10.106000	25.896198	0.000591	20.834767
1892.560718	-3.032700	3.369600	-10.218000	25.896044	0.000591	20.846940
1893.559448	-3.017200	3.370200	-10.168000	25.913287	0.000590	20.829650
1894.563891	-3.004900	3.369100	-10.123000	25.921489	0.000591	20.822243
1895.570468	-3.021900	3.367000	-10.174000	25.910301	0.000589	20.835659
1896.561877	-2.997100	3.368400	-10.094000	25.899226	0.000588	20.824533
1897.563495	-2.997800	3.368800	-10.098000	25.834513	0.000589	20.830173
1898.562356	-2.991400	3.368800	-10.076000	25.827334	0.000590	20.823437
1899.559007	-3.009200	3.367800	-10.134000	25.809391	0.000588	20.835758
1900.566980	-2.997400	3.368400	-10.095000	25.787083	0.000588	20.817617
1901.563443	-2.986500	3.369000	-10.061000	25.756817	0.000588	20.819932
1902.569634	-2.982300	3.366000	-10.037000	25.723073	0.000588	20.814963
1903.561971	-3.016200	3.367700	-10.156000	25.688263	0.000585	20.816982
1904.563227	-2.988000	3.368200	-10.062000	25.672789	0.000587	20.811398
1905.563582	-3.012800	3.365900	-10.141000	25.644554	0.000585	20.829032
1906.566926	-2.997500	3.365600	-10.087000	25.603800	0.000584	20.831723
1907.572461	-3.016500	3.365400	-10.151000	25.584509	0.000582	20.801445
1908.566379	-2.980100	3.365800	-10.029000	25.577955	0.000584	20.819044
1909.567296	-3.015800	3.365200	-10.147000	25.589734	0.000583	20.818071
1910.564801	-3.003200	3.366400	-10.108000	25.623726	0.000582	20.834192
1911.564541	-2.972000	3.366300	-10.004000	25.644670	0.000583	20.813502
1912.563927	-3.023900	3.361900	-10.165000	25.641512	0.000582	20.805115
1913.563560	-3.007400	3.363500	-10.114000	25.617785	0.000580	20.827277
1914.564754	-3.007300	3.363800	-10.115000	25.609255	0.000581	20.805434
1915.568514	-2.991900	3.365400	-10.067000	25.614057	0.000579	20.811679
1916.572077	-2.994900	3.364000	-10.075000	25.622653	0.000581	20.812726
1917.562609	-3.000000	3.361400	-10.083000	25.622782	0.000579	20.829451
1918.565832	-2.981900	3.363400	-10.029000	25.641984	0.000577	20.799425
1919.570835	-2.998300	3.361700	-10.077000	25.624688	0.000578	20.819511
1920.573223	-3.020400	3.361700	-10.153000	25.667435	0.000577	20.824512
1921.576463	-3.049600	3.360100	-10.245000	25.666558	0.000578	20.807984
1922.567776	-3.016200	3.361300	-10.135000	25.669016	0.000575	20.806186
1923.568820	-3.001700	3.359900	-10.084000	25.661365	0.000575	20.814622
1924.576895	-3.010800	3.359300	-10.113000	25.697219	0.000577	20.812227
1925.568762	-3.027100	3.360700	-10.172000	25.715825	0.000575	20.787294
1926.566046	-3.007100	3.359200	-10.100000	25.770664	0.000576	20.807763
1927.578949	-3.001400	3.360200	-10.084000	25.768573	0.000574	20.805663
1928.575448	-3.003600	3.359600	-10.089000	25.717640	0.000573	20.803341
1929.571063	-3.015800	3.358100	-10.127000	25.697715	0.000573	20.811777
1930.568704	-2.982200	3.360200	-10.020000	25.716850	0.000574	20.807763
1931.578647	-2.997700	3.357500	-10.064000	25.725022	0.000574	20.801272
1932.574725	-2.976000	3.358900	-9.995400	25.717996	0.000574	20.802277
1933.569099	-2.990100	3.358300	-10.041000	25.749771	0.000571	20.806692
1934.583250	-2.992400	3.358500	-10.049000	25.772013	0.000572	20.800109
1935.568712	-2.999300	3.356900	-10.067000	25.750942	0.000571	20.812610
1936.574696	-3.010000	3.356400	-10.102000	25.728063	0.000571	20.804802
1937.567337	-2.990900	3.357100	-10.040000	25.742145	0.000570	20.794290
1938.570822	-2.993800	3.357200	-10.050000	25.743641	0.000569	20.789629
1939.571282	-3.006200	3.355400	-10.086000	25.783220	0.000570	20.781020
1940.571483	-3.001900	3.355000	-10.071000	25.828380	0.000569	20.792720
1941.571671	-2.993300	3.356500	-10.047000	25.844502	0.000568	20.790423
1942.572361	-2.994100	3.355400	-10.046000	25.865865	0.000569	20.794813
1943.572478	-3.008800	3.355300	-10.095000	25.893296	0.000566	20.806249
1944.573735	-2.987200	3.355600	-10.023000	25.878511	0.000567	20.806569
1945.572274	-2.961700	3.353600	-9.931300	25.902044	0.000566	20.790380
1946.573329	-2.994300	3.353700	-10.041000	25.896146	0.000566	20.792516
1947.573365	-3.011100	3.352900	-10.095000	25.874368	0.000567	20.809045
1948.569827	-2.977300	3.354200	-9.985400	25.869899	0.000565	20.805978
1949.578075	-2.990900	3.352400	-10.026000	25.850897	0.000564	20.786415
1950.577036	-2.986600	3.353200	-10.013000	25.863438	0.000563	20.807548
1951.573000	-3.008000	3.351300	-10.080000	25.880773	0.000564	20.810263
1952.576396	-2.988200	3.351900	-10.015000	25.873246	0.000564	20.779942
1953.582038	-3.005300	3.351700	-10.072000	25.851963	0.000564	20.786538
1954.580982	-3.003700	3.351800	-10.066000	25.835216	0.000561	20.802431
1955.575994	-2.978300	3.351200	-9.978700	25.831391	0.000562	20.788157
1956.578068	-2.993400	3.351200	-10.031000	25.841107	0.000562	20.783219
1957.587852	-3.005600	3.350000	-10.068000	25.827541	0.000562	20.793299
1958.584565	-2.982600	3.350900	-9.992700	25.810548	0.000561	20.791403
1959.579835	-3.018300	3.350900	-10.113000	25.769813	0.000559	20.773244
1960.584002	-2.987700	3.350000	-10.008000	25.725164	0.000561	20.785295
1961.594471	-3.004700	3.349000	-10.062000	25.741540	0.000560	20.771396
1962.580137	-2.998000	3.349900	-10.041000	25.694732	0.000558	20.793608
1963.583600	-2.984800	3.348500	-9.993800	25.655573	0.000557	20.773244
1964.579789	-3.010400	3.347700	-10.077000	25.646334	0.000559	20.789095
1965.580179	-3.005300	3.349200	-10.064000	25.655954	0.000557	20.787377
1966.584669	-3.009000	3.346900	-10.069000	25.693133	0.000555	20.776355
1967.586349	-3.000300	3.348300	-10.046000	25.734699	0.000556	20.782544
1968.584145	-2.995900	3.347200	-10.027000	25.797334	0.000555	20.792828
1969.583874	-3.009400	3.346800	-10.071000	25.833509	0.000555	20.793604
1970.588405	-3.029300	3.345600	-10.134000	25.841858	0.000555	20.783973
1971.593191	-2.973200	3.348200	-9.953900	25.824872	0.000553	20.793463
1972.585663	-2.982700	3.346300	-9.980600	25.830911	0.000555	20.799055
1973.590296	-3.010600	3.345800	-10.072000	25.856829	0.000554	20.805650
1974.586557	-2.988600	3.345200	-9.997100	25.901920	0.000555	20.802584
1975.588186	-3.010500	3.343700	-10.065000	25.909171	0.000554	20.785687
1976.587300	-2.998200	3.346500	-10.033000	25.901154	0.000552	20.753925
1977.587032	-3.022300	3.343400	-10.104000	25.944618	0.000553	20.764873
1978.592624	-3.001300	3.343800	-10.035000	25.952918	0.000551	20.780798
1979.593005	-3.017700	3.342300	-10.085000	25.934885	0.000551	20.782122
1980.599001	-2.988800	3.342800	-9.989500	25.911293	0.000549	20.776913
1981.599558	-2.998700	3.343200	-10.024000	25.882974	0.000549	20.765059
1982.602107	-2.992400	3.343200	-10.002000	25.854224	0.000548	20.767946
1983.592100	-2.987300	3.343200	-9.986600	25.850731	0.000547	20.758747
1984.598428	-2.983800	3.343200	-9.973500	25.804148	0.000547	20.759369
1985.596034	-2.999700	3.342000	-10.024000	25.806760	0.000545	20.757725
1986.603266	-3.013000	3.341200	-10.066000	25.840763	0.000544	20.783347
1987.590058	-2.994400	3.340800	-10.003000	25.868244	0.000544	20.759745
1988.596396	-2.993400	3.342000	-10.003000	25.875625	0.000545	20.790393
1989.608832	-2.979700	3.341600	-9.954500	25.858884	0.000545	20.782111
1990.593677	-2.966400	3.341200	-9.908200	25.871254	0.000543	20.781261
1991.599235	-2.994900	3.340700	-10.004000	25.902797	0.000543	20.764585
1992.595784	-3.000600	3.340700	-10.022000	25.867975	0.000544	20.768957
1993.599128	-2.995200	3.338900	-10.000000	25.879229	0.000542	20.779789
1994.597888	-2.994100	3.338500	-9.994900	25.904276	0.000542	20.744258
1995.594923	-3.011500	3.339300	-10.055000	25.924124	0.000541	20.764672
1996.592614	-3.005200	3.338800	-10.032000	25.907279	0.000541	20.755810
1997.601967	-2.998300	3.337200	-10.005000	25.917142	0.000540	20.768090
1998.601010	-3.009200	3.338300	-10.045000	25.908922	0.000538	20.757935
1999.605818	-2.988900	3.338900	-9.978500	25.918240	0.000539	20.759235
2000.613112	-3.010000	3.336400	-10.042000	25.925515	0.000540	20.751371
2001.597857	-3.016100	3.336600	-10.063000	25.925956	0.000539	20.774574
2002.596855	-3.016000	3.336300	-10.061000	25.932098	0.000537	20.756088
2003.600611	-2.994900	3.335800	-9.989100	25.925239	0.000537	20.771483
2004.594309	-3.005300	3.335600	-10.023000	25.918950	0.000536	20.749516
2005.597965	-3.019900	3.336300	-10.073000	25.909394	0.000533	20.760780
2006.612017	-3.014200	3.335000	-10.052000	25.895431	0.000535	20.768564
2007.604622	-2.995400	3.334700	-9.987500	25.962231	0.000533	20.760756
2008.603659	-2.989100	3.334800	-9.967100	25.959864	0.000534	20.756481
2009.612956	-2.996000	3.334100	-9.987700	25.946663	0.000534	20.771194
2010.601131	-2.996900	3.335900	-9.996400	25.965258	0.000534	20.762849
2011.597558	-3.011700	3.334800	-10.041000	25.964720	0.000533	20.752825
2012.599491	-3.004700	3.333200	-10.014000	26.009946	0.000531	20.770762
2013.612584	-3.032900	3.332200	-10.106000	26.036423	0.000533	20.733352
2014.598801	-3.021600	3.332500	-10.068000	26.055146	0.000532	20.749320
2015.601110	-2.986500	3.333100	-9.953500	26.058579	0.000529	20.757985
2016.600055	-2.990400	3.333700	-9.968300	26.094591	0.000530	20.748175
2017.603418	-3.003700	3.332200	-10.007000	26.103575	0.000530	20.760995
2018.611604	-2.999900	3.331500	-9.993000	26.085128	0.000529	20.746253
2019.601016	-3.009000	3.331100	-10.022000	26.064602	0.000527	20.726577
2020.601090	-2.995200	3.331500	-9.977300	26.064284	0.000528	20.756130
2021.606924	-3.005400	3.331400	-10.011000	26.056262	0.000529	20.733370
2022.610358	-2.998200	3.331100	-9.986300	26.073048	0.000526	20.756875
2023.608830	-2.998000	3.330200	-9.982800	26.051396	0.000525	20.733696
2024.612838	-3.000100	3.330600	-9.990800	26.050599	0.000523	20.753285
2025.611449	-3.010300	3.329500	-10.022000	26.046474	0.000526	20.744399
2026.604016	-3.008800	3.329500	-10.017000	26.038077	0.000525	20.742126
2027.606170	-2.990300	3.329000	-9.953600	26.083209	0.000523	20.729626
2028.603830	-2.984100	3.329500	-9.934500	26.107350	0.000524	20.753408
2029.602928	-3.000900	3.327300	-9.983600	26.128927	0.000524	20.753752
2030.614886	-2.991000	3.328300	-9.954200	26.183273	0.000522	20.735340
2031.611394	-3.019400	3.326300	-10.042000	26.177807	0.000521	20.726528
2032.614629	-3.008100	3.327600	-10.009000	26.175342	0.000524	20.751554
2033.605493	-3.012300	3.325600	-10.017000	26.159771	0.000521	20.747286
2034.611630	-3.023100	3.326500	-10.055000	26.200057	0.000523	20.748888
2035.605358	-3.014600	3.325800	-10.025000	26.199414	0.000521	20.728326
2036.606779	-3.017500	3.325300	-10.033000	26.211008	0.000520	20.720535
2037.605401	-3.000700	3.324600	-9.975500	26.181176	0.000521	20.752200
2038.606700	-3.005500	3.324900	-9.991700	26.178645	0.000519	20.747760
2039.608502	-3.007200	3.324700	-9.997400	26.177635	0.000518	20.741529
2040.611049	-3.017300	3.323700	-10.027000	26.158380	0.000518	20.751578
2041.611495	-2.995000	3.324700	-9.956200	26.177303	0.000519	20.736928
2042.609631	-2.998800	3.323900	-9.966700	26.136754	0.000516	20.723208
2043.612451	-3.002400	3.322900	-9.975500	26.160746	0.000517	20.728825
2044.620507	-2.986400	3.323600	-9.925100	26.163504	0.000515	20.735390
2045.610331	-3.010700	3.321100	-9.998000	26.201253	0.000515	20.737760
2046.609102	-2.996300	3.323000	-9.955500	26.204175	0.000513	20.751603
2047.610954	-3.016100	3.321700	-10.018000	26.192630	0.000514	20.742372
2048.610439	-2.997200	3.320300	-9.950400	26.168076	0.000513	20.738561
2049.612241	-3.002300	3.320800	-9.968300	26.133905	0.000511	20.749270
2050.614098	-2.995200	3.321400	-9.947500	26.113460	0.000515	20.729201
2051.610080	-3.000400	3.321700	-9.966000	26.092672	0.000510	20.732021
2052.611773	-3.013600	3.320500	-10.006000	26.128095	0.000511	20.739165
2053.610885	-2.997900	3.320300	-9.952800	26.079410	0.000510	20.729127
2054.613827	-3.003100	3.319300	-9.967200	26.080728	0.000512	20.712906
2055.617392	-2.983900	3.319300	-9.903000	26.059939	0.000510	20.740384
2056.616667	-3.021900	3.318800	-10.029000	26.060362	0.000511	20.724687
2057.611503	-3.008700	3.318800	-9.984400	26.023436	0.000510	20.735477
2058.614919	-2.974800	3.319100	-9.873000	26.037815	0.000511	20.731905
2059.615273	-3.030000	3.316000	-10.046000	26.034536	0.000507	20.728136
2060.619090	-3.018400	3.318400	-10.015000	26.036098	0.000509	20.722119
2061.614874	-3.004600	3.318300	-9.968500	26.021647	0.000509	20.739843
2062.616913	-2.999600	3.317800	-9.951500	26.040800	0.000509	20.745811
2063.624541	-3.006400	3.316400	-9.969300	26.071149	0.000507	20.741216
2064.614943	-3.029700	3.315800	-10.045000	26.055797	0.000508	20.724841
2065.615678	-2.988700	3.316800	-9.912300	26.047578	0.000507	20.731757
2066.616224	-3.002200	3.315800	-9.954000	26.058457	0.000505	20.728463
2067.617334	-2.983700	3.316600	-9.894700	26.044299	0.000506	20.730359
2068.622002	-2.988000	3.316900	-9.908300	26.046260	0.000505	20.714311
2069.614948	-3.009400	3.316000	-9.978600	26.086649	0.000503	20.743988
2070.618692	-2.984700	3.314900	-9.893400	26.091847	0.000504	20.710802
2071.614520	-3.023400	3.313500	-10.017000	26.090351	0.000503	20.722102
2072.617313	-2.982000	3.314700	-9.883800	26.091693	0.000503	20.719183
2073.615366	-2.957500	3.315400	-9.804300	26.040076	0.000503	20.701933
2074.617455	-2.986200	3.315100	-9.898200	26.029351	0.000502	20.725772
2075.620325	-2.990400	3.313500	-9.906500	26.032924	0.000502	20.708972
2076.621703	-3.012300	3.312400	-9.976700	26.026764	0.000501	20.743563
2077.617183	-2.986100	3.314100	-9.894900	26.020360	0.000503	20.722428
2078.621898	-2.997300	3.312000	-9.926600	26.023412	0.000500	20.732607
2079.619485	-2.986300	3.312500	-9.891300	26.018637	0.000501	20.732077
2080.617660	-3.008400	3.311200	-9.959600	26.050036	0.000499	20.707672
2081.624671	-2.991200	3.311400	-9.903700	26.048595	0.000498	20.733728
2082.630846	-2.994000	3.311400	-9.913500	26.056146	0.000500	20.717132
2083.619638	-2.986600	3.311500	-9.889300	26.092263	0.000497	20.726394
2084.629391	-2.990300	3.309700	-9.895700	26.075519	0.000498	20.709569
2085.624925	-2.992000	3.309700	-9.902100	26.110170	0.000498	20.727792
2086.620492	-2.998100	3.309600	-9.921100	26.097992	0.000498	20.706545
2087.620076	-2.981600	3.309000	-9.863600	26.115906	0.000498	20.729288
2088.627272	-2.988700	3.310200	-9.892100	26.142430	0.000495	20.729387
2089.620298	-2.996800	3.308900	-9.915600	26.175160	0.000495	20.706324
2090.621882	-3.000100	3.309500	-9.927100	26.174664	0.000494	20.725741
2091.624347	-3.023000	3.308200	-9.999200	26.161948	0.000494	20.721498
2092.620538	-3.007900	3.307500	-9.947500	26.129511	0.000494	20.713085
2093.625346	-2.991800	3.308500	-9.897900	26.108154	0.000494	20.712014
2094.627379	-3.000700	3.307900	-9.924100	26.059872	0.000494	20.722773
2095.621659	-3.019400	3.305800	-9.980200	26.047928	0.000492	20.724996
2096.623240	-2.995900	3.307700	-9.907500	26.056464	0.000492	20.742109
2097.634785	-2.992900	3.305900	-9.893300	26.098317	0.000491	20.728684
2098.624279	-3.011600	3.306900	-9.958200	26.090522	0.000489	20.723222
2099.636215	-3.016700	3.306100	-9.972200	26.047854	0.000491	20.725396
2100.624345	-3.000600	3.305000	-9.915100	26.068563	0.000491	20.726763
2101.624238	-3.000600	3.304600	-9.914900	26.096510	0.000489	20.728765
2102.624441	-2.978800	3.305700	-9.846300	26.051109	0.000489	20.711122
2103.629250	-2.993100	3.304800	-9.890600	26.074257	0.000489	20.736752
2104.629451	-3.004700	3.303200	-9.923800	26.103742	0.000489	20.719436
2105.628511	-3.017700	3.302600	-9.965400	26.110771	0.000486	20.717964
2106.631913	-2.990400	3.304000	-9.879800	26.120020	0.000487	20.731525
2107.622957	-3.000200	3.303500	-9.910200	26.165191	0.000484	20.717170
2108.638753	-3.006100	3.302600	-9.927000	26.170137	0.000484	20.713605
2109.630133	-2.987000	3.303300	-9.865600	26.245909	0.000481	20.710089
2110.636337	-2.987900	3.301500	-9.863700	26.274421	0.000484	20.719302
2111.632871	-3.007600	3.301300	-9.928000	26.230118	0.000483	20.710341
2112.633826	-2.996200	3.301800	-9.891200	26.196495	0.000482	20.724444
2113.627744	-2.978200	3.302400	-9.833500	26.180906	0.000481	20.709252
2114.625164	-3.005400	3.300200	-9.917200	26.224169	0.000481	20.725701
2115.631498	-3.015400	3.299200	-9.947600	26.246475	0.000480	20.727728
2116.626593	-2.979100	3.301000	-9.833300	26.258173	0.000482	20.733320
2117.632099	-2.979000	3.300400	-9.831100	26.263314	0.000479	20.700552
2118.631136	-2.988300	3.299800	-9.858700	26.282162	0.000479	20.732772
2119.627570	-3.008000	3.298800	-9.921600	26.306924	0.000480	20.733000
2120.635595	-2.995500	3.299500	-9.882100	26.290313	0.000477	20.734324
2121.632943	-3.028100	3.297200	-9.982800	26.247506	0.000478	20.725919
2122.636425	-3.013200	3.297600	-9.936000	26.236060	0.000476	20.734331
2123.637753	-2.997600	3.297600	-9.883900	26.203282	0.000475	20.742645
2124.633267	-2.985900	3.296200	-9.839000	26.205163	0.000475	20.710394
2125.630929	-2.997900	3.297600	-9.884600	26.187473	0.000475	20.739561
2126.632869	-2.992400	3.296600	-9.864000	26.142639	0.000474	20.739080
2127.633894	-3.016400	3.296200	-9.941600	26.102584	0.000472	20.727756
2128.633758	-3.018400	3.295000	-9.944500	26.111574	0.000473	20.732522
2129.631344	-2.984400	3.295000	-9.832800	26.102088	0.000473	20.734369
2130.639057	-2.999200	3.296000	-9.884400	26.087116	0.000471	20.731180
2131.635731	-3.000000	3.294000	-9.880700	26.066824	0.000471	20.722645
2132.636850	-3.017000	3.294900	-9.940300	26.067369	0.000471	20.711812
2133.634398	-3.010100	3.295300	-9.918000	26.071176	0.000468	20.726544
2134.631119	-2.991700	3.294400	-9.855100	26.087546	0.000470	20.721654
2135.638111	-2.981800	3.293400	-9.819400	26.098400	0.000469	20.715490
2136.641264	-3.017700	3.292000	-9.933000	26.117171	0.000467	20.722023
2137.634608	-3.008400	3.293100	-9.906800	26.147249	0.000466	20.751773
2138.639403	-3.007300	3.292200	-9.899200	26.175666	0.000466	20.712048
2139.638725	-2.994600	3.292200	-9.858000	26.244482	0.000466	20.735209
2140.635756	-3.006400	3.291900	-9.896600	26.267480	0.000466	20.740776
2141.635057	-3.000600	3.292800	-9.879000	26.238380	0.000463	20.724334
2142.637481	-2.997500	3.290300	-9.860700	26.210793	0.000464	20.718423
2143.634475	-3.006300	3.290000	-9.888700	26.201957	0.000464	20.733252
2144.632915	-2.981500	3.292300	-9.815000	26.214844	0.000465	20.732926
2145.644420	-3.008800	3.289300	-9.896100	26.255998	0.000462	20.736350
2146.632415	-3.003800	3.289900	-9.880800	26.289504	0.000464	20.724977
2147.631287	-3.019200	3.288300	-9.927200	26.324841	0.000462	20.724928
2148.649009	-2.992100	3.289100	-9.840200	26.326655	0.000462	20.719638
2149.636917	-3.014600	3.287800	-9.910400	26.326760	0.000462	20.745349
2150.632642	-3.019700	3.288800	-9.929900	26.345282	0.000459	20.724608
2151.637154	-3.002800	3.288400	-9.873500	26.386683	0.000457	20.757210
2152.638824	-2.986500	3.289200	-9.821600	26.416956	0.000458	20.716037
2153.640882	-2.980300	3.288400	-9.799400	26.432028	0.000457	20.740196
2154.641567	-3.010700	3.286000	-9.891800	26.440575	0.000456	20.724604
2155.635303	-3.011100	3.287100	-9.896700	26.390373	0.000457	20.737684
2156.637127	-2.986800	3.287000	-9.817000	26.339243	0.000456	20.757895
2157.641490	-2.994200	3.286600	-9.840100	26.291182	0.000453	20.724766
2158.643270	-3.033100	3.284800	-9.962200	26.232927	0.000454	20.737821
2159.638839	-2.999500	3.285600	-9.854500	26.201491	0.000454	20.727094
2160.647007	-3.020300	3.284100	-9.917800	26.192680	0.000452	20.730568
2161.643606	-3.003500	3.285100	-9.863700	26.224919	0.000452	20.739732
2162.639228	-2.963600	3.285000	-9.734300	26.270792	0.000451	20.725612
2163.639999	-3.016500	3.283100	-9.901700	26.256019	0.000452	20.733526
2164.644009	-2.989000	3.284500	-9.817000	26.264574	0.000450	20.722208
2165.635864	-3.021100	3.282300	-9.914000	26.308411	0.000451	20.749669
2166.651354	-2.997700	3.282000	-9.837200	26.281794	0.000448	20.744730
2167.641938	-2.954700	3.284800	-9.705200	26.256022	0.000448	20.722149
2168.639918	-3.005000	3.281100	-9.858800	26.262603	0.000448	20.734927
2169.640831	-3.008000	3.282400	-9.872000	26.271183	0.000447	20.735489
2170.644310	-3.004400	3.281400	-9.856500	26.258647	0.000447	20.734744
2171.651525	-3.003700	3.281400	-9.854900	26.291527	0.000446	20.749296
2172.654524	-2.998000	3.280500	-9.833900	26.313115	0.000447	20.742068
2173.642264	-3.006000	3.281000	-9.861700	26.333507	0.000446	20.744544
2174.642797	-3.020300	3.280100	-9.906500	26.377960	0.000445	20.719044
2175.644428	-3.014400	3.279700	-9.885100	26.429162	0.000445	20.727832
2176.646370	-2.981100	3.279300	-9.774500	26.419409	0.000444	20.731780
2177.642381	-3.024400	3.279000	-9.916100	26.418895	0.000443	20.736005
2178.657531	-3.019800	3.277000	-9.894900	26.419986	0.000443	20.729988
2179.646013	-3.026900	3.277100	-9.918400	26.429281	0.000442	20.738383
2180.658929	-2.999300	3.277500	-9.829300	26.448329	0.000441	20.725760
2181.659879	-3.010300	3.278600	-9.867900	26.483636	0.000439	20.765991
2182.644656	-3.024900	3.277000	-9.911700	26.483692	0.000439	20.748977
2183.650445	-2.992300	3.276700	-9.804700	26.493825	0.000438	20.727867
2184.645861	-3.016000	3.276900	-9.882000	26.502641	0.000440	20.739100
2185.650234	-3.005800	3.275500	-9.844000	26.468677	0.000438	20.736729
2186.651971	-2.984500	3.275000	-9.774000	26.430253	0.000437	20.731299
2187.651331	-3.003100	3.275900	-9.836300	26.429505	0.000437	20.743350
2188.652935	-3.010600	3.272700	-9.851900	26.444185	0.000437	20.725862
2189.646501	-2.978200	3.274500	-9.751200	26.464470	0.000436	20.739139
2190.652035	-2.995000	3.275500	-9.808800	26.486659	0.000435	20.742949
2191.652627	-2.988100	3.274100	-9.782300	26.563009	0.000436	20.734348
2192.648035	-2.970900	3.275100	-9.729200	26.549550	0.000438	20.752588
2193.656843	-3.007600	3.272500	-9.841400	26.540840	0.000435	20.752366
2194.651834	-2.991700	3.274200	-9.794300	26.540735	0.000433	20.747993
2195.653690	-3.006300	3.273400	-9.839600	26.527779	0.000433	20.744927
2196.653738	-2.975800	3.272800	-9.737600	26.508634	0.000432	20.741804
2197.651341	-2.967000	3.271900	-9.705700	26.462006	0.000430	20.742827
2198.653165	-2.993800	3.270400	-9.790000	26.454930	0.000430	20.739507
2199.660912	-3.032600	3.269700	-9.914700	26.426000	0.000430	20.757846
2200.647539	-2.994400	3.271200	-9.794100	26.387861	0.000428	20.756971
2201.656102	-3.000600	3.269800	-9.810600	26.363622	0.000428	20.757266
2202.656639	-2.985600	3.270800	-9.764500	26.355203	0.000430	20.744063
2203.656621	-2.981000	3.270100	-9.747900	26.387609	0.000426	20.750080
2204.657456	-2.996600	3.270800	-9.799800	26.415761	0.000428	20.748028
2205.662368	-3.004000	3.268900	-9.818500	26.433111	0.000427	20.749345
2206.655355	-3.003700	3.268400	-9.816900	26.467775	0.000426	20.754316
2207.651335	-2.995800	3.269300	-9.790800	26.480407	0.000425	20.760374
2208.659296	-2.960200	3.268600	-9.674900	26.533362	0.000425	20.759549
2209.652443	-3.020900	3.266400	-9.867000	26.551685	0.000424	20.757104
2210.653363	-3.024000	3.268300	-9.882400	26.588819	0.000425	20.766458
2211.665898	-3.004800	3.268300	-9.819400	26.616771	0.000423	20.726276
2212.658356	-3.039100	3.265200	-9.922900	26.641713	0.000422	20.765102
2213.652798	-3.025300	3.265400	-9.876700	26.619943	0.000423	20.762657
2214.659528	-3.014600	3.265300	-9.842800	26.669166	0.000421	20.744337
2215.657525	-3.015400	3.264700	-9.842800	26.658497	0.000421	20.779604
2216.653485	-3.009500	3.265200	-9.825500	26.653455	0.000421	20.762682
2217.660924	-2.994700	3.263300	-9.771900	26.664530	0.000417	20.765281
2218.651221	-3.000700	3.263400	-9.791300	26.681901	0.000420	20.752398
2219.655267	-2.991700	3.263800	-9.763800	26.691058	0.000418	20.741688
2220.667080	-3.000800	3.263200	-9.791000	26.700270	0.000417	20.768969
2221.657329	-3.001800	3.262000	-9.790300	26.720103	0.000416	20.765674
2222.655363	-2.999500	3.261200	-9.781300	26.725542	0.000416	20.764031
2223.663653	-2.994900	3.263200	-9.771400	26.708588	0.000415	20.768323
2224.657853	-3.023500	3.262600	-9.862300	26.714768	0.000414	20.769794
2225.655198	-2.988700	3.262100	-9.748400	26.678348	0.000415	20.770637
2226.660136	-2.984600	3.261600	-9.733300	26.635344	0.000414	20.771976
2227.655641	-2.983700	3.260800	-9.728400	26.603938	0.000414	20.781181
2228.658439	-3.009500	3.259900	-9.809200	26.632881	0.000410	20.760490
2229.663143	-3.010300	3.259100	-9.810300	26.646272	0.000412	20.786281
2230.654588	-2.983900	3.261100	-9.729200	26.604392	0.000412	20.782586
2231.653188	-2.984200	3.259900	-9.726900	26.570651	0.000410	20.775695
2232.661571	-3.005800	3.259400	-9.795800	26.574627	0.000409	20.764519
2233.663942	-2.980200	3.259600	-9.713500	26.558778	0.000410	20.765183
2234.655267	-2.996200	3.256300	-9.755200	26.591111	0.000409	20.777297
2235.660994	-3.021000	3.256200	-9.835600	26.608766	0.000408	20.771336
2236.663251	-3.010600	3.257700	-9.807100	26.592544	0.000408	20.791065
2237.658468	-3.003500	3.257300	-9.782400	26.555239	0.000407	20.783436
2238.663471	-3.021100	3.255900	-9.835500	26.540071	0.000405	20.772931
2239.663843	-3.013000	3.255700	-9.808500	26.546594	0.000406	20.776169
2240.659251	-3.004100	3.254500	-9.775600	26.527726	0.000407	20.797506
2241.665564	-2.989300	3.254700	-9.728100	26.564949	0.000407	20.776601
2242.666939	-3.000900	3.254500	-9.765400	26.510199	0.000405	20.771828
2243.665341	-3.013700	3.254200	-9.806000	26.525416	0.000404	20.788547
2244.664970	-3.004800	3.253700	-9.775900	26.484800	0.000404	20.788497
2245.661323	-3.016600	3.253600	-9.814500	26.499252	0.000404	20.784058
2246.661661	-2.982700	3.253900	-9.703600	26.549376	0.000400	20.788448
2247.664909	-2.986600	3.253800	-9.716700	26.596219	0.000401	20.800924
2248.659719	-2.973100	3.253500	-9.672100	26.582523	0.000401	20.781466
2249.663478	-2.999000	3.252600	-9.753400	26.590437	0.000400	20.794163
2250.668564	-2.999800	3.251900	-9.754000	26.627822	0.000398	20.763465
2251.663474	-2.977100	3.252500	-9.682000	26.648599	0.000400	20.774870
2252.667620	-2.994500	3.250600	-9.732000	26.659367	0.000400	20.773841
2253.667704	-2.963100	3.251600	-9.633900	26.700351	0.000396	20.797025
2254.663530	-2.971100	3.250800	-9.657100	26.687127	0.000397	20.787525
2255.677357	-2.989400	3.249900	-9.714600	26.679826	0.000396	20.791089
2256.672512	-3.009300	3.249900	-9.778200	26.728404	0.000397	20.801995
2257.669468	-2.996200	3.249100	-9.733800	26.705717	0.000396	20.804317
2258.668934	-2.971000	3.249400	-9.652900	26.742748	0.000396	20.812149
2259.670239	-2.993400	3.249000	-9.724000	26.758538	0.000395	20.791989
2260.676721	-2.996300	3.247100	-9.729000	26.790558	0.000392	20.796681
2261.668151	-3.003400	3.247500	-9.753200	26.808112	0.000393	20.805795
2262.668743	-3.001200	3.247100	-9.744200	26.830342	0.000392	20.800646
2263.667795	-2.985500	3.247000	-9.692000	26.794973	0.000392	20.773619
2264.673525	-3.011700	3.246200	-9.775100	26.771890	0.000392	20.815844
2265.672270	-2.989800	3.246200	-9.704600	26.808754	0.000392	20.774199
2266.674174	-3.015900	3.244800	-9.785500	26.816600	0.000391	20.798209
2267.673595	-2.980300	3.246900	-9.675200	26.814389	0.000390	20.799779
2268.673584	-3.004800	3.245500	-9.751100	26.848367	0.000387	20.805019
2269.679286	-2.989900	3.245100	-9.701900	26.858993	0.000389	20.813807
2270.674801	-3.015300	3.243700	-9.779500	26.841325	0.000388	20.811215
2271.682075	-2.999600	3.244800	-9.731900	26.884188	0.000389	20.811165
2272.677685	-3.005900	3.243100	-9.747700	26.888903	0.000385	20.794570
2273.678033	-2.983800	3.242800	-9.674200	26.930829	0.000385	20.813968
2274.678871	-2.973600	3.242800	-9.641900	26.954380	0.000385	20.807780
2275.681896	-3.011800	3.240700	-9.759300	26.954876	0.000386	20.797373
2276.674965	-2.986900	3.240400	-9.677600	26.930137	0.000385	20.813747
2277.671874	-2.973400	3.241800	-9.638200	26.893895	0.000383	20.820926
2278.678124	-2.993700	3.240500	-9.699900	26.888998	0.000382	20.818373
2279.672636	-2.970700	3.240600	-9.626500	26.906340	0.000381	20.804517
2280.678425	-3.000100	3.238900	-9.716300	26.947346	0.000380	20.804974
2281.674721	-2.978500	3.239800	-9.649200	26.964799	0.000381	20.815412
2282.678437	-3.028600	3.237100	-9.803400	26.970562	0.000380	20.799396
2283.673683	-2.965800	3.239000	-9.605500	26.984847	0.000380	20.802856
2284.679952	-2.995700	3.239700	-9.703200	26.945076	0.000379	20.815019
2285.685551	-2.997100	3.237900	-9.703500	26.923386	0.000377	20.817389
2286.679670	-2.983900	3.240000	-9.667000	26.899075	0.000378	20.801479
2287.683164	-2.999100	3.236200	-9.703900	26.909107	0.000377	20.820575
2288.689023	-3.020500	3.235700	-9.772900	26.939205	0.000375	20.818598
2289.689234	-2.997900	3.235500	-9.698600	26.924007	0.000375	20.812325
2290.680788	-3.007600	3.235600	-9.730300	26.963689	0.000373	20.818088
2291.687615	-2.977900	3.234400	-9.630400	26.969022	0.000373	20.824874
2292.682368	-2.993200	3.234500	-9.681000	26.969428	0.000376	20.811057
2293.685090	-2.973200	3.235200	-9.617100	26.946005	0.000374	20.820695
2294.684532	-2.992300	3.233000	-9.673200	26.888600	0.000372	20.804697
2295.677531	-2.990200	3.233400	-9.666500	26.842192	0.000373	20.829630
2296.685064	-3.005200	3.232200	-9.712500	26.802432	0.000373	20.821896
2297.687295	-2.983400	3.233700	-9.645900	26.771705	0.000371	20.813762
2298.677071	-2.976500	3.233600	-9.623700	26.742644	0.000371	20.823424
2299.683785	-3.009700	3.231800	-9.725900	26.761264	0.000370	20.805160
2300.681614	-3.008200	3.230500	-9.717400	26.785689	0.000368	20.820709
2301.679183	-2.993400	3.231200	-9.670200	26.765784	0.000371	20.827723
2302.684192	-3.022500	3.229700	-9.760500	26.720663	0.000370	20.827403
2303.682567	-2.991900	3.231400	-9.667200	26.701197	0.000367	20.838652
2304.676237	-2.990300	3.229900	-9.657300	26.725868	0.000368	20.827421
2305.684882	-2.982000	3.228800	-9.626200	26.724803	0.000367	20.838203
2306.680693	-2.989900	3.229500	-9.655200	26.773704	0.000364	20.812926
2307.679164	-3.015700	3.228900	-9.736500	26.819675	0.000366	20.844922
2308.685229	-2.972900	3.229600	-9.599900	26.819032	0.000366	20.822465
2309.690094	-3.001600	3.227000	-9.685700	26.864149	0.000363	20.851233
2310.680912	-2.994500	3.227500	-9.663000	26.882669	0.000365	20.849940
2311.692331	-2.997000	3.227300	-9.671500	26.919596	0.000363	20.818321
2312.675924	-3.011300	3.225900	-9.713000	26.929823	0.000362	20.819596
2313.677049	-2.988100	3.225700	-9.638000	26.923970	0.000363	20.826985
2314.683732	-2.994400	3.225500	-9.657500	26.916823	0.000363	20.846351
2315.683856	-2.990400	3.223200	-9.636500	26.870482	0.000362	20.859497
2316.678713	-2.996600	3.224600	-9.661800	26.807169	0.000361	20.835193
2317.688582	-3.011300	3.222800	-9.702600	26.764205	0.000362	20.838937
2318.687124	-2.977100	3.224900	-9.599800	26.742462	0.000361	20.839362
2319.683269	-2.993400	3.223200	-9.647500	26.688746	0.000360	20.832299
2320.688985	-2.990700	3.223200	-9.638700	26.703024	0.000358	20.826739
2321.682377	-3.007000	3.222100	-9.687600	26.731689	0.000358	20.830427
2322.677491	-2.983900	3.223600	-9.617700	26.733966	0.000356	20.845993
2323.687811	-3.004800	3.221700	-9.679900	26.769124	0.000357	20.845779
2324.692453	-3.008600	3.220800	-9.689400	26.795722	0.000355	20.847865
2325.680678	-2.991300	3.221300	-9.634700	26.833057	0.000356	20.849368
2326.685112	-2.999000	3.220700	-9.655100	26.863133	0.000355	20.839780
2327.694258	-3.001000	3.219500	-9.660600	26.906222	0.000355	20.836640
2328.686834	-2.997900	3.218900	-9.648400	26.945279	0.000354	20.850309
2329.687590	-3.014600	3.218500	-9.701400	26.975058	0.000356	20.831417
2330.678176	-3.009900	3.217300	-9.682700	26.993845	0.000351	20.848413
2331.677526	-2.994800	3.219900	-9.642000	27.016819	0.000352	20.825050
2332.681902	-2.991200	3.217000	-9.620900	27.048335	0.000351	20.850580
2333.684333	-3.015000	3.217600	-9.699800	27.021258	0.000351	20.846583
2334.688402	-3.003200	3.215600	-9.655900	27.039824	0.000350	20.857193
2335.689240	-3.011700	3.215000	-9.681800	27.067041	0.000349	20.878398
2336.682247	-2.998300	3.215800	-9.641000	27.049376	0.000348	20.858738
2337.688839	-2.980300	3.216300	-9.583200	27.054377	0.000348	20.840061
2338.680472	-3.021300	3.213800	-9.708500	27.100930	0.000348	20.859851
2339.682791	-3.037400	3.212400	-9.756200	27.085997	0.000349	20.850049
2340.686251	-2.983400	3.214000	-9.587900	27.072269	0.000346	20.840510
2341.683074	-2.987100	3.214000	-9.597900	27.050109	0.000347	20.845252
2342.680874	-3.005000	3.213500	-9.655700	27.031990	0.000344	20.831772
2343.680527	-2.989900	3.213600	-9.606700	27.015342	0.000345	20.840159
2344.684515	-3.000200	3.211100	-9.633000	27.019512	0.000344	20.850516
2345.689381	-3.012300	3.210400	-9.669900	27.046956	0.000344	20.828804
2346.689356	-3.015900	3.209600	-9.678800	27.046502	0.000343	20.859166
2347.689013	-2.969600	3.211600	-9.536400	27.054737	0.000344	20.841370
2348.693732	-2.962700	3.210700	-9.511200	27.075108	0.000341	20.828193
2349.687912	-3.003100	3.212500	-9.646300	27.077050	0.000342	20.814025
2350.692826	-3.008700	3.208400	-9.652700	27.073400	0.000341	20.850657
2351.696513	-2.992200	3.209200	-9.601000	27.045576	0.000339	20.844960
2352.685361	-2.995800	3.208000	-9.610100	27.015425	0.000340	20.850674
2353.692450	-2.994400	3.208100	-9.605200	26.973413	0.000339	20.835453
2354.693286	-3.013400	3.206500	-9.661800	26.926683	0.000340	20.836352
2355.696579	-2.988700	3.208400	-9.587400	26.917797	0.000340	20.832158
2356.687124	-2.990200	3.205100	-9.582600	26.924056	0.000340	20.827073
2357.694505	-3.038000	3.203600	-9.731800	26.926009	0.000339	20.834251
2358.693646	-3.018500	3.204200	-9.671200	26.914196	0.000338	20.831382
2359.694847	-2.995700	3.204200	-9.597600	26.975323	0.000339	20.820305
2360.698695	-2.999200	3.204600	-9.609800	27.014377	0.000337	20.840138
2361.693298	-2.972200	3.205300	-9.525500	27.025375	0.000336	20.833180
2362.691668	-3.013200	3.201800	-9.646600	27.047958	0.000338	20.830286
2363.699683	-2.993600	3.204800	-9.593500	27.050909	0.000336	20.836573
2364.709777	-2.973800	3.203300	-9.523600	27.048349	0.000336	20.812662
2365.695415	-2.997500	3.202000	-9.596900	27.079864	0.000337	20.819226
2366.699651	-2.990900	3.202100	-9.575600	27.098440	0.000335	20.835537
2367.700307	-2.989100	3.201200	-9.567200	27.138862	0.000336	20.816922
2368.698230	-3.006500	3.201000	-9.623300	27.111518	0.000334	20.829724
2369.713486	-3.009700	3.199100	-9.627300	27.143699	0.000335	20.803295
2370.702058	-3.001400	3.198700	-9.600000	27.171352	0.000335	20.815461
2371.700072	-3.004900	3.198700	-9.611300	27.159249	0.000333	20.839323
2372.705442	-3.003900	3.199200	-9.608500	27.148797	0.000332	20.825966
2373.700180	-3.001100	3.198000	-9.596900	27.149740	0.000333	20.819328
2374.695107	-3.011400	3.197200	-9.625900	27.111448	0.000332	20.821119
2375.701144	-3.012600	3.195700	-9.626900	27.095143	0.000332	20.814678
2376.703486	-3.020800	3.196300	-9.654200	27.131242	0.000332	20.819690
2377.702543	-3.015000	3.195500	-9.634100	27.120049	0.000329	20.834985
2378.698723	-3.009500	3.195900	-9.617100	27.149792	0.000330	20.811794
2379.703259	-3.002000	3.196100	-9.593300	27.148084	0.000330	20.809128
2380.701483	-2.994500	3.194300	-9.563000	27.115897	0.000326	20.829387
2381.699262	-2.995800	3.194000	-9.567400	27.126943	0.000328	20.815840
2382.700035	-3.036200	3.191900	-9.690400	27.153515	0.000326	20.792779
2383.695945	-3.025600	3.193600	-9.661300	27.155896	0.000325	20.832632
2384.700304	-2.998400	3.195300	-9.580200	27.133334	0.000324	20.807569
2385.708673	-2.986700	3.193100	-9.535200	27.108061	0.000325	20.817238
2386.696092	-3.024500	3.190500	-9.648600	27.101869	0.000326	20.792045
2387.698407	-3.021500	3.189600	-9.636200	27.123384	0.000324	20.819848
2388.705708	-2.979000	3.192000	-9.507200	27.123587	0.000323	20.796818
2389.702295	-2.989300	3.191100	-9.538300	27.164944	0.000323	20.814232
2390.702143	-2.983400	3.190100	-9.517100	27.190499	0.000322	20.802002
2391.718518	-2.989700	3.190000	-9.535900	27.228480	0.000323	20.807962
2392.703067	-2.981000	3.188300	-9.502000	27.233966	0.000323	20.812532
2393.700841	-2.984700	3.187900	-9.513500	27.200985	0.000322	20.795954
2394.703771	-3.002800	3.187200	-9.569000	27.182079	0.000320	20.817241
2395.701820	-2.995000	3.186300	-9.542200	27.143202	0.000319	20.809908
2396.702426	-2.970300	3.187900	-9.468200	27.107219	0.000319	20.813073
2397.707031	-2.980000	3.187200	-9.496400	27.067022	0.000317	20.812950
2398.701375	-2.978600	3.186600	-9.491100	27.029101	0.000319	20.806582
2399.708061	-2.970500	3.184800	-9.459100	27.024931	0.000319	20.813294
2400.703674	-2.996500	3.185600	-9.543700	27.011754	0.000316	20.819008
2401.706531	-2.957900	3.185000	-9.419300	27.008380	0.000317	20.803762
2402.701098	-3.010000	3.183800	-9.582200	26.978595	0.000315	20.819802
2403.704524	-3.002500	3.183300	-9.556500	26.982912	0.000317	20.789056
2404.704526	-2.996300	3.181300	-9.530800	27.024428	0.000316	20.801408
2405.708055	-2.997700	3.181800	-9.537000	27.052822	0.000316	20.805781
2406.709588	-2.995900	3.180500	-9.527100	27.109796	0.000315	20.810449
2407.702877	-2.997600	3.181700	-9.536300	27.154478	0.000316	20.795645
2408.710295	-3.014600	3.180700	-9.587400	27.180854	0.000315	20.797991
2409.710891	-2.986600	3.180000	-9.495700	27.185194	0.000314	20.795244
2410.712976	-3.004100	3.178600	-9.548000	27.197744	0.000316	20.797910
2411.708207	-3.025300	3.179400	-9.617900	27.255709	0.000315	20.786987
2412.713579	-2.974200	3.177500	-9.450300	27.264837	0.000314	20.811815
2413.706589	-2.999600	3.179100	-9.534800	27.287096	0.000313	20.799118
2414.711001	-2.987600	3.179200	-9.497200	27.290413	0.000312	20.801981
2415.714626	-3.004300	3.175600	-9.539100	27.299198	0.000309	20.797541
2416.705062	-3.005500	3.177300	-9.548800	27.340206	0.000312	20.797067
2417.724753	-2.989700	3.175100	-9.492500	27.345269	0.000311	20.788884
2418.714114	-3.015700	3.175000	-9.573700	27.365114	0.000310	20.787510
2419.713324	-2.986600	3.175200	-9.481500	27.369063	0.000309	20.809975
2420.713946	-2.968300	3.174600	-9.421400	27.385211	0.000309	20.779278
2421.718736	-3.003500	3.172600	-9.527400	27.388803	0.000308	20.796168
2422.711760	-3.003300	3.172700	-9.527500	27.399270	0.000308	20.790102
2423.723614	-2.973500	3.171800	-9.430400	27.420829	0.000308	20.798040
2424.711459	-3.009100	3.170500	-9.539500	27.359483	0.000308	20.772362
2425.714351	-2.990200	3.170000	-9.478000	27.321506	0.000306	20.779204
2426.718778	-2.967500	3.170100	-9.405700	27.305553	0.000307	20.797770
2427.713397	-2.997100	3.170400	-9.501300	27.294216	0.000308	20.770718
2428.714208	-2.989400	3.168700	-9.471200	27.295947	0.000304	20.784314
2429.721865	-2.964300	3.169100	-9.392400	27.296548	0.000307	20.798195
2430.719010	-3.018400	3.167700	-9.560500	27.269111	0.000305	20.778656
2431.714257	-2.990400	3.167400	-9.471700	27.229961	0.000306	20.798072
2432.726562	-3.008300	3.166000	-9.523800	27.216957	0.000305	20.792104
2433.715101	-2.998500	3.166900	-9.495000	27.223581	0.000305	20.804457
2434.715931	-3.001200	3.165100	-9.497800	27.258740	0.000303	20.777708
2435.724649	-3.012100	3.164500	-9.529600	27.285008	0.000303	20.786113
2436.714178	-3.009100	3.164200	-9.520000	27.332176	0.000304	20.768600
2437.718566	-3.000800	3.162800	-9.489600	27.331355	0.000302	20.757817
2438.723481	-3.003600	3.163700	-9.500400	27.342570	0.000304	20.789962
2439.718955	-3.002400	3.162100	-9.492600	27.339166	0.000301	20.775158
2440.728049	-3.007400	3.160900	-9.504800	27.343391	0.000302	20.773243
2441.734083	-2.995600	3.162500	-9.471200	27.370948	0.000301	20.770146
2442.724247	-3.013900	3.160300	-9.523600	27.394466	0.000299	20.773416
2443.720504	-3.012500	3.160800	-9.519300	27.402779	0.000299	20.787942
2444.724778	-2.976700	3.161200	-9.409100	27.424882	0.000298	20.779358
2445.719419	-3.024000	3.158700	-9.549700	27.389428	0.000298	20.773089
2446.721735	-3.020600	3.156800	-9.533800	27.375417	0.000299	20.774167
2447.724484	-3.002100	3.157100	-9.477300	27.363009	0.000296	20.771168
2448.734550	-3.025900	3.156200	-9.549900	27.337734	0.000298	20.777037
2449.734358	-3.012800	3.157700	-9.510900	27.317896	0.000297	20.779840
2450.730359	-3.011100	3.154500	-9.497100	27.328981	0.000297	20.788146
2451.731093	-2.993700	3.155400	-9.445100	27.336799	0.000295	20.778466
2452.729435	-3.000800	3.153600	-9.462000	27.327672	0.000294	20.772604
2453.731442	-2.997200	3.152800	-9.448700	27.335392	0.000298	20.759507
2454.731452	-2.962500	3.154600	-9.344600	27.315001	0.000295	20.777876
2455.732042	-2.999400	3.151900	-9.453100	27.255755	0.000295	20.773282
2456.732250	-3.013900	3.151100	-9.495600	27.256827	0.000294	20.766774
2457.736955	-2.987700	3.153200	-9.419700	27.266157	0.000295	20.771417
2458.722790	-3.015400	3.149300	-9.495200	27.265465	0.000292	20.771196
2459.737774	-2.987400	3.150400	-9.411300	27.258702	0.000292	20.772928
2460.738492	-3.016000	3.148500	-9.495100	27.275281	0.000293	20.749300
2461.733907	-2.996400	3.147200	-9.429500	27.244469	0.000293	20.773310
2462.735186	-2.998600	3.148200	-9.439400	27.221151	0.000291	20.767399
2463.725928	-2.995800	3.147000	-9.427300	27.248743	0.000289	20.770023
2464.729371	-3.013600	3.147900	-9.484500	27.219199	0.000291	20.747417
2465.731951	-2.987000	3.146900	-9.399000	27.227660	0.000292	20.756402
2466.737849	-3.020200	3.143700	-9.493800	27.284160	0.000290	20.765345
2467.737044	-2.982600	3.145400	-9.380900	27.309028	0.000290	20.753849
2468.737943	-2.999100	3.142500	-9.423800	27.346589	0.000288	20.756546
2469.736025	-3.018400	3.142100	-9.483200	27.380184	0.000290	20.772798
2470.734685	-2.972800	3.143300	-9.343100	27.363198	0.000288	20.770884
2471.744677	-3.010500	3.139800	-9.451500	27.381727	0.000288	20.771031
2472.733641	-3.004400	3.139700	-9.431700	27.401879	0.000288	20.764277
2473.740407	-2.978800	3.140500	-9.353800	27.403122	0.000288	20.762209
2474.737855	-2.999200	3.139700	-9.414600	27.395483	0.000287	20.760214
2475.739999	-3.015400	3.139200	-9.465400	27.444653	0.000288	20.748514
2476.740405	-2.998900	3.138000	-9.408500	27.484315	0.000286	20.759019
2477.745017	-3.005600	3.137000	-9.427400	27.473336	0.000286	20.737067
2478.741151	-2.981600	3.136500	-9.350500	27.524454	0.000287	20.748668
2479.746554	-3.000700	3.135200	-9.406700	27.507195	0.000285	20.739364
2480.741923	-3.005000	3.133800	-9.416000	27.489978	0.000285	20.772303
2481.734283	-3.006200	3.132000	-9.414300	27.452006	0.000284	20.743583
2482.750538	-2.998700	3.133900	-9.396700	27.471165	0.000284	20.762859
2483.735848	-2.998800	3.132500	-9.392900	27.508836	0.000284	20.750024
2484.745802	-3.012100	3.129500	-9.425000	27.503903	0.000285	20.741742
2485.742046	-3.001700	3.129300	-9.392600	27.455263	0.000283	20.740221
2486.738777	-2.995400	3.130800	-9.377500	27.428950	0.000285	20.750260
2487.740085	-3.002300	3.129800	-9.395900	27.427592	0.000286	20.746049
2488.738222	-3.014800	3.128500	-9.430800	27.446211	0.000282	20.736330
2489.740476	-2.999100	3.128000	-9.380400	27.502301	0.000281	20.719740
2490.740294	-2.979300	3.127100	-9.315600	27.524175	0.000285	20.754078
2491.740574	-2.971800	3.126700	-9.291300	27.541539	0.000281	20.730769
2492.741552	-2.987700	3.126000	-9.338200	27.554717	0.000282	20.735020
2493.750503	-2.985000	3.125300	-9.328100	27.587135	0.000281	20.736344
2494.740614	-3.008500	3.123800	-9.397300	27.600525	0.000284	20.730850
2495.740706	-2.967300	3.124100	-9.268800	27.612550	0.000282	20.758124
2496.743207	-3.012600	3.120700	-9.400400	27.645096	0.000284	20.743456
2497.746200	-3.003400	3.119900	-9.369000	27.629473	0.000281	20.724890
2498.750218	-2.992200	3.121400	-9.338400	27.637134	0.000282	20.735445
2499.742235	-2.995000	3.120000	-9.342900	27.626572	0.000282	20.727661
2500.744268	-3.019200	3.117600	-9.411700	27.553205	0.000283	20.722118
2501.742640	-3.003900	3.116400	-9.360500	27.488617	0.000281	20.717352
2502.742917	-2.996100	3.117500	-9.339200	27.434791	0.000281	20.731005
2503.744299	-2.980600	3.117000	-9.289000	27.383191	0.000281	20.719396
2504.772644	-2.960300	3.116600	-9.224000	27.326238	0.000281	20.734177
2505.744528	-2.991000	3.114500	-9.314100	27.263019	0.000279	20.739811
2506.745593	-3.011600	3.114300	-9.377500	27.277754	0.000282	20.729027
2507.745691	-3.002100	3.113800	-9.347300	27.254785	0.000280	20.715880
2508.747732	-3.002400	3.112300	-9.342400	27.273340	0.000277	20.721268
2509.744656	-2.974900	3.113500	-9.260800	27.323110	0.000281	20.752367
2510.743949	-3.005900	3.110600	-9.349100	27.307579	0.000280	20.726786
2511.746539	-3.001600	3.109300	-9.331000	27.290261	0.000279	20.736393
2512.750869	-2.989700	3.110400	-9.298200	27.264782	0.000278	20.715030
2513.745563	-2.999600	3.108000	-9.322400	27.245211	0.000280	20.729010
2514.748449	-2.990800	3.107400	-9.292000	27.257865	0.000277	20.716607
2515.746984	-3.010900	3.105500	-9.348900	27.280565	0.000277	20.710517
2516.746473	-3.008400	3.104900	-9.339700	27.288033	0.000277	20.718504
2517.749529	-3.010600	3.104100	-9.344300	27.358737	0.000280	20.730359
2518.753097	-3.016000	3.102700	-9.357400	27.412071	0.000279	20.702930
2519.748103	-3.004900	3.103400	-9.324400	27.433011	0.000277	20.732533
2520.748953	-2.976500	3.103000	-9.234900	27.476004	0.000277	20.712723
2521.749959	-3.008000	3.099600	-9.322900	27.464773	0.000277	20.728926
2522.749588	-2.994700	3.100400	-9.284300	27.479156	0.000277	20.715420
2523.754575	-3.008500	3.099700	-9.324500	27.471144	0.000277	20.712575
2524.747931	-3.004800	3.097100	-9.305300	27.494018	0.000276	20.709983
2525.750011	-3.011500	3.095700	-9.320900	27.499307	0.000275	20.714356
2526.750173	-3.008100	3.096000	-9.311400	27.524480	0.000275	20.728304
2527.748680	-2.999100	3.094400	-9.279000	27.536659	0.000274	20.733921
2528.749921	-2.993900	3.094000	-9.261500	27.512104	0.000275	20.721069
2529.750131	-3.001800	3.092600	-9.282600	27.540688	0.000276	20.723275
2530.749037	-3.006600	3.091200	-9.293300	27.561147	0.000275	20.712091
2531.749742	-3.003900	3.091700	-9.286500	27.603981	0.000273	20.729586
2532.749387	-2.998300	3.091700	-9.268000	27.644336	0.000273	20.712818
2533.748994	-2.975600	3.090500	-9.194900	27.661575	0.000274	20.712147
2534.752912	-3.000100	3.089300	-9.267000	27.633131	0.000274	20.720510
2535.751619	-3.020700	3.086200	-9.320100	27.626803	0.000274	20.705607
2536.750078	-2.997000	3.086100	-9.248300	27.623400	0.000274	20.703130
2537.751650	-2.985300	3.085800	-9.210900	27.660259	0.000273	20.699916
2538.754262	-2.989000	3.084200	-9.217100	27.666629	0.000273	20.730510
2539.751127	-2.969000	3.086000	-9.160600	27.608987	0.000273	20.701430
2540.752567	-2.987000	3.084000	-9.210900	27.588204	0.000272	20.708968
2541.750612	-3.010400	3.080700	-9.273300	27.556428	0.000272	20.709713
2542.750358	-2.998900	3.080100	-9.235700	27.578137	0.000272	20.714486
2543.751096	-2.956100	3.081200	-9.106500	27.576423	0.000274	20.706123
2544.750131	-2.983100	3.078900	-9.183200	27.595785	0.000271	20.682929
2545.754589	-2.986200	3.078400	-9.191900	27.635840	0.000273	20.717071
2546.755646	-3.026300	3.076100	-9.308000	27.676168	0.000273	20.717349
2547.754187	-3.004600	3.075900	-9.239900	27.690524	0.000272	20.697654
2548.750461	-3.023400	3.074900	-9.296300	27.709836	0.000270	20.698595
2549.757231	-3.006200	3.073200	-9.237000	27.659386	0.000272	20.701409
2550.753747	-3.017800	3.072900	-9.272400	27.601775	0.000271	20.701760
2551.752900	-2.994900	3.073000	-9.201400	27.543836	0.000273	20.702259
2552.754467	-3.009700	3.069600	-9.236900	27.493403	0.000270	20.696561
2553.753235	-3.032500	3.068300	-9.302500	27.470537	0.000270	20.709119
2554.752595	-2.975300	3.071300	-9.136400	27.507412	0.000274	20.697380
2555.759968	-3.003300	3.068000	-9.211600	27.494925	0.000271	20.694773
2556.756926	-2.991700	3.067900	-9.177300	27.502245	0.000270	20.716839
2557.761737	-2.991100	3.066600	-9.171400	27.477885	0.000271	20.716986
2558.754047	-3.024600	3.063600	-9.265400	27.501620	0.000269	20.714788
2559.754895	-2.982500	3.065800	-9.142800	27.524940	0.000270	20.706481
2560.759926	-3.009100	3.063500	-9.217300	27.526762	0.000269	20.696933
2561.759158	-3.003100	3.061500	-9.193300	27.534358	0.000269	20.705051
2562.761149	-2.979800	3.061500	-9.122000	27.542160	0.000271	20.713850
2563.758709	-2.977600	3.062400	-9.117900	27.579113	0.000270	20.711675
2564.758861	-3.004400	3.057900	-9.185800	27.599523	0.000269	20.709926
2565.760360	-3.004200	3.057400	-9.184000	27.592088	0.000269	20.709557
2566.766644	-2.992200	3.057300	-9.147100	27.581347	0.000270	20.704440
2567.762163	-3.003500	3.056000	-9.177900	27.547134	0.000268	20.716958
2568.759034	-3.003400	3.055100	-9.174200	27.583225	0.000270	20.715339
2569.759902	-3.011700	3.053100	-9.193800	27.607698	0.000270	20.694917
2570.762605	-2.993100	3.051900	-9.132900	27.629748	0.000271	20.706199
2571.761624	-2.985200	3.050900	-9.106800	27.592992	0.000271	20.701457
2572.761513	-2.999900	3.049800	-9.147800	27.583145	0.000271	20.731380
2573.761863	-2.989000	3.049200	-9.113400	27.561687	0.000270	20.696037
2574.766953	-2.987500	3.048300	-9.105700	27.562905	0.000269	20.720498
2575.765491	-3.033500	3.044800	-9.235000	27.564686	0.000270	20.708538
2576.766058	-2.971700	3.045800	-9.049700	27.576760	0.000270	20.713575
2577.765065	-3.013600	3.044100	-9.172800	27.570316	0.000271	20.704246
2578.765646	-2.976100	3.043900	-9.057000	27.615799	0.000271	20.697379
2579.766495	-2.995400	3.043000	-9.114600	27.656869	0.000269	20.708833
2580.766815	-3.018300	3.041200	-9.177900	27.672719	0.000270	20.683529
2581.766486	-3.026600	3.040000	-9.199700	27.685336	0.000269	20.715194
2582.767715	-3.005700	3.039200	-9.133100	27.663141	0.000270	20.703291
2583.768156	-3.008000	3.038700	-9.139300	27.643196	0.000270	20.695549
2584.768488	-2.979300	3.037300	-9.048200	27.603289	0.000270	20.692851
2585.769833	-2.991900	3.035400	-9.081500	27.536305	0.000270	20.716020
2586.768499	-3.000000	3.034100	-9.100500	27.505470	0.000270	20.715816
2587.768699	-3.020200	3.032800	-9.158500	27.479023	0.000270	20.714812
2588.768893	-2.963100	3.034200	-8.990000	27.458188	0.000270	20.709023
2589.769194	-2.985300	3.031400	-9.049100	27.469597	0.000268	20.705328
2590.768393	-3.018300	3.028800	-9.140900	27.541531	0.000270	20.721278
2591.770161	-3.036900	3.028500	-9.195500	27.595815	0.000269	20.714257
2592.770888	-2.998700	3.027200	-9.077300	27.685127	0.000269	20.693645
2593.776255	-3.012700	3.025900	-9.114500	27.696216	0.000270	20.731833
2594.769451	-3.000800	3.025400	-9.077600	27.706589	0.000271	20.706708
2595.770478	-2.974600	3.023900	-8.993700	27.687214	0.000269	20.719929
2596.770222	-2.990900	3.022900	-9.040200	27.713503	0.000268	20.698492
2597.772735	-2.987400	3.021200	-9.024600	27.694606	0.000268	20.709824
2598.773236	-3.026300	3.019000	-9.136200	27.678628	0.000270	20.703701
2599.773029	-3.005200	3.017600	-9.067700	27.659518	0.000269	20.717190
2600.771685	-2.977100	3.017600	-8.982000	27.708369	0.000268	20.737425
2601.775631	-3.023400	3.014900	-9.114200	27.729443	0.000267	20.711215
2602.783699	-3.010600	3.015300	-9.076000	27.745868	0.000268	20.719683
2603.771701	-2.986400	3.013800	-8.999400	27.777736	0.000269	20.733263
2604.771863	-2.989000	3.013100	-9.005500	27.783114	0.000268	20.728717
2605.772021	-3.000700	3.012100	-9.036300	27.803478	0.000268	20.710330
2606.771793	-3.016100	3.010300	-9.079000	27.828326	0.000267	20.703094
2607.773108	-2.983000	3.009900	-8.977400	27.841811	0.000267	20.717140
2608.772362	-2.988100	3.008700	-8.988800	27.831697	0.000267	20.703642
2609.774434	-2.991400	3.008200	-8.996700	27.808245	0.000268	20.718447
2610.772557	-3.000000	3.003700	-9.009900	27.828407	0.000269	20.714081
2611.776631	-2.980700	3.005000	-8.956100	27.805247	0.000267	20.722069
2612.784146	-2.986100	3.003300	-8.967800	27.783177	0.000267	20.708391
2613.777701	-3.011100	3.002300	-9.039200	27.773876	0.000267	20.714204
2614.775820	-2.978000	3.000900	-8.935800	27.762282	0.000267	20.721503
2615.774975	-2.996300	2.998900	-8.984100	27.766044	0.000266	20.693045
2616.779390	-3.014500	2.997800	-9.035200	27.795776	0.000266	20.713958
2617.776654	-2.984500	2.997500	-8.945300	27.815197	0.000268	20.719280
2618.775573	-3.023000	2.996100	-9.055200	27.833977	0.000269	20.723481
2619.774388	-3.010600	2.994700	-9.015200	27.794254	0.000268	20.714798
2620.776279	-2.984000	2.993500	-8.931400	27.732005	0.000266	20.722803
2621.774980	-3.011200	2.991500	-9.006300	27.731436	0.000268	20.730291
2622.778023	-2.994200	2.990600	-8.953700	27.728316	0.000268	20.711029
2623.777994	-2.980000	2.989300	-8.906600	27.744221	0.000267	20.718500
2624.776844	-3.013500	2.986000	-8.997400	27.750939	0.000266	20.716252
2625.781839	-3.022400	2.986700	-9.026000	27.760150	0.000267	20.717461
2626.777622	-2.970000	2.986800	-8.869700	27.758583	0.000266	20.733902
2627.778426	-3.021200	2.983800	-9.014600	27.774131	0.000266	20.715883
2628.777598	-2.967500	2.983400	-8.852100	27.789986	0.000266	20.724728
2629.780403	-3.022300	2.979700	-9.003800	27.785282	0.000267	20.713355
2630.778686	-3.009700	2.979100	-8.966200	27.774965	0.000267	20.732371
2631.779678	-2.998100	2.978800	-8.930000	27.791382	0.000266	20.739884
2632.779758	-3.007700	2.977200	-8.953200	27.823469	0.000267	20.716224
2633.779438	-2.975900	2.976900	-8.857500	27.860835	0.000266	20.705466
2634.778668	-3.012300	2.973800	-8.957400	27.865260	0.000268	20.729835
2635.780827	-3.021600	2.972000	-8.978400	27.881326	0.000266	20.723720
2636.785327	-2.982900	2.971900	-8.862900	27.867916	0.000267	20.728241
2637.779125	-2.996000	2.969800	-8.896800	27.886889	0.000265	20.732638
2638.782354	-2.999300	2.968500	-8.902300	27.830882	0.000264	20.716098
2639.782806	-3.042300	2.966000	-9.022700	27.810501	0.000264	20.703647
2640.779110	-2.978300	2.967400	-8.836800	27.807227	0.000267	20.725958
2641.782149	-2.998400	2.963200	-8.884000	27.831800	0.000266	20.736464
2642.780256	-3.035500	2.961600	-8.989200	27.806016	0.000266	20.732800
2643.778202	-3.042300	2.959600	-9.002500	27.857736	0.000265	20.736962
2644.779698	-3.009900	2.959800	-8.908200	27.871981	0.000268	20.729488
2645.783615	-2.988200	2.960100	-8.843700	27.878643	0.000267	20.728606
2646.780129	-2.996600	2.956500	-8.859300	27.932771	0.000267	20.734722
2647.783269	-3.007100	2.954700	-8.884300	27.945092	0.000269	20.732424
2648.784859	-2.985400	2.955700	-8.821700	27.949129	0.000267	20.727953
2649.782799	-3.026500	2.951600	-8.931900	27.935053	0.000266	20.728483
2650.783036	-2.993900	2.952200	-8.837400	27.919085	0.000267	20.748448
2651.785075	-3.022900	2.950600	-8.917400	27.920505	0.000267	20.733756
2652.785434	-3.022900	2.947700	-8.908200	27.942014	0.000268	20.733594
2653.782950	-2.996900	2.946900	-8.830300	27.968143	0.000267	20.744721
2654.789124	-2.985200	2.947500	-8.798000	27.985702	0.000267	20.745325
2655.784230	-3.018800	2.943100	-8.882900	27.976267	0.000268	20.744363
2656.784335	-3.003600	2.942700	-8.836300	27.982446	0.000267	20.733513
2657.783827	-2.988300	2.941500	-8.788500	27.984250	0.000266	20.739122
2658.785320	-3.006900	2.939100	-8.837000	27.931256	0.000266	20.743629
2659.787249	-2.999900	2.938500	-8.814900	27.943536	0.000267	20.727538
2660.783824	-3.003100	2.935700	-8.815400	27.948815	0.000266	20.735223
2661.786850	-3.009800	2.934100	-8.829500	27.963516	0.000267	20.743383
2662.785273	-2.992300	2.931800	-8.770500	27.950075	0.000266	20.724637
2663.789479	-2.985900	2.931000	-8.750200	27.917758	0.000266	20.741423
2664.789209	-2.990900	2.929000	-8.759400	27.913948	0.000265	20.756080
2665.792571	-2.996200	2.929200	-8.775400	27.936455	0.000266	20.741749
2666.787778	-2.997700	2.928200	-8.776600	27.965069	0.000265	20.736885
2667.787755	-2.997500	2.926100	-8.770300	27.966880	0.000266	20.762890
2668.790591	-3.008500	2.924700	-8.797000	27.986079	0.000265	20.748075
2669.789967	-3.000700	2.922600	-8.766900	28.028466	0.000264	20.735740
2670.788888	-3.011300	2.921300	-8.795800	28.048282	0.000263	20.757583
2671.786110	-3.016700	2.917900	-8.801800	28.032608	0.000266	20.743702
2672.794815	-3.014900	2.915800	-8.790000	28.054398	0.000265	20.740980
2673.790828	-3.025700	2.914000	-8.815800	28.100558	0.000265	20.756628
2674.794555	-2.992100	2.913900	-8.718500	28.141138	0.000266	20.731570
2675.790720	-2.986600	2.912700	-8.698600	28.107208	0.000264	20.757158
2676.789288	-3.005700	2.910000	-8.746400	28.119381	0.000264	20.741911
2677.792567	-2.978200	2.909400	-8.663600	28.104260	0.000264	20.763200
2678.794558	-2.955900	2.908400	-8.595800	28.156743	0.000266	20.740169
2679.792455	-3.017600	2.904600	-8.763800	28.116262	0.000264	20.739245
2680.793038	-2.986800	2.903000	-8.670000	28.044594	0.000265	20.749129
2681.795642	-2.987500	2.902800	-8.671300	28.013725	0.000262	20.752195
2682.791791	-2.996800	2.901100	-8.693000	28.040598	0.000265	20.749849
2683.793555	-2.984000	2.898800	-8.648900	28.070849	0.000264	20.751377
2684.801753	-2.972900	2.898700	-8.615600	28.126349	0.000266	20.750822
2685.795190	-3.000300	2.895100	-8.685400	28.116335	0.000264	20.744061
2686.794867	-3.014200	2.894300	-8.723000	28.149930	0.000265	20.759389
2687.796988	-2.980100	2.894200	-8.624200	28.114012	0.000263	20.743144
2688.797915	-2.996000	2.888800	-8.653700	28.075560	0.000266	20.779353
2689.791633	-3.006700	2.888600	-8.683700	28.040654	0.000266	20.750380
2690.794057	-2.982700	2.887000	-8.610100	27.982520	0.000264	20.772469
2691.798021	-2.997700	2.884300	-8.645100	27.942845	0.000265	20.762406
2692.794990	-2.999500	2.881800	-8.643100	27.923855	0.000266	20.748982
2693.793376	-2.996100	2.881200	-8.630700	27.922693	0.000266	20.759192
2694.793712	-2.980300	2.879200	-8.579700	27.897651	0.000264	20.765283
2695.797495	-2.976400	2.878900	-8.568000	27.840022	0.000265	20.754696
2696.794225	-2.979900	2.875500	-8.567100	27.878360	0.000266	20.766256
2697.795975	-2.995100	2.873400	-8.605100	27.863951	0.000265	20.752701
2698.796371	-2.976800	2.871300	-8.546400	27.910989	0.000265	20.770172
2699.793734	-3.003100	2.869700	-8.616100	27.954671	0.000264	20.761507
2700.795302	-2.980100	2.868100	-8.546700	27.994223	0.000264	20.752954
2701.801409	-3.002900	2.865100	-8.601900	28.022291	0.000264	20.797329
2702.796163	-3.009100	2.862500	-8.612300	28.069168	0.000265	20.754426
2703.795626	-3.002400	2.861400	-8.589500	28.114978	0.000264	20.757394
2704.800263	-2.993200	2.860000	-8.559100	28.108133	0.000265	20.748132
2705.795950	-3.014300	2.856400	-8.609300	28.060096	0.000265	20.765683
2706.797915	-2.992700	2.856000	-8.545900	27.986086	0.000266	20.774162
2707.799917	-2.980000	2.854000	-8.504300	27.959413	0.000266	20.766754
2708.797902	-3.018100	2.851500	-8.605500	27.952193	0.000265	20.764229
2709.801207	-2.974600	2.850000	-8.476500	27.922400	0.000265	20.751311
2710.800427	-2.993700	2.847000	-8.522500	27.945947	0.000264	20.769796
2711.797997	-3.010800	2.845200	-8.565900	27.921224	0.000264	20.761033
2712.804512	-2.984000	2.843200	-8.483200	27.914457	0.000264	20.749955
2713.802379	-2.992000	2.841100	-8.499600	27.901738	0.000265	20.784095
2714.798855	-3.041800	2.838000	-8.631200	27.904693	0.000264	20.763361
2715.802180	-2.989000	2.836000	-8.475000	27.872927	0.000264	20.785443
2716.804770	-3.004600	2.833300	-8.510700	27.885867	0.000266	20.773810
2717.804138	-2.973400	2.835100	-8.426800	27.931465	0.000265	20.777980
2718.803347	-3.028000	2.829900	-8.568100	27.970743	0.000265	20.772943
2719.806166	-3.017600	2.826700	-8.528300	28.023899	0.000264	20.766705
2720.802003	-2.980200	2.826200	-8.420600	28.068397	0.000264	20.782574
2721.805295	-2.992000	2.823700	-8.448000	28.078410	0.000264	20.785067
2722.807069	-2.969000	2.823300	-8.379600	28.093881	0.000267	20.795899
2723.802979	-3.014500	2.819200	-8.496900	28.140859	0.000264	20.776336
2724.802701	-2.996900	2.816900	-8.441100	28.190856	0.000264	20.769297
2725.808793	-3.012600	2.813900	-8.475800	28.202264	0.000265	20.800697
2726.800923	-3.006300	2.812200	-8.453000	28.239073	0.000262	20.787020
2727.803699	-3.007600	2.808100	-8.443900	28.245446	0.000265	20.781109
2728.805779	-3.020600	2.806800	-8.477300	28.239390	0.000266	20.783547
2729.804528	-3.009800	2.804000	-8.438500	28.250138	0.000263	20.781092
2730.804547	-3.024200	2.802200	-8.472900	28.310208	0.000262	20.770923
2731.804680	-2.970000	2.800500	-8.316100	28.320202	0.000264	20.804694
2732.803663	-3.000000	2.798000	-8.393200	28.365604	0.000264	20.784028
2733.804676	-3.014100	2.794300	-8.421600	28.354408	0.000263	20.786978
2734.804762	-3.028400	2.791900	-8.454600	28.327193	0.000264	20.780913
2735.807546	-2.999000	2.788600	-8.361900	28.326000	0.000263	20.789194
2736.803971	-3.008000	2.786300	-8.380300	28.396739	0.000263	20.794516
2737.807281	-3.015100	2.783900	-8.391700	28.431713	0.000263	20.786585
2738.804688	-3.017200	2.781500	-8.391000	28.453567	0.000264	20.789152
2739.805976	-3.014900	2.779400	-8.378000	28.469350	0.000263	20.797933
2740.809714	-2.984000	2.776600	-8.284700	28.410523	0.000264	20.775679
2741.814375	-2.998000	2.773400	-8.313000	28.348188	0.000264	20.790673
2742.809826	-3.020000	2.769600	-8.363200	28.309500	0.000264	20.817626
2743.810608	-2.971700	2.768500	-8.225800	28.269667	0.000259	20.797908
2744.807791	-3.009300	2.764100	-8.316200	28.234094	0.000263	20.795285
2745.808411	-2.991400	2.763300	-8.265200	28.224975	0.000261	20.808389
2746.809543	-2.994000	2.759400	-8.260100	28.182313	0.000263	20.792464
2747.807357	-2.977000	2.755400	-8.202200	28.174160	0.000264	20.782360
2748.809763	-2.993700	2.754200	-8.243500	28.167419	0.000263	20.809239
2749.813977	-2.998000	2.750600	-8.245100	28.155687	0.000264	20.793160
2750.810174	-3.000900	2.746200	-8.240500	28.123073	0.000262	20.813907
2751.813948	-2.999500	2.744500	-8.231200	28.061778	0.000263	20.818111
2752.814980	-2.985300	2.741900	-8.184400	28.056904	0.000265	20.811782
2753.818048	-2.976700	2.738000	-8.149000	28.071327	0.000262	20.804964
2754.817397	-3.025000	2.733900	-8.268700	28.052406	0.000264	20.784021
2755.814366	-3.003400	2.730300	-8.198900	28.082771	0.000263	20.809846
2756.814486	-2.989600	2.727800	-8.154500	28.105558	0.000262	20.796275
2757.818771	-3.001300	2.723900	-8.173900	28.118293	0.000262	20.806724
2758.816060	-2.986400	2.720600	-8.123900	28.161104	0.000264	20.808571
2759.821796	-2.985200	2.717600	-8.111700	28.161397	0.000265	20.806970
2760.819995	-3.004500	2.713600	-8.152000	28.156834	0.000263	20.809962
2761.817457	-2.962400	2.711800	-8.030300	28.120218	0.000263	20.796809
2762.816740	-2.968700	2.708300	-8.039000	28.119601	0.000265	20.807567
2763.820412	-3.020400	2.702200	-8.161000	28.084641	0.000264	20.793711
2764.816675	-2.987600	2.701100	-8.068400	28.097872	0.000265	20.813193
2765.817806	-3.001200	2.695800	-8.089600	28.079397	0.000266	20.816881
2766.818513	-3.002600	2.693400	-8.086400	28.129593	0.000263	20.823789
2767.821850	-3.015400	2.688500	-8.106800	28.201256	0.000264	20.802526
2768.822715	-3.026000	2.684900	-8.123800	28.260076	0.000263	20.837090
2769.820274	-2.988600	2.681400	-8.013000	28.309070	0.000263	20.814348
2770.817435	-2.998700	2.676900	-8.026800	28.398168	0.000263	20.824878
2771.822925	-2.991400	2.673000	-7.994800	28.435350	0.000264	20.804946
2772.822093	-2.987000	2.670700	-7.977200	28.452220	0.000263	20.827150
2773.819624	-2.995600	2.664600	-7.980800	28.463074	0.000263	20.829545
2774.825614	-3.015200	2.661400	-8.023700	28.505645	0.000262	20.834009
2775.821837	-3.020300	2.656500	-8.022600	28.532726	0.000262	20.820031
2776.822539	-2.987200	2.654400	-7.927300	28.525176	0.000264	20.834238
2777.823501	-2.987000	2.648300	-7.909200	28.510507	0.000264	20.810931
2778.819767	-3.038400	2.643800	-8.032000	28.508551	0.000263	20.805167
2779.821554	-3.006400	2.639500	-7.934600	28.540964	0.000265	20.814577
2780.822947	-3.009900	2.635200	-7.931300	28.566388	0.000264	20.807939
2781.825974	-2.988700	2.630000	-7.858700	28.604854	0.000265	20.818704
2782.820599	-3.006100	2.625600	-7.892200	28.643580	0.000265	20.842059
2783.822126	-3.015100	2.622800	-7.906500	28.635504	0.000263	20.826339
2784.824742	-2.988000	2.616200	-7.816200	28.647071	0.000264	20.840359
2785.823260	-3.018000	2.610900	-7.877600	28.622475	0.000263	20.832657
2786.823499	-2.984500	2.606700	-7.778500	28.656371	0.000265	20.834080
2787.825810	-2.983200	2.603000	-7.763500	28.731635	0.000262	20.846351
2788.822772	-2.994700	2.596900	-7.776200	28.744822	0.000262	20.821703
2789.826447	-2.973500	2.591300	-7.704000	28.800684	0.000265	20.838143
2790.822929	-2.995100	2.586400	-7.745000	28.833817	0.000264	20.832166
2791.827980	-2.969900	2.581300	-7.665600	28.857829	0.000264	20.823638
2792.824007	-2.983400	2.575500	-7.683000	28.855249	0.000267	20.806341
2793.822402	-3.016600	2.569700	-7.751000	28.870781	0.000262	20.832419
2794.827128	-2.992900	2.565400	-7.677000	28.818089	0.000264	20.829124
2795.824779	-3.000000	2.559800	-7.678100	28.799764	0.000264	20.835320
2796.824492	-3.021100	2.552400	-7.709800	28.822479	0.000264	20.837339
2797.825661	-3.010100	2.546900	-7.665100	28.806427	0.000265	20.830178
2798.824854	-3.005700	2.541400	-7.637600	28.790869	0.000265	20.851490
2799.826886	-2.929900	2.539400	-7.439400	28.811385	0.000266	20.821897
2800.826035	-2.991000	2.531200	-7.569400	28.841565	0.000265	20.841393
2801.831374	-3.007800	2.523500	-7.589700	28.860489	0.000263	20.845284
2802.828250	-3.016100	2.517000	-7.590200	28.851425	0.000264	20.843739
2803.830978	-3.018900	2.512600	-7.583900	28.809411	0.000265	20.830340
2804.829803	-2.978000	2.505700	-7.461300	28.777348	0.000266	20.837396
2805.827316	-3.003600	2.498200	-7.502400	28.795388	0.000264	20.841818
