LabVIEW Measurement	
Writer_Version	2
Reader_Version	2
Separator	Tab
Decimal_Separator	.
Multi_Headings	No
X_Columns	One
Time_Pref	Absolute
Operator	admin
Description	Clolumns are: time, Current, Voltage, Power, Battery Temp, and Chamber Temp
Date	2024/08/16
Time	13:06:06.104549407958984375
***End_of_Header***	
	
Channels	6						
Samples	1	1	1	1	1	1	
Date	2024/09/12	2024/09/12	2024/09/12	2024/09/12	2024/09/12	2024/09/12	
Time	00:22:40.4049921035766601563	00:22:40.4209890365600585938	00:22:40.4267354011535644532	00:22:40.3780150413513183594	00:22:40.3780150413513183594	00:22:40.3780150413513183594	
X_Dimension	Time	Time	Time	Time	Time	Time	
X0	0.0000000000000000E+0	0.0000000000000000E+0	0.0000000000000000E+0	0.0000000000000000E+0	0.0000000000000000E+0	0.0000000000000000E+0	
Delta_X	1.000000	1.000000	1.000000	1.000000	1.000000	1.000000	
***End_of_Header***							
X_Value	Untitled	Untitled 1	Untitled 2	Untitled 3	Untitled 4	Untitled 5	Comment
0.000000	0.000330	4.098200	0.001379	21.008676	0.000916	20.744591
1.002706	-3.011100	3.919600	-11.801000	20.989367	0.000915	20.750883
2.001612	-2.992300	3.912800	-11.707000	20.998676	0.000914	20.737433
2.989764	-2.981900	3.910400	-11.659000	21.013343	0.000914	20.730766
3.994071	-3.003400	3.903300	-11.722000	20.987318	0.000912	20.735083
5.006484	-3.001300	3.900300	-11.705000	20.984276	0.000912	20.734885
5.993070	-2.999100	3.898500	-11.691000	20.975520	0.000912	20.715221
7.001414	-2.998200	3.894800	-11.676000	20.988221	0.000912	20.744995
7.995661	-2.991100	3.893400	-11.644000	21.003515	0.000908	20.729945
8.995864	-3.011300	3.890800	-11.715000	21.009579	0.000913	20.734588
9.996077	-3.015500	3.887100	-11.721000	20.995229	0.000909	20.739676
10.996403	-3.004000	3.886500	-11.674000	21.028418	0.000907	20.726877
11.999606	-2.991000	3.885300	-11.620000	21.016991	0.000907	20.737734
13.000320	-3.000100	3.885100	-11.655000	21.008285	0.000906	20.717645
14.002025	-2.989700	3.882000	-11.605000	21.011080	0.000908	20.736089
14.995142	-3.004600	3.880400	-11.658000	21.013075	0.000906	20.733817
15.998142	-3.006900	3.879800	-11.665000	21.023480	0.000906	20.727628
16.996845	-3.011100	3.879000	-11.679000	21.036704	0.000904	20.741330
18.008727	-3.012000	3.877200	-11.677000	21.042343	0.000904	20.753609
19.004328	-2.979000	3.877400	-11.549000	21.039998	0.000904	20.732296
20.003299	-3.016400	3.874900	-11.687000	21.049957	0.000901	20.730403
21.010907	-2.989700	3.875300	-11.585000	21.054574	0.000903	20.723167
22.003224	-2.990900	3.873500	-11.584000	21.074583	0.000902	20.736068
23.000628	-3.025200	3.871500	-11.711000	21.070493	0.000902	20.742410
23.995677	-3.009300	3.873000	-11.655000	21.064673	0.000899	20.741330
24.999457	-3.027100	3.870000	-11.714000	21.084587	0.000901	20.731376
25.999405	-3.006700	3.870300	-11.636000	21.079525	0.000900	20.710191
27.004690	-2.990500	3.869500	-11.571000	21.098037	0.000899	20.741037
28.000535	-3.008600	3.868400	-11.637000	21.100852	0.000899	20.735792
29.001452	-3.008700	3.869600	-11.640000	21.112150	0.000899	20.735240
29.998350	-2.993000	3.869400	-11.580000	21.116095	0.000899	20.732547
30.998574	-2.996100	3.868500	-11.590000	21.122212	0.000896	20.734399
31.997099	-2.987500	3.867800	-11.555000	21.134083	0.000897	20.741058
33.002257	-2.994600	3.866300	-11.577000	21.130914	0.000898	20.726981
34.004580	-3.018800	3.865200	-11.666000	21.158530	0.000894	20.759348
35.001747	-2.997400	3.866400	-11.589000	21.139170	0.000896	20.721488
36.012141	-3.006500	3.865600	-11.621000	21.162697	0.000896	20.749766
37.003562	-2.989900	3.865400	-11.557000	21.171629	0.000897	20.740682
38.001699	-3.012800	3.864300	-11.641000	21.164337	0.000895	20.737656
39.012253	-2.983300	3.862600	-11.523000	21.173442	0.000896	20.739177
40.006551	-3.013700	3.863700	-11.642000	21.176018	0.000895	20.734168
41.010643	-3.005000	3.862100	-11.604000	21.188388	0.000897	20.744171
42.008091	-3.009300	3.861900	-11.620000	21.202558	0.000896	20.722783
43.002714	-2.998700	3.863200	-11.584000	21.204252	0.000894	20.752454
44.006947	-3.021300	3.860200	-11.661000	21.234409	0.000895	20.732836
45.018766	-2.980700	3.860400	-11.506000	21.223335	0.000895	20.744517
46.005133	-2.986700	3.860600	-11.529000	21.228825	0.000896	20.748586
47.007209	-3.001700	3.860300	-11.586000	21.225354	0.000894	20.743218
48.010098	-3.009000	3.859000	-11.611000	21.243617	0.000894	20.744892
49.008058	-3.029300	3.857300	-11.684000	21.247330	0.000893	20.749081
50.005469	-2.990000	3.860000	-11.540000	21.257259	0.000893	20.733883
51.008683	-3.003000	3.858600	-11.585000	21.268032	0.000894	20.757938
52.018086	-3.005000	3.856900	-11.588000	21.283899	0.000893	20.742991
53.008620	-3.017700	3.856700	-11.636000	21.282102	0.000893	20.748306
54.017410	-2.986800	3.857100	-11.520000	21.300108	0.000894	20.738818
55.021401	-2.989200	3.857900	-11.532000	21.303154	0.000892	20.749452
56.007848	-2.972400	3.856300	-11.462000	21.324428	0.000894	20.752718
57.008173	-3.013200	3.855300	-11.614000	21.298790	0.000894	20.762156
58.014244	-3.010300	3.855800	-11.606000	21.318341	0.000892	20.745679
59.012353	-3.020400	3.854900	-11.643000	21.302853	0.000893	20.741090
60.024265	-3.005900	3.855400	-11.588000	21.328421	0.000894	20.761929
61.017659	-2.997000	3.854500	-11.551000	21.330915	0.000891	20.760630
62.015579	-3.005700	3.853700	-11.582000	21.349274	0.000893	20.773309
63.012392	-3.004700	3.853900	-11.577000	21.366682	0.000892	20.746154
64.015515	-3.006900	3.853700	-11.587000	21.364390	0.000892	20.771363
65.018426	-2.981200	3.853000	-11.485000	21.363591	0.000892	20.769615
66.016883	-2.989400	3.853200	-11.518000	21.385593	0.000893	20.769817
67.026130	-2.984600	3.853600	-11.500000	21.381649	0.000892	20.753542
68.022282	-2.978900	3.853000	-11.476000	21.398809	0.000892	20.765496
69.016987	-3.013500	3.851000	-11.604000	21.417493	0.000893	20.769017
70.015102	-2.997100	3.852700	-11.546000	21.430490	0.000892	20.745985
71.017424	-2.991000	3.850300	-11.515000	21.426596	0.000892	20.748726
72.018258	-3.002800	3.851800	-11.565000	21.402728	0.000894	20.765149
73.017953	-2.988100	3.851600	-11.506000	21.420984	0.000893	20.772035
74.018316	-3.010600	3.849800	-11.589000	21.420036	0.000892	20.736946
75.017049	-3.012400	3.851100	-11.600000	21.419088	0.000892	20.771561
76.020607	-2.991600	3.850800	-11.519000	21.454432	0.000893	20.761880
77.025394	-2.999800	3.850400	-11.550000	21.457275	0.000893	20.788433
78.023110	-2.987000	3.850700	-11.501000	21.462616	0.000894	20.780026
79.020913	-3.004400	3.849400	-11.564000	21.485609	0.000892	20.770316
80.022138	-2.996000	3.850400	-11.535000	21.485560	0.000895	20.765524
81.029124	-3.006600	3.848100	-11.569000	21.490624	0.000894	20.768221
82.020113	-2.996600	3.847800	-11.529000	21.479572	0.000894	20.783242
83.019240	-3.002700	3.847900	-11.552000	21.494089	0.000892	20.775482
84.019232	-2.985900	3.848300	-11.489000	21.510992	0.000894	20.750194
85.022944	-3.007800	3.847400	-11.570000	21.523642	0.000893	20.770439
86.041041	-3.009700	3.847100	-11.577000	21.531973	0.000892	20.754120
87.024705	-2.970700	3.848800	-11.432000	21.547779	0.000895	20.763298
88.018088	-2.998500	3.845700	-11.530000	21.541347	0.000893	20.770612
89.039505	-3.001000	3.846000	-11.540000	21.565435	0.000895	20.780017
90.027175	-3.016000	3.844500	-11.594000	21.565509	0.000895	20.775824
91.026913	-3.013900	3.843600	-11.582000	21.574685	0.000893	20.757979
92.028238	-2.983500	3.846000	-11.474000	21.596378	0.000895	20.764040
93.034428	-2.981100	3.845100	-11.462000	21.594182	0.000895	20.772274
94.038216	-3.013100	3.842900	-11.577000	21.609967	0.000894	20.788070
95.037933	-2.976900	3.845200	-11.445000	21.621936	0.000893	20.778710
96.025713	-2.992200	3.844900	-11.504000	21.621635	0.000895	20.776038
97.025144	-3.002300	3.845900	-11.545000	21.645700	0.000894	20.795380
98.028130	-2.987900	3.845600	-11.488000	21.627094	0.000895	20.775337
99.036193	-3.011800	3.845100	-11.579000	21.647517	0.000894	20.762584
100.031454	-2.991100	3.844400	-11.497000	21.655720	0.000893	20.799717
101.026155	-3.012200	3.843800	-11.577000	21.657739	0.000896	20.792254
102.027879	-2.999400	3.844000	-11.529000	21.649833	0.000896	20.771066
103.030775	-3.034100	3.840700	-11.650000	21.659832	0.000894	20.789607
104.032027	-3.005400	3.842400	-11.547000	21.660952	0.000893	20.781720
105.037494	-3.004200	3.843400	-11.546000	21.647488	0.000896	20.787686
106.020755	-3.003500	3.841800	-11.538000	21.684539	0.000895	20.782091
107.030854	-3.024200	3.842000	-11.618000	21.715784	0.000897	20.784437
108.023367	-2.981900	3.841000	-11.452000	21.713065	0.000897	20.795466
109.028435	-2.998400	3.840700	-11.514000	21.712941	0.000895	20.766893
110.024457	-2.999900	3.841100	-11.521000	21.715459	0.000897	20.795965
111.021963	-3.007200	3.840800	-11.548000	21.730541	0.000896	20.798257
112.028077	-3.018900	3.840500	-11.593000	21.742686	0.000897	20.797610
113.037678	-2.999200	3.841000	-11.517000	21.728399	0.000897	20.789475
114.039523	-3.015900	3.840300	-11.581000	21.751712	0.000899	20.807118
115.024776	-3.003100	3.838900	-11.528000	21.757698	0.000900	20.793194
116.034155	-3.013600	3.839000	-11.569000	21.761958	0.000897	20.784655
117.026236	-2.991900	3.838600	-11.483000	21.778292	0.000897	20.806219
118.032703	-3.014000	3.839700	-11.572000	21.804047	0.000898	20.765140
119.028862	-3.012600	3.838100	-11.562000	21.801876	0.000899	20.796633
120.024695	-2.990900	3.839000	-11.481000	21.791503	0.000897	20.799053
121.031035	-2.987300	3.839400	-11.469000	21.820599	0.000899	20.787871
122.032099	-3.001700	3.838900	-11.522000	21.811227	0.000899	20.807889
123.028378	-3.011900	3.837600	-11.557000	21.829724	0.000899	20.785150
124.039646	-3.009700	3.837800	-11.550000	21.820648	0.000899	20.808784
125.032431	-2.992500	3.839000	-11.487000	21.835458	0.000901	20.805114
126.026556	-3.005000	3.837000	-11.529000	21.839445	0.000900	20.799622
127.026170	-3.025500	3.836000	-11.605000	21.845431	0.000901	20.804665
128.033650	-3.002800	3.835400	-11.516000	21.857175	0.000900	20.805988
129.036051	-3.005200	3.836600	-11.528000	21.859267	0.000902	20.809979
130.037628	-3.001100	3.837200	-11.514000	21.873907	0.000902	20.792864
131.026708	-2.996300	3.837000	-11.496000	21.855177	0.000904	20.818213
132.034905	-3.008700	3.835400	-11.537000	21.854728	0.000903	20.807806
133.033676	-3.002500	3.836500	-11.518000	21.858246	0.000903	20.816069
134.036535	-2.986300	3.837600	-11.459000	21.856503	0.000904	20.794411
135.033557	-2.996600	3.835200	-11.491000	21.878714	0.000903	20.805262
136.034266	-3.006500	3.836200	-11.532000	21.884774	0.000904	20.802319
137.036954	-3.002200	3.835600	-11.514000	21.885573	0.000904	20.825403
138.029964	-3.020800	3.835500	-11.584000	21.918081	0.000904	20.820959
139.028852	-3.015300	3.835400	-11.564000	21.931843	0.000904	20.829044
140.038291	-3.005000	3.834800	-11.523000	21.936777	0.000905	20.807905
141.048793	-3.008900	3.833000	-11.532000	21.935731	0.000906	20.825824
142.035985	-3.000300	3.833500	-11.501000	21.959312	0.000905	20.815764
143.038767	-3.003400	3.835400	-11.518000	21.966269	0.000907	20.810400
144.038771	-3.018200	3.833700	-11.569000	21.970606	0.000907	20.815215
145.040555	-2.995300	3.833700	-11.482000	21.990875	0.000909	20.802789
146.034179	-3.001000	3.833100	-11.502000	22.006806	0.000905	20.821581
147.031826	-2.988900	3.834200	-11.458000	22.011044	0.000907	20.807332
148.029562	-2.979300	3.833600	-11.420000	22.003767	0.000908	20.815220
149.037834	-3.022800	3.831400	-11.579000	22.014809	0.000908	20.809678
150.036543	-3.011000	3.830700	-11.534000	22.015707	0.000910	20.830965
151.043053	-2.998500	3.831400	-11.487000	22.008598	0.000911	20.823375
152.042540	-3.006700	3.830900	-11.517000	22.065488	0.000909	20.797824
153.042343	-2.998200	3.832900	-11.491000	22.047935	0.000910	20.836675
154.042831	-3.000800	3.830500	-11.494000	22.042305	0.000910	20.823927
155.038146	-2.993500	3.831800	-11.469000	22.055592	0.000910	20.827745
156.043593	-2.986600	3.832200	-11.443000	22.048887	0.000911	20.815343
157.040545	-3.018900	3.829600	-11.560000	22.051230	0.000914	20.833336
158.034030	-2.993000	3.830300	-11.463000	22.084755	0.000911	20.839397
159.048560	-2.989700	3.830300	-11.451000	22.077976	0.000913	20.837352
160.042886	-3.006300	3.830600	-11.515000	22.073738	0.000913	20.836428
161.038430	-3.002800	3.830200	-11.500000	22.107962	0.000912	20.838448
162.042651	-2.981400	3.830200	-11.418000	22.088840	0.000913	20.823099
163.045606	-3.015000	3.827900	-11.541000	22.098737	0.000914	20.839170
164.040712	-3.014700	3.827800	-11.538000	22.123513	0.000914	20.834577
165.036274	-2.992000	3.828400	-11.454000	22.118925	0.000915	20.835199
166.049714	-3.014500	3.828000	-11.538000	22.151707	0.000915	20.821552
167.037944	-3.000600	3.828200	-11.485000	22.141283	0.000915	20.859005
168.049657	-3.032800	3.827500	-11.605000	22.173364	0.000917	20.831856
169.044120	-3.007100	3.828900	-11.513000	22.181114	0.000917	20.829184
170.049838	-3.001300	3.827400	-11.485000	22.200935	0.000917	20.832907
171.049026	-3.025400	3.825300	-11.572000	22.190162	0.000918	20.839665
172.054913	-2.989700	3.826800	-11.440000	22.199460	0.000917	20.846603
173.049610	-3.014000	3.827100	-11.533000	22.193477	0.000918	20.849621
174.061136	-2.995300	3.827300	-11.462000	22.210876	0.000919	20.815834
175.050917	-3.006800	3.825900	-11.502000	22.213787	0.000921	20.844826
176.050860	-3.016600	3.826400	-11.542000	22.235398	0.000920	20.828533
177.046641	-3.006900	3.825200	-11.501000	22.223040	0.000921	20.853142
178.056789	-3.007800	3.826200	-11.507000	22.246339	0.000921	20.825263
179.053684	-3.006100	3.825500	-11.499000	22.277771	0.000924	20.845354
180.051341	-2.989200	3.825900	-11.435000	22.262667	0.000920	20.838292
181.050515	-2.996400	3.823900	-11.457000	22.301715	0.000921	20.848467
182.051194	-2.992400	3.824600	-11.444000	22.311037	0.000922	20.849267
183.050980	-2.999900	3.824300	-11.471000	22.325342	0.000924	20.849840
184.052885	-3.013600	3.823900	-11.523000	22.314850	0.000924	20.829378
185.050589	-3.015100	3.824300	-11.530000	22.300447	0.000924	20.847197
186.058611	-3.012400	3.823300	-11.515000	22.308818	0.000922	20.859372
187.057061	-3.010800	3.822900	-11.510000	22.310164	0.000924	20.846022
188.049695	-2.999400	3.824400	-11.470000	22.301114	0.000923	20.848339
189.045995	-3.007400	3.822900	-11.495000	22.310510	0.000927	20.842101
190.046224	-2.993900	3.822900	-11.444000	22.327607	0.000925	20.862064
191.049702	-3.016800	3.822500	-11.530000	22.332412	0.000925	20.862134
192.047686	-2.988400	3.824200	-11.426000	22.339243	0.000927	20.851431
193.055714	-3.016300	3.821800	-11.526000	22.352876	0.000926	20.860341
194.054844	-2.992900	3.823500	-11.442000	22.353769	0.000927	20.847960
195.055949	-2.975200	3.822000	-11.371000	22.377420	0.000928	20.855995
196.056549	-2.973700	3.823000	-11.367000	22.367126	0.000929	20.862283
197.055642	-2.990200	3.820900	-11.423000	22.396035	0.000930	20.861359
198.056909	-2.984500	3.822200	-11.406000	22.379335	0.000929	20.861705
199.056008	-2.996300	3.822200	-11.452000	22.396553	0.000931	20.856189
200.052298	-2.986500	3.821700	-11.412000	22.388751	0.000930	20.887728
201.066890	-3.010900	3.822000	-11.506000	22.409461	0.000931	20.862476
202.058743	-2.987200	3.820700	-11.411000	22.381101	0.000930	20.860155
203.057131	-2.994900	3.821300	-11.444000	22.390719	0.000931	20.859829
204.069282	-3.010300	3.819500	-11.497000	22.402952	0.000933	20.873975
205.065231	-3.000000	3.819400	-11.456000	22.387652	0.000932	20.892791
206.056516	-2.981000	3.821400	-11.390000	22.429063	0.000932	20.878786
207.069476	-2.990900	3.820600	-11.426000	22.413665	0.000931	20.870953
208.072379	-2.992300	3.819000	-11.427000	22.415411	0.000935	20.872227
209.055409	-2.979600	3.819700	-11.379000	22.430187	0.000933	20.886549
210.062603	-2.989400	3.819000	-11.415000	22.438133	0.000935	20.885498
211.068309	-3.004400	3.817900	-11.470000	22.464870	0.000935	20.871971
212.064310	-2.992800	3.818100	-11.426000	22.485826	0.000935	20.868302
213.061073	-2.992000	3.819200	-11.425000	22.479473	0.000937	20.879957
214.058889	-3.000000	3.818100	-11.454000	22.491376	0.000937	20.876230
215.062500	-3.012200	3.816500	-11.495000	22.502269	0.000937	20.884768
216.069071	-2.983500	3.817100	-11.387000	22.520783	0.000937	20.881025
217.056962	-3.000000	3.818200	-11.453000	22.512907	0.000938	20.882620
218.061681	-2.990900	3.817100	-11.414000	22.501590	0.000939	20.886459
219.058024	-3.015100	3.817500	-11.509000	22.515649	0.000938	20.886314
220.069612	-3.001100	3.816500	-11.452000	22.518185	0.000939	20.879372
221.056071	-2.996100	3.816800	-11.435000	22.508815	0.000941	20.884212
222.065059	-3.004200	3.815800	-11.463000	22.507572	0.000939	20.891501
223.063928	-2.993100	3.817000	-11.424000	22.548584	0.000943	20.882315
224.060165	-3.004800	3.815100	-11.463000	22.539687	0.000942	20.889526
225.059179	-2.996200	3.816000	-11.433000	22.554656	0.000943	20.892663
226.064753	-2.995800	3.815600	-11.430000	22.563956	0.000942	20.884909
227.062144	-3.004900	3.815000	-11.463000	22.585926	0.000943	20.887947
228.059598	-2.979700	3.814500	-11.365000	22.607505	0.000944	20.889172
229.059802	-3.005200	3.814200	-11.462000	22.598009	0.000943	20.885824
230.069061	-3.021500	3.812000	-11.517000	22.609197	0.000944	20.838238
231.058914	-2.990300	3.814200	-11.404000	22.594295	0.000947	20.885898
232.077726	-2.993900	3.813800	-11.417000	22.595444	0.000946	20.868558
233.063860	-3.003500	3.813000	-11.451000	22.582637	0.000948	20.883705
234.062729	-2.993000	3.813400	-11.412000	22.603265	0.000947	20.875917
235.074734	-2.977300	3.814200	-11.355000	22.615220	0.000950	20.877933
236.068041	-2.994500	3.812400	-11.415000	22.619328	0.000949	20.881573
237.064610	-3.001200	3.813600	-11.445000	22.610461	0.000948	20.873167
238.070216	-3.009900	3.812100	-11.473000	22.657796	0.000951	20.857991
239.066998	-2.995300	3.810600	-11.413000	22.640055	0.000951	20.887160
240.063131	-2.988700	3.813400	-11.397000	22.654730	0.000951	20.872936
241.062218	-3.015600	3.810700	-11.490000	22.650745	0.000951	20.851877
242.085114	-3.012800	3.809800	-11.478000	22.650272	0.000951	20.858040
243.064958	-2.999800	3.811300	-11.432000	22.660810	0.000952	20.864802
244.065085	-2.998600	3.811600	-11.429000	22.670500	0.000953	20.852697
245.067485	-3.024500	3.809900	-11.521000	22.680086	0.000952	20.870359
246.076890	-3.007800	3.810000	-11.459000	22.659958	0.000954	20.874379
247.068483	-2.995100	3.809500	-11.407000	22.681387	0.000954	20.841318
248.074137	-2.996300	3.811300	-11.418000	22.670944	0.000954	20.854565
249.067802	-2.972400	3.810900	-11.327000	22.705599	0.000955	20.850871
250.078640	-2.984500	3.811300	-11.373000	22.709287	0.000955	20.850772
251.071741	-2.993100	3.809900	-11.402000	22.709711	0.000957	20.849300
252.063835	-2.973300	3.810000	-11.327000	22.734350	0.000957	20.845532
253.082648	-2.996300	3.808600	-11.409000	22.704327	0.000958	20.836795
254.073765	-3.009800	3.808600	-11.462000	22.733424	0.000958	20.843656
255.063528	-2.981300	3.808700	-11.354000	22.723883	0.000958	20.855909
256.081079	-2.978700	3.810100	-11.347000	22.723455	0.000960	20.851687
257.065071	-2.998400	3.807600	-11.416000	22.711370	0.000959	20.862815
258.079610	-2.995500	3.808600	-11.408000	22.724624	0.000958	20.848117
259.071064	-2.999300	3.808100	-11.421000	22.689270	0.000961	20.845420
260.076030	-3.012100	3.805700	-11.463000	22.705290	0.000960	20.852458
261.073634	-2.985200	3.808800	-11.369000	22.736997	0.000960	20.837278
262.068513	-2.998900	3.807100	-11.417000	22.766250	0.000961	20.852829
263.067052	-3.001200	3.806000	-11.422000	22.778281	0.000961	20.834062
264.069046	-2.987900	3.805500	-11.369000	22.765274	0.000962	20.849956
265.072888	-3.002100	3.806900	-11.427000	22.798481	0.000962	20.858090
266.071953	-2.997500	3.806500	-11.409000	22.780491	0.000961	20.843388
267.075811	-2.985200	3.807400	-11.363000	22.791056	0.000964	20.835006
268.071664	-3.011300	3.804200	-11.454000	22.816636	0.000962	20.840716
269.069960	-3.001800	3.804900	-11.420000	22.800144	0.000964	20.852170
270.073251	-2.997100	3.805900	-11.405000	22.819131	0.000963	20.844637
271.075083	-2.985900	3.805100	-11.361000	22.804454	0.000963	20.842737
272.070475	-2.974600	3.806200	-11.321000	22.825699	0.000965	20.844106
273.070662	-2.998000	3.806200	-11.410000	22.824831	0.000965	20.833279
274.076017	-2.986700	3.804200	-11.361000	22.798844	0.000966	20.820048
275.091390	-3.000400	3.803500	-11.410000	22.835762	0.000966	20.835695
276.075398	-3.010900	3.803000	-11.450000	22.843237	0.000967	20.825165
277.088111	-3.000000	3.802700	-11.408000	22.848418	0.000967	20.833675
278.077205	-2.979600	3.803200	-11.332000	22.848867	0.000968	20.833650
279.077366	-3.005300	3.802300	-11.425000	22.853052	0.000966	20.806075
280.075375	-2.999400	3.802400	-11.404000	22.853452	0.000969	20.828760
281.086437	-2.993100	3.802700	-11.380000	22.883166	0.000968	20.844304
282.097506	-3.009800	3.802000	-11.442000	22.877314	0.000969	20.824217
283.075173	-2.996000	3.801600	-11.388000	22.874898	0.000970	20.822745
284.078538	-3.003600	3.801700	-11.418000	22.873849	0.000967	20.829280
285.081892	-2.988800	3.803600	-11.367000	22.876145	0.000969	20.830158
286.082838	-2.981900	3.800600	-11.331000	22.863967	0.000969	20.831234
287.085078	-2.998600	3.800200	-11.394000	22.878487	0.000972	20.822547
288.084431	-2.979700	3.800500	-11.323000	22.870589	0.000972	20.825540
289.077238	-3.030500	3.800400	-11.515000	22.873281	0.000972	20.825392
290.085814	-2.984700	3.799700	-11.340000	22.899986	0.000971	20.819904
291.078370	-3.005500	3.800500	-11.420000	22.894953	0.000974	20.815336
292.076527	-2.999000	3.799100	-11.392000	22.918748	0.000972	20.833959
293.085124	-3.020500	3.798300	-11.471000	22.927934	0.000973	20.817084
294.078208	-2.997500	3.800100	-11.390000	22.933366	0.000973	20.820155
295.090290	-3.015200	3.797900	-11.450000	22.956132	0.000974	20.817360
296.086239	-2.989300	3.800400	-11.359000	22.969285	0.000974	20.827692
297.095897	-2.992700	3.799300	-11.369000	22.970038	0.000977	20.809007
298.081470	-3.008500	3.796800	-11.422000	22.982165	0.000976	20.823528
299.078784	-3.004400	3.797600	-11.408000	22.990009	0.000978	20.804360
300.085222	-2.988300	3.797500	-11.348000	22.988317	0.000977	20.817838
301.081205	-2.961000	3.798400	-11.246000	22.981844	0.000978	20.812775
302.081223	-3.009400	3.797200	-11.425000	22.978807	0.000978	20.812103
303.086636	-3.023100	3.796000	-11.474000	22.984980	0.000979	20.832986
304.087536	-2.989300	3.798000	-11.352000	23.007774	0.000979	20.839228
305.081157	-2.995100	3.796400	-11.370000	23.022991	0.000979	20.807060
306.087577	-2.999000	3.796300	-11.384000	23.049446	0.000981	20.807015
307.083934	-2.994900	3.797600	-11.373000	23.061499	0.000981	20.818143
308.087485	-3.009700	3.793500	-11.416000	23.049496	0.000980	20.799004
309.084911	-2.984300	3.794900	-11.324000	23.059655	0.000981	20.807287
310.078564	-2.992400	3.795300	-11.356000	23.070593	0.000982	20.802599
311.083362	-2.978100	3.796200	-11.305000	23.073703	0.000981	20.803346
312.079537	-3.002200	3.794200	-11.390000	23.071938	0.000985	20.814379
313.085561	-2.987400	3.795400	-11.338000	23.081077	0.000982	20.808837
314.085547	-2.992800	3.795100	-11.357000	23.083542	0.000984	20.802772
315.095859	-2.994600	3.794200	-11.361000	23.086735	0.000984	20.801704
316.088105	-2.994400	3.793500	-11.358000	23.079411	0.000984	20.798633
317.086005	-3.020800	3.793700	-11.459000	23.100433	0.000985	20.788878
318.096526	-2.979600	3.793700	-11.303000	23.101684	0.000985	20.801985
319.085053	-2.978500	3.793900	-11.299000	23.107358	0.000986	20.795343
320.084373	-2.974100	3.792800	-11.278000	23.130322	0.000984	20.806500
321.084257	-2.985100	3.793800	-11.323000	23.132067	0.000985	20.782169
322.088459	-3.018700	3.790900	-11.442000	23.167958	0.000987	20.795375
323.086208	-2.997300	3.792400	-11.366000	23.161334	0.000986	20.799169
324.096076	-3.013600	3.791700	-11.426000	23.163724	0.000989	20.791607
325.091441	-3.008000	3.791200	-11.403000	23.172566	0.000988	20.788614
326.094890	-3.006200	3.790900	-11.395000	23.176401	0.000988	20.786292
327.095026	-2.999300	3.791000	-11.369000	23.180087	0.000989	20.797099
328.085384	-3.000700	3.790300	-11.372000	23.180141	0.000990	20.775341
329.089417	-3.017900	3.789500	-11.435000	23.181935	0.000990	20.791838
330.091782	-3.009200	3.790100	-11.405000	23.182182	0.000989	20.803939
331.088065	-3.006600	3.789200	-11.392000	23.206814	0.000991	20.802071
332.086731	-2.968800	3.790100	-11.250000	23.179050	0.000991	20.787525
333.102712	-3.001200	3.789800	-11.372000	23.167843	0.000992	20.786725
334.092556	-2.996500	3.788300	-11.349000	23.167522	0.000990	20.782610
335.098010	-3.002200	3.787600	-11.370000	23.178079	0.000991	20.787974
336.094910	-2.990800	3.788000	-11.328000	23.183165	0.000994	20.787855
337.090525	-2.996300	3.787900	-11.348000	23.224901	0.000993	20.801704
338.094328	-2.998300	3.786600	-11.352000	23.223712	0.000992	20.791978
339.098311	-3.006700	3.787400	-11.387000	23.199878	0.000993	20.784214
340.090950	-3.036400	3.785700	-11.494000	23.188596	0.000992	20.779547
341.088686	-2.999500	3.786400	-11.357000	23.222942	0.000995	20.778404
342.088237	-2.993500	3.786300	-11.332000	23.194002	0.000995	20.797767
343.087985	-2.990400	3.787800	-11.326000	23.187505	0.000996	20.789834
344.090017	-2.991200	3.787000	-11.327000	23.194948	0.000995	20.776430
345.103432	-3.003600	3.785400	-11.369000	23.201828	0.000994	20.765779
346.089178	-2.976000	3.786000	-11.266000	23.173368	0.000997	20.811228
347.093562	-3.016500	3.784600	-11.416000	23.189229	0.000996	20.803415
348.087840	-3.006300	3.785000	-11.378000	23.207958	0.000996	20.792786
349.090453	-3.002100	3.784800	-11.360000	23.226810	0.000997	20.787022
350.115573	-3.011700	3.784200	-11.396000	23.243246	0.000997	20.784527
351.114225	-3.017000	3.784800	-11.418000	23.245637	0.000999	20.785026
352.091824	-2.997900	3.784200	-11.343000	23.279105	0.000997	20.785377
353.098120	-3.004400	3.783200	-11.365000	23.278661	0.000997	20.789199
354.094557	-2.991100	3.785600	-11.321000	23.274382	0.000997	20.772583
355.096396	-2.994400	3.784000	-11.329000	23.261509	0.001000	20.784812
356.094990	-2.998300	3.782700	-11.341000	23.251170	0.001000	20.788201
357.091536	-2.982000	3.782500	-11.277000	23.258617	0.001002	20.780491
358.096428	-3.023000	3.781600	-11.431000	23.283248	0.001001	20.779097
359.096855	-2.984000	3.781700	-11.284000	23.283997	0.001002	20.760881
360.092026	-3.007800	3.781300	-11.372000	23.288403	0.001002	20.789479
361.094439	-3.008200	3.780500	-11.370000	23.300757	0.001003	20.770092
362.104105	-3.013800	3.779200	-11.388000	23.294311	0.001002	20.771218
363.093753	-3.003500	3.779600	-11.351000	23.294084	0.001003	20.782845
364.096389	-3.015500	3.780800	-11.399000	23.295652	0.001006	20.773984
365.100338	-2.991800	3.781900	-11.314000	23.272424	0.001002	20.752127
366.097692	-2.983600	3.778900	-11.274000	23.295380	0.001003	20.772290
367.100245	-3.018800	3.778200	-11.405000	23.272918	0.001003	20.773486
368.095240	-2.988400	3.779200	-11.293000	23.315926	0.001006	20.760164
369.099745	-2.966300	3.779800	-11.211000	23.294434	0.001005	20.763755
370.098345	-2.991000	3.779400	-11.304000	23.291497	0.001006	20.777407
371.098057	-2.985800	3.780300	-11.285000	23.306834	0.001006	20.763854
372.098499	-2.990400	3.778700	-11.299000	23.323446	0.001006	20.777184
373.099547	-3.021000	3.776500	-11.407000	23.320307	0.001005	20.745588
374.096410	-3.001000	3.776500	-11.332000	23.320159	0.001007	20.765829
375.100177	-3.034000	3.776000	-11.455000	23.310746	0.001008	20.756869
376.108801	-2.984300	3.776400	-11.269000	23.329744	0.001007	20.787290
377.096925	-2.995100	3.777100	-11.311000	23.334722	0.001009	20.771416
378.121356	-2.988200	3.775100	-11.280000	23.341024	0.001008	20.750231
379.097383	-3.003400	3.775800	-11.340000	23.329152	0.001009	20.763936
380.105016	-3.005500	3.776000	-11.347000	23.370656	0.001009	20.745790
381.098941	-2.998900	3.775900	-11.322000	23.353925	0.001010	20.766954
382.099933	-2.984600	3.775500	-11.267000	23.364305	0.001008	20.763606
383.106197	-3.027600	3.773500	-11.423000	23.372051	0.001010	20.759042
384.101882	-2.984600	3.773900	-11.262000	23.385795	0.001010	20.769024
385.102322	-2.994400	3.774500	-11.301000	23.380340	0.001009	20.746013
386.096589	-3.026500	3.772000	-11.415000	23.389653	0.001010	20.760563
387.102921	-2.976200	3.772900	-11.228000	23.403372	0.001010	20.755348
388.097476	-2.993900	3.774000	-11.298000	23.416067	0.001010	20.758114
389.103110	-3.025200	3.771300	-11.407000	23.415820	0.001010	20.756444
390.100214	-2.981100	3.773200	-11.247000	23.442583	0.001011	20.744862
391.104662	-2.995300	3.772300	-11.298000	23.466683	0.001011	20.754795
392.098710	-3.009400	3.772500	-11.352000	23.478357	0.001011	20.768393
393.104093	-3.023200	3.771100	-11.399000	23.471315	0.001010	20.773663
394.104299	-3.020100	3.770100	-11.385000	23.479332	0.001012	20.752775
395.105015	-2.985000	3.772000	-11.259000	23.469842	0.001012	20.748004
396.110545	-3.008000	3.769800	-11.338000	23.495411	0.001011	20.748029
397.106561	-3.003700	3.770000	-11.324000	23.508980	0.001013	20.752148
398.102211	-2.990700	3.771400	-11.278000	23.503551	0.001012	20.741489
399.114686	-2.989900	3.769800	-11.271000	23.543708	0.001013	20.738595
400.107569	-3.002300	3.769500	-11.316000	23.544979	0.001012	20.756465
401.117742	-2.998800	3.770200	-11.304000	23.526955	0.001012	20.763528
402.108895	-2.977900	3.770500	-11.228000	23.534071	0.001014	20.753591
403.109906	-2.993500	3.769600	-11.284000	23.533100	0.001017	20.754515
404.107325	-2.995200	3.769900	-11.291000	23.556631	0.001014	20.762456
405.107955	-2.991100	3.768900	-11.272000	23.535745	0.001015	20.740096
406.105536	-2.981200	3.769800	-11.236000	23.549433	0.001016	20.735799
407.106033	-2.990600	3.768500	-11.268000	23.580005	0.001014	20.763128
408.104998	-3.009200	3.767800	-11.337000	23.584785	0.001016	20.755117
409.105542	-3.021400	3.766200	-11.377000	23.573063	0.001016	20.748107
410.110530	-2.985800	3.768500	-11.249000	23.583962	0.001017	20.734851
411.107874	-2.996100	3.767500	-11.287000	23.556849	0.001016	20.738966
412.113060	-3.018300	3.766700	-11.368000	23.552000	0.001017	20.759236
413.105342	-3.002300	3.766500	-11.307000	23.548413	0.001017	20.751373
414.116814	-3.002000	3.765700	-11.302000	23.554418	0.001015	20.740323
415.110144	-2.994900	3.765800	-11.277000	23.559518	0.001014	20.738323
416.105797	-3.011400	3.764900	-11.337000	23.559395	0.001017	20.746260
417.108309	-2.993400	3.765500	-11.270000	23.594047	0.001017	20.742590
418.105274	-3.006500	3.765300	-11.320000	23.572561	0.001017	20.749027
419.104332	-3.003500	3.764100	-11.303000	23.572569	0.001018	20.731965
420.114352	-2.997500	3.765000	-11.284000	23.571944	0.001019	20.732286
421.106181	-3.010500	3.762800	-11.327000	23.571372	0.001019	20.731239
422.122303	-2.996300	3.763100	-11.274000	23.578245	0.001017	20.733861
423.106399	-2.992700	3.763400	-11.262000	23.575580	0.001018	20.730715
424.115592	-3.012700	3.761900	-11.333000	23.578590	0.001018	20.743691
425.108572	-2.984500	3.763200	-11.230000	23.555442	0.001019	20.745617
426.118196	-2.975000	3.762500	-11.192000	23.542075	0.001019	20.737906
427.111341	-2.998800	3.761500	-11.279000	23.551111	0.001018	20.729895
428.118752	-3.014300	3.761100	-11.336000	23.522628	0.001018	20.758716
429.106433	-3.009200	3.759700	-11.312000	23.503514	0.001020	20.733865
430.107094	-2.989900	3.761400	-11.246000	23.530028	0.001019	20.733890
431.108757	-2.994600	3.760600	-11.260000	23.522937	0.001021	20.744800
432.108411	-2.982400	3.761700	-11.218000	23.577579	0.001021	20.727503
433.124877	-2.991700	3.760400	-11.249000	23.592143	0.001022	20.732146
434.119782	-3.006300	3.758700	-11.298000	23.589280	0.001019	20.711257
435.113747	-3.012500	3.758600	-11.322000	23.599562	0.001022	20.722988
436.112045	-3.013600	3.757300	-11.322000	23.610042	0.001021	20.739185
437.113575	-2.998300	3.758400	-11.267000	23.608948	0.001022	20.719120
438.110171	-3.009000	3.758000	-11.306000	23.616742	0.001023	20.718399
439.116646	-3.000900	3.758600	-11.279000	23.611021	0.001019	20.740166
440.122309	-3.004300	3.757500	-11.288000	23.594590	0.001022	20.739341
441.116578	-3.001500	3.757500	-11.277000	23.611198	0.001023	20.720428
442.112751	-3.003200	3.757400	-11.284000	23.610050	0.001023	20.733503
443.113477	-3.019600	3.756300	-11.341000	23.602980	0.001021	20.725941
444.118134	-2.999600	3.755900	-11.265000	23.585155	0.001025	20.730831
445.122598	-3.023000	3.756600	-11.354000	23.563426	0.001023	20.719953
446.114835	-2.993700	3.755800	-11.243000	23.563426	0.001023	20.723273
447.117723	-2.990400	3.756900	-11.234000	23.567609	0.001024	20.696170
448.115506	-3.003000	3.756400	-11.278000	23.574206	0.001026	20.737873
449.116741	-3.000500	3.754300	-11.264000	23.586734	0.001023	20.716766
450.116979	-3.004900	3.755300	-11.283000	23.587725	0.001025	20.722502
451.111312	-3.005800	3.754700	-11.284000	23.615306	0.001025	20.735927
452.115122	-3.015700	3.753900	-11.320000	23.627731	0.001025	20.730365
453.124373	-2.987600	3.755300	-11.218000	23.638614	0.001025	20.713773
454.119868	-3.003300	3.753500	-11.271000	23.662710	0.001024	20.733189
455.117954	-3.002600	3.754100	-11.271000	23.680234	0.001025	20.728947
456.127888	-2.994100	3.752800	-11.236000	23.709281	0.001025	20.717764
457.130908	-2.996500	3.751900	-11.241000	23.734700	0.001025	20.747044
458.119602	-2.994000	3.753300	-11.235000	23.724793	0.001025	20.709608
459.117101	-2.992000	3.753600	-11.228000	23.734001	0.001026	20.707934
460.121734	-2.990900	3.753000	-11.223000	23.730246	0.001025	20.716024
461.115096	-2.993300	3.750900	-11.226000	23.736645	0.001023	20.715801
462.126278	-2.999500	3.752100	-11.253000	23.746774	0.001025	20.725483
463.131324	-2.995300	3.750600	-11.233000	23.766291	0.001028	20.717076
464.123447	-3.000100	3.750100	-11.249000	23.767261	0.001026	20.715204
465.117995	-2.994500	3.750700	-11.229000	23.791281	0.001028	20.726011
466.120000	-2.994000	3.750900	-11.229000	23.755965	0.001028	20.725689
467.127650	-2.999300	3.751000	-11.248000	23.774162	0.001027	20.722597
468.128129	-2.991500	3.750400	-11.217000	23.784960	0.001027	20.727734
469.127664	-3.003400	3.749000	-11.258000	23.790541	0.001028	20.720527
470.117629	-2.982900	3.749600	-11.183000	23.816028	0.001028	20.729013
471.128664	-2.994500	3.749000	-11.225000	23.831658	0.001027	20.701060
472.118531	-3.001100	3.745900	-11.240000	23.845100	0.001026	20.720704
473.131149	-2.975600	3.749100	-11.154000	23.834791	0.001027	20.710841
474.120112	-3.020600	3.748500	-11.322000	23.821879	0.001026	20.707377
475.126820	-3.007800	3.748000	-11.273000	23.800348	0.001027	20.722300
476.120558	-3.012700	3.746000	-11.284000	23.832431	0.001027	20.708474
477.122530	-2.983700	3.746800	-11.178000	23.837160	0.001026	20.731235
478.123079	-2.994800	3.746300	-11.217000	23.839158	0.001027	20.723756
479.139202	-2.998100	3.747700	-11.234000	23.858291	0.001028	20.712594
480.128440	-2.996300	3.746800	-11.225000	23.860882	0.001027	20.733684
481.119071	-3.025100	3.745000	-11.327000	23.860335	0.001029	20.728394
482.126932	-3.013900	3.744500	-11.284000	23.872403	0.001029	20.717261
483.126965	-3.001700	3.745000	-11.239000	23.849130	0.001029	20.724745
484.129747	-3.011500	3.744400	-11.276000	23.837558	0.001029	20.711245
485.124561	-2.999100	3.743400	-11.226000	23.851971	0.001027	20.730439
486.128695	-2.968800	3.744000	-11.115000	23.829593	0.001028	20.706578
487.128336	-3.007200	3.744000	-11.257000	23.806595	0.001029	20.723821
488.127093	-3.002100	3.743200	-11.236000	23.820510	0.001030	20.720704
489.132827	-2.994700	3.742500	-11.207000	23.841366	0.001030	20.715538
490.143120	-2.991900	3.743200	-11.199000	23.849676	0.001030	20.718655
491.131163	-2.996000	3.741800	-11.209000	23.859779	0.001030	20.722147
492.134148	-3.023400	3.740800	-11.309000	23.842933	0.001030	20.730386
493.133014	-2.992300	3.741700	-11.196000	23.811373	0.001029	20.725293
494.123157	-3.005100	3.741500	-11.242000	23.823347	0.001029	20.724972
495.140988	-3.005400	3.740800	-11.242000	23.797934	0.001031	20.721302
496.126719	-3.017900	3.739600	-11.285000	23.791709	0.001029	20.728811
497.124069	-2.974700	3.740800	-11.126000	23.798358	0.001031	20.726469
498.133622	-3.015600	3.738900	-11.273000	23.816501	0.001031	20.737548
499.127302	-3.038900	3.739700	-11.363000	23.799698	0.001027	20.737296
500.129113	-2.992500	3.740100	-11.191000	23.803112	0.001031	20.738348
501.132773	-3.012700	3.739700	-11.265000	23.832081	0.001030	20.728514
502.127840	-3.024700	3.739600	-11.309000	23.853661	0.001030	20.732134
503.126857	-3.005600	3.739100	-11.237000	23.822475	0.001032	20.722201
504.133062	-3.001300	3.736900	-11.215000	23.829297	0.001030	20.733309
505.133249	-2.989200	3.737000	-11.169000	23.825362	0.001031	20.726044
506.141683	-3.003900	3.737900	-11.227000	23.827254	0.001032	20.720828
507.137420	-3.002200	3.735800	-11.215000	23.834080	0.001031	20.726724
508.136094	-3.022900	3.736900	-11.295000	23.818845	0.001031	20.749382
509.136506	-3.004800	3.736300	-11.226000	23.848686	0.001032	20.738051
510.134596	-2.980200	3.736600	-11.134000	23.853065	0.001032	20.739123
511.143929	-3.010900	3.735600	-11.247000	23.880561	0.001029	20.727339
512.138842	-3.003900	3.735500	-11.220000	23.876955	0.001032	20.745535
513.138270	-3.002800	3.734100	-11.212000	23.908735	0.001030	20.741366
514.134018	-3.015700	3.734200	-11.261000	23.910277	0.001029	20.739593
515.134493	-2.988700	3.735500	-11.163000	23.904483	0.001031	20.742319
516.143600	-2.991700	3.734300	-11.171000	23.886934	0.001032	20.726143
517.138061	-2.986900	3.734700	-11.154000	23.922448	0.001031	20.742314
518.138855	-2.998100	3.733900	-11.193000	23.930437	0.001032	20.738472
519.151037	-3.008900	3.732600	-11.230000	23.930511	0.001033	20.734278
520.131520	-3.043200	3.730800	-11.353000	23.928693	0.001031	20.736723
521.141473	-2.965100	3.735100	-11.075000	23.954424	0.001031	20.744508
522.142792	-2.977100	3.733600	-11.114000	23.946361	0.001033	20.750173
523.134339	-3.000500	3.732700	-11.199000	23.929359	0.001033	20.757306
524.151748	-3.002400	3.732700	-11.205000	23.959222	0.001031	20.742207
525.132805	-2.988200	3.731300	-11.148000	23.940008	0.001032	20.776520
526.138947	-2.975700	3.732000	-11.104000	23.954045	0.001031	20.736542
527.148513	-2.987400	3.732200	-11.149000	23.990375	0.001032	20.746421
528.144541	-3.002800	3.730700	-11.201000	23.974147	0.001032	20.747217
529.156612	-2.981600	3.731200	-11.124000	24.023344	0.001032	20.750561
530.140566	-2.987800	3.730700	-11.145000	24.046560	0.001030	20.741601
531.135459	-3.002800	3.729400	-11.198000	24.045018	0.001031	20.744796
532.152038	-2.979400	3.729900	-11.112000	24.063132	0.001029	20.743997
533.147340	-3.015800	3.729000	-11.245000	24.053479	0.001031	20.775568
534.145959	-3.018800	3.726700	-11.249000	24.065718	0.001030	20.762238
535.154662	-3.014800	3.727700	-11.237000	24.080049	0.001030	20.751480
536.145566	-3.004800	3.728100	-11.201000	24.070767	0.001030	20.745489
537.152276	-3.005900	3.728100	-11.205000	24.051806	0.001030	20.771519
538.148893	-2.993000	3.727100	-11.154000	24.027669	0.001033	20.735931
539.143064	-3.007000	3.728200	-11.210000	24.040155	0.001031	20.747031
540.142319	-2.991800	3.726400	-11.147000	24.030275	0.001031	20.748029
541.169355	-3.017800	3.725900	-11.243000	24.019277	0.001031	20.750750
542.158758	-3.002500	3.725900	-11.186000	24.009645	0.001030	20.773333
543.141061	-2.978800	3.727000	-11.101000	23.980227	0.001032	20.759005
544.160678	-2.990400	3.726700	-11.143000	24.018056	0.001032	20.756638
545.148978	-3.023700	3.725400	-11.263000	24.023302	0.001034	20.769012
546.149258	-3.013700	3.724600	-11.224000	23.986098	0.001031	20.742607
547.152668	-3.006600	3.725200	-11.197000	23.992747	0.001032	20.748326
548.148282	-2.998200	3.724300	-11.165000	24.031513	0.001032	20.777246
549.153022	-3.002400	3.724500	-11.181000	24.046190	0.001032	20.757826
550.141136	-3.004100	3.723500	-11.185000	24.073340	0.001033	20.760873
551.154761	-2.990500	3.723500	-11.134000	24.084884	0.001031	20.760122
552.151811	-2.993800	3.724000	-11.147000	24.101110	0.001031	20.767387
553.149718	-2.981100	3.722600	-11.096000	24.086524	0.001030	20.760345
554.156000	-3.013300	3.722100	-11.215000	24.114093	0.001033	20.788469
555.146923	-2.972700	3.722100	-11.064000	24.108938	0.001032	20.778083
556.144822	-2.979700	3.722800	-11.092000	24.094385	0.001033	20.763487
557.144766	-2.998400	3.722000	-11.159000	24.139938	0.001031	20.775984
558.155337	-2.996700	3.720600	-11.148000	24.134216	0.001031	20.785892
559.143226	-2.994800	3.720400	-11.141000	24.161438	0.001032	20.779530
560.161481	-3.004200	3.720700	-11.176000	24.172853	0.001032	20.783393
561.153656	-2.992900	3.721300	-11.137000	24.163699	0.001032	20.774685
562.156192	-2.992700	3.721700	-11.137000	24.171855	0.001032	20.767692
563.162650	-3.014800	3.720400	-11.215000	24.175213	0.001032	20.767742
564.155606	-3.004600	3.720000	-11.176000	24.175460	0.001029	20.753290
565.153322	-3.012100	3.719900	-11.204000	24.198471	0.001031	20.772104
566.144732	-3.002100	3.717800	-11.160000	24.199943	0.001032	20.788753
567.156847	-2.979400	3.718300	-11.076000	24.214819	0.001030	20.786131
568.149275	-2.988600	3.719800	-11.116000	24.213278	0.001031	20.785533
569.160799	-2.988900	3.718600	-11.112000	24.222379	0.001030	20.786601
570.156682	-2.996800	3.718400	-11.142000	24.222531	0.001031	20.783435
571.151772	-2.991700	3.716900	-11.118000	24.195060	0.001031	20.797606
572.147858	-3.012600	3.717400	-11.198000	24.192124	0.001030	20.793714
573.154037	-2.996300	3.716500	-11.135000	24.185029	0.001029	20.798451
574.160478	-3.002100	3.717100	-11.158000	24.189531	0.001029	20.765507
575.154956	-3.013200	3.715500	-11.194000	24.234616	0.001030	20.797453
576.159299	-3.007800	3.715700	-11.175000	24.210236	0.001029	20.785801
577.163024	-2.999600	3.715100	-11.143000	24.210758	0.001029	20.780635
578.155100	-2.991100	3.714300	-11.108000	24.208144	0.001029	20.801246
579.155162	-3.027100	3.713200	-11.239000	24.217372	0.001031	20.791062
580.154468	-2.986800	3.714600	-11.094000	24.233124	0.001029	20.795008
581.160833	-3.009100	3.713300	-11.172000	24.271211	0.001029	20.766357
582.158700	-2.991700	3.714400	-11.110000	24.269744	0.001030	20.794283
583.151949	-2.974600	3.714500	-11.047000	24.272210	0.001030	20.788696
584.156573	-3.009200	3.713000	-11.172000	24.302709	0.001029	20.815496
585.162772	-2.983000	3.712800	-11.073000	24.324998	0.001028	20.774793
586.155561	-2.996700	3.713100	-11.126000	24.330046	0.001030	20.786968
587.162387	-2.995000	3.712900	-11.119000	24.312532	0.001028	20.788840
588.159030	-2.988400	3.712500	-11.094000	24.305199	0.001029	20.791916
589.159499	-3.000900	3.712600	-11.140000	24.298109	0.001029	20.790019
590.157136	-2.995300	3.710800	-11.114000	24.296716	0.001029	20.793363
591.158370	-3.001500	3.710900	-11.137000	24.326544	0.001028	20.779188
592.171549	-3.009800	3.710900	-11.168000	24.308956	0.001028	20.802323
593.162570	-3.012100	3.709500	-11.171000	24.337986	0.001029	20.810581
594.173244	-2.994200	3.710900	-11.110000	24.318110	0.001029	20.808660
595.167741	-3.035500	3.708100	-11.253000	24.336815	0.001027	20.799449
596.164758	-2.987300	3.709300	-11.079000	24.317707	0.001028	20.778858
597.157116	-3.004900	3.708900	-11.144000	24.339976	0.001029	20.818740
598.165855	-2.994900	3.709400	-11.107000	24.349980	0.001029	20.809336
599.166711	-3.016300	3.707600	-11.182000	24.349754	0.001027	20.811954
600.171606	-3.010200	3.708300	-11.162000	24.356572	0.001029	20.810259
601.161646	-2.998600	3.708900	-11.119000	24.343539	0.001028	20.826582
602.165725	-2.988900	3.707000	-11.079000	24.328882	0.001029	20.800026
603.161573	-3.004100	3.707800	-11.137000	24.316174	0.001026	20.799131
604.155878	-3.022100	3.707100	-11.202000	24.323934	0.001029	20.802174
605.165562	-3.004700	3.707500	-11.139000	24.332047	0.001027	20.804623
606.159665	-3.012500	3.707000	-11.166000	24.349708	0.001025	20.810960
607.161530	-3.009400	3.705600	-11.151000	24.365853	0.001026	20.803448
608.165798	-2.999600	3.705400	-11.113000	24.372022	0.001030	20.817697
609.167463	-3.006600	3.705100	-11.139000	24.379634	0.001027	20.797358
610.166220	-2.996100	3.704300	-11.098000	24.400681	0.001025	20.808515
611.163103	-2.991800	3.705200	-11.083000	24.440431	0.001026	20.800978
612.164895	-3.009500	3.705000	-11.149000	24.444187	0.001026	20.797635
613.166061	-3.003800	3.702900	-11.121000	24.473662	0.001025	20.793066
614.168579	-2.992700	3.704200	-11.084000	24.469708	0.001026	20.800480
615.161735	-2.998000	3.704800	-11.105000	24.441602	0.001026	20.814007
616.163647	-3.036300	3.702700	-11.241000	24.415061	0.001026	20.833373
617.161755	-3.016800	3.702800	-11.169000	24.385211	0.001026	20.811014
618.172490	-2.960900	3.703900	-10.965000	24.375733	0.001027	20.825213
619.164214	-3.022200	3.702700	-11.189000	24.383567	0.001025	20.815054
620.166043	-3.001500	3.701600	-11.108000	24.379214	0.001026	20.820645
621.169716	-3.023400	3.700500	-11.187000	24.378175	0.001026	20.824818
622.159689	-3.001700	3.701700	-11.110000	24.372922	0.001024	20.802005
623.160958	-3.005800	3.701600	-11.126000	24.380234	0.001027	20.817400
624.173813	-3.001200	3.700100	-11.103000	24.383049	0.001026	20.823070
625.167623	-2.984500	3.701200	-11.045000	24.405534	0.001024	20.841359
626.167720	-2.978700	3.699600	-11.019000	24.386777	0.001026	20.831076
627.165289	-2.986500	3.701400	-11.054000	24.367398	0.001024	20.824438
628.165053	-3.010500	3.699600	-11.137000	24.327473	0.001024	20.828957
629.174166	-2.980100	3.698500	-11.021000	24.347600	0.001023	20.816432
630.179315	-2.986800	3.699200	-11.047000	24.370185	0.001023	20.821544
631.177547	-2.993400	3.698600	-11.071000	24.377007	0.001024	20.818431
632.181930	-2.982100	3.700300	-11.033000	24.411880	0.001023	20.836345
633.175712	-3.030800	3.697300	-11.204000	24.437928	0.001025	20.835925
634.165099	-3.011200	3.697800	-11.134000	24.448798	0.001025	20.816959
635.167662	-2.975400	3.698700	-11.005000	24.474817	0.001023	20.827889
636.181106	-3.007000	3.698200	-11.119000	24.465968	0.001024	20.836556
637.177802	-2.998100	3.697800	-11.084000	24.469001	0.001023	20.825374
638.172677	-3.035400	3.695300	-11.215000	24.479374	0.001021	20.823453
639.165034	-2.998300	3.696100	-11.081000	24.473629	0.001022	20.835706
640.174006	-2.994200	3.697300	-11.070000	24.497863	0.001022	20.835838
641.180553	-3.012100	3.695800	-11.130000	24.483258	0.001022	20.828772
642.176441	-3.046400	3.694300	-11.253000	24.476271	0.001023	20.847366
643.174549	-3.012400	3.694600	-11.129000	24.483882	0.001022	20.836510
644.184562	-3.021000	3.694900	-11.161000	24.480525	0.001023	20.830771
645.186661	-3.005300	3.694000	-11.101000	24.469137	0.001023	20.837838
646.171407	-3.008200	3.695700	-11.117000	24.496273	0.001022	20.835665
647.174179	-2.992500	3.695100	-11.056000	24.476177	0.001021	20.821668
648.168508	-2.998100	3.695600	-11.078000	24.469811	0.001020	20.846100
649.173831	-2.988600	3.693800	-11.038000	24.492496	0.001021	20.844678
650.197693	-3.007100	3.692500	-11.102000	24.475778	0.001021	20.836440
651.176893	-3.000200	3.693600	-11.081000	24.498940	0.001022	20.854462
652.179646	-3.010000	3.691800	-11.111000	24.514909	0.001021	20.842509
653.172990	-3.006200	3.692300	-11.099000	24.530328	0.001021	20.843754
654.174769	-3.009100	3.692000	-11.109000	24.506029	0.001021	20.850194
655.177374	-2.991600	3.691400	-11.042000	24.505310	0.001020	20.856585
656.178712	-2.997300	3.692000	-11.064000	24.503144	0.001019	20.841136
657.176154	-3.025800	3.690000	-11.163000	24.513319	0.001020	20.848500
658.179739	-2.995600	3.691300	-11.056000	24.525853	0.001019	20.829782
659.171820	-2.995500	3.691000	-11.055000	24.532642	0.001018	20.850817
660.170842	-2.982000	3.690300	-11.003000	24.535707	0.001018	20.870487
661.171683	-3.007500	3.689700	-11.096000	24.556595	0.001020	20.858729
662.179035	-2.999400	3.690100	-11.067000	24.560976	0.001020	20.861701
663.181600	-3.013400	3.688800	-11.114000	24.570304	0.001020	20.848302
664.184320	-3.007800	3.690000	-11.096000	24.585454	0.001018	20.868718
665.169258	-2.996000	3.688800	-11.050000	24.613635	0.001019	20.855744
666.180135	-3.031600	3.686500	-11.174000	24.645718	0.001018	20.874659
667.181412	-2.995600	3.687600	-11.045000	24.636888	0.001018	20.859636
668.181697	-2.995400	3.688100	-11.045000	24.657305	0.001018	20.871588
669.177828	-2.989100	3.686900	-11.019000	24.622987	0.001017	20.863231
670.181865	-3.017300	3.687900	-11.125000	24.614905	0.001019	20.864130
671.179529	-2.973400	3.689400	-10.968000	24.630351	0.001018	20.861137
672.176160	-2.966100	3.687700	-10.937000	24.624832	0.001015	20.861763
673.184718	-2.994000	3.687500	-11.039000	24.648903	0.001016	20.865053
674.178036	-3.015100	3.685200	-11.110000	24.630178	0.001018	20.855748
675.192346	-2.998200	3.685300	-11.047000	24.644375	0.001019	20.860984
676.178242	-2.996200	3.686000	-11.043000	24.667035	0.001015	20.873291
677.184225	-3.007500	3.683400	-11.076000	24.677554	0.001015	20.871518
678.192355	-3.013200	3.684100	-11.100000	24.684243	0.001016	20.857368
679.187150	-2.985800	3.685000	-11.002000	24.682304	0.001017	20.864431
680.193608	-2.996900	3.684700	-11.041000	24.668950	0.001018	20.870945
681.175282	-2.982000	3.684800	-10.988000	24.649252	0.001016	20.857818
682.181029	-3.005500	3.682800	-11.068000	24.602569	0.001015	20.864080
683.205084	-3.004100	3.684700	-11.068000	24.585783	0.001017	20.874738
684.189908	-2.983100	3.682100	-10.982000	24.571031	0.001015	20.868945
685.182507	-2.994400	3.682900	-11.028000	24.597967	0.001014	20.869419
686.181042	-2.980400	3.684600	-10.980000	24.603563	0.001014	20.884043
687.173377	-3.024000	3.682000	-11.133000	24.632039	0.001013	20.884641
688.179556	-2.991800	3.682500	-11.016000	24.655937	0.001016	20.871637
689.186242	-3.013800	3.681800	-11.096000	24.650464	0.001013	20.892222
690.184442	-3.003900	3.682000	-11.059000	24.679691	0.001014	20.875558
691.179669	-2.998400	3.680600	-11.035000	24.688044	0.001013	20.883466
692.185324	-2.988000	3.681300	-10.999000	24.659890	0.001013	20.892672
693.194009	-2.998800	3.681100	-11.039000	24.694610	0.001014	20.885313
694.186423	-2.994000	3.680000	-11.016000	24.685205	0.001012	20.897211
695.187549	-2.990200	3.679000	-10.999000	24.681449	0.001013	20.866892
696.181579	-3.003800	3.679500	-11.051000	24.670359	0.001015	20.855764
697.188464	-3.005500	3.677300	-11.051000	24.653496	0.001014	20.880093
698.183784	-3.007400	3.677900	-11.059000	24.664463	0.001013	20.875925
699.196364	-3.009100	3.677700	-11.064000	24.643351	0.001013	20.871811
700.184909	-2.984400	3.677000	-10.972000	24.649909	0.001012	20.876020
701.184333	-2.990000	3.679000	-11.000000	24.648738	0.001012	20.875793
702.198514	-3.011400	3.675900	-11.068000	24.658859	0.001013	20.881680
703.182774	-3.018600	3.677300	-11.098000	24.660104	0.001012	20.855905
704.184157	-3.000100	3.676900	-11.030000	24.633987	0.001012	20.883750
705.191162	-2.997800	3.676100	-11.019000	24.681909	0.001012	20.883948
706.185795	-2.966400	3.677900	-10.909000	24.681260	0.001011	20.855797
707.188866	-2.988200	3.678000	-10.989000	24.706028	0.001012	20.844142
708.184532	-3.007600	3.676000	-11.055000	24.739280	0.001010	20.879405
709.190039	-3.019300	3.674800	-11.094000	24.758845	0.001011	20.879598
710.196048	-3.022900	3.674800	-11.107000	24.753228	0.001011	20.874911
711.190469	-3.006000	3.674700	-11.044000	24.764313	0.001009	20.863276
712.189710	-3.010300	3.674100	-11.059000	24.771076	0.001011	20.869588
713.193001	-3.006800	3.674100	-11.046000	24.771573	0.001010	20.869613
714.190774	-2.997200	3.675100	-11.013000	24.768812	0.001011	20.863524
715.191229	-3.017300	3.673800	-11.084000	24.811084	0.001009	20.832453
716.185857	-2.988900	3.674800	-10.982000	24.820110	0.001009	20.853839
717.188146	-2.985700	3.672500	-10.964000	24.818421	0.001008	20.862101
718.192080	-3.013100	3.671700	-11.062000	24.809913	0.001009	20.862571
719.186473	-3.012000	3.672400	-11.060000	24.800788	0.001008	20.851518
720.187509	-2.985800	3.672900	-10.965000	24.804917	0.001006	20.870359
721.189783	-2.993600	3.672600	-10.993000	24.788401	0.001006	20.858527
722.190699	-2.996400	3.671100	-10.999000	24.815730	0.001006	20.858452
723.196684	-2.974600	3.673100	-10.925000	24.812053	0.001007	20.852392
724.191085	-2.982900	3.671900	-10.952000	24.832665	0.001005	20.846525
725.197699	-3.013500	3.670500	-11.060000	24.868673	0.001005	20.859430
726.188841	-3.002100	3.670200	-11.017000	24.838737	0.001006	20.841714
727.194155	-2.988200	3.671900	-10.971000	24.858255	0.001005	20.861775
728.189373	-2.996400	3.672000	-11.001000	24.870062	0.001005	20.848022
729.187520	-2.988600	3.670200	-10.967000	24.861463	0.001006	20.849349
730.187709	-3.006700	3.669800	-11.033000	24.867087	0.001004	20.847881
731.193624	-3.025800	3.668700	-11.099000	24.858205	0.001006	20.841338
732.196849	-3.011800	3.668100	-11.046000	24.852039	0.001006	20.840365
733.198138	-3.007000	3.667900	-11.028000	24.847861	0.001004	20.840440
734.197043	-3.019700	3.667200	-11.072000	24.811811	0.001006	20.852149
735.188481	-3.007800	3.668800	-11.034000	24.815438	0.001004	20.851048
736.192632	-2.992700	3.667500	-10.974000	24.820886	0.001004	20.851773
737.200902	-3.001900	3.667200	-11.007000	24.839632	0.001002	20.838819
738.199118	-2.996600	3.666400	-10.986000	24.827554	0.001004	20.840922
739.206348	-3.026200	3.665600	-11.091000	24.796495	0.001004	20.841520
740.192515	-3.001300	3.666400	-11.003000	24.765012	0.001003	20.852124
741.192914	-2.983300	3.666700	-10.937000	24.792017	0.001003	20.849827
742.200295	-2.991600	3.666800	-10.968000	24.746289	0.001003	20.827172
743.194122	-3.008000	3.665000	-11.023000	24.724357	0.001002	20.823655
744.194843	-3.005700	3.665400	-11.016000	24.687399	0.001004	20.836828
745.200209	-2.988400	3.665400	-10.953000	24.679066	0.001002	20.832260
746.193268	-3.016400	3.663800	-11.050000	24.695485	0.001003	20.837830
747.193941	-2.995600	3.665700	-10.981000	24.666686	0.001001	20.820785
748.193892	-3.001500	3.664100	-10.997000	24.660617	0.001001	20.840773
749.195574	-2.987000	3.664800	-10.946000	24.676609	0.000999	20.828846
750.204554	-3.009900	3.664200	-11.028000	24.697897	0.001001	20.835509
751.195911	-3.002100	3.664000	-10.997000	24.732759	0.001000	20.835880
752.193509	-3.016900	3.662100	-11.047000	24.739801	0.000999	20.814024
753.201303	-2.993500	3.663400	-10.965000	24.764666	0.000998	20.834709
754.207797	-2.991800	3.661800	-10.955000	24.757756	0.001000	20.835360
755.202772	-2.996900	3.663300	-10.977000	24.766828	0.000999	20.842567
756.197920	-2.997500	3.662200	-10.975000	24.796076	0.000998	20.818340
757.195638	-3.010700	3.662900	-11.027000	24.792025	0.000996	20.821387
758.204204	-3.020000	3.659800	-11.052000	24.809202	0.000997	20.835306
759.205684	-2.996800	3.662400	-10.973000	24.807464	0.000995	20.809855
760.203529	-3.004200	3.661400	-10.998000	24.845211	0.000996	20.831616
761.205128	-3.016300	3.658500	-11.034000	24.834941	0.000997	20.814671
762.204966	-3.007100	3.660100	-11.006000	24.864183	0.000996	20.833113
763.208020	-3.011400	3.659200	-11.018000	24.858316	0.000995	20.815846
764.198315	-3.014500	3.658500	-11.026000	24.847549	0.000996	20.837281
765.216758	-2.993500	3.660800	-10.957000	24.851554	0.000997	20.824706
766.202995	-3.038700	3.658600	-11.116000	24.846579	0.000997	20.825877
767.205753	-2.996300	3.658700	-10.962000	24.841185	0.000994	20.818093
768.201384	-3.005100	3.658200	-10.992000	24.849665	0.000994	20.831818
769.208186	-2.973400	3.657900	-10.874000	24.879408	0.000994	20.822315
770.223841	-3.015100	3.658000	-11.027000	24.870452	0.000994	20.797680
771.202511	-2.997100	3.658100	-10.962000	24.867346	0.000994	20.838184
772.213500	-3.003200	3.656500	-10.980000	24.870033	0.000994	20.827605
773.211977	-2.976800	3.658600	-10.889000	24.888758	0.000994	20.821742
774.210458	-3.016200	3.656000	-11.025000	24.892311	0.000994	20.812981
775.210014	-3.016700	3.656700	-11.030000	24.926103	0.000993	20.800430
776.209734	-2.987100	3.655600	-10.919000	24.914667	0.000992	20.797012
777.223174	-2.966100	3.657400	-10.846000	24.939133	0.000992	20.816827
778.208593	-2.982200	3.655400	-10.899000	24.917879	0.000992	20.820151
779.207325	-3.012600	3.654900	-11.010000	24.943562	0.000991	20.809418
780.213757	-2.975100	3.655300	-10.874000	24.938468	0.000992	20.812840
781.211923	-3.018800	3.655400	-11.033000	24.925812	0.000989	20.814362
782.207244	-2.982300	3.654900	-10.899000	24.938045	0.000990	20.811942
783.214563	-2.990900	3.654900	-10.931000	24.912835	0.000989	20.787587
784.213821	-3.016300	3.653100	-11.017000	24.904956	0.000990	20.814766
785.209786	-3.026200	3.652600	-11.053000	24.915423	0.000988	20.812469
786.208014	-3.008300	3.652500	-10.987000	24.951178	0.000987	20.804735
787.203574	-2.997500	3.652400	-10.947000	24.958264	0.000989	20.817537
788.222709	-2.983700	3.652500	-10.897000	24.937133	0.000988	20.794905
789.206934	-3.031200	3.650700	-11.064000	24.912868	0.000988	20.818440
790.215094	-2.975300	3.652000	-10.865000	24.901653	0.000987	20.809555
791.221456	-2.992200	3.650900	-10.923000	24.888877	0.000987	20.820913
792.216171	-3.008000	3.652000	-10.984000	24.899767	0.000987	20.799602
793.220866	-3.000900	3.651800	-10.958000	24.907203	0.000987	20.806116
794.221325	-2.995800	3.650700	-10.935000	24.900096	0.000987	20.823639
795.214307	-3.010300	3.650600	-10.986000	24.851411	0.000988	20.794691
796.212938	-2.973000	3.651300	-10.854000	24.840746	0.000988	20.814333
797.224677	-3.000500	3.651300	-10.954000	24.826942	0.000986	20.792893
798.234853	-2.986900	3.650700	-10.903000	24.842212	0.000986	20.790675
799.215800	-2.995900	3.651600	-10.939000	24.852458	0.000986	20.805700
800.215353	-3.002100	3.650100	-10.957000	24.881782	0.000984	20.782025
801.224944	-3.025400	3.648600	-11.037000	24.923746	0.000985	20.810866
802.215600	-2.993400	3.648600	-10.921000	24.927656	0.000985	20.791083
803.219185	-2.986600	3.649200	-10.897000	24.934714	0.000984	20.811917
804.221382	-3.006700	3.647400	-10.966000	24.938600	0.000983	20.788791
805.209933	-3.015000	3.647500	-10.996000	24.983054	0.000987	20.794530
806.220243	-3.004100	3.646900	-10.955000	24.992477	0.000983	20.790712
807.213698	-3.016800	3.646500	-10.999000	24.985544	0.000983	20.782330
808.221837	-3.000900	3.646900	-10.943000	24.981366	0.000982	20.790939
809.219520	-2.986700	3.647300	-10.892000	24.988657	0.000981	20.786404
810.230165	-2.989500	3.646000	-10.898000	24.983132	0.000984	20.796031
811.211714	-3.013700	3.646500	-10.988000	24.968291	0.000981	20.799152
812.228669	-3.007700	3.645700	-10.964000	25.006234	0.000981	20.796934
813.228410	-2.984700	3.645800	-10.881000	25.004451	0.000981	20.800835
814.225302	-2.999600	3.644800	-10.932000	25.031997	0.000980	20.787233
815.226890	-2.979500	3.644900	-10.859000	25.039805	0.000982	20.788433
816.216477	-2.986900	3.644900	-10.886000	25.056313	0.000982	20.790779
817.223865	-2.978800	3.646800	-10.861000	25.042619	0.000980	20.785093
818.241796	-2.991000	3.644300	-10.899000	25.047839	0.000983	20.796972
819.223822	-3.002100	3.643200	-10.936000	25.064524	0.000978	20.779106
820.221440	-2.989600	3.643300	-10.891000	25.053931	0.000979	20.798345
821.220041	-3.011100	3.644300	-10.972000	25.054904	0.000979	20.803589
822.217769	-2.997300	3.644000	-10.921000	25.070098	0.000979	20.769054
823.215538	-2.999800	3.643000	-10.927000	25.085040	0.000979	20.791167
824.218808	-2.998200	3.642000	-10.918000	25.072911	0.000978	20.773775
825.224594	-3.017400	3.642600	-10.990000	25.036244	0.000977	20.782488
826.228265	-2.998700	3.642600	-10.923000	25.029681	0.000977	20.782537
827.224347	-3.005100	3.641300	-10.941000	25.009767	0.000977	20.782463
828.226005	-2.993500	3.643000	-10.904000	24.964250	0.000976	20.781346
829.226093	-2.998800	3.641300	-10.918000	24.946126	0.000977	20.796345
830.225008	-3.006500	3.642100	-10.949000	24.930512	0.000977	20.785889
831.229065	-3.014300	3.639200	-10.969000	24.950900	0.000975	20.785489
832.220761	-2.971500	3.641500	-10.820000	24.969824	0.000975	20.781725
833.217545	-2.997800	3.639600	-10.910000	24.973406	0.000975	20.778208
834.227229	-2.992000	3.639900	-10.889000	24.992524	0.000973	20.783646
835.227695	-2.977700	3.639700	-10.836000	25.006399	0.000975	20.770547
836.226109	-3.014200	3.640400	-10.971000	25.028625	0.000975	20.783374
837.225369	-3.003800	3.638200	-10.926000	25.023183	0.000974	20.792610
838.223606	-2.999000	3.638700	-10.912000	25.028728	0.000973	20.766882
839.225409	-2.999400	3.639300	-10.914000	25.060327	0.000971	20.765884
840.231111	-2.994800	3.639100	-10.898000	25.077303	0.000974	20.782451
841.216321	-2.999400	3.636900	-10.907000	25.042225	0.000972	20.760990
842.231483	-3.000800	3.637000	-10.912000	25.067708	0.000973	20.761913
843.232877	-2.985300	3.637200	-10.857000	25.039740	0.000973	20.768927
844.223742	-2.992800	3.636700	-10.883000	25.051603	0.000971	20.749540
845.232263	-3.006000	3.636300	-10.930000	25.058758	0.000971	20.776163
846.224088	-2.997000	3.636200	-10.896000	25.059136	0.000970	20.765637
847.232439	-2.994200	3.636000	-10.886000	25.038229	0.000971	20.761720
848.219281	-2.984600	3.636400	-10.852000	25.025422	0.000970	20.758347
849.221118	-3.001800	3.636100	-10.914000	24.976294	0.000970	20.776365
850.226614	-3.012400	3.634200	-10.946000	24.973760	0.000970	20.763390
851.224733	-3.015100	3.633300	-10.954000	24.948768	0.000968	20.769125
852.225130	-3.001700	3.634600	-10.908000	24.963790	0.000968	20.758124
853.231639	-2.982100	3.634200	-10.836000	24.979975	0.000967	20.776266
854.226324	-2.996700	3.634800	-10.892000	24.958791	0.000970	20.765909
855.228258	-2.981700	3.634100	-10.834000	24.946804	0.000969	20.745342
856.229451	-2.998700	3.632400	-10.890000	24.938276	0.000969	20.774716
857.229681	-3.020700	3.631700	-10.969000	24.910429	0.000968	20.762886
858.226063	-2.975200	3.634900	-10.814000	24.926511	0.000968	20.765278
859.225066	-3.010700	3.632500	-10.935000	24.931860	0.000967	20.764956
860.226192	-3.000600	3.633300	-10.901000	24.976738	0.000968	20.766379
861.230036	-2.998400	3.632300	-10.889000	24.959510	0.000969	20.782278
862.226752	-2.997300	3.632800	-10.888000	24.987652	0.000966	20.760738
863.232475	-2.992800	3.631900	-10.868000	25.006621	0.000968	20.745639
864.235926	-2.990800	3.630600	-10.858000	25.040258	0.000965	20.755695
865.226564	-2.993100	3.631300	-10.867000	25.050305	0.000965	20.766729
866.229637	-2.987700	3.630900	-10.847000	25.015321	0.000965	20.774761
867.231073	-2.992400	3.631300	-10.866000	25.000731	0.000963	20.754426
868.239439	-3.002300	3.630700	-10.898000	24.988872	0.000963	20.776188
869.231175	-3.005000	3.629600	-10.906000	24.949359	0.000964	20.748855
870.233881	-2.987100	3.629500	-10.841000	24.983080	0.000964	20.767529
871.236820	-3.001700	3.630200	-10.895000	24.996603	0.000962	20.741747
872.232763	-2.976500	3.629900	-10.803000	25.003393	0.000962	20.767055
873.240448	-3.017700	3.627400	-10.945000	25.000111	0.000964	20.754277
874.235141	-3.002300	3.628300	-10.891000	25.003023	0.000962	20.768107
875.235088	-2.982700	3.627600	-10.819000	25.037502	0.000961	20.741075
876.236385	-2.988200	3.627700	-10.840000	25.074222	0.000962	20.737632
877.241843	-2.996500	3.627300	-10.868000	25.099655	0.000962	20.735661
878.239578	-2.992600	3.627100	-10.854000	25.129362	0.000962	20.752207
879.235631	-2.985900	3.627700	-10.830000	25.138016	0.000960	20.760895
880.238380	-2.988300	3.627100	-10.838000	25.156333	0.000961	20.762689
881.235128	-3.025400	3.625500	-10.968000	25.160013	0.000961	20.777289
882.238826	-3.000600	3.626700	-10.882000	25.169862	0.000961	20.743079
883.239541	-3.002000	3.625400	-10.883000	25.193198	0.000959	20.739005
884.238575	-2.986500	3.626000	-10.828000	25.197777	0.000958	20.736016
885.245445	-3.008500	3.625800	-10.908000	25.165061	0.000958	20.751061
886.246893	-2.995800	3.623500	-10.854000	25.179283	0.000957	20.745899
887.240635	-2.995500	3.625000	-10.858000	25.193329	0.000957	20.754785
888.238982	-3.001500	3.624100	-10.877000	25.153282	0.000958	20.725959
889.238528	-2.994100	3.623600	-10.848000	25.123801	0.000957	20.730503
890.240697	-3.002000	3.624600	-10.880000	25.086861	0.000957	20.750793
891.239023	-2.992200	3.623600	-10.841000	25.056183	0.000957	20.752715
892.241017	-3.002700	3.624500	-10.882000	25.025750	0.000957	20.742081
893.242492	-3.017700	3.622800	-10.932000	25.015515	0.000956	20.740341
894.237422	-2.998700	3.622400	-10.862000	24.981897	0.000955	20.727934
895.246505	-2.993500	3.622100	-10.841000	25.021302	0.000954	20.733822
896.242462	-3.009600	3.622500	-10.902000	25.030852	0.000956	20.745780
897.243320	-3.003100	3.622000	-10.876000	25.033091	0.000955	20.739492
898.241032	-3.007800	3.621400	-10.891000	25.033193	0.000954	20.718257
899.246526	-3.021200	3.620600	-10.938000	25.064866	0.000955	20.733455
900.246531	-3.007900	3.620100	-10.888000	25.095667	0.000953	20.716958
901.245814	-3.005000	3.620900	-10.878000	25.125173	0.000952	20.734251
902.242362	-2.988000	3.621500	-10.820000	25.129699	0.000953	20.738321
903.242338	-3.000200	3.620200	-10.860000	25.139992	0.000951	20.747231
904.249495	-3.016000	3.618200	-10.911000	25.136110	0.000951	20.725316
905.242030	-2.990200	3.619400	-10.820000	25.131864	0.000952	20.743339
906.247086	-3.008100	3.619200	-10.885000	25.089551	0.000951	20.739743
907.246121	-2.994500	3.618700	-10.835000	25.132981	0.000951	20.719803
908.246570	-2.990400	3.619100	-10.821000	25.151750	0.000949	20.723947
909.245399	-3.030400	3.616100	-10.957000	25.159139	0.000950	20.762660
910.246384	-3.025700	3.618000	-10.944000	25.189017	0.000948	20.715841
911.246078	-2.988200	3.618200	-10.811000	25.186681	0.000948	20.740049
912.245284	-3.019500	3.616100	-10.917000	25.159882	0.000947	20.721679
913.252158	-3.023700	3.615900	-10.932000	25.165057	0.000950	20.729720
914.247515	-2.970000	3.617800	-10.743000	25.148251	0.000950	20.729918
915.251990	-3.016400	3.616600	-10.908000	25.140123	0.000948	20.742147
916.250912	-3.017200	3.616200	-10.910000	25.130406	0.000949	20.725753
917.257835	-3.009100	3.614100	-10.873000	25.143154	0.000948	20.733336
918.253438	-2.992100	3.615500	-10.817000	25.176467	0.000949	20.727897
919.249700	-2.993800	3.615300	-10.821000	25.200328	0.000945	20.707755
920.251667	-3.004000	3.615000	-10.858000	25.190833	0.000947	20.720982
921.253353	-3.003200	3.616200	-10.859000	25.198562	0.000945	20.727320
922.255147	-3.021900	3.612800	-10.917000	25.199806	0.000945	20.718612
923.255532	-2.996700	3.615400	-10.833000	25.187444	0.000943	20.724693
924.254297	-3.021600	3.613100	-10.916000	25.155706	0.000945	20.740246
925.253007	-3.002300	3.613900	-10.848000	25.158235	0.000944	20.734251
926.258174	-2.991900	3.613600	-10.811000	25.115948	0.000943	20.738267
927.251874	-3.000400	3.613000	-10.839000	25.111652	0.000943	20.733006
928.259107	-3.007400	3.612700	-10.864000	25.109636	0.000942	20.703953
929.256598	-2.973800	3.614400	-10.747000	25.108494	0.000942	20.717980
930.256787	-2.980800	3.611800	-10.765000	25.132406	0.000942	20.710690
931.259406	-3.015000	3.610400	-10.884000	25.184783	0.000943	20.731979
932.253907	-3.012800	3.611500	-10.879000	25.186146	0.000942	20.725761
933.262486	-2.985300	3.610600	-10.776000	25.226016	0.000940	20.717423
934.259108	-3.009700	3.610600	-10.866000	25.234747	0.000940	20.731406
935.256747	-2.974000	3.612000	-10.741000	25.214907	0.000941	20.710063
936.260197	-2.993000	3.609800	-10.802000	25.261013	0.000941	20.720318
937.257172	-2.989500	3.609700	-10.791000	25.271456	0.000938	20.747400
938.257437	-2.992400	3.610000	-10.800000	25.240208	0.000939	20.712232
939.265136	-3.001100	3.609500	-10.831000	25.276947	0.000938	20.722565
940.259705	-2.988500	3.608700	-10.783000	25.274388	0.000935	20.723790
941.261749	-2.975900	3.610800	-10.744000	25.305409	0.000937	20.713684
942.261193	-3.004800	3.607800	-10.840000	25.315897	0.000936	20.717102
943.264154	-3.029800	3.606600	-10.926000	25.320771	0.000938	20.716780
944.266465	-3.001700	3.607100	-10.826000	25.323827	0.000937	20.706571
945.260653	-3.009200	3.607300	-10.853000	25.290301	0.000935	20.731233
946.260545	-3.000700	3.607300	-10.824000	25.294198	0.000935	20.717601
947.259472	-3.009600	3.605100	-10.849000	25.289731	0.000934	20.708373
948.264010	-2.982700	3.607300	-10.758000	25.271830	0.000933	20.718376
949.258544	-2.983300	3.607300	-10.760000	25.264800	0.000932	20.722697
950.261417	-3.009300	3.605900	-10.850000	25.264574	0.000932	20.722945
951.260486	-3.001800	3.605200	-10.822000	25.272306	0.000932	20.703681
952.266782	-3.013900	3.604300	-10.861000	25.282380	0.000933	20.723753
953.268526	-2.996600	3.604500	-10.800000	25.274668	0.000932	20.719803
954.263800	-2.999500	3.605100	-10.812000	25.271366	0.000932	20.720756
955.270261	-3.003400	3.605600	-10.828000	25.269354	0.000930	20.717787
956.263307	-2.987300	3.605800	-10.771000	25.281111	0.000930	20.711573
957.266371	-3.012700	3.603100	-10.853000	25.306490	0.000931	20.703388
958.265402	-3.006000	3.602400	-10.827000	25.317647	0.000931	20.701788
959.265716	-3.008000	3.603200	-10.836000	25.332808	0.000929	20.707528
960.265876	-3.001900	3.602800	-10.815000	25.315511	0.000929	20.725250
961.269412	-2.996300	3.601700	-10.791000	25.315113	0.000929	20.701615
962.266063	-2.991000	3.601200	-10.770000	25.346860	0.000928	20.731596
963.267485	-3.013300	3.600900	-10.850000	25.378076	0.000927	20.716472
964.267733	-2.988900	3.601900	-10.764000	25.388661	0.000928	20.717144
965.267569	-3.002100	3.600700	-10.809000	25.399247	0.000927	20.722558
966.269616	-2.994300	3.599400	-10.776000	25.389084	0.000927	20.721836
967.268075	-3.002200	3.600200	-10.807000	25.391150	0.000926	20.715849
968.274187	-3.022900	3.599400	-10.880000	25.389413	0.000926	20.700354
969.269715	-3.029100	3.598300	-10.898000	25.373452	0.000926	20.726054
970.270519	-3.009500	3.601000	-10.835000	25.362649	0.000924	20.720896
971.268887	-3.016500	3.599500	-10.857000	25.348276	0.000924	20.725906
972.269469	-2.997700	3.599500	-10.788000	25.311323	0.000924	20.711087
973.269050	-2.975600	3.599900	-10.710000	25.317487	0.000922	20.744778
974.279818	-2.984300	3.599700	-10.741000	25.290446	0.000923	20.725213
975.270770	-3.011200	3.598300	-10.834000	25.289280	0.000921	20.722620
976.277473	-3.000300	3.598900	-10.797000	25.289103	0.000922	20.716278
977.272059	-2.982400	3.598500	-10.731000	25.282491	0.000923	20.732875
978.269681	-3.014100	3.597500	-10.842000	25.308145	0.000921	20.729234
979.272088	-2.990300	3.597800	-10.758000	25.323630	0.000923	20.725341
980.271229	-2.978400	3.598300	-10.715000	25.361729	0.000920	20.727560
981.275155	-2.995900	3.595900	-10.771000	25.381936	0.000920	20.731254
982.273608	-2.991800	3.596800	-10.759000	25.388473	0.000920	20.747776
983.279158	-2.992900	3.597500	-10.765000	25.423937	0.000920	20.737394
984.277222	-3.028000	3.594500	-10.883000	25.447448	0.000919	20.714060
985.279459	-2.980400	3.596300	-10.717000	25.450133	0.000918	20.725766
986.274835	-2.995600	3.595300	-10.769000	25.435097	0.000919	20.716831
987.273779	-2.990100	3.594400	-10.746000	25.409028	0.000918	20.721000
988.276685	-3.026800	3.592300	-10.872000	25.363790	0.000918	20.725836
989.276502	-3.011500	3.595100	-10.826000	25.372861	0.000916	20.728780
990.275551	-3.015400	3.594400	-10.837000	25.383274	0.000916	20.716002
991.273637	-2.990600	3.592800	-10.743000	25.396451	0.000917	20.729234
992.280559	-2.995900	3.593800	-10.766000	25.405222	0.000916	20.710538
993.283767	-2.989300	3.592500	-10.739000	25.388271	0.000917	20.724813
994.279346	-3.016600	3.592500	-10.835000	25.365856	0.000915	20.721746
995.275241	-2.999100	3.592200	-10.771000	25.359708	0.000914	20.723634
996.275438	-2.980700	3.591900	-10.704000	25.421075	0.000913	20.734520
997.275798	-2.997700	3.591500	-10.765000	25.405439	0.000914	20.728776
998.278807	-3.004300	3.591400	-10.789000	25.400196	0.000913	20.737736
999.276456	-2.983400	3.591400	-10.714000	25.365203	0.000913	20.719667
1000.276889	-2.997300	3.590600	-10.761000	25.349722	0.000914	20.745850
1001.277996	-3.015900	3.590000	-10.825000	25.355183	0.000912	20.712926
1002.278964	-3.000600	3.589600	-10.770000	25.340643	0.000911	20.710654
1003.279230	-2.995200	3.588000	-10.746000	25.318374	0.000911	20.734289
1004.280416	-3.009700	3.588700	-10.800000	25.336688	0.000910	20.732763
1005.286534	-2.994000	3.589800	-10.747000	25.293070	0.000911	20.745392
1006.278550	-2.980700	3.589200	-10.697000	25.278257	0.000909	20.758022
1007.282135	-2.995600	3.587400	-10.744000	25.274996	0.000909	20.728668
1008.285014	-3.000700	3.587700	-10.765000	25.320981	0.000908	20.752554
1009.284197	-3.017100	3.586400	-10.819000	25.370039	0.000909	20.728792
1010.282538	-3.009200	3.586700	-10.792000	25.421387	0.000908	20.731513
1011.284679	-3.013400	3.586400	-10.806000	25.445592	0.000906	20.755820
1012.291111	-3.005900	3.586000	-10.778000	25.470539	0.000908	20.742939
1013.287275	-2.963300	3.588300	-10.631000	25.479461	0.000906	20.746683
1014.286233	-2.984900	3.586600	-10.705000	25.482417	0.000905	20.743961
1015.288298	-2.991500	3.586100	-10.726000	25.517156	0.000905	20.743285
1016.287186	-2.994900	3.584600	-10.734000	25.534026	0.000906	20.756908
1017.285207	-3.008500	3.584300	-10.782000	25.576021	0.000906	20.756409
1018.283870	-3.015600	3.584200	-10.807000	25.563869	0.000905	20.751317
1019.287782	-2.984100	3.585700	-10.700000	25.569013	0.000905	20.737516
1020.286441	-2.991600	3.585900	-10.725000	25.568315	0.000903	20.751041
1021.286069	-3.010200	3.583100	-10.785000	25.542804	0.000903	20.737273
1022.287677	-2.998300	3.584500	-10.747000	25.563770	0.000903	20.729880
1023.287651	-2.991300	3.583300	-10.718000	25.560215	0.000901	20.744328
1024.289837	-2.970100	3.583800	-10.644000	25.548412	0.000900	20.733896
1025.287186	-2.990100	3.583000	-10.712000	25.556458	0.000901	20.764264
1026.286845	-2.988000	3.582500	-10.704000	25.559345	0.000901	20.748196
1027.285657	-2.992300	3.583300	-10.721000	25.527883	0.000898	20.733195
1028.290142	-2.974800	3.582400	-10.656000	25.531730	0.000900	20.747016
1029.286317	-2.988700	3.581300	-10.702000	25.512623	0.000901	20.763864
1030.288759	-2.982100	3.581700	-10.678000	25.541645	0.000900	20.758871
1031.297734	-2.995500	3.582600	-10.731000	25.534391	0.000899	20.766284
1032.290998	-2.999500	3.580300	-10.738000	25.575040	0.000898	20.763958
1033.291645	-3.012800	3.579600	-10.783000	25.595271	0.000897	20.743973
1034.291155	-2.983200	3.580700	-10.680000	25.577626	0.000896	20.735735
1035.293535	-2.969700	3.581700	-10.634000	25.581300	0.000897	20.757918
1036.293588	-2.999600	3.580700	-10.739000	25.581457	0.000896	20.756178
1037.297285	-2.987400	3.581100	-10.696000	25.601425	0.000896	20.745412
1038.295918	-3.009000	3.578800	-10.767000	25.593050	0.000894	20.760235
1039.295774	-3.000700	3.578700	-10.737000	25.607583	0.000895	20.734527
1040.296282	-2.992600	3.579000	-10.710000	25.590390	0.000896	20.763727
1041.300158	-2.995000	3.578300	-10.716000	25.588673	0.000893	20.753943
1042.299020	-3.019200	3.577000	-10.798000	25.574982	0.000893	20.758210
1043.300553	-2.989300	3.576500	-10.690000	25.535996	0.000892	20.755568
1044.299181	-2.984800	3.577000	-10.675000	25.477945	0.000892	20.775981
1045.295165	-2.977500	3.577100	-10.650000	25.497402	0.000893	20.765175
1046.301649	-2.993700	3.577000	-10.708000	25.528388	0.000891	20.774955
1047.299619	-3.007500	3.576200	-10.754000	25.523174	0.000891	20.778727
1048.295053	-3.006700	3.576400	-10.751000	25.564098	0.000890	20.744435
1049.297619	-2.991800	3.576200	-10.699000	25.576177	0.000891	20.771739
1050.297995	-3.012000	3.573900	-10.764000	25.620482	0.000891	20.777829
1051.297766	-3.005300	3.575400	-10.744000	25.599581	0.000888	20.778649
1052.300167	-2.996700	3.574900	-10.712000	25.595977	0.000888	20.762701
1053.300332	-2.998700	3.572500	-10.711000	25.599159	0.000888	20.768741
1054.298782	-2.990300	3.574100	-10.686000	25.579752	0.000886	20.776278
1055.299890	-3.015400	3.573600	-10.775000	25.567851	0.000888	20.787085
1056.305266	-2.996800	3.573600	-10.708000	25.568274	0.000889	20.774707
1057.304866	-2.985200	3.572900	-10.665000	25.591059	0.000886	20.776254
1058.299675	-3.016900	3.572700	-10.777000	25.574136	0.000885	20.780595
1059.301592	-2.979800	3.573000	-10.645000	25.537954	0.000884	20.759905
1060.299141	-3.004100	3.571500	-10.728000	25.562308	0.000885	20.793373
1061.299512	-2.976500	3.571500	-10.629000	25.584198	0.000883	20.795442
1062.302810	-2.998200	3.570400	-10.703000	25.578755	0.000884	20.771009
1063.304081	-3.018600	3.571200	-10.779000	25.577063	0.000882	20.777371
1064.302803	-3.023300	3.569600	-10.790000	25.562402	0.000884	20.793467
1065.306928	-3.007500	3.570300	-10.737000	25.591350	0.000883	20.779391
1066.304434	-3.011000	3.570600	-10.750000	25.578677	0.000882	20.787052
1067.305062	-2.998100	3.569800	-10.702000	25.560518	0.000879	20.772609
1068.305323	-2.987500	3.570400	-10.666000	25.535470	0.000880	20.764523
1069.303324	-3.006200	3.569200	-10.729000	25.515935	0.000879	20.781890
1070.302680	-3.008100	3.568400	-10.733000	25.543221	0.000878	20.796964
1071.306055	-3.024900	3.566000	-10.786000	25.528585	0.000880	20.776101
1072.304292	-2.985300	3.566800	-10.647000	25.483631	0.000878	20.785485
1073.303961	-2.982900	3.568100	-10.643000	25.458208	0.000878	20.791723
1074.309209	-2.988300	3.568600	-10.663000	25.456968	0.000878	20.782418
1075.306833	-2.999000	3.567400	-10.698000	25.504230	0.000877	20.793368
1076.308539	-2.983100	3.567600	-10.640000	25.547393	0.000877	20.787876
1077.305927	-2.992200	3.567100	-10.673000	25.560263	0.000876	20.781836
1078.308698	-2.965900	3.567800	-10.581000	25.577314	0.000876	20.752966
1079.312912	-3.001900	3.566800	-10.706000	25.639633	0.000876	20.783312
1080.304901	-2.987100	3.567200	-10.654000	25.667835	0.000876	20.793620
1081.315862	-2.960300	3.566400	-10.556000	25.660901	0.000874	20.802303
1082.303489	-2.995000	3.565500	-10.677000	25.656254	0.000874	20.776773
1083.306098	-3.026300	3.563400	-10.783000	25.630909	0.000873	20.793991
1084.309453	-3.018800	3.562600	-10.754000	25.586231	0.000870	20.784207
1085.309733	-3.006300	3.563000	-10.711000	25.586875	0.000872	20.798130
1086.308077	-3.006400	3.562500	-10.709000	25.565034	0.000871	20.799903
1087.306853	-3.004700	3.562000	-10.702000	25.599528	0.000870	20.785234
1088.307899	-3.006800	3.563100	-10.713000	25.621988	0.000870	20.789299
1089.307419	-3.011400	3.562300	-10.727000	25.637592	0.000870	20.795488
1090.311689	-3.004800	3.562100	-10.702000	25.619028	0.000869	20.790593
1091.306440	-3.008600	3.561100	-10.712000	25.619377	0.000869	20.814177
1092.310602	-2.999500	3.561500	-10.682000	25.606359	0.000867	20.805845
1093.307777	-3.001900	3.561800	-10.691000	25.642013	0.000868	20.810834
1094.313581	-3.007700	3.561400	-10.711000	25.628047	0.000868	20.797755
1095.313222	-3.002000	3.561400	-10.691000	25.676098	0.000866	20.791488
1096.311882	-3.007100	3.561100	-10.708000	25.695109	0.000866	20.787349
1097.313277	-2.967000	3.560800	-10.565000	25.681193	0.000868	20.801346
1098.312565	-3.006900	3.560400	-10.703000	25.688003	0.000866	20.783056
1099.313605	-3.004500	3.560000	-10.695000	25.674982	0.000864	20.800798
1100.314118	-3.010700	3.559900	-10.716000	25.696250	0.000863	20.797504
1101.310005	-3.006500	3.559600	-10.701000	25.694185	0.000864	20.802542
1102.313151	-3.014800	3.557400	-10.723000	25.693142	0.000864	20.825676
1103.313559	-3.007300	3.558300	-10.700000	25.739331	0.000860	20.812800
1104.311172	-2.997900	3.557400	-10.663000	25.741913	0.000863	20.784574
1105.317940	-3.003000	3.558400	-10.684000	25.762634	0.000860	20.801594
1106.313501	-3.012800	3.555400	-10.709000	25.744023	0.000859	20.823202
1107.319364	-3.011200	3.556000	-10.706000	25.758533	0.000859	20.819286
1108.313960	-3.005200	3.558400	-10.691000	25.734586	0.000861	20.817043
1109.317544	-3.000900	3.555800	-10.668000	25.709796	0.000860	20.828653
1110.312681	-3.001100	3.555700	-10.670000	25.698910	0.000859	20.802072
1111.314730	-3.005400	3.553900	-10.680000	25.708672	0.000856	20.809980
1112.314250	-3.007900	3.555500	-10.693000	25.693643	0.000856	20.826654
1113.316961	-2.992200	3.555600	-10.638000	25.720576	0.000856	20.815299
1114.317091	-3.001100	3.553800	-10.664000	25.696681	0.000857	20.820696
1115.313127	-2.993000	3.553200	-10.634000	25.673024	0.000857	20.800728
1116.316865	-2.991700	3.553600	-10.629000	25.653520	0.000858	20.822390
1117.316470	-3.009600	3.554500	-10.695000	25.609196	0.000855	20.821022
1118.319408	-3.015900	3.553500	-10.716000	25.619037	0.000857	20.814309
1119.320284	-2.998400	3.553600	-10.654000	25.593666	0.000855	20.830080
1120.317449	-3.009400	3.552100	-10.687000	25.628125	0.000855	20.810162
1121.317560	-3.002700	3.552400	-10.666000	25.625174	0.000853	20.813835
1122.319339	-3.003800	3.552100	-10.669000	25.622046	0.000852	20.805478
1123.317222	-2.998500	3.551600	-10.649000	25.605969	0.000852	20.833428
1124.317102	-3.021300	3.550600	-10.726000	25.607361	0.000852	20.832929
1125.321127	-2.996800	3.551100	-10.641000	25.632289	0.000851	20.824300
1126.319966	-3.005400	3.550300	-10.669000	25.642946	0.000851	20.842115
1127.318421	-2.986400	3.551000	-10.604000	25.663590	0.000852	20.826340
1128.322469	-2.994000	3.552000	-10.633000	25.650897	0.000849	20.847256
1129.323133	-2.979400	3.549800	-10.575000	25.637379	0.000849	20.847429
1130.323080	-2.979500	3.550500	-10.578000	25.604159	0.000847	20.826394
1131.321467	-2.980400	3.549300	-10.578000	25.554586	0.000849	20.815489
1132.321390	-2.984200	3.548500	-10.589000	25.553765	0.000849	20.820354
1133.323147	-2.989700	3.548300	-10.608000	25.586321	0.000848	20.826497
1134.321283	-3.000400	3.547500	-10.643000	25.591588	0.000848	20.827994
1135.321371	-2.994300	3.548100	-10.623000	25.615514	0.000845	20.817410
1136.323544	-2.990000	3.548000	-10.608000	25.685684	0.000845	20.838099
1137.320520	-3.001800	3.547200	-10.646000	25.674251	0.000847	20.816660
1138.323370	-2.990500	3.547400	-10.607000	25.722477	0.000844	20.831906
1139.321795	-2.990700	3.546700	-10.606000	25.735177	0.000844	20.846085
1140.322387	-2.993800	3.545200	-10.612000	25.778429	0.000845	20.819356
1141.324588	-2.996000	3.547600	-10.628000	25.782653	0.000843	20.844461
1142.321032	-2.990000	3.545600	-10.600000	25.812313	0.000845	20.831107
1143.319965	-2.992300	3.545100	-10.607000	25.835417	0.000840	20.861426
1144.320245	-3.009600	3.545300	-10.669000	25.814603	0.000840	20.840994
1145.322998	-2.984900	3.545600	-10.583000	25.822578	0.000841	20.855168
1146.322900	-2.991700	3.544600	-10.604000	25.822701	0.000842	20.830637
1147.327113	-3.018700	3.542400	-10.691000	25.809382	0.000839	20.831008
1148.324786	-2.998400	3.543500	-10.623000	25.823719	0.000839	20.838771
1149.325171	-3.003700	3.542800	-10.641000	25.802006	0.000838	20.849202
1150.324790	-2.992400	3.542900	-10.601000	25.778158	0.000838	20.857489
1151.328218	-3.005100	3.542500	-10.644000	25.767449	0.000836	20.845784
1152.324095	-3.012000	3.541600	-10.667000	25.757187	0.000834	20.851598
1153.327257	-2.999100	3.541700	-10.621000	25.770630	0.000837	20.864152
1154.327396	-2.974500	3.542200	-10.536000	25.760869	0.000838	20.830641
1155.326404	-3.004000	3.540900	-10.635000	25.758932	0.000836	20.848609
1156.325728	-2.988700	3.541300	-10.583000	25.772322	0.000835	20.852575
1157.327942	-3.007700	3.539300	-10.644000	25.766033	0.000835	20.852422
1158.327290	-3.016000	3.539300	-10.673000	25.783277	0.000835	20.855519
1159.328087	-2.991900	3.541200	-10.593000	25.745838	0.000833	20.854896
1160.326592	-3.002700	3.539000	-10.625000	25.725736	0.000833	20.850827
1161.330947	-2.996400	3.539400	-10.603000	25.703332	0.000834	20.877634
1162.325909	-2.996700	3.538600	-10.603000	25.716944	0.000831	20.857168
1163.326953	-2.988900	3.537000	-10.571000	25.685939	0.000832	20.869648
1164.328857	-3.009400	3.536900	-10.643000	25.674732	0.000832	20.855073
1165.328500	-3.004100	3.536500	-10.622000	25.664966	0.000831	20.873239
1166.328102	-3.011400	3.536400	-10.649000	25.697466	0.000830	20.860363
1167.329413	-3.008300	3.537100	-10.640000	25.728622	0.000830	20.865104
1168.329744	-3.017300	3.536400	-10.670000	25.744873	0.000827	20.861513
1169.330832	-2.997700	3.537100	-10.603000	25.756999	0.000829	20.859943
1170.332532	-2.981100	3.536600	-10.542000	25.765171	0.000827	20.873841
1171.330194	-2.986900	3.536500	-10.562000	25.775954	0.000827	20.874715
1172.331498	-2.981700	3.536200	-10.542000	25.796552	0.000826	20.865533
1173.332851	-2.976400	3.534800	-10.520000	25.815305	0.000826	20.865405
1174.343738	-2.988400	3.534700	-10.562000	25.839181	0.000825	20.863785
1175.330484	-3.010900	3.533500	-10.638000	25.830262	0.000826	20.854352
1176.337086	-3.001800	3.534200	-10.606000	25.824151	0.000823	20.856747
1177.339057	-2.997700	3.533500	-10.591000	25.847702	0.000823	20.876137
1178.331928	-2.993400	3.533500	-10.576000	25.849295	0.000821	20.865410
1179.336468	-3.005100	3.532900	-10.616000	25.871873	0.000824	20.859642
1180.336481	-2.998400	3.532300	-10.590000	25.858587	0.000821	20.866683
1181.334824	-2.993700	3.531500	-10.572000	25.844102	0.000821	20.838384
1182.335248	-3.001600	3.532400	-10.602000	25.801350	0.000820	20.862767
1183.335192	-2.982800	3.532600	-10.536000	25.816352	0.000821	20.868353
1184.334759	-3.003100	3.531800	-10.605000	25.809099	0.000820	20.858223
1185.334082	-2.993900	3.531700	-10.572000	25.765820	0.000821	20.864535
1186.333365	-3.001300	3.529700	-10.593000	25.773176	0.000819	20.847269
1187.336942	-3.008700	3.530100	-10.620000	25.753272	0.000817	20.832492
1188.336857	-3.012700	3.529300	-10.631000	25.726344	0.000819	20.832946
1189.338088	-3.001700	3.529500	-10.594000	25.690015	0.000817	20.842923
1190.340488	-2.988900	3.529700	-10.548000	25.657593	0.000818	20.844024
1191.337570	-2.986700	3.528100	-10.536000	25.645393	0.000817	20.835090
1192.339186	-2.973800	3.530100	-10.497000	25.627453	0.000815	20.840305
1193.337271	-3.019100	3.526600	-10.646000	25.636571	0.000817	20.850885
1194.337124	-3.007000	3.526800	-10.604000	25.653866	0.000816	20.837910
1195.337068	-2.996600	3.527600	-10.570000	25.689646	0.000814	20.822638
1196.339061	-2.996600	3.527500	-10.569000	25.726841	0.000814	20.847669
1197.342606	-2.992700	3.527900	-10.557000	25.736253	0.000815	20.837683
1198.338106	-3.003300	3.525400	-10.587000	25.764527	0.000814	20.835263
1199.338278	-2.994300	3.525200	-10.555000	25.827680	0.000813	20.836586
1200.340161	-2.997000	3.526800	-10.569000	25.831432	0.000813	20.857898
1201.337753	-2.989400	3.525000	-10.537000	25.849069	0.000811	20.828200
1202.337806	-2.984900	3.524100	-10.517000	25.853789	0.000811	20.831519
1203.338618	-2.986600	3.524800	-10.526000	25.847304	0.000810	20.841600
1204.340973	-3.002300	3.523900	-10.578000	25.859129	0.000809	20.829771
1205.338449	-3.008400	3.522500	-10.596000	25.888072	0.000811	20.826131
1206.338259	-3.000700	3.523800	-10.572000	25.893010	0.000812	20.837254
1207.341055	-3.005100	3.523800	-10.589000	25.865860	0.000811	20.832740
1208.339553	-3.004600	3.523900	-10.586000	25.836144	0.000807	20.821855
1209.343013	-2.987400	3.522800	-10.524000	25.805044	0.000806	20.814796
1210.338282	-2.971700	3.522600	-10.467000	25.833291	0.000808	20.851231
1211.338995	-2.988700	3.522500	-10.527000	25.839772	0.000808	20.813646
1212.337843	-3.024400	3.521700	-10.650000	25.860668	0.000807	20.831791
1213.337285	-2.994900	3.520300	-10.541000	25.816968	0.000806	20.820136
1214.339843	-3.001700	3.521600	-10.570000	25.852914	0.000804	20.820210
1215.339654	-2.967200	3.521900	-10.449000	25.843774	0.000803	20.809131
1216.340633	-3.009100	3.520300	-10.592000	25.846031	0.000805	20.840796
1217.340503	-2.996500	3.519800	-10.547000	25.872340	0.000802	20.813172
1218.343842	-2.980700	3.520500	-10.493000	25.863520	0.000804	20.819010
1219.341901	-2.985800	3.518000	-10.503000	25.855398	0.000800	20.823652
1220.341109	-3.008400	3.519400	-10.587000	25.916329	0.000802	20.822749
1221.343998	-3.006600	3.518100	-10.576000	25.885778	0.000802	20.810075
1222.342318	-3.011100	3.517500	-10.591000	25.867891	0.000798	20.820556
1223.341971	-2.995300	3.520200	-10.543000	25.811295	0.000800	20.832929
1224.342202	-2.996900	3.518100	-10.542000	25.753932	0.000798	20.802811
1225.343698	-3.007500	3.516700	-10.575000	25.728634	0.000798	20.815332
1226.343637	-2.980700	3.517900	-10.485000	25.743912	0.000798	20.825462
1227.343678	-2.976000	3.516500	-10.464000	25.759720	0.000799	20.811469
1228.346204	-3.000100	3.515300	-10.546000	25.769904	0.000798	20.805103
1229.345208	-3.000200	3.515000	-10.545000	25.816458	0.000796	20.806822
1230.345410	-3.008200	3.515100	-10.573000	25.841894	0.000796	20.831424
1231.345947	-3.003100	3.515600	-10.556000	25.843884	0.000796	20.826786
1232.350922	-3.010600	3.513200	-10.575000	25.842965	0.000794	20.803103
1233.344533	-3.021000	3.513800	-10.614000	25.871482	0.000793	20.802353
1234.344291	-3.012200	3.513100	-10.581000	25.881792	0.000793	20.803701
1235.344656	-3.012300	3.511800	-10.577000	25.880249	0.000794	20.810211
1236.343454	-3.004600	3.513000	-10.553000	25.922752	0.000791	20.803124
1237.348146	-2.993500	3.514500	-10.520000	25.955741	0.000794	20.814454
1238.344329	-2.990900	3.513400	-10.506000	25.964088	0.000790	20.805771
1239.346874	-2.993800	3.513200	-10.516000	25.925383	0.000793	20.810508
1240.342881	-2.999600	3.513600	-10.538000	25.919276	0.000791	20.800580
1241.349310	-3.004800	3.510500	-10.547000	25.917285	0.000791	20.806640
1242.347419	-2.995800	3.511700	-10.520000	25.897988	0.000789	20.786306
1243.343794	-2.996100	3.509900	-10.514000	25.883331	0.000790	20.791971
1244.344290	-3.005000	3.509900	-10.546000	25.845415	0.000789	20.811728
1245.343754	-3.001500	3.509200	-10.532000	25.844800	0.000789	20.799256
1246.343315	-3.009900	3.510000	-10.564000	25.868872	0.000788	20.786928
1247.362113	-2.986900	3.510000	-10.483000	25.887653	0.000787	20.792045
1248.350298	-3.007000	3.508400	-10.548000	25.922132	0.000788	20.778793
1249.349274	-3.005000	3.507300	-10.539000	25.969206	0.000786	20.797636
1250.351421	-2.997700	3.507200	-10.513000	25.952289	0.000786	20.783485
1251.346639	-2.993500	3.506900	-10.497000	25.899752	0.000786	20.810838
1252.345565	-2.988200	3.508300	-10.483000	25.873071	0.000783	20.797310
1253.349735	-2.999700	3.506700	-10.518000	25.817152	0.000787	20.796139
1254.346011	-3.005800	3.507000	-10.541000	25.770716	0.000784	20.811135
1255.344172	-3.037700	3.505200	-10.647000	25.755635	0.000786	20.774649
1256.346022	-2.991600	3.505500	-10.486000	25.747487	0.000783	20.800604
1257.350085	-3.004400	3.504800	-10.529000	25.732332	0.000784	20.804348
1258.345539	-3.004600	3.505400	-10.532000	25.673221	0.000785	20.758251
1259.347548	-3.002400	3.504400	-10.521000	25.734639	0.000781	20.801450
1260.348289	-3.005500	3.505400	-10.534000	25.770938	0.000783	20.788124
1261.349869	-2.970100	3.505000	-10.408000	25.780773	0.000781	20.792313
1262.347757	-3.009000	3.503200	-10.540000	25.787336	0.000783	20.775198
1263.352342	-3.027500	3.502600	-10.603000	25.784175	0.000780	20.790041
1264.349846	-3.005600	3.504500	-10.533000	25.751781	0.000782	20.771726
1265.349631	-2.998600	3.503000	-10.502000	25.738711	0.000779	20.794634
1266.353729	-3.009200	3.502900	-10.540000	25.758587	0.000780	20.766234
1267.355122	-2.998800	3.501800	-10.500000	25.755056	0.000779	20.787344
1268.350587	-3.023400	3.500800	-10.583000	25.699953	0.000778	20.798852
1269.354276	-3.003100	3.500600	-10.511000	25.667945	0.000777	20.774765
1270.360032	-2.987200	3.499900	-10.453000	25.698832	0.000776	20.769277
1271.351671	-2.988500	3.501600	-10.464000	25.707777	0.000775	20.765459
1272.360171	-3.002800	3.498600	-10.504000	25.721191	0.000774	20.782726
1273.356122	-2.985600	3.499100	-10.447000	25.736371	0.000774	20.787542
1274.352345	-3.019600	3.498300	-10.563000	25.749359	0.000772	20.781147
1275.357701	-2.995700	3.500100	-10.484000	25.779274	0.000773	20.777531
1276.353858	-3.001900	3.498500	-10.501000	25.787274	0.000772	20.779403
1277.354116	-3.010800	3.496800	-10.527000	25.777435	0.000772	20.781374
1278.353127	-2.958700	3.499900	-10.354000	25.785209	0.000773	20.769743
1279.355343	-2.996300	3.497200	-10.477000	25.759095	0.000773	20.788556
1280.354507	-3.032200	3.496400	-10.600000	25.769780	0.000769	20.796444
1281.356070	-3.021300	3.495300	-10.559000	25.724882	0.000769	20.770786
1282.357036	-3.012200	3.495100	-10.527000	25.724660	0.000770	20.755390
1283.355934	-3.017400	3.495700	-10.546000	25.702395	0.000767	20.759579
1284.354091	-3.024000	3.494800	-10.567000	25.729151	0.000769	20.766064
1285.356848	-3.008500	3.495600	-10.515000	25.746842	0.000768	20.766765
1286.361327	-3.009700	3.493700	-10.514000	25.780834	0.000768	20.775305
1287.358088	-3.017900	3.493100	-10.540000	25.789100	0.000767	20.763219
1288.357245	-2.994400	3.494100	-10.461000	25.820082	0.000765	20.792444
1289.357479	-3.013900	3.494100	-10.530000	25.836947	0.000765	20.775721
1290.366001	-2.991800	3.493200	-10.449000	25.871207	0.000767	20.797334
1291.363963	-2.987600	3.493400	-10.435000	25.877215	0.000765	20.782982
1292.364654	-3.025800	3.491900	-10.564000	25.859924	0.000765	20.778413
1293.362122	-3.019600	3.490700	-10.538000	25.861992	0.000762	20.761525
1294.361038	-3.014800	3.490600	-10.522000	25.896768	0.000764	20.768959
1295.359147	-3.005400	3.491900	-10.494000	25.935097	0.000761	20.763368
1296.363081	-3.012400	3.490600	-10.514000	25.934600	0.000762	20.754808
1297.360042	-3.032500	3.490000	-10.582000	25.937309	0.000762	20.774125
1298.361137	-3.009700	3.490100	-10.503000	25.929856	0.000761	20.785604
1299.365902	-2.992700	3.488500	-10.439000	25.909984	0.000759	20.772278
1300.361694	-3.014900	3.489600	-10.520000	25.904570	0.000760	20.778694
1301.363510	-3.015200	3.488100	-10.517000	25.933041	0.000759	20.775527
1302.365880	-3.011400	3.488100	-10.504000	25.945107	0.000758	20.769631
1303.364549	-3.038200	3.486000	-10.590000	25.955695	0.000758	20.740913
1304.364917	-3.013600	3.487200	-10.508000	25.965430	0.000759	20.772031
1305.364518	-3.014200	3.487700	-10.511000	25.965007	0.000758	20.773977
1306.362385	-2.996300	3.488100	-10.451000	25.952441	0.000757	20.782689
1307.363903	-3.018200	3.485600	-10.519000	25.926954	0.000757	20.754239
1308.365151	-2.999800	3.486600	-10.458000	25.911679	0.000757	20.757385
1309.365364	-3.004900	3.487200	-10.477000	25.922735	0.000755	20.760906
1310.363384	-2.997700	3.485100	-10.445000	25.959524	0.000755	20.767994
1311.363598	-2.999900	3.484400	-10.452000	25.975094	0.000753	20.754239
1312.372681	-2.978500	3.485200	-10.380000	25.992212	0.000753	20.772860
1313.365780	-2.992700	3.484400	-10.426000	26.004162	0.000752	20.761632
1314.365321	-3.015800	3.483100	-10.502000	26.032696	0.000754	20.784610
1315.368068	-3.007900	3.484500	-10.480000	26.009423	0.000750	20.755064
1316.366348	-2.990900	3.483000	-10.415000	25.989278	0.000750	20.744780
1317.368103	-3.012800	3.483800	-10.495000	25.969435	0.000752	20.749027
1318.370392	-3.011100	3.481400	-10.482000	25.931424	0.000751	20.772006
1319.372022	-3.019100	3.482300	-10.513000	25.896099	0.000750	20.766390
1320.367577	-2.988200	3.482500	-10.405000	25.854067	0.000749	20.750244
1321.372431	-3.018600	3.481700	-10.509000	25.841819	0.000749	20.767339
1322.372463	-3.005600	3.481000	-10.461000	25.792306	0.000750	20.758379
1323.370102	-2.993900	3.480700	-10.420000	25.768856	0.000751	20.761376
1324.368462	-2.997400	3.482100	-10.434000	25.805597	0.000748	20.748495
1325.369263	-3.000600	3.479800	-10.440000	25.799933	0.000748	20.751815
1326.368888	-2.987500	3.479800	-10.395000	25.845218	0.000748	20.735664
1327.370406	-3.015100	3.479300	-10.490000	25.837144	0.000747	20.762642
1328.368398	-2.991100	3.479900	-10.407000	25.867377	0.000747	20.751761
1329.372954	-2.986900	3.479700	-10.392000	25.890136	0.000746	20.751864
1330.372365	-3.010600	3.476600	-10.464000	25.891395	0.000746	20.743646
1331.369984	-2.988600	3.478700	-10.396000	25.904168	0.000744	20.741304
1332.374732	-3.022700	3.477900	-10.511000	25.912614	0.000743	20.757851
1333.375993	-2.999800	3.477500	-10.430000	25.953327	0.000745	20.778364
1334.374093	-3.030700	3.475800	-10.531000	25.965224	0.000744	20.733891
1335.374457	-3.007800	3.473500	-10.447000	25.937846	0.000742	20.741948
1336.373583	-3.021500	3.473300	-10.494000	25.895594	0.000742	20.756874
1337.374627	-3.033600	3.473800	-10.538000	25.862604	0.000743	20.746017
1338.379472	-2.988500	3.476000	-10.386000	25.850282	0.000743	20.763986
1339.379002	-2.996800	3.473900	-10.409000	25.840444	0.000739	20.749835
1340.374018	-3.012900	3.473500	-10.464000	25.837017	0.000738	20.766782
1341.374053	-3.016000	3.471500	-10.468000	25.867348	0.000739	20.771173
1342.378699	-2.994000	3.474600	-10.402000	25.879198	0.000740	20.744669
1343.375828	-3.026600	3.472100	-10.508000	25.855372	0.000739	20.745865
1344.373937	-2.987700	3.474600	-10.380000	25.895791	0.000739	20.762287
1345.375858	-2.991800	3.473200	-10.389000	25.936077	0.000739	20.744912
1346.374897	-2.983500	3.473200	-10.361000	25.936701	0.000737	20.726572
1347.374658	-3.004800	3.472200	-10.433000	25.938314	0.000735	20.767549
1348.379089	-2.995400	3.472000	-10.399000	25.946686	0.000737	20.738975
1349.379613	-2.984600	3.471400	-10.358000	25.968942	0.000737	20.741420
1350.385054	-3.021200	3.469900	-10.482000	25.997629	0.000737	20.729462
1351.378158	-2.983500	3.469700	-10.350000	25.981262	0.000734	20.751427
1352.379829	-3.005500	3.470100	-10.427000	25.969189	0.000734	20.738822
1353.380012	-2.988500	3.470400	-10.370000	25.969209	0.000734	20.761129
1354.382758	-3.002000	3.469800	-10.415000	25.959598	0.000733	20.743411
1355.388075	-2.998300	3.468900	-10.400000	25.964165	0.000732	20.723817
1356.381259	-3.012500	3.466700	-10.442000	25.977655	0.000733	20.745432
1357.381875	-3.012700	3.467600	-10.445000	25.938954	0.000732	20.738319
1358.381375	-2.991900	3.468600	-10.378000	25.906930	0.000731	20.741234
1359.382744	-3.006300	3.466000	-10.419000	25.905916	0.000730	20.741638
1360.385009	-3.005800	3.465500	-10.415000	25.929113	0.000729	20.737441
1361.382168	-2.993000	3.466500	-10.374000	25.942722	0.000729	20.750639
1362.381614	-3.000800	3.465500	-10.397000	25.985920	0.000729	20.746623
1363.392558	-2.993500	3.465100	-10.372000	25.953975	0.000729	20.735865
1364.382278	-2.987900	3.465300	-10.353000	25.971487	0.000729	20.747769
1365.384530	-3.020700	3.463400	-10.461000	25.978816	0.000730	20.738063
1366.387995	-3.002600	3.463800	-10.400000	25.949481	0.000726	20.723764
1367.388281	-2.987800	3.465100	-10.351000	25.989622	0.000728	20.742755
1368.385682	-3.001100	3.463800	-10.394000	26.009985	0.000726	20.755154
1369.386005	-3.023800	3.461700	-10.466000	26.041953	0.000726	20.761669
1370.391356	-2.988300	3.462900	-10.348000	26.058893	0.000726	20.735066
1371.391602	-3.000700	3.460800	-10.383000	26.068036	0.000725	20.724337
1372.385515	-2.988100	3.461300	-10.341000	26.069447	0.000724	20.737610
1373.389071	-2.986500	3.462200	-10.338000	26.108119	0.000723	20.767458
1374.387257	-2.997100	3.459900	-10.369000	26.113310	0.000726	20.739482
1375.386706	-2.993700	3.461100	-10.361000	26.071631	0.000724	20.733639
1376.393221	-3.040900	3.459000	-10.517000	26.059911	0.000725	20.735140
1377.390203	-3.009000	3.459300	-10.408000	26.081914	0.000722	20.724056
1378.387277	-2.986900	3.460100	-10.333000	26.071187	0.000722	20.727503
1379.393998	-2.985200	3.459600	-10.327000	26.049106	0.000721	20.748466
1380.391493	-3.001800	3.457800	-10.378000	26.043320	0.000722	20.729375
1381.389201	-2.996900	3.458000	-10.362000	26.041531	0.000721	20.725207
1382.391200	-2.999600	3.456400	-10.366000	26.051367	0.000720	20.751212
1383.390664	-2.972400	3.457800	-10.277000	26.033409	0.000721	20.734591
1384.389464	-3.003200	3.456200	-10.378000	25.998507	0.000721	20.725128
1385.393938	-2.989000	3.457800	-10.335000	25.994436	0.000719	20.742850
1386.394534	-2.986300	3.457400	-10.323000	26.017241	0.000719	20.742055
1387.390925	-2.979300	3.455800	-10.295000	26.011627	0.000720	20.730250
1388.394069	-3.002800	3.455800	-10.376000	26.028838	0.000718	20.724782
1389.394573	-3.002300	3.456200	-10.376000	26.009640	0.000717	20.727780
1390.397338	-3.002300	3.455300	-10.372000	26.015747	0.000718	20.742924
1391.392246	-2.996400	3.454700	-10.350000	26.004941	0.000717	20.742974
1392.395524	-2.990800	3.453000	-10.326000	26.017360	0.000715	20.741226
1393.392333	-2.993000	3.451800	-10.330000	26.020913	0.000715	20.719665
1394.394925	-2.990200	3.453700	-10.326000	26.001092	0.000713	20.739581
1395.396347	-2.986200	3.453500	-10.311000	26.027200	0.000714	20.745897
1396.394746	-3.026900	3.451200	-10.444000	26.022924	0.000714	20.742549
1397.394464	-2.984100	3.453400	-10.305000	26.013215	0.000713	20.750812
1398.398327	-2.991600	3.451800	-10.326000	26.046820	0.000713	20.732418
1399.394313	-3.018000	3.450400	-10.412000	26.056804	0.000712	20.732493
1400.397326	-2.989600	3.450100	-10.314000	26.061647	0.000713	20.736884
1401.399042	-2.983400	3.450600	-10.294000	26.096440	0.000711	20.734859
1402.397775	-2.985100	3.451500	-10.302000	26.122321	0.000710	20.720560
1403.396736	-2.978300	3.449100	-10.271000	26.148795	0.000710	20.741473
1404.398580	-2.986400	3.449100	-10.297000	26.170477	0.000711	20.726275
1405.399866	-2.985100	3.449200	-10.295000	26.153809	0.000710	20.732286
1406.399949	-3.000700	3.446500	-10.340000	26.146858	0.000709	20.737630
1407.401650	-3.002700	3.448800	-10.353000	26.149267	0.000708	20.741473
1408.398593	-3.009100	3.446800	-10.371000	26.173033	0.000709	20.742595
1409.398401	-2.987200	3.448300	-10.300000	26.169824	0.000708	20.746957
1410.401150	-2.981400	3.446600	-10.274000	26.146432	0.000706	20.745736
1411.400845	-3.001900	3.446900	-10.347000	26.144835	0.000705	20.770212
1412.400570	-2.990400	3.447000	-10.306000	26.123404	0.000707	20.735399
1413.399451	-3.004500	3.444900	-10.349000	26.108849	0.000704	20.738319
1414.400822	-3.013100	3.445300	-10.378000	26.112074	0.000705	20.732550
1415.398729	-2.999500	3.444100	-10.330000	26.102238	0.000702	20.745901
1416.399438	-2.972600	3.445400	-10.241000	26.069899	0.000704	20.740434
1417.398603	-2.996000	3.445200	-10.321000	26.049434	0.000703	20.745477
1418.401553	-2.976800	3.443800	-10.251000	26.046648	0.000704	20.747893
1419.401145	-2.980900	3.443700	-10.265000	26.074913	0.000703	20.747369
1420.406396	-3.016600	3.441500	-10.380000	26.071310	0.000701	20.752758
1421.403746	-3.004200	3.441500	-10.338000	26.073768	0.000700	20.759970
1422.400992	-3.002200	3.441900	-10.333000	26.074683	0.000702	20.725326
1423.407681	-3.015200	3.441600	-10.376000	26.079431	0.000700	20.741477
1424.401899	-2.994800	3.441100	-10.304000	26.074162	0.000699	20.756098
1425.403726	-3.013700	3.440000	-10.366000	26.070412	0.000699	20.744743
1426.404361	-3.018600	3.439500	-10.381000	26.105755	0.000697	20.767453
1427.402819	-2.988300	3.441100	-10.282000	26.083551	0.000697	20.756049
1428.402853	-2.994000	3.440600	-10.300000	26.103720	0.000696	20.764460
1429.406485	-2.994700	3.439000	-10.298000	26.091947	0.000696	20.762588
1430.404727	-2.980900	3.440600	-10.255000	26.120954	0.000696	20.760914
1431.403409	-3.006200	3.438900	-10.336000	26.114869	0.000696	20.750058
1432.405525	-3.000300	3.438000	-10.313000	26.106654	0.000697	20.738009
1433.405828	-3.004500	3.437000	-10.325000	26.072324	0.000695	20.729594
1434.407819	-3.010400	3.437400	-10.347000	26.033208	0.000697	20.761891
1435.408018	-3.015700	3.435600	-10.360000	26.011253	0.000695	20.755480
1436.409308	-3.009400	3.437200	-10.343000	26.014425	0.000694	20.748709
1437.409099	-3.025500	3.435200	-10.392000	26.006357	0.000693	20.742500
1438.407959	-3.009800	3.437200	-10.344000	26.030902	0.000693	20.774273
1439.408041	-3.004500	3.435300	-10.320000	26.069973	0.000693	20.754733
1440.406953	-2.998400	3.435300	-10.299000	26.064232	0.000691	20.764138
1441.408277	-3.008700	3.434600	-10.333000	26.094360	0.000691	20.757426
1442.408494	-2.990600	3.434400	-10.269000	26.130675	0.000690	20.753138
1443.408380	-2.994400	3.434900	-10.284000	26.153744	0.000691	20.764938
1444.408452	-3.008500	3.433500	-10.329000	26.177985	0.000689	20.783608
1445.410045	-3.009100	3.432500	-10.327000	26.161716	0.000689	20.778165
1446.410937	-3.020900	3.431300	-10.365000	26.159558	0.000688	20.765091
1447.410138	-2.998900	3.433200	-10.294000	26.126752	0.000687	20.764369
1448.415242	-2.993900	3.431500	-10.272000	26.118755	0.000688	20.766765
1449.418661	-3.011000	3.431300	-10.331000	26.113589	0.000687	20.759203
1450.413826	-2.981700	3.431700	-10.231000	26.153079	0.000686	20.753839
1451.412470	-2.996100	3.431300	-10.279000	26.128365	0.000686	20.766464
1452.415971	-3.011600	3.430700	-10.331000	26.096604	0.000686	20.757785
1453.412905	-3.003700	3.429100	-10.298000	26.095086	0.000687	20.756733
1454.414485	-2.997300	3.428600	-10.275000	26.093297	0.000685	20.770583
1455.419349	-3.017100	3.429100	-10.345000	26.094442	0.000686	20.758457
1456.413482	-2.973400	3.428800	-10.194000	26.088947	0.000683	20.777118
1457.414574	-2.973900	3.427500	-10.192000	26.108820	0.000685	20.784284
1458.416607	-2.974500	3.427700	-10.194000	26.144035	0.000683	20.777943
1459.415216	-2.971200	3.427900	-10.183000	26.145972	0.000684	20.762345
1460.415666	-2.993200	3.427500	-10.258000	26.177489	0.000682	20.766987
1461.417364	-2.996000	3.426100	-10.263000	26.211163	0.000683	20.756729
1462.414370	-3.004300	3.425400	-10.290000	26.218167	0.000682	20.778466
1463.416816	-2.991000	3.424900	-10.243000	26.232548	0.000682	20.772055
1464.418645	-2.989400	3.425700	-10.239000	26.230361	0.000680	20.761322
1465.419443	-2.982500	3.425300	-10.215000	26.265793	0.000680	20.748565
1466.420734	-2.977000	3.426100	-10.197000	26.257477	0.000681	20.776244
1467.421126	-3.013100	3.423600	-10.315000	26.238476	0.000680	20.773271
1468.426921	-3.000100	3.425400	-10.276000	26.207634	0.000678	20.769305
1469.421082	-2.975000	3.423600	-10.184000	26.169689	0.000681	20.778116
1470.422125	-2.987900	3.423200	-10.227000	26.181334	0.000678	20.792188
1471.425293	-2.989800	3.421900	-10.230000	26.167453	0.000679	20.795309
1472.423570	-2.977800	3.422600	-10.190000	26.189109	0.000676	20.771552
1473.423832	-3.023800	3.420900	-10.343000	26.201595	0.000680	20.762287
1474.431651	-3.004400	3.419600	-10.272000	26.176143	0.000678	20.790766
1475.426257	-3.030900	3.420500	-10.365000	26.166254	0.000677	20.776561
1476.425955	-2.992200	3.420900	-10.235000	26.180591	0.000677	20.784329
1477.429242	-3.012100	3.420100	-10.300000	26.193027	0.000675	20.787343
1478.426664	-2.992200	3.420600	-10.234000	26.178773	0.000676	20.788667
1479.425242	-2.999000	3.419000	-10.253000	26.174079	0.000674	20.785847
1480.428755	-3.031700	3.418700	-10.364000	26.173484	0.000676	20.779085
1481.430155	-2.959800	3.420300	-10.122000	26.146637	0.000673	20.777238
1482.428914	-3.003700	3.417500	-10.265000	26.125103	0.000674	20.789739
1483.430339	-2.993200	3.418300	-10.231000	26.099350	0.000673	20.779984
1484.426531	-3.017600	3.416500	-10.308000	26.121676	0.000671	20.785822
1485.428590	-3.028200	3.416100	-10.343000	26.112214	0.000673	20.789116
1486.429086	-3.006800	3.418000	-10.276000	26.118024	0.000671	20.777885
1487.427941	-3.000100	3.416000	-10.247000	26.133646	0.000673	20.783624
1488.432297	-2.991800	3.415900	-10.218000	26.136403	0.000671	20.808680
1489.426312	-2.964300	3.418100	-10.131000	26.121303	0.000671	20.797301
1490.430264	-2.991900	3.416700	-10.221000	26.155627	0.000671	20.801918
1491.430278	-2.987900	3.415900	-10.205000	26.174453	0.000668	20.799972
1492.429635	-2.986600	3.415500	-10.200000	26.152796	0.000668	20.790065
1493.434402	-2.990900	3.414200	-10.209000	26.172664	0.000669	20.814296
1494.432822	-3.002700	3.413100	-10.248000	26.174797	0.000668	20.798896
1495.429410	-2.997700	3.413100	-10.230000	26.188358	0.000668	20.783125
1496.433446	-2.985500	3.413800	-10.191000	26.160469	0.000666	20.768851
1497.435310	-2.989600	3.413600	-10.204000	26.141073	0.000666	20.778759
1498.429269	-3.005000	3.413100	-10.255000	26.117877	0.000665	20.787220
1499.435121	-3.017200	3.411700	-10.293000	26.115661	0.000664	20.816287
1500.431604	-2.998700	3.411900	-10.230000	26.131783	0.000665	20.812572
1501.433152	-3.003800	3.412400	-10.248000	26.103322	0.000663	20.807208
1502.431706	-3.015000	3.409500	-10.278000	26.134241	0.000663	20.796076
1503.430095	-2.994000	3.411700	-10.212000	26.143407	0.000662	20.808132
1504.430555	-3.002200	3.409700	-10.235000	26.198788	0.000661	20.807831
1505.431527	-2.998600	3.410200	-10.225000	26.215849	0.000661	20.812172
1506.432693	-2.986700	3.409400	-10.182000	26.234131	0.000663	20.804941
1507.430874	-2.997900	3.410200	-10.223000	26.302796	0.000662	20.802347
1508.433975	-2.984200	3.410200	-10.176000	26.270138	0.000661	20.806986
1509.444844	-3.031600	3.407700	-10.329000	26.279349	0.000661	20.802966
1510.435802	-3.010000	3.407000	-10.254000	26.251290	0.000659	20.831192
1511.434891	-3.006400	3.407100	-10.241000	26.267110	0.000658	20.808684
1512.437463	-2.986900	3.407700	-10.176000	26.269346	0.000659	20.814725
1513.435515	-3.001900	3.407300	-10.226000	26.292593	0.000660	20.802999
1514.435650	-3.028500	3.405100	-10.311000	26.288818	0.000658	20.837137
1515.439619	-2.990400	3.406500	-10.186000	26.308610	0.000657	20.818621
1516.436334	-3.023200	3.404300	-10.291000	26.268062	0.000656	20.814382
1517.436419	-3.003600	3.405100	-10.226000	26.256788	0.000655	20.804949
1518.440397	-2.978100	3.406200	-10.142000	26.264563	0.000657	20.797589
1519.439822	-3.014900	3.404300	-10.263000	26.306501	0.000655	20.816028
1520.440798	-3.008700	3.404900	-10.243000	26.335855	0.000655	20.809493
1521.452035	-2.997500	3.403200	-10.199000	26.371141	0.000655	20.804178
1522.442274	-2.985300	3.403600	-10.160000	26.378394	0.000654	20.824744
1523.441482	-2.999900	3.402700	-10.205000	26.394085	0.000652	20.811117
1524.437629	-3.023300	3.403000	-10.288000	26.413752	0.000653	20.810969
1525.439193	-3.024900	3.402700	-10.291000	26.394906	0.000654	20.813838
1526.439479	-3.000200	3.402600	-10.208000	26.380880	0.000652	20.820130
1527.439255	-3.007900	3.402100	-10.232000	26.395976	0.000651	20.817759
1528.440579	-3.033100	3.400900	-10.314000	26.354981	0.000651	20.850524
1529.439744	-2.999700	3.401000	-10.201000	26.339244	0.000651	20.809105
1530.440713	-2.997000	3.400300	-10.190000	26.303883	0.000650	20.825725
1531.439841	-3.006900	3.401000	-10.225000	26.286845	0.000649	20.815714
1532.440090	-3.015000	3.399600	-10.249000	26.285286	0.000649	20.832639
1533.440961	-3.009700	3.398900	-10.228000	26.298296	0.000649	20.840497
1534.440911	-2.993100	3.399600	-10.175000	26.328097	0.000648	20.813550
1535.441913	-3.014900	3.398000	-10.243000	26.370558	0.000646	20.816869
1536.442672	-3.006100	3.399400	-10.217000	26.397100	0.000647	20.818889
1537.442014	-2.997100	3.397100	-10.181000	26.438993	0.000647	20.810260
1538.442385	-3.012800	3.396500	-10.232000	26.447037	0.000646	20.823086
1539.444285	-2.992300	3.396900	-10.163000	26.465238	0.000645	20.824311
1540.441998	-3.013300	3.395300	-10.229000	26.475140	0.000644	20.805341
1541.443291	-3.011300	3.396500	-10.227000	26.455631	0.000645	20.839310
1542.443872	-3.001700	3.395600	-10.191000	26.431272	0.000645	20.819569
1543.443942	-2.988500	3.396400	-10.149000	26.452923	0.000643	20.821416
1544.442601	-2.980400	3.396800	-10.123000	26.461915	0.000644	20.814333
1545.443555	-2.987800	3.393700	-10.139000	26.439891	0.000642	20.830128
1546.442853	-2.992700	3.395100	-10.160000	26.430530	0.000640	20.840159
1547.444241	-3.000300	3.392900	-10.179000	26.434657	0.000641	20.828661
1548.451078	-3.000600	3.393700	-10.182000	26.439998	0.000642	20.835451
1549.443274	-3.015800	3.392200	-10.229000	26.392847	0.000641	20.836898
1550.445173	-3.001300	3.393300	-10.184000	26.394660	0.000640	20.829238
1551.450498	-2.984000	3.392500	-10.122000	26.401264	0.000641	20.842988
1552.451597	-2.994600	3.392600	-10.159000	26.443497	0.000639	20.850821
1553.446902	-2.981500	3.392600	-10.113000	26.437069	0.000640	20.828714
1554.448067	-2.995000	3.392000	-10.158000	26.459114	0.000639	20.830483
1555.449008	-2.991100	3.390200	-10.139000	26.445810	0.000638	20.832759
1556.446353	-2.992200	3.390500	-10.144000	26.483127	0.000637	20.832334
1557.448482	-2.994600	3.389600	-10.149000	26.492660	0.000636	20.844287
1558.446904	-3.011400	3.389500	-10.206000	26.530844	0.000635	20.849951
1559.446595	-3.009800	3.390100	-10.203000	26.516020	0.000634	20.849749
1560.450560	-3.004300	3.389400	-10.180000	26.524515	0.000635	20.856866
1561.446932	-3.006800	3.389400	-10.190000	26.488070	0.000634	20.852475
1562.447278	-2.980700	3.389400	-10.102000	26.465349	0.000634	20.841017
1563.452339	-2.996900	3.389500	-10.157000	26.433648	0.000633	20.853724
1564.449526	-2.986000	3.387300	-10.114000	26.473520	0.000634	20.850178
1565.451168	-3.007100	3.387500	-10.186000	26.484226	0.000634	20.840077
1566.452061	-2.974000	3.387400	-10.073000	26.507583	0.000632	20.844113
1567.450791	-3.002500	3.387800	-10.171000	26.503612	0.000632	20.861458
1568.452299	-2.988700	3.386100	-10.118000	26.477971	0.000633	20.851807
1569.451558	-2.992600	3.386200	-10.133000	26.472753	0.000631	20.832338
1570.455181	-3.016200	3.385900	-10.211000	26.402319	0.000632	20.851634
1571.458990	-2.991100	3.386200	-10.127000	26.442541	0.000630	20.865981
1572.455093	-2.986600	3.386100	-10.113000	26.427072	0.000628	20.852331
1573.459204	-2.987400	3.385300	-10.112000	26.424561	0.000632	20.864979
1574.456597	-2.988700	3.383800	-10.112000	26.422133	0.000629	20.865858
1575.456734	-2.964600	3.385600	-10.036000	26.454532	0.000629	20.851955
1576.461398	-3.021800	3.383300	-10.223000	26.462527	0.000628	20.870422
1577.458505	-2.965700	3.384200	-10.035000	26.501237	0.000629	20.851485
1578.457304	-2.983200	3.383200	-10.091000	26.485424	0.000628	20.862143
1579.463522	-2.997700	3.382300	-10.137000	26.489690	0.000626	20.885870
1580.459624	-3.007500	3.382300	-10.171000	26.464020	0.000625	20.852483
1581.458841	-2.991500	3.381800	-10.115000	26.474919	0.000625	20.869601
1582.462282	-2.991400	3.380300	-10.110000	26.504416	0.000624	20.858474
1583.460516	-3.006100	3.381200	-10.164000	26.515561	0.000622	20.853555
1584.460045	-2.971500	3.380300	-10.044000	26.521570	0.000624	20.889465
1585.459986	-2.985800	3.380600	-10.092000	26.511517	0.000623	20.885998
1586.462341	-3.010900	3.379300	-10.173000	26.523113	0.000623	20.877266
1587.458472	-3.000600	3.379800	-10.140000	26.519860	0.000621	20.863565
1588.461291	-2.991300	3.378300	-10.103000	26.513256	0.000621	20.846023
1589.461141	-3.021100	3.378900	-10.207000	26.522764	0.000622	20.859372
1590.459863	-3.016000	3.377800	-10.186000	26.517477	0.000622	20.878713
1591.463285	-2.994300	3.379500	-10.118000	26.547170	0.000620	20.885326
1592.462595	-2.982700	3.379900	-10.081000	26.564528	0.000620	20.871007
1593.459370	-3.032600	3.375700	-10.236000	26.574376	0.000620	20.871898
1594.462652	-2.982600	3.378700	-10.076000	26.545332	0.000620	20.905762
1595.461988	-2.992600	3.377500	-10.106000	26.487635	0.000617	20.904665
1596.459180	-3.003500	3.374400	-10.134000	26.475817	0.000618	20.889469
1597.459972	-3.006100	3.374900	-10.144000	26.462314	0.000617	20.885853
1598.459396	-2.975500	3.376800	-10.047000	26.445975	0.000616	20.897879
1599.462973	-2.977400	3.375300	-10.048000	26.424500	0.000616	20.880090
1600.469902	-3.007700	3.375100	-10.149000	26.401486	0.000617	20.887779
1601.463850	-3.000200	3.374800	-10.124000	26.376807	0.000615	20.881941
1602.462194	-2.988200	3.373600	-10.080000	26.402479	0.000615	20.884984
1603.462093	-2.982400	3.374200	-10.063000	26.394385	0.000614	20.875427
1604.466016	-3.002700	3.373000	-10.127000	26.375691	0.000614	20.873708
1605.461189	-3.004400	3.372300	-10.131000	26.344352	0.000613	20.875402
1606.463617	-3.014000	3.371400	-10.161000	26.331392	0.000612	20.891774
1607.461536	-2.980200	3.374200	-10.055000	26.312471	0.000611	20.873234
1608.461347	-2.995000	3.372400	-10.099000	26.328488	0.000613	20.884588
1609.460168	-2.993400	3.371500	-10.091000	26.360245	0.000612	20.880469
1610.462162	-3.011300	3.370400	-10.148000	26.371223	0.000611	20.890553
1611.463374	-2.988100	3.371400	-10.073000	26.409084	0.000612	20.886406
1612.462868	-2.993100	3.371200	-10.089000	26.425083	0.000614	20.866452
1613.464828	-3.026900	3.368900	-10.196000	26.436749	0.000609	20.870591
1614.467814	-2.998600	3.370000	-10.104000	26.457079	0.000609	20.870162
1615.465531	-2.967700	3.370800	-10.002000	26.461104	0.000611	20.880844
1616.462798	-2.980400	3.369200	-10.040000	26.464451	0.000610	20.887053
1617.465314	-2.981000	3.368700	-10.042000	26.443054	0.000608	20.857963
1618.467484	-3.012900	3.367600	-10.144000	26.424701	0.000608	20.876973
1619.463617	-2.994400	3.368400	-10.085000	26.420057	0.000608	20.870409
1620.467925	-3.017200	3.367900	-10.161000	26.426338	0.000608	20.887626
1621.466243	-3.014000	3.367800	-10.149000	26.438854	0.000608	20.874602
1622.465925	-2.998100	3.367300	-10.094000	26.442673	0.000606	20.867536
1623.466331	-3.022200	3.366100	-10.172000	26.431621	0.000607	20.861170
1624.468336	-2.970800	3.367600	-10.004000	26.392441	0.000606	20.875843
1625.467080	-3.024700	3.364800	-10.176000	26.368233	0.000603	20.863842
1626.466725	-3.000600	3.364800	-10.096000	26.332151	0.000601	20.856503
1627.470498	-2.976500	3.365300	-10.017000	26.336373	0.000605	20.865961
1628.469577	-2.995400	3.364900	-10.077000	26.331232	0.000603	20.869803
1629.468555	-2.969200	3.365300	-9.991800	26.320553	0.000601	20.860020
1630.470663	-2.957600	3.365100	-9.951700	26.332151	0.000601	20.849865
1631.470720	-2.997300	3.363100	-10.078000	26.331183	0.000601	20.870228
1632.471938	-2.991000	3.364600	-10.063000	26.315708	0.000601	20.862262
1633.471303	-3.001200	3.362700	-10.091000	26.323630	0.000600	20.842250
1634.472126	-2.992800	3.364300	-10.067000	26.372450	0.000598	20.887993
1635.474110	-2.998000	3.362600	-10.081000	26.378534	0.000599	20.849065
1636.474130	-2.989300	3.363400	-10.053000	26.425361	0.000598	20.844448
1637.473001	-3.006300	3.362000	-10.106000	26.427617	0.000597	20.853353
1638.473352	-3.013100	3.361600	-10.128000	26.386923	0.000597	20.857971
1639.470565	-3.002200	3.360300	-10.087000	26.355363	0.000597	20.840951
1640.471556	-2.998700	3.361100	-10.078000	26.316705	0.000596	20.850937
1641.472592	-3.004100	3.361000	-10.096000	26.308036	0.000596	20.846967
1642.472047	-3.018200	3.359200	-10.137000	26.312951	0.000597	20.834837
1643.472214	-2.996100	3.361400	-10.069000	26.335154	0.000595	20.847668
1644.471801	-3.009800	3.360500	-10.113000	26.377935	0.000594	20.852256
1645.471682	-2.998600	3.360800	-10.077000	26.402319	0.000593	20.842625
1646.473240	-3.001700	3.357200	-10.076000	26.381832	0.000595	20.846690
1647.471677	-2.993900	3.358700	-10.055000	26.340020	0.000592	20.846394
1648.471262	-2.999800	3.359100	-10.075000	26.339696	0.000591	20.840378
1649.472264	-2.981500	3.358900	-10.014000	26.344266	0.000591	20.828376
1650.476923	-3.004600	3.357700	-10.087000	26.373319	0.000591	20.858049
1651.475382	-2.998300	3.358400	-10.069000	26.385631	0.000588	20.862836
1652.479051	-3.013300	3.357600	-10.116000	26.438546	0.000591	20.832095
1653.477250	-2.969300	3.357100	-9.967700	26.462674	0.000589	20.844967
1654.476217	-3.003700	3.356700	-10.082000	26.435539	0.000589	20.848039
1655.475721	-2.988600	3.356400	-10.030000	26.403681	0.000590	20.843520
1656.480545	-3.009100	3.354100	-10.092000	26.367276	0.000590	20.839174
1657.477375	-2.993900	3.355500	-10.045000	26.347215	0.000591	20.836082
1658.476504	-2.997000	3.354700	-10.053000	26.338001	0.000589	20.837253
1659.476235	-2.983900	3.354100	-10.008000	26.359395	0.000587	20.818926
1660.477307	-2.993600	3.355000	-10.042000	26.373680	0.000587	20.827593
1661.478575	-3.008200	3.353500	-10.087000	26.419388	0.000587	20.825643
1662.480255	-3.006400	3.351800	-10.076000	26.398106	0.000586	20.836020
1663.481081	-3.004300	3.352100	-10.070000	26.435149	0.000586	20.844802
1664.477288	-2.992100	3.353200	-10.032000	26.470653	0.000585	20.832124
1665.478506	-2.988000	3.352900	-10.017000	26.448780	0.000585	20.819623
1666.482363	-2.995600	3.352600	-10.042000	26.431719	0.000584	20.822390
1667.481483	-3.019700	3.351600	-10.118000	26.411906	0.000584	20.826183
1668.478570	-3.002600	3.351000	-10.060000	26.432437	0.000582	20.836387
1669.483197	-2.993900	3.350400	-10.029000	26.464811	0.000581	20.832417
1670.481336	-3.001800	3.351300	-10.058000	26.470000	0.000578	20.841425
1671.489054	-2.981200	3.350700	-9.985900	26.481195	0.000581	20.852676
1672.488947	-2.997200	3.350000	-10.039000	26.457559	0.000580	20.835558
1673.481660	-2.994000	3.349000	-10.026000	26.469475	0.000579	20.819087
1674.482833	-2.998400	3.348300	-10.039000	26.480969	0.000578	20.810251
1675.481701	-2.983300	3.349300	-9.990700	26.478778	0.000575	20.822748
1676.486493	-3.000800	3.348300	-10.046000	26.451315	0.000578	20.816481
1677.483674	-2.999500	3.348100	-10.041000	26.425024	0.000577	20.827988
1678.484567	-2.990100	3.348100	-10.010000	26.422141	0.000576	20.825564
1679.485163	-3.003100	3.347400	-10.051000	26.465168	0.000575	20.830404
1680.482750	-2.998400	3.345500	-10.030000	26.462588	0.000574	20.826863
1681.485099	-3.005200	3.345100	-10.052000	26.486539	0.000574	20.827704
1682.489956	-2.988300	3.346500	-9.997700	26.491655	0.000576	20.826681
1683.484091	-3.015000	3.346100	-10.087000	26.473905	0.000574	20.826859
1684.485700	-3.003500	3.345000	-10.046000	26.487983	0.000573	20.844327
1685.487437	-2.993900	3.345800	-10.016000	26.509383	0.000573	20.835018
1686.486835	-3.029900	3.344000	-10.131000	26.498086	0.000573	20.835043
1687.487797	-3.000200	3.343400	-10.030000	26.493915	0.000570	20.838436
1688.488643	-3.005000	3.344200	-10.048000	26.504662	0.000571	20.814626
1689.487117	-3.015000	3.342600	-10.076000	26.504789	0.000573	20.836090
1690.483943	-2.997900	3.344400	-10.024000	26.507590	0.000570	20.832742
1691.487977	-2.996200	3.343700	-10.016000	26.488004	0.000568	20.823960
1692.484572	-3.004500	3.342000	-10.040000	26.503296	0.000568	20.832693
1693.486154	-3.007100	3.341300	-10.045000	26.542575	0.000570	20.829501
1694.489929	-2.996600	3.340500	-10.009000	26.573752	0.000568	20.830969
1695.492525	-3.005500	3.342500	-10.045000	26.612828	0.000569	20.831843
1696.492283	-3.028300	3.339500	-10.112000	26.626334	0.000567	20.812704
1697.494434	-3.021200	3.340300	-10.091000	26.636509	0.000568	20.808235
1698.491814	-3.021100	3.341000	-10.092000	26.661335	0.000566	20.812803
1699.488553	-2.992600	3.341500	-9.999100	26.678835	0.000566	20.820439
1700.487727	-3.022200	3.338200	-10.088000	26.703163	0.000568	20.824983
1701.490985	-3.003200	3.339500	-10.028000	26.705271	0.000567	20.840378
1702.492206	-3.026000	3.339200	-10.103000	26.714605	0.000565	20.824158
1703.493827	-3.003800	3.338900	-10.027000	26.728483	0.000566	20.811558
1704.491996	-3.006600	3.337700	-10.033000	26.717488	0.000564	20.827057
1705.493264	-3.002500	3.338300	-10.022000	26.714831	0.000564	20.816799
1706.491158	-3.005000	3.337300	-10.028000	26.706588	0.000563	20.808037
1707.491464	-2.990400	3.337700	-9.978300	26.686636	0.000563	20.826859
1708.490276	-3.015300	3.335500	-10.057000	26.659079	0.000564	20.811484
1709.491553	-3.005700	3.336000	-10.027000	26.634779	0.000561	20.825935
1710.493674	-3.034200	3.334300	-10.117000	26.638798	0.000562	20.809113
1711.490718	-2.995400	3.335600	-9.990700	26.662061	0.000561	20.814481
1712.490578	-3.005100	3.335300	-10.022000	26.674250	0.000560	20.803028
1713.493814	-2.968800	3.335700	-9.902200	26.690409	0.000560	20.806945
1714.499491	-2.997000	3.336200	-9.997800	26.712256	0.000560	20.812313
1715.493817	-3.004800	3.333400	-10.015000	26.727347	0.000559	20.834597
1716.493843	-2.998400	3.334300	-9.996400	26.695552	0.000559	20.823020
1717.498362	-3.014600	3.334500	-10.051000	26.717718	0.000559	20.813537
1718.493165	-3.003700	3.332900	-10.010000	26.723825	0.000556	20.812564
1719.493268	-3.007400	3.332800	-10.022000	26.756264	0.000554	20.797288
1720.497106	-3.003900	3.331900	-10.007000	26.716082	0.000555	20.830384
1721.492970	-2.984700	3.333100	-9.947600	26.738150	0.000556	20.808474
1722.494595	-3.003200	3.333000	-10.008000	26.763022	0.000554	20.794600
1723.500113	-3.005400	3.330700	-10.009000	26.734204	0.000554	20.809249
1724.498096	-3.004700	3.331900	-10.010000	26.695113	0.000553	20.789863
1725.496409	-3.005600	3.331000	-10.011000	26.622027	0.000555	20.805530
1726.499333	-2.994400	3.330500	-9.971500	26.598300	0.000553	20.817714
1727.495210	-2.993600	3.330300	-9.967800	26.565902	0.000552	20.797474
1728.496637	-3.013400	3.328100	-10.027000	26.530622	0.000551	20.804211
1729.499616	-2.989500	3.330100	-9.954700	26.506344	0.000549	20.816790
1730.500481	-2.998000	3.330200	-9.982600	26.466177	0.000550	20.799177
1731.499169	-2.999300	3.329600	-9.984600	26.483106	0.000550	20.826624
1732.496367	-3.012100	3.328800	-10.026000	26.522234	0.000550	20.816168
1733.496986	-2.991100	3.328500	-9.955100	26.536164	0.000550	20.805040
1734.498213	-2.983200	3.328400	-9.928200	26.509576	0.000549	20.798703
1735.496863	-3.007800	3.327400	-10.007000	26.510622	0.000547	20.791693
1736.502070	-2.986100	3.327500	-9.935100	26.499670	0.000547	20.802970
1737.496367	-2.991100	3.326300	-9.948100	26.465086	0.000547	20.805667
1738.497320	-2.990400	3.327800	-9.950200	26.479935	0.000545	20.806842
1739.497046	-3.005700	3.325900	-9.995400	26.497045	0.000545	20.807918
1740.498016	-2.991900	3.324800	-9.945600	26.506303	0.000544	20.812008
1741.499005	-3.022300	3.323500	-10.042000	26.527509	0.000543	20.801556
1742.503015	-2.980300	3.325100	-9.908800	26.593346	0.000543	20.803725
1743.498960	-3.000000	3.324200	-9.971700	26.594539	0.000540	20.796864
1744.500100	-2.988700	3.324100	-9.932900	26.598112	0.000542	20.801877
1745.503582	-2.984000	3.324400	-9.918900	26.623812	0.000541	20.825816
1746.502222	-3.017500	3.322900	-10.026000	26.616240	0.000539	20.790230
1747.501235	-3.003400	3.323800	-9.981500	26.668324	0.000539	20.799915
1748.504240	-2.996800	3.321500	-9.952900	26.697168	0.000537	20.807576
1749.503021	-3.006200	3.322500	-9.987200	26.725465	0.000539	20.799515
1750.502089	-3.007100	3.321100	-9.985400	26.706305	0.000538	20.803960
1751.507046	-2.995500	3.321500	-9.948700	26.725121	0.000537	20.802014
1752.503033	-3.009900	3.320800	-9.993700	26.719162	0.000537	20.810247
1753.502430	-2.991200	3.321800	-9.935600	26.686250	0.000539	20.783798
1754.504915	-2.985200	3.320200	-9.910300	26.693596	0.000536	20.778854
1755.506273	-2.989400	3.320600	-9.925300	26.699432	0.000536	20.795627
1756.505898	-3.008300	3.320500	-9.987400	26.678130	0.000536	20.791755
1757.510923	-2.980300	3.319800	-9.893300	26.695216	0.000534	20.771000
1758.507817	-3.008000	3.318900	-9.982300	26.688088	0.000532	20.796551
1759.505201	-2.993600	3.319800	-9.936900	26.711493	0.000534	20.782149
1760.507629	-2.996100	3.318200	-9.941000	26.713581	0.000531	20.806058
1761.510037	-2.998500	3.317600	-9.946700	26.710603	0.000534	20.783625
1762.504559	-3.008800	3.317400	-9.980200	26.721799	0.000532	20.783501
1763.509193	-3.013600	3.316700	-9.993200	26.717555	0.000532	20.798674
1764.508747	-3.006700	3.317400	-9.973800	26.761607	0.000532	20.788911
1765.506757	-3.014100	3.316000	-9.993400	26.783576	0.000532	20.788239
1766.510254	-2.992300	3.318100	-9.926900	26.793828	0.000530	20.806607
1767.509166	-3.001900	3.314200	-9.947500	26.789735	0.000529	20.781629
1768.505758	-2.996300	3.316000	-9.934800	26.815025	0.000530	20.784771
1769.507772	-3.010400	3.315800	-9.979200	26.816341	0.000528	20.793681
1770.508661	-2.980800	3.316000	-9.882600	26.809964	0.000529	20.792011
1771.510496	-2.981500	3.315000	-9.882500	26.778815	0.000527	20.775391
1772.510380	-3.006500	3.314800	-9.964400	26.724752	0.000527	20.781254
1773.514304	-3.016700	3.313600	-9.995500	26.756473	0.000527	20.766204
1774.507958	-2.999200	3.312500	-9.934400	26.729370	0.000527	20.759344
1775.510563	-3.000400	3.313300	-9.940500	26.707974	0.000524	20.789517
1776.508680	-3.011300	3.311200	-9.969500	26.666097	0.000525	20.786297
1777.508679	-3.008700	3.311800	-9.963300	26.680767	0.000523	20.765957
1778.506339	-3.007300	3.312200	-9.959800	26.697771	0.000525	20.786845
1779.509702	-2.995700	3.310800	-9.917100	26.736218	0.000524	20.788041
1780.508390	-3.006400	3.311400	-9.954400	26.759106	0.000522	20.789715
1781.508852	-2.986600	3.312300	-9.891100	26.751683	0.000523	20.776088
1782.508500	-3.025600	3.309000	-10.011000	26.753914	0.000522	20.799668
1783.511950	-2.998200	3.309100	-9.920400	26.781193	0.000521	20.767351
1784.513946	-3.010800	3.307600	-9.956700	26.810502	0.000520	20.785439
1785.509009	-2.998600	3.310000	-9.924600	26.789383	0.000518	20.774162
1786.514005	-2.982600	3.309400	-9.869000	26.767168	0.000518	20.758465
1787.511744	-2.985900	3.308700	-9.877800	26.745544	0.000518	20.760906
1788.512401	-3.018100	3.308000	-9.983100	26.748595	0.000518	20.764448
1789.519071	-3.008400	3.308500	-9.952100	26.765274	0.000517	20.767940
1790.514086	-3.006400	3.306800	-9.941100	26.771577	0.000517	20.764320
1791.512631	-3.022000	3.307000	-9.992700	26.737842	0.000516	20.788725
1792.513643	-2.992100	3.306600	-9.891300	26.740746	0.000516	20.781213
1793.513482	-3.022400	3.306400	-9.991100	26.783838	0.000515	20.772855
1794.511652	-2.982900	3.307500	-9.865000	26.820843	0.000516	20.789199
1795.511338	-3.008100	3.306300	-9.944400	26.823525	0.000515	20.756808
1796.522692	-3.004300	3.304600	-9.926300	26.826252	0.000514	20.762394
1797.516885	-3.010300	3.304500	-9.946700	26.833277	0.000513	20.765664
1798.514870	-3.007800	3.304600	-9.938200	26.848215	0.000513	20.764089
1799.515251	-2.996400	3.304400	-9.899300	26.880556	0.000513	20.761520
1800.513075	-3.020900	3.303000	-9.977100	26.866532	0.000511	20.767808
1801.514604	-3.009200	3.302800	-9.938100	26.861472	0.000510	20.768884
1802.519372	-3.017700	3.303300	-9.966500	26.889958	0.000510	20.778561
1803.513014	-2.990400	3.303400	-9.877700	26.903805	0.000510	20.746965
1804.516684	-2.993700	3.302300	-9.884900	26.898048	0.000508	20.761091
1805.514289	-3.002500	3.301800	-9.912800	26.908923	0.000507	20.753534
1806.516361	-2.994800	3.302500	-9.888800	26.935821	0.000509	20.746442
1807.518066	-2.993000	3.302100	-9.882300	26.945378	0.000508	20.759372
1808.515940	-3.001400	3.301000	-9.907200	26.993251	0.000507	20.752511
1809.516294	-2.985800	3.300900	-9.854500	26.996351	0.000506	20.763215
1810.521001	-2.982900	3.300900	-9.844900	27.004891	0.000506	20.759001
1811.516787	-3.021900	3.300300	-9.971200	27.016900	0.000504	20.765388
1812.517661	-2.984400	3.299100	-9.844500	27.039113	0.000503	20.744104
1813.521337	-2.993900	3.300000	-9.878900	27.037100	0.000505	20.764839
1814.514296	-2.988300	3.300600	-9.861100	27.049707	0.000506	20.745275
1815.517169	-3.005500	3.299400	-9.915500	27.065688	0.000503	20.755183
1816.514330	-2.991100	3.298200	-9.863900	27.045538	0.000503	20.754832
1817.516547	-2.978900	3.297900	-9.823000	26.992661	0.000502	20.759030
1818.518684	-2.994500	3.297700	-9.873900	26.933594	0.000502	20.760799
1819.517828	-2.984300	3.298800	-9.843500	26.877382	0.000500	20.749794
1820.515237	-2.996000	3.297400	-9.878600	26.815459	0.000501	20.774776
1821.516291	-2.980100	3.298500	-9.828500	26.796817	0.000498	20.748920
1822.517278	-2.985700	3.295800	-9.839600	26.748591	0.000499	20.757805
1823.519123	-2.990800	3.296500	-9.858100	26.707560	0.000499	20.745003
1824.517165	-3.006300	3.294300	-9.902000	26.712030	0.000496	20.750445
1825.520142	-2.989300	3.294900	-9.847900	26.740647	0.000498	20.752189
1826.521191	-2.999800	3.295200	-9.883600	26.733499	0.000498	20.746899
1827.519005	-2.979700	3.294700	-9.816600	26.730448	0.000496	20.727235
1828.520026	-3.003600	3.293900	-9.892600	26.730891	0.000497	20.748545
1829.521463	-3.018600	3.293100	-9.938100	26.727992	0.000493	20.749897
1830.520688	-2.996400	3.293100	-9.865900	26.777712	0.000496	20.754367
1831.519940	-3.014000	3.291700	-9.919800	26.757428	0.000493	20.746302
1832.521115	-2.984900	3.293600	-9.829500	26.762743	0.000493	20.728411
1833.521232	-2.988900	3.293200	-9.843000	26.765347	0.000491	20.730555
1834.522019	-2.994300	3.291500	-9.853900	26.792228	0.000492	20.741935
1835.527431	-2.980400	3.293700	-9.815400	26.804613	0.000492	20.741110
1836.524098	-2.971900	3.291900	-9.781600	26.817600	0.000494	20.734728
1837.526045	-3.011100	3.291300	-9.908900	26.782924	0.000491	20.743485
1838.525350	-3.008000	3.290000	-9.894000	26.766020	0.000489	20.744508
1839.528192	-3.006300	3.289600	-9.888600	26.742887	0.000490	20.722197
1840.530637	-3.007100	3.289400	-9.890900	26.696942	0.000490	20.758510
1841.527902	-2.986200	3.290700	-9.825300	26.695474	0.000488	20.746603
1842.528551	-2.998300	3.290500	-9.864300	26.673184	0.000489	20.739840
1843.529749	-2.997900	3.288100	-9.856500	26.655684	0.000487	20.744533
1844.529647	-2.992500	3.287400	-9.835700	26.635804	0.000485	20.742092
1845.532400	-2.978600	3.289000	-9.794700	26.590425	0.000486	20.748631
1846.535329	-3.009300	3.287000	-9.891200	26.598218	0.000488	20.746034
1847.529705	-2.983500	3.286600	-9.804100	26.632523	0.000485	20.747802
1848.529517	-3.013700	3.286900	-9.905100	26.653580	0.000486	20.732460
1849.528280	-3.001700	3.286300	-9.863200	26.626371	0.000484	20.761533
1850.530074	-2.994800	3.286100	-9.839800	26.595909	0.000484	20.724745
1851.530328	-3.000600	3.285700	-9.857900	26.591172	0.000482	20.735631
1852.537406	-2.999800	3.284100	-9.849400	26.619522	0.000482	20.747060
1853.530474	-2.997500	3.285100	-9.846300	26.641489	0.000481	20.750177
1854.533503	-2.995300	3.284400	-9.836500	26.681235	0.000479	20.741770
1855.535093	-3.018200	3.282900	-9.907900	26.744707	0.000480	20.731140
1856.531163	-2.983000	3.284500	-9.796600	26.772208	0.000478	20.753101
1857.535240	-2.992400	3.284000	-9.826500	26.856720	0.000480	20.736130
1858.534974	-3.011700	3.282700	-9.885200	26.875287	0.000477	20.747213
1859.532955	-3.010100	3.283400	-9.882600	26.879055	0.000476	20.747683
1860.535466	-3.027400	3.281700	-9.933500	26.885538	0.000476	20.738554
1861.539621	-3.013800	3.281800	-9.889400	26.881344	0.000475	20.747139
1862.532933	-3.002000	3.281700	-9.851000	26.914475	0.000477	20.734934
1863.536585	-2.991600	3.281800	-9.817000	26.919317	0.000473	20.730794
1864.535604	-3.009300	3.281000	-9.872600	26.864868	0.000474	20.740055
1865.534549	-2.991700	3.280200	-9.812100	26.824563	0.000474	20.743152
1866.537339	-2.991700	3.281000	-9.815200	26.787656	0.000474	20.738760
1867.534088	-2.984400	3.280500	-9.788300	26.804137	0.000474	20.721191
1868.539862	-3.003800	3.279100	-9.848900	26.784626	0.000472	20.741403
1869.535789	-2.991400	3.279100	-9.807900	26.775793	0.000471	20.724935
1870.536274	-3.018400	3.277500	-9.890700	26.771671	0.000470	20.742603
1871.540872	-2.982900	3.279200	-9.780800	26.771503	0.000468	20.729632
1872.537437	-2.997300	3.278000	-9.824100	26.805331	0.000469	20.734720
1873.539003	-3.009600	3.276400	-9.858900	26.795907	0.000470	20.748953
1874.537688	-3.006200	3.275600	-9.846300	26.798585	0.000469	20.729834
1875.535805	-2.981500	3.278100	-9.772400	26.791462	0.000468	20.725516
1876.539042	-2.994400	3.277000	-9.811800	26.830407	0.000469	20.725793
1877.538874	-2.995300	3.274900	-9.807700	26.868280	0.000467	20.736847
1878.538207	-2.997400	3.274500	-9.813500	26.879425	0.000466	20.737623
1879.539508	-3.002200	3.274800	-9.830200	26.916976	0.000465	20.755468
1880.538933	-2.983400	3.275500	-9.771600	26.962518	0.000464	20.758115
1881.536289	-2.994600	3.274900	-9.805600	26.958869	0.000464	20.734056
1882.537901	-3.042900	3.272400	-9.954900	26.955597	0.000463	20.757319
1883.536489	-2.971900	3.275900	-9.734300	26.958696	0.000461	20.747634
1884.539301	-3.032600	3.270500	-9.916700	26.979521	0.000461	20.766679
1885.540274	-2.985800	3.272800	-9.770700	26.991013	0.000460	20.747416
1886.540281	-2.989400	3.273000	-9.783500	26.992075	0.000461	20.734258
1887.541454	-3.012900	3.271700	-9.856200	26.955424	0.000460	20.748137
1888.539758	-2.981600	3.271600	-9.753300	26.925120	0.000459	20.733310
1889.540952	-2.993000	3.271900	-9.792000	26.893330	0.000458	20.734060
1890.540545	-2.983700	3.272000	-9.761300	26.924952	0.000459	20.743098
1891.540308	-3.004700	3.270800	-9.827000	26.926637	0.000460	20.744319
1892.544312	-3.012900	3.270600	-9.852900	26.904081	0.000458	20.736336
1893.539405	-2.981900	3.272100	-9.755500	26.852554	0.000459	20.757546
1894.541645	-3.006000	3.269300	-9.827100	26.871191	0.000456	20.742620
1895.550711	-3.004400	3.271100	-9.827000	26.885912	0.000455	20.756000
1896.542712	-2.991200	3.268600	-9.775700	26.928027	0.000456	20.752355
1897.546261	-2.988500	3.268700	-9.767400	26.952919	0.000455	20.768852
1898.545857	-3.004100	3.268200	-9.817000	26.991387	0.000456	20.754429
1899.545906	-3.008600	3.268000	-9.831400	27.054292	0.000453	20.744195
1900.545318	-2.982400	3.267600	-9.744300	27.055382	0.000454	20.744344
1901.549390	-2.993400	3.267300	-9.779400	27.058014	0.000452	20.768328
1902.546338	-2.992200	3.267100	-9.774800	27.091739	0.000451	20.755777
1903.545854	-3.010500	3.265800	-9.830300	27.083322	0.000452	20.752528
1904.545051	-3.007800	3.266000	-9.822200	27.030869	0.000452	20.758573
1905.545837	-3.004000	3.265900	-9.810600	27.024514	0.000451	20.765459
1906.547935	-2.989100	3.265100	-9.759000	26.999451	0.000451	20.763014
1907.549604	-2.989400	3.263800	-9.755200	26.947610	0.000450	20.742649
1908.549354	-3.005700	3.262900	-9.805900	26.913237	0.000447	20.746966
1909.550169	-3.009300	3.264700	-9.823000	26.898693	0.000447	20.764110
1910.549832	-3.014100	3.262900	-9.834000	26.939393	0.000448	20.751456
1911.553114	-2.976900	3.264100	-9.715800	26.955900	0.000447	20.762366
1912.550900	-2.983100	3.262700	-9.732300	26.953641	0.000445	20.763888
1913.548841	-2.971200	3.262900	-9.693400	26.998484	0.000445	20.765834
1914.550286	-2.980800	3.263100	-9.725600	27.034641	0.000444	20.746245
1915.547609	-2.996600	3.261300	-9.772100	27.055833	0.000444	20.746220
1916.548593	-3.007900	3.260100	-9.805500	27.045908	0.000444	20.766584
1917.550277	-3.003500	3.260900	-9.793500	27.085905	0.000442	20.757971
1918.552051	-3.009400	3.260800	-9.812000	27.112581	0.000439	20.752083
1919.552531	-2.988500	3.259700	-9.740100	27.092382	0.000441	20.767331
1920.556305	-3.003600	3.260200	-9.791100	27.088811	0.000441	20.752359
1921.555350	-3.020100	3.259600	-9.843200	27.055981	0.000440	20.752532
1922.556773	-3.003700	3.259500	-9.789100	27.068514	0.000439	20.761818
1923.555581	-2.999600	3.259000	-9.774900	27.108760	0.000438	20.780009
1924.553146	-3.015000	3.258400	-9.823700	27.119702	0.000437	20.770151
1925.554478	-3.011500	3.257700	-9.810200	27.123797	0.000437	20.757674
1926.553797	-3.002200	3.257100	-9.777500	27.150915	0.000437	20.758396
1927.553144	-3.010300	3.257200	-9.804200	27.155556	0.000435	20.762589
1928.555383	-3.009800	3.257300	-9.803200	27.162771	0.000434	20.772691
1929.553438	-3.027100	3.255200	-9.852800	27.159622	0.000435	20.771421
1930.555878	-2.996700	3.256300	-9.757300	27.161984	0.000434	20.774744
1931.554891	-2.979500	3.256800	-9.702900	27.196024	0.000435	20.780059
1932.557286	-3.016700	3.255600	-9.819500	27.230380	0.000433	20.763879
1933.554008	-2.995000	3.254400	-9.745700	27.244874	0.000432	20.776562
1934.561032	-3.041000	3.253400	-9.892800	27.262512	0.000431	20.776760
1935.555923	-3.011600	3.253600	-9.797700	27.274075	0.000429	20.764684
1936.556290	-3.003900	3.252700	-9.769500	27.261270	0.000427	20.793055
1937.561066	-3.012600	3.253600	-9.799600	27.192995	0.000428	20.796926
1938.555079	-3.027600	3.250000	-9.838000	27.178406	0.000427	20.784149
1939.556798	-3.020300	3.251700	-9.819200	27.180439	0.000426	20.768650
1940.556762	-3.041600	3.250200	-9.884200	27.191208	0.000426	20.795603
1941.556925	-3.015000	3.252900	-9.806500	27.189047	0.000426	20.783947
1942.554462	-3.001300	3.251300	-9.756500	27.216139	0.000425	20.784644
1943.554321	-3.034000	3.248800	-9.855100	27.223882	0.000426	20.792906
1944.554038	-2.984500	3.250000	-9.697600	27.214627	0.000425	20.786441
1945.555325	-2.993200	3.251000	-9.729700	27.181677	0.000420	20.768947
1946.552681	-2.988300	3.252200	-9.717400	27.151829	0.000422	20.800567
1947.563250	-2.982800	3.251100	-9.696200	27.112650	0.000421	20.781077
1948.556845	-3.009900	3.249300	-9.779000	27.135280	0.000420	20.784870
1949.555913	-2.979000	3.250500	-9.681400	27.165255	0.000420	20.774241
1950.556931	-2.996100	3.248200	-9.730500	27.218873	0.000420	20.792135
1951.555936	-3.011400	3.247600	-9.778000	27.242214	0.000418	20.800439
1952.564263	-2.993600	3.248400	-9.723300	27.253703	0.000420	20.784021
1953.557881	-2.993100	3.246100	-9.713900	27.322106	0.000418	20.777436
1954.556434	-2.993000	3.246800	-9.716100	27.358375	0.000417	20.787369
1955.557397	-2.999800	3.245000	-9.733100	27.393996	0.000415	20.793805
1956.562361	-2.986800	3.246000	-9.694800	27.388045	0.000419	20.770275
1957.558767	-3.005900	3.246000	-9.756400	27.384922	0.000414	20.790367
1958.562823	-3.016000	3.244900	-9.785300	27.410992	0.000414	20.795731
1959.561587	-3.000800	3.245400	-9.737900	27.428960	0.000414	20.814755
1960.562883	-3.013500	3.245000	-9.777600	27.459688	0.000414	20.775495
1961.563737	-2.996200	3.241700	-9.710600	27.455824	0.000412	20.806694
1962.560860	-2.991100	3.244100	-9.702500	27.452324	0.000413	20.780414
1963.567203	-2.990300	3.242700	-9.695800	27.427615	0.000410	20.787798
1964.564579	-3.020700	3.240300	-9.786900	27.395947	0.000410	20.799561
1965.564658	-2.987800	3.242300	-9.686000	27.396336	0.000410	20.795211
1966.564261	-3.010100	3.243100	-9.761000	27.419234	0.000408	20.780315
1967.565167	-3.006600	3.242500	-9.747300	27.416779	0.000407	20.796337
1968.563749	-2.987000	3.240900	-9.680200	27.386217	0.000407	20.787402
1969.562981	-2.987300	3.240900	-9.680800	27.334374	0.000406	20.789777
1970.567361	-2.996100	3.239600	-9.705300	27.280638	0.000406	20.803528
1971.566119	-2.951200	3.240600	-9.561600	27.310879	0.000405	20.794119
1972.564322	-3.000000	3.239900	-9.718100	27.325865	0.000405	20.782166
1973.567322	-2.993300	3.239000	-9.694000	27.345538	0.000405	20.800534
1974.566528	-2.984800	3.240200	-9.670200	27.395029	0.000404	20.789629
1975.564157	-3.003300	3.238500	-9.725100	27.394902	0.000402	20.780018
1976.563166	-2.996400	3.238600	-9.703200	27.348563	0.000402	20.781292
1977.564062	-3.004900	3.238600	-9.730600	27.349182	0.000400	20.809415
1978.563904	-2.998800	3.238400	-9.710400	27.340604	0.000401	20.803631
1979.565747	-3.010300	3.235300	-9.738100	27.330549	0.000402	20.808690
1980.567978	-2.983400	3.236600	-9.654300	27.323729	0.000398	20.799458
1981.565475	-2.992100	3.237300	-9.685200	27.337870	0.000398	20.798510
1982.565630	-3.027700	3.233000	-9.786200	27.308297	0.000399	20.821393
1983.567747	-3.005900	3.235200	-9.724200	27.305867	0.000397	20.808991
1984.567123	-2.998400	3.234400	-9.697700	27.292299	0.000398	20.812413
1985.567949	-2.989900	3.234700	-9.669700	27.273813	0.000394	20.802827
1986.571570	-2.996200	3.234300	-9.689600	27.284233	0.000393	20.808092
1987.568623	-3.001900	3.232900	-9.703200	27.308596	0.000394	20.807943
1988.567989	-2.971400	3.233700	-9.607600	27.348043	0.000392	20.832451
1989.570157	-2.998200	3.233300	-9.692900	27.326729	0.000392	20.814804
1990.572496	-2.970600	3.232200	-9.600800	27.303682	0.000392	20.806793
1991.569963	-2.988400	3.232800	-9.659900	27.311494	0.000389	20.841203
1992.574448	-2.985000	3.232500	-9.648400	27.337767	0.000391	20.813105
1993.570834	-2.982500	3.231800	-9.637900	27.335439	0.000388	20.828307
1994.575210	-2.990800	3.229700	-9.657700	27.334767	0.000389	20.799656
1995.572752	-3.004600	3.229200	-9.701500	27.350145	0.000389	20.827928
1996.573329	-2.989600	3.230300	-9.656500	27.319610	0.000387	20.821867
1997.574296	-3.012000	3.229600	-9.726000	27.319807	0.000387	20.847194
1998.572526	-2.993000	3.228900	-9.662500	27.263787	0.000386	20.810285
1999.576262	-2.985800	3.229200	-9.638700	27.250219	0.000384	20.821294
2000.582429	-2.998000	3.228200	-9.677100	27.270858	0.000384	20.829251
2001.574524	-2.973600	3.228400	-9.597200	27.297652	0.000384	20.822065
2002.575830	-2.994400	3.227200	-9.662800	27.314745	0.000383	20.823611
2003.580555	-3.011600	3.226300	-9.714600	27.345628	0.000384	20.795409
2004.576699	-2.996500	3.227000	-9.668200	27.375347	0.000382	20.820564
2005.576798	-2.998700	3.225100	-9.668700	27.394024	0.000382	20.818490
2006.576621	-3.020700	3.225600	-9.742400	27.386036	0.000380	20.841748
2007.575515	-3.007500	3.224700	-9.697600	27.407599	0.000378	20.820292
2008.579899	-2.995400	3.225300	-9.660100	27.426673	0.000379	20.838058
2009.575246	-3.003000	3.223700	-9.679700	27.442299	0.000380	20.841451
2010.576827	-2.990000	3.224000	-9.639000	27.486257	0.000377	20.824035
2011.574997	-2.996600	3.224100	-9.660200	27.429873	0.000376	20.862139
2012.576776	-2.991600	3.221500	-9.636300	27.426599	0.000375	20.834190
2013.578660	-3.013800	3.223100	-9.711400	27.439000	0.000374	20.814425
2014.577121	-3.018100	3.221400	-9.721700	27.470602	0.000372	20.795483
2015.578104	-2.997100	3.221700	-9.654700	27.522840	0.000371	20.842824
2016.576515	-3.000900	3.221900	-9.667800	27.549874	0.000375	20.869548
2017.577068	-3.016600	3.219100	-9.708600	27.604518	0.000372	20.833019
2018.577730	-3.007600	3.219700	-9.682700	27.581325	0.000371	20.830546
2019.579292	-3.041200	3.219600	-9.790800	27.565024	0.000371	20.848282
2020.578400	-3.017900	3.219600	-9.716200	27.571798	0.000368	20.839925
2021.579871	-2.990800	3.220700	-9.631300	27.540720	0.000371	20.836157
2022.578784	-2.989500	3.219000	-9.622100	27.521148	0.000367	20.843017
2023.579612	-3.000100	3.218800	-9.655500	27.459209	0.000368	20.844712
2024.579382	-2.978000	3.218400	-9.583300	27.468713	0.000365	20.836730
2025.577926	-3.023100	3.216000	-9.720900	27.515787	0.000367	20.835254
2026.580853	-3.026200	3.216200	-9.731300	27.532011	0.000366	20.844939
2027.578053	-2.992000	3.217600	-9.626300	27.569663	0.000363	20.842044
2028.578221	-3.007500	3.217800	-9.676200	27.617229	0.000366	20.849127
2029.578147	-2.993300	3.215400	-9.624200	27.632308	0.000361	20.845808
2030.580745	-3.016800	3.215200	-9.697900	27.650907	0.000361	20.826591
2031.589400	-3.002900	3.214900	-9.653200	27.677049	0.000362	20.851473
2032.579390	-2.988000	3.214600	-9.604700	27.675430	0.000361	20.847000
2033.579655	-3.026000	3.214800	-9.725200	27.598204	0.000360	20.858907
2034.580347	-2.985100	3.216400	-9.599300	27.551177	0.000361	20.848101
2035.581243	-2.980100	3.214300	-9.577900	27.523225	0.000361	20.844633
2036.578632	-2.996700	3.212800	-9.626800	27.543338	0.000358	20.832153
2037.582074	-3.011500	3.211000	-9.669200	27.567372	0.000357	20.878144
2038.579185	-3.006200	3.213500	-9.659300	27.612164	0.000357	20.859204
2039.577949	-2.995700	3.211900	-9.620600	27.653783	0.000358	20.851296
2040.577118	-2.980500	3.211300	-9.569700	27.666682	0.000356	20.870438
2041.576896	-2.979800	3.210300	-9.564900	27.679126	0.000354	20.857831
2042.578605	-3.000600	3.211100	-9.634400	27.669456	0.000353	20.867540
2043.578131	-2.996500	3.208200	-9.612000	27.689865	0.000352	20.846353
2044.579341	-2.986700	3.210000	-9.586100	27.720939	0.000352	20.843483
2045.579518	-2.987500	3.209300	-9.585700	27.742343	0.000353	20.870710
2046.579189	-3.003300	3.208300	-9.633700	27.780261	0.000351	20.874730
2047.580114	-2.987800	3.207800	-9.582700	27.755834	0.000349	20.849202
2048.578990	-2.989500	3.208300	-9.590300	27.754745	0.000351	20.846208
2049.579433	-3.003000	3.205600	-9.624900	27.713306	0.000348	20.858086
2050.580720	-3.004900	3.206800	-9.635300	27.669087	0.000349	20.859109
2051.584461	-2.986400	3.206500	-9.574100	27.648358	0.000348	20.883293
2052.581172	-2.985000	3.206400	-9.570100	27.633775	0.000346	20.867198
2053.581078	-2.991400	3.205800	-9.588500	27.593372	0.000344	20.867796
2054.578990	-2.988800	3.205500	-9.579100	27.542850	0.000345	20.881446
2055.582994	-2.997100	3.202700	-9.598200	27.548333	0.000344	20.846662
2056.581811	-2.991600	3.204100	-9.583400	27.563045	0.000342	20.869997
2057.582453	-2.984700	3.205000	-9.565400	27.582759	0.000345	20.876083
2058.582169	-3.006700	3.202600	-9.628400	27.622597	0.000341	20.870649
2059.584683	-2.980300	3.204000	-9.547700	27.654640	0.000342	20.885347
2060.584216	-3.021800	3.201900	-9.674600	27.656574	0.000340	20.871647
2061.584715	-3.003000	3.203300	-9.618100	27.686211	0.000340	20.896251
2062.585649	-3.012400	3.202100	-9.644900	27.695012	0.000338	20.878082
2063.585294	-2.987300	3.202000	-9.564300	27.702653	0.000337	20.883401
2064.587061	-3.021000	3.200600	-9.667400	27.673587	0.000337	20.889713
2065.590213	-3.008700	3.199700	-9.626100	27.630210	0.000337	20.876887
2066.586189	-3.001400	3.198900	-9.598900	27.582497	0.000338	20.882931
2067.585377	-2.999700	3.198100	-9.592700	27.565037	0.000335	20.883380
2068.587453	-3.013700	3.198100	-9.636600	27.597946	0.000335	20.888043
2069.589107	-3.013100	3.199200	-9.638900	27.634279	0.000334	20.865335
2070.588428	-2.997900	3.200100	-9.591800	27.676467	0.000333	20.880284
2071.589234	-2.993300	3.198700	-9.573600	27.720484	0.000334	20.879059
2072.592083	-3.000700	3.196800	-9.591500	27.695364	0.000332	20.887919
2073.593794	-3.011300	3.195900	-9.621600	27.726089	0.000331	20.885174
2074.591253	-2.999600	3.195900	-9.586000	27.730502	0.000331	20.873494
2075.590383	-3.008900	3.197500	-9.620000	27.730133	0.000330	20.874545
2076.587403	-2.984500	3.195900	-9.537500	27.744687	0.000329	20.892034
2077.589588	-3.010200	3.195500	-9.618500	27.775312	0.000329	20.883500
2078.592166	-2.981800	3.195600	-9.527600	27.806433	0.000327	20.901067
2079.594162	-2.977600	3.195700	-9.514500	27.803753	0.000326	20.888888
2080.593019	-3.006000	3.191600	-9.592500	27.790340	0.000325	20.887717
2081.597407	-2.995400	3.191700	-9.559500	27.812582	0.000326	20.889713
2082.593546	-2.982200	3.192000	-9.518300	27.832861	0.000323	20.896371
2083.595177	-3.018800	3.190900	-9.631800	27.813868	0.000323	20.898119
2084.597334	-3.000500	3.191100	-9.574200	27.852599	0.000323	20.881624
2085.599988	-3.003500	3.190400	-9.581300	27.837773	0.000324	20.894202
2086.598981	-3.018400	3.188900	-9.623900	27.813643	0.000321	20.900737
2087.596437	-3.013200	3.191100	-9.613800	27.795592	0.000320	20.879253
2088.600348	-3.022200	3.187600	-9.632000	27.767745	0.000322	20.893427
2089.602818	-2.986600	3.189000	-9.524500	27.782400	0.000320	20.901536
2090.594431	-2.993400	3.189900	-9.547500	27.760870	0.000319	20.877975
2091.597339	-2.994900	3.187700	-9.546000	27.747309	0.000318	20.896094
2092.596293	-3.023000	3.187100	-9.633200	27.803847	0.000319	20.884242
2093.599445	-2.998600	3.186400	-9.553600	27.828494	0.000317	20.884390
2094.595659	-3.022400	3.187900	-9.634400	27.850342	0.000320	20.902584
2095.600458	-2.990400	3.184700	-9.522900	27.880739	0.000315	20.891452
2096.596807	-2.999000	3.186000	-9.553700	27.930082	0.000314	20.892751
2097.602057	-3.016900	3.185200	-9.607400	27.957704	0.000314	20.908223
2098.604130	-3.000800	3.186400	-9.561100	27.997966	0.000314	20.886163
2099.603301	-2.990400	3.183700	-9.519600	28.044202	0.000313	20.884340
2100.598915	-2.995100	3.183100	-9.533500	28.012888	0.000313	20.870838
2101.614264	-2.995500	3.183300	-9.533600	28.022190	0.000313	20.885891
2102.610317	-3.001400	3.183100	-9.552300	28.023431	0.000312	20.871968
2103.601954	-3.030400	3.183600	-9.646300	27.996679	0.000311	20.868274
2104.602240	-3.023300	3.180500	-9.614900	27.917289	0.000309	20.884143
2105.606087	-3.010600	3.181800	-9.577800	27.904672	0.000308	20.868600
2106.605904	-2.964500	3.181700	-9.431200	27.908043	0.000310	20.871045
2107.606170	-2.979900	3.180800	-9.477400	27.902558	0.000307	20.883541
2108.605384	-2.993200	3.179700	-9.515000	27.952846	0.000307	20.849758
2109.607941	-3.020000	3.178200	-9.597600	27.981409	0.000307	20.867602
2110.606894	-2.981800	3.179900	-9.480300	28.014457	0.000305	20.871469
2111.607533	-3.013500	3.177900	-9.575800	28.020629	0.000306	20.865829
2112.608237	-2.987500	3.178600	-9.494600	28.062626	0.000304	20.846938
2113.602750	-3.001200	3.177500	-9.535200	28.106406	0.000304	20.864456
2114.608620	-2.976900	3.178700	-9.461700	28.144537	0.000303	20.871548
2115.606244	-3.000800	3.178100	-9.535500	28.113500	0.000301	20.872071
2116.609747	-2.977900	3.176400	-9.456400	28.135887	0.000302	20.857151
2117.611525	-3.016300	3.173500	-9.570500	28.141117	0.000300	20.854830
2118.604740	-3.003600	3.174200	-9.533000	28.175474	0.000299	20.868080
2119.621281	-2.996900	3.174700	-9.512500	28.178869	0.000300	20.872921
2120.607500	-3.001400	3.174300	-9.525700	28.148976	0.000298	20.848517
2121.608972	-3.008800	3.176100	-9.554900	28.116875	0.000297	20.862193
2122.605443	-2.979900	3.173600	-9.456200	28.126520	0.000298	20.857679
2123.605484	-3.015700	3.171300	-9.561800	28.107479	0.000295	20.872649
2124.607641	-3.009700	3.172400	-9.546700	28.079640	0.000297	20.853160
2125.607685	-2.982900	3.173200	-9.464000	28.024857	0.000297	20.853490
2126.606830	-2.993100	3.171900	-9.492900	27.996368	0.000295	20.849944
2127.609328	-2.997800	3.170600	-9.504200	28.048827	0.000293	20.853436
2128.607021	-3.012600	3.169100	-9.545300	28.073353	0.000294	20.848254
2129.606511	-2.985000	3.170800	-9.463700	28.066927	0.000291	20.839414
2130.611878	-3.008600	3.170100	-9.536300	28.069458	0.000290	20.855238
2131.609910	-3.024200	3.167500	-9.578200	28.117403	0.000290	20.839019
2132.609998	-2.992700	3.167700	-9.479400	28.132230	0.000290	20.850625
2133.611605	-3.018800	3.166400	-9.557800	28.175036	0.000290	20.849148
2134.610958	-3.002100	3.165300	-9.500900	28.198143	0.000288	20.838272
2135.611493	-3.014200	3.165200	-9.539600	28.219611	0.000287	20.858936
2136.612733	-3.007700	3.164200	-9.515900	28.217452	0.000288	20.837798
2137.612658	-3.005300	3.164500	-9.509500	28.230492	0.000285	20.843339
2138.609740	-2.994500	3.163600	-9.472600	28.248212	0.000285	20.838421
2139.615740	-2.994200	3.164100	-9.473500	28.226229	0.000284	20.850901
2140.613578	-2.982400	3.164400	-9.436200	28.180525	0.000284	20.833337
2141.613403	-2.990300	3.164700	-9.462700	28.183047	0.000285	20.853420
2142.615163	-3.014300	3.161700	-9.529600	28.198589	0.000282	20.842989
2143.617692	-3.004000	3.162000	-9.497900	28.201341	0.000282	20.847656
2144.613301	-3.000400	3.161600	-9.484500	28.166936	0.000280	20.843364
2145.614866	-3.002600	3.159900	-9.486200	28.116019	0.000281	20.847582
2146.616059	-2.988600	3.161500	-9.447400	28.115102	0.000279	20.843339
2147.616284	-2.981600	3.160000	-9.420600	28.147261	0.000280	20.845842
2148.613643	-2.982400	3.159700	-9.421800	28.157991	0.000279	20.846687
2149.619234	-2.998900	3.157400	-9.468000	28.176286	0.000278	20.840924
2150.616288	-3.021600	3.157300	-9.538800	28.174848	0.000278	20.825726
2151.614019	-3.000600	3.157300	-9.472400	28.123854	0.000275	20.827495
2152.616101	-3.022900	3.155700	-9.537800	28.095618	0.000276	20.837951
2153.615120	-3.035900	3.155900	-9.579900	28.085907	0.000274	20.814900
2154.615113	-3.002500	3.156200	-9.475600	28.072121	0.000275	20.817617
2155.616083	-3.009600	3.154400	-9.492600	28.111362	0.000275	20.822506
2156.615714	-3.014800	3.155700	-9.512700	28.058608	0.000271	20.822506
2157.613876	-2.989700	3.154700	-9.430500	27.981577	0.000273	20.837901
2158.625646	-2.998800	3.152700	-9.453600	27.966233	0.000270	20.824828
2159.613990	-2.991400	3.152900	-9.429500	27.985850	0.000271	20.810434
2160.616768	-3.019500	3.151700	-9.516200	28.002108	0.000269	20.844341
2161.614729	-2.984700	3.151800	-9.406200	27.977018	0.000270	20.855123
2162.614322	-2.988100	3.153400	-9.422600	27.997299	0.000268	20.809156
2163.615193	-3.013300	3.148000	-9.485400	27.993751	0.000267	20.826922
2164.614818	-2.981100	3.150000	-9.389300	28.016710	0.000267	20.801669
2165.615578	-3.006500	3.149000	-9.465800	28.047578	0.000265	20.827998
2166.615742	-2.979500	3.149100	-9.382000	28.121180	0.000266	20.799673
2167.615458	-2.987400	3.147800	-9.403200	28.136547	0.000266	20.828893
2168.619020	-3.008000	3.147600	-9.467100	28.183252	0.000265	20.812376
2169.616540	-3.014400	3.146400	-9.482700	28.198565	0.000265	20.812145
2170.615290	-3.025200	3.145500	-9.514000	28.172121	0.000265	20.813023
2171.619929	-3.006200	3.145300	-9.454200	28.171547	0.000266	20.814817
2172.623775	-3.017800	3.144700	-9.488900	28.193949	0.000264	20.825516
2173.617194	-2.997000	3.144200	-9.422000	28.220524	0.000263	20.810071
2174.621381	-3.021600	3.142200	-9.493800	28.257189	0.000261	20.846036
2175.621925	-2.988100	3.144500	-9.395300	28.228755	0.000262	20.824048
2176.620110	-3.033700	3.142200	-9.531100	28.207558	0.000264	20.817880
2177.622200	-3.007600	3.141300	-9.445900	28.189342	0.000260	20.815188
2178.621977	-3.000900	3.141300	-9.425500	28.180934	0.000260	20.819999
2179.622274	-3.008000	3.140200	-9.444000	28.108749	0.000259	20.815608
2180.621189	-3.022100	3.140400	-9.490200	28.124218	0.000258	20.810318
2181.620086	-2.994800	3.140800	-9.404500	28.124886	0.000256	20.803404
2182.627473	-3.003600	3.138000	-9.424500	28.176773	0.000256	20.819129
2183.621741	-3.018100	3.137800	-9.468800	28.194273	0.000257	20.807350
2184.618651	-3.008600	3.137700	-9.438200	28.200023	0.000255	20.803181
2185.619854	-3.000100	3.137300	-9.411700	28.234005	0.000255	20.809894
2186.619626	-2.967200	3.137000	-9.305700	28.238789	0.000254	20.817554
2187.620409	-3.011200	3.135400	-9.439000	28.206170	0.000254	20.818379
2188.621390	-2.993600	3.135000	-9.383100	28.185545	0.000252	20.818952
2189.621582	-3.011400	3.133800	-9.436400	28.179128	0.000251	20.817707
2190.623295	-3.020900	3.131400	-9.458500	28.205899	0.000252	20.809098
2191.620456	-2.997700	3.132200	-9.388200	28.215912	0.000253	20.820601
2192.620173	-2.996700	3.132100	-9.385200	28.193208	0.000249	20.816235
2193.621918	-3.004200	3.132500	-9.409600	28.156840	0.000249	20.818028
2194.622197	-3.005100	3.129600	-9.404100	28.130297	0.000248	20.828291
2195.621238	-3.001500	3.130000	-9.392600	28.119312	0.000249	20.800163
2196.622184	-3.008900	3.129300	-9.415200	28.131263	0.000248	20.812195
2197.622317	-3.007800	3.128300	-9.408300	28.170527	0.000249	20.831808
2198.622623	-3.007500	3.127500	-9.404200	28.190288	0.000246	20.818985
2199.622147	-2.999400	3.127400	-9.378900	28.177174	0.000246	20.820956
2200.627195	-2.997200	3.127300	-9.372700	28.131415	0.000244	20.799545
2201.622430	-2.981800	3.126300	-9.320700	28.077867	0.000245	20.814866
2202.621850	-3.010100	3.123800	-9.401300	28.033815	0.000244	20.805610
2203.623496	-3.019600	3.123900	-9.431800	28.032677	0.000245	20.793559
2204.623819	-3.041200	3.121800	-9.492900	28.053648	0.000243	20.800444
2205.625551	-2.984200	3.124100	-9.321000	28.096114	0.000240	20.802415
2206.626238	-3.004500	3.125000	-9.388000	28.106226	0.000240	20.810224
2207.626165	-2.990500	3.122900	-9.338200	28.177822	0.000241	20.819711
2208.627091	-2.988400	3.122300	-9.329400	28.203578	0.000242	20.815769
2209.626704	-2.990100	3.119300	-9.325200	28.236070	0.000240	20.802963
2210.625807	-2.996900	3.120100	-9.350000	28.204589	0.000237	20.800667
2211.625837	-2.988900	3.120100	-9.324700	28.166072	0.000239	20.799821
2212.631855	-2.978200	3.117600	-9.283400	28.151790	0.000238	20.796350
2213.626235	-2.994800	3.117200	-9.334600	28.130424	0.000238	20.798073
2214.626720	-2.998100	3.117600	-9.345500	28.083278	0.000236	20.793286
2215.628387	-2.998900	3.114500	-9.337500	28.067705	0.000238	20.790887
2216.628359	-3.019900	3.116100	-9.408100	28.093611	0.000234	20.792309
2217.626661	-3.003400	3.115100	-9.355000	28.086845	0.000236	20.797352
2218.632936	-3.010300	3.113400	-9.371500	28.096814	0.000235	20.805017
2219.627412	-3.002100	3.113700	-9.347000	28.146167	0.000235	20.821983
2220.627669	-2.975500	3.113500	-9.263000	28.146933	0.000235	20.809952
2221.628697	-3.005300	3.111800	-9.350800	28.105862	0.000235	20.779985
2222.629953	-3.014800	3.111200	-9.377900	28.082758	0.000234	20.788495
2223.628049	-2.983700	3.112100	-9.284200	28.086997	0.000233	20.785651
2224.628849	-2.987100	3.109300	-9.286400	28.116793	0.000233	20.785774
2225.629808	-2.976000	3.110400	-9.254900	28.159007	0.000234	20.794132
2226.626878	-3.013700	3.108300	-9.367000	28.183252	0.000233	20.797203
2227.628601	-2.988000	3.107400	-9.283700	28.205216	0.000233	20.799875
2228.628439	-3.008300	3.107100	-9.345500	28.146343	0.000230	20.784228
2229.627623	-2.992300	3.106500	-9.295000	28.115630	0.000231	20.806888
2230.628040	-3.005800	3.104400	-9.330500	28.066350	0.000233	20.802324
2231.629333	-2.990000	3.104000	-9.280100	28.069696	0.000230	20.795262
2232.630037	-2.994700	3.103800	-9.293000	28.143694	0.000229	20.773974
2233.630921	-2.999700	3.102100	-9.303900	28.159908	0.000230	20.790772
2234.629942	-3.018500	3.101200	-9.360600	28.184424	0.000227	20.784158
2235.630571	-3.018100	3.100000	-9.354900	28.200932	0.000227	20.773751
2236.632006	-2.993300	3.100800	-9.280600	28.190821	0.000227	20.786805
2237.629763	-2.982700	3.099000	-9.241900	28.209983	0.000227	20.805149
2238.632270	-2.994700	3.097800	-9.275600	28.201436	0.000226	20.782794
2239.632162	-3.000400	3.098100	-9.294200	28.218784	0.000224	20.785560
2240.638504	-3.024200	3.096000	-9.361500	28.247189	0.000225	20.789502
2241.630329	-2.998400	3.096300	-9.282200	28.289749	0.000224	20.791576
2242.631367	-2.998100	3.094700	-9.277400	28.295449	0.000226	20.796367
2243.631379	-2.993700	3.093800	-9.259200	28.298455	0.000222	20.803187
2244.629757	-2.984100	3.094000	-9.232000	28.291834	0.000224	20.768070
2245.632033	-2.984100	3.093300	-9.229600	28.254110	0.000224	20.771340
2246.630937	-2.987600	3.092500	-9.238400	28.281866	0.000225	20.791225
2247.631271	-2.974300	3.090800	-9.190900	28.295949	0.000222	20.776481
2248.630816	-2.994000	3.090000	-9.250400	28.316248	0.000223	20.795497
2249.630686	-2.972800	3.090700	-9.186300	28.331317	0.000221	20.773211
2250.632745	-2.983500	3.090100	-9.217900	28.355358	0.000220	20.775607
2251.632785	-2.979500	3.088800	-9.202200	28.363191	0.000220	20.773537
2252.633301	-2.995100	3.086600	-9.243800	28.379521	0.000221	20.787135
2253.633060	-3.019700	3.086300	-9.318800	28.343438	0.000221	20.755069
2254.635950	-2.989800	3.084800	-9.221900	28.330748	0.000221	20.762207
2255.633556	-2.989100	3.085300	-9.221300	28.318029	0.000219	20.775479
2256.635246	-3.014800	3.084300	-9.297500	28.250289	0.000220	20.770812
2257.636636	-2.998300	3.081300	-9.237900	28.247958	0.000219	20.773681
2258.634735	-3.015100	3.080600	-9.286900	28.299196	0.000220	20.788286
2259.636038	-2.969200	3.081800	-9.149300	28.306653	0.000219	20.782517
2260.639729	-2.996100	3.079200	-9.225200	28.317759	0.000218	20.782794
2261.636237	-2.990200	3.080100	-9.209400	28.310445	0.000218	20.769265
2262.637162	-3.015900	3.078900	-9.285200	28.337062	0.000215	20.769987
2263.641627	-3.018500	3.077900	-9.290200	28.352553	0.000217	20.754764
2264.639579	-2.975800	3.078300	-9.158400	28.401525	0.000217	20.781317
2265.637709	-3.022400	3.075800	-9.294700	28.415922	0.000217	20.767365
2266.637296	-3.006100	3.075900	-9.245900	28.501715	0.000216	20.768412
2267.636677	-2.978700	3.074600	-9.156200	28.507390	0.000216	20.785032
2268.642121	-2.975800	3.074300	-9.146900	28.508082	0.000215	20.769133
2269.637775	-2.999300	3.072800	-9.214400	28.528253	0.000219	20.759576
2270.640518	-3.030200	3.070300	-9.301900	28.531078	0.000215	20.777594
2271.637847	-3.006200	3.070700	-9.230100	28.519906	0.000215	20.778670
2272.639606	-3.012100	3.068300	-9.240700	28.495222	0.000215	20.757131
2273.645113	-3.005600	3.069500	-9.224500	28.473985	0.000216	20.756133
2274.641292	-3.037400	3.064700	-9.306300	28.499062	0.000214	20.758153
2275.639382	-2.992600	3.067200	-9.177600	28.522755	0.000214	20.765418
2276.641430	-2.999300	3.065300	-9.192100	28.543795	0.000215	20.776176
2277.641626	-2.983700	3.065300	-9.144900	28.568571	0.000214	20.772679
2278.643995	-3.025200	3.064000	-9.268800	28.578090	0.000212	20.750971
2279.640785	-3.007100	3.062500	-9.208400	28.548925	0.000214	20.750996
2280.642080	-3.022600	3.061600	-9.253000	28.454459	0.000212	20.754014
2281.643241	-2.994000	3.061100	-9.164100	28.471160	0.000213	20.756133
2282.641698	-3.001200	3.060000	-9.182900	28.500802	0.000213	20.767967
2283.644474	-3.010800	3.058300	-9.205600	28.488364	0.000213	20.760656
2284.641683	-3.004900	3.058200	-9.187800	28.462369	0.000212	20.763877
2285.643723	-3.008300	3.056000	-9.192400	28.452010	0.000211	20.745858
2286.643340	-3.030200	3.054800	-9.255100	28.462443	0.000212	20.748777
2287.644690	-3.018400	3.053600	-9.215100	28.460584	0.000212	20.772985
2288.642941	-3.017500	3.053400	-9.212600	28.412384	0.000212	20.762380
2289.642369	-2.996100	3.052000	-9.142300	28.379574	0.000213	20.753049
2290.649158	-2.986000	3.051800	-9.111600	28.349756	0.000210	20.765699
2291.645003	-3.014700	3.049400	-9.192100	28.340985	0.000211	20.759238
2292.645851	-2.968300	3.049700	-9.051300	28.356156	0.000212	20.747961
2293.649929	-3.011300	3.048200	-9.177500	28.380745	0.000212	20.750909
2294.648615	-2.995500	3.046800	-9.125600	28.367560	0.000209	20.768454
2295.647326	-3.001700	3.046900	-9.144300	28.375693	0.000212	20.750089
2296.650665	-3.013500	3.045600	-9.176700	28.371700	0.000208	20.756026
2297.650524	-3.009200	3.043300	-9.155600	28.398668	0.000211	20.756154
2298.649087	-3.018100	3.042400	-9.180800	28.435793	0.000210	20.763667
2299.648342	-2.988900	3.042400	-9.091900	28.477056	0.000210	20.758278
2300.647894	-2.977900	3.041500	-9.056400	28.527214	0.000208	20.756633
2301.647289	-3.026000	3.039600	-9.197300	28.578562	0.000209	20.744333
2302.649414	-2.988200	3.039000	-9.079500	28.597189	0.000209	20.750765
2303.650331	-2.994700	3.037200	-9.094200	28.600885	0.000209	20.748799
2304.649717	-3.007400	3.035200	-9.126700	28.584113	0.000209	20.756089
2305.648921	-2.989100	3.035300	-9.071100	28.570509	0.000211	20.754241
2306.651598	-3.011800	3.034300	-9.136900	28.609933	0.000208	20.756963
2307.648946	-3.006900	3.033300	-9.120500	28.610158	0.000208	20.748655
2308.648790	-2.999200	3.032500	-9.093600	28.657211	0.000209	20.745785
2309.650012	-2.991500	3.030200	-9.063100	28.671363	0.000206	20.766203
2310.650604	-3.007300	3.028700	-9.106800	28.647649	0.000209	20.742317
2311.650881	-2.990800	3.028800	-9.057600	28.651292	0.000207	20.741719
2312.652106	-3.011900	3.027200	-9.116700	28.637267	0.000208	20.732809
2313.650280	-2.980200	3.026700	-9.019500	28.642249	0.000209	20.746362
2314.652254	-3.021600	3.025000	-9.139500	28.667151	0.000207	20.745839
2315.654483	-3.023200	3.024000	-9.140500	28.626841	0.000205	20.748387
2316.653994	-3.010300	3.022400	-9.097300	28.567992	0.000206	20.751706
2317.655002	-3.001000	3.021900	-9.067500	28.515436	0.000204	20.746193
2318.652658	-2.996000	3.020000	-9.046600	28.443696	0.000205	20.735588
2319.654301	-3.045200	3.018900	-9.192500	28.429722	0.000206	20.745225
2320.658695	-2.987200	3.017700	-9.013700	28.454354	0.000206	20.749641
2321.653646	-2.995500	3.018000	-9.039300	28.499109	0.000206	20.753933
2322.656678	-2.999600	3.016500	-9.047000	28.520423	0.000205	20.747422
2323.657931	-3.016900	3.014400	-9.093000	28.540198	0.000205	20.725610
2324.655229	-2.994200	3.015100	-9.026000	28.601603	0.000203	20.758530
2325.657105	-3.000600	3.013000	-9.039900	28.598234	0.000205	20.756085
2326.655650	-3.009700	3.011100	-9.061100	28.606605	0.000205	20.754560
2327.655320	-2.996900	3.009500	-9.018600	28.559653	0.000205	20.768439
2328.660378	-2.987900	3.010100	-8.992700	28.499633	0.000203	20.772953
2329.659164	-3.023400	3.005900	-9.086700	28.440360	0.000203	20.745979
2330.654545	-2.997800	3.005900	-9.009900	28.400409	0.000203	20.739889
2331.657766	-2.988000	3.006400	-8.982200	28.421726	0.000204	20.763726
2332.659537	-2.981300	3.003900	-8.954800	28.484869	0.000204	20.764250
2333.655466	-2.976000	3.002700	-8.934900	28.503948	0.000203	20.720399
2334.655630	-3.011300	3.001400	-9.036700	28.539387	0.000205	20.744710
2335.655410	-3.013600	2.998900	-9.037100	28.546700	0.000202	20.749703
2336.655936	-3.019900	2.997700	-9.052200	28.527093	0.000202	20.746078
2337.658560	-3.038800	2.996000	-9.102400	28.500084	0.000205	20.769614
2338.656750	-3.023000	2.994100	-9.049000	28.498872	0.000203	20.754643
2339.657541	-2.996700	2.995300	-8.974600	28.535023	0.000202	20.758333
2340.656915	-3.034300	2.993100	-9.079700	28.528264	0.000203	20.748680
2341.660475	-3.019400	2.989500	-9.025000	28.503855	0.000202	20.754445
2342.665632	-2.997900	2.991100	-8.966100	28.467751	0.000203	20.744166
2343.656777	-3.000700	2.990400	-8.972400	28.426091	0.000203	20.732558
2344.661782	-3.022600	2.986400	-9.025300	28.418139	0.000202	20.753002
2345.659470	-2.981300	2.987100	-8.904300	28.440319	0.000203	20.768699
2346.657114	-3.015800	2.984100	-8.997700	28.454789	0.000202	20.765252
2347.660820	-2.984800	2.984000	-8.905800	28.443537	0.000201	20.742067
2348.659778	-2.986400	2.984300	-8.912000	28.480640	0.000203	20.749085
2349.656720	-2.991100	2.981000	-8.915500	28.457348	0.000201	20.753130
2350.657281	-3.002800	2.979200	-8.945400	28.483838	0.000203	20.759892
2351.656771	-2.993500	2.979300	-8.917600	28.501157	0.000202	20.757892
2352.657265	-3.016500	2.976500	-8.976700	28.539122	0.000201	20.755348
2353.657096	-3.001800	2.976800	-8.934200	28.603769	0.000201	20.746013
2354.658294	-2.998300	2.975800	-8.921200	28.675233	0.000201	20.762514
2355.657784	-2.982200	2.973500	-8.866500	28.740612	0.000201	20.748235
2356.658993	-2.989500	2.970800	-8.880200	28.785850	0.000202	20.777683
2357.657730	-2.983900	2.969400	-8.859100	28.839215	0.000200	20.747514
2358.657104	-2.985600	2.967200	-8.858700	28.826404	0.000200	20.756894
2359.655558	-2.982700	2.966600	-8.847600	28.804556	0.000202	20.750532
2360.658662	-2.978300	2.964500	-8.829000	28.759044	0.000200	20.767750
2361.657345	-3.001200	2.963800	-8.893800	28.718836	0.000202	20.763759
2362.658198	-3.013000	2.962800	-8.925600	28.746756	0.000202	20.765330
2363.658630	-2.994600	2.960800	-8.865100	28.753891	0.000198	20.744541
2364.658897	-2.997800	2.959400	-8.870100	28.795064	0.000200	20.748557
2365.658719	-2.991500	2.956800	-8.843500	28.827366	0.000202	20.763553
2366.661192	-2.981900	2.956600	-8.815700	28.867701	0.000200	20.763409
2367.656720	-3.011700	2.954300	-8.896200	28.797716	0.000200	20.763557
2368.657541	-2.992700	2.953100	-8.837000	28.763453	0.000199	20.745638
2369.660545	-3.011800	2.951900	-8.890000	28.770538	0.000201	20.763207
2370.656269	-3.024700	2.949000	-8.918100	28.775941	0.000199	20.753476
2371.658438	-3.008100	2.949400	-8.870600	28.795137	0.000200	20.771391
2372.659974	-3.033400	2.944100	-8.929200	28.796103	0.000201	20.772838
2373.658900	-2.998700	2.945700	-8.831700	28.787930	0.000200	20.768398
2374.661232	-3.007700	2.945000	-8.856700	28.793255	0.000201	20.773762
2375.662334	-3.027700	2.940200	-8.900700	28.818050	0.000201	20.760333
2376.661534	-3.009800	2.940500	-8.849400	28.788793	0.000199	20.762155
2377.659606	-3.012500	2.938500	-8.851200	28.721357	0.000199	20.767247
2378.658608	-3.015300	2.937900	-8.858000	28.644276	0.000197	20.774957
2379.657897	-2.984800	2.937300	-8.765200	28.605251	0.000201	20.775481
2380.658714	-2.973300	2.934500	-8.724100	28.574178	0.000200	20.766472
2381.660532	-3.011700	2.933100	-8.832900	28.527740	0.000200	20.759058
2382.658362	-3.018100	2.930600	-8.844200	28.508657	0.000198	20.769238
2383.660461	-3.013700	2.929300	-8.827000	28.557573	0.000199	20.754016
2384.662762	-2.977500	2.928300	-8.717900	28.594467	0.000198	20.766517
2385.660399	-3.011800	2.925200	-8.808800	28.645189	0.000197	20.779196
2386.662864	-2.997700	2.924000	-8.764300	28.655845	0.000199	20.773333
2387.661422	-3.006900	2.921800	-8.783400	28.606188	0.000197	20.750820
2388.662591	-2.955600	2.924000	-8.639600	28.552738	0.000199	20.779493
2389.666291	-2.988600	2.920100	-8.726000	28.537127	0.000198	20.763771
2390.662277	-3.036000	2.917500	-8.856300	28.549835	0.000198	20.775621
2391.664322	-3.013700	2.917300	-8.789500	28.576225	0.000199	20.773275
2392.667017	-3.019300	2.913300	-8.795800	28.589907	0.000198	20.770459
2393.663236	-3.030800	2.912600	-8.824900	28.607616	0.000197	20.779760
2394.664502	-3.006400	2.911800	-8.752700	28.600706	0.000199	20.768533
2395.667819	-2.981400	2.909900	-8.674000	28.580040	0.000196	20.775221
2396.665370	-2.990400	2.907300	-8.693300	28.592428	0.000198	20.800025
2397.665443	-3.001400	2.906100	-8.720800	28.618567	0.000197	20.788893
2398.664419	-2.998200	2.904100	-8.705500	28.658976	0.000197	20.790711
2399.664155	-2.995900	2.902300	-8.694000	28.697332	0.000200	20.770075
2400.664409	-2.990100	2.900200	-8.670100	28.718221	0.000197	20.794909
2401.665802	-3.012300	2.897800	-8.727500	28.721909	0.000199	20.781080
2402.670309	-2.986800	2.898700	-8.657000	28.765785	0.000197	20.785446
2403.665442	-2.989400	2.894800	-8.652600	28.760582	0.000198	20.786370
2404.667725	-3.012500	2.893800	-8.716700	28.779534	0.000196	20.798347
2405.670643	-3.005800	2.892300	-8.692000	28.789943	0.000198	20.781805
2406.669379	-3.013800	2.889400	-8.707200	28.790904	0.000196	20.780403
2407.669211	-2.996700	2.887600	-8.651700	28.824872	0.000195	20.785223
2408.671025	-2.977400	2.886500	-8.593200	28.845235	0.000197	20.781080
2409.668795	-2.957900	2.885700	-8.533800	28.883932	0.000198	20.802046
2410.669333	-3.014900	2.882100	-8.687600	28.879917	0.000198	20.795156
2411.668880	-3.004700	2.879700	-8.651500	28.905136	0.000195	20.798277
2412.673750	-2.988800	2.877700	-8.599400	28.881706	0.000196	20.791268
2413.670874	-2.987900	2.875800	-8.592300	28.873479	0.000198	20.780610
2414.670510	-2.999300	2.874400	-8.620200	28.907617	0.000198	20.804569
2415.671493	-2.995100	2.872200	-8.601400	28.916289	0.000197	20.793866
2416.671566	-3.013700	2.869600	-8.646900	28.934051	0.000200	20.800854
2417.672597	-3.021800	2.867400	-8.662700	28.932340	0.000197	20.781113
2418.672513	-2.975200	2.867700	-8.531300	28.944700	0.000197	20.792142
2419.671572	-2.974600	2.864400	-8.519600	28.981977	0.000197	20.806940
2420.671857	-2.987900	2.863400	-8.554400	28.977325	0.000199	20.798459
2421.672564	-2.984300	2.860600	-8.536500	28.995183	0.000195	20.797960
2422.672367	-2.994900	2.858200	-8.559200	29.041548	0.000196	20.794888
2423.673140	-3.004200	2.856200	-8.578400	29.024009	0.000196	20.776268
2424.674864	-2.995900	2.855300	-8.553200	29.019827	0.000198	20.795762
2425.673568	-3.001200	2.852100	-8.558300	28.993125	0.000197	20.798731
2426.674003	-2.986200	2.851000	-8.512400	28.964912	0.000197	20.806816
2427.674952	-3.006200	2.848400	-8.560900	28.958843	0.000199	20.801650
2428.678461	-3.016600	2.844900	-8.580700	28.932340	0.000198	20.789174
2429.675570	-2.988200	2.844700	-8.499700	28.886515	0.000196	20.806544
2430.675151	-2.998500	2.842100	-8.521200	28.879127	0.000196	20.809059
2431.676107	-3.005100	2.839600	-8.532300	28.832727	0.000199	20.809731
2432.680552	-2.977300	2.838900	-8.451300	28.815983	0.000197	20.799976
2433.675533	-2.999300	2.835600	-8.503700	28.778248	0.000197	20.808432
2434.674798	-3.010400	2.832400	-8.525100	28.790438	0.000197	20.795106
2435.675942	-3.017000	2.829900	-8.536800	28.766677	0.000200	20.816216
2436.676526	-3.005500	2.830100	-8.504800	28.779980	0.000200	20.793581
2437.678523	-3.019000	2.825400	-8.529600	28.823182	0.000199	20.813392
2438.677857	-2.999200	2.825800	-8.474100	28.895490	0.000197	20.805154
2439.677429	-2.980600	2.821700	-8.409300	28.919243	0.000199	20.820075
2440.678133	-3.012900	2.820000	-8.495100	28.974062	0.000196	20.815086
2441.678110	-2.987900	2.817900	-8.418600	29.021516	0.000197	20.816904
2442.676250	-3.014900	2.813700	-8.482600	29.048905	0.000199	20.812258
2443.677772	-3.007800	2.812400	-8.457800	29.095099	0.000197	20.817078
2444.677209	-3.014300	2.808800	-8.465100	29.136901	0.000197	20.816051
2445.677248	-2.964600	2.809800	-8.329100	29.174913	0.000197	20.825431
2446.679695	-3.030800	2.804600	-8.499000	29.178211	0.000198	20.809788
2447.678556	-2.995000	2.802700	-8.393200	29.236159	0.000197	20.801327
2448.678751	-2.971900	2.802100	-8.326600	29.231351	0.000200	20.837259
2449.678728	-2.978900	2.799000	-8.336400	29.265002	0.000197	20.826127
2450.681587	-2.974500	2.797300	-8.319300	29.258293	0.000198	20.803245
2451.683136	-2.999900	2.794300	-8.381600	29.246010	0.000197	20.832592
2452.680485	-3.006400	2.791300	-8.390600	29.224588	0.000195	20.825228
2453.679369	-3.009100	2.787700	-8.387600	29.253980	0.000195	20.819761
2454.680483	-2.947800	2.787100	-8.212900	29.249525	0.000196	20.825228
2455.683795	-2.985400	2.783600	-8.308600	29.205366	0.000196	20.825298
2456.682651	-2.979800	2.778900	-8.279500	29.136447	0.000195	20.834559
2457.683894	-3.003100	2.775200	-8.333100	29.122605	0.000197	20.830093
2458.685294	-3.003800	2.774400	-8.331400	29.136173	0.000195	20.839024
2459.685137	-2.995300	2.771100	-8.299400	29.116831	0.000200	20.820483
2460.683612	-2.995900	2.768800	-8.293000	29.137560	0.000196	20.837102
2461.682232	-3.016000	2.765000	-8.339000	29.198435	0.000197	20.829693
2462.681896	-2.990300	2.765000	-8.267400	29.209429	0.000195	20.837927
2463.682409	-2.976500	2.760900	-8.217200	29.180228	0.000196	20.827941
2464.683471	-3.000400	2.757400	-8.272100	29.140453	0.000197	20.839543
2465.682981	-3.021700	2.753500	-8.317800	29.145408	0.000198	20.839320
2466.683961	-3.030600	2.751200	-8.336100	29.167769	0.000196	20.828662
2467.683745	-2.994400	2.747700	-8.226700	29.163730	0.000194	20.857308
2468.683814	-2.975500	2.745600	-8.168500	29.123218	0.000196	20.853470
2469.685335	-3.006800	2.741500	-8.242600	29.102215	0.000196	20.838471
2470.684741	-3.008000	2.739000	-8.238200	29.085123	0.000198	20.827413
2471.685387	-3.015100	2.735000	-8.245600	29.087426	0.000197	20.843010
2472.685718	-2.973600	2.735200	-8.132300	29.086706	0.000197	20.846078
2473.686939	-3.004300	2.728800	-8.197100	29.033951	0.000197	20.835597
2474.686502	-2.995200	2.726500	-8.165500	29.056462	0.000197	20.853536
2475.689682	-3.024700	2.721600	-8.230800	29.102206	0.000194	20.842730
2476.688691	-3.013600	2.718900	-8.192400	29.104956	0.000194	20.844078
2477.687363	-3.008400	2.716200	-8.171000	29.109539	0.000197	20.833523
2478.688687	-3.003400	2.712700	-8.145700	29.095868	0.000198	20.833024
2479.686793	-3.026100	2.708000	-8.193400	29.082393	0.000196	20.860223
2480.690490	-2.999200	2.706100	-8.114500	29.108377	0.000197	20.849421
2481.690263	-2.994200	2.701600	-8.088000	29.064237	0.000196	20.840033
2482.689822	-2.988200	2.698900	-8.063500	29.013732	0.000197	20.836562
2483.691457	-2.985700	2.695600	-8.047000	28.957257	0.000196	20.863587
2484.692697	-2.991900	2.691300	-8.051400	28.954110	0.000197	20.856624
2485.692382	-2.997300	2.687300	-8.053900	28.964096	0.000197	20.868106
2486.691616	-3.015300	2.684700	-8.094000	29.028222	0.000196	20.868230
2487.693393	-3.013800	2.680400	-8.077300	29.082589	0.000197	20.860895
2488.693361	-2.994300	2.676800	-8.013800	29.102227	0.000196	20.828052
2489.691290	-2.988500	2.671600	-7.983100	29.119510	0.000195	20.852105
2490.692643	-2.980700	2.667900	-7.951400	29.124515	0.000197	20.855251
2491.695817	-3.000700	2.662800	-7.989000	29.148656	0.000199	20.891428
2492.694316	-3.011900	2.659900	-8.010500	29.142322	0.000196	20.853754
2493.691898	-3.007200	2.656500	-7.987500	29.135558	0.000197	20.872542
2494.695591	-3.000800	2.651000	-7.954100	29.156058	0.000195	20.879447
2495.697939	-2.990100	2.648500	-7.918200	29.122706	0.000196	20.864333
2496.693554	-3.009500	2.643400	-7.954400	29.060071	0.000195	20.869499
2497.694853	-2.993200	2.639700	-7.900900	29.027101	0.000195	20.856195
2498.696750	-2.988200	2.635300	-7.873400	29.029802	0.000196	20.866976
2499.698758	-2.985800	2.630300	-7.851400	29.085777	0.000195	20.865055
2500.694230	-3.002700	2.625100	-7.881400	29.118397	0.000195	20.849561
2501.699660	-2.998700	2.621200	-7.859500	29.174364	0.000194	20.863756
2502.695509	-3.006900	2.616600	-7.866300	29.229439	0.000196	20.848609
2503.696228	-2.980800	2.611300	-7.783000	29.308409	0.000196	20.876982
2504.696332	-3.006700	2.605500	-7.832000	29.357836	0.000197	20.882226
2505.697265	-2.994600	2.602400	-7.792300	29.432856	0.000198	20.873915
2506.698692	-3.021800	2.594700	-7.839900	29.464329	0.000196	20.859172
2507.699339	-3.000900	2.590800	-7.773500	29.498050	0.000197	20.892686
2508.696828	-3.032800	2.582200	-7.830400	29.550287	0.000197	20.882754
2509.697400	-2.950300	2.581000	-7.612700	29.599323	0.000198	20.878132
2510.698931	-3.027700	2.572800	-7.789000	29.627547	0.000198	20.893308
2511.697792	-2.976000	2.569700	-7.646400	29.623686	0.000199	20.864762
2512.696198	-2.991600	2.561800	-7.662700	29.599008	0.000198	20.858850
2513.698094	-3.002000	2.556600	-7.673500	29.588141	0.000197	20.869231
2514.697246	-3.060800	2.549200	-7.801200	29.570194	0.000197	20.894286
2515.700064	-2.999000	2.545800	-7.633500	29.560414	0.000198	20.870679
2516.697717	-3.002000	2.539700	-7.623600	29.541158	0.000197	20.884457
2517.698760	-3.004600	2.532600	-7.607400	29.581580	0.000196	20.886325
2518.701937	-2.988800	2.527500	-7.552300	29.629257	0.000197	20.890291
2519.698951	-2.993500	2.521500	-7.547200	29.632970	0.000197	20.867483
2520.699030	-3.018700	2.514200	-7.588300	29.596235	0.000198	20.871701
2521.701878	-2.997800	2.508300	-7.518500	29.602374	0.000198	20.888794
2522.700925	-2.991800	2.502900	-7.486900	29.622598	0.000197	20.887372
2523.699819	-2.970500	2.496500	-7.414900	29.614382	0.000198	20.871977
