LabVIEW Measurement	
Writer_Version	2
Reader_Version	2
Separator	Tab
Decimal_Separator	.
Multi_Headings	No
X_Columns	One
Time_Pref	Absolute
Operator	admin
Description	Clolumns are: time, Current, Voltage, Power, Battery Temp, and Chamber Temp
Date	2024/08/16
Time	13:06:06.104549407958984375
***End_of_Header***	
	
Channels	6						
Samples	1	1	1	1	1	1	
Date	2024/09/17	2024/09/17	2024/09/17	2024/09/17	2024/09/17	2024/09/17	
Time	19:20:34.5396609306335449219	19:20:34.5450153350830078125	19:20:34.5507078170776367188	19:20:34.5234761238098144531	19:20:34.5234761238098144531	19:20:34.5234761238098144531	
X_Dimension	Time	Time	Time	Time	Time	Time	
X0	0.0000000000000000E+0	0.0000000000000000E+0	0.0000000000000000E+0	0.0000000000000000E+0	0.0000000000000000E+0	0.0000000000000000E+0	
Delta_X	1.000000	1.000000	1.000000	1.000000	1.000000	1.000000	
***End_of_Header***							
X_Value	Untitled	Untitled 1	Untitled 2	Untitled 3	Untitled 4	Untitled 5	Comment
0.000000	0.015380	4.095400	0.062991	21.018201	0.000972	20.810543
1.001565	-2.977900	3.911000	-11.646000	20.977212	0.000971	20.802263
2.005051	-3.004700	3.903500	-11.728000	21.004712	0.000971	20.804638
3.006330	-2.986700	3.899800	-11.646000	20.990716	0.000970	20.812451
4.010212	-2.995600	3.894500	-11.664000	21.018014	0.000969	20.799925
5.008060	-3.024200	3.890500	-11.764000	21.003693	0.000970	20.803145
6.007801	-3.002800	3.888400	-11.675000	21.013356	0.000968	20.787679
7.007907	-3.010800	3.884100	-11.693000	21.024309	0.000966	20.803375
8.006622	-3.013100	3.882700	-11.697000	21.008693	0.000965	20.811939
9.006488	-3.002300	3.879900	-11.647000	21.014056	0.000966	20.807346
10.011103	-3.006900	3.877900	-11.658000	21.019225	0.000964	20.793550
11.006826	-3.015900	3.876300	-11.689000	21.019477	0.000962	20.831733
12.011313	-2.994800	3.875800	-11.606000	21.013441	0.000962	20.786816
13.009768	-2.969900	3.875900	-11.508000	21.019856	0.000961	20.808879
14.007243	-3.009800	3.871400	-11.650000	21.038793	0.000960	20.806957
15.010105	-3.011600	3.870000	-11.654000	21.037697	0.000961	20.795429
16.008758	-3.007700	3.869600	-11.638000	21.016145	0.000961	20.782408
17.006233	-2.998300	3.868600	-11.598000	21.036377	0.000960	20.806437
18.014175	-2.997900	3.868800	-11.597000	21.068064	0.000960	20.811105
19.009185	-3.002300	3.867100	-11.608000	21.068443	0.000959	20.801526
20.008265	-3.000100	3.865200	-11.595000	21.075228	0.000958	20.806891
21.009456	-3.015500	3.864200	-11.651000	21.070541	0.000958	20.812160
22.006268	-2.994800	3.864400	-11.571000	21.083839	0.000958	20.809340
23.012341	-2.980500	3.864000	-11.516000	21.079527	0.000957	20.812613
24.010374	-3.015500	3.861700	-11.644000	21.097986	0.000956	20.789825
25.008870	-2.987200	3.862000	-11.535000	21.089206	0.000955	20.788155
26.010897	-2.985400	3.861000	-11.525000	21.092128	0.000956	20.795820
27.011891	-2.995100	3.859100	-11.557000	21.097144	0.000957	20.810794
28.017065	-2.999500	3.858400	-11.572000	21.125536	0.000955	20.782770
29.012571	-3.018300	3.857600	-11.641000	21.116007	0.000955	20.783669
30.010310	-2.992100	3.858800	-11.545000	21.146867	0.000955	20.786089
31.011823	-3.010300	3.857200	-11.611000	21.127136	0.000955	20.781525
32.013172	-2.999800	3.855500	-11.565000	21.137044	0.000955	20.778160
33.011435	-2.998600	3.855400	-11.560000	21.134097	0.000954	20.768099
34.011447	-2.982100	3.855800	-11.497000	21.137716	0.000954	20.781203
35.010635	-2.986300	3.855300	-11.512000	21.169323	0.000951	20.783421
36.011795	-3.003800	3.854500	-11.577000	21.161668	0.000953	20.793308
37.011535	-2.996100	3.853800	-11.545000	21.189605	0.000952	20.776210
38.022049	-3.009900	3.852400	-11.593000	21.187462	0.000955	20.798248
39.011964	-3.011000	3.853000	-11.598000	21.183649	0.000952	20.784950
40.013318	-3.020100	3.850700	-11.629000	21.194798	0.000954	20.784724
41.018463	-3.021400	3.851100	-11.635000	21.206599	0.000952	20.782778
42.016766	-3.012300	3.851500	-11.600000	21.225208	0.000955	20.771996
43.016754	-3.007500	3.850200	-11.578000	21.200936	0.000954	20.793708
44.022016	-3.000600	3.849800	-11.551000	21.231497	0.000955	20.783503
45.016817	-2.967600	3.851100	-11.428000	21.235788	0.000952	20.789692
46.020999	-2.979000	3.849200	-11.465000	21.245518	0.000951	20.773348
47.017990	-3.002900	3.848900	-11.555000	21.244298	0.000952	20.776869
48.018455	-2.982300	3.848400	-11.476000	21.267328	0.000951	20.791374
49.016829	-3.006800	3.848400	-11.570000	21.266426	0.000954	20.787152
50.018802	-2.986500	3.846800	-11.487000	21.290602	0.000954	20.772457
51.017645	-2.982800	3.847500	-11.476000	21.290354	0.000951	20.797340
52.015445	-3.001600	3.848100	-11.549000	21.279132	0.000952	20.784216
53.016281	-3.016200	3.846500	-11.600000	21.307194	0.000953	20.774831
54.021115	-2.988400	3.847500	-11.497000	21.289662	0.000953	20.782422
55.016299	-3.002700	3.845200	-11.544000	21.304556	0.000952	20.764131
56.017123	-3.006400	3.845800	-11.561000	21.309423	0.000953	20.763311
57.018626	-2.984200	3.843700	-11.470000	21.326608	0.000952	20.775289
58.023249	-2.992200	3.844400	-11.503000	21.325961	0.000952	20.770374
59.023937	-3.005300	3.842900	-11.547000	21.309101	0.000951	20.780533
60.019064	-3.005600	3.843800	-11.552000	21.340155	0.000950	20.785996
61.027437	-3.021300	3.843000	-11.611000	21.366731	0.000953	20.778920
62.023910	-2.988300	3.844200	-11.486000	21.345952	0.000950	20.776150
63.022557	-2.974300	3.843300	-11.430000	21.391626	0.000951	20.788655
64.022250	-3.019500	3.842800	-11.602000	21.378657	0.000953	20.767144
65.023731	-2.993000	3.842500	-11.499000	21.372100	0.000951	20.780499
66.023225	-2.991500	3.841300	-11.490000	21.398293	0.000954	20.790110
67.021704	-2.990400	3.841900	-11.488000	21.391436	0.000954	20.766653
68.024069	-2.970900	3.843600	-11.417000	21.395004	0.000953	20.754102
69.023245	-2.996700	3.840700	-11.508000	21.425087	0.000954	20.759545
70.023742	-3.016900	3.839400	-11.582000	21.415036	0.000952	20.769877
71.026176	-2.995300	3.840700	-11.502000	21.421353	0.000953	20.762447
72.023969	-3.012100	3.839700	-11.565000	21.423302	0.000952	20.772458
73.024125	-3.018300	3.838100	-11.583000	21.446420	0.000953	20.750069
74.024308	-2.994200	3.838700	-11.492000	21.441059	0.000951	20.750869
75.023752	-2.969600	3.840700	-11.404000	21.460068	0.000952	20.753768
76.029033	-2.976600	3.839600	-11.426000	21.445752	0.000954	20.757462
77.023733	-2.986500	3.839000	-11.464000	21.454583	0.000952	20.760608
78.021970	-2.995600	3.837500	-11.494000	21.450441	0.000952	20.757412
79.028330	-2.978300	3.837700	-11.429000	21.467756	0.000954	20.762410
80.020738	-3.002700	3.836700	-11.519000	21.486242	0.000952	20.776164
81.027214	-2.990100	3.837900	-11.474000	21.471201	0.000952	20.733613
82.029055	-2.992500	3.837200	-11.481000	21.498517	0.000951	20.744824
83.023814	-3.016500	3.836400	-11.572000	21.522432	0.000952	20.759271
84.025330	-2.995200	3.836600	-11.490000	21.519441	0.000952	20.766710
85.029045	-3.006100	3.835700	-11.530000	21.539796	0.000953	20.745825
86.019162	-3.022400	3.834600	-11.588000	21.561720	0.000953	20.735047
87.025425	-3.030800	3.834500	-11.619000	21.540723	0.000953	20.726363
88.024309	-2.991000	3.834300	-11.467000	21.550995	0.000953	20.756084
89.025080	-2.988200	3.834200	-11.456000	21.561374	0.000954	20.738494
90.027877	-3.005200	3.833000	-11.518000	21.578560	0.000955	20.738622
91.023378	-2.991500	3.834000	-11.469000	21.558609	0.000955	20.745685
92.036292	-2.994200	3.833500	-11.476000	21.565296	0.000955	20.730565
93.025135	-3.001600	3.832900	-11.504000	21.599441	0.000953	20.742922
94.026248	-2.994000	3.833000	-11.474000	21.573854	0.000954	20.729645
95.026695	-3.003900	3.832100	-11.510000	21.591040	0.000954	20.757275
96.029498	-3.002900	3.833300	-11.510000	21.630717	0.000954	20.741978
97.024673	-2.963300	3.834500	-11.361000	21.613935	0.000955	20.736090
98.027683	-3.008400	3.830900	-11.523000	21.619650	0.000954	20.750344
99.030010	-2.990100	3.831300	-11.455000	21.613317	0.000956	20.760602
100.028287	-2.993000	3.831500	-11.467000	21.657682	0.000955	20.743833
101.031586	-2.999700	3.830300	-11.488000	21.654666	0.000956	20.740340
102.028119	-2.993400	3.830700	-11.466000	21.657142	0.000954	20.730490
103.031850	-2.989200	3.830400	-11.449000	21.660286	0.000957	20.749758
104.027189	-2.978000	3.831900	-11.411000	21.676646	0.000957	20.734361
105.028724	-2.999100	3.830700	-11.488000	21.696994	0.000954	20.738130
106.024574	-3.001700	3.830000	-11.496000	21.725100	0.000956	20.724057
107.029581	-2.983700	3.830300	-11.428000	21.707574	0.000954	20.741132
108.028280	-3.023700	3.828200	-11.575000	21.716827	0.000955	20.722890
109.028406	-3.002100	3.829200	-11.495000	21.720098	0.000955	20.740389
110.027803	-3.009200	3.829200	-11.522000	21.728029	0.000957	20.733627
111.028296	-3.025900	3.827300	-11.579000	21.738204	0.000956	20.711567
112.030138	-3.012600	3.827900	-11.530000	21.738282	0.000956	20.730613
113.031278	-2.997200	3.827100	-11.470000	21.752767	0.000957	20.745585
114.031420	-2.987400	3.828500	-11.436000	21.764520	0.000958	20.738855
115.025950	-3.005900	3.826800	-11.503000	21.775466	0.000958	20.730369
116.029747	-2.994100	3.828600	-11.462000	21.774745	0.000958	20.732967
117.030882	-2.984100	3.826300	-11.417000	21.780504	0.000956	20.725929
118.032133	-2.983900	3.827100	-11.418000	21.804789	0.000960	20.738381
119.036013	-2.993900	3.826000	-11.454000	21.802898	0.000959	20.729376
120.031508	-3.000200	3.825900	-11.478000	21.788591	0.000959	20.725961
121.034383	-3.003200	3.825900	-11.489000	21.810882	0.000959	20.732625
122.032961	-3.003300	3.827200	-11.492000	21.821600	0.000960	20.725335
123.034458	-3.003700	3.825600	-11.490000	21.819586	0.000961	20.732802
124.033790	-2.990700	3.826100	-11.441000	21.844969	0.000960	20.723120
125.033247	-3.020000	3.825300	-11.552000	21.852005	0.000961	20.721628
126.038393	-2.996600	3.824900	-11.460000	21.837196	0.000960	20.744739
127.037808	-2.979900	3.825300	-11.398000	21.874624	0.000961	20.729095
128.039238	-2.990500	3.826800	-11.442000	21.860413	0.000963	20.724827
129.035721	-3.003000	3.824000	-11.481000	21.874426	0.000963	20.720362
130.038855	-3.000800	3.824200	-11.475000	21.870814	0.000962	20.722910
131.036145	-3.002200	3.824800	-11.480000	21.872688	0.000963	20.720044
132.039162	-2.982600	3.824200	-11.405000	21.880745	0.000962	20.722893
133.038536	-2.998300	3.823600	-11.464000	21.890343	0.000963	20.733449
134.037889	-3.000400	3.823500	-11.471000	21.917965	0.000964	20.730278
135.035276	-3.000600	3.823700	-11.472000	21.931731	0.000964	20.721772
136.043429	-3.028200	3.822000	-11.573000	21.912635	0.000965	20.723520
137.046301	-2.988100	3.823500	-11.424000	21.920836	0.000964	20.718927
138.037616	-2.995400	3.822300	-11.448000	21.918225	0.000966	20.733857
139.042950	-2.998700	3.822100	-11.460000	21.924733	0.000963	20.728992
140.043296	-3.006000	3.821800	-11.487000	21.942086	0.000965	20.723128
141.037121	-3.007700	3.820800	-11.491000	21.942037	0.000964	20.710750
142.036451	-3.005800	3.822100	-11.487000	21.946325	0.000966	20.722629
143.037753	-3.008300	3.821000	-11.494000	21.961561	0.000967	20.733614
144.036714	-2.997900	3.820000	-11.451000	21.979989	0.000967	20.721714
145.039609	-2.987300	3.820200	-11.411000	21.985743	0.000967	20.724629
146.036974	-3.012600	3.820100	-11.508000	21.992625	0.000969	20.728200
147.036124	-3.020400	3.819100	-11.533000	22.002527	0.000967	20.712981
148.036925	-2.994100	3.819200	-11.434000	22.005146	0.000969	20.715603
149.040019	-2.988300	3.819300	-11.413000	22.005216	0.000971	20.741753
150.039471	-2.991600	3.819800	-11.425000	21.999730	0.000970	20.713026
151.042526	-3.004500	3.818800	-11.473000	22.011901	0.000971	20.707666
152.043512	-3.014300	3.818100	-11.509000	22.032416	0.000969	20.726782
153.046306	-3.023000	3.818000	-11.541000	22.037601	0.000970	20.725334
154.044249	-3.007700	3.817400	-11.481000	22.053528	0.000973	20.726580
155.042714	-3.027100	3.817800	-11.555000	22.051160	0.000972	20.723734
156.046396	-3.000200	3.818300	-11.454000	22.045254	0.000972	20.702173
157.042668	-2.995400	3.817600	-11.434000	22.051588	0.000973	20.740760
158.052639	-2.985400	3.818100	-11.397000	22.088955	0.000972	20.732175
159.044586	-2.999500	3.817200	-11.449000	22.092242	0.000975	20.725033
160.047153	-2.998200	3.817200	-11.444000	22.116125	0.000974	20.723339
161.044812	-2.995900	3.815900	-11.431000	22.116351	0.000975	20.755809
162.047527	-2.984100	3.817900	-11.393000	22.125819	0.000974	20.724984
163.045895	-2.988100	3.817000	-11.405000	22.125428	0.000974	20.746404
164.045437	-2.997300	3.816400	-11.437000	22.129661	0.000976	20.708915
165.046374	-2.973300	3.817500	-11.348000	22.122784	0.000977	20.713410
166.044459	-3.000800	3.815800	-11.450000	22.129563	0.000978	20.739638
167.047963	-2.993800	3.814400	-11.418000	22.105260	0.000979	20.731903
168.049850	-2.999300	3.814800	-11.440000	22.164181	0.000977	20.727829
169.053658	-3.011400	3.815200	-11.487000	22.146262	0.000980	20.730752
170.052279	-3.005400	3.816300	-11.468000	22.168122	0.000977	20.755958
171.051344	-3.008400	3.814900	-11.476000	22.169394	0.000980	20.736842
172.052164	-2.988200	3.815300	-11.399000	22.200947	0.000979	20.734768
173.052333	-2.985800	3.814800	-11.389000	22.200947	0.000979	20.743778
174.049658	-2.984500	3.814700	-11.384000	22.213610	0.000982	20.722790
175.053483	-2.994400	3.813900	-11.420000	22.235966	0.000981	20.744701
176.051681	-3.002500	3.812700	-11.446000	22.233697	0.000980	20.732946
177.049850	-2.996400	3.813200	-11.424000	22.226396	0.000981	20.717574
178.054905	-3.005400	3.812800	-11.458000	22.237638	0.000982	20.745427
179.054376	-2.996900	3.812100	-11.423000	22.254460	0.000982	20.770331
180.056953	-2.984100	3.813100	-11.378000	22.260295	0.000983	20.732550
181.054217	-3.036300	3.811700	-11.572000	22.249596	0.000986	20.723734
182.056728	-2.997700	3.811700	-11.426000	22.262860	0.000985	20.736541
183.055520	-3.001400	3.813300	-11.445000	22.267501	0.000985	20.745456
184.054790	-3.003900	3.812300	-11.449000	22.270638	0.000986	20.750495
185.055448	-2.980800	3.812200	-11.362000	22.284128	0.000985	20.739819
186.051837	-3.014100	3.810300	-11.484000	22.269267	0.000984	20.743431
187.053246	-3.023100	3.809800	-11.516000	22.284149	0.000987	20.745056
188.054425	-3.004900	3.810500	-11.449000	22.299557	0.000987	20.737725
189.058156	-2.982100	3.811900	-11.366000	22.314311	0.000988	20.741118
190.056731	-2.986600	3.811200	-11.382000	22.336912	0.000987	20.726291
191.058741	-2.989100	3.809900	-11.388000	22.330485	0.000989	20.724596
192.056090	-2.977200	3.811900	-11.348000	22.336789	0.000989	20.735651
193.053949	-2.981700	3.810100	-11.360000	22.372903	0.000990	20.759961
194.069443	-2.993200	3.809100	-11.400000	22.356335	0.000989	20.759491
195.056945	-2.983400	3.810000	-11.366000	22.384572	0.000990	20.744145
196.061193	-3.009800	3.808800	-11.461000	22.361420	0.000991	20.759368
197.065348	-3.022300	3.808300	-11.508000	22.390184	0.000992	20.738859
198.058533	-3.011500	3.808600	-11.468000	22.387018	0.000991	20.770777
199.061547	-3.013900	3.807700	-11.475000	22.395841	0.000992	20.748318
200.060738	-3.004300	3.807600	-11.438000	22.404463	0.000994	20.736088
201.060289	-2.999200	3.807800	-11.419000	22.405509	0.000992	20.748515
202.059801	-3.003300	3.807300	-11.433000	22.443844	0.000993	20.740438
203.060363	-3.007000	3.807400	-11.448000	22.439710	0.000995	20.747204
204.061596	-3.006900	3.806800	-11.445000	22.430710	0.000994	20.764744
205.057614	-2.989800	3.807000	-11.381000	22.432575	0.000994	20.756181
206.057741	-3.007200	3.806500	-11.446000	22.455681	0.000997	20.760353
207.061878	-3.029800	3.806600	-11.531000	22.467139	0.000997	20.760448
208.059498	-3.019200	3.806500	-11.491000	22.435173	0.000999	20.738867
209.060490	-2.983200	3.806300	-11.354000	22.470111	0.000996	20.751097
210.058844	-3.011500	3.806100	-11.462000	22.486707	0.000995	20.742586
211.061937	-2.992000	3.806500	-11.388000	22.489819	0.000998	20.772257
212.059635	-3.013400	3.804900	-11.465000	22.510079	0.000999	20.741811
213.061479	-2.970900	3.806300	-11.307000	22.534171	0.000999	20.747448
214.059398	-3.016500	3.803400	-11.471000	22.537267	0.000999	20.761454
215.060453	-2.987400	3.804500	-11.365000	22.541721	0.000999	20.777295
216.061905	-3.011200	3.803000	-11.450000	22.560460	0.001000	20.755760
217.060843	-2.995100	3.803400	-11.391000	22.546583	0.001002	20.751344
218.062840	-3.004700	3.803700	-11.427000	22.581266	0.001000	20.762848
219.066723	-2.998400	3.802100	-11.399000	22.578850	0.001001	20.772756
220.062327	-2.995500	3.803600	-11.392000	22.544269	0.001003	20.779373
221.063336	-3.011200	3.802400	-11.449000	22.551025	0.001004	20.748206
222.068545	-2.991300	3.803200	-11.375000	22.551194	0.001005	20.770187
223.061869	-2.982500	3.802400	-11.339000	22.586877	0.001005	20.769416
224.060376	-2.998400	3.802600	-11.401000	22.595646	0.001006	20.772983
225.060428	-2.988100	3.803100	-11.362000	22.587030	0.001004	20.764827
226.059894	-2.985800	3.800700	-11.347000	22.616006	0.001004	20.738846
227.061371	-2.984400	3.802200	-11.347000	22.606966	0.001006	20.761087
228.061370	-3.000500	3.801800	-11.405000	22.630686	0.001006	20.775836
229.061476	-2.996000	3.800200	-11.385000	22.647798	0.001007	20.758836
230.061880	-3.006400	3.800900	-11.424000	22.677876	0.001006	20.771420
231.063258	-2.995700	3.800800	-11.385000	22.665247	0.001008	20.763986
232.065404	-2.974100	3.802400	-11.308000	22.665963	0.001008	20.776083
233.060980	-2.968900	3.799900	-11.281000	22.657521	0.001008	20.778058
234.065181	-2.990900	3.800100	-11.364000	22.665646	0.001009	20.794258
235.070354	-3.001200	3.798400	-11.399000	22.696346	0.001009	20.775222
236.065757	-2.979600	3.800700	-11.322000	22.670508	0.001009	20.759298
237.064755	-2.970600	3.801100	-11.290000	22.696741	0.001008	20.773721
238.065839	-2.962500	3.800100	-11.256000	22.683338	0.001011	20.761244
239.071981	-2.991500	3.800600	-11.369000	22.667939	0.001010	20.796080
240.063177	-2.971800	3.798600	-11.288000	22.710769	0.001012	20.779712
241.084255	-3.004300	3.798300	-11.410000	22.719190	0.001012	20.785303
242.065991	-2.987600	3.798400	-11.346000	22.717573	0.001012	20.766612
243.066963	-2.975400	3.798100	-11.300000	22.729761	0.001014	20.771235
244.076998	-3.004700	3.796900	-11.408000	22.715877	0.001015	20.770158
245.067750	-2.977100	3.797500	-11.305000	22.709604	0.001013	20.771907
246.067598	-2.980300	3.796700	-11.314000	22.708283	0.001015	20.793817
247.068865	-3.003200	3.796300	-11.400000	22.721640	0.001015	20.770686
248.074826	-2.991400	3.797500	-11.359000	22.753379	0.001015	20.766918
249.066354	-2.992400	3.795100	-11.355000	22.757956	0.001016	20.786676
250.070444	-2.982400	3.796200	-11.321000	22.771489	0.001017	20.781740
251.072214	-3.006200	3.795900	-11.410000	22.782470	0.001016	20.797482
252.073366	-3.003900	3.793900	-11.396000	22.795258	0.001017	20.770464
253.071412	-2.997400	3.795600	-11.376000	22.796847	0.001018	20.781538
254.073562	-2.992400	3.795400	-11.357000	22.799164	0.001018	20.779592
255.071081	-2.993900	3.794600	-11.359000	22.804391	0.001018	20.786725
256.073687	-2.994600	3.793900	-11.360000	22.821135	0.001020	20.803972
257.075167	-2.983900	3.794800	-11.323000	22.845722	0.001020	20.786878
258.068852	-2.984400	3.792700	-11.318000	22.839569	0.001021	20.788774
259.069484	-2.994300	3.794600	-11.361000	22.863008	0.001021	20.784280
260.070922	-2.992200	3.792600	-11.347000	22.856159	0.001023	20.782635
261.072442	-2.985100	3.793000	-11.322000	22.866699	0.001020	20.782289
262.072380	-2.989300	3.794000	-11.339000	22.864530	0.001023	20.805246
263.074912	-3.001300	3.792500	-11.381000	22.891730	0.001022	20.783658
264.074537	-3.008600	3.790300	-11.402000	22.905509	0.001023	20.805048
265.074687	-2.985300	3.793400	-11.323000	22.902048	0.001023	20.799684
266.069252	-3.020000	3.789500	-11.444000	22.908995	0.001025	20.795738
267.068093	-3.025500	3.790100	-11.465000	22.923547	0.001025	20.784713
268.072212	-2.995700	3.789600	-11.350000	22.883137	0.001026	20.801601
269.068053	-3.007800	3.789700	-11.398000	22.921925	0.001026	20.782614
270.071299	-3.000900	3.790000	-11.371000	22.927930	0.001027	20.808070
271.072364	-2.993900	3.789900	-11.346000	22.922102	0.001027	20.790852
272.079520	-2.988600	3.789500	-11.324000	22.944893	0.001026	20.806574
273.073243	-3.006400	3.789300	-11.392000	22.955753	0.001026	20.796592
274.078414	-2.990900	3.790600	-11.336000	22.972441	0.001029	20.804776
275.077489	-3.005000	3.789800	-11.387000	23.004671	0.001030	20.801032
276.071836	-2.994900	3.789000	-11.346000	22.989955	0.001030	20.786762
277.076804	-2.996600	3.788100	-11.351000	22.998897	0.001028	20.825593
278.075114	-2.996500	3.788500	-11.351000	23.012098	0.001031	20.800888
279.073150	-2.992900	3.788000	-11.336000	23.016687	0.001029	20.781303
280.074587	-2.984500	3.789300	-11.308000	23.015740	0.001030	20.820184
281.075711	-2.996300	3.785800	-11.343000	23.001790	0.001031	20.799569
282.073190	-2.999100	3.787700	-11.358000	23.008897	0.001032	20.808112
283.082249	-2.970300	3.787500	-11.249000	22.993478	0.001033	20.798827
284.077442	-3.011200	3.786000	-11.398000	22.992009	0.001032	20.789768
285.082006	-2.966100	3.786900	-11.232000	22.991391	0.001033	20.805745
286.077974	-3.013000	3.784700	-11.402000	22.980062	0.001035	20.810516
287.074827	-3.001300	3.785100	-11.360000	23.006835	0.001035	20.814107
288.076867	-2.992800	3.785600	-11.327000	22.994910	0.001035	20.812590
289.077597	-3.015100	3.784300	-11.409000	23.001486	0.001036	20.804480
290.078711	-2.993500	3.784900	-11.329000	22.985597	0.001036	20.826018
291.079682	-3.018700	3.784500	-11.423000	22.979050	0.001036	20.803338
292.075450	-3.009700	3.784800	-11.390000	22.983680	0.001037	20.798019
293.086030	-3.007500	3.783800	-11.379000	23.009914	0.001037	20.815295
294.078662	-3.010000	3.784500	-11.390000	23.042023	0.001041	20.819966
295.079914	-3.016200	3.783500	-11.410000	23.057664	0.001035	20.792490
296.079409	-3.004000	3.782000	-11.360000	23.056994	0.001039	20.804620
297.079796	-2.998000	3.784300	-11.344000	23.069573	0.001037	20.809164
298.088098	-3.000300	3.783100	-11.350000	23.086036	0.001039	20.813332
299.079174	-3.004400	3.781700	-11.361000	23.113885	0.001040	20.811366
300.078139	-2.995300	3.782200	-11.327000	23.142177	0.001039	20.802258
301.082057	-2.993700	3.782400	-11.323000	23.149427	0.001042	20.793402
302.081513	-2.981800	3.781800	-11.276000	23.164145	0.001042	20.832331
303.085769	-3.011400	3.782000	-11.387000	23.170926	0.001041	20.823953
304.082601	-2.987200	3.782300	-11.297000	23.181504	0.001044	20.817959
305.087134	-3.007100	3.780100	-11.366000	23.196600	0.001043	20.819336
306.088762	-3.003600	3.781100	-11.356000	23.189675	0.001043	20.820457
307.086333	-2.997800	3.778900	-11.327000	23.187540	0.001043	20.813576
308.085773	-2.995200	3.780400	-11.322000	23.201961	0.001046	20.810010
309.082057	-3.006800	3.779500	-11.363000	23.204775	0.001044	20.807140
310.084893	-2.999900	3.778600	-11.334000	23.192177	0.001045	20.822016
311.083694	-2.998000	3.778300	-11.327000	23.226569	0.001046	20.819023
312.091089	-2.999100	3.778600	-11.332000	23.224705	0.001044	20.814784
313.086050	-3.005400	3.778800	-11.357000	23.233024	0.001046	20.828337
314.089074	-2.992500	3.780000	-11.310000	23.266592	0.001047	20.823571
315.084923	-2.988800	3.776600	-11.287000	23.252575	0.001047	20.827541
316.089251	-2.996100	3.777700	-11.318000	23.275660	0.001046	20.821278
317.086405	-2.991900	3.777700	-11.301000	23.277557	0.001047	20.824602
318.086966	-3.003500	3.777500	-11.344000	23.266831	0.001048	20.818595
319.087836	-3.023200	3.776400	-11.416000	23.272332	0.001048	20.833116
320.087231	-2.996600	3.775700	-11.312000	23.256822	0.001048	20.836064
321.088418	-3.005700	3.775200	-11.345000	23.263026	0.001050	20.809091
322.090489	-3.034900	3.775000	-11.455000	23.299012	0.001050	20.838991
323.093707	-2.992300	3.776200	-11.299000	23.306331	0.001051	20.838740
324.093182	-2.996000	3.776100	-11.312000	23.311214	0.001049	20.828461
325.093717	-3.013300	3.775500	-11.374000	23.294133	0.001050	20.815136
326.086195	-2.982000	3.774800	-11.255000	23.309227	0.001051	20.848755
327.088710	-3.019400	3.774000	-11.394000	23.310770	0.001051	20.832283
328.091074	-2.988800	3.774600	-11.281000	23.313539	0.001051	20.836007
329.089682	-3.000900	3.774000	-11.323000	23.314160	0.001052	20.841845
330.086040	-2.975900	3.775400	-11.233000	23.314736	0.001050	20.854749
331.086907	-2.999400	3.773400	-11.317000	23.324725	0.001053	20.827303
332.087876	-2.986900	3.774200	-11.271000	23.316460	0.001054	20.837512
333.095026	-2.983100	3.772800	-11.253000	23.303460	0.001052	20.863362
334.090178	-2.994200	3.773400	-11.298000	23.280257	0.001055	20.840584
335.094276	-2.996600	3.773000	-11.305000	23.290345	0.001055	20.835995
336.089911	-2.992700	3.772100	-11.287000	23.286831	0.001053	20.842905
337.089627	-2.994900	3.772600	-11.297000	23.292710	0.001054	20.836469
338.087810	-3.004900	3.770100	-11.327000	23.279837	0.001055	20.865766
339.098147	-2.995200	3.770800	-11.294000	23.281561	0.001057	20.841891
340.086837	-3.009500	3.771000	-11.348000	23.298239	0.001055	20.838217
341.096654	-2.986700	3.771400	-11.263000	23.311038	0.001057	20.873802
342.091558	-2.979300	3.771000	-11.233000	23.315872	0.001057	20.835026
343.086312	-2.981100	3.771700	-11.243000	23.334525	0.001057	20.853720
344.090158	-2.987500	3.770900	-11.264000	23.385392	0.001058	20.862975
345.086751	-3.000400	3.769100	-11.307000	23.379118	0.001057	20.843412
346.090339	-3.017700	3.767800	-11.368000	23.407527	0.001060	20.851497
347.090161	-2.987700	3.769500	-11.260000	23.419304	0.001058	20.854767
348.091156	-3.006200	3.767700	-11.325000	23.404639	0.001059	20.850025
349.088523	-3.001900	3.768500	-11.311000	23.451423	0.001059	20.842390
350.089328	-2.979300	3.770000	-11.231000	23.450551	0.001063	20.859533
351.090037	-2.996800	3.768100	-11.290000	23.474449	0.001060	20.866418
352.089067	-2.988500	3.766700	-11.256000	23.467679	0.001059	20.863425
353.091920	-2.978000	3.768100	-11.221000	23.466753	0.001064	20.866764
354.092704	-2.975800	3.767900	-11.211000	23.435808	0.001063	20.856135
355.095447	-2.969000	3.768300	-11.187000	23.414993	0.001062	20.853765
356.096928	-2.985300	3.767600	-11.245000	23.402990	0.001063	20.859751
357.091452	-3.010000	3.766300	-11.336000	23.420094	0.001063	20.866463
358.095368	-2.988600	3.766800	-11.257000	23.420119	0.001063	20.877867
359.093459	-2.995500	3.765400	-11.277000	23.450937	0.001062	20.850911
360.096930	-2.997000	3.766300	-11.287000	23.456564	0.001064	20.878835
361.093574	-3.008800	3.765700	-11.329000	23.463956	0.001064	20.860167
362.099123	-2.979200	3.765300	-11.216000	23.476880	0.001064	20.853682
363.099099	-3.002000	3.763600	-11.297000	23.496743	0.001065	20.857471
364.095694	-3.021100	3.762300	-11.364000	23.488002	0.001064	20.866726
365.092790	-3.006700	3.763100	-11.313000	23.490240	0.001065	20.841944
366.095358	-3.012200	3.761300	-11.329000	23.514113	0.001068	20.852597
367.091883	-3.015300	3.764000	-11.348000	23.503410	0.001067	20.849456
368.095406	-2.985800	3.763400	-11.235000	23.488820	0.001066	20.847633
369.094280	-3.032800	3.760600	-11.404000	23.519740	0.001066	20.850651
370.091388	-2.997600	3.762400	-11.277000	23.511571	0.001068	20.864747
371.092518	-3.003300	3.761500	-11.296000	23.551900	0.001067	20.861552
372.093543	-2.991300	3.761500	-11.250000	23.553389	0.001069	20.856406
373.096519	-2.985200	3.761400	-11.227000	23.555630	0.001067	20.850119
374.099373	-2.996200	3.760600	-11.267000	23.560607	0.001068	20.833771
375.101744	-3.001800	3.760200	-11.286000	23.586297	0.001068	20.838187
376.096641	-2.990000	3.760900	-11.244000	23.593889	0.001070	20.838686
377.099593	-3.018500	3.758500	-11.345000	23.612262	0.001071	20.837663
378.101038	-2.994600	3.760200	-11.259000	23.596851	0.001073	20.842129
379.101578	-3.006600	3.759600	-11.303000	23.594087	0.001070	20.851211
380.098237	-3.035900	3.757600	-11.406000	23.627874	0.001070	20.834349
381.105806	-3.001300	3.757400	-11.276000	23.647636	0.001070	20.831401
382.100310	-2.983600	3.759300	-11.215000	23.616362	0.001070	20.833239
383.105166	-3.005700	3.758900	-11.297000	23.590373	0.001071	20.830893
384.106475	-3.005400	3.758400	-11.294000	23.579346	0.001069	20.828374
385.112487	-3.010700	3.758200	-11.313000	23.563614	0.001072	20.823983
386.101843	-2.989700	3.758300	-11.235000	23.548325	0.001072	20.833788
387.101028	-3.000500	3.757400	-11.273000	23.544689	0.001073	20.849108
388.108046	-3.002000	3.756700	-11.277000	23.544364	0.001073	20.825550
389.105508	-3.014500	3.755800	-11.320000	23.573912	0.001074	20.829566
390.106782	-2.993400	3.757900	-11.247000	23.580485	0.001071	20.836154
391.101737	-2.990100	3.755900	-11.230000	23.624472	0.001074	20.840895
392.108545	-3.002600	3.755900	-11.277000	23.634429	0.001073	20.845661
393.107233	-3.011900	3.754400	-11.307000	23.659792	0.001074	20.819406
394.108986	-3.012500	3.754600	-11.310000	23.673960	0.001074	20.828869
395.111953	-2.992900	3.755800	-11.240000	23.672961	0.001074	20.826444
396.115389	-2.984800	3.753500	-11.202000	23.625438	0.001075	20.843761
397.110145	-3.032300	3.752500	-11.377000	23.638583	0.001074	20.819955
398.116009	-2.986200	3.753800	-11.208000	23.628902	0.001075	20.827319
399.110998	-3.014100	3.752600	-11.308000	23.656058	0.001074	20.807128
400.108736	-2.971400	3.753800	-11.153000	23.656954	0.001076	20.827467
401.111865	-3.002600	3.753300	-11.269000	23.662202	0.001076	20.820874
402.109141	-3.028000	3.751800	-11.359000	23.686002	0.001076	20.819604
403.113490	-2.996800	3.750900	-11.240000	23.693939	0.001077	20.831829
404.112479	-3.005400	3.752600	-11.276000	23.731128	0.001077	20.826914
405.114602	-2.993300	3.752100	-11.230000	23.753055	0.001077	20.822346
406.112350	-2.993800	3.751900	-11.231000	23.730178	0.001077	20.803677
407.113244	-2.997500	3.751200	-11.244000	23.724133	0.001077	20.834125
408.119249	-2.999400	3.750400	-11.248000	23.728965	0.001076	20.819056
409.113112	-3.008100	3.750700	-11.282000	23.715472	0.001078	20.832555
410.113813	-3.000600	3.749500	-11.249000	23.718532	0.001078	20.816182
411.117478	-2.992800	3.750300	-11.223000	23.709295	0.001079	20.811663
412.120481	-3.002800	3.748600	-11.255000	23.722636	0.001079	20.800857
413.114942	-2.996100	3.749100	-11.231000	23.732695	0.001080	20.824692
414.121536	-2.988700	3.748600	-11.203000	23.761888	0.001078	20.796589
415.119633	-3.001400	3.748200	-11.248000	23.788396	0.001079	20.805149
416.115466	-3.004700	3.748400	-11.262000	23.761568	0.001079	20.802906
417.119164	-2.992100	3.748400	-11.214000	23.749444	0.001079	20.814933
418.116337	-3.017300	3.747100	-11.305000	23.750937	0.001080	20.798412
419.114944	-3.000600	3.748200	-11.244000	23.729281	0.001081	20.823166
420.117343	-3.006200	3.748500	-11.268000	23.747750	0.001080	20.792846
421.126188	-3.012000	3.746800	-11.285000	23.770282	0.001080	20.812591
422.117753	-3.015800	3.745500	-11.295000	23.773440	0.001080	20.784938
423.115331	-2.997600	3.747100	-11.231000	23.752706	0.001082	20.799236
424.121245	-3.021400	3.745100	-11.314000	23.775035	0.001084	20.797917
425.118998	-2.989000	3.747000	-11.199000	23.765158	0.001083	20.807928
426.120304	-2.993900	3.745200	-11.212000	23.779966	0.001082	20.795748
427.120148	-2.997200	3.745200	-11.224000	23.806547	0.001083	20.801063
428.120458	-2.989600	3.745400	-11.196000	23.788129	0.001081	20.790656
429.125145	-2.991900	3.744000	-11.200000	23.748803	0.001083	20.781573
430.128922	-3.002600	3.744300	-11.240000	23.769488	0.001080	20.800416
431.117053	-2.998600	3.743100	-11.223000	23.778843	0.001081	20.812641
432.118136	-2.988400	3.743900	-11.187000	23.759911	0.001082	20.795555
433.143253	-2.995300	3.742800	-11.210000	23.756901	0.001082	20.800597
434.121271	-2.998800	3.742400	-11.222000	23.764015	0.001083	20.794928
435.124144	-3.008900	3.741300	-11.255000	23.763669	0.001083	20.810703
436.120890	-2.989800	3.741900	-11.187000	23.783330	0.001081	20.802914
437.120294	-2.977500	3.741400	-11.139000	23.795580	0.001082	20.782006
438.124325	-2.983700	3.741800	-11.164000	23.800885	0.001083	20.798231
439.125808	-2.990800	3.739600	-11.184000	23.824328	0.001084	20.807038
440.120318	-3.005300	3.740600	-11.241000	23.824781	0.001083	20.774301
441.127454	-2.995400	3.739800	-11.201000	23.851907	0.001085	20.784431
442.122640	-2.985900	3.740500	-11.169000	23.857931	0.001085	20.786204
443.122121	-2.974000	3.738900	-11.119000	23.847878	0.001083	20.786555
444.121657	-3.002800	3.737700	-11.222000	23.834888	0.001085	20.781590
445.120274	-2.971500	3.740000	-11.112000	23.847167	0.001085	20.809075
446.121658	-3.003100	3.739000	-11.227000	23.813538	0.001084	20.787210
447.120301	-3.003900	3.737400	-11.225000	23.828848	0.001086	20.804457
448.120272	-2.992400	3.737800	-11.184000	23.868845	0.001084	20.786716
449.124755	-2.996400	3.737700	-11.198000	23.892636	0.001085	20.771691
450.123852	-2.988700	3.737700	-11.170000	23.858787	0.001085	20.782795
451.123430	-2.989800	3.737200	-11.171000	23.901221	0.001085	20.785990
452.125529	-2.993100	3.737100	-11.184000	23.904309	0.001087	20.777707
453.129939	-3.028100	3.735700	-11.311000	23.912328	0.001085	20.790014
454.126871	-2.985700	3.737600	-11.157000	23.930172	0.001084	20.792736
455.126471	-3.019500	3.735300	-11.277000	23.934206	0.001087	20.787297
456.128789	-2.971900	3.738100	-11.108000	23.906806	0.001087	20.784477
457.128620	-3.004300	3.736100	-11.223000	23.901210	0.001087	20.757528
458.128668	-3.038000	3.734900	-11.345000	23.929128	0.001084	20.784102
459.131862	-3.006300	3.734400	-11.226000	23.907225	0.001088	20.783001
460.127428	-2.999100	3.734800	-11.201000	23.940102	0.001089	20.787994
461.129147	-3.013300	3.732000	-11.244000	23.955907	0.001088	20.782506
462.129882	-3.007100	3.733000	-11.224000	23.967255	0.001088	20.776342
463.128716	-2.999300	3.732900	-11.195000	23.980593	0.001088	20.778338
464.129676	-2.995600	3.732900	-11.181000	24.009085	0.001087	20.777513
465.127274	-3.017400	3.731100	-11.257000	24.006449	0.001088	20.764439
466.137327	-3.002500	3.732200	-11.204000	24.016127	0.001087	20.763713
467.128185	-3.029700	3.730600	-11.301000	23.993876	0.001088	20.776012
468.129996	-3.005000	3.731700	-11.213000	24.009504	0.001088	20.765605
469.127676	-2.977700	3.733100	-11.114000	23.986809	0.001091	20.791210
470.131387	-3.002700	3.731900	-11.205000	24.014779	0.001088	20.770421
471.135964	-3.001500	3.730800	-11.197000	24.043221	0.001089	20.781401
472.130235	-2.996800	3.729800	-11.175000	24.011819	0.001089	20.758443
473.133914	-2.987200	3.730800	-11.144000	23.996861	0.001088	20.757668
474.127973	-3.003900	3.730500	-11.205000	23.996310	0.001087	20.761383
475.132001	-2.994100	3.729500	-11.166000	24.029357	0.001088	20.776507
476.131653	-2.995300	3.729400	-11.169000	24.014075	0.001086	20.762603
477.134065	-2.999500	3.728500	-11.183000	23.991159	0.001087	20.780399
478.129153	-3.001100	3.727300	-11.185000	23.969635	0.001087	20.764030
479.128648	-2.979300	3.728600	-11.107000	23.950619	0.001088	20.755392
480.134556	-2.993600	3.728800	-11.162000	23.950117	0.001088	20.772907
481.132661	-3.004200	3.726600	-11.194000	23.960100	0.001087	20.792875
482.130281	-2.991200	3.727900	-11.150000	23.994690	0.001089	20.760707
483.135081	-3.014200	3.726400	-11.231000	23.996976	0.001088	20.765844
484.132052	-3.001700	3.727000	-11.186000	24.003373	0.001089	20.765621
485.131253	-3.004300	3.725200	-11.191000	24.019276	0.001088	20.769716
486.133056	-3.017900	3.725500	-11.243000	24.008323	0.001087	20.771534
487.140413	-3.000100	3.724400	-11.173000	23.994616	0.001090	20.754468
488.133322	-2.999800	3.725100	-11.173000	23.987224	0.001088	20.769341
489.132155	-2.997900	3.723700	-11.162000	23.999073	0.001088	20.764628
490.131971	-2.995700	3.724700	-11.157000	24.038538	0.001089	20.759635
491.136568	-2.981300	3.725100	-11.103000	24.012484	0.001087	20.749153
492.133196	-3.019300	3.722200	-11.237000	24.067526	0.001087	20.754093
493.140647	-2.993000	3.723600	-11.144000	24.091740	0.001088	20.763680
494.136618	-3.040100	3.722900	-11.317000	24.112916	0.001086	20.760262
495.138223	-3.003500	3.722200	-11.178000	24.125759	0.001089	20.772194
496.136375	-2.988700	3.722600	-11.124000	24.107416	0.001090	20.750951
497.134301	-3.012300	3.722000	-11.211000	24.135214	0.001088	20.762237
498.137378	-3.019000	3.721200	-11.231000	24.149643	0.001087	20.756794
499.137960	-3.010500	3.722200	-11.205000	24.163180	0.001088	20.762311
500.139449	-2.997000	3.720200	-11.147000	24.159423	0.001089	20.749533
501.142318	-2.980100	3.721900	-11.090000	24.113767	0.001088	20.744045
502.141852	-2.976000	3.721800	-11.075000	24.104341	0.001089	20.770628
503.138404	-2.995000	3.721000	-11.144000	24.094359	0.001087	20.745917
504.143590	-2.979700	3.720300	-11.084000	24.101977	0.001087	20.752609
505.141729	-3.013400	3.719700	-11.208000	24.078166	0.001090	20.770455
506.140100	-2.991500	3.718900	-11.125000	24.077989	0.001086	20.741353
507.138137	-2.990800	3.719500	-11.123000	24.077270	0.001088	20.764814
508.139319	-2.974200	3.718600	-11.059000	24.093722	0.001088	20.748598
509.136781	-2.989600	3.718800	-11.117000	24.108678	0.001088	20.743209
510.142838	-2.997900	3.718800	-11.148000	24.099597	0.001089	20.748800
511.137566	-2.986900	3.717800	-11.104000	24.109550	0.001087	20.758782
512.141373	-2.990200	3.718400	-11.117000	24.143145	0.001088	20.764975
513.137468	-2.983100	3.717600	-11.088000	24.148616	0.001089	20.764773
514.136419	-3.000300	3.718400	-11.154000	24.191985	0.001089	20.738096
515.139012	-3.002100	3.716000	-11.155000	24.186316	0.001087	20.756119
516.138643	-2.992400	3.715500	-11.117000	24.220529	0.001088	20.777634
517.141217	-2.985900	3.715800	-11.093000	24.207047	0.001087	20.744669
518.151165	-3.000200	3.715700	-11.147000	24.218018	0.001088	20.743819
519.150542	-2.986200	3.714600	-11.092000	24.242549	0.001087	20.729545
520.142096	-2.997800	3.716000	-11.139000	24.196696	0.001088	20.754676
521.146144	-2.966900	3.715500	-11.022000	24.176299	0.001089	20.752235
522.145455	-3.005700	3.712600	-11.158000	24.143630	0.001089	20.748867
523.144744	-3.020000	3.712800	-11.211000	24.109390	0.001089	20.748664
524.141674	-3.003600	3.713600	-11.153000	24.132851	0.001088	20.734736
525.144526	-2.993400	3.713600	-11.116000	24.126405	0.001088	20.741073
526.145067	-3.008200	3.711900	-11.165000	24.148456	0.001088	20.727627
527.143588	-2.987700	3.711700	-11.089000	24.147457	0.001088	20.722358
528.146168	-3.010300	3.712300	-11.173000	24.170848	0.001088	20.733017
529.145269	-2.993800	3.712900	-11.115000	24.179406	0.001088	20.739705
530.146560	-2.992600	3.712000	-11.107000	24.217003	0.001089	20.726205
531.146413	-3.012200	3.710200	-11.175000	24.215954	0.001088	20.739853
532.148056	-2.985900	3.711200	-11.079000	24.269070	0.001087	20.713946
533.143665	-3.011900	3.710400	-11.174000	24.260964	0.001087	20.729998
534.148267	-3.021900	3.710200	-11.211000	24.294920	0.001087	20.730868
535.145004	-2.992100	3.709200	-11.096000	24.271758	0.001089	20.723281
536.143361	-2.996100	3.708800	-11.111000	24.272654	0.001088	20.735561
537.146218	-2.984100	3.708500	-11.066000	24.299745	0.001086	20.745667
538.149799	-2.978200	3.709200	-11.045000	24.310095	0.001088	20.728547
539.148605	-2.983500	3.708700	-11.064000	24.294394	0.001087	20.733660
540.147458	-2.991600	3.709000	-11.094000	24.285491	0.001087	20.730893
541.152228	-2.990300	3.708000	-11.087000	24.261133	0.001087	20.719261
542.146361	-3.005400	3.708800	-11.145000	24.253121	0.001087	20.728769
543.149940	-3.016900	3.708100	-11.185000	24.226226	0.001087	20.731190
544.148874	-3.008300	3.707400	-11.151000	24.191545	0.001086	20.753777
545.155521	-3.007700	3.707300	-11.150000	24.172340	0.001088	20.721710
546.152319	-3.007600	3.705500	-11.143000	24.194760	0.001086	20.736138
547.144709	-3.017200	3.705700	-11.179000	24.217298	0.001088	20.739779
548.148670	-2.995100	3.705600	-11.099000	24.232676	0.001087	20.715847
549.148081	-2.983100	3.707000	-11.057000	24.249246	0.001086	20.722510
550.149148	-2.986200	3.706300	-11.066000	24.269148	0.001086	20.715921
551.145048	-3.010600	3.704400	-11.151000	24.283280	0.001086	20.727726
552.147977	-2.992700	3.705100	-11.088000	24.301287	0.001085	20.724452
553.150304	-3.002200	3.705500	-11.124000	24.320621	0.001086	20.709233
554.147438	-2.979800	3.703800	-11.036000	24.312286	0.001086	20.726003
555.147930	-2.987300	3.704000	-11.063000	24.307185	0.001086	20.706186
556.152200	-3.031300	3.702100	-11.220000	24.298928	0.001086	20.719241
557.149285	-3.007400	3.702600	-11.135000	24.283304	0.001087	20.730122
558.150486	-2.978800	3.704100	-11.033000	24.270365	0.001087	20.734686
559.152465	-3.015800	3.701300	-11.161000	24.223094	0.001086	20.738480
560.152840	-3.000500	3.702200	-11.108000	24.225108	0.001086	20.734336
561.151549	-2.986000	3.702100	-11.053000	24.216994	0.001089	20.730938
562.152882	-2.992200	3.701300	-11.074000	24.253117	0.001088	20.739671
563.155225	-2.983200	3.701400	-11.041000	24.281557	0.001086	20.740698
564.153087	-2.989900	3.701200	-11.065000	24.290883	0.001086	20.719232
565.162650	-2.987300	3.701200	-11.054000	24.304316	0.001086	20.718956
566.156741	-2.999900	3.700000	-11.099000	24.342302	0.001085	20.710119
567.154497	-2.999500	3.699600	-11.096000	24.340564	0.001085	20.716436
568.158133	-3.016300	3.697200	-11.151000	24.365512	0.001084	20.720126
569.155169	-2.999600	3.699800	-11.096000	24.372823	0.001086	20.730781
570.157737	-3.009100	3.698800	-11.129000	24.371056	0.001086	20.725689
571.156097	-3.016900	3.697100	-11.153000	24.376309	0.001086	20.719578
572.158983	-3.006600	3.696600	-11.113000	24.397697	0.001086	20.721594
573.154587	-3.022900	3.696600	-11.173000	24.413968	0.001085	20.752144
574.160464	-2.987900	3.698000	-11.048000	24.432376	0.001084	20.725565
575.161564	-3.000500	3.697600	-11.093000	24.424292	0.001083	20.719825
576.156946	-2.994500	3.697000	-11.070000	24.416803	0.001085	20.723219
577.168011	-3.000800	3.695200	-11.088000	24.400877	0.001084	20.734269
578.170053	-2.995100	3.696000	-11.069000	24.401428	0.001084	20.735770
579.161871	-3.007000	3.694600	-11.109000	24.411354	0.001086	20.723441
580.157750	-3.005200	3.695700	-11.106000	24.404387	0.001084	20.726884
581.160882	-2.973000	3.695600	-10.985000	24.424189	0.001082	20.717351
582.161984	-3.008700	3.694900	-11.115000	24.390779	0.001085	20.726035
583.163161	-2.998200	3.694600	-11.076000	24.378170	0.001084	20.726662
584.161308	-2.999900	3.694400	-11.081000	24.405555	0.001083	20.731375
585.164334	-2.996300	3.694500	-11.069000	24.408099	0.001083	20.733453
586.168714	-3.011200	3.693400	-11.121000	24.379711	0.001083	20.712086
587.158799	-3.002800	3.691400	-11.083000	24.387003	0.001082	20.727936
588.170461	-2.993400	3.693500	-11.055000	24.370686	0.001083	20.731008
589.162886	-3.006300	3.691800	-11.097000	24.374915	0.001083	20.741889
590.165005	-2.995600	3.692200	-11.059000	24.373399	0.001083	20.736574
591.162870	-3.006800	3.691200	-11.097000	24.361533	0.001082	20.718980
592.166650	-2.984600	3.691500	-11.018000	24.368302	0.001081	20.751377
593.165168	-3.004800	3.691400	-11.091000	24.419791	0.001082	20.729536
594.164330	-3.005800	3.689300	-11.087000	24.403130	0.001082	20.734633
595.167250	-2.986600	3.691200	-11.024000	24.396612	0.001082	20.737577
596.164770	-2.992900	3.691300	-11.046000	24.391068	0.001083	20.741498
597.169516	-2.993900	3.691400	-11.051000	24.400570	0.001084	20.737754
598.161924	-2.974400	3.690800	-10.977000	24.422891	0.001080	20.715101
599.163006	-3.003300	3.690900	-11.084000	24.427888	0.001081	20.745246
600.164128	-3.014400	3.686600	-11.111000	24.439511	0.001083	20.726086
601.168458	-2.997200	3.689200	-11.056000	24.447763	0.001083	20.738633
602.166577	-3.016900	3.688400	-11.127000	24.497942	0.001082	20.749621
603.167756	-3.020300	3.688000	-11.138000	24.507468	0.001081	20.746851
604.175979	-3.000200	3.687300	-11.060000	24.496874	0.001082	20.717728
605.168328	-2.994300	3.688100	-11.041000	24.489287	0.001082	20.723867
606.170801	-2.996100	3.687300	-11.046000	24.510185	0.001082	20.722074
607.170112	-3.000500	3.686600	-11.060000	24.518514	0.001081	20.727587
608.168374	-3.014500	3.686400	-11.112000	24.528665	0.001080	20.749626
609.165129	-2.994500	3.687200	-11.040000	24.542448	0.001079	20.727892
610.170009	-2.999100	3.687100	-11.057000	24.563866	0.001082	20.749383
611.169616	-2.999700	3.686100	-11.056000	24.562423	0.001079	20.735133
612.167614	-3.006300	3.684500	-11.077000	24.572097	0.001080	20.751951
613.172744	-2.993500	3.684200	-11.027000	24.529865	0.001081	20.769323
614.172164	-2.990900	3.685600	-11.021000	24.554464	0.001080	20.723352
615.171658	-3.000300	3.684300	-11.053000	24.515589	0.001080	20.744093
616.168907	-3.001800	3.684000	-11.057000	24.534069	0.001078	20.723752
617.173520	-3.001400	3.683300	-11.054000	24.529495	0.001079	20.738131
618.168328	-2.995600	3.682600	-11.031000	24.601724	0.001079	20.722883
619.174009	-2.999200	3.682500	-11.043000	24.563176	0.001081	20.731620
620.170173	-3.011600	3.684100	-11.093000	24.571357	0.001078	20.746468
621.173151	-2.991100	3.683500	-11.016000	24.563628	0.001079	20.723064
622.175377	-2.992800	3.681700	-11.018000	24.560694	0.001079	20.742881
623.172796	-3.006900	3.681800	-11.070000	24.602575	0.001080	20.712356
624.174379	-3.005400	3.681600	-11.062000	24.569648	0.001077	20.732424
625.171236	-3.003800	3.682100	-11.058000	24.548333	0.001079	20.720520
626.176064	-2.998200	3.680200	-11.032000	24.539728	0.001074	20.729431
627.176122	-2.985900	3.679500	-10.985000	24.538734	0.001078	20.736494
628.173211	-3.001000	3.680900	-11.045000	24.534391	0.001075	20.746362
629.173065	-3.015000	3.678500	-11.090000	24.544010	0.001077	20.749850
630.175047	-2.999300	3.679300	-11.034000	24.565675	0.001076	20.756888
631.177203	-3.014700	3.677400	-11.085000	24.573511	0.001078	20.741517
632.175248	-3.005700	3.678100	-11.054000	24.582893	0.001076	20.739076
633.180702	-2.979500	3.679200	-10.960000	24.583666	0.001077	20.738903
634.172276	-2.993900	3.677800	-11.010000	24.558644	0.001077	20.740350
635.177831	-2.999300	3.677900	-11.030000	24.563744	0.001075	20.734087
636.176499	-2.984200	3.678200	-10.976000	24.517584	0.001076	20.746568
637.176787	-3.002800	3.677100	-11.041000	24.490699	0.001076	20.762270
638.179554	-3.006500	3.677000	-11.054000	24.488238	0.001077	20.749843
639.180234	-3.027400	3.676000	-11.128000	24.484383	0.001077	20.765416
640.178401	-3.008100	3.676000	-11.055000	24.520827	0.001076	20.754564
641.182209	-3.017400	3.675900	-11.090000	24.528166	0.001076	20.771886
642.180690	-3.011700	3.675100	-11.067000	24.513767	0.001077	20.748903
643.183539	-3.025700	3.674000	-11.115000	24.549215	0.001076	20.733260
644.178053	-2.991100	3.675600	-10.992000	24.585726	0.001076	20.733857
645.177581	-3.013900	3.673800	-11.071000	24.588693	0.001075	20.763389
646.183574	-3.020900	3.674800	-11.101000	24.632685	0.001075	20.753476
647.181558	-3.018200	3.673200	-11.085000	24.634805	0.001075	20.749440
648.186102	-3.016500	3.673600	-11.080000	24.670147	0.001074	20.741280
649.182714	-3.006800	3.672300	-11.041000	24.673105	0.001074	20.755629
650.186882	-2.992600	3.673400	-10.991000	24.645727	0.001074	20.752339
651.184737	-2.976500	3.672600	-10.931000	24.651028	0.001075	20.767615
652.184417	-3.015200	3.671900	-11.070000	24.639790	0.001073	20.747804
653.188657	-2.988000	3.672300	-10.972000	24.616016	0.001072	20.764725
654.190970	-3.012300	3.671600	-11.059000	24.607510	0.001073	20.762355
655.187203	-3.025000	3.670600	-11.103000	24.583114	0.001074	20.756842
656.185471	-3.022700	3.670900	-11.094000	24.605895	0.001074	20.774959
657.186356	-3.009300	3.670300	-11.044000	24.600052	0.001074	20.754871
658.189736	-2.990700	3.670500	-10.976000	24.617265	0.001073	20.756496
659.189364	-2.977800	3.671300	-10.932000	24.645297	0.001073	20.765184
660.183090	-3.017900	3.670300	-11.076000	24.666881	0.001071	20.755548
661.184184	-3.001700	3.669400	-11.014000	24.650446	0.001069	20.742848
662.185746	-3.015300	3.669300	-11.062000	24.677778	0.001072	20.752258
663.184036	-2.992100	3.670000	-10.980000	24.661137	0.001074	20.751206
664.185056	-3.009200	3.668900	-11.039000	24.681632	0.001071	20.762289
665.185462	-3.019700	3.668600	-11.076000	24.686283	0.001071	20.766008
666.191673	-3.018800	3.667300	-11.070000	24.736965	0.001070	20.751433
667.192216	-3.002400	3.668100	-11.013000	24.732515	0.001069	20.739855
668.186093	-3.002100	3.668000	-11.011000	24.711721	0.001071	20.757869
669.191817	-3.013900	3.667200	-11.050000	24.695483	0.001069	20.763860
670.186917	-2.992300	3.666900	-10.972000	24.698466	0.001070	20.770173
671.188327	-3.001500	3.666700	-11.004000	24.694686	0.001070	20.756422
672.189326	-3.007000	3.666700	-11.025000	24.702566	0.001070	20.759588
673.187317	-3.007900	3.665900	-11.025000	24.694805	0.001070	20.777404
674.185711	-2.981600	3.666600	-10.931000	24.690149	0.001069	20.755188
675.187599	-3.004900	3.663800	-11.007000	24.678193	0.001069	20.777330
676.189472	-2.979500	3.666000	-10.922000	24.666153	0.001068	20.765723
677.188642	-3.011600	3.663700	-11.033000	24.678542	0.001069	20.767723
678.187750	-2.997200	3.663700	-10.980000	24.656703	0.001068	20.765723
679.190156	-2.985300	3.664000	-10.936000	24.715615	0.001068	20.757035
680.187545	-2.986500	3.663500	-10.940000	24.735632	0.001068	20.754363
681.190901	-3.001500	3.663000	-10.993000	24.751948	0.001067	20.777849
682.193458	-2.982300	3.663600	-10.923000	24.754606	0.001067	20.782413
683.190400	-2.988300	3.663100	-10.945000	24.760699	0.001068	20.772881
684.190142	-3.003300	3.662600	-10.999000	24.821746	0.001066	20.766341
685.190088	-3.008000	3.663500	-11.019000	24.854443	0.001067	20.777820
686.189253	-3.008000	3.661000	-11.011000	24.866850	0.001067	20.779366
687.190804	-2.996500	3.661400	-10.970000	24.877888	0.001067	20.779539
688.193810	-3.006300	3.661200	-11.005000	24.872342	0.001066	20.782034
689.191360	-2.996100	3.661300	-10.968000	24.873907	0.001065	20.785501
690.192749	-3.019100	3.660200	-11.048000	24.877235	0.001067	20.775090
691.190097	-3.020100	3.659900	-11.052000	24.897027	0.001067	20.781679
692.191427	-3.007200	3.660200	-11.005000	24.871689	0.001067	20.769049
693.192441	-2.974400	3.659200	-10.882000	24.880287	0.001066	20.792852
694.195440	-2.996400	3.658400	-10.960000	24.860617	0.001065	20.784964
695.190298	-3.002900	3.659700	-10.987000	24.852064	0.001064	20.763578
696.194847	-2.995400	3.658300	-10.957000	24.854175	0.001065	20.783241
697.191620	-3.003000	3.659100	-10.988000	24.870583	0.001065	20.785958
698.203683	-2.994900	3.658200	-10.955000	24.875554	0.001065	20.798059
699.195260	-3.031000	3.656900	-11.082000	24.906335	0.001063	20.789124
700.194054	-3.010900	3.656500	-11.007000	24.910755	0.001064	20.780758
701.214053	-2.990200	3.657700	-10.936000	24.936467	0.001063	20.797555
702.196310	-3.022900	3.655700	-11.049000	24.927836	0.001066	20.814971
703.198496	-2.985500	3.657800	-10.919000	24.956825	0.001063	20.785273
704.197356	-2.969900	3.657800	-10.862000	24.964379	0.001062	20.786216
705.197155	-2.985400	3.656400	-10.914000	24.975121	0.001063	20.777558
706.196242	-2.987300	3.655900	-10.920000	24.961594	0.001062	20.804758
707.196680	-2.987100	3.655900	-10.918000	24.923275	0.001062	20.795221
708.203926	-3.013500	3.656000	-11.015000	24.895875	0.001061	20.799963
709.199629	-2.983200	3.656300	-10.907000	24.880182	0.001062	20.800808
710.196784	-2.976900	3.655600	-10.881000	24.846812	0.001062	20.787230
711.204427	-2.990600	3.655600	-10.931000	24.842091	0.001059	20.797666
712.196489	-3.012400	3.653500	-11.005000	24.846339	0.001061	20.794343
713.200773	-2.979800	3.654100	-10.886000	24.873814	0.001059	20.785408
714.201686	-3.006500	3.654500	-10.986000	24.890576	0.001061	20.788480
715.199470	-3.003000	3.653400	-10.970000	24.932419	0.001059	20.802976
716.198018	-2.997300	3.652700	-10.946000	24.943157	0.001059	20.794313
717.202389	-2.998000	3.653500	-10.953000	24.952905	0.001057	20.799356
718.207210	-2.998400	3.652800	-10.951000	24.953948	0.001058	20.798507
719.202147	-3.000400	3.652000	-10.956000	24.975058	0.001059	20.796462
720.209417	-2.980400	3.652100	-10.882000	24.923222	0.001060	20.798486
721.202041	-2.996800	3.652000	-10.943000	24.912106	0.001060	20.797761
722.204864	-2.987900	3.651700	-10.910000	24.936523	0.001057	20.804724
723.204365	-3.016600	3.651000	-11.012000	24.935381	0.001059	20.792673
724.207613	-3.017200	3.649900	-11.010000	24.911140	0.001058	20.808171
725.203064	-3.003100	3.650000	-10.960000	24.907957	0.001057	20.797864
726.204794	-2.994600	3.649000	-10.926000	24.892913	0.001060	20.805524
727.208283	-3.002300	3.649900	-10.957000	24.896594	0.001056	20.807322
728.208049	-2.999700	3.649200	-10.945000	24.904650	0.001055	20.794545
729.206513	-3.002200	3.648300	-10.952000	24.883444	0.001055	20.803133
730.209908	-3.005900	3.648200	-10.965000	24.883592	0.001055	20.802333
731.205194	-3.021300	3.647100	-11.018000	24.899030	0.001055	20.822569
732.205735	-2.990300	3.650300	-10.914000	24.924097	0.001054	20.809322
733.209398	-3.020900	3.646300	-11.014000	24.907238	0.001056	20.799987
734.201768	-3.019400	3.645800	-11.007000	24.937851	0.001055	20.813643
735.205072	-3.001300	3.646800	-10.944000	24.940512	0.001053	20.823901
736.206397	-3.003100	3.647200	-10.952000	24.960924	0.001055	20.802189
737.207098	-2.999500	3.646000	-10.935000	24.964108	0.001054	20.809652
738.204493	-3.010200	3.645500	-10.972000	24.950860	0.001054	20.804416
739.211548	-3.016700	3.645300	-10.995000	24.937707	0.001054	20.820137
740.207654	-2.985100	3.645400	-10.881000	24.939671	0.001053	20.816892
741.208790	-3.004700	3.643600	-10.947000	24.929311	0.001052	20.814081
742.208683	-2.997800	3.644100	-10.923000	24.940969	0.001052	20.811083
743.206154	-3.001500	3.644900	-10.939000	24.927421	0.001053	20.817874
744.211721	-3.003700	3.646100	-10.951000	24.928194	0.001051	20.775976
745.214985	-2.989700	3.645600	-10.898000	24.911487	0.001052	20.808045
746.208257	-3.009300	3.643500	-10.964000	24.946991	0.001051	20.817602
747.210502	-2.993800	3.642700	-10.904000	24.977599	0.001051	20.812288
748.211647	-2.997400	3.643600	-10.920000	25.002241	0.001050	20.823746
749.213253	-2.990700	3.644300	-10.899000	24.963834	0.001052	20.811748
750.207553	-3.004900	3.643400	-10.946000	24.960622	0.001050	20.816110
751.206824	-2.978300	3.643300	-10.850000	24.965001	0.001051	20.823824
752.216981	-2.985900	3.642300	-10.875000	24.938394	0.001049	20.811818
753.205490	-2.996500	3.642000	-10.913000	24.942995	0.001049	20.837772
754.211661	-2.999300	3.641600	-10.921000	24.914355	0.001048	20.824674
755.207479	-3.021600	3.641300	-11.001000	24.913139	0.001049	20.823453
756.205929	-3.019400	3.640300	-10.990000	24.894222	0.001047	20.828175
757.211125	-2.991500	3.641200	-10.891000	24.890969	0.001048	20.827280
758.210803	-3.010700	3.640200	-10.958000	24.918098	0.001049	20.839336
759.210226	-3.003800	3.640400	-10.935000	24.912601	0.001048	20.835716
760.209384	-2.997700	3.640300	-10.910000	24.965988	0.001048	20.818651
761.209533	-2.981300	3.640300	-10.852000	24.982049	0.001047	20.837143
762.211380	-2.995900	3.640500	-10.905000	24.988165	0.001047	20.815781
763.208924	-3.023000	3.636200	-10.991000	25.001215	0.001044	20.836940
764.208774	-3.002700	3.638600	-10.924000	25.003955	0.001045	20.818829
765.208535	-3.008400	3.638200	-10.943000	25.004678	0.001045	20.802959
766.213941	-3.003100	3.639300	-10.927000	25.021934	0.001046	20.818858
767.212142	-2.998900	3.638000	-10.909000	25.038019	0.001044	20.833107
768.208768	-2.995800	3.638600	-10.899000	25.016743	0.001044	20.819810
769.216037	-3.021700	3.637100	-10.989000	25.024773	0.001046	20.855845
770.209238	-2.984900	3.637900	-10.857000	25.029447	0.001043	20.818813
771.211393	-2.986100	3.636500	-10.858000	25.042924	0.001045	20.840875
772.211021	-2.997300	3.636700	-10.899000	25.057617	0.001043	20.842347
773.213745	-2.993200	3.636000	-10.882000	25.098164	0.001043	20.838005
774.214317	-2.988900	3.636200	-10.867000	25.108088	0.001044	20.835639
775.220692	-3.012600	3.634300	-10.948000	25.118804	0.001044	20.840232
776.214036	-3.011900	3.634700	-10.947000	25.116939	0.001042	20.831722
777.211914	-2.995800	3.635500	-10.890000	25.158951	0.001043	20.841654
778.213241	-2.995000	3.633700	-10.881000	25.165091	0.001042	20.842603
779.214900	-2.998900	3.635000	-10.900000	25.165789	0.001042	20.848993
780.214756	-2.980700	3.634700	-10.833000	25.209388	0.001040	20.851512
781.214142	-2.998400	3.634000	-10.894000	25.209363	0.001039	20.841057
782.217288	-2.978600	3.635100	-10.827000	25.230665	0.001040	20.851537
783.216387	-3.013500	3.631500	-10.941000	25.237976	0.001041	20.832799
784.211003	-2.983500	3.633300	-10.839000	25.266233	0.001038	20.845522
785.215280	-2.998000	3.633000	-10.890000	25.246004	0.001040	20.854135
786.220373	-3.007600	3.632500	-10.924000	25.230789	0.001040	20.851661
787.218502	-3.001400	3.632000	-10.901000	25.192086	0.001040	20.856901
788.220728	-3.022100	3.631000	-10.971000	25.191835	0.001039	20.874666
789.219496	-3.005100	3.630600	-10.909000	25.194369	0.001039	20.859193
790.223789	-2.987200	3.631100	-10.846000	25.166380	0.001038	20.845794
791.224606	-2.980700	3.629500	-10.817000	25.167148	0.001040	20.866952
792.218668	-2.984700	3.630300	-10.833000	25.142592	0.001038	20.856051
793.218792	-2.997400	3.629600	-10.878000	25.138185	0.001038	20.850679
794.224414	-3.001800	3.628400	-10.891000	25.118972	0.001038	20.858892
795.223553	-3.004700	3.630200	-10.906000	25.105910	0.001039	20.841513
796.223633	-3.008300	3.629600	-10.917000	25.137112	0.001037	20.871412
797.221607	-3.007500	3.628700	-10.910000	25.143868	0.001036	20.849272
798.226251	-2.985800	3.628300	-10.831000	25.141478	0.001035	20.892388
799.232384	-2.982500	3.628200	-10.820000	25.137050	0.001039	20.878936
800.228397	-2.994200	3.627100	-10.858000	25.150575	0.001037	20.852212
801.233307	-2.997800	3.628800	-10.877000	25.157133	0.001037	20.881553
802.227513	-2.980900	3.628600	-10.815000	25.194539	0.001037	20.868373
803.226046	-3.002600	3.627000	-10.889000	25.210696	0.001037	20.872264
804.247434	-3.005600	3.626900	-10.900000	25.234605	0.001035	20.862130
805.254975	-2.990600	3.626500	-10.844000	25.243151	0.001034	20.884459
806.264208	-2.979900	3.627100	-10.807000	25.267311	0.001033	20.872206
807.249886	-3.003100	3.625100	-10.885000	25.239939	0.001034	20.878864
808.254202	-3.000000	3.625700	-10.876000	25.226662	0.001033	20.886870
809.248981	-3.008200	3.625500	-10.905000	25.219672	0.001035	20.863733
810.256162	-2.996000	3.625800	-10.861000	25.246263	0.001031	20.889953
811.249298	-3.015300	3.624100	-10.927000	25.251577	0.001032	20.892443
812.228477	-3.016000	3.623100	-10.925000	25.229355	0.001033	20.878669
813.235283	-2.995800	3.624000	-10.856000	25.233162	0.001031	20.884388
814.229342	-3.009000	3.624700	-10.904000	25.239667	0.001031	20.855833
815.234471	-2.985100	3.623100	-10.814000	25.238044	0.001033	20.868902
816.230714	-3.015800	3.621800	-10.921000	25.235954	0.001032	20.878182
817.227909	-3.019700	3.622300	-10.937000	25.271669	0.001031	20.870893
818.227829	-2.991700	3.623500	-10.838000	25.286979	0.001030	20.880573
819.252074	-2.996800	3.622000	-10.853000	25.261472	0.001030	20.886258
820.261779	-2.987100	3.621700	-10.817000	25.238898	0.001030	20.880663
821.260483	-2.992900	3.622400	-10.841000	25.188088	0.001030	20.872327
822.255260	-3.003300	3.621900	-10.876000	25.200983	0.001028	20.883850
823.252949	-2.997400	3.621700	-10.855000	25.200236	0.001029	20.881203
824.251585	-3.001200	3.619900	-10.862000	25.186933	0.001028	20.876857
825.258337	-2.999800	3.620900	-10.860000	25.170152	0.001028	20.867597
826.232018	-3.003600	3.621200	-10.873000	25.168456	0.001029	20.880118
827.250861	-3.000300	3.620400	-10.862000	25.189011	0.001028	20.868512
828.253019	-2.999000	3.618800	-10.851000	25.199919	0.001027	20.872824
829.256328	-3.009100	3.618100	-10.886000	25.237003	0.001025	20.874494
830.257429	-3.010200	3.618200	-10.889000	25.223623	0.001027	20.874337
831.265026	-3.001600	3.618900	-10.861000	25.241865	0.001025	20.891228
832.260023	-3.000200	3.619400	-10.857000	25.264977	0.001025	20.875079
833.254361	-2.973500	3.619100	-10.760000	25.272135	0.001024	20.874205
834.263142	-3.015400	3.617500	-10.907000	25.260866	0.001024	20.875219
835.247641	-3.022500	3.616400	-10.929000	25.248238	0.001024	20.869179
836.234549	-2.999600	3.616800	-10.848000	25.243565	0.001021	20.854056
837.235677	-3.007700	3.616800	-10.877000	25.225840	0.001022	20.867080
838.257115	-3.009500	3.618000	-10.887000	25.259942	0.001021	20.870972
839.252525	-3.006000	3.615500	-10.867000	25.265831	0.001021	20.851755
840.257716	-3.008000	3.615700	-10.874000	25.274623	0.001021	20.878125
841.250291	-3.013100	3.614400	-10.889000	25.265424	0.001021	20.869364
842.258872	-2.997900	3.615600	-10.838000	25.221831	0.001021	20.855470
843.255484	-2.997000	3.614400	-10.830000	25.190804	0.001022	20.883113
844.257777	-3.011100	3.613800	-10.879000	25.233231	0.001019	20.861699
845.260173	-3.000500	3.614900	-10.845000	25.213469	0.001018	20.848024
846.237105	-3.006500	3.613100	-10.861000	25.260052	0.001018	20.885781
847.240452	-2.996800	3.614100	-10.830000	25.284236	0.001017	20.847475
848.235734	-2.999600	3.614600	-10.842000	25.302670	0.001018	20.871198
849.253762	-2.996500	3.613400	-10.827000	25.349352	0.001021	20.870654
850.261501	-2.977500	3.613600	-10.758000	25.337616	0.001018	20.851759
851.273542	-2.998200	3.613700	-10.832000	25.337694	0.001018	20.864639
852.254806	-3.006000	3.611900	-10.857000	25.324566	0.001016	20.859044
853.262931	-2.979700	3.613600	-10.767000	25.360976	0.001016	20.890859
854.264689	-3.035400	3.611300	-10.961000	25.382300	0.001015	20.855849
855.260245	-3.014600	3.610300	-10.882000	25.389383	0.001015	20.863909
856.251758	-3.017000	3.609600	-10.888000	25.396216	0.001016	20.849433
857.263607	-3.011500	3.610400	-10.870000	25.435925	0.001017	20.853746
858.254766	-2.991500	3.610900	-10.800000	25.408789	0.001014	20.855420
859.238301	-3.024800	3.610500	-10.920000	25.438882	0.001013	20.842016
860.236381	-3.004400	3.610500	-10.846000	25.472279	0.001012	20.867017
861.272193	-2.984000	3.610100	-10.772000	25.459801	0.001013	20.853065
862.262899	-2.990300	3.609000	-10.791000	25.460643	0.001013	20.842057
863.265004	-3.012200	3.608500	-10.868000	25.437083	0.001011	20.862968
864.259518	-2.979600	3.608800	-10.752000	25.406784	0.001009	20.839183
865.256656	-2.998100	3.609100	-10.820000	25.415613	0.001012	20.850418
866.237037	-3.014500	3.607100	-10.872000	25.435564	0.001011	20.840581
867.241703	-3.014100	3.607600	-10.872000	25.460142	0.001008	20.849614
868.242459	-2.994700	3.608700	-10.806000	25.452583	0.001011	20.857196
869.240154	-3.017000	3.606900	-10.881000	25.458466	0.001010	20.840346
870.246490	-2.998000	3.606400	-10.811000	25.482301	0.001010	20.856219
871.244393	-2.993800	3.606000	-10.795000	25.501413	0.001011	20.838903
872.245073	-2.993600	3.607000	-10.797000	25.462810	0.001009	20.854664
873.271582	-2.994600	3.605900	-10.798000	25.422301	0.001009	20.866616
874.249184	-3.014900	3.605700	-10.869000	25.428686	0.001010	20.832726
875.250551	-3.009700	3.605200	-10.850000	25.389271	0.001008	20.830133
876.257596	-2.986200	3.604700	-10.763000	25.384221	0.001009	20.850191
877.262383	-2.999900	3.604200	-10.811000	25.391152	0.001009	20.865210
878.260149	-2.976000	3.605400	-10.729000	25.359908	0.001007	20.835262
879.247348	-3.007100	3.604000	-10.836000	25.378349	0.001008	20.836235
880.242868	-2.997800	3.604300	-10.803000	25.405733	0.001006	20.834334
881.262036	-3.002700	3.604500	-10.822000	25.404562	0.001007	20.827469
882.266133	-3.006900	3.602000	-10.829000	25.369767	0.001006	20.823350
883.262276	-2.989900	3.603600	-10.773000	25.381268	0.001005	20.842959
884.246113	-2.984900	3.604200	-10.757000	25.398941	0.001005	20.840316
885.265090	-3.015100	3.601700	-10.858000	25.421799	0.001005	20.841932
886.267520	-3.005500	3.601900	-10.825000	25.441085	0.001006	20.855608
887.262292	-2.994600	3.601800	-10.785000	25.463122	0.001004	20.843124
888.272429	-3.013800	3.600200	-10.849000	25.461759	0.001006	20.837014
889.265001	-2.996500	3.602200	-10.793000	25.426739	0.001003	20.815599
890.264475	-3.015000	3.601200	-10.855000	25.461652	0.001005	20.826001
891.271955	-2.994900	3.601300	-10.784000	25.429416	0.001002	20.836304
892.275273	-3.016000	3.598600	-10.853000	25.387883	0.001002	20.834903
893.273093	-2.986300	3.601200	-10.753000	25.385542	0.001002	20.837768
894.250165	-2.997500	3.600100	-10.790000	25.355645	0.001001	20.845206
895.248974	-3.014000	3.599200	-10.847000	25.379851	0.001000	20.846752
896.249073	-3.010500	3.598900	-10.833000	25.394063	0.000999	20.836366
897.249749	-2.997700	3.597700	-10.783000	25.394654	0.001000	20.850710
898.247670	-3.025700	3.597100	-10.883000	25.375240	0.001001	20.846389
899.250832	-3.003200	3.598900	-10.806000	25.366736	0.001000	20.852074
900.248291	-2.998200	3.598400	-10.788000	25.355329	0.000999	20.837776
901.255650	-2.985700	3.596700	-10.737000	25.349707	0.001001	20.849675
902.271151	-3.004900	3.598700	-10.813000	25.384179	0.000998	20.837821
903.251577	-2.970000	3.597100	-10.682000	25.399138	0.000996	20.858057
904.249223	-2.982200	3.596400	-10.723000	25.437952	0.000998	20.840609
905.255042	-3.002700	3.597100	-10.800000	25.437127	0.000995	20.838357
906.249365	-2.985000	3.597300	-10.737000	25.462768	0.000995	20.829493
907.265766	-3.025100	3.595100	-10.874000	25.487921	0.000997	20.829147
908.254540	-2.987600	3.593700	-10.736000	25.520516	0.000995	20.821103
909.269276	-3.010100	3.594600	-10.820000	25.526157	0.000994	20.832458
910.250485	-2.992700	3.594700	-10.757000	25.513828	0.000993	20.838568
911.252401	-3.011800	3.591900	-10.817000	25.534352	0.000993	20.814135
912.256413	-2.996300	3.594000	-10.767000	25.518242	0.000993	20.828776
913.250933	-2.986000	3.594200	-10.731000	25.513126	0.000993	20.831225
914.280050	-2.984300	3.594100	-10.725000	25.476195	0.000992	20.824958
915.272142	-3.002600	3.592700	-10.787000	25.455341	0.000993	20.843845
916.273134	-2.981900	3.594400	-10.717000	25.419726	0.000991	20.831790
917.272174	-2.979300	3.593500	-10.704000	25.427975	0.000990	20.826323
918.275758	-2.995300	3.592900	-10.759000	25.428172	0.000992	20.836952
919.280215	-2.996500	3.590800	-10.758000	25.439028	0.000992	20.855913
920.251969	-2.993300	3.591800	-10.751000	25.429761	0.000989	20.841866
921.274331	-2.979100	3.592600	-10.702000	25.418026	0.000991	20.816807
922.275927	-3.036000	3.588900	-10.895000	25.438150	0.000989	20.833221
923.274508	-3.026100	3.590400	-10.864000	25.434824	0.000987	20.824665
924.276923	-3.015200	3.589900	-10.823000	25.436187	0.000988	20.843577
925.278528	-2.985000	3.590100	-10.715000	25.420252	0.000988	20.825680
926.276293	-3.013400	3.590200	-10.817000	25.401043	0.000987	20.828677
927.256843	-2.991600	3.588200	-10.732000	25.405540	0.000987	20.836511
928.281292	-2.994300	3.588400	-10.744000	25.437177	0.000988	20.841252
929.299107	-2.994100	3.588700	-10.744000	25.455473	0.000985	20.806046
930.277730	-2.993500	3.587800	-10.739000	25.470972	0.000985	20.822085
931.261984	-3.002600	3.590300	-10.779000	25.505539	0.000985	20.826451
932.259182	-3.007600	3.589000	-10.792000	25.527952	0.000983	20.828096
933.259033	-2.981400	3.588000	-10.696000	25.509661	0.000984	20.825849
934.263477	-2.988900	3.587400	-10.722000	25.518657	0.000983	20.823503
935.295766	-2.999300	3.586700	-10.757000	25.523304	0.000981	20.813946
936.277758	-3.005200	3.586400	-10.777000	25.521592	0.000980	20.818865
937.280517	-2.981300	3.586200	-10.690000	25.541094	0.000979	20.814268
938.256334	-3.011500	3.585300	-10.796000	25.544502	0.000979	20.812948
939.256589	-2.982300	3.587100	-10.697000	25.544526	0.000980	20.820085
940.262292	-3.013900	3.583500	-10.798000	25.523998	0.000978	20.840721
941.282102	-2.995400	3.584900	-10.735000	25.509887	0.000980	20.811377
942.295455	-2.997800	3.586000	-10.748000	25.515475	0.000979	20.812247
943.260988	-2.981000	3.584800	-10.685000	25.538532	0.000978	20.819281
944.260809	-3.020500	3.582600	-10.819000	25.544202	0.000977	20.820234
945.259896	-2.983600	3.584000	-10.692000	25.581451	0.000977	20.840098
946.260468	-2.983600	3.584900	-10.694000	25.565247	0.000976	20.816713
947.260819	-3.016000	3.582900	-10.805000	25.532743	0.000976	20.792605
948.284235	-2.997500	3.583600	-10.741000	25.503819	0.000975	20.823775
949.276435	-2.987000	3.582700	-10.700000	25.503671	0.000973	20.804187
950.263584	-3.007700	3.582600	-10.775000	25.506278	0.000973	20.812495
951.263420	-2.999500	3.580700	-10.739000	25.499069	0.000973	20.812367
952.264490	-3.007100	3.581400	-10.769000	25.531003	0.000973	20.800814
953.281654	-3.014400	3.580200	-10.790000	25.555279	0.000971	20.787736
954.283166	-3.010000	3.580400	-10.776000	25.585072	0.000974	20.804381
955.282088	-3.014500	3.579600	-10.789000	25.600229	0.000971	20.822922
956.284406	-2.988800	3.580000	-10.699000	25.629693	0.000970	20.823590
957.289347	-2.961400	3.580400	-10.602000	25.647535	0.000971	20.805948
958.292688	-3.009200	3.580000	-10.771000	25.651636	0.000970	20.808644
959.290602	-3.016800	3.578700	-10.795000	25.682022	0.000968	20.813559
960.287771	-2.997400	3.578900	-10.725000	25.646792	0.000969	20.799511
961.290588	-3.014400	3.576000	-10.777000	25.630711	0.000969	20.827931
962.264719	-2.988900	3.578800	-10.696000	25.639981	0.000969	20.801680
963.271237	-2.984500	3.577500	-10.675000	25.636898	0.000969	20.797161
964.266039	-3.008300	3.577300	-10.761000	25.662165	0.000967	20.795512
965.265343	-3.003200	3.576200	-10.738000	25.653372	0.000966	20.802328
966.267962	-3.001800	3.575700	-10.733000	25.686115	0.000966	20.805342
967.265080	-3.017100	3.575500	-10.787000	25.685076	0.000967	20.784384
968.266233	-2.996200	3.577000	-10.717000	25.702465	0.000966	20.808962
969.271944	-2.984900	3.577800	-10.678000	25.693520	0.000965	20.803771
970.264757	-3.020800	3.575100	-10.799000	25.700901	0.000965	20.788899
971.268355	-2.970600	3.576300	-10.622000	25.695334	0.000963	20.784256
972.266131	-2.987800	3.575200	-10.682000	25.693643	0.000965	20.811007
973.268004	-2.994400	3.574700	-10.703000	25.695183	0.000963	20.797380
974.272962	-2.990100	3.574100	-10.685000	25.654411	0.000963	20.770180
975.269593	-3.001800	3.573400	-10.726000	25.616992	0.000962	20.782384
976.270172	-2.977400	3.574000	-10.640000	25.580413	0.000961	20.786425
977.295640	-3.006400	3.573000	-10.741000	25.511702	0.000964	20.784751
978.275156	-2.999000	3.573100	-10.714000	25.487499	0.000960	20.780360
979.280356	-2.997900	3.574600	-10.715000	25.477407	0.000960	20.783976
980.269021	-3.006400	3.572400	-10.738000	25.434241	0.000960	20.797054
981.267633	-3.000300	3.571900	-10.716000	25.423127	0.000961	20.784945
982.273488	-3.024900	3.571400	-10.802000	25.417711	0.000958	20.801318
983.276307	-3.004200	3.572000	-10.730000	25.423102	0.000958	20.804835
984.270797	-2.993100	3.571900	-10.690000	25.420363	0.000958	20.788334
985.301051	-3.021300	3.571400	-10.789000	25.432817	0.000958	20.786141
986.271666	-3.000500	3.570300	-10.712000	25.435202	0.000958	20.783795
987.272214	-3.007700	3.570400	-10.738000	25.469491	0.000957	20.788829
988.271880	-3.011100	3.569700	-10.747000	25.515365	0.000956	20.783213
989.273092	-3.005800	3.569600	-10.729000	25.494685	0.000956	20.799430
990.269191	-3.013800	3.569600	-10.757000	25.509297	0.000955	20.787077
991.270078	-2.991200	3.570200	-10.678000	25.512873	0.000958	20.780237
992.270157	-2.977600	3.571100	-10.632000	25.524328	0.000955	20.784628
993.271457	-2.999600	3.567400	-10.699000	25.561475	0.000956	20.773570
994.270375	-2.995100	3.567300	-10.684000	25.557649	0.000953	20.792487
995.271040	-3.017900	3.566700	-10.763000	25.557095	0.000954	20.767748
996.269845	-2.999200	3.566600	-10.696000	25.538829	0.000954	20.794924
997.289419	-3.007400	3.567800	-10.729000	25.536818	0.000953	20.783894
998.297871	-2.996800	3.567000	-10.688000	25.536042	0.000952	20.796866
999.294890	-3.014600	3.566000	-10.748000	25.566731	0.000952	20.783589
1000.271358	-3.031300	3.566100	-10.807000	25.597513	0.000952	20.767089
1001.292678	-3.011400	3.566000	-10.738000	25.592862	0.000953	20.792764
1002.291759	-2.991800	3.566300	-10.669000	25.582274	0.000951	20.775492
1003.289576	-2.986300	3.564800	-10.644000	25.601430	0.000950	20.789515
1004.316165	-2.987200	3.566100	-10.652000	25.625106	0.000950	20.783895
1005.295733	-2.978100	3.564800	-10.616000	25.612059	0.000948	20.782172
1006.295109	-3.010200	3.563200	-10.724000	25.612101	0.000949	20.776049
1007.298148	-3.001400	3.564000	-10.696000	25.612721	0.000949	20.770982
1008.290241	-2.986700	3.564100	-10.644000	25.639926	0.000946	20.755632
1009.275433	-3.006500	3.561700	-10.707000	25.676224	0.000947	20.777864
1010.297667	-3.015800	3.561900	-10.740000	25.675875	0.000947	20.772298
1011.297233	-3.018600	3.561200	-10.749000	25.715353	0.000948	20.756947
1012.299018	-2.993500	3.562200	-10.663000	25.761783	0.000945	20.777032
1013.296005	-3.008700	3.560700	-10.710000	25.776564	0.000944	20.740669
1014.307235	-3.009300	3.561000	-10.715000	25.780013	0.000944	20.765471
1015.298738	-3.004600	3.560400	-10.697000	25.819109	0.000943	20.775820
1016.296158	-2.991900	3.560000	-10.650000	25.805269	0.000942	20.764762
1017.303932	-2.989900	3.559300	-10.641000	25.750632	0.000942	20.784322
1018.276486	-2.998500	3.559100	-10.671000	25.708692	0.000940	20.780603
1019.276563	-2.990900	3.560500	-10.648000	25.682499	0.000942	20.784166
1020.275645	-3.009500	3.559100	-10.710000	25.676436	0.000942	20.767171
1021.296464	-3.014100	3.558900	-10.725000	25.634038	0.000940	20.782909
1022.295958	-3.008000	3.558700	-10.704000	25.610577	0.000939	20.776890
1023.292035	-2.986000	3.558400	-10.624000	25.619444	0.000940	20.784373
1024.300004	-3.013100	3.555800	-10.712000	25.653481	0.000938	20.777781
1025.280554	-3.012100	3.557300	-10.713000	25.655017	0.000938	20.775530
1026.275891	-3.003000	3.557700	-10.683000	25.699286	0.000937	20.771630
1027.285139	-3.005400	3.557100	-10.690000	25.692427	0.000937	20.770430
1028.283144	-2.993000	3.556600	-10.644000	25.735106	0.000936	20.789117
1029.297936	-2.999900	3.555600	-10.665000	25.763626	0.000936	20.772245
1030.300119	-3.009300	3.556100	-10.700000	25.783223	0.000936	20.772963
1031.304734	-2.987300	3.556000	-10.622000	25.734778	0.000934	20.773140
1032.282146	-3.004000	3.555100	-10.678000	25.752462	0.000932	20.781419
1033.277190	-3.022700	3.553700	-10.741000	25.745550	0.000933	20.767364
1034.279809	-3.006900	3.553700	-10.684000	25.744282	0.000934	20.764668
1035.280417	-2.993700	3.554600	-10.640000	25.752085	0.000931	20.769186
1036.279182	-3.032400	3.552200	-10.770000	25.758862	0.000930	20.777417
1037.285779	-3.009500	3.553800	-10.695000	25.776053	0.000932	20.766235
1038.283485	-3.000500	3.553600	-10.661000	25.775655	0.000931	20.772947
1039.283923	-3.034100	3.551600	-10.774000	25.759729	0.000932	20.773071
1040.284527	-2.998100	3.552100	-10.649000	25.743975	0.000930	20.752031
1041.281393	-3.003800	3.552200	-10.669000	25.754705	0.000928	20.768499
1042.306705	-2.995000	3.551000	-10.634000	25.762606	0.000928	20.771220
1043.305861	-2.985000	3.551900	-10.602000	25.801387	0.000927	20.792158
1044.308104	-2.995200	3.551900	-10.638000	25.778258	0.000926	20.773665
1045.303977	-3.000600	3.548900	-10.647000	25.805385	0.000926	20.771043
1046.276703	-2.990000	3.550000	-10.612000	25.817905	0.000927	20.765601
1047.282159	-3.023800	3.548800	-10.729000	25.828014	0.000925	20.765325
1048.277216	-2.986700	3.551000	-10.605000	25.862746	0.000927	20.795473
1049.287001	-3.006800	3.550900	-10.674000	25.856265	0.000924	20.781376
1050.283290	-2.994200	3.549600	-10.627000	25.814477	0.000925	20.775909
1051.283456	-3.016700	3.549000	-10.705000	25.785211	0.000923	20.778279
1052.298629	-3.019300	3.546900	-10.707000	25.776391	0.000923	20.758039
1053.300827	-3.025800	3.548100	-10.735000	25.746697	0.000920	20.768042
1054.310147	-2.993000	3.548000	-10.618000	25.811071	0.000923	20.770590
1055.301490	-3.017700	3.546800	-10.703000	25.770747	0.000922	20.783665
1056.312192	-2.978400	3.548100	-10.567000	25.776781	0.000923	20.779768
1057.306530	-2.999200	3.545500	-10.632000	25.764015	0.000921	20.777377
1058.285933	-3.000800	3.547000	-10.641000	25.804557	0.000920	20.804824
1059.288113	-3.004400	3.545500	-10.651000	25.805822	0.000918	20.790922
1060.281874	-2.993900	3.546000	-10.615000	25.846341	0.000920	20.776149
1061.307052	-2.993800	3.546400	-10.616000	25.851184	0.000917	20.781488
1062.306445	-2.989600	3.545700	-10.597000	25.881667	0.000916	20.774178
1063.302109	-3.007800	3.544200	-10.658000	25.893816	0.000917	20.771209
1064.308325	-3.015100	3.542500	-10.679000	25.885443	0.000917	20.755685
1065.318230	-2.985900	3.544100	-10.581000	25.871702	0.000915	20.769383
1066.305733	-3.011900	3.544100	-10.673000	25.901885	0.000915	20.771255
1067.308884	-3.012700	3.542800	-10.672000	25.915572	0.000914	20.762245
1068.300067	-2.991300	3.542800	-10.596000	25.925734	0.000913	20.768661
1069.306971	-2.971400	3.544000	-10.529000	25.907647	0.000913	20.770879
1070.307957	-3.012600	3.541200	-10.666000	25.945504	0.000913	20.772401
1071.304874	-2.984200	3.542400	-10.570000	25.937132	0.000912	20.783430
1072.301639	-3.025100	3.540500	-10.709000	25.925205	0.000912	20.786148
1073.285977	-3.004400	3.540900	-10.636000	25.911821	0.000911	20.772702
1074.302250	-3.002800	3.541000	-10.631000	25.921035	0.000911	20.772949
1075.305222	-2.991500	3.539600	-10.588000	25.902403	0.000910	20.790267
1076.301318	-3.000800	3.540100	-10.622000	25.852399	0.000910	20.763268
1077.308042	-3.000200	3.539100	-10.617000	25.835132	0.000907	20.783855
1078.309954	-3.013400	3.538100	-10.660000	25.770883	0.000909	20.781905
1079.315261	-2.996700	3.538800	-10.603000	25.791263	0.000906	20.763020
1080.306320	-3.006800	3.538400	-10.638000	25.838412	0.000908	20.779089
1081.319594	-3.005700	3.538500	-10.635000	25.852153	0.000906	20.789099
1082.292642	-3.030400	3.537300	-10.718000	25.871706	0.000907	20.785508
1083.315574	-3.028600	3.537600	-10.712000	25.874982	0.000905	20.771729
1084.294493	-3.021000	3.536100	-10.681000	25.906211	0.000904	20.775600
1085.318416	-2.981200	3.538300	-10.547000	25.941264	0.000904	20.792797
1086.322886	-2.998500	3.536500	-10.603000	25.950953	0.000903	20.782143
1087.315017	-3.018100	3.536400	-10.671000	25.953387	0.000903	20.786959
1088.320932	-2.990600	3.536300	-10.574000	25.951778	0.000903	20.789610
1089.310868	-3.001100	3.535600	-10.610000	25.934762	0.000902	20.786266
1090.316531	-3.008400	3.534900	-10.634000	25.916528	0.000900	20.796870
1091.293122	-3.005000	3.534100	-10.619000	25.928503	0.000900	20.783297
1092.296286	-3.010600	3.535400	-10.643000	25.934343	0.000900	20.793431
1093.294353	-2.984200	3.535800	-10.551000	25.938144	0.000900	20.781602
1094.293242	-3.012800	3.534400	-10.647000	25.933030	0.000897	20.791163
1095.290487	-2.971100	3.534700	-10.501000	25.942642	0.000898	20.798449
1096.314337	-2.998500	3.532600	-10.592000	25.959213	0.000897	20.785700
1097.310914	-2.959600	3.535200	-10.462000	25.967187	0.000897	20.770003
1098.294449	-2.996200	3.533100	-10.584000	25.994138	0.000896	20.781433
1099.318882	-3.025000	3.530300	-10.677000	25.987136	0.000896	20.789097
1100.312040	-3.019500	3.530700	-10.660000	25.958914	0.000897	20.776390
1101.313080	-2.983600	3.532700	-10.540000	25.960408	0.000897	20.805392
1102.314889	-2.977500	3.532800	-10.517000	25.985844	0.000895	20.789221
1103.309779	-3.023900	3.530700	-10.676000	26.009490	0.000895	20.785477
1104.311235	-3.026400	3.528600	-10.677000	26.020665	0.000895	20.793860
1105.319964	-3.004200	3.529500	-10.602000	26.008173	0.000894	20.791266
1106.312104	-2.964600	3.530700	-10.465000	25.979758	0.000893	20.779313
1107.299836	-2.999200	3.529400	-10.585000	25.957974	0.000894	20.776868
1108.294492	-2.986600	3.528700	-10.535000	25.949655	0.000892	20.773726
1109.298113	-2.984400	3.530500	-10.535000	25.988950	0.000891	20.799455
1110.322851	-2.994600	3.528400	-10.565000	25.981875	0.000890	20.766741
1111.315045	-2.995900	3.527100	-10.566000	25.993321	0.000889	20.778715
1112.325861	-3.019100	3.527100	-10.648000	25.959090	0.000890	20.799327
1113.321291	-2.993700	3.527600	-10.559000	25.937704	0.000889	20.794911
1114.316310	-3.007200	3.528000	-10.608000	25.954075	0.000888	20.796659
1115.295371	-3.016800	3.526400	-10.636000	25.978941	0.000887	20.794140
1116.300176	-3.011600	3.525800	-10.616000	25.961897	0.000890	20.785552
1117.294405	-2.992700	3.528000	-10.558000	25.991831	0.000886	20.801401
1118.303382	-2.991900	3.526300	-10.550000	25.951937	0.000885	20.788347
1119.320819	-2.990200	3.524900	-10.539000	25.949549	0.000886	20.806811
1120.299712	-3.018400	3.522900	-10.632000	25.925355	0.000886	20.800997
1121.311566	-2.994400	3.523800	-10.551000	25.891647	0.000884	20.814075
1122.320376	-3.006100	3.523600	-10.591000	25.851700	0.000884	20.822783
1123.315646	-2.991100	3.522600	-10.536000	25.821561	0.000884	20.792034
1124.321132	-2.992500	3.524600	-10.546000	25.843943	0.000885	20.790335
1125.320664	-3.017200	3.522800	-10.628000	25.871865	0.000884	20.800367
1126.320062	-3.018700	3.519900	-10.624000	25.895613	0.000884	20.805731
1127.324420	-3.002800	3.522800	-10.577000	25.951372	0.000882	20.799634
1128.317877	-2.998800	3.521100	-10.558000	25.955398	0.000881	20.793721
1129.323847	-2.996600	3.521600	-10.551000	25.981725	0.000882	20.814481
1130.315642	-3.006900	3.521600	-10.588000	26.002413	0.000881	20.779789
1131.320469	-2.999700	3.520900	-10.561000	25.990093	0.000880	20.819095
1132.296567	-3.004300	3.518500	-10.569000	25.964087	0.000881	20.802450
1133.299290	-3.002500	3.519300	-10.566000	25.991033	0.000880	20.800125
1134.298800	-2.979000	3.520100	-10.485000	25.996249	0.000877	20.800150
1135.300813	-3.005700	3.519000	-10.576000	25.968922	0.000878	20.802092
1136.296678	-3.026900	3.518100	-10.648000	25.988116	0.000877	20.805729
1137.300789	-3.030900	3.515500	-10.653000	25.968922	0.000876	20.803989
1138.296410	-2.994600	3.517900	-10.534000	25.983598	0.000875	20.808302
1139.323919	-3.005900	3.518300	-10.574000	25.982030	0.000877	20.832331
1140.303837	-3.001800	3.517800	-10.558000	26.002972	0.000877	20.812120
1141.299485	-3.023200	3.515800	-10.628000	25.988437	0.000876	20.815060
1142.300019	-3.021000	3.516400	-10.620000	25.994125	0.000874	20.816507
1143.300008	-2.990800	3.516700	-10.517000	26.004877	0.000874	20.812611
1144.306270	-2.984300	3.515400	-10.490000	25.993403	0.000873	20.829532
1145.299944	-3.003700	3.516000	-10.559000	25.976659	0.000871	20.820770
1146.302873	-3.009200	3.514800	-10.576000	25.993772	0.000872	20.820420
1147.298302	-3.001500	3.515000	-10.549000	26.008402	0.000871	20.815679
1148.313011	-3.002400	3.515400	-10.553000	25.971288	0.000872	20.816797
1149.300108	-2.979300	3.514700	-10.469000	25.991166	0.000873	20.820173
1150.307741	-2.978600	3.515700	-10.471000	26.016971	0.000872	20.814331
1151.306462	-3.023600	3.512000	-10.618000	26.002838	0.000870	20.826209
1152.305840	-3.002700	3.512300	-10.545000	26.011530	0.000869	20.813131
1153.313485	-2.999900	3.513000	-10.537000	25.993526	0.000867	20.828233
1154.303215	-3.021800	3.511500	-10.610000	26.016749	0.000869	20.809840
1155.305764	-3.012400	3.511400	-10.576000	26.055074	0.000868	20.821793
1156.304758	-2.990200	3.513900	-10.504000	26.032693	0.000866	20.812582
1157.325676	-2.999700	3.512800	-10.536000	26.063220	0.000867	20.807218
1158.325390	-2.999800	3.510200	-10.528000	26.097394	0.000866	20.823537
1159.320708	-3.002300	3.511000	-10.540000	26.105962	0.000865	20.834991
1160.326984	-2.989300	3.509900	-10.491000	26.090467	0.000865	20.808991
1161.307421	-2.997800	3.510000	-10.522000	26.079490	0.000864	20.808867
1162.303853	-3.015000	3.507300	-10.573000	26.092901	0.000863	20.832298
1163.304836	-3.003600	3.509000	-10.539000	26.068587	0.000864	20.839637
1164.303370	-3.014100	3.508800	-10.574000	26.071767	0.000863	20.829556
1165.305236	-3.015500	3.507400	-10.576000	26.100599	0.000862	20.845723
1166.304384	-2.982400	3.507600	-10.459000	26.108593	0.000862	20.827203
1167.303340	-2.997000	3.508000	-10.513000	26.161443	0.000860	20.845694
1168.301855	-3.017000	3.506200	-10.578000	26.182702	0.000860	20.833866
1169.308267	-3.005100	3.506800	-10.537000	26.163482	0.000861	20.816450
1170.327816	-2.979900	3.508300	-10.453000	26.139438	0.000861	20.823109
1171.323737	-3.008200	3.505400	-10.542000	26.108839	0.000860	20.842149
1172.325878	-3.002600	3.505900	-10.526000	26.109705	0.000858	20.834485
1173.330121	-3.007400	3.504300	-10.537000	26.106307	0.000859	20.843872
1174.327420	-2.994500	3.504400	-10.493000	26.091231	0.000857	20.854328
1175.304481	-2.976900	3.505300	-10.434000	26.099968	0.000857	20.831339
1176.344128	-2.998100	3.503200	-10.502000	26.090012	0.000856	20.845043
1177.322620	-3.007300	3.502200	-10.530000	26.085561	0.000853	20.836777
1178.333268	-2.987600	3.503600	-10.466000	26.075852	0.000855	20.848358
1179.334639	-2.989400	3.502800	-10.470000	26.101679	0.000854	20.836852
1180.310448	-3.013300	3.500800	-10.547000	26.062560	0.000853	20.838323
1181.308460	-3.001300	3.501900	-10.509000	26.028283	0.000854	20.831859
1182.335736	-3.004500	3.500300	-10.516000	26.006869	0.000851	20.837846
1183.327954	-2.984800	3.500700	-10.448000	26.000040	0.000851	20.845683
1184.331660	-2.974900	3.501700	-10.416000	25.994627	0.000852	20.818908
1185.332703	-3.005800	3.500100	-10.519000	26.002995	0.000852	20.861927
1186.321246	-3.003300	3.498500	-10.506000	26.012804	0.000850	20.848075
1187.332457	-2.998800	3.500100	-10.495000	26.051822	0.000851	20.860250
1188.326305	-3.010100	3.498300	-10.529000	26.075200	0.000848	20.855764
1189.330303	-2.979400	3.499000	-10.424000	26.063948	0.000849	20.840666
1190.315196	-3.007100	3.497800	-10.517000	26.099907	0.000848	20.844554
1191.330627	-3.010800	3.497900	-10.530000	26.112670	0.000850	20.850739
1192.305851	-3.006100	3.497800	-10.513000	26.078278	0.000848	20.842735
1193.307271	-2.989900	3.497100	-10.455000	26.046406	0.000847	20.856230
1194.313094	-3.004700	3.496900	-10.506000	26.025493	0.000846	20.854659
1195.323214	-3.000700	3.496500	-10.491000	26.048614	0.000846	20.843751
1196.331545	-2.986200	3.497600	-10.443000	26.081524	0.000847	20.855480
1197.323179	-2.992600	3.495900	-10.461000	26.075037	0.000846	20.866979
1198.333134	-2.991500	3.496900	-10.459000	26.066518	0.000845	20.859368
1199.335155	-3.008200	3.493800	-10.509000	26.050399	0.000842	20.846493
1200.340665	-2.994100	3.496100	-10.466000	26.063436	0.000844	20.845841
1201.341378	-2.984600	3.495500	-10.432000	26.090557	0.000842	20.864555
1202.330421	-3.008400	3.493600	-10.509000	26.088863	0.000843	20.848629
1203.323645	-2.999200	3.493000	-10.475000	26.106622	0.000842	20.856516
1204.309380	-3.007400	3.492100	-10.501000	26.133844	0.000839	20.859687
1205.334517	-2.994600	3.492600	-10.458000	26.168611	0.000840	20.858112
1206.309612	-2.988200	3.494100	-10.440000	26.160311	0.000840	20.868737
1207.326335	-3.010200	3.492600	-10.513000	26.153134	0.000842	20.852518
1208.328634	-2.977400	3.492100	-10.396000	26.152736	0.000839	20.858756
1209.330225	-3.004500	3.489700	-10.484000	26.140492	0.000837	20.857832
1210.326099	-3.006500	3.490600	-10.493000	26.111506	0.000836	20.859527
1211.326066	-3.027000	3.491500	-10.567000	26.115729	0.000834	20.884157
1212.338076	-3.005200	3.489200	-10.484000	26.082848	0.000836	20.844956
1213.334442	-3.001700	3.489200	-10.472000	26.102438	0.000835	20.893561
1214.313615	-2.981300	3.489400	-10.400000	26.113936	0.000834	20.879037
1215.314400	-2.992400	3.487800	-10.436000	26.131125	0.000835	20.851739
1216.320815	-2.992300	3.488000	-10.436000	26.133657	0.000835	20.862817
1217.312644	-2.997900	3.487400	-10.453000	26.178957	0.000834	20.870403
1218.315215	-3.005400	3.488500	-10.483000	26.208831	0.000832	20.878138
1219.329864	-2.989500	3.486700	-10.421000	26.178981	0.000832	20.861420
1220.336975	-3.017000	3.485400	-10.514000	26.135872	0.000832	20.865991
1221.342916	-2.996800	3.486800	-10.449000	26.110267	0.000831	20.853066
1222.347712	-3.002200	3.485300	-10.461000	26.071990	0.000830	20.890469
1223.336354	-3.011300	3.486300	-10.497000	26.053536	0.000829	20.874299
1224.317089	-2.991100	3.485500	-10.424000	26.052990	0.000828	20.857630
1225.337098	-2.985600	3.484700	-10.403000	26.096455	0.000829	20.849146
1226.345889	-3.022600	3.484800	-10.531000	26.110534	0.000827	20.875619
1227.317369	-3.004900	3.484100	-10.468000	26.132918	0.000828	20.879617
1228.339086	-3.009800	3.483600	-10.483000	26.131703	0.000827	20.875552
1229.333533	-2.992500	3.483300	-10.424000	26.182940	0.000827	20.883888
1230.338610	-3.002400	3.481600	-10.452000	26.172333	0.000825	20.877498
1231.349063	-3.003500	3.482300	-10.458000	26.209240	0.000827	20.896565
1232.338140	-2.989500	3.482200	-10.409000	26.223470	0.000826	20.888580
1233.339866	-3.017100	3.482600	-10.506000	26.261118	0.000826	20.872835
1234.317384	-3.014800	3.480700	-10.493000	26.261417	0.000825	20.892574
1235.337030	-3.009100	3.480900	-10.473000	26.260851	0.000824	20.888686
1236.348580	-3.011700	3.480200	-10.480000	26.289086	0.000823	20.893353
1237.344387	-3.029300	3.479400	-10.539000	26.266386	0.000822	20.882395
1238.337492	-2.994400	3.479500	-10.418000	26.241234	0.000822	20.872768
1239.321949	-2.989000	3.479400	-10.398000	26.264703	0.000823	20.889712
1240.337179	-3.013100	3.477900	-10.478000	26.257999	0.000821	20.893406
1241.332673	-2.984200	3.477900	-10.377000	26.239495	0.000821	20.884769
1242.346985	-3.011100	3.476800	-10.468000	26.266660	0.000818	20.889309
1243.331381	-3.015500	3.477100	-10.483000	26.254470	0.000819	20.900765
1244.316550	-2.959600	3.478500	-10.294000	26.269692	0.000820	20.893303
1245.319644	-2.983900	3.477400	-10.374000	26.264625	0.000818	20.892005
1246.319506	-2.991300	3.477000	-10.400000	26.238548	0.000819	20.912264
1247.319161	-3.001700	3.475900	-10.433000	26.217938	0.000817	20.889659
1248.322201	-2.981600	3.476600	-10.365000	26.212227	0.000818	20.875386
1249.339308	-2.996000	3.475800	-10.412000	26.232561	0.000817	20.891078
1250.339511	-2.987300	3.475900	-10.382000	26.227047	0.000816	20.897864
1251.334607	-3.010000	3.474700	-10.458000	26.260695	0.000816	20.914606
1252.340368	-3.009500	3.474000	-10.454000	26.267748	0.000816	20.876178
1253.341859	-2.979200	3.473800	-10.348000	26.272192	0.000815	20.896763
1254.321444	-3.005400	3.473100	-10.438000	26.267494	0.000814	20.893940
1255.346498	-3.020300	3.473100	-10.489000	26.287610	0.000815	20.889973
1256.319287	-2.979400	3.472300	-10.344000	26.290318	0.000812	20.907392
1257.325990	-2.989400	3.473200	-10.382000	26.285867	0.000813	20.897704
1258.334764	-2.994200	3.471600	-10.393000	26.314992	0.000813	20.887620
1259.347492	-2.977600	3.471900	-10.337000	26.313330	0.000812	20.907759
1260.343225	-2.997000	3.471100	-10.401000	26.312880	0.000810	20.904462
1261.340902	-3.007500	3.470300	-10.436000	26.304014	0.000809	20.899346
1262.333389	-2.985800	3.470800	-10.362000	26.300461	0.000812	20.911421
1263.342435	-2.977700	3.470200	-10.332000	26.275508	0.000810	20.914793
1264.327315	-3.007500	3.468800	-10.431000	26.298701	0.000811	20.910126
1265.321871	-2.991800	3.469600	-10.379000	26.322858	0.000809	20.899791
1266.328266	-3.015400	3.468000	-10.456000	26.285680	0.000808	20.900835
1267.325369	-3.018200	3.469000	-10.469000	26.310362	0.000809	20.916629
1268.319970	-2.999000	3.467300	-10.398000	26.274902	0.000808	20.909443
1269.319250	-2.986600	3.468100	-10.357000	26.264201	0.000807	20.920026
1270.318932	-3.007600	3.466000	-10.423000	26.309964	0.000808	20.895368
1271.320035	-2.995400	3.465500	-10.379000	26.293451	0.000806	20.920496
1272.324107	-3.009300	3.466600	-10.430000	26.275395	0.000805	20.896189
1273.321115	-2.984900	3.465600	-10.344000	26.287186	0.000807	20.922261
1274.320527	-2.990700	3.465000	-10.362000	26.252649	0.000806	20.912210
1275.326319	-2.996100	3.464500	-10.379000	26.230740	0.000805	20.913901
1276.325340	-3.008200	3.463600	-10.418000	26.233821	0.000804	20.913204
1277.325445	-2.995100	3.464000	-10.374000	26.245789	0.000804	20.902947
1278.326890	-3.001900	3.462700	-10.393000	26.255053	0.000801	20.891395
1279.327199	-2.985300	3.463500	-10.339000	26.289943	0.000800	20.897059
1280.341388	-2.984000	3.464600	-10.337000	26.321899	0.000799	20.907362
1281.344615	-2.988400	3.462200	-10.345000	26.325625	0.000800	20.918217
1282.348606	-3.013300	3.461800	-10.430000	26.336578	0.000800	20.911682
1283.326892	-2.989900	3.462700	-10.352000	26.335208	0.000799	20.921210
1284.332702	-3.002000	3.461100	-10.389000	26.345193	0.000798	20.912754
1285.330502	-2.991600	3.459900	-10.349000	26.374592	0.000798	20.910532
1286.345981	-3.013800	3.458700	-10.423000	26.390160	0.000798	20.901999
1287.346366	-2.981100	3.461900	-10.318000	26.339979	0.000796	20.920789
1288.344673	-2.986600	3.459800	-10.332000	26.295781	0.000796	20.890599
1289.348347	-2.994400	3.459000	-10.357000	26.275916	0.000794	20.921366
1290.354376	-2.991400	3.459400	-10.348000	26.299855	0.000796	20.898011
1291.349524	-3.014200	3.458100	-10.421000	26.310436	0.000795	20.859809
1292.347244	-2.995000	3.457600	-10.354000	26.316939	0.000794	20.904748
1293.327311	-2.999800	3.457300	-10.370000	26.334223	0.000792	20.894618
1294.331385	-2.989100	3.457400	-10.333000	26.328885	0.000793	20.900633
1295.326904	-3.017800	3.455800	-10.427000	26.315478	0.000793	20.883841
1296.348987	-3.010300	3.455800	-10.402000	26.334628	0.000792	20.898818
1297.351515	-3.011500	3.456300	-10.407000	26.336043	0.000789	20.893603
1298.347928	-2.981200	3.456200	-10.302000	26.356753	0.000790	20.872218
1299.347365	-2.987800	3.456100	-10.325000	26.334107	0.000792	20.892131
1300.351175	-2.980800	3.455600	-10.299000	26.347148	0.000790	20.883902
1301.351184	-3.005100	3.454100	-10.379000	26.348391	0.000788	20.890366
1302.353814	-2.982400	3.455100	-10.304000	26.353929	0.000787	20.886923
1303.349820	-3.015700	3.453300	-10.412000	26.354278	0.000790	20.878739
1304.326744	-2.997500	3.453100	-10.350000	26.343575	0.000784	20.876517
1305.330252	-2.994200	3.452700	-10.337000	26.370519	0.000786	20.887949
1306.330173	-3.010200	3.452000	-10.390000	26.325228	0.000784	20.877519
1307.329599	-2.995700	3.450800	-10.336000	26.315246	0.000787	20.876970
1308.327656	-2.994500	3.450700	-10.333000	26.295606	0.000786	20.842062
1309.331011	-2.998900	3.451400	-10.349000	26.288226	0.000785	20.864516
1310.331154	-3.011100	3.450700	-10.388000	26.277702	0.000784	20.855837
1311.351610	-3.002400	3.451200	-10.361000	26.246139	0.000785	20.873903
1312.352347	-3.017600	3.450100	-10.408000	26.257142	0.000784	20.879270
1313.352143	-3.004600	3.450500	-10.366000	26.309215	0.000784	20.877547
1314.351851	-3.015500	3.449200	-10.399000	26.305046	0.000781	20.872884
1315.360186	-2.987500	3.449100	-10.303000	26.300525	0.000782	20.861229
1316.331512	-3.018800	3.447200	-10.405000	26.292258	0.000780	20.884213
1317.330222	-3.007300	3.449800	-10.373000	26.310535	0.000780	20.862754
1318.334926	-3.019600	3.446400	-10.406000	26.348624	0.000779	20.848877
1319.328782	-2.997500	3.447700	-10.334000	26.400252	0.000781	20.859987
1320.336154	-2.984400	3.447300	-10.287000	26.389053	0.000779	20.867697
1321.336254	-2.997500	3.446300	-10.328000	26.385525	0.000779	20.855143
1322.363478	-2.995600	3.445500	-10.319000	26.355212	0.000779	20.850282
1323.354027	-2.985200	3.446200	-10.286000	26.305599	0.000776	20.874388
1324.354165	-2.993700	3.444000	-10.309000	26.316750	0.000779	20.862836
1325.360330	-2.986100	3.443400	-10.281000	26.321070	0.000775	20.857695
1326.354134	-2.985200	3.443500	-10.278000	26.311856	0.000774	20.863607
1327.334445	-3.010000	3.443000	-10.362000	26.264875	0.000776	20.851956
1328.354893	-3.011900	3.442500	-10.368000	26.255660	0.000774	20.860713
1329.336660	-2.996100	3.443400	-10.316000	26.223875	0.000776	20.833514
1330.354136	-2.982200	3.443000	-10.266000	26.160798	0.000775	20.840304
1331.350145	-2.996500	3.441800	-10.312000	26.142567	0.000772	20.864184
1332.348660	-3.006700	3.441800	-10.348000	26.133626	0.000773	20.838606
1333.337177	-2.989200	3.440900	-10.283000	26.149526	0.000772	20.864538
1334.338597	-2.996100	3.440900	-10.308000	26.168872	0.000772	20.856952
1335.369138	-3.005600	3.439900	-10.338000	26.224777	0.000772	20.834420
1336.359709	-2.993300	3.439800	-10.295000	26.247076	0.000769	20.841182
1337.357943	-2.991000	3.440100	-10.288000	26.276678	0.000772	20.843429
1338.364843	-2.988900	3.440300	-10.280000	26.289868	0.000770	20.844830
1339.362337	-2.980400	3.438200	-10.246000	26.296970	0.000771	20.852441
1340.365918	-3.015200	3.437400	-10.363000	26.269330	0.000770	20.846475
1341.363547	-3.015600	3.437400	-10.365000	26.314529	0.000768	20.844009
1342.343980	-2.979700	3.437300	-10.241000	26.309335	0.000770	20.856807
1343.361388	-3.011000	3.436300	-10.346000	26.325204	0.000767	20.848574
1344.357732	-2.976300	3.437800	-10.231000	26.332630	0.000767	20.853191
1345.361868	-2.992900	3.436100	-10.283000	26.342140	0.000767	20.839990
1346.353824	-3.001400	3.436300	-10.312000	26.338164	0.000765	20.830305
1347.361217	-2.957600	3.436600	-10.163000	26.343362	0.000764	20.826045
1348.375621	-3.004000	3.436500	-10.321000	26.327690	0.000764	20.839693
1349.366485	-3.008800	3.434600	-10.333000	26.314156	0.000763	20.832255
1350.345243	-3.011300	3.433100	-10.337000	26.326275	0.000764	20.837322
1351.359064	-2.971000	3.434600	-10.203000	26.326205	0.000764	20.838200
1352.364890	-3.026100	3.432700	-10.387000	26.351128	0.000761	20.815833
1353.366009	-3.008300	3.432300	-10.325000	26.387607	0.000763	20.841115
1354.373806	-3.006800	3.432500	-10.320000	26.386290	0.000761	20.839792
1355.364200	-3.016700	3.431500	-10.350000	26.432572	0.000762	20.830358
1356.348032	-3.005400	3.431600	-10.313000	26.446967	0.000761	20.839137
1357.363854	-3.016600	3.429700	-10.344000	26.455508	0.000762	20.836341
1358.368367	-2.996500	3.430400	-10.278000	26.464323	0.000759	20.848520
1359.364637	-3.008400	3.430100	-10.318000	26.499308	0.000760	20.831055
1360.352887	-3.007500	3.430600	-10.316000	26.472265	0.000758	20.837063
1361.351188	-2.980200	3.430000	-10.221000	26.477450	0.000758	20.803869
1362.349600	-2.998300	3.430800	-10.286000	26.478467	0.000759	20.835237
1363.353859	-2.984500	3.430700	-10.238000	26.485346	0.000757	20.837410
1364.362907	-2.975500	3.428400	-10.200000	26.507074	0.000757	20.833171
1365.371799	-3.014100	3.428000	-10.330000	26.531775	0.000758	20.817698
1366.348508	-3.001100	3.427600	-10.285000	26.559750	0.000757	20.831593
1367.383317	-2.991400	3.427600	-10.253000	26.498132	0.000755	20.824658
1368.368320	-2.977600	3.428100	-10.206000	26.516775	0.000754	20.843871
1369.370963	-3.047400	3.424700	-10.436000	26.529983	0.000756	20.833914
1370.371609	-3.034000	3.425500	-10.392000	26.540167	0.000754	20.834194
1371.349743	-2.977600	3.425800	-10.200000	26.537457	0.000753	20.841426
1372.377586	-3.022100	3.424200	-10.348000	26.505475	0.000753	20.831090
1373.370901	-3.000100	3.424300	-10.272000	26.509351	0.000753	20.834512
1374.367938	-2.995100	3.423900	-10.254000	26.480551	0.000752	20.835435
1375.369253	-2.991100	3.425100	-10.244000	26.481393	0.000752	20.849082
1376.374666	-3.001700	3.424500	-10.278000	26.460267	0.000751	20.834013
1377.371657	-3.000900	3.423000	-10.271000	26.462499	0.000750	20.838627
1378.372950	-2.989000	3.423000	-10.230000	26.476429	0.000749	20.834611
1379.367557	-2.990300	3.422400	-10.233000	26.447554	0.000749	20.827874
1380.383942	-3.002500	3.422100	-10.273000	26.443707	0.000747	20.832067
1381.369572	-2.985700	3.422900	-10.218000	26.464963	0.000748	20.821664
1382.370334	-2.992000	3.421100	-10.234000	26.454754	0.000747	20.824204
1383.371870	-3.001900	3.421200	-10.269000	26.470969	0.000746	20.831019
1384.350040	-2.984800	3.421700	-10.212000	26.455599	0.000745	20.825528
1385.352310	-3.004600	3.421100	-10.278000	26.461981	0.000744	20.832891
1386.354330	-2.987900	3.419400	-10.215000	26.463597	0.000744	20.820765
1387.353600	-3.010500	3.419500	-10.293000	26.460693	0.000741	20.839657
1388.356768	-2.987900	3.419200	-10.215000	26.482069	0.000744	20.837909
1389.357013	-2.983900	3.419000	-10.201000	26.495650	0.000743	20.811732
1390.363688	-2.994700	3.418800	-10.237000	26.488726	0.000742	20.823738
1391.360138	-2.952500	3.419400	-10.095000	26.464249	0.000740	20.833274
1392.360290	-3.011700	3.417900	-10.293000	26.421365	0.000741	20.824785
1393.360340	-2.995400	3.416900	-10.234000	26.362324	0.000741	20.825663
1394.363703	-2.985700	3.417000	-10.201000	26.343998	0.000740	20.816254
1395.360767	-3.003600	3.416000	-10.260000	26.300375	0.000738	20.816509
1396.363041	-2.993300	3.415800	-10.224000	26.307547	0.000738	20.806647
1397.389698	-2.986300	3.415800	-10.199000	26.310874	0.000738	20.795293
1398.394256	-2.984700	3.414900	-10.191000	26.334496	0.000737	20.811446
1399.388468	-3.010500	3.413900	-10.275000	26.376362	0.000737	20.804210
1400.379240	-2.987800	3.414100	-10.200000	26.348203	0.000738	20.829962
1401.366098	-2.996900	3.413100	-10.227000	26.284365	0.000737	20.805162
1402.380600	-2.973000	3.414700	-10.151000	26.283147	0.000736	20.803463
1403.391896	-3.012300	3.411500	-10.275000	26.262788	0.000733	20.791539
1404.403365	-2.971400	3.413700	-10.142000	26.281735	0.000734	20.799674
1405.364123	-3.012500	3.411400	-10.276000	26.308952	0.000734	20.796680
1406.366947	-3.011400	3.410400	-10.269000	26.301601	0.000732	20.806362
1407.362956	-3.011800	3.410700	-10.272000	26.323480	0.000734	20.798478
1408.362647	-2.999600	3.411100	-10.231000	26.295221	0.000732	20.805640
1409.368318	-3.004200	3.410100	-10.244000	26.266521	0.000732	20.805247
1410.362058	-2.979500	3.411200	-10.162000	26.242511	0.000732	20.813361
1411.367574	-3.004700	3.408600	-10.241000	26.211964	0.000730	20.797838
1412.382985	-3.004900	3.410800	-10.248000	26.174343	0.000730	20.787534
1413.388907	-2.992400	3.408600	-10.199000	26.164134	0.000731	20.803829
1414.386788	-3.003000	3.409100	-10.236000	26.108407	0.000730	20.811369
1415.367454	-2.997300	3.408200	-10.215000	26.114591	0.000729	20.810471
1416.367302	-2.990300	3.407700	-10.190000	26.104779	0.000729	20.784965
1417.366187	-3.010800	3.408300	-10.262000	26.139231	0.000727	20.810099
1418.392864	-2.997100	3.407400	-10.211000	26.143203	0.000727	20.806030
1419.389673	-3.020800	3.405900	-10.286000	26.162652	0.000726	20.801391
1420.389306	-3.002300	3.405400	-10.223000	26.191637	0.000725	20.822456
1421.392820	-3.011000	3.405000	-10.252000	26.213338	0.000727	20.805857
1422.398707	-3.005700	3.405300	-10.235000	26.250593	0.000725	20.795878
1423.389353	-3.004700	3.404300	-10.228000	26.245800	0.000725	20.807184
1424.395126	-3.008000	3.404200	-10.239000	26.264829	0.000724	20.782684
1425.396692	-2.994100	3.404400	-10.193000	26.276297	0.000722	20.788044
1426.369720	-2.997900	3.403900	-10.204000	26.299518	0.000722	20.799053
1427.375150	-3.015400	3.403100	-10.260000	26.349159	0.000724	20.770706
1428.373071	-3.019800	3.401100	-10.269000	26.356285	0.000722	20.787351
1429.396520	-3.002500	3.403500	-10.218000	26.390355	0.000722	20.796937
1430.369725	-2.999900	3.402300	-10.204000	26.400435	0.000720	20.777196
1431.374417	-3.024800	3.400900	-10.286000	26.368235	0.000720	20.801258
1432.368692	-2.996700	3.401300	-10.192000	26.360063	0.000721	20.793993
1433.370785	-3.016800	3.399400	-10.254000	26.376403	0.000718	20.800932
1434.370283	-2.997900	3.401200	-10.195000	26.407790	0.000719	20.793597
1435.371917	-2.989100	3.400600	-10.163000	26.432194	0.000717	20.768813
1436.393685	-2.989200	3.399900	-10.162000	26.458049	0.000717	20.780102
1437.401551	-3.008900	3.398900	-10.225000	26.489384	0.000718	20.786468
1438.395730	-2.995700	3.399900	-10.184000	26.471533	0.000716	20.767101
1439.393809	-3.005600	3.397900	-10.212000	26.481513	0.000716	20.762434
1440.393568	-2.992400	3.398200	-10.168000	26.479802	0.000714	20.785845
1441.393998	-3.011400	3.397700	-10.230000	26.501251	0.000715	20.784171
1442.388338	-2.999600	3.398000	-10.191000	26.525887	0.000712	20.756776
1443.398424	-3.003300	3.397700	-10.203000	26.538073	0.000713	20.776613
1444.392574	-3.012000	3.396400	-10.229000	26.546621	0.000712	20.782360
1445.375592	-3.025200	3.395800	-10.273000	26.547367	0.000713	20.771731
1446.397720	-3.007800	3.395600	-10.213000	26.535374	0.000712	20.776745
1447.378649	-3.029700	3.394200	-10.282000	26.532896	0.000711	20.759080
1448.382842	-2.995700	3.395600	-10.172000	26.543376	0.000710	20.762502
1449.376314	-2.987200	3.394600	-10.140000	26.529323	0.000709	20.753592
1450.372985	-2.988200	3.394400	-10.142000	26.517608	0.000709	20.776904
1451.404475	-2.993100	3.393300	-10.155000	26.497230	0.000710	20.762584
1452.377289	-2.997900	3.393600	-10.173000	26.491573	0.000711	20.781555
1453.376954	-2.997100	3.392300	-10.165000	26.510343	0.000707	20.777188
1454.377016	-3.020400	3.391900	-10.243000	26.499592	0.000707	20.751682
1455.376513	-3.013300	3.392200	-10.220000	26.478791	0.000708	20.776767
1456.380305	-2.990800	3.391800	-10.143000	26.499149	0.000706	20.772574
1457.385142	-3.009500	3.390500	-10.203000	26.496716	0.000708	20.763965
1458.380693	-3.000700	3.389300	-10.169000	26.517451	0.000705	20.764892
1459.381742	-3.025700	3.390200	-10.257000	26.546701	0.000704	20.761103
1460.378449	-2.996700	3.389900	-10.157000	26.596946	0.000707	20.772256
1461.379804	-3.008600	3.389800	-10.196000	26.631603	0.000705	20.772957
1462.388037	-2.997700	3.388200	-10.155000	26.638932	0.000704	20.761832
1463.383069	-3.004100	3.389100	-10.179000	26.626296	0.000705	20.767621
1464.383665	-2.991200	3.388600	-10.135000	26.598024	0.000704	20.765753
1465.395137	-2.981400	3.390100	-10.106000	26.583898	0.000704	20.746811
1466.400590	-3.001900	3.387700	-10.168000	26.563763	0.000702	20.773987
1467.403962	-3.004000	3.386900	-10.173000	26.573919	0.000703	20.750530
1468.406290	-2.979400	3.387400	-10.091000	26.598549	0.000700	20.762962
1469.379709	-3.015200	3.385700	-10.207000	26.635089	0.000701	20.754649
1470.384034	-2.998300	3.387100	-10.154000	26.639408	0.000701	20.762310
1471.398588	-2.989200	3.385900	-10.120000	26.632460	0.000700	20.770025
1472.402981	-2.996100	3.385800	-10.144000	26.638764	0.000700	20.752180
1473.407933	-3.010300	3.385600	-10.190000	26.583557	0.000699	20.771125
1474.404498	-2.985700	3.385200	-10.106000	26.581121	0.000699	20.752081
1475.410641	-3.010500	3.383300	-10.185000	26.590854	0.000698	20.747640
1476.395189	-2.983800	3.384600	-10.098000	26.579365	0.000697	20.756480
1477.402617	-2.998600	3.382800	-10.142000	26.559825	0.000696	20.748691
1478.384440	-2.992000	3.383800	-10.124000	26.558188	0.000698	20.746572
1479.384876	-2.988700	3.382600	-10.108000	26.555728	0.000696	20.765910
1480.380434	-2.990700	3.383000	-10.116000	26.603671	0.000695	20.758154
1481.381142	-2.989300	3.383200	-10.112000	26.590809	0.000695	20.763242
1482.383296	-2.994900	3.381500	-10.126000	26.592749	0.000694	20.769933
1483.381030	-2.988400	3.382000	-10.105000	26.603995	0.000694	20.747573
1484.383036	-3.004500	3.380100	-10.154000	26.574898	0.000693	20.767163
1485.394653	-2.999400	3.380200	-10.138000	26.535428	0.000693	20.774428
1486.399881	-3.000200	3.381600	-10.144000	26.489773	0.000692	20.765521
1487.399245	-2.978300	3.380000	-10.066000	26.446247	0.000691	20.744056
1488.401894	-3.007100	3.379200	-10.160000	26.408630	0.000692	20.760302
1489.385426	-3.009600	3.379700	-10.171000	26.404659	0.000692	20.761052
1490.385417	-2.990000	3.379300	-10.103000	26.435671	0.000690	20.744806
1491.385806	-3.018100	3.378600	-10.195000	26.416358	0.000688	20.758586
1492.384026	-3.010300	3.377600	-10.167000	26.425662	0.000689	20.762722
1493.386995	-3.001100	3.376300	-10.131000	26.465691	0.000688	20.755539
1494.386141	-2.999700	3.377800	-10.131000	26.496870	0.000689	20.747050
1495.405362	-3.007100	3.377300	-10.155000	26.494438	0.000686	20.755036
1496.407308	-3.010300	3.375400	-10.160000	26.505115	0.000686	20.742060
1497.386299	-3.028900	3.375700	-10.224000	26.517182	0.000687	20.751346
1498.398334	-3.016100	3.373700	-10.174000	26.562913	0.000685	20.759856
1499.416280	-3.022200	3.373700	-10.194000	26.560354	0.000686	20.743058
1500.408523	-3.009100	3.373500	-10.150000	26.542999	0.000686	20.764021
1501.408721	-2.967300	3.376000	-10.016000	26.522367	0.000685	20.754661
1502.388802	-3.008600	3.372800	-10.146000	26.547097	0.000684	20.757708
1503.383786	-3.001000	3.373900	-10.124000	26.522441	0.000682	20.752839
1504.396118	-3.005200	3.373100	-10.135000	26.485700	0.000681	20.753840
1505.389742	-3.004900	3.373000	-10.135000	26.489967	0.000682	20.767612
1506.391312	-2.993100	3.372200	-10.093000	26.495106	0.000681	20.737216
1507.384192	-2.991200	3.371600	-10.084000	26.490861	0.000684	20.754286
1508.390134	-3.017600	3.371000	-10.171000	26.530485	0.000680	20.748122
1509.384269	-3.003300	3.372200	-10.127000	26.542745	0.000680	20.752860
1510.387950	-2.985200	3.371000	-10.062000	26.564398	0.000677	20.737640
1511.413912	-2.974900	3.370700	-10.027000	26.529587	0.000679	20.768082
1512.386089	-3.014900	3.369500	-10.158000	26.505956	0.000679	20.743380
1513.410265	-3.022100	3.368700	-10.179000	26.487579	0.000678	20.758100
1514.402788	-2.997700	3.370700	-10.104000	26.543291	0.000679	20.757676
1515.422645	-3.021500	3.368700	-10.177000	26.554362	0.000677	20.773072
1516.413670	-3.009600	3.368900	-10.138000	26.560075	0.000675	20.763168
1517.406554	-3.001300	3.369400	-10.111000	26.575616	0.000674	20.740383
1518.406608	-3.006300	3.368000	-10.125000	26.572512	0.000675	20.763341
1519.407310	-3.001500	3.367100	-10.106000	26.558065	0.000674	20.752612
1520.419597	-2.977400	3.368000	-10.027000	26.594878	0.000672	20.752159
1521.387973	-3.002900	3.367300	-10.111000	26.624470	0.000672	20.755828
1522.387731	-2.984300	3.367500	-10.049000	26.630429	0.000672	20.766087
1523.387601	-2.999000	3.366200	-10.095000	26.640359	0.000672	20.760422
1524.391149	-3.003100	3.366200	-10.108000	26.632439	0.000671	20.770952
1525.394578	-2.983200	3.366800	-10.043000	26.627304	0.000670	20.764841
1526.414869	-2.986800	3.365200	-10.050000	26.613523	0.000669	20.768058
1527.421804	-3.000400	3.365400	-10.096000	26.561121	0.000670	20.771331
1528.413059	-2.994800	3.364500	-10.075000	26.555855	0.000669	20.765089
1529.415950	-3.015000	3.362000	-10.135000	26.519410	0.000670	20.771603
1530.409865	-2.997600	3.363100	-10.080000	26.547790	0.000667	20.758879
1531.420725	-3.003400	3.362700	-10.098000	26.566088	0.000668	20.770160
1532.396145	-2.985800	3.363100	-10.041000	26.556429	0.000669	20.744328
1533.393338	-2.987100	3.363300	-10.045000	26.582347	0.000668	20.768960
1534.392262	-2.982400	3.363000	-10.029000	26.607444	0.000666	20.775224
1535.415986	-2.953100	3.364100	-9.933300	26.593724	0.000664	20.759060
1536.421293	-2.976200	3.362700	-10.007000	26.615270	0.000664	20.772184
1537.415122	-3.009200	3.359400	-10.108000	26.623190	0.000663	20.736048
1538.420424	-3.004500	3.359900	-10.094000	26.637540	0.000664	20.766597
1539.416560	-2.975900	3.361700	-10.002000	26.662760	0.000663	20.758759
1540.413043	-3.009200	3.359000	-10.107000	26.655931	0.000664	20.759481
1541.410065	-2.984300	3.359900	-10.025000	26.662214	0.000663	20.751572
1542.414564	-2.975000	3.360000	-9.996000	26.624654	0.000661	20.775454
1543.414365	-2.975700	3.358400	-9.992700	26.605340	0.000661	20.765996
1544.418080	-3.010300	3.357100	-10.105000	26.587568	0.000661	20.764725
1545.417996	-3.024500	3.357300	-10.153000	26.561129	0.000660	20.764701
1546.413420	-3.003100	3.356400	-10.078000	26.549135	0.000658	20.761654
1547.393826	-2.996200	3.358400	-10.062000	26.530542	0.000658	20.758611
1548.399494	-3.028900	3.354700	-10.160000	26.542261	0.000658	20.768968
1549.394780	-3.006800	3.357000	-10.093000	26.600923	0.000656	20.762029
1550.397649	-3.040700	3.354400	-10.199000	26.588659	0.000657	20.762977
1551.397462	-2.981400	3.355300	-10.002000	26.562273	0.000658	20.773912
1552.397771	-2.991500	3.355300	-10.036000	26.563192	0.000658	20.781474
1553.397990	-2.989600	3.355600	-10.031000	26.573967	0.000656	20.779977
1554.416027	-2.956300	3.356300	-9.921000	26.546161	0.000655	20.778579
1555.422690	-2.999500	3.355100	-10.062000	26.535337	0.000654	20.775759
1556.422125	-2.997700	3.353400	-10.050000	26.587149	0.000654	20.774736
1557.425672	-2.969300	3.355200	-9.962000	26.610261	0.000657	20.780900
1558.403033	-2.985400	3.353600	-10.011000	26.598867	0.000652	20.790783
1559.425889	-2.999600	3.352100	-10.053000	26.637224	0.000652	20.795677
1560.429399	-3.022200	3.351300	-10.127000	26.660684	0.000652	20.765682
1561.430349	-3.013600	3.351100	-10.098000	26.676568	0.000650	20.767900
1562.429335	-2.990900	3.351600	-10.024000	26.700548	0.000651	20.767826
1563.435082	-2.988700	3.350700	-10.013000	26.669498	0.000649	20.767904
1564.406632	-3.022300	3.348500	-10.120000	26.669821	0.000649	20.777713
1565.404675	-3.006300	3.350800	-10.072000	26.605454	0.000647	20.775119
1566.403310	-3.019700	3.350800	-10.117000	26.578790	0.000649	20.787670
1567.405058	-2.997400	3.349500	-10.039000	26.549221	0.000646	20.796828
1568.429767	-3.001100	3.348300	-10.047000	26.536686	0.000646	20.771425
1569.405415	-3.005800	3.348500	-10.064000	26.584429	0.000644	20.769631
1570.410713	-3.010300	3.348700	-10.079000	26.599301	0.000644	20.794539
1571.413501	-3.002000	3.347900	-10.048000	26.645972	0.000644	20.767013
1572.406116	-2.993100	3.348300	-10.021000	26.669681	0.000645	20.809815
1573.431561	-3.016400	3.348000	-10.098000	26.713466	0.000643	20.786029
1574.424376	-3.006600	3.346200	-10.060000	26.725753	0.000644	20.784631
1575.412592	-2.993400	3.345600	-10.013000	26.733159	0.000644	20.800138
1576.411513	-2.994800	3.346500	-10.021000	26.755993	0.000642	20.786585
1577.411127	-3.008200	3.345000	-10.062000	26.762916	0.000641	20.799235
1578.409482	-3.000000	3.345500	-10.036000	26.786102	0.000641	20.768019
1579.434413	-3.012000	3.344300	-10.072000	26.756366	0.000641	20.796443
1580.426473	-2.985400	3.346500	-9.989000	26.761583	0.000641	20.787463
1581.412701	-3.003900	3.344800	-10.047000	26.730579	0.000640	20.782371
1582.413149	-3.001400	3.343000	-10.032000	26.704837	0.000639	20.774508
1583.416306	-2.988200	3.343800	-9.991100	26.657627	0.000641	20.795326
1584.429244	-3.012800	3.343100	-10.071000	26.663463	0.000639	20.786494
1585.409161	-2.982600	3.343800	-9.972400	26.675279	0.000635	20.774665
1586.436414	-3.001600	3.340100	-10.024000	26.706136	0.000636	20.800945
1587.416227	-2.998000	3.342000	-10.019000	26.735525	0.000637	20.786869
1588.437347	-2.994800	3.341500	-10.006000	26.757293	0.000637	20.815867
1589.430401	-3.008200	3.340000	-10.046000	26.763772	0.000636	20.780181
1590.432210	-3.040700	3.338600	-10.150000	26.774123	0.000635	20.791536
1591.431772	-3.017400	3.338800	-10.074000	26.816094	0.000636	20.793433
1592.427578	-2.996300	3.340300	-10.007000	26.801852	0.000634	20.793338
1593.432485	-2.999200	3.338700	-10.012000	26.770329	0.000634	20.800524
1594.409629	-3.006400	3.339900	-10.041000	26.794430	0.000633	20.795358
1595.413265	-2.982700	3.339900	-9.961200	26.800216	0.000634	20.786951
1596.417708	-3.027600	3.338100	-10.105000	26.825431	0.000633	20.797605
1597.413754	-3.001000	3.338000	-10.016000	26.834687	0.000629	20.798851
1598.414117	-3.003500	3.338000	-10.024000	26.832579	0.000631	20.785352
1599.410350	-3.015300	3.336400	-10.059000	26.829253	0.000632	20.799077
1600.413301	-3.000800	3.335800	-10.010000	26.824907	0.000628	20.782853
1601.421315	-3.004800	3.336200	-10.023000	26.779212	0.000629	20.798550
1602.414778	-3.010700	3.335200	-10.040000	26.742898	0.000629	20.805188
1603.417175	-2.985700	3.334800	-9.955600	26.717029	0.000630	20.800042
1604.413459	-2.981300	3.334900	-9.940900	26.680886	0.000628	20.813492
1605.412903	-2.988600	3.335800	-9.968200	26.684363	0.000628	20.803712
1606.445758	-3.000400	3.334500	-10.003000	26.711616	0.000626	20.804557
1607.418729	-3.010700	3.332900	-10.034000	26.709578	0.000626	20.806776
1608.437473	-2.987900	3.334400	-9.961900	26.685397	0.000626	20.829407
1609.432238	-2.994500	3.332600	-9.978300	26.659608	0.000625	20.806800
1610.432789	-3.007300	3.332500	-10.020000	26.652861	0.000625	20.802388
1611.436847	-2.986600	3.333400	-9.954400	26.628877	0.000625	20.826640
1612.457840	-2.986000	3.333800	-9.952200	26.610158	0.000624	20.835797
1613.435898	-2.987900	3.332600	-9.955600	26.621027	0.000622	20.802154
1614.433323	-2.978200	3.332700	-9.924600	26.670153	0.000621	20.825936
1615.439710	-3.007000	3.331800	-10.018000	26.703660	0.000624	20.810310
1616.444453	-2.981600	3.330800	-9.929400	26.714335	0.000621	20.814404
1617.440762	-2.982400	3.331400	-9.934800	26.719572	0.000622	20.798806
1618.425289	-2.996900	3.330700	-9.980400	26.723194	0.000619	20.819991
1619.427691	-3.021700	3.329100	-10.058000	26.743547	0.000619	20.800625
1620.422218	-2.995900	3.330500	-9.977200	26.748953	0.000620	20.821232
1621.422175	-3.021100	3.328100	-10.053000	26.733541	0.000617	20.831815
1622.424605	-2.974300	3.328900	-9.899700	26.769925	0.000618	20.824300
1623.424424	-2.995500	3.328600	-9.969900	26.740956	0.000617	20.815089
1624.446685	-3.013300	3.327200	-10.025000	26.716703	0.000616	20.849025
1625.434584	-2.993000	3.328300	-9.960400	26.663408	0.000617	20.810620
1626.439672	-2.999000	3.326500	-9.973600	26.693244	0.000615	20.816433
1627.426375	-2.996200	3.325900	-9.964300	26.754875	0.000616	20.827186
1628.426031	-3.001600	3.326000	-9.982400	26.780264	0.000613	20.834694
1629.425392	-3.002600	3.326300	-9.986000	26.803122	0.000612	20.840607
1630.425880	-3.010700	3.324800	-10.009000	26.829010	0.000611	20.842454
1631.423090	-2.974200	3.325800	-9.890200	26.828038	0.000611	20.835787
1632.423033	-2.989300	3.324200	-9.935800	26.824462	0.000609	20.812278
1633.441027	-3.016500	3.324400	-10.027000	26.849649	0.000611	20.830490
1634.423062	-2.998600	3.323600	-9.963800	26.905637	0.000609	20.836526
1635.428093	-3.027900	3.323300	-10.062000	26.930407	0.000609	20.837725
1636.427554	-2.983600	3.323200	-9.914300	26.938029	0.000608	20.832588
1637.423775	-2.989800	3.323300	-9.934700	26.947899	0.000609	20.834926
1638.425003	-2.986800	3.322700	-9.923700	26.950306	0.000607	20.829286
1639.450342	-3.008300	3.321400	-9.989100	26.969318	0.000607	20.821378
1640.445405	-2.988100	3.321800	-9.925400	26.966432	0.000608	20.835071
1641.446411	-3.003500	3.322200	-9.976800	27.006535	0.000609	20.829406
1642.456316	-2.990400	3.321300	-9.931100	27.009564	0.000606	20.833401
1643.446929	-2.999200	3.321200	-9.960300	27.042987	0.000605	20.827658
1644.435994	-2.990500	3.320500	-9.928900	27.033156	0.000606	20.840056
1645.425769	-2.991300	3.320300	-9.930800	27.043085	0.000604	20.826334
1646.431508	-3.001600	3.320200	-9.965100	27.003058	0.000604	20.827332
1647.448473	-2.975000	3.319200	-9.873600	26.980299	0.000604	20.836687
1648.448349	-3.005700	3.318000	-9.971800	26.977441	0.000602	20.848038
1649.445461	-2.996600	3.317300	-9.939500	26.977437	0.000603	20.865577
1650.455524	-3.002400	3.317500	-9.959400	26.976351	0.000602	20.839829
1651.454345	-3.019600	3.314500	-10.007000	27.009401	0.000601	20.850780
1652.459690	-2.999600	3.316600	-9.947200	27.024858	0.000601	20.853522
1653.455068	-3.035000	3.315500	-10.062000	27.035949	0.000600	20.841916
1654.450827	-2.984900	3.316200	-9.897400	27.042795	0.000599	20.865870
1655.448137	-2.995200	3.315700	-9.930300	27.032271	0.000599	20.850546
1656.429568	-3.013700	3.314400	-9.987600	26.989361	0.000600	20.871878
1657.434947	-3.013200	3.313600	-9.983700	26.952727	0.000597	20.840256
1658.436694	-2.985900	3.315000	-9.896100	26.985360	0.000596	20.853156
1659.433053	-2.991900	3.314800	-9.915900	27.003249	0.000598	20.859291
1660.459151	-2.999900	3.314400	-9.942400	26.982126	0.000597	20.857016
1661.459049	-2.988300	3.314200	-9.902400	26.977981	0.000597	20.861382
1662.454398	-2.986200	3.314000	-9.895300	26.992200	0.000594	20.845810
1663.465669	-2.988800	3.313100	-9.902200	26.991299	0.000594	20.862447
1664.452362	-3.005800	3.312000	-9.954400	26.984997	0.000595	20.872230
1665.464648	-2.991900	3.311700	-9.907700	26.953824	0.000593	20.863642
1666.455940	-3.017100	3.312300	-9.992000	26.957670	0.000592	20.857553
1667.441011	-2.992100	3.312700	-9.910500	26.954221	0.000591	20.846025
1668.435557	-2.998900	3.312000	-9.931300	26.960347	0.000591	20.880633
1669.431409	-3.014100	3.310400	-9.977100	26.969335	0.000590	20.868334
1670.456486	-3.007500	3.309500	-9.951700	26.997498	0.000589	20.864414
1671.442390	-2.987000	3.310900	-9.887900	26.985908	0.000590	20.862241
1672.436650	-2.991800	3.309200	-9.899300	26.978310	0.000589	20.884946
1673.438297	-3.000000	3.308900	-9.926000	27.007593	0.000588	20.881202
1674.435369	-2.995500	3.309800	-9.912100	27.033820	0.000587	20.872965
1675.436216	-3.011200	3.308800	-9.962500	27.056972	0.000586	20.854524
1676.435961	-2.991900	3.307500	-9.894100	27.079775	0.000586	20.877455
1677.470916	-2.997100	3.308600	-9.914000	27.085879	0.000587	20.869844
1678.475229	-3.013200	3.306100	-9.961800	27.056870	0.000585	20.888558
1679.456507	-2.991500	3.307000	-9.891500	27.054537	0.000585	20.871514
1680.462142	-3.008000	3.305500	-9.941000	27.022472	0.000584	20.863450
1681.438166	-2.995200	3.306900	-9.903800	26.984408	0.000582	20.865948
1682.444227	-2.988100	3.308400	-9.882900	26.967433	0.000582	20.854095
1683.438509	-2.985700	3.307000	-9.872600	26.939089	0.000582	20.860206
1684.443534	-3.011300	3.306300	-9.954500	26.973236	0.000580	20.873679
1685.437440	-2.993400	3.307100	-9.898200	27.014031	0.000581	20.884831
1686.463705	-3.021100	3.304500	-9.982400	27.042324	0.000581	20.874879
1687.440925	-3.007300	3.303700	-9.934100	27.071527	0.000579	20.881014
1688.439710	-3.022000	3.303000	-9.980200	27.086146	0.000579	20.875802
1689.440866	-3.009300	3.303000	-9.937800	27.107932	0.000577	20.898185
1690.462072	-2.981000	3.303200	-9.846400	27.085203	0.000577	20.886707
1691.460398	-3.012000	3.301700	-9.943600	27.082867	0.000577	20.881038
1692.439258	-3.004400	3.302600	-9.920900	27.128679	0.000576	20.890603
1693.441498	-2.999000	3.302300	-9.901500	27.123363	0.000573	20.884308
1694.470053	-3.006900	3.300100	-9.922000	27.153039	0.000577	20.873852
1695.462223	-3.006500	3.300500	-9.921500	27.177705	0.000574	20.878746
1696.452074	-2.991300	3.300900	-9.872700	27.178004	0.000572	20.889951
1697.478502	-3.002800	3.301000	-9.911300	27.208941	0.000571	20.904472
1698.472408	-3.004800	3.298400	-9.909800	27.200406	0.000573	20.917697
1699.441778	-3.004300	3.299700	-9.911800	27.213532	0.000571	20.913830
1700.467929	-3.017100	3.297600	-9.948300	27.194704	0.000571	20.896317
1701.458724	-2.993400	3.297600	-9.868900	27.190806	0.000568	20.917050
1702.476133	-3.003800	3.296100	-9.899700	27.188051	0.000567	20.896738
1703.462949	-2.999200	3.297100	-9.887900	27.172470	0.000569	20.907617
1704.469170	-3.014100	3.297300	-9.937500	27.130611	0.000567	20.908190
1705.481387	-2.995500	3.296900	-9.875700	27.088078	0.000566	20.889597
1706.468797	-3.010800	3.297600	-9.926800	27.071724	0.000568	20.900176
1707.444697	-2.985700	3.296300	-9.841200	27.071576	0.000566	20.906665
1708.447956	-2.998400	3.296200	-9.882100	27.110859	0.000565	20.914403
1709.456119	-3.005700	3.295600	-9.904600	27.135448	0.000565	20.916374
1710.445023	-2.974100	3.296200	-9.802200	27.175024	0.000564	20.905919
1711.466074	-2.985900	3.295900	-9.839700	27.169986	0.000566	20.895637
1712.445330	-2.996300	3.293400	-9.867500	27.198816	0.000566	20.916098
1713.445456	-3.004500	3.292300	-9.890200	27.233696	0.000565	20.896182
1714.448754	-2.997500	3.293300	-9.870800	27.224838	0.000564	20.900074
1715.450013	-3.000500	3.292400	-9.878100	27.226006	0.000562	20.905989
1716.454686	-2.980000	3.293100	-9.812000	27.194893	0.000560	20.909308
1717.469692	-2.990100	3.293000	-9.844900	27.167199	0.000562	20.907058
1718.472341	-2.976000	3.292600	-9.798200	27.119883	0.000560	20.904988
1719.471638	-2.983400	3.290500	-9.815200	27.093109	0.000560	20.907458
1720.474542	-3.002400	3.291400	-9.880000	27.100726	0.000558	20.929815
1721.474196	-3.013500	3.289900	-9.912700	27.112115	0.000559	20.904287
1722.471494	-2.988400	3.290900	-9.833400	27.148289	0.000558	20.911271
1723.469786	-2.997500	3.291400	-9.864900	27.114964	0.000559	20.909524
1724.470005	-3.000800	3.289200	-9.869000	27.126976	0.000556	20.920654
1725.476141	-3.017700	3.289800	-9.926800	27.104318	0.000557	20.939116
1726.466515	-3.010400	3.289300	-9.900400	27.097615	0.000557	20.919101
1727.481912	-3.026900	3.287300	-9.949900	27.127813	0.000555	20.919126
1728.483748	-3.001600	3.288900	-9.869900	27.138160	0.000556	20.915782
1729.475704	-2.998500	3.287900	-9.857800	27.192870	0.000555	20.917703
1730.451519	-3.000200	3.287400	-9.861400	27.197014	0.000555	20.921397
1731.451261	-2.988400	3.288200	-9.825600	27.180166	0.000553	20.905875
1732.454227	-3.014700	3.284900	-9.901700	27.182228	0.000552	20.915535
1733.451227	-3.010800	3.286800	-9.894400	27.204061	0.000552	20.919002
1734.453914	-3.013200	3.286500	-9.902000	27.190386	0.000552	20.904775
1735.453088	-3.003600	3.285800	-9.867300	27.188156	0.000551	20.905851
1736.454340	-3.014600	3.284100	-9.899500	27.207160	0.000551	20.883716
1737.460278	-3.020700	3.283000	-9.915800	27.209021	0.000550	20.896492
1738.471924	-3.009300	3.283500	-9.880000	27.230410	0.000550	20.910893
1739.477173	-2.988000	3.284600	-9.813000	27.257399	0.000547	20.919072
1740.475181	-2.991000	3.283000	-9.818700	27.260698	0.000547	20.902953
1741.475539	-2.999500	3.282000	-9.844100	27.259682	0.000547	20.892922
1742.480045	-3.004200	3.281900	-9.857000	27.256108	0.000547	20.878897
1743.472625	-2.989100	3.281400	-9.807500	27.268413	0.000546	20.900756
1744.477250	-2.983500	3.283000	-9.794300	27.316124	0.000546	20.888531
1745.455060	-3.006800	3.280500	-9.862400	27.341524	0.000545	20.907443
1746.476349	-3.004800	3.281300	-9.858500	27.315842	0.000545	20.906264
1747.480732	-2.999000	3.281400	-9.838400	27.292945	0.000543	20.889872
1748.471568	-3.009300	3.279600	-9.868000	27.244622	0.000544	20.888680
1749.479480	-3.000600	3.279800	-9.840300	27.223602	0.000543	20.903098
1750.481747	-2.981000	3.280600	-9.778600	27.233428	0.000543	20.891645
1751.483475	-2.991800	3.280100	-9.813100	27.249082	0.000542	20.888425
1752.480693	-2.965200	3.279100	-9.722300	27.245287	0.000540	20.885081
1753.485417	-3.000800	3.278000	-9.835000	27.249399	0.000541	20.884950
1754.477750	-2.980800	3.277900	-9.768900	27.313900	0.000541	20.885820
1755.479082	-3.003800	3.277500	-9.843500	27.346525	0.000539	20.874544
1756.489674	-3.016400	3.277600	-9.884900	27.337886	0.000539	20.895249
1757.467422	-2.986900	3.277400	-9.787800	27.358527	0.000538	20.871918
1758.456917	-2.992000	3.277100	-9.804400	27.371576	0.000538	20.892157
1759.481740	-3.004000	3.275400	-9.838400	27.407988	0.000536	20.869994
1760.467005	-3.006700	3.275600	-9.847400	27.427435	0.000537	20.890030
1761.488664	-2.991000	3.276300	-9.798400	27.449386	0.000534	20.879398
1762.476425	-3.004800	3.275800	-9.840700	27.500433	0.000535	20.883814
1763.462862	-2.982300	3.275700	-9.768100	27.489688	0.000534	20.883435
1764.468024	-3.002600	3.273500	-9.827700	27.472669	0.000532	20.881011
1765.466186	-2.984400	3.273700	-9.769100	27.482664	0.000532	20.883481
1766.468834	-2.987700	3.274100	-9.780000	27.480853	0.000533	20.893511
1767.469615	-2.999900	3.273900	-9.820900	27.475985	0.000532	20.890511
1768.471822	-2.988400	3.273700	-9.782100	27.480744	0.000531	20.899091
1769.474914	-2.988700	3.273500	-9.782200	27.468388	0.000531	20.902307
1770.488486	-2.994200	3.272300	-9.796200	27.493117	0.000530	20.877875
1771.506541	-2.988300	3.272800	-9.778900	27.502616	0.000529	20.897863
1772.487494	-2.995300	3.270800	-9.796400	27.501002	0.000530	20.898609
1773.470096	-2.998500	3.272500	-9.811600	27.512010	0.000528	20.869383
1774.482133	-2.980900	3.271700	-9.751500	27.497024	0.000528	20.875642
1775.492875	-2.996900	3.270700	-9.800200	27.484443	0.000528	20.855874
1776.496149	-3.008800	3.269700	-9.837000	27.499000	0.000525	20.865778
1777.471081	-2.995900	3.270100	-9.795700	27.472903	0.000527	20.859911
1778.475385	-3.012700	3.267700	-9.843300	27.470719	0.000525	20.883316
1779.489917	-2.987400	3.270300	-9.768800	27.463421	0.000521	20.859854
1780.470326	-2.996900	3.267400	-9.791200	27.415045	0.000523	20.879937
1781.488429	-3.018800	3.266700	-9.860300	27.398619	0.000521	20.880008
1782.482675	-2.980900	3.268200	-9.742000	27.431759	0.000521	20.870200
1783.488758	-2.976200	3.267200	-9.722900	27.457972	0.000521	20.879976
1784.468531	-2.992300	3.266300	-9.773200	27.491631	0.000520	20.864054
1785.468082	-3.001700	3.265500	-9.800600	27.482750	0.000520	20.862232
1786.472052	-2.987500	3.267700	-9.761400	27.480833	0.000518	20.878794
1787.487054	-3.020000	3.263700	-9.855200	27.491170	0.000518	20.867383
1788.499637	-3.026600	3.264300	-9.879300	27.462400	0.000517	20.865939
1789.476288	-2.996100	3.265300	-9.781600	27.430942	0.000517	20.880757
1790.469693	-2.987500	3.266300	-9.756100	27.392618	0.000515	20.874445
1791.485454	-3.024500	3.262700	-9.865000	27.395369	0.000516	20.870100
1792.501922	-2.992600	3.264000	-9.764800	27.393508	0.000513	20.861591
1793.490309	-2.990200	3.264400	-9.760100	27.409582	0.000514	20.871123
1794.497232	-2.986700	3.263200	-9.745300	27.415906	0.000513	20.882226
1795.491739	-2.982100	3.261600	-9.724500	27.423964	0.000513	20.852402
1796.498349	-3.004000	3.263500	-9.801700	27.411562	0.000513	20.875960
1797.487331	-3.000700	3.262100	-9.787300	27.417190	0.000511	20.872138
1798.496403	-3.017100	3.260000	-9.833700	27.394644	0.000511	20.859415
1799.494545	-3.005600	3.259400	-9.795600	27.377426	0.000511	20.859638
1800.475694	-2.977700	3.261900	-9.711700	27.337858	0.000508	20.862033
1801.471950	-3.011700	3.258500	-9.811700	27.360856	0.000506	20.854822
1802.481302	-2.989000	3.259700	-9.742000	27.413571	0.000506	20.850006
1803.492569	-3.000200	3.258200	-9.774200	27.391619	0.000506	20.863958
1804.508105	-3.010700	3.258600	-9.808900	27.415459	0.000507	20.855225
1805.475633	-2.988600	3.258700	-9.736600	27.434266	0.000505	20.856128
1806.476427	-2.980700	3.258500	-9.711700	27.435951	0.000505	20.866831
1807.477876	-3.002600	3.258000	-9.781600	27.401545	0.000504	20.862564
1808.504841	-2.998000	3.258100	-9.766300	27.398918	0.000504	20.863240
1809.501371	-3.008400	3.255700	-9.793300	27.364630	0.000504	20.848188
1810.496373	-2.998500	3.254900	-9.758300	27.367936	0.000503	20.835867
1811.492158	-3.002600	3.257000	-9.778400	27.346575	0.000500	20.845672
1812.491565	-3.001500	3.256800	-9.774300	27.382375	0.000499	20.861297
1813.494988	-2.985600	3.256500	-9.721700	27.365407	0.000501	20.852763
1814.499139	-2.982900	3.256400	-9.711800	27.371682	0.000500	20.843903
1815.499720	-3.007100	3.253000	-9.780300	27.394384	0.000500	20.845877
1816.479809	-3.001800	3.255300	-9.770500	27.437991	0.000500	20.847547
1817.478158	-2.994400	3.253800	-9.742100	27.413585	0.000497	20.846228
1818.476725	-3.004000	3.254100	-9.774500	27.398010	0.000497	20.850000
1819.493118	-2.983000	3.254800	-9.707500	27.409843	0.000496	20.869488
1820.480983	-2.990100	3.252600	-9.723300	27.438814	0.000495	20.834151
1821.498367	-3.011500	3.252400	-9.794000	27.465334	0.000495	20.841391
1822.482145	-3.009200	3.250300	-9.780100	27.506114	0.000493	20.845435
1823.506691	-3.018200	3.251400	-9.811900	27.531017	0.000495	20.842516
1824.479036	-3.000000	3.250300	-9.749900	27.541558	0.000495	20.835577
1825.480030	-3.015800	3.250300	-9.800600	27.532804	0.000494	20.831512
1826.497437	-2.995600	3.249400	-9.733000	27.539845	0.000494	20.841915
1827.493546	-2.993000	3.251200	-9.729900	27.552593	0.000493	20.850948
1828.496439	-2.984300	3.249300	-9.695200	27.566780	0.000492	20.833929
1829.494020	-2.993000	3.250900	-9.729000	27.557457	0.000491	20.847307
1830.477824	-3.008800	3.248100	-9.772100	27.544410	0.000491	20.834654
1831.481781	-2.996400	3.247800	-9.731400	27.568169	0.000491	20.840068
1832.480799	-2.982100	3.247200	-9.682100	27.566907	0.000487	20.833108
1833.482059	-3.006100	3.246900	-9.759900	27.548324	0.000489	20.826264
1834.498716	-3.016300	3.246600	-9.791800	27.592843	0.000488	20.846401
1835.502080	-3.006500	3.246600	-9.759900	27.612139	0.000488	20.831204
1836.501810	-2.987700	3.245900	-9.696500	27.627640	0.000485	20.835422
1837.500949	-3.005900	3.245700	-9.754900	27.662510	0.000485	20.838741
1838.501127	-2.976100	3.246500	-9.660900	27.697625	0.000486	20.838514
1839.487639	-2.997000	3.244300	-9.722100	27.665854	0.000485	20.845424
1840.485478	-2.982200	3.244800	-9.675000	27.689386	0.000485	20.834491
1841.502185	-2.997900	3.244500	-9.725900	27.639863	0.000482	20.842979
1842.491000	-3.015500	3.242500	-9.777300	27.630780	0.000482	20.841900
1843.491619	-2.999000	3.243200	-9.725400	27.615205	0.000481	20.826229
1844.509197	-2.990000	3.244000	-9.697900	27.649674	0.000481	20.822981
1845.487068	-2.968300	3.242600	-9.624200	27.647445	0.000480	20.833539
1846.488321	-3.008300	3.242400	-9.752400	27.666884	0.000481	20.838875
1847.504019	-3.009300	3.241700	-9.754400	27.630724	0.000479	20.829042
1848.490074	-3.020400	3.241300	-9.788800	27.631293	0.000479	20.827718
1849.489352	-3.019400	3.239600	-9.780800	27.643964	0.000478	20.828614
1850.493907	-2.994100	3.240300	-9.700700	27.680370	0.000477	20.828263
1851.487704	-2.986700	3.242100	-9.681600	27.681730	0.000477	20.823469
1852.502255	-3.017700	3.239700	-9.775000	27.729792	0.000478	20.831529
1853.490947	-3.000500	3.238600	-9.715800	27.728178	0.000476	20.846974
1854.488820	-3.015500	3.238200	-9.763700	27.735196	0.000473	20.824166
1855.490212	-3.000100	3.237600	-9.711800	27.724679	0.000475	20.826858
1856.489014	-2.979300	3.238900	-9.649300	27.716813	0.000473	20.813728
1857.510174	-3.012300	3.238400	-9.753400	27.643232	0.000471	20.826929
1858.513616	-2.999700	3.235900	-9.704900	27.613942	0.000472	20.824484
1859.494498	-3.007400	3.237000	-9.732800	27.586878	0.000468	20.829495
1860.510366	-3.013200	3.236300	-9.750700	27.535810	0.000471	20.816045
1861.510546	-2.998300	3.236300	-9.702400	27.551731	0.000470	20.841072
1862.516510	-2.989900	3.236100	-9.674300	27.578990	0.000469	20.815394
1863.517391	-3.021200	3.234100	-9.769600	27.617206	0.000467	20.841044
1864.523909	-3.012100	3.234300	-9.741400	27.626134	0.000465	20.812570
1865.519127	-2.994800	3.234100	-9.685000	27.631761	0.000467	20.832930
1866.513015	-2.995800	3.234700	-9.689600	27.619513	0.000465	20.821080
1867.510681	-2.983900	3.235400	-9.652900	27.634166	0.000465	20.823971
1868.513037	-3.023600	3.232300	-9.772800	27.599120	0.000465	20.828061
1869.516726	-3.004700	3.234200	-9.716900	27.543808	0.000461	20.819824
1870.516100	-2.989600	3.233900	-9.666700	27.487132	0.000465	20.824442
1871.513055	-2.983600	3.233200	-9.645100	27.485345	0.000461	20.815058
1872.509833	-3.014900	3.232100	-9.743600	27.452995	0.000461	20.825185
1873.513570	-2.992600	3.231600	-9.669500	27.435782	0.000459	20.831575
1874.516480	-2.991300	3.229600	-9.660600	27.441490	0.000458	20.807921
1875.520496	-3.014100	3.231800	-9.740000	27.414052	0.000457	20.827732
1876.513949	-3.025300	3.228600	-9.765100	27.396736	0.000456	20.808416
1877.517776	-2.982200	3.229400	-9.629500	27.363916	0.000455	20.812383
1878.510016	-2.997600	3.228800	-9.677700	27.329286	0.000455	20.823065
1879.526246	-3.001500	3.227900	-9.688100	27.344615	0.000455	20.802925
1880.525508	-3.013200	3.228100	-9.726400	27.349378	0.000454	20.809612
1881.512486	-3.004300	3.227400	-9.695200	27.376568	0.000453	20.824636
1882.525253	-3.013500	3.226500	-9.721600	27.419634	0.000451	20.830977
1883.493822	-2.985900	3.227200	-9.634900	27.498489	0.000450	20.828281
1884.495154	-3.001200	3.225300	-9.679000	27.511160	0.000451	20.801201
1885.510250	-2.995500	3.226600	-9.664500	27.538374	0.000448	20.795391
1886.516607	-2.991100	3.226200	-9.648900	27.562510	0.000448	20.804977
1887.513460	-3.002900	3.224300	-9.681300	27.627858	0.000447	20.802451
1888.514951	-2.976800	3.226000	-9.602400	27.664890	0.000449	20.808420
1889.518678	-3.001800	3.223900	-9.675500	27.684234	0.000448	20.800858
1890.516819	-3.022200	3.222800	-9.739300	27.694850	0.000446	20.828136
1891.521060	-3.007300	3.224100	-9.695300	27.682943	0.000444	20.800508
1892.494703	-2.991900	3.224100	-9.645200	27.712305	0.000444	20.808717
1893.496493	-3.009700	3.223000	-9.698700	27.750544	0.000444	20.794093
1894.494936	-3.006600	3.220900	-9.682400	27.717442	0.000444	20.792550
1895.513934	-3.010800	3.220700	-9.695300	27.722822	0.000443	20.814085
1896.513422	-2.987900	3.222300	-9.626900	27.704868	0.000441	20.798863
1897.517004	-3.009300	3.220300	-9.689800	27.764384	0.000441	20.798537
1898.512226	-2.995800	3.219400	-9.643500	27.762228	0.000442	20.800635
1899.495271	-2.997600	3.221200	-9.654000	27.767808	0.000440	20.805777
1900.496604	-3.018000	3.220100	-9.717500	27.737084	0.000437	20.797143
1901.496493	-3.010500	3.221500	-9.697600	27.709334	0.000437	20.789132
1902.496089	-2.982700	3.220200	-9.604000	27.701499	0.000435	20.819180
1903.496255	-3.012800	3.217900	-9.694100	27.692322	0.000436	20.786237
1904.500117	-3.007600	3.216100	-9.670100	27.710329	0.000435	20.797245
1905.513368	-2.996000	3.217100	-9.636900	27.742615	0.000434	20.802235
1906.525531	-3.001300	3.218300	-9.657700	27.785892	0.000435	20.777982
1907.530374	-2.995700	3.218500	-9.640800	27.819462	0.000433	20.798965
1908.511672	-3.018100	3.217500	-9.709900	27.882421	0.000431	20.802585
1909.513345	-3.013600	3.215100	-9.688100	27.879496	0.000431	20.784468
1910.526411	-2.978700	3.217000	-9.581000	27.882597	0.000429	20.790908
1911.525645	-3.009200	3.215000	-9.673000	27.871613	0.000428	20.785070
1912.519256	-3.005200	3.213100	-9.655100	27.898143	0.000428	20.799917
1913.502028	-2.990300	3.214200	-9.610000	27.895271	0.000425	20.795129
1914.517481	-2.995200	3.214600	-9.626700	27.940320	0.000426	20.794478
1915.516848	-2.987300	3.214400	-9.600700	27.960974	0.000424	20.792507
1916.521443	-3.009500	3.214400	-9.673300	27.984777	0.000424	20.799871
1917.517782	-2.996600	3.213100	-9.626700	27.983462	0.000426	20.772943
1918.525066	-3.010900	3.211300	-9.667400	27.987206	0.000425	20.786195
1919.516577	-2.999900	3.211700	-9.633900	27.969354	0.000424	20.794779
1920.524992	-3.010600	3.211800	-9.667700	27.971738	0.000422	20.780583
1921.502331	-2.967400	3.211700	-9.529400	27.986858	0.000423	20.792957
1922.512894	-2.986500	3.210700	-9.586900	27.993551	0.000422	20.778831
1923.503120	-2.997700	3.209000	-9.618300	28.014724	0.000421	20.783074
1924.504308	-2.986000	3.210600	-9.585200	27.988524	0.000419	20.780884
1925.500654	-2.993400	3.208900	-9.604700	27.971436	0.000419	20.789287
1926.501855	-3.002000	3.209400	-9.633600	27.909822	0.000419	20.776110
1927.501976	-3.019100	3.207600	-9.683000	27.868983	0.000419	20.779104
1928.502050	-2.978700	3.208400	-9.555400	27.835063	0.000416	20.789061
1929.503743	-2.989600	3.207200	-9.587400	27.840020	0.000417	20.781722
1930.503580	-3.015200	3.207800	-9.670900	27.867714	0.000416	20.772136
1931.508790	-2.988500	3.206700	-9.583000	27.872573	0.000414	20.778449
1932.505361	-3.001200	3.206000	-9.620300	27.898660	0.000414	20.765349
1933.504623	-3.002500	3.206700	-9.627100	27.923874	0.000413	20.770339
1934.508041	-3.002400	3.206500	-9.624300	27.931113	0.000411	20.796117
1935.504689	-3.012500	3.205200	-9.654700	27.939687	0.000411	20.795264
1936.507970	-3.007000	3.203500	-9.632400	27.937279	0.000411	20.774348
1937.503716	-3.003700	3.204400	-9.623600	27.891955	0.000410	20.775197
1938.505140	-3.009200	3.204100	-9.640500	27.864751	0.000409	20.794284
1939.507666	-3.007300	3.203400	-9.632900	27.865394	0.000408	20.794457
1940.508308	-2.979900	3.202500	-9.541600	27.850093	0.000410	20.781903
1941.509089	-3.004100	3.201200	-9.616300	27.844485	0.000407	20.784794
1942.506325	-3.003400	3.200100	-9.609300	27.849517	0.000409	20.793176
1943.505811	-2.987100	3.201900	-9.562500	27.873937	0.000405	20.770339
1944.510280	-2.994300	3.200300	-9.581900	27.872106	0.000404	20.784617
1945.516510	-2.983400	3.200300	-9.546500	27.916706	0.000403	20.767865
1946.509225	-3.006400	3.198800	-9.615700	27.961631	0.000403	20.770884
1947.511070	-2.989800	3.199900	-9.564700	27.974150	0.000403	20.766415
1948.509297	-3.007300	3.198500	-9.617900	27.945984	0.000400	20.778842
1949.508440	-3.026500	3.197700	-9.676800	27.942039	0.000400	20.763966
1950.510803	-3.028800	3.198300	-9.685600	27.894280	0.000401	20.770898
1951.510376	-2.992600	3.199000	-9.571900	27.882752	0.000398	20.778262
1952.516233	-3.014900	3.197400	-9.639500	27.872581	0.000397	20.765180
1953.511786	-3.015900	3.196700	-9.639400	27.879373	0.000399	20.785293
1954.513085	-3.000100	3.196000	-9.587200	27.885047	0.000396	20.778202
1955.525080	-3.004900	3.197200	-9.606000	27.884081	0.000395	20.772961
1956.509892	-2.993200	3.195300	-9.562700	27.857522	0.000395	20.768517
1957.512775	-2.998300	3.196300	-9.583000	27.833741	0.000395	20.773980
1958.509890	-2.997600	3.195800	-9.578300	27.780502	0.000393	20.764497
1959.510688	-3.014800	3.193200	-9.625000	27.772317	0.000393	20.784235
1960.511224	-2.985400	3.193600	-9.533600	27.765988	0.000393	20.766960
1961.516405	-2.991300	3.194100	-9.552700	27.817740	0.000392	20.763092
1962.516790	-3.018100	3.193400	-9.637200	27.842559	0.000390	20.796606
1963.512243	-3.026800	3.192300	-9.661200	27.893587	0.000388	20.776366
1964.523709	-2.976400	3.192100	-9.499900	27.929612	0.000388	20.777063
1965.523154	-3.015700	3.191400	-9.623400	27.955747	0.000388	20.778712
1966.517869	-2.991100	3.192900	-9.549100	27.983167	0.000387	20.771224
1967.513519	-3.008500	3.190300	-9.596800	28.010440	0.000387	20.788244
1968.514641	-2.988700	3.190700	-9.534900	28.046429	0.000384	20.772788
1969.514030	-3.001300	3.190300	-9.573600	28.016384	0.000385	20.773365
1970.513011	-3.000900	3.189400	-9.569400	28.023130	0.000385	20.765456
1971.516200	-3.004300	3.189500	-9.581000	28.013656	0.000384	20.776783
1972.515096	-2.996000	3.190000	-9.556300	28.015836	0.000382	20.773287
1973.516230	-3.003400	3.190300	-9.580400	28.028505	0.000380	20.787937
1974.517213	-3.010700	3.187000	-9.592700	28.031254	0.000380	20.763203
1975.515144	-3.000600	3.187800	-9.562800	27.993992	0.000380	20.784016
1976.521393	-2.978800	3.186800	-9.490700	27.953156	0.000379	20.773259
1977.517025	-3.008700	3.186000	-9.584500	27.905527	0.000380	20.795969
1978.516624	-2.984800	3.186500	-9.510200	27.921889	0.000376	20.781617
1979.519781	-2.992000	3.185500	-9.530000	27.938229	0.000374	20.764399
1980.520444	-3.007700	3.186800	-9.584000	27.981322	0.000375	20.759409
1981.519660	-3.001400	3.185300	-9.558700	28.024730	0.000373	20.793620
1982.522440	-3.010000	3.182400	-9.578300	28.072628	0.000375	20.778772
1983.519660	-3.008700	3.182400	-9.573900	28.117894	0.000374	20.782615
1984.522387	-2.998000	3.183200	-9.541800	28.130436	0.000373	20.797611
1985.516406	-3.004100	3.181300	-9.554800	28.123051	0.000371	20.774055
1986.517932	-3.008000	3.181100	-9.567400	28.140896	0.000370	20.787753
1987.519585	-2.976200	3.181500	-9.468000	28.106341	0.000370	20.784260
1988.520974	-2.981400	3.182300	-9.487100	28.081331	0.000369	20.788008
1989.519704	-2.985400	3.182100	-9.498900	28.058869	0.000367	20.781992
1990.517791	-2.983600	3.180000	-9.486700	28.020441	0.000368	20.764172
1991.518711	-3.009400	3.181300	-9.572200	27.979635	0.000367	20.778100
1992.522786	-3.007400	3.177800	-9.556300	27.929352	0.000366	20.787707
1993.523257	-2.988200	3.178000	-9.496000	27.926997	0.000366	20.790552
1994.518272	-3.010800	3.177000	-9.564200	27.945468	0.000365	20.777849
1995.523513	-3.000300	3.176800	-9.530700	27.942589	0.000362	20.786805
1996.519226	-3.000900	3.177700	-9.534900	28.006956	0.000363	20.782367
1997.521386	-2.996300	3.176200	-9.516100	28.058746	0.000360	20.803205
1998.523484	-3.013400	3.175400	-9.566400	28.081208	0.000362	20.777452
1999.524920	-2.991700	3.177100	-9.504100	28.142934	0.000362	20.777003
2000.520290	-2.964700	3.176100	-9.415600	28.154737	0.000360	20.776557
2001.519746	-3.004800	3.174400	-9.537500	28.163335	0.000358	20.779522
2002.520903	-2.986700	3.176000	-9.484600	28.143950	0.000359	20.795095
2003.519526	-3.003700	3.173600	-9.531700	28.105430	0.000358	20.783344
2004.521852	-2.988000	3.173200	-9.480000	28.054929	0.000356	20.774232
2005.534865	-2.943600	3.173800	-9.340200	27.993496	0.000354	20.769767
2006.525470	-3.006200	3.172600	-9.536400	27.946737	0.000355	20.795247
2007.528087	-3.023200	3.172400	-9.589700	27.898063	0.000353	20.796043
2008.523469	-3.020400	3.171800	-9.578900	27.841906	0.000354	20.788836
2009.524555	-3.031500	3.169800	-9.607800	27.799029	0.000353	20.792625
2010.524166	-3.038900	3.169600	-9.631500	27.853107	0.000352	20.794419
2011.530906	-3.012500	3.169800	-9.548100	27.883304	0.000350	20.790672
2012.523475	-2.997100	3.170700	-9.501600	27.925116	0.000350	20.791504
2013.526457	-2.975200	3.168500	-9.425400	27.978985	0.000348	20.796412
2014.535603	-2.990100	3.168800	-9.474200	28.050261	0.000347	20.792767
2015.525993	-2.996300	3.170100	-9.497100	28.075971	0.000347	20.782612
2016.525930	-2.980800	3.167900	-9.442000	28.150464	0.000348	20.785057
2017.524861	-2.993000	3.167200	-9.477700	28.186778	0.000346	20.805495
2018.523440	-2.991500	3.166500	-9.471200	28.200461	0.000344	20.798407
2019.525074	-2.987000	3.165200	-9.453800	28.223858	0.000345	20.800152
2020.527788	-3.006900	3.164500	-9.514300	28.222048	0.000343	20.801175
2021.524806	-2.989500	3.163500	-9.457200	28.246735	0.000345	20.784777
2022.528564	-2.989700	3.163700	-9.457600	28.263295	0.000339	20.771104
2023.526005	-2.973400	3.165200	-9.410200	28.257714	0.000341	20.801047
2024.527428	-2.976800	3.164200	-9.418100	28.269241	0.000338	20.806963
2025.529001	-2.996200	3.163100	-9.476800	28.293157	0.000340	20.788369
2026.527100	-2.969700	3.162300	-9.390600	28.313431	0.000339	20.782704
2027.528315	-3.010300	3.160300	-9.511900	28.331548	0.000339	20.812798
2028.525728	-3.009200	3.159600	-9.506300	28.328128	0.000338	20.821209
2029.527624	-3.022800	3.161200	-9.554500	28.328005	0.000338	20.796430
2030.530679	-2.996600	3.159100	-9.465400	28.331572	0.000335	20.807608
2031.529795	-3.019000	3.158900	-9.535700	28.325577	0.000335	20.797304
2032.533515	-2.989800	3.158200	-9.441700	28.307953	0.000333	20.785248
2033.529381	-3.015500	3.159800	-9.527600	28.271023	0.000334	20.801171
2034.528126	-3.002500	3.156600	-9.476400	28.256027	0.000334	20.814047
2035.537251	-3.000300	3.156100	-9.468000	28.250450	0.000334	20.802268
2036.529153	-2.976500	3.157700	-9.398100	28.264058	0.000331	20.815021
2037.531377	-2.986200	3.156500	-9.424800	28.233871	0.000331	20.818293
2038.528177	-2.995700	3.155000	-9.450700	28.225222	0.000330	20.812904
2039.538973	-3.012600	3.155600	-9.505500	28.195305	0.000329	20.796536
2040.533065	-3.012400	3.154000	-9.500500	28.189773	0.000326	20.791914
2041.529897	-3.005100	3.153500	-9.475400	28.190198	0.000328	20.822688
2042.532730	-2.999300	3.151800	-9.452500	28.172178	0.000325	20.803598
2043.538238	-3.015300	3.152900	-9.505000	28.158196	0.000325	20.803273
2044.531469	-3.017500	3.151600	-9.508500	28.149075	0.000327	20.812108
2045.534268	-3.021700	3.150600	-9.520000	28.153511	0.000325	20.809462
2046.534543	-2.993900	3.151400	-9.434500	28.179665	0.000323	20.825359
2047.532804	-2.979400	3.151900	-9.389700	28.204127	0.000325	20.813952
2048.533776	-2.984700	3.152000	-9.406600	28.233207	0.000322	20.826159
2049.533096	-3.019300	3.149300	-9.507600	28.248376	0.000324	20.799232
2050.539646	-2.994200	3.149300	-9.428400	28.267958	0.000320	20.814206
2051.539604	-3.003100	3.149200	-9.456700	28.197389	0.000319	20.819496
2052.542335	-2.986000	3.148300	-9.400300	28.187028	0.000318	20.815703
2053.540192	-2.993500	3.148500	-9.423700	28.168062	0.000318	20.817472
2054.538283	-3.039200	3.145200	-9.558100	28.163426	0.000318	20.788624
2055.538232	-3.008600	3.144900	-9.461300	28.155792	0.000317	20.822663
2056.538035	-2.989100	3.145400	-9.401000	28.120295	0.000317	20.803524
2057.539578	-3.001900	3.145900	-9.442900	28.082639	0.000317	20.803075
2058.541669	-2.980600	3.144100	-9.368600	28.101929	0.000313	20.813010
2059.536339	-2.980100	3.143800	-9.366000	28.111026	0.000313	20.809840
2060.538528	-2.983500	3.143500	-9.377300	28.110878	0.000313	20.822967
2061.535433	-2.970600	3.145000	-9.341400	28.154881	0.000312	20.818428
2062.539889	-2.984700	3.143100	-9.379500	28.176547	0.000312	20.830755
2063.538893	-2.998000	3.142200	-9.419100	28.164449	0.000311	20.805300
2064.540766	-3.007800	3.141800	-9.449200	28.168319	0.000308	20.810618
2065.535227	-3.007300	3.139600	-9.440300	28.199083	0.000308	20.831159
2066.537486	-2.998300	3.140300	-9.414300	28.220076	0.000310	20.824793
2067.540908	-2.975100	3.140000	-9.341200	28.258325	0.000309	20.830111
2068.537377	-2.966300	3.140100	-9.312900	28.282121	0.000308	20.817086
2069.545413	-2.985000	3.139100	-9.369100	28.282445	0.000308	20.828317
2070.538666	-3.013200	3.137300	-9.452400	28.277465	0.000305	20.835157
2071.540990	-3.021800	3.136300	-9.475800	28.268021	0.000305	20.834658
2072.548073	-3.022700	3.135500	-9.476100	28.288595	0.000306	20.837354
2073.543314	-3.006700	3.133900	-9.421900	28.322301	0.000303	20.823876
2074.537024	-2.996300	3.135100	-9.392800	28.343443	0.000302	20.830465
2075.539873	-2.998800	3.133500	-9.395000	28.327878	0.000303	20.813845
2076.539272	-3.001700	3.132800	-9.402300	28.325973	0.000299	20.830893
2077.539172	-3.012600	3.132400	-9.435400	28.310974	0.000300	20.822429
2078.541122	-2.992900	3.133300	-9.374800	28.337047	0.000301	20.828292
2079.539148	-2.997100	3.130000	-9.379200	28.317244	0.000298	20.828268
2080.538649	-2.988300	3.132300	-9.359600	28.364092	0.000297	20.834661
2081.537474	-3.017200	3.128600	-9.438000	28.350137	0.000297	20.842895
2082.536997	-2.989000	3.130100	-9.354000	28.394548	0.000295	20.827871
2083.541368	-3.015900	3.128900	-9.433000	28.406767	0.000295	20.838278
2084.540153	-3.015100	3.128900	-9.431700	28.422183	0.000295	20.838628
2085.538116	-3.009300	3.126500	-9.407400	28.458962	0.000292	20.844845
2086.538512	-3.021100	3.126100	-9.443200	28.442135	0.000293	20.845917
2087.539785	-3.000800	3.127200	-9.384500	28.454008	0.000293	20.834166
2088.541328	-2.999200	3.125000	-9.371000	28.503099	0.000291	20.826229
2089.542302	-3.004000	3.125200	-9.386800	28.507635	0.000290	20.854030
2090.545306	-2.978900	3.126500	-9.311600	28.539285	0.000291	20.835171
2091.541218	-3.010500	3.123400	-9.402300	28.526640	0.000289	20.835238
2092.541670	-2.998300	3.123200	-9.363400	28.520351	0.000288	20.832697
2093.544428	-2.984100	3.123800	-9.321300	28.503724	0.000289	20.833971
2094.543595	-3.013200	3.122200	-9.406900	28.503475	0.000288	20.862168
2095.543392	-3.011400	3.121100	-9.397800	28.552739	0.000286	20.855831
2096.546200	-2.997000	3.121500	-9.354200	28.603708	0.000287	20.852162
2097.546497	-3.009900	3.119500	-9.388000	28.603933	0.000286	20.840061
2098.547038	-3.010900	3.118000	-9.387400	28.644596	0.000285	20.823643
2099.548492	-3.001600	3.118900	-9.360300	28.672866	0.000283	20.842633
2100.548500	-3.001300	3.118000	-9.357400	28.691229	0.000281	20.851171
2101.550406	-3.000100	3.118200	-9.354400	28.673909	0.000282	20.838468
2102.549186	-3.003000	3.116800	-9.357700	28.697991	0.000280	20.840439
2103.545435	-3.003600	3.116900	-9.360100	28.712539	0.000279	20.853669
2104.551754	-3.005600	3.116200	-9.364800	28.677700	0.000283	20.848450
2105.551600	-3.038400	3.113600	-9.458700	28.674854	0.000279	20.840842
2106.548662	-3.014100	3.114400	-9.385500	28.653969	0.000279	20.852522
2107.549752	-3.021100	3.114000	-9.405300	28.608549	0.000279	20.834279
2108.546268	-3.011000	3.112800	-9.372600	28.605131	0.000276	20.840793
2109.551355	-3.016500	3.112200	-9.385900	28.603943	0.000276	20.850502
2110.548917	-2.979800	3.111800	-9.271200	28.583822	0.000276	20.839247
2111.549957	-2.991300	3.109700	-9.300800	28.560356	0.000274	20.850700
2112.546645	-3.004300	3.109200	-9.339500	28.575077	0.000273	20.849879
2113.548116	-3.003500	3.108900	-9.336200	28.594303	0.000272	20.863077
2114.549129	-2.999900	3.108900	-9.324600	28.636055	0.000273	20.839222
2115.551188	-2.972700	3.107300	-9.236100	28.598989	0.000271	20.860685
2116.549484	-2.993900	3.107700	-9.302100	28.628505	0.000271	20.854376
2117.552174	-2.997800	3.107900	-9.315300	28.650575	0.000271	20.846734
2118.546805	-3.017600	3.104500	-9.367500	28.698764	0.000270	20.851648
2119.546265	-2.989600	3.105300	-9.281900	28.708903	0.000269	20.857118
2120.553389	-3.016600	3.104800	-9.365300	28.703496	0.000270	20.829863
2121.548359	-2.992400	3.103700	-9.286900	28.668517	0.000270	20.852950
2122.552826	-3.019700	3.100100	-9.359800	28.620126	0.000269	20.845937
2123.548468	-3.018000	3.101200	-9.358600	28.543905	0.000269	20.853099
2124.549283	-3.013500	3.101000	-9.343400	28.487385	0.000268	20.848811
2125.550416	-3.001700	3.101300	-9.309000	28.463818	0.000266	20.860639
2126.556864	-3.017200	3.100400	-9.352700	28.458143	0.000267	20.878631
2127.548710	-3.017100	3.098500	-9.347400	28.436262	0.000265	20.840952
2128.549018	-3.013400	3.098300	-9.335600	28.474503	0.000265	20.883726
2129.548597	-3.009300	3.097600	-9.319600	28.490038	0.000264	20.844370
2130.549387	-2.985800	3.097700	-9.248000	28.543737	0.000263	20.860041
2131.558285	-3.011400	3.096400	-9.323700	28.586334	0.000263	20.868802
2132.548853	-2.998100	3.096700	-9.283200	28.615129	0.000259	20.860345
2133.555799	-3.018400	3.094100	-9.337700	28.645878	0.000262	20.847692
2134.549103	-3.017400	3.093500	-9.333400	28.637481	0.000265	20.880959
2135.553250	-2.976600	3.093900	-9.206600	28.603089	0.000261	20.874297
2136.556508	-3.024500	3.091000	-9.348200	28.593600	0.000260	20.856205
2137.551763	-3.007900	3.092200	-9.299800	28.555243	0.000259	20.868784
2138.553484	-2.989000	3.091500	-9.239200	28.555616	0.000260	20.865840
2139.550375	-3.003700	3.091400	-9.284300	28.524096	0.000259	20.871554
2140.551537	-3.021300	3.088500	-9.331000	28.510986	0.000258	20.874948
2141.549120	-3.012900	3.089000	-9.305700	28.536140	0.000258	20.857607
2142.553963	-2.988300	3.088100	-9.226700	28.562952	0.000257	20.870857
2143.551970	-2.987600	3.088800	-9.226200	28.570488	0.000257	20.876550
2144.552053	-3.023300	3.087300	-9.332800	28.626435	0.000254	20.885955
2145.550843	-3.000700	3.085600	-9.257600	28.616647	0.000255	20.877520
2146.554054	-3.005200	3.086100	-9.273800	28.602130	0.000255	20.890873
2147.556416	-3.017800	3.083500	-9.304100	28.594647	0.000255	20.875751
2148.553470	-3.003900	3.082400	-9.258400	28.609540	0.000254	20.877948
2149.555116	-3.019000	3.082100	-9.303900	28.647026	0.000252	20.874926
2150.550959	-2.939500	3.085700	-9.068100	28.717418	0.000251	20.880393
2151.554739	-3.002000	3.081000	-9.248000	28.765878	0.000251	20.876101
2152.555474	-2.976600	3.081600	-9.172000	28.776582	0.000252	20.876451
2153.556405	-2.996000	3.079300	-9.224000	28.815548	0.000252	20.876823
2154.552273	-3.009900	3.078100	-9.263400	28.822584	0.000252	20.869212
2155.556138	-2.987500	3.078900	-9.197700	28.829845	0.000248	20.888378
2156.553606	-2.989500	3.077900	-9.200600	28.815724	0.000248	20.879370
2157.558713	-2.973600	3.078100	-9.151900	28.768826	0.000249	20.889500
2158.556336	-3.029900	3.072900	-9.307700	28.765457	0.000248	20.860978
2159.559376	-3.008900	3.074000	-9.247800	28.728765	0.000248	20.904148
2160.555903	-2.977200	3.073500	-9.149700	28.737663	0.000247	20.876603
2161.557556	-2.997200	3.072400	-9.207500	28.754556	0.000250	20.895041
2162.558617	-3.003900	3.071900	-9.226700	28.776462	0.000247	20.896718
2163.553154	-3.009000	3.070500	-9.238200	28.800096	0.000248	20.875482
2164.558581	-2.973500	3.070100	-9.127000	28.828138	0.000245	20.886185
2165.553614	-3.018900	3.069300	-9.265100	28.861285	0.000247	20.886386
2166.556998	-3.021600	3.067600	-9.267300	28.872434	0.000245	20.914210
2167.557149	-2.984700	3.067300	-9.152800	28.838082	0.000245	20.897624
2168.561405	-2.996000	3.067100	-9.187400	28.821730	0.000244	20.889688
2169.558880	-3.012100	3.065300	-9.231500	28.826588	0.000246	20.896951
2170.555809	-2.972200	3.063900	-9.106000	28.825622	0.000243	20.903090
2171.558416	-2.969800	3.065600	-9.103300	28.832560	0.000242	20.901544
2172.554550	-3.006500	3.063000	-9.208600	28.875911	0.000244	20.878836
2173.563517	-2.982000	3.062200	-9.130200	28.911685	0.000242	20.897330
2174.558794	-3.004600	3.060500	-9.194900	28.962563	0.000240	20.890742
2175.559654	-2.989500	3.060700	-9.148700	28.991570	0.000242	20.890094
2176.559264	-3.023800	3.058900	-9.247800	29.015669	0.000242	20.914373
2177.559341	-2.993100	3.058500	-9.153300	29.032614	0.000239	20.899205
2178.562943	-3.007100	3.057500	-9.193300	29.066075	0.000240	20.902099
2179.555702	-2.999200	3.055100	-9.161400	29.029520	0.000241	20.906993
2180.556416	-2.976700	3.056500	-9.096800	29.066251	0.000239	20.905595
2181.558345	-3.004700	3.054900	-9.178200	29.086907	0.000239	20.915976
2182.563585	-3.010500	3.053300	-9.190800	29.129880	0.000241	20.893371
2183.564424	-3.002100	3.053700	-9.166000	29.111897	0.000239	20.916025
2184.565958	-2.999900	3.051900	-9.154200	29.123264	0.000239	20.908988
2185.558454	-2.983600	3.051800	-9.104100	29.136443	0.000238	20.929852
2186.559967	-3.013600	3.048700	-9.186600	29.156978	0.000236	20.895547
2187.561570	-2.997600	3.049600	-9.140200	29.141717	0.000238	20.907194
2188.559793	-3.015600	3.047800	-9.189600	29.090700	0.000237	20.909367
2189.565168	-3.021300	3.046700	-9.203600	29.012954	0.000236	20.917327
2190.559092	-3.010500	3.046400	-9.170200	28.916672	0.000235	20.918000
2191.561204	-2.993000	3.045000	-9.112500	28.939734	0.000235	20.911362
2192.559242	-2.995100	3.043500	-9.113700	28.914818	0.000235	20.928932
2193.560232	-3.005300	3.042000	-9.141700	28.938473	0.000236	20.908196
2194.562434	-2.966000	3.043800	-9.026800	28.937827	0.000236	20.925561
2195.561976	-3.000000	3.041300	-9.123100	28.931213	0.000237	20.923639
2196.559976	-3.008600	3.040000	-9.144500	28.932474	0.000236	20.911161
2197.560781	-2.995200	3.038600	-9.100400	28.971217	0.000235	20.895667
2198.560853	-3.034900	3.036400	-9.212700	28.987914	0.000235	20.915806
2199.562817	-3.013600	3.035500	-9.146400	28.993881	0.000235	20.899060
2200.562498	-3.010600	3.034700	-9.135700	29.015754	0.000233	20.912562
2201.565621	-2.974900	3.034000	-9.024600	29.018978	0.000234	20.934774
2202.569381	-3.013100	3.031700	-9.133900	29.058827	0.000235	20.895745
2203.567213	-2.995900	3.032500	-9.084200	29.054764	0.000232	20.920098
2204.570891	-2.999400	3.031000	-9.090000	29.040674	0.000232	20.907325
2205.572115	-2.999500	3.029900	-9.085500	29.064499	0.000234	20.887710
2206.565483	-2.999900	3.029300	-9.086500	29.066111	0.000234	20.921099
2207.569817	-3.001400	3.027900	-9.087100	29.066058	0.000232	20.907297
2208.570003	-2.980400	3.027200	-9.020400	29.046318	0.000232	20.915856
2209.570042	-2.983200	3.025700	-9.025100	29.015806	0.000230	20.902184
2210.573718	-2.981600	3.024500	-9.015900	29.024544	0.000230	20.911461
2211.574596	-2.990500	3.023100	-9.038500	28.998394	0.000230	20.902658
2212.572107	-3.015300	3.021100	-9.108600	28.974487	0.000230	20.891375
2213.571318	-3.000200	3.020700	-9.062000	28.862325	0.000229	20.891701
2214.572474	-2.996700	3.019400	-9.047100	28.883059	0.000231	20.913535
2215.574337	-2.999300	3.018600	-9.052700	28.913455	0.000228	20.893424
2216.576213	-3.031900	3.016900	-9.145600	28.928291	0.000230	20.904576
2217.569074	-2.984900	3.016600	-9.002800	28.960270	0.000228	20.900284
2218.572599	-3.002200	3.015300	-9.051000	28.943699	0.000228	20.920572
2219.577710	-2.990000	3.014100	-9.011700	28.980904	0.000229	20.907796
2220.572926	-3.014300	3.012700	-9.079900	29.003395	0.000229	20.881620
2221.575862	-3.004100	3.010800	-9.044000	29.018970	0.000227	20.903002
2222.570421	-2.986400	3.010700	-8.990300	29.051122	0.000227	20.896516
2223.575814	-2.991200	3.008700	-8.998900	29.106155	0.000228	20.890328
2224.579266	-3.004200	3.008600	-9.038000	29.122228	0.000226	20.874282
2225.574238	-2.972800	3.007900	-8.941000	29.109298	0.000227	20.884486
2226.574848	-3.007300	3.005400	-9.037000	29.130175	0.000227	20.884660
2227.576474	-2.973700	3.004000	-8.932600	29.151276	0.000227	20.856612
2228.578350	-3.003900	3.003200	-9.020300	29.113656	0.000226	20.891248
2229.575893	-3.022500	2.999900	-9.066300	29.063926	0.000226	20.892348
2230.576497	-2.988300	3.000000	-8.963900	29.006882	0.000228	20.880393
2231.577774	-3.004700	2.998800	-9.008500	29.002499	0.000226	20.883563
2232.582085	-3.028200	2.996200	-9.071700	28.937974	0.000228	20.884936
2233.578413	-3.002400	2.995700	-8.993400	28.909486	0.000226	20.876624
2234.579601	-2.969400	2.995800	-8.895100	28.898240	0.000224	20.870510
2235.576980	-3.002300	2.993300	-8.986100	28.927641	0.000226	20.875475
2236.578781	-3.000100	2.993400	-8.979200	28.965787	0.000227	20.890671
2237.582189	-2.991400	2.990100	-8.942300	28.997790	0.000225	20.863172
2238.580038	-2.999900	2.990100	-8.967800	29.043161	0.000225	20.869056
2239.578561	-2.982800	2.987400	-8.909900	29.067533	0.000225	20.868957
2240.574586	-3.016600	2.987200	-9.009100	29.096758	0.000225	20.878015
2241.578995	-2.987900	2.986300	-8.921900	29.127811	0.000226	20.874219
2242.576404	-2.987100	2.984500	-8.914200	29.142767	0.000225	20.888339
2243.584166	-3.008800	2.983800	-8.976500	29.178974	0.000223	20.878832
2244.579536	-3.002100	2.982900	-8.952300	29.198540	0.000225	20.874841
2245.575136	-2.999900	2.980800	-8.940700	29.218867	0.000224	20.864032
2246.581467	-3.006400	2.977400	-8.949600	29.260763	0.000223	20.880647
2247.579529	-2.984500	2.977800	-8.886400	29.270668	0.000224	20.864078
2248.578333	-2.994600	2.975300	-8.908500	29.274825	0.000224	20.881069
2249.582097	-2.991400	2.975200	-8.898800	29.263207	0.000225	20.865094
2250.579882	-2.991800	2.974100	-8.897400	29.275415	0.000224	20.864595
2251.581137	-2.975300	2.972300	-8.842900	29.241613	0.000226	20.871307
2252.582137	-2.970500	2.972500	-8.827700	29.195422	0.000225	20.853683
2253.577911	-2.980600	2.968800	-8.847700	29.159068	0.000225	20.884851
2254.583276	-2.992300	2.967600	-8.878700	29.163626	0.000224	20.875694
2255.595734	-3.019200	2.965900	-8.953800	29.143859	0.000222	20.866682
2256.586168	-3.005800	2.965100	-8.910900	29.142890	0.000225	20.869499
2257.583673	-3.011600	2.964200	-8.926400	29.158885	0.000222	20.862383
2258.583003	-3.010600	2.962500	-8.917100	29.179364	0.000223	20.867372
2259.588206	-3.007600	2.960900	-8.903700	29.236167	0.000221	20.862974
2260.586900	-3.032300	2.957800	-8.967900	29.210960	0.000224	20.844211
2261.585648	-2.993200	2.956700	-8.848800	29.183620	0.000222	20.866920
2262.584933	-3.004400	2.957200	-8.883600	29.112118	0.000222	20.862674
2263.585278	-2.958800	2.956200	-8.745600	29.070582	0.000218	20.860650
2264.582201	-2.995200	2.951700	-8.840100	29.042494	0.000222	20.874548
2265.588653	-2.994200	2.952100	-8.838700	28.999076	0.000221	20.863045
2266.584167	-3.000400	2.949500	-8.849200	29.005762	0.000224	20.857455
2267.589384	-2.989800	2.949400	-8.817600	29.038108	0.000221	20.860172
2268.587173	-2.991500	2.947500	-8.817100	29.055021	0.000223	20.862515
2269.586594	-3.017300	2.944000	-8.882100	29.046006	0.000222	20.841104
2270.590915	-3.002100	2.943600	-8.835300	29.017029	0.000222	20.848418
2271.584486	-2.980300	2.942300	-8.767400	28.986808	0.000222	20.848316
2272.586926	-3.019700	2.939800	-8.876600	28.940019	0.000222	20.861867
2273.584348	-2.990000	2.939000	-8.786900	28.928474	0.000219	20.852608
2274.584555	-3.004900	2.937000	-8.823800	28.873063	0.000220	20.857476
2275.585313	-2.996200	2.936200	-8.794200	28.826487	0.000222	20.840429
2276.585691	-3.023700	2.934000	-8.870200	28.812563	0.000221	20.842998
2277.584364	-2.975100	2.934600	-8.729700	28.833154	0.000219	20.855205
2278.584291	-3.018700	2.930300	-8.845300	28.910439	0.000220	20.836335
2279.593821	-2.990600	2.929300	-8.759900	28.938678	0.000222	20.867153
2280.593700	-2.989600	2.926700	-8.748700	28.960948	0.000221	20.866357
2281.587120	-3.000300	2.925500	-8.776500	28.990745	0.000221	20.853230
2282.587249	-2.997900	2.923200	-8.762900	29.036345	0.000221	20.836112
2283.588314	-3.002500	2.923700	-8.777700	29.058659	0.000221	20.860965
2284.588640	-2.986200	2.921100	-8.720200	29.013949	0.000220	20.878978
2285.590938	-3.016000	2.918100	-8.799300	28.987300	0.000219	20.850708
2286.592272	-3.003800	2.917300	-8.761400	28.931095	0.000219	20.848609
2287.590618	-3.001900	2.915900	-8.752400	28.889379	0.000218	20.855421
2288.590269	-2.990300	2.915000	-8.716100	28.827148	0.000221	20.838723
2289.590557	-3.018600	2.913100	-8.793000	28.778293	0.000219	20.839771
2290.592257	-3.019800	2.908900	-8.782300	28.768531	0.000219	20.856015
2291.594841	-3.021100	2.907800	-8.782200	28.798183	0.000219	20.863598
2292.593606	-3.017500	2.905700	-8.766800	28.842501	0.000220	20.841862
2293.590414	-3.006800	2.906300	-8.737800	28.897640	0.000217	20.844778
2294.590356	-3.000400	2.904200	-8.712300	28.940663	0.000218	20.860619
2295.590277	-2.985000	2.901400	-8.660000	28.954662	0.000219	20.832999
2296.591396	-2.970900	2.900900	-8.617600	28.962041	0.000217	20.829053
2297.591654	-2.988200	2.898700	-8.659900	29.003775	0.000219	20.842651
2298.591169	-2.998400	2.895800	-8.681500	29.075924	0.000221	20.837110
2299.596613	-2.994000	2.894400	-8.665100	29.074410	0.000220	20.845068
2300.593017	-2.969900	2.894000	-8.593400	29.082586	0.000220	20.855676
2301.594693	-2.998500	2.889600	-8.663400	29.088528	0.000220	20.854077
2302.598359	-3.052700	2.887900	-8.814100	29.085329	0.000221	20.842319
2303.598206	-2.987200	2.887400	-8.625100	29.091667	0.000219	20.833533
2304.594724	-3.004300	2.886000	-8.669000	29.124038	0.000218	20.851451
2305.601760	-2.995800	2.883100	-8.636000	29.109054	0.000216	20.824500
2306.595721	-3.010000	2.881300	-8.670400	29.138969	0.000219	20.832833
2307.601087	-2.991400	2.880700	-8.616300	29.157816	0.000219	20.831435
2308.592752	-2.993700	2.878200	-8.616100	29.212892	0.000218	20.834305
2309.599982	-2.995700	2.875500	-8.611800	29.242605	0.000220	20.836272
2310.597249	-3.009900	2.873700	-8.648200	29.188573	0.000217	20.824022
2311.598732	-2.998900	2.871300	-8.609500	29.220691	0.000218	20.848327
2312.602422	-3.017500	2.868600	-8.655400	29.195627	0.000220	20.825441
2313.602702	-3.000500	2.867500	-8.602600	29.159944	0.000216	20.839743
2314.598709	-2.980600	2.866700	-8.542800	29.152166	0.000218	20.860828
2315.604395	-3.036700	2.862900	-8.692200	29.157166	0.000217	20.840264
2316.600127	-3.016600	2.862200	-8.633300	29.178569	0.000217	20.827692
2317.596705	-2.993700	2.860400	-8.561500	29.180026	0.000217	20.840540
2318.600942	-2.989100	2.858000	-8.541400	29.259792	0.000217	20.845532
2319.599628	-3.006200	2.855500	-8.583500	29.295353	0.000218	20.829213
2320.605569	-3.009500	2.852400	-8.583300	29.319544	0.000216	20.826092
2321.600478	-2.999700	2.852000	-8.553900	29.239385	0.000216	20.842510
2322.596948	-3.036600	2.848900	-8.650100	29.205066	0.000216	20.848702
2323.602552	-3.017000	2.847400	-8.589000	29.125495	0.000218	20.833955
2324.597561	-2.984100	2.846900	-8.493800	29.077747	0.000216	20.839895
2325.602513	-2.991000	2.842800	-8.501600	29.115593	0.000217	20.828718
2326.599064	-3.021400	2.840300	-8.580500	29.125053	0.000216	20.834457
2327.604467	-3.008700	2.837800	-8.536200	29.122630	0.000218	20.816369
2328.605548	-2.986000	2.836900	-8.469600	29.116762	0.000218	20.831792
2329.606928	-2.990700	2.834300	-8.475100	29.175903	0.000216	20.810781
2330.604762	-2.998300	2.833200	-8.492700	29.209160	0.000218	20.822957
2331.605971	-2.985500	2.829700	-8.447000	29.194721	0.000216	20.824054
2332.605861	-3.008100	2.828400	-8.506800	29.114486	0.000218	20.827603
2333.603345	-2.999000	2.826800	-8.476100	29.160203	0.000217	20.812979
2334.607530	-3.025600	2.824000	-8.543100	29.177764	0.000215	20.818346
2335.601983	-3.004500	2.819000	-8.468400	29.195272	0.000215	20.815126
2336.604687	-2.980700	2.819100	-8.401900	29.219988	0.000214	20.813481
2337.605746	-3.007100	2.815200	-8.464900	29.220533	0.000216	20.822090
2338.604096	-3.028700	2.812500	-8.516900	29.270508	0.000217	20.797063
2339.601848	-2.999700	2.811700	-8.432800	29.310351	0.000216	20.810664
2340.603492	-3.026600	2.807600	-8.496900	29.337315	0.000215	20.818874
2341.604779	-2.993200	2.807200	-8.401900	29.357468	0.000216	20.839658
2342.602530	-3.000400	2.804400	-8.413400	29.374257	0.000213	20.827656
2343.603801	-3.032300	2.800100	-8.490100	29.369805	0.000216	20.810367
2344.604501	-3.002900	2.800300	-8.407600	29.294555	0.000215	20.824616
2345.605724	-3.002700	2.796200	-8.394200	29.271277	0.000216	20.835769
2346.606632	-3.000500	2.793600	-8.381800	29.273457	0.000216	20.814734
2347.608825	-3.007700	2.790600	-8.391900	29.307528	0.000217	20.796914
2348.607674	-2.983200	2.789500	-8.320300	29.376117	0.000216	20.818152
2349.606557	-3.011500	2.786300	-8.389200	29.397859	0.000216	20.788383
2350.609123	-3.051600	2.782500	-8.489300	29.423708	0.000218	20.793099
2351.605974	-3.007600	2.781800	-8.365400	29.443736	0.000216	20.792424
2352.610560	-2.997500	2.778200	-8.327000	29.478522	0.000214	20.790028
2353.606592	-2.983200	2.776200	-8.280800	29.496249	0.000215	20.817854
2354.608168	-3.004200	2.772400	-8.327300	29.508427	0.000215	20.810689
2355.609196	-3.021300	2.769500	-8.365500	29.488849	0.000215	20.801386
2356.616953	-3.012900	2.765300	-8.330800	29.502691	0.000217	20.793053
2357.611945	-2.995400	2.765100	-8.281500	29.547770	0.000216	20.805778
2358.615157	-2.998600	2.761800	-8.279800	29.581064	0.000215	20.818003
2359.608425	-2.993800	2.759200	-8.259700	29.620776	0.000216	20.823424
2360.608193	-3.005700	2.755300	-8.279900	29.653843	0.000218	20.806025
2361.616131	-2.980300	2.752000	-8.200400	29.666893	0.000215	20.791206
2362.608173	-3.002600	2.749100	-8.253000	29.684813	0.000214	20.801687
2363.612057	-2.990000	2.746700	-8.211200	29.727688	0.000216	20.800343
2364.609387	-2.975900	2.743500	-8.163700	29.728432	0.000215	20.804886
2365.607808	-3.006000	2.739100	-8.232500	29.721451	0.000216	20.801641
2366.611009	-3.025900	2.735000	-8.274400	29.669202	0.000215	20.807285
2367.617252	-2.958700	2.733900	-8.087900	29.682469	0.000215	20.773245
2368.613024	-3.015000	2.730100	-8.229600	29.676748	0.000215	20.794978
2369.612249	-2.977200	2.727500	-8.119000	29.702022	0.000216	20.797699
2370.621637	-2.990000	2.724100	-8.143200	29.724003	0.000216	20.794256
2371.617469	-3.004000	2.720100	-8.168200	29.791750	0.000215	20.782905
2372.617269	-2.977700	2.717900	-8.091900	29.819270	0.000217	20.800222
2373.614244	-2.973100	2.714400	-8.068700	29.824594	0.000214	20.796107
2374.614838	-2.967400	2.711700	-8.045800	29.871817	0.000215	20.797257
2375.616853	-2.999400	2.705800	-8.115100	29.883054	0.000214	20.785827
2376.615853	-2.998700	2.702200	-8.102000	29.923885	0.000216	20.781482
2377.615161	-2.973400	2.699600	-8.025600	29.911859	0.000213	20.789745
2378.615443	-2.982100	2.694700	-8.035500	29.890724	0.000215	20.792140
2379.614341	-2.974100	2.692300	-8.006400	29.866104	0.000216	20.806669
2380.620029	-2.988700	2.689400	-8.036200	29.880309	0.000213	20.785431
2381.621922	-3.022600	2.682700	-8.107200	29.920056	0.000214	20.792320
2382.618364	-2.994700	2.680700	-8.026000	29.913200	0.000214	20.799157
2383.630140	-2.988500	2.677700	-8.001200	29.894293	0.000215	20.790997
2384.620112	-3.001500	2.672800	-8.021800	29.914245	0.000216	20.782667
2385.624926	-3.049800	2.667100	-8.132900	29.890142	0.000216	20.769267
2386.617394	-3.007500	2.664400	-8.011200	29.898483	0.000217	20.806127
2387.620780	-2.994200	2.661700	-7.968400	29.897567	0.000215	20.786238
2388.625138	-3.019800	2.655900	-8.018100	29.881236	0.000215	20.766450
2389.619771	-3.006600	2.652200	-7.973400	29.892917	0.000214	20.778230
2390.623670	-3.037900	2.647300	-8.041200	29.955110	0.000215	20.788315
2391.626561	-3.031600	2.642400	-8.010400	29.946008	0.000215	20.774394
2392.622615	-2.979200	2.640400	-7.864600	29.919652	0.000215	20.762989
2393.624008	-3.008100	2.634000	-7.922000	29.851323	0.000215	20.777066
2394.623133	-2.976200	2.630900	-7.829500	29.820242	0.000216	20.767062
2395.620121	-2.995500	2.625900	-7.864900	29.862216	0.000215	20.778566
2396.622818	-3.003000	2.619700	-7.865500	29.886446	0.000214	20.789723
2397.623952	-3.032000	2.614600	-7.924700	29.909118	0.000215	20.797886
2398.628081	-2.994600	2.610000	-7.815700	29.878428	0.000215	20.787327
2399.628026	-3.049700	2.604600	-7.943000	29.816683	0.000215	20.761103
2400.620415	-3.017100	2.600000	-7.842300	29.744684	0.000216	20.771959
2401.622894	-2.998000	2.597500	-7.785900	29.724662	0.000216	20.783067
2402.625515	-3.024100	2.589800	-7.831100	29.680685	0.000215	20.783300
2403.621793	-2.997300	2.584900	-7.747100	29.716575	0.000214	20.790087
2404.632542	-3.017600	2.579400	-7.781900	29.743631	0.000215	20.772320
2405.626297	-3.009900	2.572800	-7.742000	29.734099	0.000214	20.764132
2406.623829	-3.000200	2.568900	-7.706100	29.729575	0.000214	20.771425
2407.629007	-3.032300	2.560500	-7.763800	29.693260	0.000215	20.771322
2408.624280	-3.011100	2.556000	-7.695600	29.629743	0.000217	20.782678
2409.625480	-3.021000	2.550300	-7.703400	29.533124	0.000215	20.784376
2410.624681	-2.991700	2.544800	-7.612600	29.495637	0.000215	20.769348
2411.630192	-2.966200	2.539300	-7.531000	29.540994	0.000213	20.773343
2412.628970	-2.947200	2.533700	-7.466400	29.604443	0.000215	20.773293
2413.627201	-2.935100	2.529400	-7.422700	29.661651	0.000214	20.771223
2414.630089	-2.979800	2.521900	-7.513700	29.764993	0.000215	20.768729
2415.628227	-2.982200	2.513300	-7.494500	29.834026	0.000214	20.780487
2416.629651	-3.005700	2.506200	-7.531700	29.834419	0.000216	20.762391
2417.627038	-2.984500	2.501500	-7.465000	29.802818	0.000215	20.751390
2418.633559	-2.986900	2.494100	-7.448500	29.738212	0.000217	20.774918
