LabVIEW Measurement	
Writer_Version	2
Reader_Version	2
Separator	Tab
Decimal_Separator	.
Multi_Headings	No
X_Columns	One
Time_Pref	Absolute
Operator	admin
Description	Clolumns are: time, Current, Voltage, Power, Battery Temp, and Chamber Temp
Date	2024/08/16
Time	13:06:06.104549407958984375
***End_of_Header***	
	
Channels	6						
Samples	1	1	1	1	1	1	
Date	2024/08/22	2024/08/22	2024/08/22	2024/08/22	2024/08/22	2024/08/22	
Time	22:23:20.1114048957824707031	22:23:20.1174054145812988281	22:23:20.1233673095703125	22:23:20.0800585746765136719	22:23:20.0800585746765136719	22:23:20.0800585746765136719	
X_Dimension	Time	Time	Time	Time	Time	Time	
X0	0.0000000000000000E+0	0.0000000000000000E+0	0.0000000000000000E+0	0.0000000000000000E+0	0.0000000000000000E+0	0.0000000000000000E+0	
Delta_X	1.000000	1.000000	1.000000	1.000000	1.000000	1.000000	
***End_of_Header***							
X_Value	Untitled	Untitled 1	Untitled 2	Untitled 3	Untitled 4	Untitled 5	Comment
0.000000	0.018588	4.105400	0.076231	21.078751	0.000982	20.825113
1.009561	-2.990600	3.951100	-11.815000	21.075383	0.000981	20.789028
2.004169	-3.011300	3.944500	-11.877000	21.098610	0.000980	20.790449
3.017230	-3.011600	3.938200	-11.859000	21.099234	0.000977	20.818100
4.014368	-3.004900	3.935900	-11.826000	21.089029	0.000979	20.786082
5.013766	-2.980500	3.934000	-11.724000	21.095066	0.000976	20.804449
6.002811	-3.004400	3.927900	-11.799000	21.098485	0.000976	20.796962
7.018901	-3.018500	3.926900	-11.851000	21.086409	0.000976	20.806220
8.013506	-3.000300	3.924500	-11.774000	21.090301	0.000975	20.794940
9.010012	-2.984700	3.922700	-11.708000	21.085860	0.000976	20.797136
10.013666	-3.011300	3.920300	-11.805000	21.104896	0.000973	20.793892
11.015574	-3.004600	3.919700	-11.775000	21.112330	0.000973	20.798958
12.016216	-3.024800	3.916400	-11.846000	21.082665	0.000973	20.805321
13.006486	-3.014100	3.915600	-11.801000	21.096162	0.000971	20.803174
14.010233	-2.994600	3.914400	-11.721000	21.097859	0.000971	20.809613
15.007577	-3.003100	3.914600	-11.756000	21.115522	0.000973	20.786978
16.010919	-2.993100	3.913100	-11.712000	21.104870	0.000971	20.798133
17.019613	-3.005800	3.911200	-11.755000	21.102225	0.000969	20.813505
18.007786	-3.004200	3.911500	-11.750000	21.117020	0.000967	20.786579
19.009814	-2.997100	3.909300	-11.716000	21.118939	0.000966	20.800827
20.012713	-2.985000	3.908200	-11.664000	21.125875	0.000968	20.800178
21.009714	-3.012300	3.907500	-11.770000	21.134133	0.000967	20.793266
22.012154	-3.003200	3.906600	-11.731000	21.132086	0.000965	20.799278
23.022552	-3.008700	3.906400	-11.752000	21.126374	0.000968	20.791668
24.014549	-2.974800	3.904600	-11.615000	21.151296	0.000965	20.810434
25.016682	-2.992900	3.905200	-11.687000	21.133084	0.000965	20.797906
26.012430	-2.986500	3.904800	-11.661000	21.170931	0.000965	20.794513
27.009702	-3.003800	3.902400	-11.721000	21.174024	0.000967	20.792391
28.011580	-2.998400	3.902300	-11.699000	21.162723	0.000965	20.778716
29.009184	-2.995800	3.901600	-11.688000	21.154264	0.000964	20.776419
30.017035	-2.988900	3.901400	-11.660000	21.179911	0.000962	20.803496
31.014762	-2.991600	3.899800	-11.666000	21.167761	0.000962	20.789445
32.013539	-2.989000	3.900900	-11.659000	21.161124	0.000960	20.785178
33.010620	-2.992800	3.900000	-11.672000	21.206827	0.000960	20.789170
34.015639	-3.016700	3.897700	-11.756000	21.190212	0.000959	20.787248
35.011861	-3.014600	3.897200	-11.748000	21.197397	0.000959	20.772624
36.009846	-2.989300	3.896900	-11.647000	21.198469	0.000959	20.773697
37.014226	-2.993200	3.898000	-11.667000	21.213613	0.000958	20.777940
38.009637	-3.007900	3.895800	-11.717000	21.218128	0.000959	20.769654
39.019037	-3.014900	3.894900	-11.742000	21.209296	0.000958	20.774096
40.009573	-3.002100	3.896500	-11.696000	21.206078	0.000958	20.786998
41.031444	-2.989400	3.894900	-11.642000	21.216930	0.000959	20.785526
42.018057	-3.020600	3.893500	-11.758000	21.220322	0.000958	20.778488
43.017645	-3.007800	3.894100	-11.711000	21.243447	0.000958	20.793561
44.014674	-2.988700	3.894700	-11.639000	21.226309	0.000956	20.783529
45.016784	-3.024400	3.893000	-11.773000	21.252702	0.000956	20.771051
46.016832	-3.010000	3.891700	-11.713000	21.251106	0.000956	20.788421
47.019451	-3.022800	3.892300	-11.765000	21.265549	0.000956	20.777265
48.020025	-3.019900	3.891700	-11.750000	21.264552	0.000955	20.771052
49.016004	-3.021000	3.891600	-11.756000	21.266323	0.000954	20.791316
50.017137	-2.996900	3.892100	-11.663000	21.276376	0.000954	20.791416
51.026790	-2.977100	3.893000	-11.589000	21.264752	0.000956	20.785951
52.019954	-3.003200	3.891200	-11.686000	21.280668	0.000956	20.784804
53.022608	-2.998500	3.890900	-11.666000	21.283835	0.000952	20.777541
54.013060	-2.989700	3.890700	-11.631000	21.273758	0.000955	20.776469
55.020801	-2.994500	3.890200	-11.648000	21.300524	0.000955	20.793288
56.014860	-2.975700	3.889200	-11.572000	21.298379	0.000954	20.764590
57.015034	-3.015800	3.888000	-11.723000	21.309130	0.000953	20.782458
58.016982	-3.000100	3.889700	-11.668000	21.320131	0.000952	20.772602
59.019803	-2.985900	3.889300	-11.613000	21.321703	0.000951	20.785080
60.012335	-3.003000	3.887700	-11.673000	21.311624	0.000953	20.770729
61.029076	-2.999000	3.888600	-11.661000	21.328812	0.000952	20.765639
62.014768	-3.011000	3.886700	-11.702000	21.355003	0.000951	20.781412
63.014465	-3.000700	3.886900	-11.663000	21.347146	0.000953	20.769757
64.022455	-2.994300	3.888300	-11.642000	21.343954	0.000952	20.763245
65.017388	-2.980400	3.888000	-11.586000	21.358022	0.000952	20.774474
66.025455	-2.995900	3.887000	-11.643000	21.353907	0.000951	20.799281
67.026484	-3.004400	3.885300	-11.672000	21.390823	0.000952	20.780265
68.022764	-3.014700	3.884500	-11.710000	21.389699	0.000952	20.777244
69.020960	-2.977200	3.885900	-11.567000	21.387556	0.000952	20.782686
70.024187	-2.977800	3.885500	-11.569000	21.396884	0.000950	20.776372
71.024637	-2.995000	3.885400	-11.635000	21.408857	0.000949	20.766540
72.019580	-3.009700	3.884800	-11.692000	21.412399	0.000950	20.779093
73.033324	-2.993600	3.885800	-11.632000	21.422102	0.000950	20.791172
74.023427	-3.003300	3.883200	-11.662000	21.414795	0.000951	20.792870
75.027343	-2.986000	3.885500	-11.601000	21.426367	0.000949	20.765093
76.031599	-2.991600	3.884100	-11.619000	21.428638	0.000950	20.790125
77.024386	-2.977200	3.884300	-11.563000	21.451608	0.000948	20.775650
78.041937	-3.011500	3.882800	-11.692000	21.455526	0.000947	20.780992
79.024677	-2.981800	3.883600	-11.580000	21.455276	0.000949	20.776000
80.026576	-3.000200	3.883800	-11.651000	21.448790	0.000948	20.782313
81.020692	-2.997100	3.882900	-11.637000	21.468744	0.000951	20.784261
82.028326	-3.013200	3.882700	-11.698000	21.462210	0.000947	20.796689
83.026952	-2.995700	3.880600	-11.624000	21.467723	0.000948	20.791774
84.039977	-2.998200	3.882400	-11.639000	21.477374	0.000948	20.789103
85.034264	-3.000500	3.881200	-11.644000	21.475304	0.000946	20.783712
86.031667	-3.002700	3.881300	-11.653000	21.499322	0.000949	20.779296
87.038581	-2.996600	3.882600	-11.634000	21.500519	0.000949	20.774329
88.026295	-3.024100	3.880200	-11.733000	21.491464	0.000951	20.773803
89.028009	-2.999900	3.882200	-11.645000	21.506529	0.000949	20.774653
90.045757	-3.011900	3.879100	-11.682000	21.501391	0.000949	20.794168
91.027771	-2.984600	3.881500	-11.582000	21.516206	0.000949	20.800932
92.028958	-3.005700	3.879600	-11.659000	21.528001	0.000949	20.777647
93.028329	-3.004900	3.880900	-11.660000	21.532416	0.000948	20.788703
94.037757	-3.038000	3.879200	-11.783000	21.531096	0.000949	20.790226
95.029828	-3.017900	3.877300	-11.700000	21.558554	0.000949	20.775028
96.033389	-3.019600	3.879200	-11.712000	21.559252	0.000949	20.774778
97.020901	-3.012500	3.878100	-11.682000	21.562270	0.000950	20.774005
98.035627	-3.010100	3.877700	-11.671000	21.579228	0.000949	20.782914
99.032367	-3.005000	3.878500	-11.653000	21.560174	0.000948	20.779969
100.019747	-2.993800	3.879200	-11.612000	21.590300	0.000946	20.784036
101.031568	-3.019500	3.877200	-11.705000	21.587184	0.000947	20.783763
102.036157	-2.990200	3.878100	-11.596000	21.616685	0.000950	20.782465
103.033216	-3.007900	3.877500	-11.662000	21.599552	0.000949	20.787131
104.029786	-2.998400	3.877400	-11.624000	21.603393	0.000948	20.783388
105.038507	-3.002800	3.876600	-11.638000	21.628080	0.000951	20.802877
106.025923	-2.987100	3.877800	-11.582000	21.637008	0.000948	20.796164
107.028718	-3.006200	3.878700	-11.659000	21.638878	0.000949	20.781440
108.024253	-2.986000	3.878900	-11.582000	21.631371	0.000949	20.782936
109.035193	-3.008000	3.876500	-11.660000	21.654763	0.000949	20.780742
110.034630	-3.005400	3.875900	-11.647000	21.642020	0.000949	20.787429
111.033029	-2.999700	3.875300	-11.624000	21.655885	0.000948	20.791347
112.034482	-2.978600	3.876100	-11.544000	21.677130	0.000951	20.780366
113.024768	-3.015500	3.875600	-11.685000	21.683041	0.000948	20.783911
114.046974	-3.006300	3.874900	-11.647000	21.665012	0.000949	20.789576
115.043947	-3.007000	3.875500	-11.653000	21.679500	0.000948	20.776099
116.034868	-2.988800	3.875500	-11.582000	21.652642	0.000949	20.799008
117.030485	-2.991400	3.875500	-11.592000	21.671894	0.000949	20.767065
118.031149	-3.009700	3.874200	-11.659000	21.685060	0.000949	20.799682
119.027472	-3.008400	3.874200	-11.654000	21.650946	0.000951	20.784508
120.035035	-2.994500	3.873500	-11.598000	21.702640	0.000951	20.785507
121.037922	-3.004900	3.873700	-11.639000	21.685110	0.000951	20.785982
122.043182	-3.005100	3.873600	-11.640000	21.705008	0.000951	20.796886
123.043447	-3.007600	3.872500	-11.646000	21.697529	0.000950	20.812634
124.044644	-2.985000	3.873700	-11.562000	21.704161	0.000950	20.805521
125.045554	-3.002200	3.873600	-11.628000	21.703239	0.000950	20.804124
126.043335	-2.979100	3.872700	-11.536000	21.716205	0.000952	20.812359
127.033209	-3.008400	3.873000	-11.650000	21.723736	0.000951	20.822267
128.045500	-2.992100	3.873000	-11.587000	21.747949	0.000950	20.798136
129.039013	-3.006700	3.871300	-11.639000	21.744657	0.000951	20.803850
130.037868	-2.981600	3.873200	-11.547000	21.761064	0.000952	20.810313
131.045035	-3.007200	3.872800	-11.645000	21.757774	0.000951	20.801805
132.037721	-3.018000	3.870800	-11.682000	21.767348	0.000952	20.789102
133.045478	-2.996800	3.871600	-11.602000	21.773008	0.000952	20.809939
134.039384	-2.997700	3.871000	-11.603000	21.785874	0.000952	20.793893
135.040017	-2.989600	3.870700	-11.571000	21.783182	0.000952	20.813009
136.043207	-3.013800	3.871900	-11.668000	21.774230	0.000953	20.799309
137.041956	-3.008700	3.869500	-11.641000	21.785400	0.000953	20.794367
138.042377	-3.009400	3.869900	-11.645000	21.796720	0.000954	20.811387
139.041442	-3.016600	3.868300	-11.668000	21.786349	0.000955	20.810964
140.045276	-2.997700	3.869900	-11.599000	21.807217	0.000953	20.814781
141.042763	-3.000400	3.870900	-11.614000	21.814050	0.000955	20.827309
142.046767	-3.017300	3.869900	-11.675000	21.827863	0.000955	20.814108
143.043625	-3.002500	3.869500	-11.616000	21.838135	0.000954	20.808742
144.034307	-2.995800	3.868700	-11.589000	21.849705	0.000954	20.807995
145.042216	-3.000600	3.870000	-11.612000	21.857010	0.000954	20.794444
146.052030	-2.991800	3.870000	-11.578000	21.872918	0.000956	20.815581
147.045212	-3.016700	3.867500	-11.666000	21.857659	0.000956	20.802205
148.048822	-3.014200	3.867200	-11.655000	21.867109	0.000956	20.809768
149.038867	-3.011600	3.869200	-11.650000	21.870375	0.000957	20.817304
150.047205	-2.985200	3.867800	-11.546000	21.881644	0.000955	20.800609
151.048541	-2.999700	3.866700	-11.599000	21.882817	0.000955	20.799411
152.046127	-2.988200	3.868300	-11.558000	21.874714	0.000955	20.820224
153.056907	-3.011100	3.867200	-11.644000	21.882618	0.000956	20.814385
154.048603	-3.003100	3.868200	-11.616000	21.896131	0.000955	20.818428
155.046715	-2.988800	3.868200	-11.560000	21.904459	0.000956	20.809695
156.044960	-3.025500	3.867500	-11.700000	21.915678	0.000956	20.831830
157.047711	-2.990500	3.868600	-11.568000	21.918371	0.000959	20.805128
158.046456	-2.989600	3.866500	-11.558000	21.922436	0.000957	20.818680
159.044829	-2.996800	3.868900	-11.593000	21.943853	0.000959	20.817359
160.049235	-3.012000	3.865300	-11.641000	21.957638	0.000958	20.806502
161.051968	-2.977100	3.867600	-11.512000	21.935875	0.000962	20.827865
162.046842	-3.001200	3.866900	-11.605000	21.972997	0.000958	20.804807
163.043049	-3.000100	3.866400	-11.597000	21.996256	0.000960	20.811021
164.058131	-2.984900	3.865000	-11.536000	21.987233	0.000957	20.825695
165.052967	-2.990100	3.864800	-11.555000	21.999200	0.000959	20.827717
166.045738	-3.005500	3.865300	-11.617000	22.000396	0.000961	20.818009
167.046046	-2.998500	3.863700	-11.584000	22.005582	0.000959	20.844063
168.050161	-3.002200	3.864800	-11.602000	22.007203	0.000961	20.833832
169.049089	-3.018600	3.864400	-11.664000	22.016626	0.000963	20.832834
170.048045	-2.995500	3.864900	-11.577000	22.006032	0.000960	20.824599
171.044134	-2.994700	3.864800	-11.572000	22.029341	0.000960	20.819010
172.046474	-3.011300	3.865100	-11.638000	22.038191	0.000963	20.830714
173.052554	-3.007800	3.863700	-11.620000	22.057312	0.000962	20.836579
174.055389	-3.011100	3.863600	-11.631000	22.055070	0.000962	20.843817
175.061145	-2.998600	3.864000	-11.585000	22.065415	0.000962	20.832363
176.054245	-3.009200	3.862900	-11.623000	22.073716	0.000964	20.843044
177.052688	-3.011300	3.863800	-11.633000	22.095104	0.000962	20.825576
178.050824	-3.028800	3.863000	-11.700000	22.085757	0.000963	20.807210
179.048904	-3.006000	3.863500	-11.612000	22.082441	0.000964	20.838977
180.047459	-3.002500	3.861900	-11.593000	22.093683	0.000964	20.840749
181.051730	-3.006400	3.862200	-11.610000	22.091765	0.000965	20.852578
182.049887	-2.990300	3.861700	-11.547000	22.106672	0.000964	20.842846
183.057098	-3.003900	3.861900	-11.600000	22.133843	0.000963	20.827849
184.049744	-3.007400	3.863400	-11.616000	22.106300	0.000965	20.823508
185.056029	-3.005900	3.862700	-11.608000	22.128284	0.000965	20.849310
186.055781	-3.007600	3.861900	-11.614000	22.132898	0.000965	20.860093
187.057594	-3.004700	3.860600	-11.599000	22.116744	0.000966	20.835861
188.056535	-3.001100	3.861100	-11.587000	22.126840	0.000966	20.846916
189.053999	-3.010200	3.861400	-11.622000	22.133371	0.000967	20.846817
190.054726	-2.992300	3.860900	-11.552000	22.134592	0.000965	20.851832
191.051316	-2.990300	3.861900	-11.548000	22.156229	0.000966	20.825606
192.058658	-2.990800	3.861300	-11.547000	22.169938	0.000970	20.855451
193.058707	-2.991800	3.860400	-11.548000	22.153512	0.000969	20.861765
194.058070	-3.009400	3.860600	-11.617000	22.178489	0.000968	20.847417
195.057052	-3.003500	3.860000	-11.593000	22.175099	0.000969	20.844023
196.058614	-2.996500	3.860100	-11.565000	22.180509	0.000971	20.832371
197.061884	-2.989300	3.858700	-11.534000	22.184023	0.000968	20.852958
198.060778	-2.998900	3.860800	-11.577000	22.185544	0.000971	20.856377
199.070209	-3.015100	3.858400	-11.632000	22.197210	0.000972	20.842453
200.060705	-2.987400	3.859300	-11.528000	22.203516	0.000971	20.863939
201.056784	-3.000500	3.859800	-11.579000	22.217648	0.000969	20.845373
202.064466	-3.028900	3.857800	-11.683000	22.219220	0.000971	20.852637
203.064078	-3.001300	3.858700	-11.580000	22.216280	0.000972	20.856331
204.073989	-2.992300	3.858900	-11.545000	22.238462	0.000971	20.851040
205.059479	-2.996900	3.857400	-11.559000	22.245292	0.000972	20.831327
206.064093	-2.995900	3.858100	-11.558000	22.272336	0.000972	20.865041
207.073998	-3.010400	3.857800	-11.612000	22.250079	0.000973	20.844654
208.064678	-3.014700	3.857900	-11.629000	22.269943	0.000974	20.862172
209.066064	-2.996800	3.856600	-11.556000	22.276449	0.000976	20.868686
210.064526	-3.019600	3.856900	-11.646000	22.256759	0.000976	20.867462
211.056455	-3.028000	3.856600	-11.676000	22.290332	0.000975	20.853189
212.061824	-2.958900	3.858800	-11.417000	22.291727	0.000975	20.859802
213.069263	-3.005100	3.855600	-11.586000	22.305161	0.000977	20.886528
214.063583	-2.993800	3.856600	-11.544000	22.298831	0.000977	20.872131
215.070353	-3.000900	3.856200	-11.572000	22.308302	0.000976	20.876872
216.065640	-2.994100	3.856000	-11.545000	22.313087	0.000975	20.875026
217.074533	-2.979700	3.855100	-11.486000	22.335766	0.000974	20.864545
218.063787	-2.984600	3.855900	-11.508000	22.329037	0.000977	20.871082
219.072487	-3.000800	3.854400	-11.565000	22.335368	0.000978	20.880740
220.063570	-2.995400	3.854500	-11.545000	22.333772	0.000978	20.869660
221.064774	-3.006600	3.855000	-11.590000	22.350943	0.000977	20.878318
222.059130	-3.007100	3.854900	-11.591000	22.351915	0.000980	20.880240
223.068793	-2.959900	3.856400	-11.413000	22.350894	0.000979	20.883485
224.069397	-3.012800	3.853900	-11.610000	22.351018	0.000978	20.898306
225.071832	-2.994200	3.855000	-11.541000	22.362306	0.000981	20.895385
226.088995	-3.012300	3.853900	-11.609000	22.383115	0.000981	20.872128
227.068598	-3.019100	3.852500	-11.631000	22.371202	0.000981	20.907612
228.088112	-3.027800	3.853000	-11.665000	22.390566	0.000981	20.889546
229.067512	-3.005300	3.853600	-11.580000	22.370355	0.000982	20.890170
230.066998	-3.001900	3.852300	-11.562000	22.384410	0.000981	20.890968
231.069373	-2.998900	3.854200	-11.557000	22.376511	0.000983	20.875472
232.085509	-3.009700	3.851100	-11.590000	22.400433	0.000984	20.904641
233.094237	-2.998400	3.852800	-11.552000	22.396571	0.000985	20.879439
234.085315	-2.977300	3.854000	-11.474000	22.412942	0.000985	20.907210
235.070910	-2.999000	3.851600	-11.550000	22.424182	0.000985	20.881958
236.070037	-2.980900	3.853700	-11.486000	22.415211	0.000986	20.889569
237.073970	-2.997100	3.852600	-11.546000	22.415683	0.000987	20.889568
238.069641	-2.991600	3.851300	-11.520000	22.402252	0.000985	20.883705
239.070440	-2.992500	3.851700	-11.525000	22.419471	0.000986	20.887198
240.070711	-3.008200	3.850300	-11.580000	22.439581	0.000988	20.896430
241.072614	-3.006300	3.849500	-11.572000	22.456552	0.000988	20.899201
242.072950	-3.002600	3.849500	-11.558000	22.464823	0.000989	20.892786
243.073312	-2.996000	3.850500	-11.534000	22.440503	0.000990	20.885500
244.069993	-2.998400	3.848900	-11.539000	22.480173	0.000990	20.920483
245.095920	-2.983400	3.849400	-11.483000	22.470380	0.000989	20.904987
246.093514	-3.021300	3.849700	-11.629000	22.493356	0.000989	20.913298
247.085088	-3.008100	3.849600	-11.578000	22.481070	0.000991	20.903839
248.075284	-2.985200	3.850800	-11.494000	22.494450	0.000990	20.876938
249.087032	-2.986200	3.849600	-11.494000	22.523280	0.000991	20.900594
250.104451	-3.010400	3.849500	-11.588000	22.525299	0.000992	20.897875
251.095309	-3.013300	3.849200	-11.598000	22.520615	0.000990	20.900295
252.093709	-3.003400	3.848000	-11.555000	22.506908	0.000993	20.881829
253.094424	-3.002400	3.848800	-11.553000	22.514310	0.000994	20.897775
254.103792	-3.007100	3.848800	-11.573000	22.522906	0.000993	20.905908
255.092554	-3.000900	3.848500	-11.548000	22.540696	0.000994	20.906182
256.102168	-3.000800	3.848000	-11.546000	22.515304	0.000993	20.909675
257.084905	-2.978700	3.848800	-11.463000	22.524998	0.000995	20.911796
258.080635	-2.999200	3.849300	-11.544000	22.524698	0.000994	20.915289
259.079285	-2.985000	3.849500	-11.488000	22.527089	0.000996	20.912468
260.079029	-3.004300	3.847600	-11.558000	22.534738	0.000996	20.899741
261.078041	-3.016300	3.846500	-11.601000	22.545253	0.000998	20.885618
262.084008	-3.007400	3.846100	-11.565000	22.543682	0.000997	20.910120
263.080731	-3.002300	3.845900	-11.546000	22.561349	0.000997	20.901262
264.075302	-3.002300	3.847000	-11.548000	22.555593	0.000999	20.910195
265.080658	-3.011700	3.847200	-11.585000	22.578864	0.000998	20.924967
266.083417	-2.990500	3.845600	-11.499000	22.610484	0.000999	20.925816
267.090915	-2.997800	3.846900	-11.531000	22.603058	0.001001	20.908423
268.082676	-2.996900	3.845600	-11.523000	22.616338	0.001002	20.904181
269.089118	-2.985500	3.845700	-11.481000	22.611431	0.001000	20.915386
270.079825	-2.979900	3.844800	-11.456000	22.610059	0.001003	20.912590
271.106591	-2.999100	3.845500	-11.531000	22.614270	0.001000	20.902584
272.113906	-3.024500	3.845100	-11.627000	22.602585	0.001002	20.931180
273.101556	-3.012400	3.844200	-11.578000	22.605175	0.001004	20.906276
274.083845	-3.012000	3.845800	-11.582000	22.625780	0.001003	20.923119
275.082440	-3.023200	3.842700	-11.615000	22.641152	0.001002	20.923817
276.088727	-2.982800	3.845200	-11.468000	22.635945	0.001004	20.910068
277.087125	-2.996900	3.843900	-11.518000	22.667737	0.001005	20.931478
278.085658	-3.008100	3.844000	-11.563000	22.650270	0.001005	20.917778
279.084553	-3.011600	3.842800	-11.572000	22.665643	0.001006	20.935544
280.085621	-2.990400	3.844000	-11.494000	22.677727	0.001005	20.939113
281.089207	-3.001500	3.843500	-11.535000	22.684528	0.001007	20.921271
282.088590	-3.003400	3.843100	-11.541000	22.677750	0.001006	20.931550
283.086526	-3.002600	3.843500	-11.539000	22.680416	0.001007	20.928057
284.085902	-2.986300	3.843800	-11.478000	22.699699	0.001009	20.928406
285.087352	-3.012800	3.841500	-11.572000	22.696360	0.001009	20.925536
286.091118	-2.997700	3.843900	-11.521000	22.705129	0.001009	20.932422
287.089367	-3.000900	3.843000	-11.531000	22.689335	0.001008	20.922766
288.113360	-3.006800	3.840800	-11.548000	22.706151	0.001011	20.916378
289.096069	-2.994700	3.841600	-11.503000	22.727876	0.001012	20.935766
290.095083	-3.006800	3.841500	-11.549000	22.728996	0.001013	20.929303
291.088609	-2.987200	3.842100	-11.476000	22.732635	0.001013	20.930577
292.102252	-3.010600	3.841000	-11.562000	22.753711	0.001011	20.939834
293.103782	-3.001000	3.839200	-11.520000	22.735674	0.001012	20.944999
294.091514	-3.005100	3.840000	-11.538000	22.748404	0.001013	20.948742
295.092241	-3.002300	3.840900	-11.530000	22.739186	0.001013	20.937138
296.092599	-3.023000	3.840400	-11.607000	22.734877	0.001014	20.944675
297.107597	-2.984900	3.840900	-11.463000	22.730167	0.001015	20.949914
298.124797	-2.982200	3.840800	-11.452000	22.758743	0.001015	20.944874
299.092775	-2.984700	3.840200	-11.461000	22.771523	0.001015	20.948667
300.093394	-3.007100	3.838800	-11.542000	22.756028	0.001015	20.948318
301.092359	-3.015600	3.838500	-11.574000	22.785998	0.001016	20.944201
302.089629	-3.007900	3.838900	-11.546000	22.792924	0.001015	20.935967
303.095950	-2.999100	3.839000	-11.513000	22.782136	0.001017	20.938437
304.094235	-3.007000	3.839500	-11.545000	22.770328	0.001018	20.933247
305.098659	-3.008400	3.837900	-11.544000	22.768784	0.001019	20.932175
306.118010	-3.004900	3.837200	-11.529000	22.753762	0.001020	20.930403
307.098693	-2.982400	3.837300	-11.443000	22.740957	0.001017	20.939860
308.109906	-3.009600	3.837600	-11.548000	22.765769	0.001018	20.949067
309.115921	-2.999800	3.837500	-11.511000	22.741330	0.001021	20.941182
310.119438	-3.025300	3.836300	-11.605000	22.761361	0.001021	20.911464
311.118873	-3.022600	3.835800	-11.593000	22.771399	0.001021	20.943802
312.113609	-3.014800	3.836500	-11.565000	22.780044	0.001022	20.923067
313.111231	-3.010900	3.836700	-11.551000	22.788364	0.001022	20.920970
314.111198	-3.013000	3.835100	-11.553000	22.773640	0.001024	20.924238
315.098370	-2.996600	3.836200	-11.495000	22.786894	0.001023	20.931824
316.092754	-2.998600	3.834600	-11.498000	22.782485	0.001025	20.917451
317.116428	-3.003000	3.834600	-11.514000	22.800770	0.001023	20.936240
318.115365	-2.975000	3.835600	-11.410000	22.810186	0.001025	20.931923
319.114511	-3.016300	3.834600	-11.565000	22.792922	0.001024	20.939284
320.100024	-3.024500	3.833900	-11.595000	22.809015	0.001024	20.941654
321.126788	-2.989600	3.835500	-11.466000	22.811205	0.001025	20.905446
322.114622	-3.011900	3.835000	-11.549000	22.801142	0.001025	20.919545
323.114987	-2.984200	3.834400	-11.442000	22.822864	0.001026	20.910962
324.094917	-2.994700	3.834200	-11.481000	22.830536	0.001028	20.902526
325.101570	-2.988500	3.835200	-11.460000	22.832230	0.001026	20.934091
326.130644	-2.989500	3.834000	-11.461000	22.850015	0.001029	20.916349
327.112360	-2.981000	3.833700	-11.427000	22.848845	0.001029	20.905695
328.118958	-2.983900	3.833900	-11.438000	22.831507	0.001029	20.919144
329.097699	-2.987200	3.833600	-11.451000	22.878910	0.001028	20.912106
330.098795	-3.015600	3.832900	-11.558000	22.875123	0.001030	20.929173
331.108513	-3.013300	3.832900	-11.549000	22.865683	0.001030	20.910709
332.096378	-2.994700	3.832500	-11.476000	22.886058	0.001031	20.913103
333.103602	-3.008400	3.831700	-11.527000	22.857336	0.001031	20.893814
334.097797	-3.012600	3.831100	-11.541000	22.866080	0.001031	20.921063
335.098810	-3.006300	3.832600	-11.519000	22.877912	0.001031	20.907787
336.103547	-3.000900	3.832600	-11.499000	22.881474	0.001035	20.902348
337.126512	-2.998300	3.831400	-11.487000	22.875197	0.001034	20.908860
338.113708	-2.996800	3.831400	-11.482000	22.867649	0.001031	20.891343
339.132554	-2.997300	3.831400	-11.481000	22.893606	0.001034	20.924931
340.102141	-3.009200	3.830200	-11.525000	22.899161	0.001034	20.924806
341.115092	-2.992200	3.831200	-11.463000	22.927631	0.001037	20.905916
342.123254	-2.995400	3.830200	-11.472000	22.918017	0.001036	20.924257
343.126420	-2.999700	3.829900	-11.487000	22.928627	0.001036	20.914500
344.127364	-3.012500	3.828900	-11.534000	22.921678	0.001037	20.903745
345.148069	-3.005700	3.829100	-11.508000	22.927682	0.001039	20.898855
346.102694	-3.019400	3.829200	-11.560000	22.924069	0.001038	20.897133
347.105336	-2.989100	3.830000	-11.447000	22.965643	0.001036	20.898007
348.097880	-2.994600	3.829000	-11.465000	22.964198	0.001041	20.884707
349.127642	-3.013700	3.827300	-11.533000	22.980213	0.001040	20.906441
350.134076	-3.009800	3.827900	-11.519000	23.006243	0.001040	20.909287
351.147552	-3.006100	3.827700	-11.504000	23.008884	0.001042	20.904821
352.133737	-3.012400	3.827200	-11.528000	23.006244	0.001043	20.894116
353.136384	-2.985000	3.828100	-11.426000	23.004899	0.001040	20.894191
354.106929	-2.990300	3.827700	-11.444000	22.991823	0.001041	20.900530
355.123086	-2.980000	3.827000	-11.403000	22.996506	0.001044	20.896213
356.120433	-3.000400	3.826700	-11.480000	22.995959	0.001043	20.881441
357.119312	-2.996500	3.827100	-11.467000	22.998923	0.001044	20.906220
358.130172	-3.006900	3.826500	-11.504000	22.987566	0.001044	20.904325
359.122985	-2.991600	3.826200	-11.444000	22.989734	0.001043	20.894170
360.127059	-3.016100	3.825600	-11.537000	23.002985	0.001044	20.885636
361.125915	-2.998400	3.825500	-11.470000	22.996709	0.001044	20.905899
362.138291	-3.010000	3.823800	-11.508000	22.993571	0.001048	20.891376
363.128504	-2.996200	3.825500	-11.461000	22.979648	0.001045	20.883592
364.134049	-2.990200	3.825800	-11.439000	22.983659	0.001044	20.906100
365.138374	-2.988300	3.825800	-11.431000	22.998305	0.001046	20.885688
366.140423	-2.998900	3.824600	-11.469000	23.012429	0.001047	20.886090
367.124661	-2.988500	3.824900	-11.429000	23.033252	0.001046	20.893203
368.131637	-3.007800	3.822700	-11.497000	23.015320	0.001048	20.895149
369.125154	-3.007800	3.824900	-11.503000	23.042270	0.001046	20.888488
370.134805	-3.004300	3.824000	-11.488000	23.036318	0.001051	20.904808
371.135918	-2.981000	3.823000	-11.395000	23.054401	0.001050	20.890685
372.145566	-2.978700	3.824700	-11.391000	23.064737	0.001052	20.881128
373.116359	-3.000700	3.823900	-11.474000	23.059407	0.001051	20.897597
374.112304	-2.996300	3.823400	-11.454000	23.083267	0.001050	20.887841
375.140394	-3.003500	3.822000	-11.478000	23.095148	0.001053	20.886470
376.111745	-2.980100	3.822800	-11.390000	23.098187	0.001054	20.900893
377.136203	-2.989500	3.822000	-11.425000	23.100603	0.001053	20.899995
378.136438	-2.993500	3.821600	-11.439000	23.101002	0.001052	20.886646
379.142073	-2.996200	3.822500	-11.452000	23.103866	0.001051	20.877663
380.129435	-3.009200	3.821300	-11.497000	23.109744	0.001055	20.876915
381.146945	-2.992000	3.821500	-11.433000	23.123643	0.001054	20.886573
382.130047	-3.034600	3.819500	-11.590000	23.110269	0.001055	20.892612
383.147553	-3.003200	3.819700	-11.470000	23.121252	0.001056	20.885126
384.115414	-2.999000	3.820700	-11.458000	23.144961	0.001056	20.898451
385.111103	-3.013000	3.819300	-11.506000	23.137665	0.001056	20.870753
386.115168	-2.991400	3.820600	-11.428000	23.149819	0.001055	20.883880
387.117525	-2.994300	3.820300	-11.438000	23.122175	0.001055	20.880835
388.120237	-2.998000	3.819700	-11.450000	23.143817	0.001056	20.880711
389.121466	-3.005900	3.819600	-11.480000	23.148700	0.001055	20.871380
390.138928	-3.014200	3.817900	-11.506000	23.108653	0.001057	20.873451
391.115623	-3.010600	3.817600	-11.492000	23.111169	0.001056	20.871704
392.115501	-2.994200	3.819300	-11.434000	23.113311	0.001061	20.891393
393.135694	-3.000100	3.818300	-11.454000	23.068059	0.001058	20.879715
394.117766	-2.989100	3.817600	-11.410000	23.088407	0.001059	20.879241
395.145098	-2.995200	3.818700	-11.437000	23.132687	0.001057	20.894687
396.120699	-3.005900	3.817100	-11.473000	23.150220	0.001058	20.875273
397.143697	-3.003300	3.815800	-11.459000	23.134978	0.001060	20.881337
398.119679	-2.995600	3.816900	-11.433000	23.156820	0.001062	20.888525
399.122764	-3.008400	3.816700	-11.481000	23.170742	0.001060	20.886828
400.118070	-3.011400	3.816000	-11.489000	23.194200	0.001060	20.864345
401.120304	-3.003300	3.813800	-11.452000	23.191984	0.001061	20.890571
402.121347	-2.999700	3.815700	-11.445000	23.190365	0.001059	20.886578
403.125375	-2.996700	3.815500	-11.433000	23.207673	0.001061	20.879742
404.123665	-3.001800	3.816100	-11.454000	23.206454	0.001063	20.863348
405.129163	-2.996100	3.815700	-11.431000	23.210937	0.001061	20.869736
406.121974	-2.987000	3.815200	-11.395000	23.191637	0.001063	20.871733
407.122759	-3.010800	3.814300	-11.482000	23.172486	0.001063	20.873404
408.126510	-3.001100	3.813800	-11.444000	23.173558	0.001063	20.865471
409.119354	-3.009200	3.813000	-11.473000	23.204587	0.001063	20.884235
410.131444	-3.004100	3.813100	-11.453000	23.202769	0.001064	20.890000
411.121542	-3.000600	3.812300	-11.438000	23.217612	0.001062	20.873581
412.140105	-3.013500	3.812600	-11.488000	23.215121	0.001063	20.874404
413.128590	-2.974100	3.814900	-11.345000	23.245204	0.001062	20.878946
414.146270	-3.012500	3.813100	-11.487000	23.235465	0.001064	20.888152
415.140184	-2.990500	3.812700	-11.401000	23.250981	0.001063	20.873357
416.122899	-3.004200	3.811900	-11.451000	23.251005	0.001065	20.866269
417.124071	-3.009200	3.813200	-11.474000	23.263308	0.001067	20.868641
418.122792	-2.992800	3.811800	-11.407000	23.279618	0.001066	20.878822
419.123206	-2.981100	3.813100	-11.367000	23.258428	0.001065	20.858061
420.129747	-2.993100	3.810400	-11.404000	23.280315	0.001066	20.876676
421.144162	-2.963200	3.812400	-11.296000	23.292766	0.001067	20.880619
422.146112	-2.989600	3.810300	-11.391000	23.297548	0.001066	20.853645
423.142347	-2.994700	3.810400	-11.410000	23.299041	0.001069	20.865572
424.154555	-2.996300	3.810800	-11.417000	23.294758	0.001068	20.887356
425.143631	-3.001300	3.809600	-11.431000	23.294660	0.001067	20.849328
426.155449	-3.019100	3.807200	-11.494000	23.334324	0.001069	20.879595
427.163563	-3.026900	3.808100	-11.525000	23.322921	0.001069	20.888081
428.142567	-3.003500	3.808700	-11.438000	23.315748	0.001071	20.864298
429.147054	-2.985300	3.810200	-11.372000	23.299987	0.001068	20.863675
430.165892	-3.005100	3.807300	-11.440000	23.306289	0.001069	20.871887
431.150980	-2.992700	3.808200	-11.396000	23.297199	0.001068	20.849027
432.129299	-2.994600	3.808400	-11.404000	23.338458	0.001069	20.864774
433.133246	-2.995300	3.808200	-11.406000	23.331486	0.001070	20.868216
434.150370	-3.008100	3.807600	-11.453000	23.344111	0.001069	20.863800
435.150552	-2.985300	3.806600	-11.363000	23.328922	0.001071	20.848578
436.160984	-2.999400	3.806800	-11.417000	23.312736	0.001071	20.865073
437.155451	-3.000100	3.808500	-11.425000	23.292866	0.001072	20.848004
438.157306	-3.005100	3.805700	-11.436000	23.277153	0.001071	20.858335
439.161987	-3.010300	3.805600	-11.455000	23.243113	0.001072	20.857412
440.152781	-2.987800	3.805900	-11.371000	23.258128	0.001073	20.844485
441.157752	-3.010900	3.805400	-11.455000	23.252127	0.001071	20.854592
442.147266	-3.007400	3.805000	-11.441000	23.300907	0.001073	20.839943
443.156826	-3.006400	3.805800	-11.441000	23.295828	0.001076	20.856662
444.164999	-2.998200	3.805100	-11.408000	23.295878	0.001072	20.857186
445.154168	-3.001500	3.805200	-11.421000	23.282531	0.001073	20.853293
446.150403	-2.997600	3.804900	-11.405000	23.310195	0.001075	20.860629
447.156431	-3.026200	3.802300	-11.506000	23.316743	0.001073	20.857709
448.161489	-2.987500	3.803400	-11.362000	23.335691	0.001074	20.845880
449.149304	-2.984500	3.803800	-11.350000	23.327773	0.001077	20.846953
450.159274	-2.994200	3.804000	-11.390000	23.340970	0.001076	20.829360
451.140796	-2.997800	3.803800	-11.402000	23.315374	0.001078	20.853492
452.147192	-3.008200	3.803300	-11.439000	23.339774	0.001075	20.839541
453.135581	-2.995800	3.803300	-11.392000	23.321398	0.001078	20.843883
454.157630	-3.011900	3.803100	-11.453000	23.350332	0.001077	20.856760
455.134240	-2.989600	3.801800	-11.365000	23.372865	0.001078	20.862748
456.159903	-2.993900	3.802400	-11.383000	23.391937	0.001079	20.858630
457.170840	-3.017300	3.800200	-11.466000	23.391039	0.001078	20.850145
458.140093	-2.998000	3.801300	-11.395000	23.414519	0.001078	20.839540
459.162575	-3.007300	3.800200	-11.427000	23.436428	0.001077	20.830206
460.155378	-3.015600	3.800900	-11.461000	23.405430	0.001080	20.834697
461.161762	-3.016000	3.800400	-11.461000	23.419945	0.001079	20.839762
462.148230	-3.003300	3.799000	-11.408000	23.453358	0.001080	20.833899
463.164016	-3.009800	3.800400	-11.438000	23.451565	0.001079	20.838739
464.161564	-2.979300	3.800300	-11.321000	23.438966	0.001079	20.829904
465.139280	-3.005100	3.799800	-11.418000	23.432170	0.001081	20.839687
466.155681	-3.011500	3.799400	-11.440000	23.426866	0.001079	20.823467
467.142549	-3.007300	3.798200	-11.421000	23.446934	0.001081	20.837417
468.139608	-2.980600	3.798500	-11.321000	23.435804	0.001081	20.821994
469.143731	-2.991900	3.798100	-11.362000	23.433589	0.001080	20.824041
470.136652	-3.002000	3.799400	-11.405000	23.451988	0.001080	20.838215
471.141024	-2.993700	3.798000	-11.369000	23.433837	0.001081	20.826186
472.141024	-3.012100	3.798400	-11.439000	23.453507	0.001081	20.861073
473.154502	-2.994800	3.796500	-11.369000	23.462793	0.001084	20.816329
474.167664	-2.979600	3.797100	-11.312000	23.479126	0.001082	20.828907
475.163117	-3.014100	3.796700	-11.442000	23.477657	0.001082	20.844030
476.156573	-3.006000	3.795000	-11.408000	23.493042	0.001083	20.828632
477.146181	-3.005700	3.796100	-11.409000	23.464935	0.001082	20.830330
478.170875	-2.978900	3.797500	-11.311000	23.485550	0.001084	20.842458
479.139925	-3.010000	3.794000	-11.419000	23.500189	0.001084	20.837218
480.140113	-2.983200	3.795200	-11.321000	23.526206	0.001083	20.828210
481.145387	-2.981700	3.795300	-11.314000	23.520230	0.001084	20.813686
482.163045	-2.990000	3.795000	-11.346000	23.557226	0.001083	20.827537
483.160210	-3.004900	3.795000	-11.401000	23.537408	0.001085	20.816681
484.171973	-2.979700	3.793600	-11.303000	23.561632	0.001085	20.847126
485.167695	-2.984600	3.792400	-11.318000	23.541915	0.001083	20.828310
486.147657	-2.994000	3.792600	-11.353000	23.542538	0.001086	20.811866
487.189348	-3.016100	3.793700	-11.440000	23.539128	0.001087	20.828362
488.149343	-2.998800	3.792600	-11.372000	23.545351	0.001084	20.804254
489.162368	-2.994400	3.793100	-11.357000	23.559269	0.001085	20.839068
490.165818	-2.993700	3.793200	-11.355000	23.559892	0.001086	20.839218
491.163287	-2.993400	3.792600	-11.352000	23.554040	0.001085	20.829559
492.150038	-3.033600	3.791600	-11.501000	23.541445	0.001087	20.828313
493.163912	-2.996000	3.791300	-11.357000	23.565891	0.001087	20.837172
494.179314	-3.003700	3.789400	-11.381000	23.530092	0.001087	20.837322
495.173314	-3.006300	3.790100	-11.393000	23.531786	0.001084	20.817683
496.184927	-2.982500	3.789500	-11.301000	23.501015	0.001086	20.837098
497.169525	-2.994300	3.790900	-11.349000	23.507164	0.001087	20.804856
498.167774	-3.016600	3.789700	-11.430000	23.492998	0.001087	20.823847
499.150181	-3.009400	3.788800	-11.401000	23.481646	0.001087	20.814838
500.157118	-3.001100	3.788500	-11.368000	23.474227	0.001087	20.821626
501.180958	-2.990500	3.788800	-11.328000	23.492054	0.001088	20.823374
502.145047	-2.992800	3.789000	-11.339000	23.501016	0.001087	20.823349
503.173481	-3.005600	3.788700	-11.386000	23.527705	0.001087	20.811221
504.179917	-3.016700	3.787600	-11.424000	23.550981	0.001087	20.792354
505.162199	-2.998200	3.787600	-11.355000	23.563155	0.001087	20.794127
506.159816	-3.011600	3.787600	-11.406000	23.570102	0.001089	20.832858
507.152634	-2.974500	3.788200	-11.267000	23.556858	0.001089	20.820530
508.151448	-3.021100	3.787100	-11.439000	23.527680	0.001086	20.814515
509.163862	-3.011000	3.786900	-11.401000	23.505200	0.001089	20.818534
510.177990	-2.989900	3.785200	-11.317000	23.516353	0.001090	20.814066
511.175868	-2.993200	3.786300	-11.332000	23.530769	0.001090	20.832310
512.170666	-2.985800	3.785600	-11.301000	23.540279	0.001090	20.800592
513.172982	-3.000900	3.786500	-11.362000	23.553773	0.001089	20.810326
514.175250	-2.997100	3.784600	-11.342000	23.537018	0.001089	20.814393
515.187296	-3.002600	3.785200	-11.364000	23.559101	0.001089	20.804287
516.185602	-2.984200	3.783700	-11.290000	23.533707	0.001090	20.824350
517.175948	-2.998900	3.783800	-11.345000	23.552354	0.001091	20.801317
518.171743	-3.016200	3.782600	-11.408000	23.558851	0.001089	20.810675
519.180035	-3.019200	3.784300	-11.425000	23.571472	0.001091	20.791558
520.176445	-2.995000	3.784200	-11.333000	23.611055	0.001090	20.816065
521.172895	-3.010600	3.782600	-11.388000	23.603137	0.001090	20.807655
522.170929	-2.978600	3.783900	-11.270000	23.585538	0.001090	20.799021
523.187002	-2.997600	3.783500	-11.339000	23.587480	0.001091	20.816615
524.181014	-2.998000	3.781100	-11.335000	23.601122	0.001091	20.817014
525.174387	-3.006100	3.781400	-11.366000	23.601969	0.001090	20.820234
526.183325	-3.029400	3.779400	-11.448000	23.577647	0.001090	20.806758
527.157603	-2.989600	3.780500	-11.302000	23.622431	0.001092	20.810875
528.169543	-3.012900	3.781200	-11.392000	23.610135	0.001090	20.790962
529.154645	-3.008100	3.780400	-11.372000	23.634157	0.001091	20.803190
530.162285	-3.006100	3.779900	-11.360000	23.647848	0.001090	20.825449
531.168077	-3.003700	3.779600	-11.351000	23.667662	0.001090	20.821606
532.161757	-3.013100	3.779400	-11.387000	23.670027	0.001093	20.798373
533.185361	-3.012300	3.778800	-11.382000	23.674383	0.001093	20.825500
534.184045	-2.993900	3.779300	-11.314000	23.683892	0.001091	20.804687
535.196502	-3.002200	3.780000	-11.348000	23.667314	0.001094	20.799446
536.172438	-2.973000	3.780000	-11.237000	23.668559	0.001091	20.801169
537.178336	-3.028600	3.777400	-11.439000	23.646927	0.001094	20.815517
538.181450	-3.014800	3.776800	-11.386000	23.673910	0.001092	20.815542
539.172956	-2.966800	3.779700	-11.213000	23.675728	0.001092	20.803141
540.174444	-3.004700	3.777800	-11.350000	23.697409	0.001092	20.793109
541.162712	-3.019700	3.776300	-11.402000	23.705300	0.001093	20.808133
542.168559	-3.004900	3.777600	-11.351000	23.701940	0.001094	20.806186
543.178292	-2.987900	3.775200	-11.280000	23.706968	0.001093	20.805537
544.176280	-2.977300	3.777800	-11.247000	23.708487	0.001094	20.813699
545.192169	-3.002400	3.776000	-11.336000	23.717299	0.001093	20.815894
546.168919	-2.985300	3.776600	-11.273000	23.695991	0.001093	20.815869
547.179560	-3.014000	3.774100	-11.374000	23.696516	0.001094	20.796006
548.188511	-2.994500	3.773700	-11.299000	23.675308	0.001095	20.844918
549.192729	-3.008200	3.775300	-11.355000	23.653950	0.001093	20.823507
550.181623	-2.988700	3.774100	-11.278000	23.642575	0.001095	20.807362
551.181074	-2.986000	3.774500	-11.269000	23.642923	0.001095	20.801547
552.176633	-3.008900	3.774200	-11.355000	23.651263	0.001095	20.822236
553.162586	-3.010900	3.773200	-11.360000	23.657635	0.001094	20.795433
554.177312	-2.997000	3.774400	-11.311000	23.672473	0.001094	20.796558
555.174230	-3.011900	3.772700	-11.362000	23.672173	0.001095	20.782981
556.168709	-3.008600	3.773400	-11.351000	23.653531	0.001093	20.803172
557.165379	-2.996900	3.772100	-11.303000	23.632421	0.001094	20.800027
558.166959	-3.024600	3.772500	-11.410000	23.629385	0.001097	20.807415
559.165081	-3.004300	3.772000	-11.331000	23.635035	0.001096	20.807864
560.178177	-2.971500	3.772100	-11.207000	23.627068	0.001095	20.801299
561.186172	-2.988100	3.772700	-11.272000	23.641233	0.001095	20.818818
562.183005	-2.976500	3.771500	-11.225000	23.667446	0.001094	20.821864
563.184875	-3.005400	3.771000	-11.332000	23.675261	0.001095	20.815948
564.176201	-3.019500	3.771200	-11.386000	23.682008	0.001096	20.822712
565.174990	-2.995500	3.770700	-11.293000	23.691840	0.001096	20.809336
566.187670	-2.996100	3.769100	-11.292000	23.707522	0.001094	20.815101
567.174829	-3.008900	3.769200	-11.340000	23.709140	0.001095	20.813879
568.188108	-2.996600	3.768700	-11.293000	23.739408	0.001095	20.818620
569.189300	-3.000800	3.768700	-11.308000	23.743838	0.001096	20.800777
570.167694	-3.003600	3.769000	-11.319000	23.747822	0.001095	20.803823
571.170279	-3.022500	3.766900	-11.383000	23.772760	0.001095	20.835464
572.196723	-3.001800	3.767800	-11.309000	23.796928	0.001097	20.809436
573.193699	-3.002700	3.766000	-11.307000	23.789636	0.001095	20.816350
574.190240	-2.998700	3.767600	-11.297000	23.801334	0.001095	20.814802
575.208488	-3.021500	3.766100	-11.377000	23.786624	0.001096	20.810485
576.188054	-2.997200	3.766600	-11.288000	23.811761	0.001097	20.829050
577.172068	-3.007100	3.765500	-11.322000	23.839017	0.001096	20.819869
578.172752	-2.992800	3.765700	-11.269000	23.831100	0.001096	20.823785
579.191961	-2.986300	3.765500	-11.243000	23.825800	0.001095	20.806142
580.167797	-2.995900	3.765200	-11.280000	23.852529	0.001095	20.825357
581.178109	-3.009900	3.765700	-11.333000	23.828487	0.001095	20.828277
582.178177	-2.979500	3.766600	-11.221000	23.847477	0.001095	20.837835
583.172657	-2.981000	3.764300	-11.220000	23.870099	0.001096	20.820215
584.191082	-2.975200	3.766000	-11.204000	23.850363	0.001095	20.804694
585.180330	-3.005800	3.764700	-11.315000	23.859073	0.001095	20.819591
586.176453	-2.986300	3.764900	-11.243000	23.865147	0.001094	20.827578
587.171966	-3.020800	3.763200	-11.367000	23.890457	0.001096	20.816921
588.185468	-2.995900	3.762500	-11.271000	23.857331	0.001094	20.839181
589.194685	-3.009600	3.763500	-11.326000	23.860094	0.001096	20.846692
590.195820	-3.026600	3.762400	-11.386000	23.851755	0.001096	20.818418
591.199942	-3.009100	3.762700	-11.321000	23.880677	0.001096	20.833192
592.193210	-2.997800	3.762600	-11.278000	23.890034	0.001095	20.828351
593.197416	-3.001900	3.762000	-11.291000	23.914574	0.001094	20.815026
594.199288	-2.992900	3.761800	-11.258000	23.896080	0.001095	20.829198
595.215293	-3.001200	3.761000	-11.285000	23.913800	0.001094	20.832742
596.219363	-2.980800	3.761800	-11.211000	23.910415	0.001094	20.833615
597.195608	-3.002800	3.759700	-11.288000	23.902127	0.001095	20.806339
598.195918	-2.994800	3.760600	-11.261000	23.943066	0.001094	20.833166
599.198050	-2.986600	3.761200	-11.231000	23.926815	0.001095	20.832043
600.184125	-3.003700	3.759300	-11.290000	23.900484	0.001095	20.816071
601.181774	-2.995800	3.758900	-11.260000	23.855960	0.001094	20.843021
602.186630	-3.000600	3.758500	-11.277000	23.861535	0.001095	20.820637
603.183965	-3.012200	3.759400	-11.323000	23.864247	0.001095	20.808658
604.197476	-3.009300	3.760200	-11.315000	23.885202	0.001093	20.823031
605.205798	-2.997900	3.757400	-11.263000	23.906158	0.001095	20.843097
606.208656	-2.979300	3.759700	-11.200000	23.891399	0.001097	20.843943
607.199733	-3.011800	3.756700	-11.313000	23.878360	0.001097	20.841300
608.206942	-3.018200	3.756800	-11.338000	23.872684	0.001095	20.806686
609.214497	-2.999200	3.756800	-11.266000	23.853246	0.001095	20.848361
610.211221	-2.996900	3.758300	-11.262000	23.866635	0.001094	20.824329
611.206579	-2.999300	3.755600	-11.263000	23.889010	0.001096	20.832539
612.211982	-3.012500	3.755700	-11.312000	23.874525	0.001096	20.831292
613.200602	-3.007500	3.756100	-11.295000	23.900334	0.001096	20.833938
614.216466	-2.993100	3.755600	-11.240000	23.910984	0.001095	20.853625
615.202331	-2.998300	3.754300	-11.256000	23.918849	0.001095	20.838279
616.199060	-3.010400	3.754600	-11.302000	23.909740	0.001095	20.830567
617.196556	-3.010000	3.754800	-11.300000	23.910313	0.001094	20.825452
618.187211	-2.985700	3.754700	-11.210000	23.920069	0.001097	20.844718
619.191298	-2.987200	3.754400	-11.213000	23.882215	0.001096	20.844217
620.202254	-2.990000	3.753200	-11.222000	23.859269	0.001096	20.837331
621.203862	-2.978800	3.754400	-11.183000	23.841424	0.001094	20.826076
622.212185	-3.004000	3.753100	-11.274000	23.838985	0.001095	20.829794
623.213062	-3.005200	3.753300	-11.278000	23.848766	0.001096	20.832015
624.210483	-2.985600	3.753200	-11.205000	23.865440	0.001095	20.844466
625.219844	-2.976800	3.752800	-11.170000	23.908173	0.001097	20.841798
626.216625	-3.015900	3.750700	-11.310000	23.903170	0.001097	20.848635
627.212649	-3.009600	3.752800	-11.293000	23.929053	0.001098	20.857519
628.214657	-2.981500	3.751400	-11.184000	23.948140	0.001096	20.840624
629.219018	-2.986200	3.750200	-11.198000	23.913150	0.001095	20.853426
630.207503	-3.018700	3.751000	-11.322000	23.923851	0.001097	20.830492
631.204514	-3.006200	3.750300	-11.273000	23.908521	0.001096	20.848785
632.216265	-3.016100	3.749400	-11.308000	23.919895	0.001098	20.823681
633.192848	-2.988900	3.749700	-11.207000	23.932562	0.001099	20.856770
634.213161	-2.972100	3.749900	-11.144000	23.931741	0.001095	20.860688
635.194674	-3.025300	3.748200	-11.338000	23.925494	0.001096	20.847312
636.197445	-2.992600	3.750400	-11.222000	23.917655	0.001096	20.847987
637.207088	-2.978800	3.749700	-11.169000	23.929253	0.001096	20.843970
638.207939	-3.001600	3.747900	-11.249000	23.954363	0.001095	20.842597
639.215171	-3.003000	3.749600	-11.258000	23.948689	0.001096	20.844494
640.199422	-3.000800	3.747200	-11.244000	23.968325	0.001097	20.868451
641.194463	-2.996800	3.748000	-11.231000	23.963821	0.001096	20.851607
642.185802	-3.028800	3.746100	-11.345000	23.960685	0.001098	20.855574
643.214334	-2.993700	3.746500	-11.215000	23.939781	0.001096	20.854053
644.192115	-3.017800	3.747200	-11.308000	23.958620	0.001095	20.856823
645.190912	-2.985600	3.747800	-11.188000	23.974323	0.001096	20.866405
646.211595	-2.993500	3.747200	-11.215000	23.987389	0.001095	20.863861
647.191357	-2.984100	3.746500	-11.179000	24.005579	0.001093	20.845119
648.194265	-3.020800	3.744000	-11.308000	24.000602	0.001094	20.864784
649.204733	-2.998400	3.745900	-11.230000	23.988110	0.001094	20.866480
650.190630	-2.980200	3.747000	-11.164000	23.968974	0.001096	20.866731
651.188261	-2.999900	3.744300	-11.230000	23.995277	0.001094	20.842849
652.199311	-3.007100	3.744100	-11.258000	24.005107	0.001094	20.848440
653.185949	-3.032100	3.742900	-11.347000	24.008117	0.001095	20.872794
654.198821	-3.003300	3.742700	-11.240000	24.023645	0.001093	20.873193
655.193382	-2.976600	3.744900	-11.145000	24.016480	0.001094	20.864111
656.207190	-3.007000	3.745200	-11.261000	24.032928	0.001092	20.871597
657.191857	-3.003400	3.743400	-11.242000	24.044275	0.001093	20.864485
658.191054	-3.000400	3.743300	-11.229000	24.049500	0.001094	20.867829
659.191214	-2.972500	3.744100	-11.127000	24.061197	0.001094	20.874817
660.191260	-2.981600	3.742700	-11.157000	24.054080	0.001092	20.868628
661.199945	-3.001100	3.741700	-11.228000	24.047486	0.001095	20.852533
662.215721	-2.982200	3.742300	-11.159000	24.032854	0.001093	20.879109
663.208172	-3.008500	3.740900	-11.253000	24.020064	0.001093	20.863438
664.215201	-3.021100	3.741200	-11.301000	24.000480	0.001094	20.869403
665.205853	-3.009200	3.740600	-11.255000	23.995677	0.001092	20.878810
666.208611	-3.001300	3.741000	-11.227000	24.000830	0.001092	20.894407
667.200269	-3.008800	3.738600	-11.248000	23.979728	0.001089	20.873721
668.222098	-3.011400	3.740700	-11.264000	23.995281	0.001092	20.879835
669.219505	-2.999500	3.739100	-11.215000	24.036763	0.001091	20.865012
670.222442	-2.980900	3.741600	-11.152000	24.016059	0.001092	20.871750
671.226263	-3.003200	3.738800	-11.227000	24.059307	0.001091	20.869603
672.224145	-2.998600	3.739500	-11.212000	24.068464	0.001090	20.865511
673.225152	-3.005500	3.738200	-11.234000	24.077347	0.001090	20.882953
674.220667	-3.007600	3.738600	-11.244000	24.083916	0.001090	20.883377
675.227017	-2.984400	3.738000	-11.154000	24.090584	0.001091	20.874418
676.214022	-2.990500	3.738000	-11.178000	24.121015	0.001090	20.885024
677.198716	-2.991600	3.737700	-11.180000	24.115542	0.001090	20.881431
678.199619	-3.008400	3.737000	-11.241000	24.128107	0.001093	20.881231
679.202534	-2.993300	3.735800	-11.182000	24.135621	0.001091	20.877388
680.198002	-3.001000	3.735100	-11.208000	24.180283	0.001092	20.874294
681.207345	-2.990800	3.736100	-11.173000	24.166025	0.001091	20.873270
682.202581	-2.990600	3.736100	-11.172000	24.175480	0.001091	20.891286
683.199878	-3.014400	3.735300	-11.259000	24.150748	0.001091	20.903463
684.216069	-2.980000	3.736900	-11.135000	24.162193	0.001090	20.883650
685.200323	-2.994900	3.734400	-11.183000	24.169781	0.001090	20.906905
686.231909	-3.017700	3.735000	-11.270000	24.152514	0.001090	20.896226
687.203501	-3.001400	3.734300	-11.208000	24.170229	0.001089	20.868951
688.206217	-3.026600	3.733300	-11.299000	24.170104	0.001088	20.898695
689.208470	-2.989600	3.733800	-11.162000	24.162142	0.001089	20.894029
690.202590	-3.014900	3.733200	-11.254000	24.186499	0.001089	20.897122
691.203392	-2.993200	3.733100	-11.173000	24.197273	0.001089	20.897023
692.214797	-2.993300	3.732100	-11.169000	24.183787	0.001088	20.889187
693.204659	-3.006600	3.731900	-11.219000	24.177119	0.001089	20.892930
694.201968	-3.000300	3.732000	-11.196000	24.183464	0.001086	20.870846
695.204325	-3.011000	3.732100	-11.234000	24.172267	0.001087	20.880003
696.220481	-2.989200	3.731700	-11.153000	24.161394	0.001088	20.890908
697.202207	-2.989900	3.732200	-11.158000	24.162737	0.001087	20.902212
698.209764	-3.015500	3.731100	-11.250000	24.178511	0.001086	20.890059
699.209076	-2.984700	3.731700	-11.137000	24.178735	0.001088	20.880327
700.232358	-2.999400	3.731400	-11.190000	24.153257	0.001085	20.903609
701.210731	-2.995300	3.731700	-11.176000	24.162066	0.001087	20.889686
702.204393	-3.010900	3.728600	-11.225000	24.159950	0.001086	20.887090
703.213719	-2.990400	3.730100	-11.153000	24.176496	0.001087	20.889935
704.199696	-3.006600	3.730400	-11.214000	24.169332	0.001085	20.899343
705.207689	-3.006500	3.729400	-11.211000	24.171944	0.001085	20.897222
706.226590	-3.006200	3.728800	-11.209000	24.171894	0.001086	20.907602
707.222624	-3.004900	3.727000	-11.196000	24.172641	0.001085	20.896499
708.225994	-3.001100	3.728300	-11.188000	24.194710	0.001085	20.912942
709.230614	-2.989400	3.727500	-11.142000	24.190752	0.001086	20.910870
710.224049	-3.011200	3.726500	-11.220000	24.186250	0.001084	20.889761
711.205951	-2.994100	3.726700	-11.155000	24.180353	0.001083	20.917982
712.205026	-2.992200	3.728000	-11.154000	24.153234	0.001084	20.897422
713.210678	-2.979500	3.727700	-11.106000	24.158036	0.001085	20.887066
714.202223	-3.019300	3.726100	-11.248000	24.112550	0.001083	20.908300
715.217475	-2.981200	3.727300	-11.111000	24.125836	0.001084	20.911193
716.205830	-3.006100	3.726300	-11.201000	24.125490	0.001082	20.919854
717.209958	-2.961000	3.727100	-11.035000	24.115337	0.001084	20.923421
718.208784	-2.997700	3.724800	-11.165000	24.116556	0.001083	20.899990
719.210040	-3.000200	3.725700	-11.177000	24.093440	0.001082	20.923745
720.221648	-2.999600	3.725800	-11.175000	24.126584	0.001084	20.913365
721.210188	-2.998700	3.724500	-11.167000	24.139672	0.001082	20.919380
722.216253	-3.010500	3.723900	-11.208000	24.153232	0.001082	20.907377
723.215511	-3.025800	3.724100	-11.267000	24.168335	0.001081	20.926790
724.226430	-3.029100	3.723200	-11.277000	24.171869	0.001083	20.905681
725.227357	-3.005000	3.723800	-11.189000	24.227526	0.001081	20.920253
726.224375	-3.017700	3.722500	-11.232000	24.204089	0.001083	20.911445
727.217545	-2.996600	3.723800	-11.158000	24.225435	0.001083	20.898718
728.212373	-3.018800	3.722900	-11.238000	24.222773	0.001081	20.922598
729.213126	-3.004700	3.724500	-11.190000	24.258551	0.001080	20.917234
730.212845	-3.019900	3.722300	-11.240000	24.242950	0.001082	20.917233
731.212928	-2.993700	3.722600	-11.143000	24.258152	0.001082	20.926316
732.212965	-2.987700	3.722200	-11.120000	24.279523	0.001081	20.933054
733.216716	-2.994700	3.722400	-11.147000	24.289176	0.001081	20.922823
734.233209	-2.994300	3.720400	-11.139000	24.262654	0.001081	20.927513
735.215089	-2.985400	3.719900	-11.105000	24.254918	0.001080	20.914064
736.231632	-3.003900	3.719900	-11.173000	24.240588	0.001082	20.914390
737.219542	-2.974900	3.721800	-11.071000	24.259843	0.001079	20.951243
738.219826	-3.003900	3.720000	-11.173000	24.263052	0.001082	20.934550
739.217028	-2.988900	3.720800	-11.119000	24.257456	0.001078	20.925618
740.214422	-3.014100	3.719700	-11.210000	24.250339	0.001078	20.942659
741.223086	-2.962000	3.719500	-11.015000	24.239840	0.001078	20.923121
742.212415	-2.974800	3.718600	-11.060000	24.264620	0.001078	20.920477
743.221236	-3.002100	3.719700	-11.165000	24.298975	0.001080	20.933600
744.250510	-2.996000	3.718400	-11.139000	24.297209	0.001078	20.923769
745.219890	-2.988600	3.717900	-11.110000	24.313380	0.001079	20.948048
746.221021	-3.013800	3.717600	-11.204000	24.296164	0.001077	20.935047
747.215305	-2.998600	3.718700	-11.149000	24.306413	0.001079	20.949120
748.224401	-2.995400	3.717800	-11.136000	24.278328	0.001077	20.933277
749.218525	-3.004200	3.717000	-11.166000	24.246208	0.001077	20.948946
750.243289	-3.005600	3.717600	-11.173000	24.239341	0.001078	20.933999
751.224826	-2.997600	3.715500	-11.136000	24.250386	0.001076	20.937492
752.218177	-2.993200	3.717000	-11.125000	24.244442	0.001078	20.937219
753.245099	-3.026200	3.715100	-11.242000	24.228940	0.001076	20.940635
754.247281	-3.021500	3.715500	-11.224000	24.249466	0.001076	20.950317
755.238677	-3.000000	3.715100	-11.144000	24.248272	0.001077	20.931579
756.239780	-3.005500	3.714900	-11.163000	24.271582	0.001075	20.950690
757.243102	-2.988200	3.714100	-11.097000	24.300241	0.001076	20.944352
758.254632	-3.007800	3.714800	-11.172000	24.311485	0.001073	20.942829
759.249849	-2.971100	3.714200	-11.034000	24.316337	0.001076	20.941532
760.235680	-3.011300	3.713100	-11.180000	24.317605	0.001074	20.946123
761.239847	-3.010800	3.712600	-11.176000	24.336537	0.001076	20.926710
762.243478	-2.992000	3.713400	-11.110000	24.341039	0.001072	20.944026
763.222272	-3.010600	3.712600	-11.176000	24.320590	0.001072	20.943901
764.238307	-3.006300	3.713100	-11.162000	24.331361	0.001073	20.936216
765.252392	-3.012700	3.711800	-11.181000	24.318872	0.001073	20.948816
766.241955	-2.997900	3.712900	-11.130000	24.319942	0.001074	20.948941
767.236094	-3.007200	3.711000	-11.159000	24.313996	0.001073	20.941080
768.239843	-2.984700	3.711100	-11.076000	24.310712	0.001071	20.954380
769.230506	-3.011200	3.711800	-11.176000	24.338675	0.001072	20.946870
770.226514	-2.999300	3.711600	-11.130000	24.362904	0.001070	20.975913
771.227081	-2.999300	3.712000	-11.132000	24.346585	0.001072	20.943426
772.251395	-3.011600	3.710900	-11.175000	24.376436	0.001070	20.966730
773.246626	-2.987700	3.711100	-11.087000	24.391759	0.001072	20.975462
774.239112	-2.983900	3.709600	-11.067000	24.421410	0.001070	20.972967
775.239005	-2.987400	3.709200	-11.079000	24.431484	0.001070	20.959841
776.243528	-2.997500	3.710300	-11.120000	24.405887	0.001070	20.952181
777.243267	-2.999400	3.709700	-11.126000	24.415040	0.001071	20.953777
778.243012	-2.986500	3.710000	-11.079000	24.412478	0.001069	20.965429
779.247853	-2.989500	3.710100	-11.091000	24.440138	0.001072	20.968049
780.246873	-2.986100	3.708300	-11.072000	24.423447	0.001071	20.972639
781.224432	-2.998700	3.707700	-11.116000	24.408098	0.001069	20.959614
782.226610	-2.997100	3.707900	-11.112000	24.379142	0.001070	20.945266
783.227382	-2.999100	3.709200	-11.123000	24.396479	0.001070	20.958389
784.231250	-2.994900	3.707500	-11.103000	24.372226	0.001069	20.945440
785.232624	-2.996200	3.707600	-11.108000	24.386752	0.001070	20.949106
786.247353	-3.004900	3.706800	-11.137000	24.424363	0.001071	20.942269
787.243234	-2.993200	3.705900	-11.091000	24.385209	0.001069	20.957515
788.231633	-2.996600	3.707100	-11.108000	24.418193	0.001068	20.956465
789.257383	-2.993000	3.707500	-11.096000	24.412074	0.001069	20.961705
790.248016	-3.044200	3.703700	-11.274000	24.399734	0.001068	20.956913
791.256310	-3.005500	3.705600	-11.136000	24.422744	0.001069	20.943489
792.242540	-2.998700	3.705000	-11.109000	24.437172	0.001069	20.943265
793.245754	-2.999600	3.705200	-11.113000	24.456995	0.001067	20.932808
794.249115	-3.001700	3.705000	-11.120000	24.438189	0.001066	20.950923
795.262374	-3.028900	3.703900	-11.216000	24.453511	0.001069	20.940692
796.227472	-2.982000	3.705600	-11.049000	24.463237	0.001067	20.923424
797.250981	-2.993000	3.704900	-11.088000	24.441546	0.001066	20.938171
798.228705	-3.017000	3.703900	-11.174000	24.441645	0.001063	20.933055
799.243606	-2.987200	3.704200	-11.064000	24.440276	0.001065	20.952067
800.245014	-2.998300	3.702800	-11.100000	24.452389	0.001064	20.942410
801.223824	-3.007400	3.703100	-11.136000	24.452612	0.001065	20.925093
802.234563	-3.003500	3.703000	-11.121000	24.481392	0.001064	20.924095
803.231774	-3.027400	3.701600	-11.205000	24.485719	0.001064	20.925591
804.232147	-3.008700	3.702800	-11.140000	24.473580	0.001063	20.943281
805.237833	-2.997900	3.703000	-11.101000	24.485668	0.001064	20.913687
806.242694	-2.990900	3.702900	-11.074000	24.475842	0.001065	20.914260
807.237717	-3.008200	3.700200	-11.131000	24.426864	0.001062	20.927236
808.258273	-3.021900	3.700800	-11.181000	24.399725	0.001062	20.940785
809.267857	-2.994500	3.701900	-11.084000	24.390869	0.001062	20.910567
810.263968	-3.001200	3.701500	-11.109000	24.403978	0.001063	20.936044
811.253885	-2.983200	3.700400	-11.036000	24.427236	0.001063	20.938039
812.257134	-3.001700	3.700800	-11.107000	24.435966	0.001061	20.914558
813.257733	-2.998400	3.700800	-11.094000	24.449324	0.001062	20.913261
814.249303	-3.012000	3.698600	-11.139000	24.448454	0.001063	20.912387
815.239565	-2.979500	3.699700	-11.022000	24.474247	0.001062	20.925461
816.237420	-3.008600	3.697800	-11.124000	24.499570	0.001060	20.914833
817.236233	-2.971700	3.699500	-10.992000	24.505589	0.001061	20.908070
818.239655	-3.008000	3.697800	-11.122000	24.510414	0.001062	20.896791
819.235426	-3.006100	3.698300	-11.116000	24.543172	0.001059	20.924913
820.237609	-2.990300	3.697500	-11.056000	24.530785	0.001058	20.906797
821.245288	-2.992000	3.697200	-11.061000	24.519268	0.001061	20.914208
822.259861	-3.008400	3.696700	-11.120000	24.508275	0.001061	20.897964
823.257407	-3.032600	3.695900	-11.206000	24.478177	0.001061	20.915655
824.272400	-2.989000	3.698300	-11.054000	24.490192	0.001060	20.913484
825.263994	-3.010400	3.695800	-11.124000	24.486263	0.001059	20.918551
826.268633	-3.016100	3.696500	-11.147000	24.491187	0.001060	20.913060
827.261650	-2.996400	3.696400	-11.075000	24.471462	0.001059	20.920771
828.260013	-2.982600	3.695600	-11.020000	24.482357	0.001061	20.908944
829.244567	-2.974500	3.696300	-10.993000	24.450419	0.001058	20.905351
830.255267	-3.006100	3.697100	-11.113000	24.427808	0.001057	20.896892
831.259875	-2.995800	3.697000	-11.073000	24.421216	0.001059	20.919200
832.243797	-3.013700	3.694900	-11.135000	24.404674	0.001058	20.900710
833.269072	-2.984700	3.694500	-11.026000	24.414947	0.001057	20.901059
834.246009	-2.985400	3.694800	-11.029000	24.441912	0.001056	20.893498
835.253801	-3.002800	3.695000	-11.094000	24.430370	0.001059	20.896143
836.263346	-3.003300	3.693400	-11.092000	24.427883	0.001056	20.905027
837.267845	-3.006800	3.693200	-11.103000	24.472184	0.001056	20.923392
838.263078	-2.979800	3.695700	-11.012000	24.498775	0.001055	20.887010
839.239631	-3.029200	3.693800	-11.187000	24.500665	0.001054	20.902656
840.251733	-3.026500	3.691100	-11.170000	24.518101	0.001056	20.908295
841.251053	-2.995100	3.694800	-11.065000	24.510964	0.001053	20.871740
842.245852	-3.008800	3.693900	-11.114000	24.517802	0.001053	20.912262
843.245197	-2.999800	3.693300	-11.077000	24.524519	0.001056	20.898614
844.247753	-3.017300	3.692400	-11.141000	24.507828	0.001053	20.897041
845.238406	-3.002100	3.691600	-11.082000	24.511285	0.001051	20.900035
846.240860	-3.005000	3.691500	-11.091000	24.524295	0.001052	20.885588
847.240170	-2.975000	3.692100	-10.982000	24.522727	0.001051	20.904403
848.248197	-3.007600	3.692500	-11.104000	24.504618	0.001051	20.882916
849.250483	-2.988200	3.692000	-11.032000	24.490315	0.001052	20.889903
850.249671	-3.010900	3.690800	-11.112000	24.443405	0.001050	20.901633
851.251930	-3.024400	3.689000	-11.156000	24.413553	0.001050	20.899660
852.249032	-3.000600	3.690400	-11.072000	24.400170	0.001050	20.902355
853.249430	-3.002300	3.689600	-11.077000	24.416064	0.001049	20.872783
854.245120	-3.016800	3.688800	-11.128000	24.417332	0.001048	20.869314
855.244507	-2.993400	3.688800	-11.040000	24.445167	0.001050	20.894867
856.250806	-3.005500	3.690100	-11.089000	24.462381	0.001048	20.899808
857.277216	-2.986300	3.689100	-11.015000	24.429843	0.001048	20.862425
858.269557	-2.992500	3.688100	-11.035000	24.471308	0.001048	20.883636
859.270414	-2.997200	3.688800	-11.055000	24.467377	0.001047	20.868313
860.287455	-2.984200	3.688900	-11.006000	24.501827	0.001047	20.885805
861.255824	-2.994500	3.687800	-11.042000	24.497697	0.001045	20.875973
862.259034	-2.973700	3.688400	-10.967000	24.479961	0.001047	20.875722
863.251920	-2.999700	3.686800	-11.058000	24.458395	0.001044	20.895335
864.248113	-3.007100	3.686800	-11.085000	24.487770	0.001045	20.869807
865.254698	-2.979200	3.686500	-10.982000	24.484113	0.001044	20.879413
866.254500	-2.993600	3.686600	-11.035000	24.497071	0.001043	20.873448
867.261509	-2.993500	3.685800	-11.032000	24.535972	0.001043	20.868856
868.254408	-2.983900	3.685500	-10.995000	24.523111	0.001044	20.885349
869.284724	-2.998000	3.686500	-11.050000	24.515649	0.001047	20.868380
870.281767	-2.998200	3.686400	-11.051000	24.515697	0.001045	20.854205
871.281711	-3.001900	3.685000	-11.061000	24.533257	0.001043	20.871347
872.274779	-3.006900	3.684900	-11.079000	24.531962	0.001042	20.865308
873.280119	-2.998500	3.684600	-11.047000	24.526490	0.001041	20.874041
874.281374	-2.993200	3.685900	-11.031000	24.566881	0.001040	20.862885
875.276830	-3.001500	3.683700	-11.055000	24.553076	0.001043	20.866577
876.286897	-2.993300	3.683600	-11.024000	24.548275	0.001041	20.868398
877.267056	-3.013600	3.683800	-11.100000	24.555884	0.001040	20.857067
878.261564	-3.004400	3.682400	-11.062000	24.566926	0.001041	20.867672
879.255685	-2.988000	3.683500	-11.006000	24.519121	0.001041	20.878028
880.256248	-2.999500	3.681900	-11.043000	24.518498	0.001041	20.856067
881.269308	-2.979000	3.682800	-10.970000	24.554588	0.001041	20.858611
882.259076	-3.007200	3.683300	-11.076000	24.530137	0.001041	20.864899
883.262689	-3.020600	3.681100	-11.117000	24.529738	0.001040	20.838896
884.260217	-2.985800	3.680600	-10.988000	24.541975	0.001039	20.881516
885.261474	-2.989300	3.680700	-11.002000	24.549585	0.001039	20.860230
886.267518	-3.006500	3.679100	-11.060000	24.575127	0.001040	20.834176
887.263730	-3.014700	3.680600	-11.094000	24.566497	0.001039	20.860604
888.267506	-3.001000	3.680300	-11.043000	24.542220	0.001038	20.868961
889.261237	-3.002100	3.680200	-11.046000	24.537197	0.001040	20.854913
890.265233	-2.978300	3.682100	-10.965000	24.505930	0.001039	20.832079
891.258981	-2.995700	3.679400	-11.022000	24.512149	0.001038	20.862024
892.268742	-2.987200	3.680900	-10.994000	24.518018	0.001037	20.850370
893.268618	-3.004000	3.679100	-11.052000	24.523814	0.001037	20.853814
894.281722	-3.025000	3.679300	-11.129000	24.506302	0.001036	20.852839
895.289672	-2.987500	3.679800	-10.992000	24.512395	0.001037	20.841409
896.281553	-3.018300	3.677500	-11.099000	24.514535	0.001038	20.846401
897.267700	-3.002400	3.678200	-11.041000	24.509659	0.001038	20.860000
898.267617	-2.978000	3.678800	-10.955000	24.542068	0.001039	20.853637
899.267723	-3.001000	3.677900	-11.037000	24.545650	0.001037	20.855808
900.261981	-3.011400	3.677800	-11.074000	24.570920	0.001037	20.845601
901.260983	-2.997400	3.678600	-11.025000	24.582163	0.001035	20.857356
902.271122	-2.985000	3.678500	-10.978000	24.606137	0.001036	20.842532
903.275395	-2.998300	3.677100	-11.024000	24.611360	0.001035	20.848720
904.282337	-3.017600	3.677600	-11.097000	24.606585	0.001033	20.839188
905.262267	-3.007600	3.677300	-11.058000	24.621881	0.001034	20.857854
906.300854	-3.023800	3.675300	-11.113000	24.637773	0.001034	20.847248
907.267862	-2.995700	3.675700	-11.010000	24.668338	0.001033	20.846624
908.293663	-2.981400	3.675600	-10.957000	24.667866	0.001034	20.858478
909.290055	-3.007100	3.675500	-11.051000	24.665852	0.001034	20.857880
910.270326	-3.011500	3.673600	-11.063000	24.681942	0.001031	20.844628
911.272732	-3.006000	3.674800	-11.045000	24.652745	0.001032	20.853737
912.266036	-3.001700	3.674500	-11.029000	24.665778	0.001033	20.848796
913.274853	-2.990700	3.674200	-10.986000	24.607730	0.001033	20.847449
914.271923	-3.023700	3.673000	-11.105000	24.627378	0.001032	20.827809
915.266493	-2.985300	3.675200	-10.970000	24.608974	0.001031	20.835895
916.267680	-2.986800	3.672700	-10.968000	24.625414	0.001032	20.856183
917.281106	-3.000100	3.673600	-11.020000	24.611238	0.001032	20.846701
918.266976	-3.005300	3.673400	-11.039000	24.650260	0.001032	20.834174
919.276060	-2.991900	3.672700	-10.987000	24.651628	0.001030	20.832228
920.274165	-2.977000	3.673700	-10.935000	24.645286	0.001030	20.828235
921.270646	-3.003200	3.673100	-11.030000	24.617955	0.001030	20.825941
922.269968	-3.008700	3.671200	-11.044000	24.591716	0.001028	20.819053
923.270038	-2.989200	3.672300	-10.975000	24.588707	0.001029	20.829310
924.275121	-2.999000	3.672400	-11.013000	24.560278	0.001029	20.824019
925.289877	-3.002500	3.670300	-11.020000	24.531028	0.001028	20.844457
926.271125	-3.012500	3.668400	-11.050000	24.506803	0.001027	20.836273
927.271446	-3.011600	3.669800	-11.051000	24.505510	0.001028	20.826915
928.275473	-3.010300	3.669700	-11.046000	24.504067	0.001028	20.841114
929.271379	-2.995200	3.670300	-10.992000	24.487999	0.001027	20.836373
930.270286	-2.996700	3.671300	-11.001000	24.484518	0.001028	20.837148
931.285596	-3.023900	3.667900	-11.091000	24.478272	0.001024	20.837046
932.284837	-2.992700	3.669600	-10.981000	24.542522	0.001025	20.858833
933.277075	-3.002500	3.668300	-11.013000	24.509167	0.001024	20.839593
934.275877	-3.005200	3.669100	-11.024000	24.508918	0.001024	20.836498
935.275212	-2.977100	3.669500	-10.924000	24.544288	0.001023	20.812243
936.266953	-2.980900	3.669800	-10.939000	24.516230	0.001025	20.818705
937.277495	-3.004900	3.667900	-11.020000	24.512450	0.001024	20.825818
938.280021	-2.997000	3.668400	-10.993000	24.503543	0.001022	20.829684
939.303449	-3.000600	3.667800	-11.004000	24.510559	0.001023	20.824868
940.291365	-2.979100	3.666600	-10.922000	24.503793	0.001024	20.804804
941.302757	-3.007700	3.666300	-11.026000	24.515755	0.001022	20.827711
942.289076	-3.005000	3.666700	-11.018000	24.498916	0.001022	20.801334
943.297077	-2.993300	3.666900	-10.975000	24.503294	0.001021	20.803356
944.283173	-3.035600	3.664900	-11.122000	24.507721	0.001021	20.816806
945.313496	-2.997500	3.666700	-10.989000	24.540453	0.001019	20.807447
946.291498	-3.004600	3.665800	-11.013000	24.584825	0.001020	20.827785
947.295177	-3.001200	3.664600	-10.997000	24.582809	0.001020	20.809168
948.294507	-3.003700	3.665800	-11.010000	24.606759	0.001021	20.818975
949.279198	-3.000100	3.666100	-10.998000	24.653018	0.001021	20.833149
950.279325	-3.025200	3.664900	-11.086000	24.658911	0.001021	20.801604
951.278619	-2.996500	3.664000	-10.978000	24.683806	0.001018	20.805248
952.305740	-2.978500	3.665800	-10.918000	24.682238	0.001018	20.825011
953.276869	-3.013900	3.663900	-11.041000	24.685321	0.001017	20.835692
954.284024	-2.994200	3.662700	-10.966000	24.693030	0.001018	20.820668
955.280001	-2.994500	3.663500	-10.969000	24.677984	0.001018	20.812208
956.289115	-2.990400	3.662600	-10.951000	24.636401	0.001017	20.831173
957.280136	-3.020800	3.662100	-11.062000	24.621677	0.001017	20.836788
958.296044	-3.037400	3.661800	-11.121000	24.583476	0.001016	20.819320
959.304763	-2.996300	3.662700	-10.974000	24.590737	0.001016	20.802899
960.317796	-3.044800	3.661100	-11.146000	24.591731	0.001017	20.810060
961.306103	-2.985000	3.662700	-10.932000	24.595388	0.001015	20.800453
962.302259	-3.005300	3.659200	-10.995000	24.622746	0.001015	20.817472
963.292236	-3.010200	3.661600	-11.021000	24.635653	0.001015	20.809087
964.296844	-3.009800	3.659900	-11.014000	24.659329	0.001017	20.822886
965.317513	-3.012500	3.661100	-11.028000	24.688575	0.001014	20.825206
966.310971	-2.988200	3.661600	-10.940000	24.695838	0.001014	20.794089
967.297888	-2.995000	3.660500	-10.962000	24.727071	0.001015	20.809310
968.301184	-3.007800	3.661400	-11.012000	24.716875	0.001011	20.796707
969.281081	-2.992200	3.659800	-10.950000	24.687953	0.001013	20.805142
970.290102	-3.015000	3.659600	-11.033000	24.672758	0.001015	20.796533
971.278629	-2.979300	3.660200	-10.903000	24.615904	0.001014	20.808236
972.286748	-2.995600	3.659800	-10.961000	24.612944	0.001011	20.818068
973.285115	-2.981900	3.660300	-10.914000	24.595484	0.001011	20.793911
974.292470	-3.011200	3.658000	-11.014000	24.551511	0.001013	20.792463
975.292890	-2.999300	3.659800	-10.976000	24.545467	0.001009	20.815797
976.282566	-3.018300	3.656600	-11.036000	24.553949	0.001010	20.791591
977.305331	-3.010600	3.657300	-11.008000	24.557057	0.001011	20.789019
978.305111	-3.006300	3.657800	-10.995000	24.536737	0.001010	20.822211
979.280627	-2.988500	3.656500	-10.926000	24.551013	0.001010	20.810456
980.291458	-3.008700	3.657100	-11.002000	24.561435	0.001009	20.793412
981.302576	-2.985600	3.658300	-10.921000	24.608790	0.001009	20.794934
982.286219	-3.015000	3.657100	-11.023000	24.616873	0.001009	20.789768
983.297526	-2.994400	3.655400	-10.944000	24.645574	0.001009	20.805290
984.289106	-2.991400	3.654900	-10.932000	24.665818	0.001009	20.805690
985.307723	-2.998400	3.655700	-10.959000	24.684967	0.001007	20.811629
986.311133	-3.001800	3.654400	-10.969000	24.695014	0.001008	20.811279
987.296294	-2.984400	3.655000	-10.906000	24.706778	0.001009	20.797954
988.301523	-2.981700	3.655900	-10.900000	24.701008	0.001009	20.776517
989.305146	-2.985000	3.654600	-10.908000	24.686759	0.001008	20.801099
990.313046	-2.985900	3.654300	-10.910000	24.695935	0.001006	20.806988
991.289447	-2.993800	3.654400	-10.939000	24.713965	0.001007	20.777191
992.302886	-2.986900	3.653300	-10.911000	24.725454	0.001005	20.789669
993.289632	-2.998900	3.654500	-10.958000	24.750994	0.001004	20.791117
994.309979	-3.009000	3.652100	-10.988000	24.768850	0.001005	20.808087
995.306046	-2.991900	3.653500	-10.930000	24.762731	0.001004	20.798154
996.321313	-2.990400	3.653200	-10.923000	24.766760	0.001004	20.795085
997.316045	-3.014000	3.653800	-11.011000	24.730502	0.001004	20.799002
998.293491	-2.995600	3.651600	-10.938000	24.708843	0.001003	20.796233
999.294385	-2.998300	3.651400	-10.947000	24.680418	0.001002	20.789520
1000.289888	-3.000000	3.650800	-10.951000	24.680592	0.001003	20.798704
1001.317545	-3.012200	3.651100	-10.997000	24.655250	0.001002	20.802672
1002.319662	-3.014200	3.650300	-11.001000	24.644954	0.001002	20.810359
1003.314945	-3.002000	3.651000	-10.959000	24.612274	0.001002	20.797008
1004.317880	-3.017700	3.649900	-11.013000	24.639582	0.001002	20.771777
1005.303942	-2.992000	3.650500	-10.921000	24.646472	0.001001	20.787225
1006.295679	-3.037300	3.648800	-11.081000	24.647292	0.001001	20.795635
1007.299504	-3.024700	3.649500	-11.038000	24.672461	0.001001	20.818994
1008.294408	-2.993700	3.650100	-10.926000	24.646247	0.000998	20.784155
1009.294843	-2.997000	3.649500	-10.937000	24.640776	0.000999	20.795261
1010.297745	-2.997000	3.650000	-10.937000	24.630951	0.000998	20.795359
1011.301252	-2.973100	3.649600	-10.849000	24.622945	0.000999	20.811507
1012.304291	-2.994500	3.647900	-10.923000	24.671887	0.000996	20.793763
1013.320797	-2.987800	3.649700	-10.904000	24.651197	0.000998	20.805243
1014.319360	-3.014100	3.648200	-10.995000	24.676364	0.000997	20.819118
1015.319595	-3.011100	3.647700	-10.982000	24.728762	0.000996	20.812429
1016.320168	-3.001600	3.647400	-10.947000	24.715706	0.000996	20.791267
1017.324133	-3.009200	3.647300	-10.974000	24.737465	0.000995	20.810731
1018.291890	-3.001500	3.645800	-10.942000	24.713667	0.000996	20.798703
1019.312946	-3.008500	3.646700	-10.969000	24.693474	0.000997	20.817794
1020.321758	-3.007700	3.646500	-10.966000	24.682632	0.000995	20.789845
1021.328170	-3.015800	3.645100	-10.992000	24.686835	0.000993	20.805442
1022.322382	-3.001400	3.646500	-10.944000	24.643312	0.000993	20.785003
1023.317425	-3.008300	3.645700	-10.966000	24.659627	0.000994	20.798055
1024.334109	-3.020600	3.642800	-11.002000	24.673256	0.000995	20.810783
1025.321293	-2.990600	3.645900	-10.903000	24.702030	0.000992	20.801724
1026.329624	-3.009000	3.644200	-10.964000	24.681638	0.000995	20.805918
1027.327644	-2.981400	3.644500	-10.864000	24.673331	0.000992	20.805642
1028.331223	-2.996800	3.645000	-10.922000	24.655674	0.000993	20.796459
1029.325237	-2.986500	3.644200	-10.882000	24.657341	0.000993	20.794813
1030.330845	-3.018400	3.643700	-10.998000	24.658037	0.000992	20.810210
1031.299379	-2.983300	3.644400	-10.871000	24.699644	0.000992	20.799805
1032.306349	-3.026700	3.641200	-11.020000	24.721628	0.000992	20.802424
1033.336276	-3.018400	3.642800	-10.995000	24.749927	0.000991	20.792891
1034.301825	-2.996200	3.645000	-10.919000	24.752713	0.000990	20.785256
1035.300279	-3.008100	3.640800	-10.951000	24.747541	0.000989	20.824635
1036.308947	-3.000000	3.642100	-10.926000	24.774423	0.000989	20.815577
1037.313638	-3.016400	3.642900	-10.986000	24.758235	0.000989	20.789374
1038.303236	-2.992800	3.641600	-10.898000	24.777482	0.000987	20.832397
1039.311333	-2.981600	3.642800	-10.860000	24.743588	0.000989	20.807392
1040.316436	-2.992100	3.643400	-10.900000	24.757713	0.000987	20.807817
1041.329360	-3.009400	3.641300	-10.956000	24.781238	0.000988	20.811984
1042.309048	-2.998800	3.641400	-10.919000	24.784271	0.000987	20.813606
1043.303894	-2.993500	3.641900	-10.901000	24.789245	0.000985	20.823339
1044.327372	-2.971200	3.640000	-10.813000	24.767934	0.000986	20.802426
1045.340357	-2.990900	3.639100	-10.883000	24.765223	0.000984	20.805870
1046.334736	-3.000700	3.640300	-10.922000	24.755177	0.000986	20.820918
1047.324609	-2.993600	3.638200	-10.890000	24.726529	0.000985	20.823464
1048.331807	-2.994000	3.638400	-10.892000	24.694647	0.000983	20.811859
1049.333256	-2.995300	3.638300	-10.897000	24.703376	0.000984	20.798334
1050.334203	-3.014400	3.638000	-10.965000	24.699472	0.000987	20.803899
1051.315516	-3.028300	3.637100	-11.013000	24.731328	0.000982	20.803150
1052.311464	-2.966900	3.637900	-10.792000	24.763407	0.000984	20.821117
1053.314226	-3.006100	3.638100	-10.936000	24.787852	0.000981	20.803924
1054.312582	-2.983700	3.637900	-10.854000	24.761442	0.000982	20.821042
1055.339212	-3.020300	3.636100	-10.982000	24.764303	0.000982	20.822016
1056.360590	-2.994300	3.637100	-10.890000	24.807099	0.000981	20.824661
1057.314335	-3.006700	3.637100	-10.934000	24.800087	0.000981	20.829004
1058.310846	-2.988700	3.636300	-10.867000	24.831169	0.000981	20.820843
1059.341905	-3.017900	3.636300	-10.973000	24.829529	0.000980	20.823464
1060.306847	-3.006800	3.635500	-10.930000	24.827116	0.000981	20.811086
1061.330342	-2.981200	3.635700	-10.838000	24.857825	0.000981	20.830052
1062.309690	-2.989200	3.635700	-10.867000	24.853748	0.000979	20.833072
1063.318285	-3.004700	3.634300	-10.919000	24.820975	0.000978	20.806345
1064.310802	-3.000800	3.635300	-10.907000	24.821422	0.000979	20.817225
1065.314161	-3.009500	3.634200	-10.936000	24.838257	0.000979	20.828430
1066.315668	-2.991300	3.635000	-10.872000	24.856906	0.000979	20.831499
1067.339272	-2.980000	3.635100	-10.831000	24.865832	0.000978	20.840932
1068.318914	-2.992300	3.633600	-10.871000	24.877643	0.000974	20.820544
1069.319099	-3.013300	3.633900	-10.948000	24.889653	0.000976	20.814106
1070.311749	-3.015500	3.631400	-10.949000	24.909669	0.000976	20.847945
1071.312643	-2.985700	3.632200	-10.843000	24.894327	0.000976	20.818323
1072.316605	-3.007300	3.632600	-10.923000	24.876824	0.000976	20.843903
1073.329520	-3.009900	3.632200	-10.931000	24.865385	0.000974	20.831000
1074.330372	-3.007800	3.630900	-10.919000	24.847756	0.000975	20.835118
1075.338394	-2.993000	3.632200	-10.870000	24.899449	0.000975	20.810188
1076.341381	-3.000500	3.631000	-10.894000	24.907680	0.000975	20.822242
1077.321773	-2.995000	3.630300	-10.871000	24.924985	0.000974	20.831075
1078.331185	-2.997700	3.630200	-10.880000	24.919763	0.000972	20.835792
1079.334483	-2.989200	3.630500	-10.850000	24.937466	0.000973	20.837912
1080.335273	-3.005100	3.629600	-10.906000	24.930877	0.000970	20.827506
1081.317849	-2.994900	3.630100	-10.870000	24.962006	0.000971	20.845947
1082.315633	-3.009600	3.628800	-10.921000	24.968594	0.000971	20.840233
1083.317261	-2.990100	3.629300	-10.851000	24.972224	0.000972	20.842928
1084.342314	-3.018400	3.628900	-10.952000	24.919589	0.000972	20.830875
1085.334369	-2.998600	3.630400	-10.885000	24.918892	0.000969	20.833495
1086.355322	-3.030700	3.627400	-10.992000	24.928266	0.000968	20.856652
1087.338256	-2.989300	3.626800	-10.840000	24.939951	0.000970	20.843726
1088.338545	-2.999700	3.628200	-10.882000	24.969662	0.000969	20.823288
1089.345581	-3.005000	3.627400	-10.898000	24.989006	0.000970	20.834643
1090.362967	-3.005900	3.627200	-10.902000	24.998404	0.000969	20.848343
1091.340017	-3.008200	3.624200	-10.900000	24.999225	0.000969	20.810288
1092.349833	-2.999600	3.625700	-10.874000	24.972747	0.000967	20.851513
1093.353730	-3.017900	3.625100	-10.939000	24.941991	0.000967	20.845299
1094.324692	-3.018300	3.625400	-10.941000	24.931946	0.000966	20.835217
1095.340598	-3.027500	3.624500	-10.972000	24.916084	0.000966	20.853435
1096.329512	-3.004200	3.626900	-10.895000	24.953404	0.000964	20.820245
1097.325257	-3.006000	3.626700	-10.901000	24.938237	0.000965	20.839635
1098.328914	-3.000900	3.623800	-10.874000	24.936770	0.000965	20.858550
1099.323700	-2.968200	3.626900	-10.764000	24.906858	0.000964	20.848917
1100.324805	-3.000400	3.624600	-10.875000	24.916258	0.000964	20.841282
1101.324779	-2.990200	3.625500	-10.839000	24.901041	0.000963	20.854932
1102.327851	-3.008400	3.624900	-10.904000	24.940475	0.000964	20.843304
1103.348805	-3.010500	3.625600	-10.913000	24.956563	0.000962	20.849968
1104.350000	-2.983400	3.625000	-10.814000	24.976303	0.000961	20.863142
1105.357717	-3.001400	3.623700	-10.875000	24.957855	0.000963	20.857428
1106.350597	-3.000700	3.622300	-10.869000	24.917352	0.000959	20.839536
1107.356827	-3.006500	3.622400	-10.889000	24.890922	0.000960	20.838138
1108.357491	-2.983000	3.622300	-10.805000	24.898108	0.000961	20.859574
1109.345096	-2.988600	3.623100	-10.826000	24.913300	0.000960	20.831201
1110.351965	-2.982900	3.622000	-10.804000	24.908376	0.000960	20.862294
1111.334375	-3.008200	3.620700	-10.891000	24.927945	0.000961	20.840210
1112.348601	-2.999900	3.621600	-10.863000	24.913052	0.000959	20.875995
1113.350842	-2.989600	3.621800	-10.826000	24.929561	0.000961	20.844203
1114.347552	-2.996300	3.619900	-10.844000	24.942143	0.000959	20.856830
1115.331977	-3.003200	3.620900	-10.873000	24.968871	0.000960	20.849519
1116.321280	-3.020200	3.619200	-10.930000	24.967926	0.000959	20.837192
1117.328666	-2.995200	3.620100	-10.842000	24.948483	0.000957	20.860824
1118.342003	-2.996100	3.618800	-10.840000	24.921681	0.000958	20.854785
1119.352594	-2.995700	3.618600	-10.839000	24.953681	0.000957	20.865566
1120.335954	-3.009500	3.618700	-10.888000	24.953208	0.000955	20.873152
1121.341203	-2.987500	3.617500	-10.806000	24.989358	0.000956	20.867237
1122.346793	-3.002000	3.618200	-10.861000	24.990055	0.000956	20.856557
1123.352317	-3.009700	3.615800	-10.880000	24.996718	0.000954	20.862771
1124.358541	-2.997700	3.617800	-10.844000	25.012655	0.000953	20.868811
1125.341505	-2.996600	3.618500	-10.842000	25.022923	0.000951	20.865367
1126.334451	-2.990900	3.618300	-10.821000	25.047361	0.000954	20.879940
1127.334709	-2.997500	3.617900	-10.844000	25.058102	0.000952	20.867963
1128.334908	-2.989900	3.617400	-10.814000	25.078587	0.000952	20.870982
1129.332428	-2.975400	3.616900	-10.761000	25.066878	0.000952	20.880565
1130.325166	-3.010700	3.615800	-10.885000	25.038264	0.000952	20.898307
1131.331140	-3.024400	3.615100	-10.932000	25.026803	0.000953	20.875424
1132.337369	-2.974700	3.617200	-10.759000	25.053429	0.000952	20.881763
1133.332941	-2.988400	3.615100	-10.802000	25.050694	0.000950	20.877595
1134.343214	-3.011500	3.615800	-10.888000	25.026455	0.000949	20.879342
1135.338896	-2.995100	3.612900	-10.820000	25.067425	0.000949	20.874476
1136.353509	-3.016700	3.611700	-10.894000	25.056189	0.000949	20.885955
1137.345120	-2.989900	3.614800	-10.806000	25.063323	0.000947	20.866091
1138.338091	-2.984100	3.615000	-10.787000	25.058127	0.000948	20.866565
1139.348979	-2.983100	3.613800	-10.779000	25.038387	0.000948	20.870458
1140.336452	-2.984700	3.612900	-10.782000	25.022725	0.000946	20.878917
1141.354606	-2.994300	3.611900	-10.813000	25.003307	0.000946	20.899728
1142.331368	-2.981000	3.613100	-10.769000	24.958330	0.000946	20.888723
1143.355790	-3.007900	3.611800	-10.862000	24.944905	0.000947	20.885205
1144.337718	-2.985000	3.613300	-10.784000	24.977101	0.000945	20.867262
1145.331326	-2.998200	3.611700	-10.827000	25.010988	0.000943	20.889421
1146.350079	-2.996600	3.610400	-10.817000	25.020360	0.000944	20.887448
1147.373089	-2.993000	3.611300	-10.808000	25.024438	0.000943	20.879689
1148.352558	-2.981300	3.612100	-10.768000	25.014268	0.000943	20.894135
1149.352180	-2.985500	3.610600	-10.778000	25.008276	0.000941	20.888596
1150.346603	-2.993400	3.611800	-10.811000	24.978018	0.000942	20.874346
1151.353240	-2.995300	3.609500	-10.811000	25.005017	0.000941	20.879160
1152.347614	-3.009200	3.609400	-10.861000	25.030352	0.000942	20.875668
1153.362177	-3.003600	3.609600	-10.840000	25.047356	0.000941	20.863340
1154.338730	-2.991600	3.609200	-10.795000	25.016454	0.000940	20.881158
1155.369355	-2.991400	3.608300	-10.793000	25.006459	0.000940	20.891512
1156.361073	-2.993000	3.608800	-10.800000	24.996589	0.000941	20.883029
1157.366230	-3.008100	3.608400	-10.854000	25.004047	0.000939	20.886247
1158.349061	-2.991000	3.609800	-10.796000	25.010634	0.000936	20.898074
1159.345350	-3.021600	3.606300	-10.897000	25.012598	0.000938	20.869228
1160.344629	-3.001400	3.607400	-10.826000	25.033831	0.000938	20.905237
1161.346466	-3.043000	3.605600	-10.971000	25.076018	0.000937	20.908703
1162.349732	-3.003500	3.607500	-10.834000	25.068634	0.000937	20.892284
1163.370028	-2.979100	3.607600	-10.747000	25.051854	0.000938	20.901043
1164.373888	-3.026300	3.606300	-10.913000	25.056502	0.000936	20.881055
1165.369580	-2.994500	3.606600	-10.799000	25.070075	0.000935	20.889937
1166.367856	-2.966200	3.605400	-10.692000	25.061672	0.000935	20.890511
1167.343706	-3.030900	3.603400	-10.920000	25.057197	0.000934	20.883174
1168.342090	-2.996500	3.604500	-10.801000	25.037282	0.000936	20.908226
1169.354654	-2.990400	3.606400	-10.783000	25.023534	0.000934	20.895850
1170.343493	-3.022100	3.602000	-10.884000	25.055207	0.000933	20.897297
1171.344947	-3.000500	3.604500	-10.815000	25.038575	0.000933	20.887715
1172.352013	-3.016600	3.602500	-10.866000	25.039619	0.000932	20.890185
1173.346660	-2.987500	3.603400	-10.764000	25.044939	0.000933	20.897421
1174.352587	-2.983000	3.602800	-10.746000	25.043644	0.000930	20.908449
1175.345190	-2.995900	3.601500	-10.788000	25.047150	0.000930	20.891106
1176.350002	-3.014400	3.600900	-10.854000	25.068057	0.000931	20.891230
1177.357859	-3.000300	3.602200	-10.806000	25.095478	0.000930	20.920650
1178.367262	-3.008000	3.601000	-10.831000	25.110741	0.000931	20.910843
1179.354814	-3.017400	3.600200	-10.862000	25.094631	0.000931	20.906999
1180.348620	-2.967600	3.603800	-10.694000	25.103854	0.000928	20.911989
1181.368361	-2.976900	3.601900	-10.722000	25.096619	0.000928	20.901883
1182.353946	-3.011400	3.600900	-10.843000	25.105320	0.000928	20.906350
1183.359619	-3.026100	3.598500	-10.887000	25.094827	0.000928	20.895344
1184.370039	-2.989800	3.600100	-10.761000	25.086972	0.000927	20.905001
1185.369395	-2.993700	3.600300	-10.777000	25.067282	0.000924	20.906098
1186.369361	-3.016400	3.598900	-10.854000	25.063926	0.000926	20.916004
1187.369467	-3.002300	3.599800	-10.806000	25.072478	0.000927	20.905150
1188.359106	-2.995000	3.599400	-10.779000	25.053285	0.000924	20.916229
1189.372373	-3.023900	3.597000	-10.876000	25.031009	0.000926	20.920421
1190.346987	-3.005200	3.597300	-10.809000	25.068572	0.000924	20.910712
1191.386614	-3.006100	3.597900	-10.815000	25.083787	0.000925	20.913182
1192.366053	-2.987400	3.596900	-10.744000	25.113121	0.000923	20.898535
1193.374119	-3.001900	3.596400	-10.795000	25.126345	0.000924	20.903275
1194.357553	-2.991800	3.597200	-10.761000	25.128433	0.000925	20.924335
1195.342157	-3.013000	3.597500	-10.837000	25.121571	0.000922	20.890897
1196.354453	-3.023000	3.595000	-10.866000	25.125946	0.000922	20.885806
1197.361036	-2.980300	3.596000	-10.717000	25.137331	0.000922	20.936585
1198.391198	-3.012000	3.595800	-10.828000	25.126840	0.000920	20.909461
1199.376358	-3.006900	3.596300	-10.812000	25.082838	0.000923	20.924083
1200.366947	-2.983900	3.594200	-10.723000	25.082589	0.000919	20.910084
1201.351198	-3.003200	3.594500	-10.794000	25.041569	0.000920	20.941449
1202.371165	-2.994600	3.593900	-10.761000	25.044378	0.000919	20.893539
1203.383957	-2.979100	3.595200	-10.709000	25.027050	0.000920	20.933040
1204.360653	-2.985800	3.594400	-10.731000	25.049349	0.000918	20.911330
1205.353941	-2.994300	3.592800	-10.757000	25.034358	0.000917	20.910981
1206.356197	-2.983800	3.594900	-10.725000	25.019714	0.000917	20.920936
1207.362895	-2.981000	3.593900	-10.712000	25.043432	0.000916	20.939526
1208.354050	-3.005700	3.592400	-10.797000	25.025929	0.000917	20.919588
1209.352040	-3.012000	3.592200	-10.819000	25.038036	0.000916	20.917517
1210.351565	-3.029100	3.589900	-10.872000	25.042586	0.000914	20.914498
1211.353774	-2.995300	3.593000	-10.761000	25.011111	0.000915	20.905664
1212.365673	-3.006500	3.591700	-10.797000	25.045668	0.000915	20.902894
1213.353512	-3.000300	3.589500	-10.768000	25.061031	0.000913	20.937752
1214.381390	-2.984700	3.591500	-10.719000	25.066302	0.000914	20.932612
1215.364264	-3.008600	3.591700	-10.805000	25.092653	0.000913	20.923978
1216.387617	-2.979800	3.590300	-10.698000	25.086562	0.000912	20.940147
1217.385408	-2.999600	3.589600	-10.766000	25.123553	0.000910	20.927970
1218.389102	-2.974500	3.590600	-10.679000	25.149754	0.000910	20.931513
1219.372283	-3.018500	3.589300	-10.833000	25.157782	0.000912	20.941468
1220.386379	-3.016900	3.587900	-10.823000	25.200140	0.000911	20.908605
1221.365732	-2.990800	3.590200	-10.736000	25.193005	0.000911	20.930363
1222.355669	-3.004700	3.590400	-10.787000	25.182763	0.000910	20.950898
1223.370059	-3.005400	3.587200	-10.780000	25.218806	0.000910	20.937773
1224.364628	-2.964300	3.588400	-10.636000	25.228723	0.000909	20.945358
1225.359019	-2.999500	3.586600	-10.757000	25.206700	0.000908	20.950273
1226.361521	-2.999800	3.588000	-10.762000	25.200484	0.000908	20.915588
1227.361373	-3.009700	3.585700	-10.791000	25.238788	0.000906	20.937446
1228.366211	-2.985700	3.587900	-10.712000	25.262302	0.000905	20.948250
1229.362493	-2.996600	3.586300	-10.745000	25.242714	0.000905	20.940439
1230.386674	-3.005900	3.585100	-10.775000	25.227129	0.000906	20.943758
1231.395929	-3.014800	3.585600	-10.809000	25.198319	0.000907	20.936171
1232.362795	-3.006900	3.585600	-10.781000	25.176766	0.000906	20.939189
1233.363087	-3.026500	3.584400	-10.847000	25.181588	0.000904	20.944504
1234.369565	-3.005700	3.585400	-10.775000	25.189468	0.000903	20.924442
1235.363181	-3.005800	3.583300	-10.769000	25.211292	0.000903	20.927386
1236.394861	-3.013100	3.584300	-10.798000	25.233216	0.000901	20.911940
1237.384349	-3.019500	3.583800	-10.820000	25.224639	0.000901	20.933673
1238.394873	-2.989800	3.584800	-10.717000	25.267342	0.000901	20.939561
1239.370154	-3.008000	3.583100	-10.777000	25.265303	0.000902	20.947945
1240.392745	-3.006200	3.581000	-10.764000	25.268136	0.000900	20.908120
1241.382902	-2.984300	3.583600	-10.693000	25.291376	0.000901	20.932873
1242.386158	-3.015000	3.582000	-10.799000	25.277010	0.000900	20.944525
1243.387949	-3.003500	3.580200	-10.750000	25.212232	0.000901	20.928804
1244.386504	-3.001800	3.582000	-10.751000	25.190979	0.000901	20.918373
1245.372602	-3.025100	3.581800	-10.832000	25.155407	0.000897	20.933395
1246.394391	-2.991100	3.579900	-10.707000	25.140019	0.000899	20.919371
1247.396649	-3.007100	3.581800	-10.769000	25.121449	0.000898	20.936288
1248.395711	-3.033400	3.578300	-10.852000	25.097807	0.000897	20.939107
1249.381931	-3.008100	3.578800	-10.765000	25.105761	0.000897	20.916275
1250.385945	-2.989500	3.579900	-10.701000	25.073666	0.000896	20.910135
1251.382977	-2.997900	3.578600	-10.727000	25.100664	0.000896	20.907840
1252.390584	-2.998000	3.579100	-10.729000	25.106307	0.000896	20.918719
1253.389308	-2.971000	3.579200	-10.632000	25.131912	0.000894	20.917396
1254.394928	-3.003900	3.578600	-10.748000	25.142725	0.000895	20.923035
1255.389060	-2.986500	3.578300	-10.685000	25.163531	0.000894	20.941550
1256.403804	-3.022300	3.577400	-10.811000	25.191023	0.000894	20.912729
1257.392875	-2.990200	3.576700	-10.693000	25.211531	0.000893	20.926204
1258.368038	-2.999800	3.577200	-10.730000	25.235592	0.000892	20.927126
1259.369452	-3.008300	3.575600	-10.755000	25.264276	0.000891	20.914200
1260.368613	-3.023000	3.575500	-10.808000	25.218092	0.000891	20.916196
1261.367753	-3.004600	3.576100	-10.743000	25.232459	0.000890	20.912602
1262.363954	-2.993500	3.575600	-10.704000	25.208968	0.000890	20.917942
1263.389766	-3.014500	3.574200	-10.773000	25.249062	0.000890	20.909832
1264.387630	-2.966100	3.575700	-10.603000	25.236360	0.000890	20.915096
1265.377045	-3.001000	3.576400	-10.731000	25.217394	0.000891	20.920711
1266.388684	-3.000300	3.575200	-10.725000	25.209713	0.000887	20.902095
1267.394497	-3.014200	3.574100	-10.772000	25.214858	0.000888	20.912476
1268.376830	-2.996700	3.574200	-10.711000	25.216797	0.000887	20.905414
1269.394748	-3.005800	3.573600	-10.741000	25.216474	0.000887	20.891340
1270.389056	-3.011700	3.573000	-10.760000	25.224253	0.000884	20.901995
1271.373993	-3.004300	3.574300	-10.737000	25.266982	0.000884	20.916443
1272.380039	-2.980700	3.572500	-10.647000	25.234345	0.000885	20.915444
1273.392351	-3.005600	3.573500	-10.739000	25.218238	0.000885	20.895007
1274.376605	-3.010200	3.571500	-10.750000	25.203099	0.000883	20.905886
1275.382691	-2.986400	3.571800	-10.666000	25.191739	0.000886	20.885948
1276.385254	-2.993300	3.573400	-10.696000	25.226265	0.000884	20.893583
1277.398356	-2.993300	3.571800	-10.690000	25.248040	0.000883	20.892212
1278.385862	-2.996200	3.572000	-10.701000	25.248164	0.000883	20.900396
1279.400345	-3.038800	3.569500	-10.845000	25.232553	0.000882	20.891362
1280.391270	-2.995700	3.569800	-10.692000	25.218856	0.000882	20.884250
1281.390656	-2.994100	3.569700	-10.687000	25.239313	0.000881	20.876339
1282.388256	-2.988900	3.569700	-10.668000	25.232652	0.000881	20.896203
1283.372359	-3.012500	3.568100	-10.747000	25.248585	0.000881	20.888492
1284.396542	-2.994800	3.570400	-10.692000	25.227879	0.000879	20.893781
1285.395418	-3.011500	3.569100	-10.747000	25.246073	0.000880	20.893082
1286.405427	-3.016000	3.568500	-10.761000	25.250075	0.000878	20.882402
1287.388522	-2.997800	3.568100	-10.696000	25.236702	0.000878	20.883674
1288.409592	-2.997900	3.567400	-10.693000	25.256338	0.000877	20.886319
1289.396327	-3.001500	3.567200	-10.706000	25.258823	0.000876	20.892607
1290.388362	-3.001300	3.566200	-10.703000	25.279826	0.000875	20.881926
1291.402878	-2.999400	3.566800	-10.697000	25.279230	0.000875	20.889862
1292.395751	-2.995500	3.567000	-10.684000	25.267299	0.000873	20.870772
1293.390263	-3.001500	3.567000	-10.705000	25.249650	0.000873	20.875812
1294.398740	-3.006400	3.564900	-10.717000	25.194418	0.000875	20.876785
1295.410010	-3.014400	3.564700	-10.743000	25.222059	0.000871	20.887939
1296.399589	-3.002800	3.564900	-10.703000	25.176520	0.000872	20.870671
1297.396401	-3.000500	3.564500	-10.694000	25.170156	0.000871	20.869024
1298.394289	-3.007200	3.565200	-10.720000	25.184176	0.000872	20.871244
1299.373815	-2.988500	3.565000	-10.653000	25.193596	0.000872	20.877856
1300.409842	-3.008200	3.564100	-10.721000	25.227750	0.000871	20.891282
1301.391818	-3.006900	3.564400	-10.717000	25.239980	0.000870	20.881275
1302.395370	-2.997900	3.563800	-10.683000	25.241346	0.000871	20.872690
1303.379125	-3.002800	3.564600	-10.703000	25.271173	0.000870	20.848110
1304.373503	-2.993400	3.562500	-10.663000	25.263642	0.000870	20.869945
1305.376606	-3.009000	3.563200	-10.721000	25.280370	0.000869	20.855447
1306.386339	-2.991300	3.563200	-10.658000	25.261827	0.000869	20.878553
1307.373387	-3.008700	3.561600	-10.714000	25.248329	0.000867	20.865477
1308.382182	-3.000700	3.562900	-10.690000	25.228195	0.000866	20.861384
1309.382198	-2.979200	3.562400	-10.612000	25.278578	0.000866	20.890630
1310.397288	-2.980100	3.562900	-10.616000	25.279970	0.000865	20.876381
1311.406649	-2.981800	3.560300	-10.615000	25.300327	0.000868	20.871216
1312.402239	-2.986300	3.561700	-10.635000	25.300003	0.000866	20.870417
1313.400037	-3.007800	3.560700	-10.709000	25.311760	0.000866	20.859936
1314.389505	-2.997600	3.561300	-10.674000	25.326002	0.000864	20.858589
1315.407448	-2.986300	3.560600	-10.632000	25.292720	0.000864	20.875906
1316.405368	-3.006300	3.558300	-10.697000	25.293764	0.000864	20.876006
1317.403552	-3.004800	3.558300	-10.691000	25.262147	0.000865	20.875082
1318.397321	-2.989100	3.558400	-10.635000	25.248253	0.000861	20.861607
1319.406357	-2.997200	3.558700	-10.665000	25.263788	0.000862	20.862032
1320.411990	-3.003200	3.558700	-10.686000	25.267317	0.000862	20.857040
1321.385264	-3.014300	3.557700	-10.723000	25.267192	0.000861	20.858812
1322.383576	-3.018300	3.554800	-10.728000	25.268410	0.000861	20.867620
1323.390975	-2.995300	3.556900	-10.653000	25.267416	0.000861	20.841020
1324.415634	-3.001700	3.557400	-10.677000	25.268684	0.000861	20.860309
1325.390817	-2.977900	3.557300	-10.592000	25.250513	0.000860	20.858187
1326.407525	-3.005600	3.554900	-10.683000	25.254789	0.000860	20.846834
1327.389832	-2.999400	3.554700	-10.661000	25.245270	0.000858	20.856242
1328.396107	-2.990700	3.557400	-10.638000	25.227298	0.000859	20.860009
1329.386717	-2.989200	3.554800	-10.625000	25.220859	0.000859	20.867770
1330.390022	-2.994800	3.556400	-10.650000	25.220736	0.000857	20.856266
1331.400086	-2.977800	3.556100	-10.589000	25.215740	0.000859	20.855044
1332.392481	-2.993100	3.553800	-10.636000	25.230877	0.000858	20.854121
1333.411026	-3.017900	3.553800	-10.724000	25.264707	0.000855	20.868170
1334.388951	-2.998700	3.552500	-10.651000	25.274848	0.000854	20.844214
1335.395765	-3.003400	3.553700	-10.673000	25.265527	0.000853	20.853821
1336.395330	-2.990800	3.553700	-10.628000	25.265204	0.000857	20.862031
1337.396559	-2.995800	3.552800	-10.642000	25.289265	0.000855	20.854895
1338.392587	-2.987500	3.553300	-10.614000	25.313772	0.000852	20.862431
1339.394586	-3.035900	3.551800	-10.781000	25.321178	0.000852	20.845212
1340.390802	-2.988400	3.553800	-10.619000	25.297666	0.000852	20.845786
1341.393639	-2.980800	3.551700	-10.586000	25.264434	0.000851	20.842292
1342.416860	-3.000400	3.552400	-10.658000	25.227746	0.000850	20.852873
1343.428046	-3.014500	3.550700	-10.703000	25.209351	0.000850	20.851475
1344.399862	-2.997200	3.551300	-10.643000	25.187650	0.000850	20.853871
1345.396904	-3.011800	3.550300	-10.692000	25.179323	0.000848	20.853572
1346.400274	-2.992400	3.550100	-10.622000	25.182952	0.000849	20.858163
1347.392784	-2.985600	3.550000	-10.598000	25.195952	0.000850	20.848455
1348.395971	-2.964100	3.550800	-10.524000	25.175445	0.000850	20.852523
1349.394500	-3.008700	3.548900	-10.676000	25.169106	0.000848	20.843314
1350.401110	-3.026100	3.549300	-10.740000	25.176563	0.000848	20.839895
1351.391358	-2.997600	3.548000	-10.635000	25.165974	0.000847	20.849179
1352.426526	-3.012400	3.548200	-10.687000	25.207162	0.000845	20.848330
1353.430128	-2.994000	3.549000	-10.625000	25.246387	0.000847	20.848829
1354.402205	-3.002200	3.547400	-10.649000	25.270845	0.000846	20.842091
1355.405712	-3.017600	3.547100	-10.703000	25.278301	0.000847	20.852896
1356.397612	-3.021100	3.546300	-10.713000	25.293239	0.000846	20.818583
1357.406621	-2.993200	3.546800	-10.615000	25.294656	0.000844	20.857937
1358.399908	-2.993400	3.546000	-10.614000	25.306760	0.000844	20.839271
1359.394277	-3.013700	3.547000	-10.689000	25.318840	0.000844	20.843813
1360.399598	-3.000200	3.546500	-10.639000	25.371132	0.000842	20.854118
1361.394889	-2.997900	3.544700	-10.626000	25.335219	0.000842	20.849352
1362.396504	-3.011400	3.545300	-10.675000	25.355301	0.000842	20.826843
1363.404438	-3.015200	3.546500	-10.693000	25.314068	0.000842	20.833332
1364.405522	-3.002400	3.545400	-10.644000	25.327365	0.000839	20.853320
1365.400007	-3.011100	3.543400	-10.669000	25.314042	0.000838	20.839944
1366.404441	-3.004300	3.545100	-10.649000	25.325799	0.000839	20.844161
1367.400909	-2.959400	3.545100	-10.490000	25.344514	0.000840	20.846831
1368.399923	-2.996600	3.543500	-10.617000	25.354729	0.000840	20.840967
1369.409520	-3.020500	3.543100	-10.700000	25.358183	0.000838	20.838272
1370.401906	-2.984100	3.544800	-10.576000	25.352715	0.000838	20.835152
1371.424031	-2.998000	3.542500	-10.619000	25.347223	0.000837	20.838646
1372.419841	-3.006400	3.541900	-10.647000	25.378663	0.000837	20.846981
1373.422191	-3.004900	3.542100	-10.641000	25.370287	0.000835	20.830511
1374.424580	-3.017900	3.540300	-10.682000	25.346874	0.000837	20.839719
1375.426607	-2.996700	3.542400	-10.613000	25.315061	0.000835	20.834329
1376.441892	-2.997500	3.539800	-10.610000	25.291448	0.000834	20.850449
1377.431625	-3.030400	3.540200	-10.726000	25.289857	0.000833	20.828938
1378.401221	-3.001600	3.540700	-10.626000	25.329326	0.000834	20.861927
1379.402864	-2.993400	3.539600	-10.594000	25.329326	0.000831	20.839643
1380.409382	-3.004100	3.539400	-10.631000	25.347122	0.000832	20.823847
1381.414352	-3.021400	3.537400	-10.687000	25.361139	0.000831	20.828912
1382.401522	-3.002200	3.540400	-10.628000	25.368422	0.000833	20.836224
1383.401040	-3.011700	3.539100	-10.658000	25.366657	0.000831	20.829711
1384.423035	-2.994700	3.538100	-10.595000	25.300221	0.000832	20.827016
1385.429905	-2.987400	3.537100	-10.566000	25.319608	0.000831	20.834153
1386.405047	-2.995600	3.538400	-10.599000	25.312127	0.000828	20.830909
1387.411634	-3.014000	3.536700	-10.659000	25.314090	0.000830	20.832406
1388.406537	-2.993000	3.537200	-10.586000	25.300768	0.000830	20.832780
1389.424819	-3.020900	3.537000	-10.683000	25.278771	0.000829	20.809272
1390.424747	-2.998400	3.537500	-10.606000	25.299202	0.000829	20.838794
1391.399595	-2.993500	3.536400	-10.585000	25.287793	0.000827	20.824021
1392.431027	-2.985400	3.537000	-10.558000	25.307156	0.000828	20.816909
1393.417208	-2.990500	3.536700	-10.576000	25.310784	0.000827	20.823397
1394.433728	-3.018800	3.534700	-10.670000	25.323833	0.000825	20.797144
1395.415445	-3.019700	3.535300	-10.673000	25.336484	0.000826	20.818381
1396.436185	-3.000100	3.535500	-10.606000	25.379058	0.000823	20.791903
1397.408453	-2.990300	3.534400	-10.568000	25.374560	0.000824	20.823422
1398.410034	-2.977100	3.535400	-10.523000	25.409578	0.000824	20.812591
1399.407203	-2.993400	3.534100	-10.578000	25.402942	0.000823	20.835325
1400.413630	-2.999400	3.532700	-10.594000	25.413803	0.000822	20.830110
1401.411883	-3.000000	3.532500	-10.595000	25.413704	0.000821	20.806777
1402.407524	-2.992000	3.534200	-10.573000	25.404607	0.000821	20.802859
1403.420624	-3.009400	3.532600	-10.630000	25.385347	0.000821	20.817184
1404.408904	-3.003500	3.532200	-10.608000	25.353559	0.000820	20.821301
1405.427939	-3.007700	3.531100	-10.620000	25.343021	0.000819	20.797444
1406.429338	-2.976600	3.532700	-10.514000	25.300197	0.000819	20.806603
1407.427582	-3.009300	3.531500	-10.626000	25.324927	0.000820	20.805355
1408.408783	-3.007400	3.531400	-10.619000	25.318043	0.000820	20.802710
1409.411777	-2.993200	3.530600	-10.567000	25.297289	0.000816	20.833080
1410.410839	-2.997500	3.530400	-10.582000	25.322591	0.000816	20.797793
1411.413920	-2.992700	3.529100	-10.560000	25.310836	0.000819	20.828664
1412.409627	-3.023100	3.529600	-10.668000	25.279468	0.000815	20.797644
1413.415020	-2.989300	3.529600	-10.550000	25.269128	0.000814	20.822350
1414.412409	-3.010800	3.528400	-10.623000	25.285408	0.000816	20.805031
1415.416807	-3.002900	3.528300	-10.594000	25.294133	0.000813	20.801937
1416.414877	-3.001600	3.527700	-10.588000	25.287149	0.000814	20.799666
1417.413800	-2.998200	3.528500	-10.579000	25.283569	0.000813	20.801762
1418.414678	-2.990700	3.528600	-10.552000	25.292692	0.000813	20.809499
1419.413889	-2.979400	3.529200	-10.514000	25.284663	0.000812	20.805231
1420.417538	-2.979000	3.526800	-10.506000	25.279841	0.000811	20.806554
1421.415750	-3.024800	3.526100	-10.664000	25.284291	0.000810	20.793478
1422.415954	-3.008400	3.525800	-10.606000	25.280736	0.000810	20.812668
1423.417588	-2.991900	3.526400	-10.548000	25.296992	0.000810	20.810023
1424.414054	-3.022400	3.525600	-10.654000	25.318019	0.000810	20.796522
1425.420613	-3.040800	3.524000	-10.715000	25.340114	0.000811	20.812069
1426.413870	-3.009200	3.524300	-10.605000	25.317646	0.000809	20.804209
1427.427376	-2.993400	3.523600	-10.546000	25.340289	0.000810	20.797545
1428.419821	-2.990700	3.523200	-10.535000	25.346154	0.000809	20.791581
1429.442936	-2.997200	3.524900	-10.564000	25.356891	0.000807	20.794775
1430.438590	-3.001200	3.525100	-10.579000	25.336635	0.000808	20.794825
1431.439782	-2.979000	3.522800	-10.494000	25.327812	0.000806	20.807777
1432.433995	-3.016400	3.523100	-10.627000	25.326892	0.000807	20.789785
1433.441185	-2.978500	3.523200	-10.493000	25.333007	0.000807	20.795924
1434.448537	-3.015000	3.522600	-10.620000	25.282477	0.000805	20.781225
1435.456553	-2.990500	3.522600	-10.534000	25.287622	0.000805	20.786865
1436.431441	-2.999500	3.522100	-10.563000	25.228564	0.000804	20.776883
1437.427234	-3.000400	3.520500	-10.562000	25.209574	0.000805	20.775835
1438.438949	-2.987200	3.521200	-10.518000	25.254813	0.000804	20.763882
1439.438982	-2.995900	3.519900	-10.544000	25.265203	0.000802	20.798021
1440.438890	-3.007500	3.520700	-10.587000	25.276512	0.000803	20.813169
1441.422846	-3.015400	3.519000	-10.610000	25.292868	0.000802	20.808253
1442.421371	-2.997200	3.517800	-10.542000	25.299977	0.000803	20.796899
1443.420280	-3.027800	3.518800	-10.652000	25.338178	0.000801	20.770770
1444.413422	-2.988900	3.519700	-10.519000	25.333058	0.000801	20.793131
1445.417773	-3.014800	3.518200	-10.606000	25.358757	0.000800	20.801390
1446.432649	-3.007700	3.517800	-10.580000	25.367406	0.000799	20.793006
1447.432358	-2.998600	3.519200	-10.552000	25.382940	0.000799	20.791060
1448.433940	-3.016600	3.517100	-10.608000	25.379336	0.000799	20.790760
1449.430491	-3.014000	3.517900	-10.602000	25.360895	0.000798	20.793106
1450.420228	-2.990900	3.515800	-10.515000	25.362709	0.000798	20.792556
1451.420018	-3.001000	3.517800	-10.555000	25.373596	0.000796	20.795427
1452.423748	-3.024600	3.516000	-10.634000	25.382120	0.000796	20.772692
1453.421433	-2.993600	3.516300	-10.526000	25.418753	0.000796	20.790511
1454.424133	-3.018400	3.515500	-10.609000	25.415870	0.000794	20.786193
1455.421025	-2.994000	3.517200	-10.530000	25.432372	0.000795	20.791858
1456.426451	-3.005000	3.515200	-10.562000	25.432372	0.000796	20.784746
1457.438188	-2.980400	3.515200	-10.474000	25.449022	0.000795	20.780603
1458.433914	-3.006600	3.514300	-10.565000	25.450912	0.000793	20.810949
1459.432986	-2.987000	3.514500	-10.496000	25.462318	0.000794	20.797747
1460.440753	-2.984800	3.514400	-10.488000	25.472631	0.000794	20.773964
1461.450386	-3.007400	3.513400	-10.565000	25.474818	0.000793	20.800343
1462.446259	-2.995700	3.514400	-10.526000	25.485678	0.000790	20.771419
1463.449036	-3.000200	3.514100	-10.541000	25.471588	0.000791	20.799944
1464.448125	-3.013700	3.511400	-10.582000	25.450041	0.000791	20.793480
1465.441621	-2.977500	3.513300	-10.460000	25.447134	0.000789	20.790560
1466.422694	-2.989400	3.512900	-10.500000	25.451931	0.000790	20.794429
1467.425055	-2.984900	3.512300	-10.483000	25.434533	0.000789	20.770320
1468.433171	-2.991700	3.511900	-10.505000	25.432745	0.000789	20.785594
1469.438407	-2.995400	3.510800	-10.516000	25.444773	0.000789	20.787241
1470.428709	-2.996000	3.510700	-10.516000	25.455733	0.000788	20.781651
1471.441346	-3.009300	3.509700	-10.560000	25.431477	0.000786	20.769148
1472.450235	-2.993700	3.510400	-10.508000	25.409955	0.000787	20.793056
1473.440307	-2.994300	3.509600	-10.508000	25.405556	0.000786	20.786268
1474.444012	-3.015600	3.509200	-10.581000	25.393354	0.000787	20.795352
1475.466453	-3.005300	3.507300	-10.540000	25.410203	0.000785	20.799469
1476.454432	-3.001700	3.508500	-10.530000	25.418032	0.000786	20.777458
1477.447502	-2.977700	3.507600	-10.443000	25.383661	0.000785	20.783248
1478.447698	-2.996900	3.506600	-10.508000	25.380603	0.000786	20.777333
1479.451501	-2.994400	3.509200	-10.507000	25.368127	0.000784	20.793729
1480.450525	-3.026700	3.507100	-10.613000	25.336065	0.000783	20.795676
1481.434450	-2.999300	3.506300	-10.516000	25.338948	0.000783	20.795725
1482.451575	-2.993000	3.506400	-10.493000	25.344764	0.000783	20.766951
1483.451400	-3.020600	3.506000	-10.589000	25.356967	0.000783	20.784420
1484.458094	-2.996500	3.506400	-10.505000	25.380503	0.000781	20.765853
1485.447496	-2.982500	3.507100	-10.459000	25.392209	0.000780	20.793728
1486.448382	-2.998600	3.504900	-10.508000	25.405281	0.000781	20.792156
1487.462309	-2.994500	3.505200	-10.495000	25.431500	0.000779	20.778655
1488.450249	-3.017700	3.503300	-10.569000	25.417931	0.000778	20.787789
1489.457742	-2.978900	3.504500	-10.439000	25.421957	0.000779	20.785667
1490.451696	-2.996800	3.504800	-10.501000	25.448375	0.000779	20.797970
1491.454414	-2.991000	3.502800	-10.476000	25.476233	0.000776	20.775210
1492.449874	-3.000600	3.503800	-10.513000	25.442782	0.000778	20.787613
1493.445621	-2.997400	3.503900	-10.501000	25.422230	0.000778	20.780725
1494.445806	-3.007900	3.503800	-10.538000	25.391237	0.000775	20.781847
1495.459625	-2.981700	3.503200	-10.445000	25.361463	0.000775	20.787512
1496.436661	-2.987700	3.503600	-10.467000	25.343419	0.000776	20.783145
1497.435838	-2.972700	3.502500	-10.411000	25.306410	0.000775	20.780125
1498.438675	-3.013100	3.500900	-10.547000	25.276037	0.000776	20.788510
1499.466822	-2.983500	3.500600	-10.444000	25.269971	0.000775	20.787636
1500.429578	-3.021000	3.499600	-10.572000	25.282599	0.000775	20.782770
1501.450453	-2.997300	3.500100	-10.489000	25.282772	0.000773	20.769193
1502.462765	-2.996300	3.501200	-10.490000	25.301711	0.000772	20.793425
1503.443522	-3.002100	3.499600	-10.506000	25.297039	0.000771	20.775931
1504.464478	-3.020500	3.498300	-10.566000	25.319134	0.000772	20.773934
1505.446583	-3.007400	3.498800	-10.522000	25.299896	0.000771	20.769317
1506.454278	-3.027200	3.498000	-10.588000	25.319457	0.000772	20.786586
1507.456073	-2.992300	3.497200	-10.464000	25.341353	0.000769	20.776803
1508.447233	-3.001800	3.497400	-10.497000	25.378485	0.000771	20.786586
1509.470977	-2.987900	3.496300	-10.446000	25.377342	0.000770	20.788757
1510.466163	-3.005200	3.497400	-10.509000	25.351841	0.000769	20.807249
1511.470770	-2.994600	3.497400	-10.472000	25.330715	0.000767	20.792674
1512.460860	-3.000100	3.495600	-10.486000	25.318984	0.000769	20.795595
1513.459802	-3.003800	3.494600	-10.496000	25.298627	0.000768	20.776578
1514.462910	-3.025000	3.493500	-10.567000	25.344136	0.000766	20.809469
1515.478613	-3.012900	3.493900	-10.525000	25.357433	0.000766	20.811915
1516.465011	-2.999500	3.494400	-10.480000	25.397571	0.000767	20.784888
1517.460184	-3.001700	3.494200	-10.488000	25.426151	0.000765	20.774705
1518.463890	-2.973600	3.493500	-10.386000	25.450729	0.000765	20.791326
1519.452531	-3.017500	3.494300	-10.543000	25.464745	0.000764	20.798762
1520.467156	-2.991700	3.493500	-10.450000	25.496703	0.000764	20.778223
1521.465707	-2.982900	3.494200	-10.422000	25.502021	0.000763	20.791150
1522.466790	-2.996100	3.492600	-10.463000	25.472250	0.000765	20.784013
1523.474078	-2.995500	3.492100	-10.460000	25.463303	0.000762	20.800159
1524.462874	-2.999400	3.491900	-10.473000	25.438327	0.000764	20.801631
1525.459010	-2.973200	3.493500	-10.385000	25.441235	0.000761	20.788904
1526.464144	-3.026600	3.490700	-10.563000	25.460718	0.000763	20.794718
1527.463083	-2.998600	3.490700	-10.466000	25.473715	0.000763	20.791174
1528.467350	-3.015900	3.491400	-10.528000	25.422321	0.000761	20.795516
1529.461073	-3.015200	3.489400	-10.520000	25.425751	0.000760	20.806546
1530.470753	-2.990300	3.490300	-10.436000	25.424334	0.000761	20.795641
1531.464173	-2.985400	3.489600	-10.417000	25.454057	0.000761	20.795615
1532.465967	-2.993800	3.490900	-10.450000	25.446924	0.000759	20.787030
1533.472186	-3.000200	3.489500	-10.468000	25.463847	0.000759	20.781265
1534.460857	-3.015300	3.487600	-10.515000	25.464767	0.000759	20.803526
1535.460977	-3.024600	3.489400	-10.552000	25.499136	0.000757	20.798210
1536.474716	-2.993400	3.487500	-10.437000	25.488201	0.000757	20.805721
1537.472976	-3.009700	3.487900	-10.497000	25.508380	0.000757	20.806070
1538.479630	-3.004700	3.488000	-10.479000	25.528855	0.000756	20.799132
1539.468881	-2.995200	3.486500	-10.442000	25.522941	0.000756	20.804573
1540.474536	-3.007600	3.486100	-10.484000	25.480745	0.000756	20.803449
1541.472020	-3.001300	3.485000	-10.457000	25.476247	0.000754	20.815053
1542.482082	-3.024000	3.485400	-10.539000	25.471103	0.000754	20.809413
1543.474400	-2.999100	3.485600	-10.453000	25.498388	0.000754	20.814529
1544.469818	-2.984800	3.485100	-10.402000	25.491729	0.000752	20.786978
1545.470552	-3.041000	3.484800	-10.595000	25.427264	0.000753	20.812807
1546.469627	-2.986100	3.485000	-10.405000	25.410886	0.000751	20.803473
1547.468334	-3.009600	3.483300	-10.482000	25.425027	0.000753	20.807716
1548.471562	-3.003000	3.483200	-10.459000	25.426343	0.000753	20.798606
1549.476456	-2.994800	3.483200	-10.430000	25.450152	0.000752	20.805918
1550.468311	-3.004300	3.482000	-10.460000	25.430991	0.000750	20.817972
1551.472350	-3.023200	3.483100	-10.529000	25.465460	0.000749	20.797109
1552.472219	-3.018500	3.482300	-10.510000	25.472617	0.000750	20.813305
1553.475126	-3.016400	3.482300	-10.502000	25.474878	0.000750	20.798506
1554.476394	-3.008900	3.479900	-10.470000	25.498859	0.000749	20.809311
1555.475336	-2.980100	3.482800	-10.377000	25.465435	0.000747	20.822687
1556.485569	-2.994600	3.481400	-10.425000	25.465558	0.000749	20.799579
1557.467880	-3.001600	3.480000	-10.444000	25.465310	0.000746	20.796484
1558.473114	-3.002700	3.481000	-10.451000	25.452387	0.000746	20.808163
1559.471353	-3.017000	3.479600	-10.496000	25.454648	0.000747	20.803321
1560.471171	-2.980400	3.480700	-10.372000	25.502014	0.000747	20.810584
1561.469430	-2.985000	3.479400	-10.385000	25.479822	0.000746	20.806316
1562.470240	-2.983500	3.480000	-10.380000	25.476740	0.000745	20.807014
1563.482821	-2.996500	3.478300	-10.421000	25.498410	0.000745	20.813128
1564.477283	-3.008500	3.479200	-10.466000	25.498062	0.000744	20.832692
1565.484938	-3.022300	3.477700	-10.510000	25.520577	0.000744	20.806939
1566.469329	-2.991600	3.477200	-10.401000	25.506287	0.000743	20.809659
1567.481626	-3.005800	3.477100	-10.451000	25.492670	0.000745	20.820165
1568.469718	-3.045400	3.474400	-10.579000	25.491974	0.000742	20.790069
1569.487888	-3.008800	3.475000	-10.454000	25.467545	0.000742	20.810108
1570.476111	-3.035500	3.475100	-10.549000	25.460835	0.000742	20.817594
1571.470015	-3.001000	3.477000	-10.433000	25.450422	0.000742	20.815673
1572.476902	-2.991200	3.476400	-10.398000	25.428279	0.000741	20.803395
1573.478652	-2.980900	3.474800	-10.357000	25.417717	0.000742	20.826928
1574.477656	-3.002300	3.475000	-10.431000	25.447465	0.000741	20.811755
1575.468863	-2.981700	3.474800	-10.360000	25.441451	0.000740	20.821364
1576.472957	-3.020500	3.472900	-10.488000	25.433821	0.000741	20.828400
1577.467998	-3.021200	3.473400	-10.493000	25.452087	0.000740	20.817345
1578.492084	-2.988600	3.474000	-10.382000	25.453380	0.000738	20.806315
1579.494321	-3.001900	3.473400	-10.425000	25.438394	0.000738	20.819242
1580.474154	-3.007600	3.472300	-10.442000	25.443911	0.000737	20.813402
1581.482584	-3.017700	3.471300	-10.473000	25.406559	0.000737	20.799129
1582.489913	-3.011900	3.472600	-10.457000	25.390777	0.000736	20.825481
1583.487574	-2.999600	3.469700	-10.407000	25.389783	0.000736	20.815949
1584.481521	-2.998800	3.469900	-10.404000	25.405589	0.000738	20.804319
1585.490034	-2.987000	3.471900	-10.370000	25.432878	0.000738	20.828401
1586.470602	-2.988700	3.469900	-10.369000	25.427534	0.000735	20.826355
1587.488956	-2.995000	3.471100	-10.395000	25.414090	0.000735	20.837036
1588.488593	-3.023800	3.468700	-10.488000	25.404173	0.000734	20.807639
1589.479297	-3.017900	3.468700	-10.467000	25.435736	0.000734	20.829849
1590.489549	-2.999000	3.468800	-10.402000	25.421296	0.000734	20.816771
1591.488406	-3.017600	3.467900	-10.463000	25.415456	0.000732	20.823709
1592.480020	-2.996800	3.468200	-10.393000	25.416053	0.000733	20.817197
1593.500169	-3.033200	3.466200	-10.513000	25.427335	0.000733	20.817146
1594.491835	-3.028600	3.465400	-10.494000	25.441600	0.000733	20.835263
1595.487443	-3.015100	3.466700	-10.450000	25.452684	0.000731	20.818419
1596.490152	-2.995100	3.466600	-10.382000	25.446795	0.000731	20.842850
1597.498322	-2.993800	3.466400	-10.376000	25.489191	0.000730	20.805767
1598.490217	-2.979600	3.465900	-10.326000	25.510016	0.000732	20.831420
1599.494747	-3.005300	3.465800	-10.414000	25.501020	0.000729	20.836137
1600.484042	-3.006700	3.464500	-10.415000	25.512054	0.000730	20.834889
1601.491526	-2.983200	3.465600	-10.338000	25.515408	0.000728	20.818818
1602.497297	-3.004700	3.463500	-10.406000	25.533424	0.000730	20.840703
1603.496610	-2.998200	3.463000	-10.382000	25.546769	0.000728	20.820440
1604.485029	-3.002400	3.464100	-10.400000	25.537176	0.000727	20.830247
1605.497962	-2.998300	3.464000	-10.384000	25.506785	0.000727	20.823909
1606.487475	-3.002200	3.462800	-10.395000	25.505766	0.000726	20.828575
1607.499374	-3.008000	3.462400	-10.414000	25.477013	0.000727	20.830522
1608.492109	-2.971300	3.462800	-10.289000	25.486630	0.000724	20.845868
1609.497801	-2.996400	3.461100	-10.369000	25.476243	0.000723	20.845394
1610.495651	-2.998200	3.461900	-10.379000	25.488693	0.000725	20.835612
1611.496483	-3.004300	3.461800	-10.399000	25.506610	0.000725	20.837009
1612.494120	-3.015400	3.460200	-10.433000	25.494930	0.000725	20.836659
1613.497366	-2.985200	3.461700	-10.332000	25.485462	0.000723	20.827626
1614.508733	-2.991300	3.460300	-10.349000	25.487996	0.000725	20.840127
1615.497507	-2.999200	3.460600	-10.379000	25.515530	0.000724	20.828898
1616.497863	-3.007100	3.459300	-10.402000	25.524675	0.000722	20.861788
1617.499982	-2.993400	3.458900	-10.353000	25.549202	0.000720	20.839004
1618.502267	-3.003300	3.459100	-10.388000	25.554842	0.000722	20.847513
1619.502305	-2.995400	3.457700	-10.356000	25.549226	0.000722	20.851356
1620.503448	-3.004800	3.458200	-10.389000	25.540628	0.000721	20.848886
1621.499811	-3.008500	3.457600	-10.401000	25.565228	0.000722	20.834237
1622.498468	-2.991900	3.456600	-10.341000	25.584511	0.000719	20.836059
1623.498599	-3.001900	3.455700	-10.372000	25.573776	0.000719	20.848036
1624.500957	-3.006100	3.455400	-10.385000	25.560780	0.000720	20.855847
1625.494577	-2.987100	3.456000	-10.323000	25.569004	0.000719	20.829969
1626.486594	-3.000100	3.455100	-10.364000	25.551063	0.000719	20.866003
1627.486405	-3.004700	3.456200	-10.384000	25.540552	0.000716	20.840275
1628.495117	-2.995400	3.457300	-10.354000	25.564755	0.000717	20.839452
1629.516014	-3.007200	3.454600	-10.388000	25.561624	0.000718	20.844367
1630.501657	-2.990800	3.454400	-10.330000	25.548280	0.000716	20.845665
1631.508374	-2.993200	3.455100	-10.340000	25.542341	0.000716	20.841597
1632.505676	-3.003100	3.453900	-10.372000	25.563513	0.000714	20.873763
1633.496470	-2.992800	3.454300	-10.336000	25.543906	0.000716	20.867824
1634.505767	-2.994900	3.452400	-10.339000	25.557275	0.000713	20.848534
1635.500604	-3.002400	3.452600	-10.365000	25.521541	0.000717	20.848210
1636.511086	-3.021100	3.451900	-10.428000	25.529244	0.000712	20.856420
1637.504520	-3.018900	3.450800	-10.416000	25.520945	0.000713	20.848085
1638.500644	-3.003400	3.451400	-10.364000	25.524573	0.000712	20.858841
1639.491656	-2.995000	3.452500	-10.339000	25.519877	0.000714	20.843219
1640.500418	-3.010000	3.451900	-10.389000	25.506109	0.000711	20.841248
1641.491747	-2.971400	3.450900	-10.252000	25.485235	0.000711	20.880500
1642.496953	-3.021800	3.448600	-10.421000	25.456880	0.000713	20.870993
1643.494298	-3.011500	3.449000	-10.386000	25.423155	0.000713	20.856569
1644.510206	-3.014400	3.450400	-10.400000	25.390151	0.000710	20.863257
1645.500767	-2.992100	3.448700	-10.317000	25.412692	0.000710	20.876882
1646.502009	-3.006500	3.448800	-10.368000	25.435880	0.000709	20.871717
1647.496190	-2.979800	3.449600	-10.279000	25.436053	0.000708	20.858615
1648.500620	-3.013500	3.447400	-10.388000	25.471343	0.000708	20.855646
1649.504825	-3.001500	3.446500	-10.344000	25.455811	0.000707	20.871342
1650.501143	-3.008000	3.447100	-10.367000	25.469305	0.000708	20.871142
1651.509096	-3.008200	3.446600	-10.367000	25.492938	0.000706	20.868797
1652.495560	-3.013900	3.446700	-10.387000	25.471989	0.000706	20.854872
1653.491747	-2.986400	3.446000	-10.290000	25.483246	0.000708	20.867125
1654.513741	-3.006300	3.446300	-10.358000	25.510234	0.000707	20.870519
1655.508413	-2.996900	3.444900	-10.322000	25.525268	0.000707	20.856694
1656.509091	-3.000600	3.446100	-10.339000	25.552355	0.000707	20.890057
1657.494143	-3.010700	3.445400	-10.371000	25.536799	0.000706	20.880600
1658.517728	-2.978400	3.445600	-10.261000	25.524398	0.000705	20.878104
1659.503482	-3.012900	3.443900	-10.375000	25.495796	0.000705	20.855546
1660.511855	-3.024200	3.443600	-10.413000	25.512943	0.000703	20.850954
1661.504937	-3.005100	3.443900	-10.348000	25.530338	0.000703	20.880276
1662.513526	-2.977100	3.443100	-10.249000	25.543260	0.000705	20.866226
1663.513440	-3.013900	3.443000	-10.376000	25.550491	0.000701	20.879652
1664.509548	-2.992000	3.443300	-10.302000	25.565699	0.000703	20.865528
1665.509447	-2.999000	3.441300	-10.319000	25.554268	0.000703	20.886289
1666.508296	-3.003100	3.442300	-10.337000	25.570520	0.000703	20.887438
1667.508227	-3.011700	3.442500	-10.367000	25.583615	0.000702	20.893002
1668.509037	-2.984800	3.442200	-10.273000	25.566942	0.000701	20.882422
1669.513080	-2.991400	3.440900	-10.292000	25.557127	0.000702	20.900539
1670.519675	-2.997200	3.441300	-10.313000	25.560357	0.000700	20.894300
1671.498656	-3.006700	3.439500	-10.340000	25.569303	0.000699	20.877681
1672.503051	-3.004200	3.439700	-10.332000	25.572956	0.000698	20.892254
1673.496099	-2.985900	3.440200	-10.270000	25.563016	0.000698	20.877058
1674.488411	-3.017100	3.437900	-10.371000	25.578472	0.000697	20.874563
1675.495177	-2.999400	3.440300	-10.317000	25.533496	0.000699	20.886765
1676.489368	-3.015500	3.436900	-10.363000	25.568160	0.000697	20.907826
1677.498917	-2.991100	3.439000	-10.285000	25.539683	0.000695	20.893453
1678.494143	-2.984700	3.437200	-10.257000	25.531433	0.000696	20.891332
1679.494918	-2.985300	3.437200	-10.260000	25.560233	0.000696	20.881375
1680.507018	-2.984300	3.436300	-10.254000	25.578970	0.000697	20.869847
1681.497357	-3.016600	3.436800	-10.366000	25.597035	0.000696	20.898893
1682.500610	-3.003100	3.437100	-10.321000	25.597855	0.000695	20.901139
1683.490029	-3.024000	3.436700	-10.392000	25.634431	0.000694	20.890933
1684.486321	-2.984000	3.436500	-10.253000	25.641885	0.000696	20.897945
1685.490816	-3.016300	3.434700	-10.358000	25.651799	0.000693	20.909797
1686.493241	-3.022600	3.432900	-10.376000	25.613931	0.000693	20.913964
1687.491434	-2.983900	3.435400	-10.250000	25.625684	0.000692	20.917233
1688.495914	-2.989000	3.435400	-10.268000	25.634282	0.000693	20.906903
1689.492113	-2.999300	3.434100	-10.299000	25.645339	0.000691	20.904258
1690.487870	-3.015200	3.433200	-10.351000	25.673068	0.000690	20.911719
1691.494004	-2.980200	3.432300	-10.228000	25.677565	0.000691	20.915287
1692.494366	-3.015300	3.432500	-10.349000	25.679776	0.000690	20.880053
1693.488257	-2.988700	3.432900	-10.259000	25.702808	0.000689	20.909822
1694.495481	-3.002900	3.431500	-10.303000	25.731282	0.000689	20.912342
1695.498478	-2.999800	3.431700	-10.293000	25.731257	0.000689	20.902361
1696.496872	-2.994500	3.431600	-10.275000	25.682311	0.000689	20.914838
1697.491049	-3.005700	3.429300	-10.307000	25.719281	0.000688	20.909772
1698.498890	-2.999400	3.431100	-10.291000	25.743083	0.000688	20.909024
1699.497737	-3.017300	3.431300	-10.352000	25.730213	0.000687	20.906054
1700.498628	-3.027500	3.430100	-10.383000	25.723033	0.000686	20.923971
1701.498018	-2.991900	3.430900	-10.264000	25.735555	0.000686	20.906678
1702.496905	-3.011700	3.429000	-10.326000	25.721418	0.000687	20.905754
1703.494954	-3.030000	3.428400	-10.386000	25.693516	0.000687	20.906653
1704.493813	-2.995900	3.427800	-10.268000	25.672297	0.000684	20.908574
1705.502041	-2.989200	3.428600	-10.247000	25.681714	0.000684	20.918505
1706.493263	-2.983500	3.427800	-10.226000	25.709144	0.000684	20.911918
1707.494767	-2.993400	3.427000	-10.257000	25.698137	0.000684	20.930258
1708.493648	-3.008400	3.428100	-10.312000	25.698908	0.000683	20.907326
1709.501521	-2.981000	3.426700	-10.214000	25.725418	0.000684	20.914039
1710.497032	-3.025500	3.426600	-10.367000	25.736871	0.000682	20.915112
1711.497898	-3.006500	3.426000	-10.299000	25.734586	0.000682	20.910445
1712.497996	-2.991300	3.426900	-10.250000	25.719504	0.000681	20.918056
1713.495049	-2.972900	3.426500	-10.186000	25.724896	0.000681	20.922048
1714.497460	-2.995300	3.424900	-10.257000	25.765219	0.000680	20.926989
1715.499226	-2.995500	3.426000	-10.260000	25.755952	0.000680	20.927164
1716.502824	-3.026200	3.423900	-10.360000	25.796349	0.000678	20.927912
1717.497920	-3.008000	3.424300	-10.299000	25.799852	0.000679	20.923371
1718.495745	-3.014200	3.423500	-10.318000	25.781244	0.000679	20.917483
1719.497609	-3.026800	3.422700	-10.359000	25.771952	0.000679	20.925218
1720.498192	-2.992100	3.424000	-10.244000	25.759753	0.000679	20.926241
1721.498927	-3.001500	3.422200	-10.270000	25.777815	0.000679	20.911194
1722.500384	-2.998800	3.422600	-10.261000	25.773866	0.000677	20.931406
1723.501635	-2.997900	3.423200	-10.261000	25.733393	0.000676	20.898343
1724.503165	-2.962700	3.422800	-10.139000	25.756946	0.000676	20.912991
1725.502075	-3.008000	3.421100	-10.289000	25.736500	0.000676	20.896722
1726.503635	-2.994100	3.421200	-10.242000	25.688447	0.000675	20.906303
1727.498657	-2.992200	3.420900	-10.235000	25.683279	0.000674	20.898743
1728.501989	-3.000500	3.421600	-10.265000	25.670161	0.000674	20.914963
1729.500708	-2.992200	3.420300	-10.233000	25.674906	0.000673	20.908350
1730.505975	-2.989500	3.420600	-10.225000	25.630654	0.000673	20.917957
1731.505362	-3.026900	3.419300	-10.349000	25.646357	0.000674	20.889160
1732.507044	-3.006800	3.418900	-10.279000	25.651774	0.000674	20.892230
1733.504390	-3.002500	3.419700	-10.267000	25.630381	0.000672	20.898718
1734.503218	-2.983500	3.418600	-10.198000	25.648246	0.000673	20.898169
1735.500615	-3.007700	3.417800	-10.278000	25.662508	0.000673	20.907751
1736.502678	-3.041300	3.417100	-10.391000	25.649538	0.000671	20.889984
1737.505271	-2.999900	3.418000	-10.253000	25.633412	0.000671	20.907451
1738.500981	-2.996100	3.418400	-10.241000	25.637934	0.000670	20.909148
1739.501669	-3.016900	3.416300	-10.305000	25.565154	0.000670	20.878730
1740.505186	-2.996500	3.416300	-10.237000	25.574372	0.000670	20.915012
1741.503702	-2.999900	3.416700	-10.249000	25.590872	0.000669	20.906453
1742.504235	-3.013200	3.415400	-10.290000	25.629187	0.000669	20.894201
1743.506360	-2.988700	3.415800	-10.208000	25.605284	0.000667	20.908599
1744.504812	-2.994200	3.415500	-10.225000	25.585206	0.000666	20.883221
1745.505352	-3.022600	3.413000	-10.315000	25.588188	0.000668	20.883371
1746.505809	-3.007300	3.414200	-10.267000	25.548032	0.000667	20.888561
1747.506954	-3.000200	3.414600	-10.244000	25.543906	0.000666	20.882522
1748.506388	-2.997700	3.414500	-10.235000	25.540999	0.000666	20.895723
1749.516046	-2.974000	3.414600	-10.153000	25.604314	0.000666	20.885816
1750.507954	-3.010100	3.413700	-10.275000	25.597431	0.000665	20.887437
1751.505117	-3.018900	3.411900	-10.298000	25.595517	0.000665	20.859913
1752.507905	-3.014200	3.412600	-10.284000	25.586994	0.000663	20.879802
1753.507867	-3.008400	3.411700	-10.263000	25.526038	0.000662	20.859838
1754.508147	-3.008900	3.411200	-10.263000	25.518136	0.000662	20.884617
1755.514923	-3.000000	3.411300	-10.233000	25.485954	0.000663	20.871267
1756.508591	-3.017500	3.410300	-10.290000	25.476014	0.000663	20.874561
1757.511761	-2.997000	3.409700	-10.217000	25.518732	0.000662	20.869095
1758.511116	-2.999800	3.410100	-10.228000	25.516173	0.000661	20.887861
1759.511041	-3.003400	3.409900	-10.240000	25.540749	0.000661	20.862283
1760.513898	-2.997800	3.408800	-10.218000	25.598349	0.000661	20.858016
1761.509958	-3.008500	3.410700	-10.258000	25.594323	0.000659	20.862507
1762.510328	-3.002500	3.409600	-10.236000	25.615841	0.000659	20.850928
1763.514985	-2.994100	3.408500	-10.205000	25.640043	0.000661	20.870492
1764.514758	-3.000800	3.410100	-10.230000	25.612238	0.000659	20.852525
1765.516694	-3.011000	3.406900	-10.258000	25.588980	0.000660	20.874684
1766.515106	-3.002400	3.409200	-10.235000	25.542885	0.000657	20.867747
1767.514967	-2.994600	3.410200	-10.211000	25.488637	0.000657	20.861633
1768.514759	-2.995200	3.407100	-10.203000	25.511947	0.000655	20.852325
1769.514262	-3.006000	3.405400	-10.236000	25.547656	0.000657	20.861159
1770.522175	-3.004900	3.407200	-10.237000	25.559111	0.000657	20.862706
1771.514994	-2.996500	3.406000	-10.205000	25.604013	0.000655	20.867497
1772.520176	-2.987100	3.406600	-10.175000	25.623345	0.000655	20.862731
1773.517771	-2.988900	3.404800	-10.176000	25.645260	0.000653	20.846810
1774.525993	-2.990500	3.405100	-10.182000	25.620537	0.000654	20.867497
1775.516796	-2.990100	3.405300	-10.181000	25.645632	0.000653	20.850029
1776.520405	-2.993400	3.405300	-10.193000	25.674555	0.000653	20.852999
1777.519897	-2.993800	3.403300	-10.188000	25.663622	0.000652	20.867622
1778.518304	-3.003900	3.403800	-10.222000	25.695898	0.000651	20.848357
1779.521100	-3.005200	3.402400	-10.224000	25.673908	0.000652	20.849979
1780.519081	-3.013100	3.402200	-10.250000	25.662454	0.000653	20.867397
1781.527627	-3.009800	3.404200	-10.245000	25.653584	0.000651	20.853273
1782.526110	-2.998200	3.402400	-10.200000	25.681039	0.000651	20.864727
1783.524953	-3.017000	3.401500	-10.260000	25.713190	0.000649	20.860510
1784.520590	-2.995300	3.401900	-10.189000	25.720246	0.000648	20.857166
1785.528005	-2.991100	3.402700	-10.177000	25.735426	0.000649	20.848706
1786.528229	-2.983100	3.402500	-10.149000	25.766184	0.000648	20.824600
1787.523158	-2.969900	3.402100	-10.103000	25.761613	0.000648	20.850354
1788.527877	-3.000500	3.401700	-10.205000	25.754259	0.000647	20.847708
1789.520905	-2.986800	3.400500	-10.155000	25.728694	0.000646	20.839099
1790.526097	-2.990400	3.400000	-10.166000	25.715203	0.000648	20.846411
1791.525678	-3.007600	3.399700	-10.225000	25.703177	0.000646	20.853772
1792.524926	-2.996000	3.400000	-10.185000	25.650925	0.000644	20.854870
1793.524568	-3.010700	3.399700	-10.235000	25.629606	0.000646	20.834408
1794.525165	-3.022800	3.398100	-10.270000	25.633830	0.000648	20.838175
1795.525745	-2.995900	3.398400	-10.180000	25.642005	0.000645	20.833110
1796.528766	-2.981200	3.399200	-10.132000	25.633954	0.000643	20.841145
1797.528619	-3.019100	3.396000	-10.252000	25.615815	0.000643	20.856592
1798.534062	-2.989000	3.398300	-10.156000	25.637507	0.000646	20.836179
1799.522889	-3.023300	3.396700	-10.268000	25.643644	0.000642	20.842817
1800.525975	-3.001400	3.397400	-10.196000	25.666901	0.000642	20.849105
1801.529133	-2.998600	3.395500	-10.180000	25.643048	0.000640	20.849804
1802.531737	-3.002600	3.395700	-10.195000	25.658453	0.000641	20.840621
1803.529311	-2.991000	3.396500	-10.156000	25.694481	0.000640	20.822279
1804.524837	-3.021400	3.394800	-10.256000	25.665883	0.000641	20.827695
1805.524364	-3.013200	3.393800	-10.225000	25.681685	0.000639	20.832186
1806.530758	-2.985100	3.394700	-10.133000	25.676517	0.000640	20.846910
1807.532818	-2.982600	3.395500	-10.127000	25.684915	0.000639	20.835905
1808.534839	-3.014500	3.395000	-10.233000	25.689214	0.000639	20.830265
1809.527769	-3.003500	3.392900	-10.189000	25.677436	0.000638	20.830764
1810.529578	-3.008900	3.394400	-10.212000	25.656367	0.000639	20.856542
1811.529469	-2.983400	3.395200	-10.128000	25.650528	0.000635	20.835980
1812.535034	-3.024700	3.392200	-10.260000	25.589278	0.000636	20.838475
1813.536630	-3.006900	3.391500	-10.196000	25.583811	0.000638	20.847209
1814.528908	-2.991300	3.392900	-10.148000	25.596534	0.000635	20.829167
1815.540900	-2.995900	3.393400	-10.165000	25.619220	0.000636	20.844839
1816.532201	-3.029900	3.390500	-10.270000	25.633780	0.000636	20.843815
1817.532321	-2.999700	3.392500	-10.175000	25.651745	0.000636	20.837202
1818.540061	-2.982800	3.391000	-10.114000	25.715501	0.000632	20.837702
1819.537187	-3.008000	3.390700	-10.198000	25.710234	0.000635	20.816291
1820.537772	-3.001800	3.389800	-10.175000	25.706408	0.000633	20.829043
1821.543393	-2.993000	3.390300	-10.146000	25.703500	0.000633	20.830390
1822.534208	-3.003900	3.390200	-10.183000	25.702159	0.000631	20.835206
1823.536616	-2.976400	3.390000	-10.088000	25.662405	0.000631	20.817090
1824.538368	-3.003000	3.389400	-10.177000	25.705066	0.000632	20.819635
1825.536165	-2.989100	3.388600	-10.128000	25.725414	0.000632	20.826323
1826.539604	-3.005200	3.388300	-10.181000	25.715750	0.000629	20.816615
1827.537035	-3.003800	3.388000	-10.176000	25.702929	0.000631	20.839773
1828.536921	-3.006300	3.386400	-10.179000	25.764471	0.000631	20.822405
1829.536983	-3.011300	3.387700	-10.201000	25.753465	0.000630	20.821781
1830.538601	-3.017600	3.386800	-10.219000	25.755850	0.000630	20.818487
1831.546854	-2.997900	3.386100	-10.150000	25.773664	0.000629	20.822630
1832.537764	-3.006500	3.387400	-10.184000	25.761043	0.000628	20.805685
1833.539564	-3.003800	3.385400	-10.167000	25.736671	0.000628	20.795429
1834.541553	-3.025300	3.386700	-10.244000	25.782881	0.000628	20.827147
1835.541895	-2.981100	3.385100	-10.090000	25.758484	0.000626	20.820659
1836.547379	-2.980200	3.386600	-10.092000	25.745814	0.000628	20.822156
1837.538046	-2.990200	3.387000	-10.127000	25.737565	0.000625	20.822880
1838.538828	-2.980900	3.385900	-10.092000	25.713316	0.000624	20.818438
1839.539574	-3.014800	3.385000	-10.205000	25.680122	0.000626	20.832039
1840.542680	-3.010800	3.383500	-10.186000	25.670954	0.000625	20.811451
1841.544153	-2.985900	3.384800	-10.106000	25.665960	0.000623	20.789366
1842.546790	-2.998600	3.384100	-10.146000	25.715702	0.000623	20.821783
1843.545056	-2.995700	3.381900	-10.131000	25.720348	0.000623	20.807010
1844.544724	-3.021600	3.382700	-10.220000	25.742957	0.000623	20.814546
1845.543387	-2.996400	3.381700	-10.132000	25.722112	0.000623	20.813997
1846.547848	-3.009800	3.383100	-10.181000	25.745715	0.000621	20.808307
1847.545973	-3.019600	3.382400	-10.213000	25.742585	0.000623	20.815120
1848.542641	-3.019300	3.380800	-10.206000	25.753616	0.000622	20.810553
1849.549432	-2.979800	3.381900	-10.077000	25.771852	0.000622	20.827448
1850.545683	-2.983400	3.382100	-10.089000	25.787405	0.000621	20.807509
1851.548157	-3.000800	3.381100	-10.146000	25.807429	0.000620	20.802493
1852.551167	-3.011500	3.379500	-10.177000	25.783107	0.000618	20.821684
1853.550753	-2.998600	3.380800	-10.137000	25.742337	0.000620	20.791164
1854.554321	-2.989200	3.379700	-10.102000	25.755058	0.000617	20.812476
1855.550478	-2.979900	3.379300	-10.069000	25.755803	0.000617	20.803268
1856.561936	-2.991200	3.378500	-10.105000	25.781716	0.000617	20.792312
1857.553640	-2.995700	3.378600	-10.120000	25.782362	0.000617	20.794858
1858.557482	-2.994100	3.378600	-10.115000	25.788921	0.000618	20.806662
1859.550086	-3.001500	3.378600	-10.140000	25.816050	0.000618	20.808783
1860.558297	-2.991200	3.378000	-10.103000	25.850905	0.000615	20.817717
1861.557000	-2.989400	3.377200	-10.095000	25.872742	0.000615	20.814997
1862.550611	-2.982700	3.377500	-10.073000	25.858408	0.000616	20.809133
1863.552147	-2.997900	3.377600	-10.125000	25.875773	0.000613	20.797180
1864.548701	-2.994300	3.376800	-10.111000	25.834361	0.000613	20.810581
1865.552657	-2.994900	3.376400	-10.111000	25.827156	0.000613	20.796232
1866.556088	-2.999000	3.376700	-10.126000	25.821691	0.000614	20.786000
1867.553846	-3.012300	3.374700	-10.163000	25.858234	0.000612	20.780984
1868.553669	-3.019900	3.375700	-10.192000	25.868097	0.000614	20.806539
1869.554136	-3.003800	3.375000	-10.137000	25.900342	0.000611	20.796257
1870.553205	-3.014400	3.374600	-10.171000	25.912663	0.000612	20.786824
1871.554545	-3.009100	3.374900	-10.154000	25.883599	0.000611	20.785601
1872.557209	-3.015600	3.373800	-10.172000	25.867625	0.000614	20.812228
1873.552555	-3.010900	3.374500	-10.159000	25.888170	0.000610	20.807263
1874.555849	-2.982500	3.375200	-10.066000	25.891648	0.000611	20.800799
1875.558877	-3.014300	3.373700	-10.168000	25.871476	0.000611	20.804243
1876.559661	-2.995600	3.372800	-10.103000	25.815183	0.000608	20.795584
1877.557514	-2.992500	3.372900	-10.093000	25.805072	0.000610	20.782583
1878.561693	-3.011300	3.373600	-10.158000	25.830933	0.000608	20.802871
1879.557592	-3.016400	3.372200	-10.171000	25.822264	0.000608	20.803171
1880.564109	-3.003300	3.372300	-10.127000	25.832275	0.000606	20.787623
1881.561331	-2.987100	3.373800	-10.077000	25.835704	0.000605	20.816197
1882.555265	-3.007500	3.370400	-10.135000	25.784999	0.000606	20.804618
1883.558665	-3.022000	3.370400	-10.183000	25.781546	0.000605	20.784555
1884.558268	-3.010800	3.370400	-10.147000	25.745894	0.000606	20.788098
1885.559875	-3.023400	3.370100	-10.187000	25.747136	0.000605	20.793139
1886.559669	-2.989700	3.369500	-10.073000	25.735136	0.000604	20.793414
1887.561519	-3.053500	3.368100	-10.283000	25.752403	0.000605	20.792740
1888.556377	-2.982600	3.370900	-10.053000	25.752950	0.000603	20.791393
1889.557330	-2.995500	3.369900	-10.093000	25.752229	0.000602	20.793514
1890.559708	-3.007100	3.368600	-10.129000	25.707235	0.000602	20.787200
1891.555781	-2.983500	3.369000	-10.051000	25.720056	0.000604	20.779689
1892.562561	-3.017100	3.367900	-10.160000	25.736528	0.000602	20.793389
1893.565325	-2.994700	3.366800	-10.082000	25.785497	0.000600	20.783782
1894.562437	-3.023400	3.364500	-10.171000	25.770863	0.000599	20.776669
1895.561013	-2.941400	3.368700	-9.907400	25.777646	0.000600	20.781111
1896.564538	-2.994800	3.366600	-10.081000	25.778242	0.000599	20.776494
1897.559702	-2.999200	3.365800	-10.094000	25.802241	0.000599	20.786377
1898.563258	-3.004100	3.366200	-10.111000	25.833817	0.000600	20.783956
1899.562553	-3.003100	3.365600	-10.107000	25.832003	0.000598	20.768857
1900.559906	-2.990700	3.366100	-10.067000	25.809743	0.000598	20.787749
1901.560694	-3.013000	3.365100	-10.138000	25.797992	0.000598	20.789695
1902.562958	-3.003000	3.365500	-10.106000	25.810464	0.000598	20.778990
1903.560615	-2.991300	3.364700	-10.064000	25.786714	0.000596	20.794487
1904.564891	-2.991000	3.365500	-10.064000	25.763484	0.000597	20.777318
1905.561829	-2.995900	3.363500	-10.076000	25.739832	0.000596	20.798131
1906.561933	-3.026100	3.362000	-10.173000	25.743360	0.000594	20.781760
1907.560293	-2.976800	3.365800	-10.018000	25.737994	0.000594	20.792965
1908.565739	-2.990800	3.362400	-10.055000	25.742291	0.000594	20.784480
1909.563578	-3.005600	3.362900	-10.106000	25.729894	0.000594	20.777717
1910.566531	-2.997500	3.363000	-10.080000	25.766615	0.000593	20.787100
1911.563774	-3.020000	3.362900	-10.155000	25.792303	0.000594	20.774971
1912.563129	-3.008000	3.362000	-10.112000	25.789720	0.000591	20.779489
1913.562254	-2.987600	3.363900	-10.049000	25.779434	0.000593	20.769631
1914.567862	-2.996700	3.360400	-10.069000	25.781819	0.000591	20.782932
1915.570918	-3.005500	3.361900	-10.103000	25.745421	0.000593	20.762019
1916.563588	-2.996100	3.360100	-10.065000	25.730887	0.000589	20.771128
1917.572333	-2.978600	3.360500	-10.009000	25.754067	0.000591	20.791092
1918.567142	-3.018700	3.360100	-10.142000	25.755831	0.000588	20.785752
1919.563887	-2.994800	3.359500	-10.060000	25.806812	0.000590	20.772476
1920.566784	-2.997100	3.359500	-10.067000	25.781843	0.000589	20.756878
1921.563067	-2.990400	3.359100	-10.044000	25.789272	0.000589	20.756753
1922.564012	-2.992800	3.358700	-10.051000	25.773545	0.000587	20.764664
1923.568459	-3.015000	3.357700	-10.122000	25.764552	0.000585	20.775071
1924.567121	-3.004400	3.358100	-10.088000	25.755384	0.000587	20.788148
1925.564685	-2.983200	3.358500	-10.018000	25.795681	0.000583	20.786426
1926.566975	-3.015200	3.357500	-10.122000	25.816749	0.000585	20.787200
1927.569534	-2.987600	3.357900	-10.031000	25.809023	0.000584	20.756678
1928.566678	-3.007900	3.356700	-10.095000	25.842685	0.000584	20.768682
1929.568781	-2.974700	3.359200	-9.991800	25.877216	0.000585	20.776344
1930.565058	-3.007600	3.356800	-10.094000	25.847852	0.000583	20.781460
1931.565313	-3.012300	3.355200	-10.106000	25.818588	0.000584	20.774348
1932.568335	-2.987300	3.356500	-10.026000	25.795111	0.000583	20.775895
1933.567702	-2.998400	3.355200	-10.059000	25.771957	0.000583	20.793415
1934.565918	-2.993800	3.356400	-10.047000	25.733373	0.000582	20.782634
1935.569674	-2.994800	3.354900	-10.047000	25.731162	0.000580	20.771878
1936.567353	-3.005200	3.353700	-10.078000	25.701422	0.000581	20.776146
1937.564857	-2.983200	3.354400	-10.006000	25.722516	0.000579	20.785954
1938.568898	-3.030000	3.353100	-10.159000	25.703410	0.000581	20.771504
1939.570711	-3.015600	3.354200	-10.114000	25.751237	0.000579	20.786827
1940.572785	-3.016700	3.353200	-10.115000	25.801721	0.000580	20.772103
1941.567585	-3.014100	3.352800	-10.105000	25.814441	0.000577	20.778717
1942.569749	-3.019400	3.353500	-10.124000	25.821148	0.000577	20.786877
1943.567117	-3.023500	3.351500	-10.133000	25.805870	0.000578	20.785281
1944.575996	-3.009600	3.351600	-10.085000	25.855953	0.000577	20.773477
1945.570776	-2.983200	3.352400	-10.000000	25.889241	0.000575	20.791270
1946.574470	-2.991900	3.351300	-10.025000	25.897687	0.000577	20.778892
1947.572467	-2.987500	3.352600	-10.014000	25.920119	0.000574	20.796685
1948.574614	-2.998500	3.351600	-10.048000	25.874883	0.000576	20.804347
1949.580168	-3.005800	3.350300	-10.070000	25.882534	0.000574	20.779316
1950.573118	-3.010600	3.349500	-10.084000	25.879777	0.000573	20.766588
1951.574088	-3.014300	3.349700	-10.096000	25.908741	0.000573	20.790945
1952.574665	-3.001700	3.349100	-10.052000	25.872324	0.000572	20.773801
1953.576114	-2.993500	3.350100	-10.028000	25.863505	0.000573	20.764942
1954.575962	-3.011200	3.348300	-10.081000	25.848376	0.000572	20.780564
1955.573643	-3.011500	3.349900	-10.087000	25.843457	0.000572	20.777519
1956.572838	-2.989800	3.348400	-10.009000	25.828056	0.000571	20.776272
1957.576250	-3.015600	3.347100	-10.093000	25.835881	0.000571	20.784607
1958.570340	-3.003700	3.348300	-10.055000	25.832801	0.000571	20.785780
1959.580702	-3.014100	3.348100	-10.090000	25.801398	0.000569	20.777944
1960.571234	-2.997700	3.346700	-10.031000	25.812628	0.000569	20.789698
1961.573472	-2.980400	3.348100	-9.977800	25.791088	0.000570	20.754785
1962.571456	-3.014100	3.346200	-10.084000	25.770866	0.000569	20.775249
1963.572070	-3.030200	3.346600	-10.140000	25.826541	0.000568	20.787552
1964.573481	-2.987500	3.348300	-10.003000	25.834316	0.000567	20.789673
1965.573335	-3.048000	3.344500	-10.191000	25.842043	0.000567	20.768986
1966.572314	-3.009800	3.346000	-10.069000	25.880548	0.000569	20.778269
1967.580118	-2.990600	3.345200	-10.004000	25.916295	0.000566	20.789524
1968.589620	-2.976700	3.344700	-9.954800	25.961902	0.000567	20.782711
1969.573586	-2.998700	3.343600	-10.025000	25.924294	0.000567	20.786655
1970.575748	-2.997500	3.344500	-10.024000	25.938156	0.000566	20.782088
1971.578373	-3.004400	3.343800	-10.045000	25.911651	0.000564	20.784858
1972.581648	-3.009200	3.344000	-10.062000	25.889617	0.000566	20.786906
1973.583213	-2.985300	3.342500	-9.976400	25.894387	0.000564	20.777946
1974.576028	-2.996800	3.342800	-10.017000	25.895082	0.000563	20.799983
1975.572618	-3.005700	3.342600	-10.046000	25.901665	0.000563	20.799009
1976.582760	-2.982500	3.343100	-9.969800	25.907951	0.000562	20.788728
1977.572017	-2.998600	3.341200	-10.018000	25.871087	0.000564	20.783463
1978.575397	-3.012400	3.342500	-10.068000	25.820507	0.000563	20.793820
1979.577464	-2.999400	3.340700	-10.019000	25.811266	0.000562	20.803029
1980.582790	-3.002900	3.340700	-10.031000	25.835886	0.000561	20.803578
1981.576479	-2.984100	3.341900	-9.971700	25.852804	0.000561	20.794021
1982.575377	-2.996900	3.340500	-10.010000	25.894191	0.000560	20.809044
1983.585866	-3.012000	3.341900	-10.064000	25.918387	0.000559	20.799212
1984.584303	-2.984500	3.341100	-9.970300	25.933416	0.000559	20.794871
1985.580991	-2.997800	3.340100	-10.011000	25.935776	0.000559	20.792500
1986.578347	-2.990000	3.338900	-9.982400	25.934584	0.000557	20.786087
1987.582923	-3.000000	3.338800	-10.015000	25.944297	0.000557	20.794422
1988.579022	-2.984400	3.338900	-9.963600	25.968616	0.000556	20.806052
1989.583096	-2.991900	3.337600	-9.983900	25.968567	0.000554	20.812641
1990.585445	-3.000100	3.337300	-10.011000	25.996486	0.000556	20.788060
1991.582514	-3.030900	3.336500	-10.112000	25.994252	0.000553	20.818531
1992.578483	-3.011800	3.336800	-10.049000	25.964942	0.000553	20.795723
1993.580927	-2.973300	3.338300	-9.924200	25.982056	0.000555	20.786838
1994.580670	-3.009000	3.336300	-10.038000	25.966780	0.000553	20.813690
1995.581343	-3.020600	3.336000	-10.075000	25.983175	0.000553	20.805506
1996.581325	-2.974400	3.336200	-9.921300	26.002996	0.000554	20.826842
1997.579546	-3.002000	3.334900	-10.010000	26.010946	0.000552	20.815863
1998.588997	-3.008100	3.335100	-10.032000	26.017428	0.000551	20.795350
1999.589436	-3.019000	3.333800	-10.064000	26.020161	0.000553	20.793354
2000.582263	-3.013000	3.334800	-10.047000	25.982157	0.000549	20.808751
2001.581361	-3.024600	3.334400	-10.084000	25.946239	0.000550	20.801589
2002.582022	-3.003000	3.334900	-10.012000	25.934714	0.000549	20.799493
2003.589803	-3.000400	3.333200	-9.998000	25.908208	0.000548	20.819332
2004.585889	-2.989100	3.333500	-9.963200	25.915660	0.000548	20.819233
2005.593682	-2.986500	3.333100	-9.953500	25.912010	0.000548	20.818410
2006.585149	-3.002700	3.333100	-10.007000	25.915412	0.000546	20.809026
2007.590307	-3.013700	3.332400	-10.041000	25.923089	0.000546	20.799195
2008.589971	-3.013200	3.331300	-10.036000	25.950214	0.000545	20.797048
2009.589717	-3.011700	3.331800	-10.033000	25.979426	0.000545	20.805059
2010.587185	-2.999000	3.331700	-9.990700	25.988220	0.000544	20.807255
2011.592111	-2.998500	3.332800	-9.992100	26.009134	0.000545	20.818310
2012.589096	-2.990500	3.330800	-9.960300	26.026645	0.000545	20.793704
2013.589201	-3.015700	3.331200	-10.045000	26.041771	0.000545	20.823126
2014.593050	-3.002200	3.330900	-9.999000	26.059878	0.000542	20.807180
2015.587734	-3.011300	3.330200	-10.027000	26.042641	0.000543	20.824000
2016.591218	-3.013100	3.328700	-10.028000	26.043585	0.000544	20.834431
2017.592290	-2.997600	3.329200	-9.978900	26.030520	0.000542	20.816564
2018.589064	-2.998300	3.328800	-9.979100	26.046690	0.000542	20.811473
2019.592494	-3.009200	3.329100	-10.017000	26.043982	0.000541	20.839572
2020.594162	-3.003100	3.328400	-9.994300	26.036258	0.000541	20.823751
2021.597430	-3.000600	3.327200	-9.982100	26.016660	0.000540	20.827768
2022.596564	-2.951200	3.329700	-9.825600	26.047957	0.000542	20.811797
2023.595142	-2.999700	3.327200	-9.979100	26.009830	0.000540	20.822803
2024.590689	-2.979700	3.328600	-9.917600	25.976321	0.000538	20.814267
2025.591653	-2.998700	3.327100	-9.976300	25.991697	0.000538	20.816439
2026.591148	-2.994900	3.327000	-9.963400	25.993610	0.000537	20.806981
2027.589749	-3.004600	3.326000	-9.992600	26.025950	0.000536	20.829989
2028.597713	-2.978100	3.326200	-9.903100	26.004290	0.000536	20.815815
2029.598432	-2.991200	3.326500	-9.949100	25.992541	0.000535	20.821554
2030.592659	-2.994900	3.324400	-9.954100	26.006551	0.000534	20.813818
2031.596221	-2.977400	3.325400	-9.899800	26.048179	0.000535	20.839995
2032.595325	-2.987100	3.325200	-9.931900	26.054860	0.000535	20.832958
2033.593130	-2.994900	3.323700	-9.953400	26.058661	0.000533	20.822078
2034.594274	-3.005300	3.323300	-9.986500	26.089930	0.000533	20.809874
2035.596251	-2.976600	3.324300	-9.894100	26.124105	0.000533	20.814341
2036.592940	-3.008000	3.322600	-9.992800	26.130587	0.000531	20.837449
2037.597408	-2.982700	3.323900	-9.913400	26.162203	0.000533	20.823699
2038.597433	-3.005400	3.322800	-9.984700	26.148220	0.000532	20.831460
2039.591611	-3.015600	3.322200	-10.017000	26.183287	0.000532	20.815962
2040.592822	-3.044600	3.322000	-10.113000	26.208593	0.000531	20.834753
2041.599533	-2.981400	3.323400	-9.907400	26.207103	0.000530	20.841790
2042.593935	-2.995900	3.321100	-9.948000	26.248476	0.000529	20.815088
2043.594652	-2.988100	3.322100	-9.925300	26.252896	0.000528	20.828064
2044.598520	-3.002000	3.320500	-9.967100	26.256944	0.000527	20.824546
2045.595689	-2.979700	3.322400	-9.897900	26.266976	0.000528	20.840317
2046.599732	-3.002600	3.320400	-9.969300	26.258011	0.000528	20.821351
2047.603734	-2.990700	3.321100	-9.930900	26.241596	0.000526	20.830933
2048.595499	-3.021100	3.319100	-10.027000	26.245296	0.000526	20.848401
2049.599248	-2.966300	3.319400	-9.845500	26.262256	0.000526	20.824195
2050.599920	-2.999400	3.318900	-9.953700	26.266354	0.000528	20.847277
2051.596285	-2.989500	3.319000	-9.920700	26.273629	0.000525	20.837994
2052.596217	-3.005800	3.319900	-9.978100	26.230171	0.000525	20.838892
2053.600992	-2.986700	3.318300	-9.909700	26.211869	0.000524	20.850372
2054.596960	-3.002500	3.317600	-9.959900	26.240303	0.000523	20.817780
2055.601386	-2.997700	3.317700	-9.944300	26.242414	0.000522	20.831281
2056.606013	-3.022200	3.315500	-10.017000	26.245617	0.000521	20.847775
2057.600049	-3.009800	3.317600	-9.983300	26.218449	0.000521	20.830906
2058.607067	-3.002000	3.317900	-9.957800	26.223093	0.000522	20.834150
2059.605175	-3.015000	3.315600	-9.995400	26.193813	0.000521	20.856409
2060.604615	-3.006400	3.316500	-9.968900	26.197091	0.000520	20.834574
2061.603374	-3.002800	3.315300	-9.952900	26.171784	0.000520	20.834748
2062.600498	-3.003100	3.314600	-9.953000	26.161428	0.000520	20.849946
2063.607210	-2.993400	3.316000	-9.924800	26.153878	0.000519	20.838566
2064.601422	-2.990100	3.314800	-9.910900	26.155393	0.000519	20.849571
2065.601805	-2.995700	3.313600	-9.925800	26.151766	0.000519	20.837867
2066.604813	-2.993500	3.315300	-9.923600	26.137337	0.000519	20.834274
2067.607925	-3.016700	3.313500	-9.995400	26.101896	0.000517	20.864569
2068.604533	-3.022100	3.312900	-10.011000	26.111408	0.000516	20.858480
2069.606886	-3.005500	3.313400	-9.958000	26.096804	0.000517	20.837169
2070.602895	-2.998800	3.312000	-9.931000	26.116599	0.000514	20.840937
2071.602007	-3.018400	3.312100	-9.996100	26.154002	0.000514	20.856708
2072.604782	-2.993200	3.312400	-9.914000	26.172033	0.000516	20.851119
2073.603928	-2.996400	3.312300	-9.924300	26.195626	0.000513	20.861075
2074.603926	-2.978000	3.311800	-9.861100	26.209508	0.000516	20.856060
2075.603864	-2.970700	3.313200	-9.841100	26.234789	0.000513	20.835472
2076.605011	-3.017900	3.309800	-9.988300	26.236254	0.000513	20.856384
2077.602671	-3.021400	3.310200	-9.999900	26.239805	0.000511	20.857582
2078.606158	-3.000700	3.309700	-9.930200	26.226245	0.000512	20.851068
2079.605011	-3.017700	3.308900	-9.984500	26.218994	0.000509	20.865118
2080.603987	-3.028100	3.308700	-10.017000	26.189591	0.000508	20.860701
2081.608530	-3.023900	3.308800	-10.004000	26.173025	0.000510	20.864444
2082.604689	-2.974900	3.310100	-9.845800	26.188149	0.000509	20.858779
2083.606638	-2.977500	3.310100	-9.854800	26.219267	0.000509	20.850220
2084.608856	-3.012200	3.307600	-9.961500	26.235384	0.000508	20.853139
2085.607295	-3.020100	3.306000	-9.983900	26.290811	0.000505	20.852889
2086.605408	-2.994100	3.307700	-9.903300	26.309584	0.000507	20.839040
2087.612851	-3.000200	3.306900	-9.920700	26.348370	0.000506	20.861424
2088.610939	-2.996400	3.307300	-9.908800	26.356192	0.000506	20.874500
2089.611043	-3.001200	3.305500	-9.919600	26.387652	0.000506	20.859178
2090.612078	-3.004800	3.306600	-9.935000	26.367739	0.000505	20.859553
2091.612612	-3.016500	3.306300	-9.972800	26.376330	0.000505	20.877195
2092.611690	-2.991700	3.305500	-9.887800	26.366845	0.000505	20.854861
2093.620288	-3.004200	3.304700	-9.925600	26.357682	0.000503	20.875523
2094.624276	-2.989300	3.305000	-9.878600	26.365206	0.000505	20.859852
2095.610558	-3.008500	3.304500	-9.940500	26.329450	0.000503	20.866590
2096.613450	-3.005700	3.304000	-9.930700	26.328406	0.000502	20.861274
2097.614173	-3.000300	3.305300	-9.915400	26.353462	0.000502	20.867962
2098.613183	-2.983900	3.303700	-9.856600	26.335956	0.000502	20.849422
2099.611035	-2.974800	3.303300	-9.825500	26.337917	0.000500	20.881262
2100.610269	-2.987400	3.302900	-9.865800	26.343033	0.000500	20.851792
2101.616331	-2.995100	3.303100	-9.892300	26.339109	0.000497	20.853065
2102.619043	-3.020300	3.301600	-9.970900	26.328556	0.000498	20.861424
2103.620137	-3.027800	3.301500	-9.995500	26.313235	0.000499	20.871631
2104.613082	-3.010000	3.299900	-9.932500	26.229524	0.000499	20.870009
2105.622910	-3.028600	3.299600	-9.991900	26.196097	0.000495	20.874350
2106.618849	-3.028900	3.299200	-9.992100	26.170492	0.000496	20.889397
2107.616395	-3.011200	3.299500	-9.934500	26.183431	0.000496	20.875848
2108.622652	-3.026200	3.299700	-9.984000	26.199400	0.000495	20.875299
2109.615922	-2.981900	3.300600	-9.841100	26.196768	0.000494	20.875973
2110.617836	-2.993700	3.299400	-9.876400	26.227363	0.000494	20.883484
2111.624848	-3.011900	3.299100	-9.935500	26.291655	0.000493	20.873651
2112.617880	-2.979200	3.298100	-9.825100	26.308020	0.000493	20.876820
2113.614620	-3.007300	3.297700	-9.915800	26.340176	0.000493	20.872628
2114.623710	-2.992300	3.298800	-9.870400	26.357980	0.000492	20.874400
2115.618214	-2.999400	3.298400	-9.892400	26.344125	0.000494	20.876596
2116.619102	-3.015700	3.297300	-9.942800	26.352170	0.000491	20.874725
2117.621218	-3.001100	3.298100	-9.896800	26.338861	0.000490	20.886952
2118.621600	-2.999500	3.296800	-9.887400	26.367416	0.000489	20.901899
2119.623781	-2.972800	3.298000	-9.803300	26.386038	0.000489	20.871779
2120.617245	-2.981400	3.296900	-9.828500	26.388596	0.000489	20.890470
2121.620386	-3.002100	3.296200	-9.893500	26.398974	0.000490	20.892366
2122.619857	-3.009200	3.295700	-9.916100	26.427727	0.000486	20.886652
2123.623790	-3.015000	3.295100	-9.933400	26.401929	0.000486	20.875422
2124.629726	-3.002100	3.294700	-9.890200	26.389713	0.000486	20.896334
2125.621367	-3.024700	3.295400	-9.966000	26.380700	0.000485	20.899129
2126.624527	-3.003900	3.294200	-9.894900	26.377968	0.000484	20.894013
2127.623416	-2.987200	3.293300	-9.836700	26.348743	0.000485	20.888823
2128.624269	-2.991000	3.294500	-9.851500	26.336799	0.000485	20.905267
2129.622374	-3.004500	3.292900	-9.892100	26.295751	0.000483	20.902421
2130.625160	-2.991700	3.293400	-9.851100	26.304468	0.000483	20.892691
2131.623526	-2.988800	3.292400	-9.838700	26.318498	0.000480	20.899677
2132.627412	-2.985800	3.291700	-9.827100	26.314501	0.000480	20.901349
2133.630590	-2.999700	3.291500	-9.871800	26.347253	0.000481	20.911031
2134.628518	-2.976100	3.293600	-9.800400	26.356614	0.000479	20.907163
2135.627026	-3.014800	3.290400	-9.918800	26.405951	0.000478	20.915971
2136.622762	-3.002300	3.290900	-9.878600	26.415089	0.000478	20.906190
2137.625029	-3.007800	3.288700	-9.890600	26.414194	0.000479	20.903869
2138.625943	-2.990200	3.290500	-9.838200	26.435349	0.000479	20.906164
2139.629941	-3.016300	3.289100	-9.919500	26.436119	0.000477	20.891767
2140.630863	-3.014500	3.290100	-9.917000	26.428272	0.000476	20.902846
2141.628532	-3.000900	3.287900	-9.865600	26.413251	0.000476	20.906239
2142.637239	-2.999600	3.288500	-9.862400	26.413971	0.000476	20.897955
2143.629680	-3.025700	3.288600	-9.949300	26.437558	0.000475	20.883257
2144.631231	-2.991900	3.288100	-9.837000	26.455758	0.000474	20.914349
2145.630515	-2.994500	3.287300	-9.841900	26.479766	0.000473	20.897231
2146.633853	-3.005300	3.287600	-9.880200	26.478004	0.000475	20.912053
2147.632500	-3.023100	3.286500	-9.933100	26.485948	0.000473	20.885902
2148.635046	-3.023700	3.285000	-9.931300	26.485874	0.000473	20.907163
2149.630140	-2.988200	3.287000	-9.821500	26.507722	0.000470	20.911105
2150.631785	-2.985000	3.287300	-9.812300	26.533989	0.000472	20.905266
2151.637522	-2.987700	3.286100	-9.815800	26.522395	0.000470	20.920163
2152.630981	-2.998200	3.284500	-9.846300	26.476638	0.000470	20.897406
2153.632593	-3.009200	3.285700	-9.886600	26.465739	0.000470	20.898778
2154.635806	-2.984100	3.284900	-9.801600	26.476191	0.000468	20.911180
2155.631002	-2.995200	3.285800	-9.840600	26.461021	0.000467	20.907786
2156.634205	-2.988900	3.284100	-9.814400	26.454094	0.000466	20.904617
2157.633053	-3.011800	3.283900	-9.890100	26.460127	0.000466	20.900250
2158.634475	-2.998800	3.283500	-9.845100	26.467253	0.000467	20.896033
2159.636021	-3.009400	3.283200	-9.878600	26.470357	0.000465	20.907686
2160.635559	-3.008000	3.282500	-9.872000	26.505463	0.000463	20.899826
2161.632126	-3.032900	3.280900	-9.949600	26.471499	0.000465	20.903619
2162.637179	-3.007000	3.282000	-9.868100	26.478947	0.000463	20.908734
2163.642469	-3.001000	3.282000	-9.848300	26.500523	0.000462	20.898179
2164.634901	-2.998800	3.282400	-9.842500	26.536223	0.000463	20.902296
2165.633651	-2.966300	3.282300	-9.734400	26.555712	0.000463	20.895334
2166.637201	-3.007500	3.280100	-9.863200	26.560479	0.000461	20.908185
2167.637005	-3.014500	3.280200	-9.886900	26.579843	0.000460	20.886875
2168.635736	-2.998000	3.280700	-9.833700	26.566214	0.000461	20.893563
2169.642807	-3.005600	3.279400	-9.855200	26.522966	0.000462	20.868584
2170.639699	-3.008300	3.279100	-9.864000	26.501665	0.000460	20.896956
2171.636635	-3.023100	3.277900	-9.908600	26.500770	0.000459	20.911229
2172.637515	-2.991200	3.278900	-9.806900	26.527658	0.000459	20.887524
2173.638003	-2.999200	3.277300	-9.828900	26.514773	0.000458	20.885478
2174.643232	-3.037600	3.276300	-9.950300	26.462684	0.000457	20.881959
2175.642190	-3.000300	3.277700	-9.831500	26.491410	0.000455	20.886650
2176.639681	-2.992100	3.277700	-9.805500	26.497095	0.000455	20.907062
2177.645730	-3.012100	3.277300	-9.870700	26.499653	0.000456	20.872177
2178.643079	-2.990700	3.276500	-9.798000	26.508938	0.000455	20.872975
2179.639060	-3.004000	3.276900	-9.842700	26.550473	0.000453	20.893861
2180.645033	-3.017600	3.274700	-9.880700	26.546029	0.000450	20.885601
2181.646049	-3.016200	3.274600	-9.876200	26.523287	0.000452	20.869381
2182.639664	-2.989900	3.276300	-9.794900	26.521971	0.000454	20.878015
2183.641445	-3.012600	3.273000	-9.859300	26.507199	0.000453	20.886874
2184.649858	-3.005000	3.273100	-9.835200	26.523585	0.000449	20.876792
2185.645479	-3.002300	3.275300	-9.831900	26.528674	0.000449	20.858201
2186.645273	-3.003400	3.273400	-9.830100	26.504964	0.000449	20.858550
2187.651304	-2.998400	3.272900	-9.813000	26.519563	0.000448	20.854733
2188.645528	-2.992100	3.272500	-9.791000	26.499924	0.000448	20.866286
2189.645658	-3.014800	3.273300	-9.866700	26.476611	0.000448	20.891689
2190.647326	-2.993400	3.272900	-9.795800	26.436389	0.000447	20.886823
2191.643099	-2.976600	3.272100	-9.738700	26.419778	0.000447	20.870129
2192.647439	-2.992800	3.273200	-9.795200	26.393608	0.000444	20.859948
2193.646990	-3.014900	3.272400	-9.864900	26.372378	0.000447	20.853784
2194.642869	-3.003900	3.271400	-9.826100	26.383378	0.000444	20.862468
2195.647851	-2.985900	3.271300	-9.766500	26.419232	0.000443	20.871002
2196.647823	-3.012900	3.270700	-9.853300	26.458114	0.000442	20.873573
2197.646039	-3.011700	3.270200	-9.847600	26.508142	0.000441	20.856529
2198.647791	-3.002700	3.269200	-9.815700	26.541534	0.000441	20.862593
2199.651196	-2.963700	3.268900	-9.687000	26.596424	0.000441	20.856129
2200.645173	-2.999000	3.269500	-9.804200	26.616532	0.000441	20.868282
2201.657051	-2.997200	3.268600	-9.795500	26.674943	0.000440	20.858725
2202.645928	-3.000300	3.267300	-9.801800	26.699319	0.000440	20.883229
2203.645006	-3.023000	3.265700	-9.871500	26.706890	0.000439	20.855281
2204.647966	-3.002400	3.267100	-9.807100	26.739953	0.000439	20.865287
2205.656900	-3.034000	3.266200	-9.908400	26.747076	0.000439	20.851113
2206.645306	-3.008100	3.266600	-9.825700	26.732853	0.000438	20.866210
2207.652189	-2.997200	3.267700	-9.793100	26.717091	0.000435	20.869329
2208.650517	-3.000800	3.265500	-9.797700	26.737247	0.000436	20.842653
2209.647239	-2.968200	3.265000	-9.689300	26.713889	0.000437	20.873695
2210.646525	-3.020200	3.264500	-9.858900	26.695346	0.000434	20.844150
2211.653025	-2.996500	3.264100	-9.779300	26.693310	0.000433	20.852060
2212.648803	-3.040300	3.262800	-9.918600	26.683108	0.000432	20.839433
2213.658117	-2.977400	3.264100	-9.717800	26.710736	0.000435	20.850613
2214.652091	-3.013600	3.262900	-9.832400	26.691598	0.000432	20.862666
2215.653244	-3.028100	3.263000	-9.879600	26.706218	0.000431	20.860295
2216.651785	-2.993300	3.264600	-9.770100	26.693832	0.000430	20.855903
2217.652851	-2.992000	3.263600	-9.763600	26.729849	0.000429	20.852758
2218.653026	-2.986000	3.262700	-9.740800	26.704828	0.000429	20.847519
2219.651162	-2.974600	3.262000	-9.702200	26.685764	0.000429	20.851112
2220.652667	-3.013100	3.261800	-9.827000	26.687849	0.000429	20.847992
2221.649257	-2.969600	3.262000	-9.685900	26.686012	0.000429	20.846620
2222.654366	-3.011400	3.262700	-9.823600	26.679508	0.000429	20.841504
2223.661884	-3.013000	3.261700	-9.826900	26.721260	0.000427	20.844598
2224.652748	-3.013800	3.259200	-9.821900	26.726249	0.000426	20.846295
2225.659563	-3.000400	3.259700	-9.779000	26.747323	0.000426	20.836663
2226.651902	-3.004000	3.260000	-9.792600	26.765343	0.000425	20.845771
2227.660336	-3.001000	3.258800	-9.778500	26.802178	0.000425	20.849614
2228.665972	-3.009000	3.257500	-9.801400	26.834419	0.000424	20.868754
2229.664192	-3.012800	3.258400	-9.815100	26.852239	0.000422	20.861542
2230.655480	-2.994400	3.257900	-9.755000	26.870729	0.000421	20.830349
2231.656667	-2.996700	3.257400	-9.760600	26.876785	0.000422	20.825058
2232.656821	-3.000700	3.258200	-9.775600	26.903613	0.000419	20.839707
2233.657269	-3.001100	3.256500	-9.772200	26.878746	0.000420	20.836512
2234.657448	-3.017300	3.254700	-9.819400	26.862488	0.000420	20.843873
2235.654373	-2.990900	3.256400	-9.738500	26.835312	0.000419	20.849738
2236.657299	-3.007700	3.255600	-9.790600	26.836205	0.000419	20.829775
2237.656507	-3.017800	3.254200	-9.819300	26.846505	0.000419	20.822113
2238.656037	-3.001000	3.254100	-9.764400	26.847076	0.000417	20.847343
2239.660338	-2.981000	3.254600	-9.701500	26.824217	0.000415	20.853756
2240.658343	-3.014800	3.253300	-9.806700	26.803617	0.000415	20.853906
2241.660511	-2.997200	3.253100	-9.749400	26.750326	0.000415	20.833518
2242.660540	-3.000700	3.252700	-9.759200	26.757003	0.000415	20.839757
2243.660260	-3.009000	3.252800	-9.785000	26.741191	0.000413	20.843300
2244.658571	-2.995900	3.251500	-9.738400	26.743525	0.000412	20.818620
2245.661674	-3.012100	3.251500	-9.792700	26.781824	0.000414	20.839108
2246.665164	-3.015800	3.249800	-9.800500	26.794160	0.000413	20.826855
2247.659985	-2.988900	3.252400	-9.719700	26.821264	0.000412	20.825183
2248.658963	-3.030000	3.249700	-9.845500	26.845413	0.000410	20.843300
2249.662127	-2.991400	3.251400	-9.725100	26.828064	0.000409	20.817796
2250.660570	-3.037500	3.249100	-9.867800	26.814910	0.000410	20.812156
2251.658422	-3.007700	3.249900	-9.772500	26.833004	0.000410	20.822288
2252.663338	-3.009300	3.248300	-9.774400	26.821214	0.000409	20.827977
2253.661631	-2.989900	3.249200	-9.714000	26.779565	0.000408	20.827353
2254.663049	-2.971500	3.248600	-9.652300	26.796717	0.000406	20.819468
2255.662227	-2.987300	3.247800	-9.701300	26.783561	0.000406	20.808613
2256.664942	-3.006900	3.246700	-9.761500	26.744840	0.000406	20.815201
2257.661227	-2.981400	3.248600	-9.682800	26.717982	0.000408	20.819492
2258.665460	-3.001700	3.245500	-9.739500	26.712199	0.000408	20.833118
2259.667290	-2.987900	3.246900	-9.700500	26.746478	0.000406	20.826804
2260.668382	-3.000500	3.245500	-9.736700	26.754669	0.000402	20.822712
2261.667259	-2.993600	3.245400	-9.714800	26.743053	0.000405	20.822412
2262.673524	-2.992100	3.245200	-9.709400	26.766583	0.000404	20.804345
2263.669652	-2.985200	3.244300	-9.684800	26.824292	0.000402	20.836288
2264.662164	-3.006100	3.244200	-9.751100	26.848540	0.000401	20.812306
2265.664045	-2.977700	3.244400	-9.659700	26.865914	0.000400	20.813179
2266.667369	-3.019400	3.241500	-9.786700	26.833326	0.000401	20.799853
2267.666471	-3.013500	3.244100	-9.773900	26.843204	0.000398	20.812156
2268.671387	-3.002800	3.244300	-9.739400	26.829181	0.000400	20.802798
2269.665711	-2.999900	3.242500	-9.726000	26.846134	0.000399	20.809412
2270.667244	-2.972400	3.242200	-9.635800	26.854547	0.000399	20.816923
2271.675464	-3.012800	3.241800	-9.766200	26.876562	0.000396	20.794963
2272.671205	-3.001700	3.241100	-9.728000	26.904557	0.000398	20.819320
2273.666018	-3.004000	3.241700	-9.736900	26.910117	0.000396	20.813530
2274.672035	-3.016000	3.240100	-9.771000	26.944414	0.000395	20.811983
2275.669926	-3.001300	3.240400	-9.724300	26.944539	0.000394	20.810211
2276.675049	-3.004800	3.238400	-9.730000	26.961439	0.000393	20.811558
2277.675376	-3.022300	3.238500	-9.787000	26.963920	0.000393	20.801726
2278.669978	-2.994900	3.237900	-9.696300	26.993278	0.000392	20.809437
2279.665596	-3.000000	3.238300	-9.712900	26.985983	0.000391	20.841455
2280.679097	-2.998600	3.237400	-9.707000	26.971738	0.000392	20.817174
2281.673165	-2.998500	3.236600	-9.703200	26.957047	0.000391	20.812832
2282.673347	-2.993100	3.237500	-9.689500	26.969753	0.000391	20.813755
2283.675221	-2.981000	3.236100	-9.645400	26.957444	0.000390	20.804696
2284.672596	-3.002200	3.236000	-9.714300	26.907362	0.000390	20.820243
2285.672105	-2.997500	3.235100	-9.696200	26.864005	0.000389	20.795138
2286.675949	-3.017100	3.234400	-9.757100	26.836580	0.000390	20.787952
2287.675372	-3.000800	3.234000	-9.703200	26.817344	0.000391	20.804172
2288.673701	-2.972100	3.234100	-9.610400	26.865891	0.000389	20.800829
2289.673882	-3.016600	3.233700	-9.753700	26.843926	0.000387	20.806244
2290.673935	-2.993700	3.233300	-9.678500	26.857304	0.000388	20.806893
2291.674634	-3.003800	3.231200	-9.704600	26.880063	0.000388	20.791371
2292.687109	-3.006700	3.232500	-9.717300	26.840228	0.000387	20.818172
2293.678530	-3.032100	3.229900	-9.792100	26.843827	0.000385	20.806619
2294.675058	-2.994400	3.233000	-9.679200	26.844647	0.000384	20.791795
2295.677463	-2.985900	3.231100	-9.645600	26.829655	0.000383	20.798533
2296.675362	-3.004500	3.231200	-9.705800	26.829754	0.000383	20.825185
2297.673391	-2.989900	3.229500	-9.654900	26.825313	0.000384	20.800331
2298.682792	-3.011700	3.229300	-9.724300	26.805307	0.000384	20.789225
2299.677862	-3.006600	3.230600	-9.712500	26.790440	0.000382	20.808890
2300.677518	-3.001800	3.228800	-9.690900	26.777261	0.000380	20.789476
2301.681806	-2.983300	3.230600	-9.637200	26.732085	0.000380	20.789101
2302.678813	-3.011300	3.226400	-9.715700	26.739210	0.000382	20.794841
2303.684889	-3.009000	3.227100	-9.709700	26.790887	0.000380	20.798435
2304.681126	-2.989500	3.227200	-9.646200	26.823303	0.000378	20.793568
2305.679111	-3.013000	3.226500	-9.720100	26.848917	0.000377	20.811262
2306.682603	-3.005400	3.226100	-9.694600	26.897760	0.000377	20.819123
2307.684190	-2.990500	3.225600	-9.645400	26.868847	0.000378	20.791947
2308.680768	-2.970700	3.225100	-9.579700	26.830749	0.000377	20.785883
2309.680909	-2.991400	3.223800	-9.642700	26.792601	0.000376	20.777872
2310.683675	-2.969300	3.226000	-9.577700	26.780562	0.000376	20.804175
2311.683429	-3.008500	3.223400	-9.697400	26.788283	0.000374	20.787756
2312.681635	-2.980500	3.222800	-9.604500	26.782922	0.000372	20.798012
2313.684536	-2.997000	3.223800	-9.660800	26.831172	0.000373	20.805748
2314.683626	-2.973800	3.223700	-9.586000	26.839859	0.000372	20.783662
2315.682998	-3.003900	3.224200	-9.684200	26.873067	0.000372	20.789552
2316.685927	-2.993400	3.221100	-9.641300	26.922456	0.000372	20.794169
2317.684140	-2.998600	3.222100	-9.660000	26.905331	0.000371	20.777898
2318.685778	-2.983700	3.221400	-9.610900	26.914117	0.000370	20.772982
2319.686492	-3.007000	3.223000	-9.690500	26.889622	0.000369	20.778223
2320.685446	-3.026400	3.219500	-9.741400	26.897862	0.000369	20.788879
2321.685289	-2.999600	3.219100	-9.655400	26.915259	0.000366	20.791200
2322.687224	-2.985200	3.220300	-9.612600	26.942806	0.000369	20.799934
2323.684155	-3.003900	3.219300	-9.669700	26.956034	0.000368	20.788580
2324.683663	-2.993300	3.218800	-9.634200	26.952014	0.000368	20.777425
2325.687346	-3.020600	3.217100	-9.716500	26.909502	0.000365	20.785411
2326.684367	-2.993500	3.217000	-9.629100	26.839042	0.000365	20.767668
2327.686718	-2.990700	3.218900	-9.626100	26.781508	0.000366	20.789479
2328.690635	-2.992200	3.216200	-9.622600	26.781582	0.000365	20.779596
2329.685339	-2.997900	3.216500	-9.641100	26.760709	0.000365	20.781369
2330.684400	-3.036900	3.213200	-9.757300	26.718412	0.000364	20.779147
2331.692275	-3.004800	3.214400	-9.657300	26.713001	0.000363	20.783190
2332.690149	-2.997900	3.215200	-9.636400	26.665887	0.000361	20.781818
2333.685868	-3.013200	3.213900	-9.682400	26.663156	0.000362	20.777176
2334.694027	-2.978000	3.214800	-9.572300	26.700242	0.000361	20.784588
2335.692824	-2.984500	3.213600	-9.589400	26.748620	0.000361	20.801932
2336.692983	-2.979200	3.212900	-9.571500	26.814272	0.000359	20.778325
2337.691854	-3.000500	3.211000	-9.634000	26.833781	0.000362	20.778974
2338.690566	-2.983700	3.213600	-9.587500	26.874360	0.000358	20.782791
2339.689333	-3.008000	3.210100	-9.654900	26.907071	0.000359	20.772535
2340.693637	-3.002400	3.212300	-9.643700	26.928116	0.000359	20.766196
2341.689469	-3.005900	3.210700	-9.649900	26.949137	0.000357	20.775954
2342.688551	-2.961700	3.211400	-9.509100	26.945166	0.000357	20.786186
2343.692233	-2.986500	3.212600	-9.593600	26.918363	0.000357	20.781519
2344.692654	-3.002600	3.210100	-9.637700	26.833410	0.000355	20.784290
2345.691935	-2.984500	3.209900	-9.579800	26.825641	0.000355	20.786911
2346.692760	-3.009900	3.207900	-9.654600	26.845522	0.000354	20.793150
2347.696770	-2.993500	3.208800	-9.604700	26.888757	0.000354	20.789681
2348.692678	-3.005500	3.205800	-9.634600	26.928018	0.000354	20.768468
2349.692388	-2.994100	3.206000	-9.597700	26.929160	0.000353	20.792850
2350.693765	-3.012800	3.205900	-9.657900	26.924768	0.000352	20.780373
2351.693349	-2.997500	3.206500	-9.611000	26.887367	0.000352	20.773111
2352.691530	-3.003800	3.205700	-9.628600	26.868778	0.000351	20.751099
2353.696174	-2.970400	3.205900	-9.521900	26.908140	0.000350	20.777878
2354.692885	-2.976600	3.204400	-9.536700	26.876397	0.000350	20.767770
2355.693598	-2.976500	3.205200	-9.539000	26.911218	0.000350	20.782869
2356.693689	-3.006400	3.205300	-9.635200	26.910697	0.000349	20.755318
2357.692950	-2.976200	3.203100	-9.532100	26.908488	0.000349	20.779650
2358.696027	-2.979500	3.204400	-9.545000	26.943803	0.000348	20.755892
2359.695461	-2.996800	3.201900	-9.594400	26.967752	0.000346	20.753421
2360.696861	-3.014000	3.201900	-9.648600	26.981798	0.000347	20.771339
2361.694275	-3.031400	3.200500	-9.700900	26.959115	0.000347	20.792152
2362.696147	-2.995100	3.202800	-9.591400	26.975618	0.000347	20.781247
2363.701996	-2.990500	3.200600	-9.570100	27.014356	0.000346	20.759036
2364.692916	-2.992400	3.199300	-9.572300	27.041900	0.000346	20.777728
2365.706869	-3.004300	3.198400	-9.607900	27.056591	0.000344	20.785863
2366.693382	-2.993800	3.200900	-9.581700	27.039568	0.000343	20.766848
2367.698609	-3.006300	3.199200	-9.616500	27.015894	0.000344	20.762005
2368.700353	-3.002200	3.198200	-9.600900	26.934670	0.000342	20.768045
2369.695945	-3.021300	3.196700	-9.657400	26.935787	0.000342	20.765375
2370.697276	-3.008100	3.198200	-9.618000	26.938566	0.000343	20.770066
2371.699897	-2.992200	3.196900	-9.564900	26.956459	0.000339	20.771938
2372.697969	-2.990500	3.196100	-9.556800	26.986165	0.000340	20.780473
2373.701295	-3.004000	3.194600	-9.596100	27.007332	0.000340	20.764301
2374.703650	-2.999700	3.196500	-9.585700	27.032668	0.000340	20.785987
2375.698261	-3.019900	3.193700	-9.643900	27.065423	0.000340	20.762978
2376.701878	-2.998200	3.194200	-9.575700	27.058749	0.000338	20.762429
2377.702033	-2.981100	3.194300	-9.521400	27.104629	0.000339	20.781544
2378.700285	-2.979100	3.193600	-9.513300	27.125695	0.000336	20.764799
2379.704640	-2.982800	3.192400	-9.521200	27.129491	0.000337	20.768143
2380.702487	-2.988000	3.192300	-9.536500	27.110088	0.000338	20.766171
2381.707029	-2.984500	3.190200	-9.520500	27.114082	0.000336	20.765921
2382.700302	-2.966400	3.191300	-9.466000	27.136314	0.000337	20.769315
2383.703427	-2.998000	3.190600	-9.564200	27.163583	0.000336	20.764498
2384.701941	-3.017300	3.189900	-9.623200	27.123535	0.000337	20.763101
2385.702909	-2.994700	3.189300	-9.549900	27.043336	0.000335	20.747877
2386.708690	-2.999400	3.187600	-9.560400	26.989387	0.000334	20.777549
2387.705208	-3.000200	3.188100	-9.563600	26.969012	0.000335	20.771285
2388.711922	-2.974600	3.189800	-9.487400	26.929603	0.000334	20.774330
2389.707683	-3.007400	3.187100	-9.583400	26.918187	0.000332	20.753840
2390.706657	-3.009400	3.187900	-9.593200	26.843135	0.000333	20.764197
2391.706398	-2.983000	3.187900	-9.509100	26.830675	0.000331	20.763997
2392.713511	-3.031600	3.185500	-9.656300	26.829558	0.000332	20.753390
2393.707049	-3.006500	3.185800	-9.577300	26.866489	0.000331	20.782464
2394.708659	-3.005200	3.184600	-9.569700	26.888056	0.000332	20.755311
2395.714299	-3.002700	3.184200	-9.559700	26.909425	0.000329	20.769212
2396.708829	-3.015200	3.183300	-9.596300	26.918409	0.000330	20.780142
2397.709142	-2.984400	3.185000	-9.504500	26.942928	0.000327	20.739363
2398.711483	-3.012200	3.183000	-9.587300	26.950099	0.000329	20.773603
2399.712673	-2.986300	3.182900	-9.504100	26.982336	0.000328	20.758605
2400.710222	-2.986300	3.182100	-9.501100	27.023034	0.000328	20.771083
2401.711036	-2.989600	3.181700	-9.511100	27.055665	0.000326	20.765492
2402.708555	-3.002800	3.180400	-9.549700	27.058618	0.000329	20.770832
2403.714530	-2.977200	3.182100	-9.472200	27.116509	0.000326	20.765991
2404.714298	-2.980100	3.180100	-9.475500	27.126830	0.000326	20.745077
2405.710520	-3.019600	3.178300	-9.596100	27.130999	0.000326	20.772978
2406.716983	-2.993200	3.178900	-9.514300	27.160227	0.000325	20.760175
2407.716289	-3.005000	3.177900	-9.549000	27.174519	0.000326	20.768860
2408.715301	-3.008300	3.178000	-9.559800	27.196378	0.000322	20.782785
2409.712606	-3.018800	3.177400	-9.590600	27.177198	0.000322	20.771555
2410.714057	-3.009300	3.175400	-9.555500	27.181466	0.000323	20.778218
2411.716069	-3.003100	3.176300	-9.536300	27.176354	0.000323	20.739411
2412.715712	-2.966400	3.175600	-9.419000	27.173377	0.000320	20.765814
2413.719890	-3.001700	3.173700	-9.525900	27.173476	0.000321	20.748370
2414.715873	-2.998700	3.173900	-9.516800	27.152435	0.000322	20.773675
2415.715029	-3.014500	3.172700	-9.563300	27.193796	0.000321	20.774972
2416.720977	-3.012900	3.174400	-9.563000	27.226968	0.000321	20.782734
2417.721775	-3.014800	3.173800	-9.566500	27.231905	0.000321	20.773001
2418.714421	-3.010000	3.171700	-9.546500	27.194937	0.000323	20.742454
2419.720291	-2.996700	3.174300	-9.511800	27.156628	0.000320	20.770305
2420.720749	-2.970900	3.171800	-9.422200	27.163898	0.000319	20.766238
2421.717525	-3.004900	3.172200	-9.530300	27.155238	0.000319	20.768434
2422.721029	-2.974300	3.170300	-9.428400	27.131393	0.000317	20.777642
2423.718882	-2.962600	3.171300	-9.393200	27.102758	0.000319	20.778715
2424.719684	-2.995600	3.170600	-9.496800	27.099781	0.000321	20.754383
2425.721546	-3.001200	3.166700	-9.502400	27.059334	0.000317	20.769656
2426.719307	-2.980200	3.167400	-9.438400	27.085067	0.000318	20.789371
2427.717572	-2.977200	3.168100	-9.431300	27.115562	0.000318	20.786850
2428.722412	-2.993100	3.166400	-9.475900	27.161763	0.000316	20.769306
2429.719706	-2.992900	3.166100	-9.475100	27.157743	0.000316	20.772376
2430.718117	-2.995700	3.164800	-9.480200	27.171068	0.000316	20.772027
2431.728737	-2.957200	3.164900	-9.358400	27.156155	0.000317	20.769356
2432.721598	-2.988200	3.163700	-9.452400	27.210219	0.000315	20.767309
2433.720738	-3.010700	3.162200	-9.519300	27.209301	0.000314	20.764015
2434.722906	-2.987700	3.163800	-9.452100	27.225230	0.000315	20.789520
2435.722631	-3.009300	3.162100	-9.515100	27.258649	0.000315	20.783306
2436.725329	-3.038300	3.161500	-9.604800	27.280059	0.000314	20.777815
2437.723315	-2.979400	3.162000	-9.419300	27.267407	0.000311	20.782158
2438.724401	-2.996900	3.161400	-9.473100	27.230241	0.000314	20.803569
2439.723229	-2.958800	3.162700	-9.357000	27.226420	0.000312	20.779337
2440.721953	-2.973600	3.160400	-9.396800	27.230439	0.000312	20.773423
2441.719201	-2.971300	3.158000	-9.382500	27.206794	0.000312	20.770977
2442.719335	-3.023200	3.157900	-9.545600	27.234483	0.000311	20.782232
2443.719041	-3.016000	3.158600	-9.525300	27.223542	0.000310	20.787348
2444.721945	-2.993000	3.158500	-9.452400	27.207687	0.000310	20.776142
2445.722191	-3.017700	3.156900	-9.524300	27.167915	0.000311	20.767433
2446.719899	-3.037000	3.154400	-9.578800	27.127173	0.000310	20.789044
2447.720322	-3.004100	3.154300	-9.475100	27.106875	0.000309	20.778113
2448.719894	-3.044700	3.152400	-9.596900	27.167939	0.000306	20.791639
2449.720737	-3.014200	3.153500	-9.504000	27.197415	0.000309	20.791888
2450.721736	-2.976700	3.152600	-9.383500	27.236244	0.000307	20.778313
2451.719914	-3.011600	3.152000	-9.491400	27.270878	0.000308	20.773796
2452.727680	-3.018300	3.149300	-9.504200	27.254528	0.000305	20.801446
2453.722442	-3.008100	3.152100	-9.480600	27.257307	0.000306	20.762989
2454.721218	-3.002200	3.149500	-9.453500	27.194114	0.000305	20.793785
2455.724630	-2.989800	3.152000	-9.422300	27.120918	0.000306	20.779909
2456.724877	-2.999800	3.149100	-9.444800	27.109057	0.000306	20.802119
2457.727574	-3.021300	3.145400	-9.502500	27.154663	0.000306	20.798201
2458.722983	-3.031300	3.144900	-9.532200	27.181584	0.000305	20.793509
2459.723725	-3.016200	3.147900	-9.493000	27.192005	0.000306	20.778387
2460.721774	-2.996800	3.145200	-9.424500	27.258249	0.000304	20.783852
2461.725499	-3.019200	3.143700	-9.490000	27.283927	0.000303	20.783602
2462.721777	-3.009100	3.143600	-9.458700	27.322777	0.000304	20.786646
2463.721847	-3.034700	3.143300	-9.537700	27.335280	0.000306	20.800173
2464.725034	-2.990900	3.143900	-9.401700	27.397174	0.000302	20.769502
2465.722554	-2.997000	3.142400	-9.416500	27.427314	0.000303	20.780382
2466.722532	-2.977900	3.142400	-9.356500	27.417689	0.000302	20.777338
2467.722639	-3.002300	3.140500	-9.427900	27.391965	0.000302	20.786072
2468.726317	-2.981700	3.139200	-9.359700	27.348676	0.000302	20.795630
2469.725573	-3.001800	3.139800	-9.424100	27.342127	0.000302	20.766757
2470.722727	-2.989100	3.138900	-9.381500	27.345600	0.000302	20.802967
2471.726443	-3.011900	3.137300	-9.448300	27.361923	0.000299	20.797102
2472.722437	-2.977800	3.137600	-9.342000	27.421584	0.000301	20.793110
2473.726429	-2.983100	3.136700	-9.356200	27.412901	0.000301	20.774892
2474.725755	-2.978300	3.137600	-9.342900	27.455890	0.000302	20.796329
2475.724154	-2.997500	3.134600	-9.394600	27.478189	0.000300	20.805487
2476.726039	-2.987200	3.135200	-9.364000	27.489748	0.000298	20.795305
2477.725484	-2.994500	3.134900	-9.386200	27.520976	0.000299	20.790214
2478.727657	-3.014500	3.133700	-9.445300	27.499620	0.000302	20.815669
2479.723313	-2.988900	3.132500	-9.361500	27.448050	0.000300	20.808830
2480.729617	-3.003800	3.132000	-9.406300	27.438227	0.000298	20.788991
2481.729218	-2.993100	3.132500	-9.374500	27.455616	0.000297	20.816442
2482.737026	-2.996700	3.130600	-9.380700	27.497783	0.000298	20.794381
2483.725880	-2.999600	3.130000	-9.387400	27.525068	0.000298	20.800969
2484.725328	-2.979800	3.128700	-9.321600	27.518023	0.000297	20.793407
2485.726058	-3.009400	3.128600	-9.414400	27.483148	0.000299	20.807158
2486.726950	-3.018500	3.126500	-9.436700	27.466132	0.000295	20.815168
2487.727018	-3.009200	3.125500	-9.404200	27.488580	0.000297	20.822580
2488.727610	-3.020400	3.126200	-9.441000	27.522016	0.000297	20.804537
2489.726906	-3.001400	3.125800	-9.380500	27.536923	0.000296	20.795353
2490.729425	-3.015300	3.124200	-9.417500	27.540692	0.000297	20.795827
2491.726845	-3.004300	3.123700	-9.384000	27.541883	0.000296	20.793231
2492.731223	-2.997800	3.121200	-9.355800	27.519014	0.000295	20.810526
2493.731372	-2.989800	3.122700	-9.334100	27.474043	0.000296	20.786618
2494.732892	-2.998500	3.119700	-9.353600	27.510059	0.000295	20.803413
2495.731652	-2.984300	3.120300	-9.310000	27.522114	0.000296	20.814119
2496.730318	-2.998400	3.117800	-9.346900	27.522659	0.000296	20.804710
2497.731638	-2.998700	3.117400	-9.346100	27.504627	0.000294	20.814068
2498.731790	-3.002300	3.116700	-9.356500	27.482725	0.000296	20.816689
2499.730778	-2.997800	3.116900	-9.341600	27.412054	0.000292	20.808653
2500.727899	-3.012900	3.115400	-9.385600	27.405059	0.000296	20.818685
2501.728274	-3.000200	3.116000	-9.347200	27.396823	0.000294	20.825098
2502.728774	-2.990400	3.115500	-9.315000	27.413071	0.000293	20.807306
2503.728832	-3.015100	3.112700	-9.384300	27.390845	0.000293	20.805334
2504.732304	-3.005800	3.113300	-9.356500	27.383502	0.000293	20.817388
2505.729827	-3.007700	3.110200	-9.354000	27.408482	0.000294	20.817388
2506.730494	-2.984900	3.110600	-9.283100	27.401487	0.000293	20.819359
2507.732078	-3.005900	3.108700	-9.343900	27.422845	0.000290	20.838000
2508.729900	-3.017000	3.108200	-9.375700	27.463601	0.000293	20.816415
2509.730761	-3.020900	3.107800	-9.387500	27.447576	0.000292	20.827320
2510.735504	-3.033000	3.106600	-9.421300	27.432718	0.000291	20.823752
2511.731285	-3.022700	3.106800	-9.390300	27.420415	0.000292	20.815641
2512.733344	-3.019400	3.104900	-9.373500	27.423267	0.000292	20.830365
2513.733236	-2.990100	3.105500	-9.283600	27.397792	0.000292	20.831763
2514.731678	-2.997900	3.103900	-9.304900	27.401959	0.000289	20.807506
2515.739666	-3.005700	3.102800	-9.325000	27.439515	0.000292	20.822055
2516.734478	-2.985300	3.102700	-9.261300	27.447007	0.000290	20.815841
2517.731785	-2.997700	3.100500	-9.293400	27.489647	0.000289	20.834084
2518.734507	-3.012100	3.099600	-9.335600	27.535633	0.000289	20.808281
2519.735295	-3.003000	3.099900	-9.307900	27.561354	0.000289	20.825150
2520.733744	-3.011200	3.098400	-9.328500	27.581519	0.000289	20.813197
2521.739713	-3.005200	3.097400	-9.306900	27.547266	0.000289	20.819036
2522.736205	-2.990600	3.096700	-9.260500	27.590794	0.000289	20.825849
2523.732812	-3.004700	3.095200	-9.299400	27.597268	0.000290	20.828569
2524.738215	-2.979300	3.096600	-9.224400	27.622169	0.000288	20.839874
2525.740002	-2.995300	3.094300	-9.267600	27.656816	0.000288	20.828270
2526.737291	-3.008600	3.093500	-9.305700	27.697091	0.000289	20.853149
2527.739915	-3.009700	3.092100	-9.305500	27.709144	0.000288	20.844416
2528.736763	-2.984400	3.090800	-9.222500	27.681690	0.000289	20.841445
2529.736362	-3.003500	3.090400	-9.281400	27.639703	0.000288	20.821482
2530.738729	-3.017600	3.088400	-9.318800	27.578071	0.000289	20.838651
2531.737777	-3.010000	3.088600	-9.296100	27.550143	0.000288	20.851801
2532.737036	-3.005500	3.088800	-9.282200	27.539379	0.000288	20.851403
2533.738746	-2.984000	3.086700	-9.209300	27.529209	0.000287	20.839275
2534.740564	-3.002900	3.085900	-9.266400	27.501776	0.000287	20.834433
2535.738790	-3.008300	3.083100	-9.273600	27.509763	0.000287	20.851951
2536.738321	-2.992400	3.084600	-9.228800	27.528664	0.000288	20.841096
2537.743070	-2.980100	3.083100	-9.185900	27.506464	0.000285	20.834408
2538.737597	-2.994600	3.082200	-9.228700	27.486795	0.000288	20.840697
2539.736849	-2.994200	3.082100	-9.226900	27.490466	0.000286	20.833485
2540.737569	-2.987500	3.081200	-9.203600	27.497807	0.000287	20.832337
2541.741364	-2.990400	3.080400	-9.210600	27.507159	0.000286	20.851227
2542.739121	-3.016000	3.077300	-9.280000	27.526877	0.000288	20.866799
2543.743045	-2.995200	3.077300	-9.216500	27.537568	0.000286	20.846735
2544.743933	-3.010500	3.075000	-9.256800	27.525984	0.000285	20.834607
2545.739345	-2.998300	3.074500	-9.217100	27.551283	0.000287	20.850578
2546.742998	-3.002600	3.074000	-9.229200	27.610412	0.000282	20.829466
2547.740270	-3.021300	3.073900	-9.284500	27.615595	0.000286	20.853647
2548.740407	-2.987700	3.072200	-9.177500	27.581443	0.000285	20.839673
2549.745251	-2.998900	3.070300	-9.205800	27.558526	0.000286	20.868769
2550.739913	-3.001900	3.069300	-9.212600	27.529208	0.000285	20.859661
2551.738885	-3.003500	3.068500	-9.214400	27.560857	0.000285	20.855943
2552.747747	-3.009200	3.067600	-9.228700	27.571026	0.000285	20.866648
2553.743574	-2.999200	3.067800	-9.200200	27.524842	0.000286	20.855269
2554.740798	-2.986500	3.066100	-9.155800	27.518567	0.000287	20.833309
2555.742897	-3.007400	3.063600	-9.212000	27.503734	0.000286	20.841145
2556.746074	-2.987300	3.065400	-9.156500	27.494681	0.000284	20.871389
2557.740874	-3.040200	3.060200	-9.300300	27.463427	0.000284	20.851326
2558.742936	-2.991700	3.063200	-9.161900	27.460053	0.000283	20.851251
2559.738267	-3.014200	3.059600	-9.220200	27.475185	0.000286	20.872637
2560.739421	-3.030600	3.058400	-9.267800	27.521172	0.000285	20.853472
2561.744421	-2.980700	3.058500	-9.114700	27.550936	0.000284	20.854021
2562.743971	-3.004100	3.057600	-9.183800	27.621696	0.000284	20.850303
2563.741187	-2.976000	3.056100	-9.094300	27.628319	0.000286	20.877828
2564.741049	-3.006700	3.054100	-9.181500	27.640496	0.000285	20.869693
2565.746783	-3.014700	3.053700	-9.204800	27.713532	0.000283	20.856418
2566.742870	-2.997800	3.052200	-9.149300	27.714177	0.000285	20.880298
2567.747076	-3.012400	3.050900	-9.189400	27.705844	0.000283	20.857216
2568.743487	-2.991200	3.051500	-9.126400	27.707903	0.000284	20.863554
2569.742538	-2.992400	3.049400	-9.123800	27.730098	0.000282	20.869294
2570.743281	-3.013300	3.047500	-9.182200	27.737761	0.000282	20.859462
2571.746006	-2.994500	3.046400	-9.121100	27.742522	0.000282	20.874210
2572.743446	-3.007700	3.045600	-9.159900	27.717748	0.000283	20.881995
2573.747535	-3.019600	3.043900	-9.189600	27.694065	0.000284	20.881397
2574.746089	-2.998600	3.042200	-9.121600	27.659642	0.000283	20.862880
2575.747087	-2.984600	3.043300	-9.081400	27.617158	0.000282	20.883193
2576.748703	-2.992400	3.040500	-9.097400	27.607213	0.000282	20.883143
2577.745423	-3.011300	3.040000	-9.153300	27.611330	0.000284	20.875907
2578.748566	-3.012000	3.038400	-9.150800	27.665718	0.000283	20.865202
2579.751810	-3.013800	3.037200	-9.152200	27.672910	0.000283	20.857740
2580.749845	-3.025700	3.035900	-9.185000	27.696098	0.000284	20.872064
2581.745810	-3.007400	3.034100	-9.123700	27.735107	0.000283	20.866274
2582.751815	-2.995700	3.034300	-9.088200	27.777809	0.000281	20.882220
2583.746335	-3.032000	3.031000	-9.188800	27.781083	0.000282	20.879824
2584.744875	-2.995700	3.033100	-9.084500	27.735355	0.000281	20.901609
2585.745663	-2.991800	3.030700	-9.065000	27.718219	0.000282	20.910916
2586.752313	-2.994900	3.030300	-9.074600	27.718393	0.000282	20.902083
2587.748257	-3.001600	3.027700	-9.086500	27.729254	0.000282	20.885039
2588.746062	-3.044600	3.026500	-9.214100	27.735702	0.000283	20.890579
2589.754644	-3.008700	3.027200	-9.106300	27.775255	0.000282	20.901459
2590.750049	-2.975700	3.026900	-9.006100	27.769031	0.000283	20.896143
2591.753102	-2.977600	3.026400	-9.010500	27.750383	0.000283	20.888757
2592.751294	-2.998000	3.022800	-9.061500	27.720822	0.000282	20.894097
2593.749104	-2.978500	3.022600	-9.001900	27.709241	0.000281	20.887185
2594.748590	-2.969500	3.021900	-8.972100	27.695552	0.000283	20.886686
2595.752472	-3.010500	3.019800	-9.090100	27.718938	0.000282	20.891252
2596.755230	-2.994500	3.019400	-9.040800	27.748770	0.000281	20.877652
2597.753215	-2.990300	3.018700	-9.026500	27.763872	0.000282	20.923666
2598.751381	-3.009000	3.015100	-9.070500	27.797200	0.000280	20.900310
2599.756398	-2.995800	3.014700	-9.030900	27.774089	0.000281	20.902656
2600.754697	-3.018300	3.013800	-9.095100	27.787232	0.000282	20.919199
2601.752334	-2.992100	3.011300	-9.008500	27.762856	0.000279	20.876654
2602.753566	-3.000300	3.012200	-9.036100	27.713084	0.000281	20.898638
2603.754290	-3.007000	3.009400	-9.048300	27.672140	0.000282	20.905800
2604.753559	-3.024500	3.008400	-9.098700	27.724913	0.000281	20.913859
2605.755689	-2.980000	3.010100	-8.968500	27.759854	0.000280	20.906348
2606.756336	-2.999500	3.006700	-9.017800	27.794770	0.000280	20.897390
2607.762527	-2.993000	3.005500	-8.994800	27.824551	0.000280	20.892749
2608.758397	-2.984700	3.005300	-8.968300	27.855025	0.000283	20.907771
2609.755054	-2.980000	3.002900	-8.947600	27.867348	0.000279	20.906897
2610.756463	-3.013100	3.002000	-9.045200	27.839652	0.000282	20.903204
2611.756140	-2.999500	3.001700	-9.002600	27.807441	0.000280	20.912511
2612.754637	-2.995000	2.998900	-8.981000	27.786908	0.000282	20.886160
2613.756174	-3.013600	2.997000	-9.031200	27.767170	0.000281	20.902331
2614.757775	-2.990000	2.996900	-8.959800	27.797298	0.000279	20.921270
2615.753542	-2.993400	2.995000	-8.964600	27.824723	0.000279	20.902405
2616.759113	-3.002800	2.993500	-8.987900	27.864620	0.000280	20.911737
2617.760578	-2.984700	2.992800	-8.931400	27.873646	0.000279	20.915605
2618.756607	-3.009100	2.990000	-8.995900	27.868736	0.000280	20.931050
2619.759334	-2.990300	2.990500	-8.941600	27.896134	0.000280	20.914531
2620.761093	-2.996400	2.987200	-8.950100	27.811233	0.000280	20.895941
2621.759288	-2.991900	2.986900	-8.935000	27.842055	0.000279	20.922690
2622.762954	-2.983800	2.987300	-8.912700	27.809026	0.000279	20.906521
2623.755859	-3.001700	2.982900	-8.952300	27.805653	0.000279	20.926358
2624.756092	-3.023900	2.983000	-9.019700	27.829805	0.000281	20.913682
2625.760094	-3.010600	2.981900	-8.976100	27.837814	0.000279	20.918423
2626.757041	-3.001900	2.981600	-8.949000	27.835781	0.000279	20.914954
2627.756460	-3.003400	2.978600	-8.943900	27.836351	0.000279	20.906046
2628.758924	-3.016100	2.977700	-8.979700	27.849096	0.000282	20.917450
2629.755894	-3.006200	2.974600	-8.941400	27.828813	0.000281	20.925484
2630.760952	-2.985700	2.975800	-8.882800	27.831615	0.000282	20.915977
2631.763406	-2.999600	2.972900	-8.916300	27.855171	0.000280	20.918822
2632.759148	-2.995500	2.971600	-8.900200	27.906150	0.000281	20.913706
2633.756878	-2.993300	2.971400	-8.893800	27.908332	0.000280	20.919695
2634.757359	-3.007200	2.968700	-8.927200	27.925836	0.000280	20.906969
2635.762192	-3.001600	2.968600	-8.908500	27.962903	0.000280	20.893070
2636.758745	-2.988100	2.966500	-8.863000	27.969523	0.000281	20.902577
2637.763459	-2.998200	2.964700	-8.887700	28.007729	0.000279	20.903575
2638.758605	-2.991700	2.964800	-8.868200	28.016505	0.000282	20.910986
2639.759820	-3.000500	2.963100	-8.889200	28.033314	0.000279	20.892820
2640.762260	-2.973700	2.961700	-8.806600	28.022876	0.000277	20.902701
2641.764488	-2.977000	2.961700	-8.816000	27.976688	0.000281	20.883238
2642.761281	-3.004000	2.958300	-8.885500	28.006464	0.000279	20.883812
2643.766396	-2.988500	2.958200	-8.839600	28.010456	0.000278	20.904423
2644.759632	-3.003400	2.954700	-8.873100	28.047098	0.000279	20.887255
2645.759790	-3.002600	2.953800	-8.868500	28.077417	0.000279	20.883637
2646.760613	-3.028500	2.951100	-8.935700	28.103447	0.000277	20.879968
2647.762959	-2.959900	2.950900	-8.733400	28.113958	0.000279	20.886756
2648.764894	-2.989700	2.948200	-8.813100	28.062741	0.000279	20.885932
2649.761498	-2.990900	2.948800	-8.818100	27.974828	0.000278	20.890374
2650.764009	-3.025600	2.945400	-8.909700	27.912001	0.000278	20.882614
2651.762014	-2.993300	2.945100	-8.814300	27.811554	0.000279	20.878721
2652.765956	-3.008800	2.942900	-8.853200	27.813016	0.000280	20.885883
2653.765704	-2.977200	2.942200	-8.758800	27.812248	0.000279	20.891747
2654.762756	-2.994300	2.941300	-8.806100	27.830473	0.000281	20.888278
2655.764185	-2.989500	2.939300	-8.785600	27.869130	0.000278	20.887354
2656.765639	-2.998700	2.936500	-8.804600	27.897000	0.000279	20.895015
2657.769391	-3.013000	2.935400	-8.843500	27.942225	0.000279	20.895963
2658.766160	-3.005500	2.934000	-8.816500	27.961861	0.000280	20.859780
2659.768499	-2.976900	2.933900	-8.732600	27.921001	0.000278	20.871284
2660.770936	-3.011000	2.929400	-8.819200	27.913166	0.000279	20.881415
2661.768796	-3.009000	2.928600	-8.809900	27.906868	0.000279	20.879818
2662.767103	-2.990000	2.927900	-8.753700	27.926852	0.000279	20.892345
2663.772553	-2.973600	2.926100	-8.700300	27.966571	0.000279	20.889176
2664.773780	-2.996400	2.925400	-8.765000	28.008868	0.000277	20.886705
2665.778530	-2.977700	2.925000	-8.709400	28.028206	0.000278	20.872033
2666.775997	-2.985900	2.921400	-8.722200	28.065715	0.000277	20.887978
2667.772786	-3.017000	2.918200	-8.802700	28.039759	0.000280	20.878446
2668.775816	-2.982300	2.919300	-8.704800	28.038073	0.000277	20.881490
2669.771774	-3.011100	2.916600	-8.781200	27.988464	0.000278	20.885608
2670.774213	-3.021100	2.914400	-8.802300	27.975844	0.000277	20.871958
2671.776830	-2.979400	2.915200	-8.684700	27.997166	0.000278	20.860230
2672.778275	-2.993800	2.910700	-8.713100	27.983406	0.000278	20.868664
2673.777444	-2.979400	2.910400	-8.670500	27.995653	0.000280	20.872457
2674.775233	-2.972300	2.910800	-8.650700	28.032024	0.000279	20.878720
2675.772210	-3.011600	2.907900	-8.756400	28.056146	0.000279	20.883087
2676.772340	-3.022900	2.906400	-8.784000	28.059741	0.000279	20.855888
2677.772734	-2.995300	2.904400	-8.699000	28.010926	0.000278	20.871708
2678.771343	-3.000500	2.904200	-8.713600	27.937910	0.000279	20.876449
2679.770411	-2.976700	2.902700	-8.639200	27.940142	0.000279	20.868265
2680.781460	-2.994800	2.899200	-8.681600	27.933670	0.000278	20.884035
2681.775174	-3.003200	2.897400	-8.700300	27.966398	0.000279	20.872407
2682.771287	-2.997100	2.895200	-8.676600	27.947158	0.000278	20.869637
2683.777064	-2.978300	2.893500	-8.617200	27.994736	0.000279	20.871059
2684.772120	-3.029000	2.890800	-8.754500	28.000513	0.000279	20.862176
2685.771381	-2.993000	2.891500	-8.653900	28.009959	0.000278	20.873580
2686.771187	-3.013400	2.888300	-8.702900	28.038445	0.000278	20.872856
2687.772869	-2.976600	2.886900	-8.592300	28.020545	0.000278	20.879494
2688.778141	-3.013400	2.883000	-8.685600	28.076896	0.000278	20.859880
2689.781911	-3.029200	2.883000	-8.731700	28.120923	0.000281	20.867217
2690.772530	-2.986800	2.880500	-8.602200	28.159743	0.000280	20.861727
2691.778485	-3.014600	2.879100	-8.678300	28.193777	0.000278	20.867541
2692.774938	-3.025400	2.876300	-8.700400	28.205155	0.000279	20.861452
2693.774278	-3.032800	2.875100	-8.718300	28.217004	0.000280	20.848252
2694.775070	-3.007000	2.872600	-8.637100	28.207658	0.000277	20.865869
2695.774880	-2.998600	2.873200	-8.613200	28.237230	0.000278	20.878097
2696.779510	-3.014500	2.870800	-8.651800	28.225952	0.000280	20.873854
2697.776321	-3.001700	2.867800	-8.607300	28.219235	0.000278	20.876100
2698.783999	-3.025600	2.864800	-8.666900	28.233760	0.000280	20.873655
2699.781853	-3.000300	2.865200	-8.595800	28.236189	0.000280	20.849075
2700.775449	-3.012300	2.861200	-8.617300	28.302566	0.000280	20.875127
2701.781628	-3.012300	2.859600	-8.613100	28.250194	0.000280	20.878346
2702.782515	-3.011800	2.857500	-8.605500	28.210088	0.000279	20.861677
2703.780049	-3.013000	2.856700	-8.606100	28.177988	0.000278	20.869188
2704.777629	-2.979900	2.852800	-8.499900	28.189861	0.000279	20.855064
2705.780227	-2.982900	2.851700	-8.506000	28.202875	0.000279	20.845881
2706.778512	-3.016600	2.848400	-8.591500	28.233215	0.000280	20.849400
2707.780662	-2.986800	2.849400	-8.509900	28.231678	0.000279	20.849275
2708.782563	-2.996800	2.845800	-8.527300	28.199926	0.000277	20.860929
2709.785830	-2.985200	2.846000	-8.495200	28.226969	0.000280	20.860180
2710.782844	-3.001400	2.841800	-8.527600	28.201140	0.000279	20.854566
2711.783971	-2.995200	2.838500	-8.501100	28.212692	0.000279	20.859557
2712.779024	-2.976600	2.838900	-8.449900	28.202057	0.000278	20.864497
2713.779642	-3.010500	2.835400	-8.535400	28.191994	0.000278	20.868116
2714.781094	-3.001400	2.833000	-8.502100	28.142367	0.000279	20.841864
2715.782816	-2.958900	2.831200	-8.376100	28.119859	0.000279	20.848128
2716.782713	-3.011500	2.827300	-8.512700	28.139095	0.000278	20.858484
2717.782341	-2.957800	2.826300	-8.358300	28.144574	0.000279	20.861628
2718.781308	-2.996400	2.824300	-8.462600	28.175436	0.000280	20.855714
2719.782920	-3.041600	2.821500	-8.580600	28.207487	0.000278	20.839619
2720.780787	-3.005700	2.820700	-8.477500	28.205256	0.000280	20.860131
2721.782782	-2.992300	2.818400	-8.432600	28.233984	0.000279	20.857760
2722.788344	-3.013800	2.814400	-8.481000	28.215146	0.000281	20.841640
2723.785424	-3.029800	2.810700	-8.514800	28.247989	0.000280	20.834878
2724.787249	-3.016100	2.809800	-8.473400	28.232373	0.000280	20.871785
2725.782036	-2.989500	2.807100	-8.390800	28.207065	0.000280	20.843936
2726.787246	-3.024100	2.805800	-8.482200	28.184583	0.000279	20.844535
2727.781789	-2.951500	2.804400	-8.274900	28.207735	0.000279	20.843661
2728.786780	-3.015700	2.798900	-8.439300	28.223153	0.000281	20.864873
2729.781950	-3.008100	2.797500	-8.414400	28.239066	0.000280	20.850075
2730.788776	-2.958800	2.796600	-8.272800	28.226995	0.000280	20.848353
2731.788938	-2.988200	2.791800	-8.341200	28.233638	0.000278	20.846032
2732.786116	-3.013400	2.789400	-8.403800	28.271090	0.000280	20.850075
2733.788606	-3.028600	2.786900	-8.438600	28.282814	0.000279	20.845284
2734.785508	-2.975100	2.786400	-8.287900	28.278997	0.000278	20.854242
2735.786434	-2.970900	2.782700	-8.265900	28.258276	0.000279	20.834803
2736.786772	-3.008100	2.779800	-8.360400	28.273247	0.000278	20.850824
2737.787622	-2.982700	2.775600	-8.276900	28.281302	0.000279	20.853244
2738.784012	-2.989400	2.772000	-8.284800	28.287028	0.000279	20.841940
2739.790341	-2.981400	2.772300	-8.263600	28.279245	0.000278	20.829363
2740.788591	-3.013300	2.767900	-8.340200	28.325965	0.000279	20.845583
2741.786779	-2.993000	2.767100	-8.281100	28.355534	0.000278	20.848329
2742.789643	-3.010000	2.761400	-8.310700	28.400144	0.000281	20.843462
2743.791238	-2.997000	2.759000	-8.268000	28.399624	0.000280	20.827292
2744.791523	-3.010500	2.755700	-8.294700	28.405027	0.000279	20.858336
2745.786926	-3.000600	2.752700	-8.259000	28.432213	0.000278	20.841616
2746.790649	-3.015500	2.748600	-8.287600	28.470006	0.000279	20.844112
2747.788313	-3.004900	2.748200	-8.256800	28.486733	0.000280	20.830611
2748.789193	-2.992500	2.745100	-8.213500	28.487501	0.000277	20.841342
2749.794644	-2.999000	2.740500	-8.218000	28.498083	0.000277	20.835403
2750.792363	-3.007100	2.737100	-8.229300	28.547198	0.000278	20.820854
2751.792878	-2.976300	2.735200	-8.140100	28.564692	0.000276	20.856489
2752.795880	-2.997200	2.729900	-8.181400	28.577403	0.000277	20.853644
2753.799665	-2.971000	2.728700	-8.105500	28.507029	0.000278	20.841566
2754.793030	-3.006500	2.724000	-8.189200	28.480786	0.000276	20.833631
2755.797094	-2.976400	2.721000	-8.097700	28.451023	0.000278	20.854393
2756.792810	-3.012000	2.718300	-8.185600	28.462967	0.000277	20.840343
2757.792274	-2.997500	2.715500	-8.138800	28.453848	0.000279	20.830686
2758.796680	-2.990100	2.710100	-8.102400	28.457565	0.000278	20.850549
2759.799153	-3.002800	2.707300	-8.128900	28.516519	0.000276	20.830735
2760.792544	-2.980100	2.704200	-8.058400	28.517981	0.000277	20.823199
2761.798171	-2.995000	2.701000	-8.088400	28.502022	0.000277	20.837947
2762.796965	-3.006700	2.697200	-8.108200	28.493720	0.000277	20.829113
2763.794376	-3.015400	2.692900	-8.119500	28.543057	0.000277	20.824745
2764.799545	-2.990400	2.690600	-8.045000	28.550094	0.000276	20.815237
2765.795926	-2.979600	2.686600	-8.004000	28.581985	0.000276	20.828862
2766.800653	-2.988400	2.681900	-8.013300	28.608052	0.000276	20.838045
2767.797813	-3.054500	2.677100	-8.175400	28.607581	0.000277	20.814812
2768.798635	-2.980600	2.674400	-7.970200	28.620019	0.000275	20.844408
2769.797495	-2.993500	2.670600	-7.993400	28.617293	0.000275	20.826015
2770.798010	-3.019300	2.665100	-8.046100	28.649602	0.000275	20.799288
2771.796474	-3.018400	2.661000	-8.030500	28.637659	0.000275	20.814286
2772.796216	-3.036400	2.657700	-8.068600	28.639666	0.000274	20.816781
2773.801645	-3.001400	2.654500	-7.966400	28.693357	0.000276	20.809219
2774.803823	-3.044600	2.649300	-8.064700	28.716869	0.000277	20.812987
2775.799614	-3.001200	2.645200	-7.937600	28.753486	0.000276	20.795817
2776.797354	-2.985200	2.641100	-7.882900	28.776799	0.000274	20.816455
2777.803902	-3.023200	2.635900	-7.968200	28.770827	0.000275	20.809492
2778.799178	-3.004000	2.632100	-7.906300	28.772660	0.000276	20.814183
2779.797648	-2.948200	2.630000	-7.752100	28.744689	0.000275	20.814457
2780.799646	-3.010900	2.622000	-7.894100	28.724150	0.000273	20.818424
2781.801288	-2.994500	2.618400	-7.840000	28.683889	0.000274	20.805846
2782.806387	-2.976800	2.614200	-7.780600	28.696623	0.000275	20.804449
2783.802098	-2.979000	2.609600	-7.773000	28.686861	0.000274	20.796986
2784.802298	-2.986900	2.603900	-7.776900	28.701479	0.000274	20.795589
2785.801093	-3.013100	2.597600	-7.826300	28.729450	0.000275	20.798633
2786.804513	-3.023100	2.592100	-7.834600	28.781774	0.000277	20.794440
2787.805852	-3.018400	2.586800	-7.806300	28.789132	0.000275	20.792842
2788.806922	-3.015700	2.582200	-7.786000	28.829042	0.000276	20.789897
2789.805050	-2.981800	2.577200	-7.684000	28.842790	0.000273	20.794264
2790.802989	-3.005300	2.572400	-7.729900	28.792525	0.000275	20.792467
2791.805920	-2.967800	2.567700	-7.619200	28.816431	0.000274	20.787626
2792.806369	-3.060200	2.558500	-7.827900	28.824953	0.000276	20.793840
2793.810229	-3.004000	2.556200	-7.677200	28.848462	0.000274	20.765839
2794.811778	-3.006700	2.548700	-7.662500	28.849057	0.000273	20.781611
2795.805966	-3.007700	2.544000	-7.650600	28.820865	0.000275	20.766962
2796.804505	-2.985800	2.539400	-7.580600	28.788089	0.000274	20.803646
2797.805877	-3.019800	2.531800	-7.645200	28.825621	0.000274	20.778866
2798.807789	-3.029100	2.526300	-7.651600	28.864614	0.000277	20.798231
2799.805717	-2.994600	2.520300	-7.545900	28.891293	0.000273	20.790495
2800.808523	-3.007400	2.512700	-7.555700	28.874126	0.000273	20.762295
2801.808480	-2.993600	2.507500	-7.505400	28.911308	0.000276	20.786003
2802.810053	-3.011400	2.500600	-7.529300	28.906627	0.000274	20.778441
2803.808446	-3.008600	2.495300	-7.505700	28.898229	0.000274	20.769981
