LabVIEW Measurement	
Writer_Version	2
Reader_Version	2
Separator	Tab
Decimal_Separator	.
Multi_Headings	No
X_Columns	One
Time_Pref	Absolute
Operator	admin
Description	Clolumns are: time, Current, Voltage, Power, Battery Temp, and Chamber Temp
Date	2024/08/16
Time	13:06:06.104549407958984375
***End_of_Header***	
	
Channels	6						
Samples	1	1	1	1	1	1	
Date	2024/09/20	2024/09/20	2024/09/20	2024/09/20	2024/09/20	2024/09/20	
Time	14:26:34.5164799690246582031	14:26:34.5214896202087402344	14:26:34.5264878273010253906	14:26:34.4993481636047363282	14:26:34.4993481636047363282	14:26:34.4993481636047363282	
X_Dimension	Time	Time	Time	Time	Time	Time	
X0	0.0000000000000000E+0	0.0000000000000000E+0	0.0000000000000000E+0	0.0000000000000000E+0	0.0000000000000000E+0	0.0000000000000000E+0	
Delta_X	1.000000	1.000000	1.000000	1.000000	1.000000	1.000000	
***End_of_Header***							
X_Value	Untitled	Untitled 1	Untitled 2	Untitled 3	Untitled 4	Untitled 5	Comment
0.000000	0.008982	4.094600	0.036757	21.005793	0.001067	20.750242
1.001356	-3.014200	3.903300	-11.763000	20.992870	0.001070	20.760077
2.006185	-3.010600	3.895300	-11.726000	21.016050	0.001066	20.735370
3.007229	-2.999000	3.891100	-11.668000	21.001779	0.001065	20.732950
4.004658	-2.987000	3.888700	-11.613000	21.011825	0.001065	20.720712
5.006686	-2.971600	3.884500	-11.542000	21.031114	0.001064	20.726255
6.005357	-2.995400	3.880900	-11.623000	21.027975	0.001063	20.735918
7.009389	-2.986400	3.878200	-11.581000	21.021380	0.001061	20.728847
8.008073	-3.004900	3.874900	-11.642000	21.032013	0.001062	20.735690
9.001987	-3.023500	3.872300	-11.705000	21.030517	0.001062	20.732771
10.009234	-3.013800	3.870200	-11.664000	21.016868	0.001060	20.739033
11.003495	-3.015800	3.869000	-11.667000	21.027771	0.001059	20.740930
12.008511	-3.014400	3.867200	-11.656000	21.023611	0.001056	20.721120
13.013661	-2.987200	3.866500	-11.548000	21.040824	0.001059	20.742132
14.004610	-2.988400	3.865700	-11.551000	21.040947	0.001055	20.730400
15.013139	-2.982900	3.864300	-11.526000	21.066088	0.001056	20.743219
16.014242	-3.002600	3.862500	-11.597000	21.042140	0.001056	20.731120
17.012633	-3.001900	3.861100	-11.590000	21.049684	0.001052	20.725388
18.012158	-3.011400	3.859100	-11.620000	21.062728	0.001054	20.726108
19.009404	-2.997400	3.859300	-11.566000	21.054898	0.001053	20.738191
20.013649	-3.008500	3.857300	-11.604000	21.067526	0.001053	20.743235
21.013910	-3.006900	3.856100	-11.593000	21.065401	0.001053	20.715030
22.015279	-3.007700	3.854400	-11.589000	21.105048	0.001051	20.739515
23.017750	-3.015800	3.855800	-11.626000	21.081870	0.001053	20.741461
24.012195	-3.016300	3.854300	-11.624000	21.094406	0.001053	20.712274
25.012309	-3.021600	3.852600	-11.640000	21.093254	0.001052	20.727718
26.011425	-2.999100	3.852900	-11.554000	21.093785	0.001051	20.738206
27.009650	-3.021700	3.849900	-11.632000	21.106535	0.001051	20.712552
28.013310	-3.000000	3.850000	-11.549000	21.112101	0.001048	20.717171
29.011638	-3.005200	3.849400	-11.568000	21.110556	0.001051	20.721316
30.011126	-3.009800	3.849000	-11.583000	21.136774	0.001049	20.723360
31.009015	-2.998900	3.850300	-11.544000	21.124605	0.001051	20.718773
32.013334	-2.978800	3.850100	-11.467000	21.127759	0.001050	20.729989
33.010628	-2.982700	3.847900	-11.475000	21.158022	0.001050	20.721380
34.013962	-2.999100	3.847500	-11.537000	21.147945	0.001048	20.741647
35.012268	-2.986400	3.846500	-11.486000	21.156657	0.001051	20.708160
36.016351	-3.012900	3.843600	-11.579000	21.167935	0.001049	20.682929
37.021156	-3.009300	3.844300	-11.567000	21.174276	0.001046	20.712035
38.016685	-2.988200	3.844700	-11.487000	21.206009	0.001049	20.717226
39.016298	-2.989700	3.844000	-11.490000	21.199921	0.001049	20.696436
40.013347	-2.993900	3.843600	-11.506000	21.203419	0.001049	20.695193
41.024887	-3.029600	3.843900	-11.645000	21.205739	0.001047	20.717905
42.025762	-2.979300	3.843900	-11.451000	21.224682	0.001048	20.711724
43.021024	-3.010400	3.841500	-11.563000	21.216673	0.001048	20.716515
44.015018	-3.000500	3.841400	-11.525000	21.248830	0.001048	20.715493
45.018975	-2.978000	3.843400	-11.444000	21.242963	0.001047	20.718632
46.022491	-2.996800	3.841800	-11.512000	21.232290	0.001047	20.716490
47.020200	-3.000200	3.840800	-11.523000	21.260238	0.001047	20.716947
48.024926	-3.005300	3.840600	-11.541000	21.250530	0.001047	20.703916
49.020094	-3.024600	3.839300	-11.611000	21.270648	0.001045	20.715034
50.024723	-2.998900	3.839500	-11.513000	21.285488	0.001046	20.719923
51.027853	-2.991200	3.839800	-11.483000	21.285520	0.001045	20.727542
52.026334	-2.985800	3.837700	-11.458000	21.289312	0.001045	20.708101
53.022452	-3.007100	3.837100	-11.538000	21.296380	0.001047	20.701895
54.027586	-3.004000	3.839100	-11.531000	21.314186	0.001046	20.708330
55.020347	-3.006700	3.837900	-11.537000	21.316286	0.001046	20.721337
56.020222	-3.006400	3.836600	-11.534000	21.318786	0.001047	20.706293
57.024023	-3.022700	3.835400	-11.590000	21.328673	0.001045	20.720453
58.019331	-2.993800	3.835900	-11.484000	21.331983	0.001044	20.697210
59.023642	-3.001800	3.834500	-11.509000	21.344386	0.001045	20.706301
60.026639	-3.016500	3.834100	-11.564000	21.344664	0.001047	20.675282
61.023224	-3.025500	3.833100	-11.596000	21.348954	0.001047	20.689533
62.023436	-3.014400	3.833300	-11.553000	21.390740	0.001045	20.691985
63.024986	-2.995300	3.834000	-11.483000	21.349909	0.001046	20.689540
64.022281	-3.008900	3.833500	-11.533000	21.391010	0.001047	20.699368
65.020320	-2.978600	3.834300	-11.419000	21.414664	0.001045	20.690317
66.020647	-2.990000	3.833300	-11.460000	21.431169	0.001046	20.708729
67.022493	-3.015000	3.831200	-11.550000	21.407278	0.001047	20.690988
68.020817	-2.999100	3.833900	-11.497000	21.417540	0.001046	20.696514
69.021171	-2.996000	3.831600	-11.477000	21.466669	0.001046	20.680236
70.018587	-2.990500	3.831100	-11.457000	21.437966	0.001046	20.693244
71.020198	-2.991300	3.831600	-11.460000	21.440107	0.001047	20.681160
72.021056	-3.005400	3.828800	-11.505000	21.474153	0.001045	20.696735
73.020012	-2.981000	3.830300	-11.417000	21.456620	0.001046	20.706219
74.020766	-2.969300	3.831200	-11.374000	21.470215	0.001046	20.711287
75.021904	-2.983400	3.829200	-11.423000	21.478941	0.001047	20.691094
76.019694	-3.012900	3.829300	-11.536000	21.492160	0.001045	20.694364
77.023273	-2.997200	3.829100	-11.475000	21.502463	0.001047	20.689499
78.018642	-2.989000	3.828900	-11.443000	21.508394	0.001048	20.708238
79.028678	-3.008000	3.827500	-11.512000	21.513427	0.001049	20.674391
80.026877	-2.983400	3.828100	-11.418000	21.506842	0.001048	20.699572
81.026083	-2.986300	3.827700	-11.430000	21.519261	0.001048	20.676909
82.038463	-2.986400	3.827000	-11.428000	21.547292	0.001049	20.683621
83.024819	-3.003400	3.826100	-11.490000	21.553084	0.001049	20.693685
84.028478	-2.995800	3.825200	-11.458000	21.563999	0.001050	20.686589
85.021159	-2.986500	3.827200	-11.429000	21.557741	0.001047	20.702614
86.026335	-3.007600	3.825600	-11.505000	21.583377	0.001050	20.678479
87.025400	-2.988700	3.827400	-11.437000	21.581931	0.001049	20.696948
88.053987	-3.017800	3.824500	-11.540000	21.604414	0.001048	20.677245
89.025697	-3.004500	3.824900	-11.491000	21.595166	0.001051	20.675102
90.025604	-3.007900	3.824600	-11.503000	21.611897	0.001050	20.688053
91.027247	-3.008800	3.825700	-11.510000	21.632091	0.001051	20.685977
92.031324	-3.030300	3.823500	-11.585000	21.637916	0.001049	20.689435
93.026695	-3.001000	3.824100	-11.475000	21.632737	0.001050	20.703219
94.024770	-3.037600	3.823300	-11.612000	21.628816	0.001051	20.695502
95.032374	-3.036000	3.822200	-11.603000	21.669359	0.001050	20.673959
96.027079	-2.998000	3.823200	-11.461000	21.676335	0.001051	20.675251
97.029977	-3.024300	3.822000	-11.557000	21.697403	0.001049	20.693491
98.040012	-3.017400	3.822000	-11.531000	21.687674	0.001052	20.692764
99.035409	-3.018200	3.820600	-11.528000	21.687895	0.001052	20.700572
100.028132	-3.016500	3.820700	-11.525000	21.710106	0.001052	20.674434
101.032391	-3.008100	3.821200	-11.494000	21.703195	0.001052	20.674156
102.029910	-2.998600	3.821800	-11.459000	21.722956	0.001052	20.659317
103.035675	-2.990700	3.822100	-11.430000	21.715670	0.001050	20.676683
104.030196	-3.015100	3.820300	-11.517000	21.730332	0.001055	20.682349
105.026277	-3.009400	3.820400	-11.495000	21.745713	0.001052	20.682096
106.029110	-2.947100	3.822000	-11.263000	21.745910	0.001053	20.683715
107.031023	-3.012600	3.819800	-11.506000	21.728527	0.001052	20.691449
108.031638	-2.998500	3.820800	-11.456000	21.754707	0.001052	20.683037
109.032853	-2.983700	3.821000	-11.399000	21.756994	0.001052	20.667781
110.032619	-3.000500	3.819800	-11.461000	21.775544	0.001054	20.693935
111.032053	-3.001300	3.819100	-11.461000	21.798228	0.001052	20.672539
112.036600	-3.015000	3.818800	-11.512000	21.802181	0.001054	20.683610
113.036611	-3.009300	3.819400	-11.492000	21.810039	0.001052	20.689578
114.035712	-3.003300	3.819600	-11.471000	21.824022	0.001053	20.690298
115.035067	-3.000300	3.817900	-11.453000	21.831553	0.001056	20.684084
116.033595	-2.987000	3.818100	-11.404000	21.832117	0.001057	20.656197
117.034061	-3.001200	3.817600	-11.456000	21.825681	0.001055	20.669197
118.039739	-3.024900	3.815800	-11.540000	21.835874	0.001054	20.678452
119.039503	-2.991900	3.817700	-11.420000	21.840808	0.001055	20.684339
120.039943	-2.989100	3.818100	-11.411000	21.848706	0.001057	20.647196
121.032899	-2.985600	3.816800	-11.394000	21.865230	0.001057	20.679859
122.040285	-2.998400	3.816800	-11.443000	21.852717	0.001056	20.679663
123.043417	-3.006500	3.815400	-11.470000	21.853509	0.001056	20.690888
124.038640	-3.002900	3.816300	-11.459000	21.887192	0.001058	20.669599
125.035956	-2.992900	3.816000	-11.420000	21.906336	0.001057	20.671218
126.036197	-3.012600	3.815900	-11.493000	21.913107	0.001056	20.666615
127.038067	-2.983100	3.815900	-11.382000	21.919616	0.001058	20.689728
128.037042	-3.004600	3.814300	-11.460000	21.941178	0.001059	20.679067
129.040317	-2.990100	3.816500	-11.411000	21.930243	0.001059	20.679501
130.038899	-2.994800	3.814500	-11.422000	21.958173	0.001058	20.665258
131.036177	-2.988500	3.814700	-11.400000	21.944339	0.001059	20.676541
132.043849	-2.985300	3.814400	-11.387000	21.955471	0.001061	20.696695
133.039025	-3.005400	3.813900	-11.462000	21.964176	0.001061	20.684071
134.043313	-2.982900	3.815200	-11.379000	21.980919	0.001061	20.672855
135.042528	-3.016500	3.813700	-11.504000	22.000567	0.001061	20.677351
136.039927	-2.990500	3.812900	-11.402000	21.994655	0.001060	20.676174
137.044418	-2.992000	3.812500	-11.405000	21.990433	0.001062	20.683329
138.041403	-2.990900	3.812300	-11.401000	22.008162	0.001062	20.701552
139.045600	-3.011900	3.811700	-11.479000	22.001499	0.001064	20.671645
140.038990	-3.017600	3.811400	-11.499000	22.018698	0.001063	20.688864
141.048603	-3.001700	3.810800	-11.438000	22.024055	0.001062	20.685218
142.047650	-2.987300	3.811200	-11.384000	22.007820	0.001064	20.682716
143.042877	-2.996200	3.812200	-11.421000	22.019809	0.001064	20.682863
144.048780	-3.030700	3.810300	-11.547000	22.011757	0.001063	20.669586
145.042368	-3.012600	3.810700	-11.479000	22.024693	0.001064	20.697711
146.043082	-3.010000	3.810800	-11.470000	22.041351	0.001065	20.666021
147.054766	-3.012000	3.809400	-11.472000	22.040944	0.001068	20.676045
148.043695	-3.004800	3.811200	-11.451000	22.039817	0.001067	20.664485
149.042573	-3.011500	3.809900	-11.473000	22.027274	0.001067	20.675163
150.040633	-3.014100	3.809900	-11.483000	22.046318	0.001067	20.675261
151.044194	-2.994100	3.809600	-11.405000	22.040658	0.001067	20.695202
152.041212	-2.989700	3.808500	-11.385000	22.030638	0.001067	20.688963
153.042128	-3.008900	3.808100	-11.458000	22.061989	0.001067	20.692848
154.044137	-3.011000	3.808500	-11.466000	22.059898	0.001068	20.687909
155.057056	-2.996500	3.808600	-11.411000	22.043125	0.001068	20.678229
156.043821	-2.995100	3.809000	-11.407000	22.085368	0.001066	20.693019
157.049293	-2.987700	3.808700	-11.377000	22.091599	0.001068	20.669383
158.045078	-3.014300	3.807200	-11.475000	22.093101	0.001070	20.691752
159.047386	-2.977800	3.808200	-11.339000	22.109849	0.001070	20.681017
160.049377	-2.997300	3.807000	-11.409000	22.120408	0.001072	20.693960
161.046637	-2.982100	3.806800	-11.351000	22.157251	0.001072	20.695759
162.053586	-2.991200	3.806300	-11.384000	22.167098	0.001072	20.679538
163.049777	-3.013400	3.806000	-11.468000	22.179779	0.001073	20.696977
164.050190	-3.000600	3.806900	-11.422000	22.202143	0.001072	20.689496
165.056910	-3.010100	3.805900	-11.455000	22.200919	0.001072	20.682579
166.047985	-3.009300	3.806300	-11.454000	22.212424	0.001074	20.688409
167.046616	-3.022200	3.805900	-11.501000	22.182785	0.001074	20.689554
168.046917	-3.010400	3.804700	-11.452000	22.188198	0.001075	20.669842
169.046146	-2.998600	3.804700	-11.408000	22.211297	0.001074	20.701981
170.049710	-3.003200	3.805400	-11.427000	22.217356	0.001075	20.714212
171.049545	-2.965000	3.806000	-11.284000	22.233114	0.001076	20.683046
172.049994	-3.012800	3.803400	-11.458000	22.243026	0.001076	20.692972
173.049514	-3.002800	3.804400	-11.423000	22.252897	0.001076	20.694795
174.046247	-3.001700	3.803600	-11.416000	22.246864	0.001077	20.688279
175.048413	-2.989100	3.804500	-11.371000	22.277171	0.001075	20.700608
176.053084	-2.991100	3.803700	-11.376000	22.277701	0.001077	20.684068
177.052628	-3.012000	3.802200	-11.452000	22.267700	0.001078	20.683537
178.052956	-2.983200	3.803600	-11.345000	22.263764	0.001079	20.691925
179.053261	-2.999700	3.802800	-11.405000	22.294569	0.001078	20.688156
180.051833	-2.995700	3.803400	-11.392000	22.305215	0.001080	20.691230
181.059888	-2.995700	3.801800	-11.388000	22.310000	0.001079	20.696969
182.056261	-2.979400	3.801600	-11.325000	22.310890	0.001081	20.690748
183.054114	-3.014500	3.800800	-11.456000	22.331765	0.001080	20.680356
184.061977	-2.996300	3.802300	-11.392000	22.333283	0.001080	20.707483
185.048485	-3.012400	3.800700	-11.449000	22.331929	0.001083	20.687633
186.056462	-3.012600	3.800000	-11.446000	22.352722	0.001080	20.679530
187.053041	-3.012400	3.799700	-11.445000	22.361123	0.001081	20.694107
188.058765	-3.014300	3.799600	-11.452000	22.395158	0.001083	20.680299
189.054262	-2.987400	3.800800	-11.353000	22.376030	0.001084	20.696233
190.049420	-3.005800	3.799600	-11.419000	22.408269	0.001082	20.703861
191.058532	-2.981900	3.800000	-11.330000	22.393370	0.001084	20.699373
192.054989	-2.989500	3.800400	-11.360000	22.416718	0.001083	20.699994
193.060394	-2.992500	3.799300	-11.368000	22.412660	0.001084	20.713476
194.055911	-2.975300	3.799300	-11.303000	22.390831	0.001085	20.691140
195.056656	-2.997100	3.798900	-11.385000	22.403411	0.001087	20.684297
196.064058	-3.003800	3.797500	-11.405000	22.404856	0.001088	20.693805
197.060153	-2.995400	3.798300	-11.376000	22.437102	0.001087	20.709977
198.056128	-3.010300	3.797400	-11.430000	22.442016	0.001087	20.700673
199.063824	-2.981600	3.798100	-11.324000	22.458678	0.001087	20.701711
200.056802	-3.006600	3.797200	-11.416000	22.479167	0.001088	20.702316
201.068636	-2.998400	3.797300	-11.384000	22.487812	0.001091	20.694852
202.057885	-3.004600	3.796800	-11.406000	22.508317	0.001091	20.698318
203.060573	-2.992700	3.796000	-11.359000	22.487878	0.001090	20.700134
204.070058	-3.000000	3.796300	-11.388000	22.497975	0.001092	20.698866
205.058619	-2.992600	3.795300	-11.356000	22.493657	0.001090	20.703551
206.058537	-2.977200	3.796500	-11.302000	22.501257	0.001092	20.696463
207.059504	-2.989800	3.795700	-11.346000	22.520742	0.001091	20.696537
208.072388	-3.002400	3.795900	-11.396000	22.526896	0.001094	20.708392
209.067086	-3.015600	3.796600	-11.447000	22.552854	0.001095	20.717794
210.059068	-3.018800	3.794600	-11.453000	22.559090	0.001092	20.720720
211.073145	-3.010800	3.794700	-11.425000	22.559254	0.001096	20.716143
212.062179	-3.000800	3.794600	-11.386000	22.577047	0.001096	20.702669
213.074784	-3.004600	3.793900	-11.398000	22.592572	0.001096	20.727703
214.060463	-2.988400	3.795100	-11.339000	22.598890	0.001097	20.727393
215.061923	-3.005000	3.793200	-11.397000	22.610652	0.001095	20.715464
216.060322	-3.013900	3.794000	-11.434000	22.627760	0.001099	20.723592
217.068583	-3.010100	3.793300	-11.417000	22.627760	0.001097	20.717901
218.071434	-2.987300	3.794700	-11.335000	22.641292	0.001097	20.716282
219.060955	-2.995700	3.793400	-11.362000	22.616398	0.001100	20.706047
220.063168	-2.998700	3.792200	-11.371000	22.607575	0.001099	20.708589
221.066242	-3.003400	3.792400	-11.389000	22.630389	0.001100	20.705361
222.059719	-2.979900	3.793500	-11.303000	22.656818	0.001100	20.717608
223.066535	-2.990300	3.791400	-11.337000	22.657029	0.001100	20.715449
224.060958	-3.000000	3.790500	-11.369000	22.659952	0.001100	20.709368
225.081347	-3.013200	3.790600	-11.422000	22.666685	0.001101	20.720380
226.067800	-2.981200	3.792500	-11.305000	22.645204	0.001102	20.708345
227.066965	-2.993900	3.791200	-11.349000	22.670710	0.001102	20.711134
228.065870	-2.994000	3.790300	-11.347000	22.680454	0.001103	20.712834
229.071837	-2.997800	3.790400	-11.362000	22.689546	0.001102	20.724313
230.070426	-3.013200	3.789900	-11.416000	22.718821	0.001102	20.733249
231.066607	-2.971300	3.789400	-11.258000	22.734589	0.001104	20.728654
232.064830	-3.021400	3.787400	-11.441000	22.740213	0.001104	20.705362
233.067070	-2.991300	3.789900	-11.336000	22.768736	0.001106	20.727772
234.076546	-2.973100	3.789600	-11.266000	22.748137	0.001105	20.735113
235.068269	-2.999600	3.789600	-11.367000	22.773069	0.001105	20.715042
236.082030	-2.992700	3.787800	-11.335000	22.746244	0.001107	20.722784
237.072229	-3.012800	3.788200	-11.412000	22.725139	0.001108	20.722981
238.068605	-3.006300	3.786900	-11.383000	22.720724	0.001107	20.740371
239.075858	-2.995800	3.788200	-11.348000	22.739543	0.001108	20.734091
240.072957	-2.988300	3.787900	-11.318000	22.770531	0.001109	20.718664
241.066781	-3.003900	3.787000	-11.374000	22.743950	0.001111	20.734713
242.068171	-2.977900	3.787900	-11.278000	22.774889	0.001110	20.714495
243.068397	-3.011300	3.786700	-11.402000	22.806977	0.001111	20.714396
244.077269	-3.014700	3.784800	-11.409000	22.807818	0.001111	20.724248
245.074970	-3.019100	3.784800	-11.426000	22.809719	0.001110	20.725679
246.071750	-3.004700	3.785600	-11.374000	22.825934	0.001111	20.726276
247.076715	-3.016700	3.785000	-11.416000	22.856030	0.001114	20.752159
248.073126	-3.032000	3.784300	-11.473000	22.859188	0.001113	20.742520
249.071628	-2.978700	3.785200	-11.274000	22.866256	0.001113	20.714986
250.078849	-2.998300	3.785200	-11.348000	22.881335	0.001114	20.735784
251.097531	-3.027000	3.783600	-11.452000	22.875501	0.001114	20.744164
252.071133	-3.008800	3.784000	-11.383000	22.881703	0.001116	20.741368
253.070810	-3.015300	3.784300	-11.409000	22.893584	0.001116	20.730985
254.072033	-2.961300	3.785200	-11.208000	22.908533	0.001117	20.732685
255.077229	-2.998300	3.785600	-11.348000	22.921507	0.001116	20.728140
256.076715	-2.989600	3.783500	-11.310000	22.914808	0.001117	20.716686
257.075284	-3.002500	3.783300	-11.359000	22.933265	0.001118	20.728541
258.076285	-2.995300	3.783200	-11.331000	22.940585	0.001118	20.720701
259.080950	-3.007100	3.782400	-11.372000	22.939369	0.001116	20.754097
260.079406	-2.968000	3.783200	-11.227000	22.953037	0.001118	20.740289
261.078847	-2.987200	3.783900	-11.302000	22.937476	0.001118	20.735130
262.086554	-2.997200	3.782900	-11.337000	22.918496	0.001119	20.735081
263.076317	-2.986000	3.781800	-11.291000	22.926166	0.001120	20.744188
264.089385	-2.999500	3.782600	-11.345000	22.944550	0.001119	20.740796
265.082879	-3.000600	3.781200	-11.344000	22.973019	0.001121	20.736602
266.079431	-3.012500	3.780700	-11.389000	22.970775	0.001121	20.759485
267.086036	-2.999200	3.780900	-11.339000	22.963635	0.001122	20.746641
268.077063	-3.017100	3.780500	-11.405000	22.961832	0.001122	20.762853
269.078075	-2.985400	3.780800	-11.286000	22.965268	0.001124	20.746380
270.080034	-3.009700	3.778700	-11.371000	22.997285	0.001124	20.742422
271.077662	-2.981400	3.779600	-11.267000	22.986873	0.001124	20.756173
272.078492	-2.993600	3.779200	-11.313000	23.004824	0.001122	20.760883
273.083110	-2.995400	3.778800	-11.317000	23.038904	0.001124	20.753778
274.077879	-3.000000	3.778400	-11.334000	23.000149	0.001122	20.756198
275.077684	-2.996100	3.779500	-11.321000	23.007043	0.001126	20.760735
276.083835	-3.004900	3.779100	-11.355000	23.026650	0.001127	20.754775
277.078891	-3.005900	3.777600	-11.354000	23.027368	0.001126	20.753124
278.080680	-3.017100	3.777300	-11.396000	23.026519	0.001130	20.758912
279.078693	-2.997500	3.777300	-11.321000	23.049992	0.001127	20.737386
280.082441	-3.004900	3.776200	-11.347000	23.065429	0.001129	20.741474
281.082530	-3.014400	3.776200	-11.382000	23.089717	0.001127	20.753483
282.079831	-2.993200	3.776100	-11.300000	23.076271	0.001128	20.776047
283.083502	-2.998100	3.778400	-11.327000	23.107152	0.001132	20.757677
284.080221	-3.012700	3.776200	-11.374000	23.113458	0.001130	20.758306
285.085717	-2.999800	3.776700	-11.328000	23.104622	0.001129	20.757513
286.087424	-2.999700	3.776100	-11.326000	23.110781	0.001131	20.765107
287.083824	-3.018500	3.774500	-11.392000	23.111401	0.001133	20.769048
288.087043	-3.007000	3.774600	-11.349000	23.075284	0.001132	20.755142
289.093246	-3.002200	3.774100	-11.328000	23.098927	0.001131	20.769824
290.094111	-2.982500	3.775400	-11.259000	23.078359	0.001132	20.754904
291.087714	-2.983500	3.774400	-11.260000	23.059234	0.001134	20.758501
292.089461	-2.990700	3.774800	-11.287000	23.089323	0.001133	20.770159
293.086851	-2.998400	3.772800	-11.312000	23.086582	0.001135	20.746549
294.082566	-2.992100	3.774800	-11.293000	23.079565	0.001133	20.752794
295.090839	-2.988000	3.773200	-11.273000	23.106619	0.001134	20.771842
296.093545	-3.019900	3.772600	-11.391000	23.135809	0.001134	20.772169
297.091205	-2.991900	3.771000	-11.281000	23.144653	0.001135	20.752581
298.086619	-2.980000	3.772600	-11.241000	23.158946	0.001136	20.763585
299.084702	-2.995100	3.771600	-11.295000	23.151554	0.001135	20.760445
300.085771	-2.997500	3.772400	-11.307000	23.178949	0.001137	20.762293
301.095794	-2.991900	3.772600	-11.285000	23.197133	0.001139	20.768187
302.098446	-2.999100	3.770600	-11.307000	23.220741	0.001137	20.758654
303.087926	-3.018400	3.770600	-11.380000	23.203757	0.001138	20.768187
304.104859	-2.993400	3.769600	-11.283000	23.248134	0.001139	20.771882
305.088243	-2.999300	3.769800	-11.306000	23.246992	0.001140	20.763625
306.104835	-2.998300	3.771300	-11.306000	23.236657	0.001142	20.761802
307.090840	-2.988300	3.769300	-11.263000	23.235784	0.001139	20.783687
308.092255	-2.987700	3.770400	-11.264000	23.229812	0.001141	20.769642
309.089361	-2.995800	3.767900	-11.287000	23.209842	0.001141	20.760060
310.092958	-2.987000	3.768400	-11.254000	23.212085	0.001143	20.789335
311.097101	-2.998500	3.767700	-11.296000	23.220977	0.001141	20.760313
312.093804	-3.004600	3.766500	-11.316000	23.234478	0.001142	20.763412
313.097953	-2.987400	3.767500	-11.253000	23.198666	0.001143	20.782051
314.096838	-2.991500	3.767400	-11.269000	23.201276	0.001144	20.775184
315.092444	-2.979800	3.767800	-11.225000	23.216302	0.001143	20.780285
316.103286	-2.992700	3.767100	-11.272000	23.231313	0.001144	20.766404
317.095244	-3.003000	3.765000	-11.304000	23.254374	0.001146	20.773394
318.094856	-3.031600	3.765000	-11.413000	23.301710	0.001145	20.772944
319.096302	-2.970500	3.766700	-11.188000	23.305863	0.001146	20.788011
320.093626	-3.000900	3.763900	-11.294000	23.309109	0.001146	20.755228
321.103068	-2.989400	3.765600	-11.255000	23.316955	0.001147	20.772102
322.110513	-2.997400	3.763800	-11.281000	23.306866	0.001146	20.786646
323.101930	-3.012000	3.763200	-11.333000	23.301286	0.001149	20.773941
324.095847	-3.013500	3.763500	-11.340000	23.331124	0.001148	20.795785
325.094187	-2.993200	3.763700	-11.264000	23.342618	0.001150	20.785019
326.095508	-3.001000	3.762700	-11.290000	23.337316	0.001150	20.792507
327.101834	-2.999900	3.762800	-11.287000	23.360007	0.001149	20.785378
328.103773	-3.004200	3.762300	-11.302000	23.374493	0.001149	20.785198
329.093490	-3.006500	3.762400	-11.311000	23.390896	0.001150	20.784095
330.108516	-3.005300	3.762400	-11.306000	23.396230	0.001151	20.782803
331.097682	-3.007400	3.762400	-11.314000	23.410790	0.001152	20.773214
332.103066	-3.024100	3.760700	-11.372000	23.393514	0.001153	20.796676
333.104084	-3.001800	3.761200	-11.288000	23.387487	0.001152	20.796799
334.095053	-3.004000	3.760800	-11.297000	23.375113	0.001152	20.798148
335.100600	-3.017200	3.760100	-11.343000	23.369910	0.001152	20.794355
336.096498	-2.991000	3.761200	-11.248000	23.330040	0.001152	20.785689
337.098523	-2.985900	3.761700	-11.231000	23.349037	0.001154	20.792401
338.101784	-3.031500	3.759200	-11.395000	23.360391	0.001152	20.788134
339.112447	-3.028200	3.759300	-11.383000	23.359950	0.001154	20.783899
340.101159	-3.001500	3.758900	-11.279000	23.374184	0.001156	20.801958
341.100953	-3.015700	3.758000	-11.332000	23.386810	0.001156	20.801337
342.099445	-3.000700	3.759000	-11.278000	23.369625	0.001154	20.790750
343.100957	-3.008600	3.758900	-11.308000	23.377398	0.001154	20.806601
344.100723	-3.002100	3.758700	-11.284000	23.384290	0.001157	20.793595
345.097769	-2.997200	3.758500	-11.263000	23.376623	0.001158	20.802506
346.100360	-2.980900	3.758400	-11.203000	23.384746	0.001157	20.807803
347.099866	-3.017500	3.756100	-11.333000	23.382219	0.001158	20.807640
348.103642	-2.982600	3.757000	-11.205000	23.370399	0.001157	20.803855
349.102775	-3.000500	3.756600	-11.270000	23.378540	0.001157	20.794944
350.101663	-2.975500	3.757000	-11.177000	23.405978	0.001158	20.806798
351.111133	-2.983200	3.755600	-11.202000	23.392463	0.001159	20.812217
352.102546	-2.982800	3.756500	-11.203000	23.413645	0.001159	20.803577
353.119818	-2.996900	3.756000	-11.253000	23.439989	0.001158	20.802481
354.102169	-2.968400	3.757100	-11.151000	23.440854	0.001161	20.807616
355.104823	-2.990000	3.754100	-11.223000	23.482587	0.001161	20.813411
356.111017	-3.009800	3.754800	-11.300000	23.457460	0.001161	20.801027
357.107541	-2.987800	3.754500	-11.216000	23.479529	0.001160	20.809397
358.110830	-2.998400	3.753200	-11.252000	23.466227	0.001160	20.811237
359.108562	-2.994400	3.754700	-11.241000	23.471210	0.001160	20.807223
360.106637	-3.002600	3.752500	-11.265000	23.428212	0.001162	20.829083
361.108750	-2.999900	3.752700	-11.257000	23.463063	0.001164	20.811384
362.107962	-2.983700	3.753100	-11.197000	23.446979	0.001161	20.827031
363.111811	-2.999800	3.754200	-11.261000	23.457737	0.001162	20.841132
364.110590	-2.971500	3.752300	-11.149000	23.429476	0.001162	20.821341
365.108820	-3.008900	3.751200	-11.286000	23.478999	0.001162	20.814556
366.104999	-3.001100	3.751800	-11.259000	23.490075	0.001164	20.817123
367.107286	-3.001400	3.752000	-11.259000	23.497121	0.001165	20.814703
368.111145	-3.006100	3.751100	-11.275000	23.511238	0.001162	20.813207
369.108794	-3.006200	3.749700	-11.272000	23.512356	0.001164	20.839931
370.111552	-2.998400	3.749600	-11.242000	23.510366	0.001165	20.833669
371.111225	-2.990100	3.749800	-11.211000	23.498239	0.001164	20.813453
372.115046	-2.996600	3.749100	-11.233000	23.521564	0.001165	20.803643
373.116525	-3.024400	3.747800	-11.334000	23.544675	0.001166	20.826810
374.107051	-3.029600	3.748000	-11.353000	23.558588	0.001165	20.838386
375.115286	-3.000000	3.748100	-11.243000	23.554209	0.001166	20.822616
376.110045	-2.992200	3.749200	-11.218000	23.544186	0.001166	20.830586
377.112545	-2.982400	3.748500	-11.178000	23.525160	0.001165	20.842334
378.111162	-2.981100	3.748200	-11.171000	23.524670	0.001166	20.817188
379.109880	-3.011300	3.747300	-11.284000	23.546600	0.001167	20.851023
380.111202	-3.009800	3.745700	-11.272000	23.564688	0.001167	20.829328
381.120769	-2.977500	3.748800	-11.161000	23.606270	0.001167	20.820752
382.114614	-3.002800	3.745600	-11.246000	23.631453	0.001168	20.815652
383.112649	-2.988100	3.747000	-11.195000	23.653861	0.001169	20.828159
384.116415	-3.021900	3.745300	-11.318000	23.690376	0.001170	20.846274
385.119574	-2.999600	3.746000	-11.236000	23.668074	0.001169	20.824864
386.115003	-2.992600	3.746100	-11.209000	23.689462	0.001171	20.834453
387.115242	-2.986700	3.745900	-11.187000	23.693792	0.001169	20.836423
388.116473	-3.002400	3.744000	-11.240000	23.708201	0.001171	20.840911
389.120430	-2.994300	3.744300	-11.210000	23.722038	0.001169	20.856206
390.117542	-3.011900	3.743700	-11.275000	23.703619	0.001172	20.836792
391.120029	-3.005000	3.741700	-11.242000	23.690156	0.001173	20.839415
392.117307	-2.984000	3.743000	-11.168000	23.708983	0.001170	20.846437
393.120983	-3.016300	3.742600	-11.288000	23.699990	0.001170	20.823671
394.115654	-3.002000	3.742900	-11.233000	23.732027	0.001172	20.851522
395.113262	-2.982600	3.742100	-11.160000	23.744698	0.001170	20.845260
396.122993	-3.004200	3.741500	-11.240000	23.752639	0.001170	20.831886
397.118691	-2.980400	3.741400	-11.150000	23.776554	0.001174	20.831208
398.128470	-3.008100	3.741200	-11.253000	23.772999	0.001173	20.865574
399.119689	-3.009800	3.740200	-11.256000	23.744151	0.001172	20.836652
400.118845	-3.020800	3.740800	-11.298000	23.755827	0.001174	20.831289
401.119958	-3.013400	3.739700	-11.268000	23.750650	0.001174	20.828469
402.121851	-3.017100	3.739600	-11.281000	23.771058	0.001173	20.847034
403.126146	-3.000000	3.739900	-11.219000	23.795527	0.001175	20.821308
404.128859	-2.995100	3.740000	-11.201000	23.838087	0.001173	20.833635
405.117405	-3.001000	3.738400	-11.218000	23.825645	0.001174	20.833488
406.122019	-2.975500	3.740000	-11.128000	23.832192	0.001174	20.827725
407.122667	-2.982000	3.739500	-11.150000	23.854834	0.001176	20.824823
408.122515	-2.977500	3.738800	-11.131000	23.858796	0.001175	20.813149
409.127801	-3.000600	3.737900	-11.215000	23.884436	0.001174	20.814677
410.129390	-2.988100	3.739100	-11.171000	23.907500	0.001176	20.850606
411.124651	-2.994500	3.738200	-11.192000	23.915620	0.001177	20.818920
412.121939	-3.009800	3.737100	-11.246000	23.915620	0.001175	20.824610
413.128757	-3.017500	3.736000	-11.272000	23.917031	0.001176	20.839774
414.120770	-2.997900	3.736400	-11.200000	23.912001	0.001174	20.821929
415.132000	-2.989600	3.736500	-11.170000	23.907150	0.001178	20.833186
416.123089	-2.976500	3.736200	-11.119000	23.918628	0.001174	20.817195
417.124038	-2.986300	3.735800	-11.155000	23.923847	0.001175	20.825747
418.125311	-2.982300	3.735500	-11.139000	23.930589	0.001178	20.835352
419.125270	-2.996900	3.734600	-11.190000	23.897188	0.001177	20.837421
420.126511	-2.991200	3.735100	-11.170000	23.887812	0.001177	20.812372
421.125069	-3.000700	3.733800	-11.202000	23.888407	0.001178	20.817237
422.124472	-2.989900	3.734300	-11.164000	23.863370	0.001179	20.827692
423.126392	-3.024900	3.732500	-11.289000	23.895174	0.001178	20.820229
424.125849	-2.993600	3.732900	-11.174000	23.921075	0.001178	20.825813
425.124413	-3.008100	3.733000	-11.228000	23.922175	0.001178	20.808424
426.126653	-2.984000	3.733600	-11.139000	23.960370	0.001177	20.825862
427.129579	-3.000100	3.731900	-11.195000	23.967242	0.001177	20.811416
428.124675	-2.994400	3.731700	-11.172000	23.974505	0.001178	20.802580
429.135911	-3.008100	3.731900	-11.224000	23.968709	0.001178	20.819526
430.138093	-2.996700	3.731100	-11.180000	24.004619	0.001176	20.810019
431.129127	-3.027400	3.729000	-11.287000	23.992497	0.001179	20.814932
432.131020	-2.995000	3.729400	-11.167000	24.006429	0.001180	20.820843
433.125908	-3.006000	3.728900	-11.207000	23.994739	0.001178	20.805326
434.126636	-2.989800	3.730100	-11.151000	24.003339	0.001178	20.810158
435.127197	-2.999800	3.729100	-11.185000	23.996769	0.001181	20.821113
436.127864	-3.024200	3.727700	-11.272000	24.019790	0.001179	20.795835
437.130702	-2.990300	3.727700	-11.146000	24.002989	0.001179	20.819290
438.132723	-3.006500	3.728700	-11.209000	24.038417	0.001181	20.785119
439.129148	-3.001400	3.727800	-11.187000	24.020605	0.001181	20.783377
440.131872	-3.020700	3.726100	-11.254000	24.008908	0.001180	20.810052
441.125831	-3.003200	3.725900	-11.189000	23.987028	0.001179	20.813715
442.126642	-2.992900	3.727800	-11.156000	24.004922	0.001181	20.812219
443.124715	-3.020700	3.726000	-11.253000	24.009055	0.001177	20.811622
444.127736	-3.006300	3.726500	-11.202000	24.016987	0.001181	20.803930
445.136753	-2.991400	3.725400	-11.143000	24.005541	0.001180	20.794349
446.129678	-2.983200	3.725100	-11.112000	24.025473	0.001183	20.797267
447.129149	-2.996200	3.724900	-11.160000	24.032614	0.001182	20.795420
448.132668	-3.003500	3.726200	-11.191000	24.050229	0.001182	20.806922
449.132541	-2.976500	3.724800	-11.086000	24.029818	0.001182	20.790245
450.131838	-3.014000	3.723500	-11.220000	24.045803	0.001183	20.792526
451.134231	-3.006000	3.724600	-11.194000	24.012283	0.001182	20.784988
452.136949	-3.013400	3.722700	-11.217000	24.003398	0.001182	20.777500
453.132810	-2.996300	3.722400	-11.153000	24.013457	0.001183	20.782846
454.132410	-3.029100	3.722200	-11.274000	24.031734	0.001184	20.800701
455.138263	-2.975400	3.722700	-11.076000	24.040496	0.001183	20.800006
456.139986	-3.020600	3.723200	-11.245000	24.044573	0.001182	20.789395
457.141845	-2.990100	3.722900	-11.131000	24.025261	0.001183	20.791840
458.138975	-3.004400	3.721300	-11.179000	23.997611	0.001184	20.778809
459.151932	-2.993100	3.721900	-11.139000	24.013164	0.001182	20.789665
460.137393	-2.991100	3.721500	-11.130000	23.990771	0.001183	20.767682
461.134496	-3.042200	3.718600	-11.311000	24.016832	0.001184	20.799982
462.133911	-3.013000	3.719700	-11.207000	24.026386	0.001182	20.801502
463.134776	-2.996000	3.719400	-11.142000	24.082942	0.001183	20.794685
464.134688	-3.015000	3.719000	-11.211000	24.091395	0.001181	20.783248
465.133552	-3.017000	3.719000	-11.219000	24.098266	0.001184	20.791562
466.143698	-2.994800	3.719600	-11.139000	24.067658	0.001184	20.788840
467.139844	-3.019900	3.717200	-11.224000	24.048600	0.001183	20.791063
468.138931	-3.014500	3.717800	-11.206000	24.057779	0.001184	20.785570
469.138512	-3.005000	3.719300	-11.175000	24.060811	0.001183	20.782447
470.140871	-2.987500	3.718700	-11.109000	24.089577	0.001181	20.788538
471.145319	-3.044200	3.715100	-11.309000	24.095740	0.001186	20.789977
472.143492	-3.005100	3.717400	-11.170000	24.092928	0.001183	20.787156
473.139511	-2.993000	3.717400	-11.125000	24.108113	0.001184	20.774885
474.137966	-3.006500	3.716100	-11.171000	24.137392	0.001185	20.789078
475.151283	-3.013300	3.714900	-11.193000	24.114521	0.001183	20.787476
476.146264	-3.003800	3.715300	-11.160000	24.104397	0.001182	20.783960
477.144012	-3.006000	3.714500	-11.165000	24.086701	0.001186	20.764315
478.146757	-3.016000	3.714400	-11.201000	24.099816	0.001184	20.789323
479.144143	-3.028000	3.714600	-11.247000	24.062043	0.001184	20.782734
480.144378	-3.003700	3.715300	-11.158000	24.076324	0.001182	20.771927
481.144989	-2.986300	3.714200	-11.090000	24.097126	0.001182	20.782358
482.143228	-3.015400	3.713500	-11.197000	24.127424	0.001183	20.793305
483.144267	-3.000000	3.712800	-11.137000	24.117031	0.001183	20.779088
484.146311	-2.999800	3.713800	-11.138000	24.108872	0.001184	20.787974
485.148847	-3.014600	3.712200	-11.190000	24.079886	0.001186	20.784034
486.150553	-2.978800	3.713400	-11.061000	24.061114	0.001185	20.781803
487.148892	-3.006200	3.711000	-11.154000	24.040319	0.001183	20.757154
488.145538	-3.003600	3.710400	-11.143000	24.046409	0.001184	20.783650
489.151828	-2.990600	3.711400	-11.099000	24.063454	0.001183	20.766131
490.145049	-2.984300	3.711200	-11.074000	24.077694	0.001184	20.791792
491.149980	-2.987400	3.711600	-11.087000	24.114170	0.001183	20.769106
492.150340	-2.993600	3.710200	-11.106000	24.130920	0.001184	20.792544
493.145143	-3.008800	3.710300	-11.162000	24.155356	0.001186	20.764895
494.156497	-3.011800	3.708300	-11.167000	24.162122	0.001183	20.757456
495.144000	-2.995100	3.710900	-11.112000	24.164314	0.001184	20.780518
496.146051	-2.992400	3.710400	-11.102000	24.166433	0.001184	20.762255
497.145960	-3.013600	3.708400	-11.174000	24.184821	0.001185	20.766947
498.145696	-2.999900	3.709200	-11.126000	24.199402	0.001185	20.748855
499.147021	-3.014700	3.706900	-11.175000	24.214659	0.001184	20.787393
500.148624	-2.993900	3.710000	-11.107000	24.185937	0.001183	20.775180
501.147674	-2.998200	3.707500	-11.114000	24.179327	0.001185	20.745315
502.150059	-2.985300	3.707400	-11.067000	24.178683	0.001183	20.765532
503.152722	-2.997400	3.707600	-11.113000	24.192539	0.001184	20.778956
504.148186	-2.994500	3.706200	-11.097000	24.202767	0.001184	20.774517
505.145167	-2.996300	3.705800	-11.103000	24.210534	0.001185	20.746745
506.148894	-2.996000	3.705700	-11.101000	24.202555	0.001186	20.760079
507.152238	-3.010700	3.705100	-11.153000	24.211235	0.001184	20.762147
508.156057	-2.992200	3.704900	-11.085000	24.203924	0.001187	20.770461
509.153139	-2.997000	3.705000	-11.103000	24.198227	0.001184	20.762850
510.146512	-2.974400	3.705700	-11.020000	24.231472	0.001183	20.760634
511.149329	-2.999200	3.704500	-11.108000	24.254186	0.001185	20.760184
512.153778	-3.001600	3.704000	-11.117000	24.278424	0.001183	20.756521
513.156515	-2.985800	3.704900	-11.061000	24.290958	0.001183	20.751077
514.149507	-2.999900	3.703800	-11.111000	24.292327	0.001183	20.756718
515.154945	-2.994300	3.703000	-11.087000	24.290770	0.001185	20.734766
516.151791	-3.002000	3.700400	-11.108000	24.304787	0.001184	20.760207
517.159219	-2.990200	3.702000	-11.068000	24.305081	0.001184	20.753390
518.155043	-3.002300	3.702000	-11.113000	24.274804	0.001184	20.771857
519.165599	-3.006700	3.702600	-11.132000	24.253264	0.001184	20.744560
520.160016	-2.990200	3.702600	-11.070000	24.284665	0.001183	20.758515
521.154456	-2.985900	3.700500	-11.048000	24.289473	0.001183	20.744845
522.160541	-2.987400	3.700100	-11.053000	24.269098	0.001183	20.763763
523.152642	-2.989100	3.700000	-11.059000	24.258748	0.001184	20.751958
524.165029	-3.005700	3.699400	-11.118000	24.225740	0.001183	20.764368
525.154685	-2.976100	3.701100	-11.014000	24.247940	0.001182	20.751074
526.157992	-2.987800	3.700000	-11.054000	24.243384	0.001184	20.777799
527.155514	-2.988800	3.700400	-11.059000	24.271404	0.001183	20.734306
528.160522	-2.989400	3.698900	-11.057000	24.311109	0.001185	20.749954
529.163496	-3.002700	3.697300	-11.101000	24.309593	0.001184	20.733259
530.163445	-3.011600	3.697400	-11.134000	24.309944	0.001183	20.723653
531.166306	-3.015300	3.696500	-11.145000	24.294451	0.001185	20.733243
532.164391	-3.013300	3.695800	-11.134000	24.309014	0.001184	20.749748
533.170298	-2.991000	3.695900	-11.053000	24.314588	0.001183	20.741589
534.160645	-2.994400	3.697600	-11.071000	24.316006	0.001185	20.739692
535.162960	-3.019000	3.696700	-11.159000	24.326755	0.001184	20.724396
536.165096	-3.014100	3.696200	-11.140000	24.331563	0.001184	20.725900
537.157449	-3.007800	3.696100	-11.116000	24.338058	0.001182	20.747115
538.164666	-2.991700	3.694400	-11.051000	24.333437	0.001182	20.748169
539.160761	-2.994200	3.694400	-11.060000	24.380303	0.001183	20.737337
540.174966	-3.002600	3.694000	-11.089000	24.384638	0.001184	20.745005
541.159202	-3.002400	3.693800	-11.088000	24.416134	0.001184	20.736298
542.167996	-3.015200	3.693200	-11.134000	24.425236	0.001183	20.739266
543.162856	-2.997800	3.693400	-11.071000	24.438379	0.001183	20.742969
544.166297	-2.989800	3.693200	-11.040000	24.451262	0.001183	20.737876
545.178539	-3.007000	3.691700	-11.100000	24.485192	0.001183	20.724500
546.160479	-3.004100	3.692100	-11.090000	24.472440	0.001184	20.728776
547.169937	-3.014500	3.691500	-11.126000	24.468659	0.001182	20.710283
548.168442	-2.992900	3.692600	-11.051000	24.453332	0.001182	20.715295
549.170011	-3.003000	3.690700	-11.081000	24.448336	0.001180	20.746320
550.165965	-2.993800	3.690300	-11.046000	24.470851	0.001181	20.714378
551.174532	-2.995500	3.691200	-11.055000	24.437180	0.001181	20.740343
552.165948	-3.019400	3.689700	-11.140000	24.451285	0.001181	20.729838
553.171407	-2.964700	3.691300	-10.942000	24.470165	0.001183	20.726020
554.170959	-2.993600	3.688600	-11.040000	24.478949	0.001183	20.734359
555.177670	-2.997300	3.688300	-11.053000	24.480619	0.001181	20.742199
556.170918	-2.984100	3.689000	-11.006000	24.500045	0.001183	20.731342
557.165235	-3.000100	3.689300	-11.067000	24.504453	0.001180	20.706365
558.172623	-3.010300	3.687300	-11.097000	24.522338	0.001182	20.715301
559.174863	-2.996500	3.688700	-11.052000	24.522313	0.001183	20.727605
560.167550	-2.979000	3.687800	-10.984000	24.505186	0.001181	20.721326
561.175368	-2.992300	3.686700	-11.031000	24.539888	0.001183	20.717736
562.173874	-2.970200	3.687200	-10.950000	24.531430	0.001180	20.710673
563.166349	-2.987800	3.686900	-11.014000	24.547074	0.001183	20.723051
564.165720	-2.996700	3.686000	-11.044000	24.543115	0.001181	20.699636
565.170808	-2.992100	3.685000	-11.024000	24.543367	0.001182	20.720753
566.170339	-3.019000	3.685100	-11.124000	24.551075	0.001180	20.709046
567.172729	-3.012100	3.685300	-11.098000	24.585702	0.001180	20.712496
568.167854	-2.994300	3.686500	-11.037000	24.588741	0.001179	20.711277
569.169337	-3.006200	3.684100	-11.074000	24.603929	0.001181	20.707550
570.171711	-3.010900	3.684200	-11.091000	24.601818	0.001179	20.727719
571.168744	-3.000600	3.682800	-11.050000	24.616149	0.001180	20.698474
572.169116	-2.995500	3.683800	-11.034000	24.619555	0.001181	20.703314
573.174122	-3.013200	3.682200	-11.094000	24.626374	0.001181	20.677912
574.171125	-3.008600	3.682300	-11.078000	24.624981	0.001180	20.698327
575.172347	-3.027400	3.680300	-11.139000	24.638831	0.001179	20.719813
576.171320	-2.998800	3.681800	-11.039000	24.635450	0.001179	20.709307
577.177024	-2.992200	3.682100	-11.016000	24.634407	0.001179	20.713477
578.173383	-3.001800	3.681100	-11.048000	24.659500	0.001178	20.710206
579.170000	-3.010700	3.680600	-11.079000	24.667704	0.001178	20.694256
580.175787	-3.015900	3.679500	-11.095000	24.666074	0.001177	20.718700
581.176000	-3.015900	3.679200	-11.095000	24.706760	0.001178	20.699782
582.174277	-3.022100	3.677600	-11.112000	24.691346	0.001178	20.709920
583.171829	-2.994300	3.679500	-11.015000	24.702083	0.001179	20.695089
584.177184	-3.010200	3.679800	-11.076000	24.705220	0.001179	20.687804
585.176314	-2.969100	3.680100	-10.926000	24.696445	0.001180	20.706502
586.179025	-2.993000	3.679200	-11.011000	24.722164	0.001179	20.707180
587.175971	-2.986700	3.678200	-10.985000	24.699875	0.001179	20.687183
588.175147	-2.995700	3.677500	-11.016000	24.694930	0.001178	20.699291
589.188959	-3.010000	3.678200	-11.070000	24.664599	0.001179	20.701097
590.177133	-3.012300	3.676600	-11.074000	24.664917	0.001178	20.711849
591.179290	-2.969100	3.679900	-10.925000	24.660713	0.001176	20.701940
592.175383	-3.015400	3.676600	-11.084000	24.674791	0.001177	20.703738
593.177419	-3.015200	3.675900	-11.083000	24.668648	0.001177	20.707058
594.175333	-3.004100	3.675300	-11.040000	24.669943	0.001178	20.710254
595.176785	-2.994400	3.675300	-11.005000	24.673129	0.001178	20.703493
596.181837	-3.014700	3.674900	-11.077000	24.693545	0.001175	20.698375
597.178870	-2.970500	3.676400	-10.919000	24.686612	0.001176	20.689994
598.178803	-3.015900	3.673600	-11.079000	24.699915	0.001179	20.706665
599.178942	-3.007900	3.672900	-11.046000	24.672860	0.001177	20.681410
600.178509	-3.015800	3.672700	-11.074000	24.647767	0.001175	20.680412
601.176851	-3.010000	3.672700	-11.054000	24.631578	0.001177	20.689299
602.179293	-2.991100	3.673400	-10.986000	24.653095	0.001175	20.690975
603.177204	-3.006900	3.672600	-11.042000	24.626763	0.001175	20.699167
604.180133	-3.012700	3.672800	-11.064000	24.625338	0.001175	20.690624
605.181531	-2.996800	3.672300	-11.004000	24.622706	0.001175	20.681818
606.181840	-3.005600	3.672200	-11.035000	24.641460	0.001175	20.686887
607.184226	-2.990700	3.671800	-10.980000	24.652997	0.001175	20.688506
608.180211	-3.003600	3.671600	-11.027000	24.692875	0.001175	20.690116
609.183115	-3.007900	3.671600	-11.043000	24.683645	0.001175	20.688440
610.193233	-3.002800	3.672000	-11.024000	24.675433	0.001173	20.681622
611.185108	-2.991600	3.671400	-10.982000	24.678000	0.001176	20.692732
612.187362	-2.991900	3.670400	-10.979000	24.718106	0.001174	20.677975
613.183119	-2.993600	3.671400	-10.988000	24.718464	0.001173	20.684974
614.186804	-2.982300	3.670500	-10.945000	24.724876	0.001173	20.682398
615.184195	-3.021200	3.669400	-11.085000	24.741494	0.001174	20.684851
616.186361	-3.012500	3.669000	-11.052000	24.745355	0.001173	20.688726
617.183459	-2.976500	3.668600	-10.918000	24.708224	0.001175	20.680387
618.179467	-2.986700	3.669100	-10.957000	24.682480	0.001172	20.694858
619.182999	-2.995400	3.667500	-10.986000	24.664133	0.001174	20.691620
620.181818	-2.987900	3.668900	-10.962000	24.649786	0.001172	20.690026
621.187166	-3.020100	3.666100	-11.071000	24.642120	0.001174	20.703671
622.184433	-3.003200	3.666400	-11.009000	24.665086	0.001172	20.679773
623.185874	-2.965900	3.667300	-10.875000	24.715385	0.001172	20.681409
624.184412	-3.000200	3.667600	-11.003000	24.748573	0.001171	20.686264
625.182570	-3.015800	3.665000	-11.051000	24.773272	0.001172	20.680705
626.187506	-2.984900	3.666800	-10.943000	24.753224	0.001171	20.679552
627.184530	-2.996100	3.666500	-10.985000	24.756882	0.001172	20.693181
628.184187	-2.982400	3.665500	-10.930000	24.753183	0.001170	20.699901
629.184042	-3.002700	3.664700	-11.003000	24.771879	0.001172	20.678832
630.189438	-3.008000	3.664100	-11.020000	24.763529	0.001172	20.678039
631.185333	-2.998400	3.663700	-10.984000	24.759822	0.001170	20.691390
632.190566	-2.977600	3.663100	-10.904000	24.772807	0.001172	20.690196
633.188062	-3.001100	3.664200	-10.995000	24.763308	0.001169	20.682086
634.188259	-3.009400	3.662300	-11.021000	24.748987	0.001169	20.715132
635.189637	-3.015200	3.663900	-11.047000	24.740694	0.001168	20.685944
636.187626	-3.013800	3.662800	-11.038000	24.744963	0.001171	20.704929
637.196403	-3.011000	3.661300	-11.023000	24.742983	0.001170	20.678758
638.190631	-3.013100	3.661200	-11.031000	24.774338	0.001169	20.690784
639.197901	-2.983900	3.661900	-10.926000	24.769865	0.001170	20.696728
640.193278	-2.975600	3.662300	-10.896000	24.793041	0.001169	20.676362
641.189707	-3.003400	3.660700	-10.993000	24.776879	0.001170	20.699500
642.192347	-3.010700	3.660800	-11.021000	24.787868	0.001170	20.678758
643.198255	-2.984300	3.659500	-10.918000	24.785457	0.001169	20.669699
644.196924	-2.979100	3.661000	-10.906000	24.836540	0.001169	20.704846
645.190445	-3.000500	3.658800	-10.977000	24.789090	0.001168	20.679035
646.194737	-3.002000	3.659700	-10.986000	24.776740	0.001168	20.696041
647.200501	-2.996400	3.659000	-10.963000	24.765849	0.001168	20.686532
648.198577	-3.004800	3.658800	-10.992000	24.733174	0.001169	20.675078
649.195059	-2.968800	3.661100	-10.867000	24.700571	0.001168	20.697839
650.199465	-2.981700	3.660600	-10.913000	24.689476	0.001167	20.699033
651.196837	-2.981700	3.659300	-10.910000	24.703284	0.001165	20.671636
652.193176	-3.002500	3.657700	-10.981000	24.732522	0.001167	20.695289
653.196622	-3.010000	3.656500	-11.004000	24.732376	0.001166	20.676173
654.194557	-2.983000	3.657000	-10.908000	24.741459	0.001166	20.684341
655.198473	-2.997800	3.656800	-10.961000	24.782531	0.001166	20.705172
656.197100	-3.001300	3.655600	-10.971000	24.805723	0.001166	20.694781
657.199459	-2.983300	3.655800	-10.905000	24.824996	0.001165	20.666231
658.198943	-2.998700	3.655100	-10.960000	24.829508	0.001164	20.672657
659.199292	-3.003100	3.654000	-10.972000	24.833981	0.001164	20.707968
660.198862	-3.008000	3.654900	-10.992000	24.863394	0.001165	20.695762
661.198013	-3.008800	3.654600	-10.995000	24.855884	0.001165	20.692966
662.197418	-3.009800	3.653400	-10.994000	24.865495	0.001164	20.666574
663.198586	-3.019200	3.652900	-11.028000	24.887920	0.001167	20.695721
664.206312	-2.993400	3.654300	-10.938000	24.883587	0.001165	20.693268
665.198670	-2.993100	3.653000	-10.932000	24.926242	0.001164	20.688665
666.200839	-2.995700	3.652500	-10.941000	24.906849	0.001163	20.705711
667.203426	-3.009800	3.650600	-10.986000	24.947778	0.001163	20.686571
668.201968	-2.997500	3.651600	-10.945000	24.945098	0.001164	20.710436
669.202771	-2.982900	3.653700	-10.897000	24.941840	0.001163	20.695311
670.203691	-3.017300	3.652200	-11.019000	24.951809	0.001162	20.678763
671.203153	-2.998900	3.650800	-10.947000	24.958073	0.001163	20.700699
672.199870	-3.010500	3.649400	-10.985000	24.948901	0.001162	20.696709
673.207128	-3.006500	3.650400	-10.974000	24.962210	0.001161	20.705326
674.207055	-3.020500	3.648200	-11.018000	24.975657	0.001161	20.697486
675.202766	-3.006200	3.649300	-10.969000	24.945717	0.001162	20.712954
676.203195	-3.006700	3.648200	-10.968000	24.926731	0.001161	20.704803
677.203934	-3.010100	3.649600	-10.984000	24.898956	0.001163	20.702530
678.207580	-2.988000	3.649000	-10.902000	24.910717	0.001161	20.717181
679.203254	-3.012200	3.648900	-10.990000	24.913666	0.001160	20.701173
680.208665	-2.973800	3.648400	-10.849000	24.944927	0.001161	20.700781
681.212064	-2.990600	3.647800	-10.909000	24.966795	0.001159	20.687167
682.206355	-3.024100	3.645600	-11.024000	24.981504	0.001159	20.711417
683.203589	-3.022700	3.646200	-11.020000	24.965142	0.001160	20.714434
684.206869	-2.993200	3.647500	-10.916000	24.997166	0.001159	20.700110
685.204051	-3.010900	3.645400	-10.975000	25.016240	0.001160	20.705506
686.207425	-2.985400	3.647000	-10.887000	24.999210	0.001158	20.705956
687.205613	-3.003700	3.645700	-10.950000	25.001100	0.001157	20.730613
688.209289	-3.000400	3.646900	-10.942000	25.015344	0.001157	20.708400
689.211647	-3.008400	3.646300	-10.968000	25.037505	0.001157	20.715472
690.211360	-2.991000	3.645800	-10.903000	25.003697	0.001157	20.711882
691.209256	-2.997300	3.646700	-10.928000	24.994470	0.001156	20.715423
692.207906	-2.980100	3.646500	-10.866000	24.954374	0.001158	20.710264
693.209430	-2.995200	3.645300	-10.916000	24.950587	0.001157	20.709781
694.207928	-2.999200	3.645200	-10.932000	24.973563	0.001156	20.711981
695.212245	-3.005400	3.643600	-10.949000	24.967177	0.001155	20.711735
696.212600	-3.001500	3.643700	-10.936000	24.984240	0.001156	20.711792
697.213230	-3.007900	3.643100	-10.957000	25.009700	0.001157	20.710795
698.213969	-3.003000	3.643600	-10.940000	25.038034	0.001155	20.725961
699.216746	-3.011500	3.644700	-10.975000	25.080277	0.001156	20.714310
700.217151	-3.018900	3.642200	-10.994000	25.097207	0.001154	20.718979
701.210809	-3.018000	3.642900	-10.993000	25.107900	0.001154	20.724497
702.215592	-3.010200	3.641700	-10.962000	25.107330	0.001155	20.719183
703.211872	-2.982500	3.642900	-10.864000	25.106662	0.001155	20.718038
704.224431	-2.999400	3.641200	-10.920000	25.089357	0.001152	20.745238
705.220541	-2.987200	3.640400	-10.874000	25.045135	0.001155	20.705112
706.218753	-3.002400	3.639400	-10.925000	25.037276	0.001154	20.695800
707.219742	-3.014900	3.640500	-10.975000	25.062083	0.001154	20.703159
708.219659	-3.011300	3.640600	-10.962000	25.065642	0.001152	20.725699
709.216602	-3.011400	3.640200	-10.962000	25.079983	0.001152	20.745312
710.217509	-2.993000	3.638700	-10.889000	25.113771	0.001151	20.727072
711.216758	-2.998000	3.639600	-10.911000	25.117175	0.001153	20.710100
712.213587	-2.993900	3.639000	-10.894000	25.109227	0.001153	20.715871
713.219625	-2.994500	3.639500	-10.895000	25.125107	0.001153	20.729917
714.213926	-2.995100	3.637800	-10.894000	25.125905	0.001153	20.718864
715.219341	-3.006100	3.638300	-10.936000	25.122998	0.001153	20.704090
716.216730	-3.014300	3.638600	-10.966000	25.157249	0.001150	20.716665
717.218764	-3.010000	3.636200	-10.943000	25.149766	0.001151	20.729067
718.221715	-3.001300	3.636400	-10.913000	25.155661	0.001150	20.740202
719.221747	-2.989300	3.636500	-10.867000	25.174179	0.001151	20.731765
720.217439	-2.980800	3.635700	-10.836000	25.194194	0.001151	20.725306
721.215307	-2.998100	3.633900	-10.893000	25.230251	0.001149	20.725944
722.221134	-2.996900	3.635600	-10.894000	25.193771	0.001148	20.722510
723.221063	-2.999900	3.635400	-10.904000	25.196352	0.001149	20.728895
724.223041	-3.029300	3.633700	-11.006000	25.198234	0.001150	20.727939
725.219801	-3.004200	3.634800	-10.919000	25.186011	0.001147	20.709029
726.218638	-3.009000	3.633200	-10.930000	25.211563	0.001148	20.723303
727.222401	-3.000100	3.633800	-10.900000	25.194675	0.001148	20.731953
728.221393	-2.997500	3.633500	-10.891000	25.230170	0.001148	20.731553
729.227943	-3.004100	3.634200	-10.916000	25.214137	0.001148	20.731577
730.224093	-3.008000	3.632000	-10.923000	25.211433	0.001147	20.722698
731.227643	-3.008400	3.632500	-10.927000	25.219756	0.001147	20.738167
732.227154	-2.995000	3.633500	-10.879000	25.236481	0.001148	20.725086
733.224957	-3.007000	3.631700	-10.919000	25.244412	0.001146	20.728781
734.221792	-2.992700	3.633200	-10.872000	25.231579	0.001147	20.729648
735.224726	-3.012300	3.632800	-10.942000	25.242270	0.001146	20.745124
736.224355	-2.998800	3.630800	-10.887000	25.215448	0.001146	20.722462
737.225425	-3.007800	3.630200	-10.918000	25.196630	0.001145	20.705939
738.227867	-3.004300	3.631500	-10.909000	25.239762	0.001146	20.734545
739.225365	-2.982600	3.631000	-10.827000	25.220000	0.001144	20.745525
740.224656	-2.997000	3.630600	-10.880000	25.263368	0.001145	20.752556
741.225049	-3.010800	3.630500	-10.930000	25.249672	0.001145	20.753978
742.227143	-2.994900	3.630100	-10.871000	25.255714	0.001144	20.760993
743.224902	-2.998300	3.628800	-10.879000	25.270200	0.001143	20.734284
744.223505	-2.994500	3.628800	-10.866000	25.282755	0.001143	20.739304
745.225793	-2.998600	3.629400	-10.883000	25.293267	0.001144	20.739900
746.225502	-2.991400	3.628000	-10.852000	25.289684	0.001142	20.750529
747.230664	-2.997800	3.627800	-10.873000	25.308004	0.001143	20.741421
748.230984	-2.973100	3.627800	-10.785000	25.301352	0.001141	20.753708
749.228436	-2.986900	3.628700	-10.838000	25.308900	0.001143	20.744217
750.227593	-2.979400	3.628600	-10.809000	25.311562	0.001142	20.769176
751.227586	-2.991300	3.627700	-10.851000	25.293218	0.001143	20.737006
752.227069	-2.991900	3.625900	-10.847000	25.247051	0.001141	20.749924
753.226075	-2.996100	3.626100	-10.863000	25.213747	0.001141	20.752049
754.224202	-2.990100	3.625100	-10.838000	25.216931	0.001139	20.741969
755.226462	-3.000200	3.625600	-10.876000	25.200222	0.001139	20.749376
756.228368	-3.019200	3.624500	-10.942000	25.198064	0.001139	20.743890
757.230116	-2.995300	3.624900	-10.855000	25.162910	0.001138	20.752221
758.231517	-2.995300	3.624300	-10.855000	25.165418	0.001139	20.774180
759.231140	-3.022600	3.623800	-10.952000	25.178528	0.001137	20.752728
760.230574	-3.004500	3.623100	-10.883000	25.207428	0.001138	20.757085
761.233691	-3.011500	3.623000	-10.909000	25.217444	0.001137	20.740113
762.231243	-3.002200	3.623500	-10.877000	25.256391	0.001139	20.752189
763.227075	-2.993200	3.623100	-10.842000	25.286591	0.001136	20.738887
764.230104	-3.007400	3.624400	-10.900000	25.301906	0.001135	20.750946
765.231765	-2.995500	3.623800	-10.854000	25.328669	0.001138	20.756007
766.236485	-3.015300	3.622500	-10.922000	25.301678	0.001137	20.771106
767.235152	-2.999500	3.622500	-10.865000	25.310081	0.001137	20.754886
768.232007	-3.016000	3.620500	-10.918000	25.330957	0.001135	20.742656
769.233131	-3.015300	3.622100	-10.920000	25.350539	0.001134	20.761370
770.233983	-3.006400	3.621700	-10.887000	25.333042	0.001135	20.752336
771.232580	-2.991700	3.620300	-10.828000	25.325640	0.001134	20.761026
772.231822	-3.009300	3.619800	-10.892000	25.348202	0.001134	20.751911
773.232629	-3.011700	3.620100	-10.901000	25.355058	0.001134	20.779658
774.235391	-2.986200	3.621800	-10.815000	25.341339	0.001135	20.764934
775.236932	-2.997300	3.620700	-10.850000	25.359178	0.001133	20.782846
776.233814	-2.996400	3.620500	-10.848000	25.390840	0.001132	20.757266
777.235599	-3.006600	3.619200	-10.880000	25.408442	0.001133	20.777786
778.235304	-2.977900	3.620800	-10.780000	25.397606	0.001130	20.773543
779.234395	-2.993800	3.619900	-10.836000	25.410551	0.001132	20.767575
780.236093	-3.006900	3.617400	-10.875000	25.420589	0.001131	20.766275
781.239008	-3.008200	3.617200	-10.879000	25.437083	0.001131	20.787106
782.237179	-2.983200	3.617700	-10.791000	25.465447	0.001131	20.794725
783.239609	-2.989200	3.617800	-10.813000	25.468329	0.001131	20.747358
784.234595	-3.000400	3.616900	-10.852000	25.476013	0.001129	20.775938
785.236537	-3.027300	3.615000	-10.943000	25.467108	0.001129	20.772685
786.236334	-3.005700	3.615400	-10.865000	25.463029	0.001128	20.774279
787.240134	-3.006100	3.615200	-10.866000	25.457656	0.001128	20.747072
788.244054	-2.997700	3.616400	-10.840000	25.439746	0.001128	20.771761
789.237532	-2.981300	3.615700	-10.778000	25.450004	0.001129	20.777320
790.242069	-3.009500	3.615600	-10.880000	25.454383	0.001129	20.796417
791.240442	-2.987400	3.614300	-10.796000	25.461336	0.001129	20.778743
792.240036	-3.004800	3.613800	-10.858000	25.436416	0.001128	20.759882
793.243993	-2.986800	3.615900	-10.798000	25.404103	0.001126	20.775800
794.238151	-3.001300	3.613400	-10.843000	25.405121	0.001127	20.770183
795.240756	-3.016100	3.613100	-10.896000	25.394106	0.001126	20.775244
796.242609	-2.999400	3.613300	-10.837000	25.370170	0.001126	20.795306
797.242585	-3.024600	3.613000	-10.926000	25.381072	0.001125	20.774010
798.240023	-3.001500	3.613900	-10.847000	25.401531	0.001126	20.773691
799.244525	-2.989600	3.613300	-10.802000	25.420003	0.001125	20.794137
800.240223	-3.000300	3.612600	-10.838000	25.431947	0.001125	20.807553
801.237738	-3.011300	3.612400	-10.875000	25.421982	0.001125	20.781899
802.241022	-3.003800	3.611600	-10.847000	25.414004	0.001124	20.782422
803.239166	-2.996900	3.611000	-10.821000	25.452748	0.001123	20.783395
804.241638	-3.005300	3.612200	-10.854000	25.481274	0.001120	20.783117
805.243190	-3.001800	3.610000	-10.836000	25.461719	0.001123	20.785292
806.244719	-3.006700	3.609300	-10.850000	25.476902	0.001120	20.798168
807.246396	-3.018400	3.609800	-10.895000	25.489667	0.001123	20.778744
808.243922	-2.989300	3.610300	-10.790000	25.512038	0.001122	20.779398
809.245906	-3.003400	3.607900	-10.835000	25.520431	0.001119	20.794939
810.246344	-3.003000	3.607900	-10.834000	25.491874	0.001120	20.775270
811.249830	-3.034500	3.607900	-10.947000	25.489838	0.001122	20.785554
812.254951	-3.001400	3.607700	-10.827000	25.440081	0.001122	20.803866
813.247638	-3.017100	3.606800	-10.881000	25.446342	0.001122	20.803041
814.245052	-2.998900	3.608800	-10.821000	25.438811	0.001120	20.795005
815.245547	-3.004700	3.607900	-10.840000	25.467582	0.001119	20.809671
816.248848	-2.993600	3.605300	-10.792000	25.466637	0.001120	20.822473
817.247944	-2.990600	3.607300	-10.787000	25.499241	0.001120	20.806851
818.248774	-2.983000	3.606900	-10.757000	25.473093	0.001118	20.799559
819.250619	-2.997600	3.606800	-10.811000	25.477017	0.001118	20.795913
820.253210	-3.007800	3.605500	-10.844000	25.470529	0.001119	20.798406
821.251078	-3.014100	3.605900	-10.867000	25.516728	0.001118	20.801178
822.255126	-3.017100	3.604300	-10.874000	25.498330	0.001116	20.813996
823.248445	-3.014000	3.604900	-10.864000	25.513464	0.001115	20.794581
824.253645	-3.017400	3.603900	-10.873000	25.492119	0.001117	20.798276
825.252923	-2.998800	3.604000	-10.806000	25.454557	0.001116	20.805601
826.253086	-3.000900	3.603100	-10.812000	25.450063	0.001117	20.821477
827.252938	-2.985900	3.603400	-10.759000	25.464595	0.001115	20.821371
828.253145	-2.977700	3.605200	-10.734000	25.461762	0.001112	20.793870
829.254542	-2.982600	3.605200	-10.752000	25.487602	0.001113	20.811757
830.251667	-2.978700	3.603500	-10.733000	25.482726	0.001114	20.842421
831.257289	-2.981200	3.603500	-10.741000	25.483971	0.001112	20.820439
832.256384	-2.989000	3.603600	-10.770000	25.499024	0.001112	20.809951
833.257587	-3.001800	3.601600	-10.810000	25.498283	0.001112	20.791189
834.253857	-2.982100	3.603200	-10.744000	25.505830	0.001113	20.806828
835.254659	-2.992500	3.602900	-10.781000	25.536764	0.001112	20.811341
836.258508	-2.998100	3.601500	-10.797000	25.558433	0.001112	20.825991
837.270794	-3.028000	3.600500	-10.901000	25.511455	0.001110	20.806788
838.259889	-2.997200	3.602000	-10.795000	25.489679	0.001109	20.842292
839.259930	-3.002000	3.601600	-10.809000	25.435802	0.001110	20.823752
840.260992	-3.008400	3.599400	-10.827000	25.416386	0.001108	20.834126
841.259488	-3.013800	3.599800	-10.848000	25.380327	0.001108	20.843911
842.260111	-3.000600	3.598700	-10.797000	25.393517	0.001109	20.838663
843.256577	-3.018000	3.598500	-10.859000	25.401911	0.001108	20.826704
844.255711	-3.006200	3.598700	-10.816000	25.421166	0.001108	20.825649
845.255812	-3.012900	3.598800	-10.842000	25.420417	0.001107	20.829639
846.256226	-3.006800	3.599000	-10.821000	25.430675	0.001108	20.818129
847.261814	-3.024600	3.595900	-10.874000	25.466317	0.001106	20.844435
848.261648	-3.020800	3.597100	-10.865000	25.476095	0.001106	20.832918
849.262748	-3.009900	3.596600	-10.823000	25.504897	0.001105	20.830547
850.263786	-3.001000	3.597100	-10.794000	25.533763	0.001106	20.845785
851.262800	-2.997000	3.596000	-10.776000	25.559251	0.001104	20.835821
852.263214	-2.994800	3.596000	-10.768000	25.590583	0.001103	20.827932
853.270995	-2.999800	3.594400	-10.780000	25.611104	0.001105	20.826731
854.259042	-2.995000	3.595100	-10.766000	25.614873	0.001102	20.839999
855.258128	-2.973700	3.595900	-10.691000	25.600856	0.001102	20.854844
856.262197	-2.987300	3.594500	-10.737000	25.574417	0.001104	20.839672
857.260805	-2.979100	3.595400	-10.710000	25.552342	0.001101	20.843580
858.263957	-2.987400	3.594800	-10.737000	25.567377	0.001102	20.848248
859.262077	-2.999900	3.592700	-10.777000	25.556241	0.001100	20.847022
860.271091	-2.995900	3.593600	-10.765000	25.571667	0.001102	20.851608
861.264296	-2.999400	3.592900	-10.775000	25.570698	0.001098	20.843523
862.259675	-3.016600	3.592300	-10.835000	25.610202	0.001099	20.833886
863.264841	-2.990500	3.593400	-10.745000	25.650233	0.001099	20.853227
864.265480	-3.012600	3.591000	-10.818000	25.658275	0.001099	20.836649
865.261746	-2.978100	3.593500	-10.701000	25.650502	0.001098	20.850652
866.266040	-2.991300	3.590400	-10.739000	25.626946	0.001096	20.848805
867.267511	-3.017800	3.590000	-10.833000	25.641777	0.001097	20.843312
868.268144	-3.018000	3.589300	-10.832000	25.649778	0.001098	20.856563
869.271585	-3.033900	3.588200	-10.885000	25.657926	0.001096	20.841513
870.274986	-2.999200	3.589500	-10.762000	25.671584	0.001096	20.843852
871.269733	-2.990800	3.590200	-10.735000	25.656974	0.001094	20.842928
872.267960	-2.987500	3.589500	-10.721000	25.617455	0.001094	20.859661
873.269616	-2.995900	3.587700	-10.747000	25.602144	0.001095	20.852345
874.269300	-2.991300	3.588400	-10.733000	25.560768	0.001093	20.836396
875.269659	-2.986000	3.587600	-10.712000	25.518471	0.001091	20.835170
876.267336	-2.996900	3.588600	-10.753000	25.523095	0.001094	20.827960
877.268035	-3.006300	3.587500	-10.783000	25.513375	0.001093	20.831949
878.271399	-2.998700	3.587000	-10.755000	25.519618	0.001093	20.844383
879.268178	-3.007900	3.586900	-10.788000	25.549779	0.001090	20.838162
880.270575	-2.993000	3.586400	-10.732000	25.581314	0.001092	20.842331
881.267085	-3.002900	3.586200	-10.768000	25.584358	0.001093	20.836853
882.267971	-2.993700	3.586600	-10.736000	25.612636	0.001091	20.830166
883.266953	-3.008600	3.585600	-10.786000	25.643543	0.001091	20.809525
884.266608	-3.001300	3.584300	-10.757000	25.650201	0.001089	20.834703
885.268346	-2.999000	3.584300	-10.748000	25.659293	0.001089	20.824395
886.265221	-2.991700	3.586100	-10.728000	25.612465	0.001090	20.822882
887.270347	-3.007300	3.585100	-10.781000	25.605522	0.001088	20.797892
888.267521	-3.004200	3.583600	-10.764000	25.595192	0.001089	20.815018
889.269271	-2.997300	3.584500	-10.742000	25.591863	0.001087	20.824002
890.269686	-3.016300	3.583700	-10.809000	25.579661	0.001087	20.819335
891.270276	-2.990400	3.583600	-10.715000	25.614598	0.001085	20.825498
892.268243	-2.998700	3.583700	-10.746000	25.621875	0.001086	20.833281
893.268535	-2.997000	3.581800	-10.733000	25.605058	0.001086	20.819710
894.267022	-2.979100	3.582700	-10.672000	25.604431	0.001089	20.802486
895.270972	-2.982000	3.583400	-10.685000	25.618945	0.001086	20.811372
896.270845	-2.992400	3.581200	-10.715000	25.621061	0.001087	20.821558
897.271620	-3.018500	3.580000	-10.805000	25.604635	0.001086	20.828768
898.271286	-3.007700	3.581300	-10.770000	25.618074	0.001084	20.822351
899.273455	-3.008400	3.579300	-10.768000	25.664119	0.001082	20.797475
900.273631	-2.978200	3.580800	-10.664000	25.673505	0.001084	20.815910
901.276386	-3.030400	3.578600	-10.843000	25.697637	0.001082	20.803164
902.270414	-3.005800	3.579700	-10.758000	25.735703	0.001082	20.815795
903.274178	-3.000300	3.578300	-10.736000	25.730454	0.001082	20.807677
904.274378	-3.015400	3.578200	-10.789000	25.761309	0.001081	20.794573
905.271214	-3.032500	3.578200	-10.851000	25.748889	0.001082	20.828564
906.277350	-3.008700	3.578400	-10.766000	25.728989	0.001079	20.802887
907.272658	-2.977500	3.578700	-10.654000	25.750728	0.001078	20.790583
908.275247	-2.987100	3.579200	-10.690000	25.777757	0.001078	20.815836
909.272090	-3.008500	3.577300	-10.761000	25.785887	0.001079	20.804088
910.271642	-3.021400	3.576400	-10.805000	25.767095	0.001080	20.788057
911.272191	-2.989000	3.577200	-10.691000	25.739277	0.001076	20.809901
912.273325	-3.006100	3.576400	-10.750000	25.719988	0.001078	20.805699
913.275435	-2.996900	3.577400	-10.719000	25.693804	0.001076	20.792202
914.277809	-3.006200	3.576900	-10.752000	25.689059	0.001077	20.807350
915.278741	-2.992900	3.575400	-10.700000	25.646465	0.001075	20.782114
916.276771	-3.008700	3.574900	-10.755000	25.616446	0.001076	20.788001
917.284000	-2.993600	3.574300	-10.699000	25.634289	0.001074	20.792644
918.280921	-2.987200	3.574300	-10.675000	25.650047	0.001073	20.803255
919.281073	-2.992000	3.573600	-10.691000	25.642909	0.001073	20.783284
920.278871	-2.978100	3.574700	-10.645000	25.624025	0.001073	20.771430
921.279306	-2.999700	3.572800	-10.716000	25.622657	0.001072	20.791393
922.280923	-3.008600	3.571800	-10.745000	25.638953	0.001073	20.812501
923.281216	-3.027400	3.573500	-10.817000	25.664772	0.001070	20.786750
924.281646	-2.990900	3.573200	-10.685000	25.673066	0.001069	20.789391
925.282469	-2.993000	3.571800	-10.689000	25.675028	0.001071	20.794680
926.282301	-3.004600	3.571000	-10.729000	25.727046	0.001072	20.775804
927.280176	-3.010500	3.570900	-10.749000	25.736560	0.001071	20.800060
928.284710	-3.008100	3.570200	-10.738000	25.697941	0.001069	20.797306
929.283112	-2.996100	3.571200	-10.699000	25.636651	0.001069	20.795016
930.289861	-3.000600	3.569600	-10.710000	25.665302	0.001069	20.785860
931.298746	-2.971200	3.570800	-10.608000	25.677585	0.001068	20.790136
932.281656	-3.009300	3.568700	-10.738000	25.670203	0.001067	20.794576
933.285527	-2.980700	3.569400	-10.638000	25.654225	0.001069	20.776157
934.283330	-2.990700	3.568600	-10.670000	25.700310	0.001066	20.794944
935.287422	-2.985000	3.568600	-10.651000	25.729554	0.001066	20.772634
936.284454	-2.977900	3.569600	-10.628000	25.702866	0.001064	20.793718
937.286122	-3.002900	3.566700	-10.709000	25.670220	0.001066	20.790325
938.283426	-3.021700	3.566300	-10.775000	25.655178	0.001063	20.791814
939.284513	-3.025300	3.566400	-10.788000	25.646086	0.001065	20.772250
940.285682	-2.994200	3.567000	-10.679000	25.648334	0.001066	20.775930
941.281397	-3.008800	3.566100	-10.729000	25.625120	0.001063	20.765417
942.284811	-3.018400	3.564900	-10.758000	25.660258	0.001062	20.788381
943.285293	-3.011000	3.565300	-10.734000	25.655912	0.001061	20.792076
944.286109	-2.981400	3.566100	-10.630000	25.671955	0.001062	20.779740
945.282744	-3.005300	3.565200	-10.713000	25.695535	0.001060	20.790147
946.287763	-3.010700	3.565300	-10.732000	25.714320	0.001061	20.773453
947.287686	-2.970700	3.565800	-10.591000	25.751971	0.001063	20.788513
948.284947	-2.998600	3.564600	-10.687000	25.765140	0.001058	20.780403
949.286171	-2.998100	3.563800	-10.683000	25.789336	0.001059	20.770094
950.288076	-2.989900	3.564700	-10.657000	25.741953	0.001059	20.767544
951.295514	-3.013400	3.563400	-10.737000	25.717479	0.001057	20.766669
952.289545	-3.003400	3.562800	-10.700000	25.728288	0.001057	20.782742
953.288045	-2.995000	3.563600	-10.673000	25.675481	0.001056	20.764790
954.288934	-2.998900	3.563500	-10.685000	25.664290	0.001059	20.766826
955.292374	-3.011800	3.563100	-10.730000	25.700501	0.001057	20.775221
956.288606	-2.996600	3.562800	-10.676000	25.704791	0.001054	20.774788
957.294257	-3.006000	3.561200	-10.704000	25.702032	0.001055	20.768224
958.289102	-2.991300	3.561100	-10.651000	25.711092	0.001053	20.772582
959.285393	-2.979100	3.561900	-10.610000	25.699770	0.001053	20.765951
960.290426	-2.994000	3.562000	-10.663000	25.694748	0.001053	20.769442
961.288619	-2.986400	3.561600	-10.635000	25.678389	0.001053	20.774822
962.288666	-2.978200	3.559700	-10.601000	25.645514	0.001053	20.771201
963.292323	-3.001000	3.560000	-10.682000	25.663698	0.001051	20.774766
964.290572	-2.977900	3.560100	-10.600000	25.686057	0.001050	20.760238
965.291709	-3.013400	3.559400	-10.724000	25.685959	0.001050	20.797599
966.294189	-2.985600	3.559600	-10.626000	25.725588	0.001050	20.792833
967.290635	-2.974800	3.558800	-10.585000	25.726102	0.001049	20.777701
968.286933	-2.994500	3.558900	-10.655000	25.743983	0.001049	20.767213
969.286933	-2.985300	3.557500	-10.619000	25.782268	0.001048	20.754934
970.288657	-2.990700	3.558000	-10.639000	25.766992	0.001047	20.783212
971.289563	-2.990300	3.557300	-10.637000	25.808303	0.001049	20.798630
972.288066	-2.987600	3.557300	-10.626000	25.836274	0.001047	20.760820
973.287671	-3.006400	3.557000	-10.692000	25.843452	0.001046	20.777988
974.293578	-2.991700	3.556500	-10.639000	25.850378	0.001044	20.756970
975.295930	-2.994200	3.556800	-10.648000	25.835925	0.001045	20.773271
976.296111	-2.998600	3.555600	-10.661000	25.867167	0.001042	20.763878
977.291253	-2.998000	3.555000	-10.657000	25.885624	0.001043	20.764876
978.298575	-2.966700	3.556200	-10.550000	25.868485	0.001043	20.763306
979.288999	-2.975400	3.553700	-10.572000	25.867485	0.001042	20.759930
980.289184	-3.011000	3.553400	-10.698000	25.847172	0.001042	20.748059
981.290719	-3.012600	3.552300	-10.700000	25.825875	0.001039	20.760805
982.295720	-3.013700	3.553300	-10.707000	25.831864	0.001041	20.771563
983.289470	-3.014600	3.552500	-10.709000	25.807011	0.001040	20.772202
984.291498	-3.003900	3.552900	-10.672000	25.825077	0.001039	20.743882
985.293064	-3.001700	3.551800	-10.661000	25.844626	0.001039	20.765416
986.293169	-3.006100	3.551700	-10.676000	25.849524	0.001039	20.756112
987.294180	-3.000700	3.552100	-10.657000	25.853366	0.001040	20.770877
988.293233	-2.995000	3.551300	-10.635000	25.861097	0.001037	20.767264
989.293834	-2.990600	3.550900	-10.618000	25.862033	0.001037	20.754453
990.289757	-3.003100	3.551000	-10.663000	25.869040	0.001036	20.759596
991.291054	-3.005000	3.548900	-10.663000	25.833021	0.001036	20.748542
992.292808	-2.979700	3.549900	-10.577000	25.818999	0.001035	20.772865
993.294445	-3.011100	3.548700	-10.683000	25.829408	0.001034	20.753448
994.296260	-2.999000	3.548700	-10.642000	25.820643	0.001034	20.741324
995.296114	-3.006200	3.547200	-10.663000	25.899964	0.001034	20.745142
996.291646	-2.989700	3.549400	-10.610000	25.873085	0.001031	20.758917
997.296451	-3.003800	3.547600	-10.656000	25.853505	0.001035	20.743990
998.299718	-2.987600	3.546800	-10.595000	25.832712	0.001032	20.757716
999.299899	-2.984200	3.548100	-10.587000	25.841852	0.001031	20.736076
1000.293743	-2.999800	3.546500	-10.638000	25.881052	0.001029	20.750800
1001.295954	-3.006200	3.545900	-10.659000	25.895537	0.001030	20.753972
1002.296371	-3.013800	3.545800	-10.686000	25.902984	0.001029	20.765720
1003.299613	-2.991400	3.546900	-10.609000	25.894855	0.001030	20.744277
1004.301225	-3.015800	3.546200	-10.694000	25.855158	0.001029	20.751340
1005.302575	-3.007100	3.545400	-10.659000	25.865192	0.001027	20.758101
1006.297905	-3.014000	3.544000	-10.681000	25.878262	0.001028	20.754161
1007.297942	-2.989600	3.545500	-10.597000	25.895669	0.001027	20.750310
1008.305059	-2.998700	3.543200	-10.624000	25.876139	0.001026	20.746338
1009.298573	-3.013100	3.542700	-10.673000	25.867146	0.001027	20.739200
1010.301317	-2.967500	3.544100	-10.516000	25.902220	0.001026	20.762582
1011.295942	-2.998600	3.542000	-10.620000	25.905737	0.001024	20.732449
1012.298730	-3.018200	3.543100	-10.691000	25.907169	0.001022	20.756174
1013.302291	-2.999400	3.541500	-10.622000	25.892335	0.001025	20.750754
1014.305801	-3.002300	3.541600	-10.633000	25.941291	0.001022	20.717431
1015.300828	-3.016600	3.542400	-10.685000	25.926073	0.001021	20.740551
1016.298119	-3.019900	3.540400	-10.691000	25.888527	0.001025	20.729384
1017.300963	-3.019900	3.539700	-10.689000	25.896218	0.001021	20.727153
1018.299318	-2.991600	3.540800	-10.591000	25.910353	0.001022	20.740880
1019.302845	-2.995300	3.541100	-10.606000	25.875443	0.001019	20.735681
1020.303539	-3.017300	3.540900	-10.683000	25.825850	0.001018	20.740391
1021.299010	-3.002300	3.539500	-10.625000	25.793850	0.001020	20.736695
1022.297813	-3.007600	3.539800	-10.645000	25.798490	0.001019	20.749891
1023.296250	-3.014100	3.538200	-10.663000	25.793835	0.001017	20.719610
1024.303130	-2.990700	3.539000	-10.583000	25.774922	0.001017	20.735226
1025.308357	-2.984500	3.538200	-10.559000	25.814223	0.001016	20.700259
1026.308004	-3.008600	3.537200	-10.640000	25.858560	0.001016	20.736739
1027.306403	-2.996800	3.535900	-10.596000	25.896784	0.001017	20.726774
1028.299916	-2.992300	3.537400	-10.584000	25.886914	0.001014	20.746731
1029.301687	-3.007100	3.536300	-10.633000	25.886239	0.001014	20.728034
1030.306315	-3.011100	3.535000	-10.643000	25.851555	0.001014	20.726857
1031.310622	-3.003200	3.535600	-10.617000	25.854526	0.001012	20.728893
1032.299414	-2.987500	3.535600	-10.561000	25.881276	0.001011	20.733480
1033.300144	-2.998600	3.534900	-10.598000	25.848197	0.001011	20.734389
1034.301510	-2.999000	3.534600	-10.599000	25.838830	0.001010	20.719763
1035.303652	-3.007100	3.534500	-10.628000	25.860982	0.001012	20.734431
1036.300354	-3.008800	3.533200	-10.629000	25.864653	0.001012	20.728161
1037.302007	-3.002600	3.534400	-10.611000	25.844521	0.001008	20.725480
1038.299559	-3.004800	3.533700	-10.617000	25.886944	0.001008	20.738226
1039.299608	-3.028100	3.531700	-10.693000	25.906890	0.001007	20.731236
1040.308603	-2.988600	3.532900	-10.557000	25.877864	0.001008	20.725310
1041.305603	-2.993900	3.531600	-10.573000	25.865829	0.001008	20.740722
1042.306602	-3.015400	3.531400	-10.647000	25.876132	0.001008	20.732580
1043.302679	-3.022600	3.530400	-10.669000	25.844606	0.001007	20.753542
1044.303043	-2.989400	3.530100	-10.552000	25.854161	0.001006	20.729474
1045.305559	-2.992100	3.530000	-10.561000	25.914446	0.001007	20.724128
1046.307558	-2.996600	3.530200	-10.578000	25.938705	0.001003	20.719575
1047.304642	-2.998900	3.530200	-10.586000	25.980946	0.001006	20.720288
1048.308536	-3.000300	3.528900	-10.588000	25.976845	0.001003	20.729444
1049.305082	-2.985300	3.528800	-10.534000	25.995611	0.001003	20.730280
1050.305671	-2.975500	3.528600	-10.496000	26.007108	0.001002	20.733297
1051.312938	-2.976400	3.529400	-10.504000	25.995002	0.001001	20.724926
1052.306494	-3.011000	3.528600	-10.623000	25.970208	0.001000	20.721828
1053.310354	-3.011200	3.528300	-10.623000	25.921312	0.001001	20.720594
1054.307932	-2.997900	3.526700	-10.572000	25.879477	0.000997	20.721715
1055.314718	-2.991600	3.528300	-10.553000	25.858296	0.001000	20.738844
1056.314084	-2.991800	3.527700	-10.553000	25.856782	0.001000	20.718830
1057.310006	-3.001600	3.526900	-10.586000	25.811510	0.000999	20.722666
1058.312931	-3.023200	3.526400	-10.659000	25.795999	0.001000	20.726525
1059.310603	-2.982100	3.526200	-10.514000	25.785957	0.000998	20.711221
1060.307591	-3.003900	3.526200	-10.591000	25.804652	0.000997	20.734744
1061.311574	-2.983400	3.525500	-10.517000	25.791200	0.000999	20.734508
1062.315664	-2.959000	3.526300	-10.433000	25.784885	0.000996	20.728638
1063.308053	-2.977500	3.523800	-10.491000	25.776577	0.000993	20.736888
1064.313730	-3.015200	3.523800	-10.624000	25.796818	0.000994	20.724503
1065.312929	-2.980800	3.524700	-10.505000	25.774276	0.000994	20.739318
1066.315339	-3.007900	3.522000	-10.592000	25.811322	0.000994	20.727218
1067.316319	-2.997100	3.522200	-10.556000	25.826908	0.000992	20.717270
1068.316981	-2.974100	3.523200	-10.476000	25.812545	0.000993	20.718489
1069.311893	-3.009000	3.522000	-10.597000	25.804863	0.000991	20.700339
1070.311127	-3.004400	3.522000	-10.581000	25.779789	0.000991	20.713560
1071.313107	-3.023500	3.519200	-10.638000	25.768403	0.000990	20.722988
1072.313847	-3.018000	3.519600	-10.622000	25.796327	0.000991	20.723061
1073.319165	-2.989700	3.519000	-10.519000	25.791876	0.000990	20.703416
1074.313553	-2.970600	3.520700	-10.456000	25.797085	0.000988	20.707701
1075.321582	-3.005900	3.518000	-10.573000	25.826994	0.000989	20.715934
1076.314180	-2.979200	3.519600	-10.485000	25.843084	0.000987	20.718821
1077.315894	-2.985300	3.519000	-10.504000	25.832700	0.000986	20.710760
1078.317368	-3.015000	3.518600	-10.608000	25.883693	0.000985	20.704138
1079.317704	-3.003900	3.516200	-10.561000	25.927783	0.000984	20.736579
1080.314206	-3.001800	3.517400	-10.557000	25.940690	0.000985	20.715406
1081.316725	-2.989300	3.517700	-10.515000	25.947396	0.000983	20.733523
1082.319718	-3.000000	3.517500	-10.551000	25.905610	0.000982	20.717148
1083.316875	-3.008800	3.517200	-10.581000	25.923612	0.000982	20.723853
1084.319841	-3.033900	3.514600	-10.661000	25.889922	0.000983	20.725570
1085.317173	-3.000400	3.515100	-10.545000	25.842642	0.000982	20.726438
1086.317234	-3.005000	3.513800	-10.558000	25.827912	0.000981	20.702630
1087.317151	-3.003400	3.515400	-10.558000	25.838215	0.000981	20.705394
1088.322769	-2.989700	3.516400	-10.512000	25.862483	0.000979	20.707487
1089.319424	-3.009600	3.513400	-10.573000	25.883366	0.000980	20.720880
1090.317282	-3.007700	3.513000	-10.564000	25.931851	0.000979	20.720750
1091.319690	-3.018100	3.512900	-10.601000	25.969454	0.000977	20.707318
1092.319096	-3.002800	3.513200	-10.549000	25.978267	0.000976	20.700999
1093.319844	-2.993800	3.511800	-10.513000	25.981497	0.000977	20.703770
1094.319499	-3.004600	3.512700	-10.553000	26.023070	0.000978	20.725151
1095.320176	-3.002600	3.513200	-10.548000	26.038643	0.000978	20.727996
1096.324397	-2.987400	3.512100	-10.491000	26.080783	0.000976	20.727188
1097.323707	-2.991300	3.511900	-10.503000	26.105598	0.000976	20.716559
1098.319822	-2.991200	3.509800	-10.496000	26.107283	0.000973	20.722045
1099.329347	-3.018700	3.509100	-10.592000	26.111401	0.000971	20.720018
1100.318604	-3.006200	3.508900	-10.546000	26.124516	0.000972	20.716601
1101.322510	-3.016500	3.508300	-10.582000	26.133156	0.000971	20.710110
1102.321907	-3.006400	3.509400	-10.549000	26.123582	0.000973	20.727043
1103.322316	-3.003200	3.508300	-10.534000	26.085439	0.000969	20.724279
1104.323071	-3.014500	3.508600	-10.576000	26.051405	0.000971	20.691503
1105.326221	-2.998200	3.508500	-10.518000	26.048224	0.000968	20.699688
1106.324676	-3.014400	3.507800	-10.573000	26.057313	0.000969	20.709768
1107.325258	-2.991700	3.507800	-10.494000	26.084407	0.000969	20.716130
1108.326273	-3.001600	3.506800	-10.524000	26.072715	0.000967	20.726667
1109.323301	-3.003300	3.506200	-10.528000	26.054904	0.000966	20.715884
1110.331810	-2.978700	3.506400	-10.442000	26.015199	0.000966	20.724830
1111.324048	-3.003600	3.504900	-10.526000	26.005362	0.000965	20.718265
1112.327380	-3.004400	3.505100	-10.530000	26.030822	0.000965	20.751433
1113.324547	-2.989900	3.505700	-10.481000	26.052604	0.000965	20.716891
1114.325800	-3.000300	3.504100	-10.512000	26.058959	0.000965	20.698145
1115.329560	-2.981200	3.504800	-10.447000	26.071424	0.000964	20.718258
1116.324090	-3.003600	3.504500	-10.525000	26.068194	0.000962	20.726392
1117.329003	-3.005000	3.504600	-10.530000	26.044249	0.000961	20.719877
1118.324508	-3.010700	3.503700	-10.547000	26.052817	0.000962	20.724692
1119.327109	-2.963500	3.505100	-10.385000	26.015160	0.000959	20.715781
1120.328234	-2.999200	3.502000	-10.503000	26.019586	0.000961	20.721176
1121.331662	-3.012200	3.501800	-10.547000	26.011189	0.000962	20.723646
1122.329516	-3.013200	3.501600	-10.550000	26.000978	0.000961	20.720973
1123.332278	-2.995800	3.501000	-10.487000	25.985624	0.000960	20.726410
1124.329618	-2.996000	3.501300	-10.489000	25.965851	0.000958	20.703224
1125.329786	-2.985500	3.501700	-10.453000	25.983589	0.000958	20.714408
1126.334218	-2.991200	3.498900	-10.465000	26.010465	0.000956	20.711064
1127.327830	-3.005600	3.500300	-10.519000	26.035209	0.000957	20.734028
1128.347019	-3.004800	3.500200	-10.516000	26.078716	0.000956	20.712781
1129.326815	-2.988000	3.500200	-10.457000	26.061262	0.000955	20.700934
1130.331049	-3.016600	3.498200	-10.552000	26.094117	0.000955	20.728257
1131.329377	-2.976800	3.499200	-10.416000	26.113066	0.000955	20.706519
1132.333760	-3.011000	3.496500	-10.526000	26.127499	0.000955	20.718651
1133.330129	-3.000700	3.497100	-10.493000	26.138003	0.000952	20.725412
1134.329512	-3.000100	3.495800	-10.486000	26.169129	0.000954	20.701211
1135.330052	-3.003600	3.495400	-10.498000	26.202006	0.000951	20.716231
1136.329850	-2.986700	3.497100	-10.444000	26.202852	0.000951	20.716132
1137.333698	-2.985300	3.496100	-10.435000	26.214403	0.000951	20.733906
1138.330039	-3.005100	3.496200	-10.506000	26.195798	0.000951	20.718528
1139.334119	-2.989200	3.494600	-10.444000	26.204292	0.000949	20.738918
1140.331650	-3.015300	3.493300	-10.532000	26.180227	0.000950	20.726589
1141.332027	-3.000000	3.493400	-10.480000	26.219520	0.000948	20.716287
1142.334239	-2.999100	3.493900	-10.478000	26.206462	0.000950	20.713597
1143.337380	-2.979500	3.494400	-10.411000	26.183684	0.000946	20.708251
1144.335396	-3.004000	3.492800	-10.491000	26.133609	0.000945	20.757509
1145.335251	-3.002500	3.491500	-10.481000	26.116255	0.000944	20.717309
1146.335054	-3.003800	3.491900	-10.488000	26.114301	0.000949	20.736210
1147.331563	-2.974200	3.492100	-10.385000	26.153338	0.000944	20.714742
1148.348179	-2.977900	3.491800	-10.396000	26.129614	0.000944	20.729311
1149.333429	-2.985900	3.491700	-10.425000	26.083320	0.000943	20.725469
1150.337387	-2.972000	3.490800	-10.373000	26.093537	0.000943	20.725778
1151.337635	-3.010300	3.488300	-10.500000	26.136350	0.000943	20.738451
1152.337375	-3.017200	3.489400	-10.527000	26.153785	0.000941	20.749806
1153.343482	-2.992500	3.488400	-10.436000	26.178721	0.000941	20.733137
1154.340545	-3.016800	3.488500	-10.523000	26.219031	0.000941	20.720063
1155.338658	-3.005700	3.488700	-10.486000	26.218804	0.000941	20.735483
1156.332842	-3.002800	3.488400	-10.474000	26.191045	0.000937	20.727029
1157.336210	-2.996200	3.488900	-10.452000	26.171374	0.000939	20.725753
1158.336618	-2.999500	3.488600	-10.464000	26.142810	0.000939	20.728820
1159.340360	-3.015200	3.487700	-10.516000	26.150335	0.000939	20.720734
1160.339600	-3.002200	3.486900	-10.466000	26.183918	0.000937	20.725083
1161.336742	-3.033800	3.484200	-10.569000	26.194065	0.000937	20.737650
1162.336835	-3.003500	3.485300	-10.467000	26.178826	0.000935	20.734190
1163.336923	-3.011300	3.485600	-10.495000	26.162653	0.000938	20.741647
1164.340483	-2.996500	3.484400	-10.440000	26.187864	0.000934	20.725255
1165.336217	-2.994400	3.484300	-10.432000	26.190598	0.000935	20.716621
1166.340059	-3.037200	3.482900	-10.577000	26.188060	0.000935	20.741099
1167.335482	-3.002200	3.484600	-10.461000	26.160391	0.000934	20.736529
1168.335323	-3.006500	3.483800	-10.473000	26.124675	0.000933	20.717235
1169.336700	-2.989000	3.484000	-10.412000	26.109054	0.000931	20.732360
1170.337559	-2.974300	3.483900	-10.361000	26.096809	0.000930	20.730488
1171.335285	-2.981700	3.481800	-10.381000	26.109844	0.000932	20.734102
1172.338323	-3.011400	3.481800	-10.484000	26.131673	0.000929	20.751295
1173.337707	-3.018000	3.481500	-10.506000	26.164281	0.000930	20.731903
1174.340816	-3.007800	3.479400	-10.465000	26.174411	0.000928	20.725960
1175.343113	-2.967500	3.483000	-10.334000	26.160597	0.000927	20.740530
1176.339540	-2.990300	3.480800	-10.408000	26.211257	0.000927	20.735486
1177.342615	-2.990400	3.480200	-10.406000	26.262264	0.000925	20.748812
1178.339415	-3.004100	3.477800	-10.447000	26.299660	0.000927	20.734235
1179.340072	-3.009000	3.479300	-10.468000	26.329538	0.000926	20.745296
1180.346073	-3.026900	3.478400	-10.528000	26.342447	0.000925	20.748787
1181.341803	-2.992400	3.477900	-10.405000	26.397020	0.000925	20.707379
1182.344378	-2.991400	3.477700	-10.401000	26.405260	0.000924	20.735577
1183.344886	-3.007900	3.477200	-10.458000	26.393759	0.000924	20.755313
1184.343431	-2.994400	3.477100	-10.410000	26.351942	0.000923	20.756433
1185.349133	-2.995600	3.476000	-10.412000	26.349258	0.000923	20.739985
1186.348400	-3.000200	3.474800	-10.424000	26.361070	0.000921	20.781729
1187.345953	-3.000400	3.475700	-10.428000	26.348405	0.000921	20.738179
1188.347213	-2.995700	3.474300	-10.407000	26.353619	0.000920	20.749584
1189.349685	-2.999700	3.474100	-10.419000	26.357289	0.000919	20.744262
1190.349123	-3.020900	3.472500	-10.489000	26.356761	0.000920	20.752267
1191.351320	-3.018700	3.473500	-10.485000	26.332399	0.000918	20.748172
1192.347044	-3.001700	3.473900	-10.427000	26.278508	0.000917	20.753282
1193.348007	-3.024700	3.471500	-10.499000	26.216153	0.000917	20.753208
1194.350086	-3.009400	3.473400	-10.452000	26.178600	0.000917	20.740602
1195.345677	-2.989800	3.472500	-10.380000	26.188631	0.000918	20.735035
1196.345658	-2.969000	3.472800	-10.309000	26.182620	0.000916	20.753176
1197.348269	-2.997300	3.470600	-10.401000	26.225299	0.000915	20.758132
1198.353624	-3.002600	3.469800	-10.418000	26.225152	0.000916	20.757036
1199.348462	-2.989800	3.470700	-10.375000	26.296066	0.000914	20.769505
1200.346281	-2.989400	3.470400	-10.372000	26.306967	0.000914	20.744423
1201.347694	-2.995700	3.470200	-10.395000	26.320048	0.000914	20.751880
1202.349715	-2.982900	3.470300	-10.350000	26.305984	0.000912	20.755290
1203.348523	-2.985400	3.468700	-10.355000	26.295702	0.000912	20.749699
1204.350783	-2.998000	3.468100	-10.395000	26.319862	0.000913	20.768764
1205.350445	-2.999200	3.466600	-10.395000	26.308402	0.000913	20.762936
1206.352647	-2.993200	3.468400	-10.380000	26.277305	0.000911	20.750176
1207.356287	-2.993100	3.467000	-10.376000	26.267323	0.000909	20.752947
1208.354585	-2.997800	3.465400	-10.388000	26.243749	0.000910	20.765767
1209.356166	-2.998300	3.466400	-10.391000	26.265558	0.000910	20.771563
1210.352906	-2.996100	3.465900	-10.383000	26.222516	0.000907	20.777147
1211.353673	-2.972500	3.466600	-10.303000	26.175967	0.000907	20.784424
1212.355877	-2.982900	3.465800	-10.337000	26.168913	0.000904	20.759792
1213.357538	-2.998000	3.463500	-10.382000	26.184135	0.000907	20.781727
1214.353999	-3.007500	3.463500	-10.416000	26.189448	0.000904	20.768573
1215.355188	-3.015000	3.462700	-10.439000	26.216434	0.000905	20.775303
1216.353604	-2.987800	3.463600	-10.348000	26.243402	0.000903	20.771583
1217.355464	-3.035700	3.461200	-10.506000	26.269028	0.000902	20.765566
1218.360280	-3.002800	3.461800	-10.393000	26.304218	0.000903	20.761577
1219.357383	-3.016600	3.461100	-10.439000	26.312697	0.000902	20.750182
1220.353227	-3.013100	3.461700	-10.429000	26.329982	0.000901	20.777512
1221.353535	-2.994500	3.460300	-10.361000	26.370175	0.000901	20.774758
1222.357971	-2.995800	3.460200	-10.365000	26.381351	0.000900	20.764653
1223.358915	-3.005200	3.461000	-10.400000	26.411795	0.000902	20.771070
1224.360866	-3.001600	3.459100	-10.381000	26.386526	0.000900	20.776493
1225.358851	-3.019300	3.458100	-10.439000	26.354648	0.000900	20.780490
1226.357640	-3.028100	3.457000	-10.467000	26.350444	0.000899	20.784800
1227.358562	-3.001600	3.459700	-10.383000	26.382671	0.000898	20.781154
1228.358634	-3.008700	3.457500	-10.402000	26.363475	0.000897	20.779405
1229.354743	-3.022900	3.457100	-10.448000	26.312025	0.000899	20.795976
1230.360556	-3.014200	3.457200	-10.420000	26.294090	0.000897	20.772260
1231.361104	-3.005900	3.457100	-10.391000	26.285915	0.000896	20.759303
1232.360026	-2.999700	3.456300	-10.367000	26.296760	0.000895	20.773521
1233.358757	-3.007000	3.454900	-10.387000	26.293003	0.000896	20.773539
1234.354243	-3.008200	3.455600	-10.393000	26.275245	0.000894	20.777978
1235.357711	-3.007500	3.454300	-10.387000	26.270055	0.000894	20.777504
1236.357518	-3.007900	3.454500	-10.390000	26.273358	0.000893	20.787462
1237.355866	-3.016200	3.453000	-10.413000	26.313975	0.000894	20.793668
1238.355876	-3.031000	3.452500	-10.463000	26.321168	0.000893	20.800422
1239.359626	-2.982800	3.453600	-10.300000	26.340088	0.000892	20.798574
1240.365150	-2.992700	3.454200	-10.336000	26.325529	0.000892	20.776830
1241.358968	-3.026600	3.451100	-10.443000	26.329076	0.000890	20.784662
1242.360794	-3.016700	3.452100	-10.411000	26.334168	0.000891	20.757536
1243.360978	-3.017500	3.450100	-10.410000	26.312207	0.000888	20.796632
1244.360819	-3.005700	3.451500	-10.373000	26.279253	0.000889	20.779162
1245.361438	-2.983300	3.451400	-10.296000	26.280099	0.000889	20.801349
1246.359020	-3.022500	3.449400	-10.424000	26.301519	0.000886	20.792055
1247.377079	-2.994100	3.449100	-10.326000	26.302708	0.000887	20.780447
1248.358082	-2.997000	3.451000	-10.342000	26.354630	0.000888	20.799438
1249.359117	-3.017200	3.448400	-10.403000	26.391820	0.000886	20.777546
1250.361363	-3.001400	3.448300	-10.348000	26.404606	0.000884	20.788975
1251.360671	-2.998500	3.449700	-10.342000	26.436710	0.000884	20.790422
1252.361131	-3.003300	3.447900	-10.355000	26.421859	0.000885	20.794935
1253.364650	-3.010800	3.447300	-10.378000	26.429302	0.000883	20.814270
1254.362473	-2.990700	3.446800	-10.307000	26.469945	0.000881	20.812921
1255.362413	-3.008900	3.446500	-10.369000	26.450475	0.000885	20.803308
1256.362061	-2.998700	3.446100	-10.332000	26.443724	0.000884	20.798894
1257.363708	-3.007100	3.445700	-10.360000	26.424878	0.000881	20.810772
1258.364914	-3.005200	3.443900	-10.348000	26.360385	0.000882	20.809490
1259.365213	-2.999300	3.445400	-10.333000	26.337813	0.000880	20.797710
1260.371317	-3.018900	3.444900	-10.399000	26.315509	0.000880	20.797106
1261.363322	-2.983600	3.445100	-10.277000	26.315209	0.000880	20.795855
1262.369666	-3.007400	3.443700	-10.356000	26.332518	0.000879	20.798553
1263.364034	-3.009300	3.443300	-10.360000	26.300583	0.000878	20.807235
1264.363999	-3.008400	3.442500	-10.355000	26.327095	0.000877	20.786464
1265.360373	-2.984800	3.442900	-10.275000	26.345079	0.000877	20.801693
1266.364355	-3.001200	3.441900	-10.329000	26.423760	0.000876	20.824821
1267.367392	-2.996400	3.443200	-10.316000	26.437905	0.000875	20.813908
1268.367239	-3.002800	3.441500	-10.334000	26.456230	0.000873	20.819998
1269.367299	-3.002500	3.440500	-10.328000	26.495108	0.000873	20.779418
1270.364214	-3.004600	3.440300	-10.336000	26.482892	0.000872	20.806494
1271.369327	-2.999100	3.439900	-10.314000	26.418857	0.000871	20.808039
1272.366437	-2.987400	3.439500	-10.274000	26.361252	0.000871	20.794714
1273.367131	-2.991800	3.439200	-10.288000	26.329960	0.000873	20.806413
1274.365378	-2.996900	3.438800	-10.305000	26.299220	0.000869	20.824831
1275.368341	-3.005500	3.437800	-10.332000	26.325494	0.000870	20.822313
1276.374073	-3.002800	3.438600	-10.325000	26.336160	0.000867	20.840618
1277.369538	-2.971700	3.437200	-10.213000	26.370160	0.000867	20.822633
1278.370821	-3.017600	3.436300	-10.369000	26.382077	0.000867	20.828445
1279.369539	-2.993500	3.436000	-10.284000	26.392658	0.000866	20.830546
1280.368244	-3.008800	3.435800	-10.337000	26.412798	0.000868	20.828501
1281.368218	-2.995500	3.436100	-10.292000	26.454158	0.000864	20.810329
1282.367560	-3.001400	3.436900	-10.315000	26.484723	0.000865	20.829671
1283.368328	-2.989800	3.436100	-10.273000	26.506349	0.000864	20.826752
1284.372004	-3.010100	3.434500	-10.338000	26.529536	0.000863	20.812128
1285.372142	-3.019400	3.433300	-10.365000	26.528966	0.000863	20.821986
1286.369951	-3.004400	3.434100	-10.317000	26.548184	0.000864	20.828027
1287.370744	-3.004400	3.434400	-10.316000	26.554837	0.000862	20.814326
1288.369053	-3.018300	3.431700	-10.357000	26.574672	0.000862	20.824782
1289.368603	-3.001700	3.432700	-10.303000	26.578453	0.000864	20.820996
1290.369829	-2.998400	3.431900	-10.289000	26.580811	0.000862	20.820522
1291.375856	-3.021100	3.431700	-10.365000	26.519165	0.000861	20.844850
1292.369999	-3.001500	3.431200	-10.299000	26.522768	0.000861	20.822868
1293.371163	-2.988100	3.431300	-10.252000	26.512324	0.000859	20.819482
1294.369905	-3.004700	3.430500	-10.306000	26.530217	0.000859	20.840313
1295.372359	-3.010300	3.428900	-10.321000	26.531454	0.000858	20.833970
1296.374655	-2.990300	3.431200	-10.259000	26.503158	0.000857	20.819753
1297.369809	-2.992900	3.430400	-10.266000	26.505793	0.000856	20.820978
1298.377382	-2.990600	3.429600	-10.255000	26.470683	0.000856	20.824094
1299.371375	-2.979900	3.428700	-10.216000	26.451170	0.000855	20.832456
1300.376429	-2.995800	3.428100	-10.269000	26.482256	0.000855	20.822450
1301.378142	-2.988800	3.428900	-10.246000	26.489601	0.000855	20.830307
1302.373345	-3.002500	3.426300	-10.286000	26.487689	0.000856	20.846877
1303.372195	-2.983400	3.428800	-10.229000	26.459955	0.000853	20.823268
1304.374429	-2.994400	3.427000	-10.260000	26.433121	0.000852	20.835652
1305.372530	-3.006800	3.424800	-10.296000	26.441361	0.000851	20.845356
1306.371124	-3.013900	3.425200	-10.323000	26.448081	0.000852	20.831248
1307.374486	-2.994100	3.425700	-10.256000	26.460207	0.000851	20.835849
1308.374170	-3.006700	3.424300	-10.295000	26.504378	0.000849	20.836151
1309.370713	-2.981200	3.425700	-10.212000	26.514462	0.000848	20.846287
1310.375505	-3.002500	3.422700	-10.276000	26.499710	0.000851	20.849476
1311.376458	-2.992400	3.424800	-10.247000	26.550305	0.000848	20.844383
1312.373364	-2.995200	3.423000	-10.250000	26.558795	0.000848	20.864771
1313.374798	-2.980100	3.422500	-10.199000	26.591122	0.000848	20.840369
1314.375001	-2.997100	3.421500	-10.253000	26.608500	0.000849	20.879648
1315.377001	-2.997700	3.421200	-10.255000	26.634540	0.000847	20.860781
1316.377886	-3.019800	3.420400	-10.327000	26.649755	0.000847	20.860430
1317.377746	-2.991500	3.422000	-10.236000	26.597327	0.000846	20.849925
1318.378839	-2.990300	3.419900	-10.225000	26.548596	0.000847	20.843140
1319.377906	-2.988100	3.420100	-10.218000	26.494252	0.000845	20.842093
1320.382928	-2.996000	3.418900	-10.242000	26.451250	0.000843	20.831589
1321.377518	-3.001700	3.419600	-10.264000	26.431130	0.000843	20.864469
1322.382594	-3.020000	3.419300	-10.324000	26.444069	0.000843	20.856138
1323.380934	-3.005600	3.417200	-10.269000	26.447592	0.000841	20.855411
1324.381834	-2.993400	3.418900	-10.234000	26.428257	0.000842	20.850677
1325.383422	-3.021900	3.416800	-10.324000	26.428771	0.000843	20.845504
1326.381055	-2.994100	3.418000	-10.232000	26.413682	0.000842	20.845511
1327.382955	-3.008300	3.416100	-10.276000	26.436441	0.000841	20.836618
1328.390586	-2.999900	3.416300	-10.246000	26.458872	0.000841	20.853947
1329.393101	-3.023700	3.413600	-10.320000	26.471773	0.000841	20.830405
1330.384752	-3.010000	3.414500	-10.276000	26.456108	0.000841	20.844057
1331.388172	-2.995700	3.413900	-10.226000	26.435375	0.000840	20.852141
1332.386142	-3.000800	3.415100	-10.246000	26.415212	0.000838	20.842308
1333.390804	-3.020700	3.412500	-10.307000	26.411812	0.000838	20.845054
1334.384704	-3.004600	3.414200	-10.257000	26.404606	0.000836	20.855355
1335.384736	-2.988400	3.413000	-10.197000	26.448025	0.000835	20.835933
1336.382573	-2.997300	3.412600	-10.226000	26.452522	0.000835	20.831445
1337.393517	-3.007900	3.411600	-10.260000	26.441941	0.000835	20.837879
1338.386199	-2.998400	3.413500	-10.234000	26.496111	0.000835	20.835902
1339.384682	-3.001900	3.412000	-10.241000	26.531287	0.000832	20.836646
1340.388294	-2.998300	3.411600	-10.228000	26.531189	0.000831	20.805254
1341.383811	-3.005000	3.410400	-10.247000	26.527782	0.000833	20.838813
1342.389285	-3.032700	3.409600	-10.339000	26.569886	0.000832	20.831350
1343.390584	-3.011100	3.409700	-10.265000	26.599154	0.000831	20.838012
1344.391164	-3.003400	3.409100	-10.239000	26.598480	0.000831	20.824059
1345.385366	-2.995800	3.409000	-10.211000	26.609426	0.000830	20.830321
1346.389344	-2.994300	3.408400	-10.205000	26.608581	0.000829	20.809083
1347.393378	-2.982400	3.408400	-10.164000	26.643006	0.000831	20.831835
1348.386059	-2.990000	3.409400	-10.193000	26.659010	0.000829	20.840338
1349.387310	-3.003400	3.407000	-10.231000	26.669858	0.000828	20.816156
1350.390146	-2.993000	3.406800	-10.194000	26.680381	0.000825	20.845701
1351.388851	-2.987900	3.407200	-10.180000	26.694653	0.000825	20.829229
1352.388893	-3.015200	3.405800	-10.268000	26.719869	0.000825	20.833717
1353.388463	-2.978200	3.407100	-10.146000	26.655255	0.000828	20.817596
1354.389165	-2.977200	3.406200	-10.139000	26.638569	0.000826	20.815521
1355.386541	-3.010800	3.404800	-10.251000	26.605999	0.000824	20.806487
1356.387443	-2.998800	3.403900	-10.207000	26.630005	0.000824	20.832516
1357.385834	-3.005000	3.403400	-10.226000	26.640878	0.000822	20.787022
1358.390753	-3.002200	3.404600	-10.220000	26.667186	0.000822	20.804461
1359.392323	-2.991000	3.404300	-10.181000	26.661648	0.000822	20.832558
1360.391387	-2.992000	3.403500	-10.183000	26.637479	0.000821	20.808735
1361.390913	-3.007300	3.402500	-10.232000	26.624646	0.000823	20.811956
1362.391151	-2.996600	3.402600	-10.194000	26.599420	0.000820	20.806038
1363.399403	-3.001300	3.401100	-10.207000	26.581528	0.000822	20.824087
1364.391965	-3.000500	3.402600	-10.209000	26.617889	0.000821	20.801370
1365.389867	-2.991800	3.401300	-10.175000	26.619433	0.000817	20.789172
1366.389147	-3.022500	3.400100	-10.276000	26.640609	0.000815	20.819468
1367.389201	-3.030000	3.398000	-10.294000	26.659727	0.000817	20.817351
1368.395529	-2.994700	3.399500	-10.179000	26.672014	0.000817	20.808366
1369.394195	-3.015700	3.399600	-10.251000	26.675707	0.000816	20.807337
1370.397437	-2.992500	3.400200	-10.172000	26.719527	0.000816	20.803502
1371.397660	-2.986200	3.398400	-10.147000	26.705654	0.000814	20.817530
1372.398667	-3.003400	3.398500	-10.205000	26.682893	0.000815	20.815510
1373.399882	-2.978300	3.399300	-10.123000	26.656359	0.000815	20.804008
1374.395480	-2.997600	3.397600	-10.184000	26.643802	0.000814	20.792333
1375.393411	-3.000500	3.397300	-10.191000	26.653106	0.000815	20.820652
1376.400831	-2.996300	3.395600	-10.172000	26.608102	0.000812	20.796748
1377.402994	-2.998000	3.395700	-10.179000	26.597830	0.000813	20.795905
1378.402800	-2.996700	3.395500	-10.173000	26.554337	0.000812	20.798177
1379.399393	-2.975500	3.395800	-10.103000	26.546839	0.000812	20.797278
1380.398600	-2.998200	3.394200	-10.175000	26.507166	0.000812	20.800074
1381.397581	-2.987900	3.394600	-10.142000	26.502848	0.000811	20.790043
1382.400153	-3.002700	3.393600	-10.189000	26.535071	0.000811	20.767431
1383.397120	-2.974100	3.396300	-10.098000	26.552905	0.000810	20.790573
1384.397583	-3.010900	3.392100	-10.212000	26.585297	0.000808	20.782358
1385.400931	-3.024200	3.391800	-10.257000	26.588690	0.000807	20.791932
1386.399743	-2.998400	3.392300	-10.170000	26.605353	0.000809	20.790665
1387.397493	-3.021700	3.391200	-10.245000	26.584745	0.000810	20.802666
1388.401659	-3.004000	3.391300	-10.186000	26.581866	0.000806	20.804987
1389.403826	-3.005000	3.391800	-10.191000	26.542992	0.000806	20.784402
1390.401356	-3.034800	3.390800	-10.289000	26.559624	0.000804	20.790215
1391.405318	-3.005900	3.390300	-10.189000	26.568009	0.000805	20.795799
1392.402207	-3.036200	3.388200	-10.287000	26.575930	0.000805	20.772467
1393.402616	-3.018100	3.389200	-10.226000	26.597009	0.000804	20.791760
1394.403990	-3.018200	3.388100	-10.225000	26.613909	0.000804	20.767972
1395.401553	-3.002100	3.388900	-10.173000	26.600066	0.000802	20.793411
1396.401260	-3.036700	3.387800	-10.286000	26.668905	0.000801	20.794809
1397.403558	-3.012300	3.387800	-10.204000	26.691837	0.000800	20.783724
1398.402665	-3.032700	3.387500	-10.271000	26.724784	0.000801	20.774648
1399.406298	-3.015600	3.385700	-10.209000	26.745976	0.000801	20.764185
1400.405389	-2.997200	3.388100	-10.154000	26.738143	0.000799	20.781441
1401.408672	-2.987700	3.387600	-10.121000	26.755471	0.000801	20.777999
1402.406184	-3.000200	3.386700	-10.159000	26.772693	0.000797	20.777297
1403.407434	-3.012200	3.386700	-10.199000	26.764382	0.000797	20.784588
1404.407378	-3.004900	3.383700	-10.167000	26.751233	0.000799	20.793653
1405.404618	-3.006400	3.383500	-10.171000	26.693793	0.000795	20.772415
1406.404107	-2.984700	3.383600	-10.098000	26.704389	0.000797	20.759359
1407.404482	-3.005800	3.383200	-10.168000	26.732596	0.000796	20.774441
1408.408670	-2.997000	3.383400	-10.139000	26.680944	0.000795	20.775618
1409.411552	-2.996700	3.382900	-10.137000	26.659265	0.000794	20.786541
1410.410087	-3.010100	3.382100	-10.180000	26.625191	0.000794	20.765088
1411.409062	-3.036000	3.381400	-10.265000	26.652107	0.000794	20.769387
1412.409500	-3.018600	3.380100	-10.201000	26.674250	0.000793	20.762724
1413.410588	-3.017700	3.382000	-10.205000	26.679763	0.000793	20.763999
1414.415950	-3.008700	3.381100	-10.172000	26.656708	0.000792	20.788237
1415.410850	-3.014800	3.379700	-10.188000	26.646779	0.000791	20.774936
1416.412047	-2.989300	3.381300	-10.107000	26.654161	0.000790	20.781884
1417.415679	-3.004800	3.379500	-10.154000	26.645346	0.000787	20.774919
1418.414144	-2.973200	3.380700	-10.050000	26.667570	0.000789	20.765492
1419.411957	-2.993300	3.380100	-10.117000	26.666682	0.000788	20.770290
1420.412451	-2.998600	3.378400	-10.130000	26.667748	0.000788	20.767567
1421.411762	-2.997100	3.377300	-10.122000	26.648620	0.000786	20.784848
1422.412965	-2.998100	3.378500	-10.128000	26.645961	0.000786	20.772218
1423.414886	-3.035300	3.375200	-10.242000	26.638306	0.000785	20.768316
1424.415257	-3.010500	3.376200	-10.163000	26.623604	0.000786	20.761122
1425.414406	-2.997300	3.376600	-10.119000	26.634404	0.000784	20.750641
1426.416913	-2.982500	3.376800	-10.071000	26.643666	0.000784	20.765643
1427.410688	-3.007800	3.374700	-10.149000	26.663035	0.000784	20.780848
1428.412053	-2.976000	3.376300	-10.047000	26.636102	0.000785	20.775109
1429.410802	-3.024600	3.373500	-10.203000	26.633118	0.000785	20.745556
1430.418875	-2.995300	3.374000	-10.104000	26.609615	0.000783	20.745162
1431.416130	-2.981400	3.374100	-10.057000	26.586325	0.000783	20.755889
1432.413076	-3.048300	3.370300	-10.273000	26.567611	0.000782	20.761259
1433.415309	-3.002000	3.373400	-10.126000	26.541514	0.000783	20.754941
1434.413995	-3.003600	3.372400	-10.128000	26.493301	0.000780	20.769067
1435.412505	-3.007300	3.371900	-10.139000	26.464672	0.000780	20.768741
1436.409985	-3.020600	3.371600	-10.183000	26.459979	0.000780	20.762601
1437.414046	-2.994100	3.370500	-10.091000	26.441533	0.000779	20.731256
1438.416325	-2.989400	3.372200	-10.079000	26.477954	0.000778	20.758383
1439.410715	-2.985200	3.370800	-10.061000	26.462363	0.000777	20.755987
1440.417731	-2.990200	3.370500	-10.078000	26.483119	0.000777	20.763100
1441.417226	-2.985800	3.369500	-10.059000	26.468146	0.000776	20.762274
1442.412711	-3.008400	3.369200	-10.135000	26.489325	0.000775	20.735672
1443.419469	-2.995300	3.370500	-10.094000	26.513928	0.000774	20.746177
1444.411699	-3.023400	3.367200	-10.179000	26.529225	0.000774	20.764399
1445.416034	-2.998200	3.369600	-10.102000	26.546524	0.000774	20.768987
1446.420294	-2.991600	3.369200	-10.079000	26.593938	0.000774	20.744576
1447.417665	-2.984300	3.367500	-10.048000	26.601576	0.000772	20.753676
1448.416834	-3.010400	3.366600	-10.134000	26.619237	0.000770	20.753413
1449.417623	-3.017700	3.365000	-10.154000	26.605674	0.000770	20.731717
1450.418811	-3.008300	3.366100	-10.124000	26.595776	0.000770	20.742155
1451.417611	-3.025100	3.365100	-10.178000	26.612903	0.000770	20.742777
1452.423648	-2.986000	3.366400	-10.052000	26.654367	0.000769	20.741787
1453.420146	-2.991700	3.365500	-10.068000	26.677405	0.000768	20.742661
1454.420088	-2.997600	3.366300	-10.090000	26.682617	0.000766	20.751221
1455.419077	-3.020100	3.363100	-10.156000	26.712501	0.000765	20.752816
1456.421677	-3.003500	3.364800	-10.105000	26.739293	0.000764	20.741818
1457.420326	-2.989600	3.364000	-10.056000	26.764330	0.000765	20.766517
1458.426499	-3.006100	3.361400	-10.102000	26.774338	0.000765	20.757139
1459.422694	-2.983900	3.363500	-10.035000	26.761287	0.000765	20.748759
1460.419406	-2.998800	3.363800	-10.087000	26.742447	0.000761	20.761586
1461.422236	-2.997400	3.362200	-10.076000	26.725120	0.000763	20.753648
1462.420364	-2.994700	3.363700	-10.072000	26.728973	0.000759	20.750410
1463.424337	-2.999800	3.362300	-10.085000	26.721574	0.000760	20.753876
1464.419732	-2.966700	3.362800	-9.975000	26.722493	0.000760	20.750533
1465.421195	-2.996800	3.360000	-10.069000	26.708840	0.000760	20.756721
1466.421047	-2.999400	3.360800	-10.079000	26.731852	0.000759	20.729595
1467.422248	-3.001000	3.360200	-10.083000	26.697748	0.000758	20.723283
1468.427685	-2.987100	3.360700	-10.036000	26.645629	0.000759	20.747228
1469.432498	-2.997600	3.359000	-10.067000	26.628024	0.000759	20.748970
1470.424092	-2.981700	3.360600	-10.018000	26.605077	0.000760	20.744867
1471.422678	-2.998300	3.358700	-10.070000	26.581451	0.000759	20.736764
1472.429198	-2.994500	3.358200	-10.055000	26.619136	0.000758	20.747621
1473.423772	-2.995700	3.358300	-10.059000	26.646265	0.000757	20.744548
1474.424119	-2.985800	3.356200	-10.020000	26.641891	0.000758	20.738253
1475.424663	-2.991400	3.357000	-10.041000	26.688382	0.000757	20.729988
1476.424467	-2.975900	3.356200	-9.986800	26.713329	0.000757	20.742742
1477.429068	-2.996900	3.355700	-10.055000	26.737172	0.000754	20.718822
1478.422825	-3.020800	3.354000	-10.130000	26.727684	0.000754	20.734414
1479.427938	-2.994700	3.354800	-10.045000	26.703257	0.000755	20.741625
1480.426351	-3.005700	3.354700	-10.083000	26.727775	0.000753	20.751102
1481.427383	-3.012700	3.354100	-10.104000	26.724596	0.000752	20.703332
1482.424411	-2.984600	3.353800	-10.009000	26.759879	0.000754	20.743550
1483.427089	-3.005700	3.352500	-10.076000	26.800535	0.000751	20.734165
1484.428613	-3.001400	3.351800	-10.059000	26.851587	0.000752	20.731443
1485.425988	-3.007500	3.352700	-10.082000	26.871085	0.000750	20.742040
1486.428410	-3.004600	3.351300	-10.068000	26.906780	0.000751	20.710125
1487.430258	-3.023000	3.350600	-10.126000	26.890080	0.000750	20.745018
1488.430142	-2.987800	3.351200	-10.012000	26.862196	0.000747	20.745903
1489.433555	-2.983900	3.351200	-9.998500	26.817543	0.000746	20.730877
1490.435234	-2.993000	3.350100	-10.026000	26.808503	0.000746	20.736012
1491.428284	-2.998200	3.349800	-10.043000	26.801869	0.000745	20.736455
1492.435255	-3.004600	3.349800	-10.064000	26.800895	0.000746	20.722198
1493.436021	-3.010000	3.349200	-10.080000	26.825117	0.000743	20.728060
1494.434659	-3.008300	3.347700	-10.070000	26.866014	0.000741	20.723189
1495.430943	-2.986200	3.349800	-10.002000	26.849851	0.000742	20.733491
1496.434397	-3.007700	3.348200	-10.070000	26.855559	0.000742	20.709831
1497.432566	-3.020400	3.347400	-10.109000	26.907049	0.000742	20.721302
1498.431694	-3.008500	3.346400	-10.066000	26.877024	0.000740	20.721931
1499.434527	-3.012800	3.346500	-10.081000	26.877464	0.000739	20.730909
1500.432501	-3.023800	3.344100	-10.110000	26.911691	0.000739	20.743041
1501.430638	-2.994000	3.344800	-10.014000	26.906718	0.000736	20.737091
1502.443024	-2.990300	3.346100	-10.005000	26.905775	0.000738	20.722391
1503.431608	-3.000200	3.345100	-10.035000	26.878229	0.000736	20.728833
1504.432174	-2.999600	3.344300	-10.029000	26.813649	0.000736	20.726013
1505.433147	-3.009900	3.343900	-10.063000	26.770084	0.000735	20.748120
1506.433259	-3.016100	3.343900	-10.085000	26.743056	0.000734	20.715728
1507.433970	-2.998000	3.344400	-10.026000	26.741746	0.000732	20.718679
1508.433882	-3.013800	3.342900	-10.074000	26.753934	0.000733	20.734253
1509.438472	-2.986500	3.343700	-9.985700	26.777790	0.000732	20.721253
1510.436208	-3.005000	3.341600	-10.040000	26.762895	0.000731	20.729037
1511.437695	-3.015600	3.340700	-10.073000	26.761780	0.000732	20.714639
1512.445725	-3.011200	3.341100	-10.060000	26.752827	0.000732	20.707059
1513.435485	-3.004700	3.342600	-10.041000	26.792759	0.000729	20.729666
1514.438318	-3.005800	3.340800	-10.039000	26.769179	0.000730	20.712595
1515.447696	-2.998200	3.340000	-10.011000	26.774342	0.000728	20.725848
1516.439668	-3.018600	3.339500	-10.080000	26.801199	0.000729	20.698320
1517.438973	-3.019800	3.340100	-10.085000	26.809044	0.000727	20.711899
1518.436193	-3.001200	3.339000	-10.021000	26.828428	0.000726	20.711000
1519.441861	-2.994700	3.339000	-9.998500	26.849478	0.000725	20.710354
1520.443486	-2.993400	3.338500	-9.993100	26.879266	0.000726	20.713280
1521.438219	-3.014600	3.337900	-10.062000	26.926445	0.000724	20.726107
1522.440315	-3.013600	3.338400	-10.059000	26.940395	0.000724	20.727333
1523.441720	-3.007400	3.337200	-10.035000	26.938167	0.000723	20.732205
1524.438970	-2.999300	3.337400	-10.008000	26.977205	0.000723	20.714088
1525.438536	-3.000600	3.336000	-10.009000	26.992423	0.000724	20.714692
1526.439672	-2.992400	3.336200	-9.982600	26.990163	0.000721	20.710522
1527.437635	-3.011900	3.335300	-10.045000	26.943190	0.000720	20.715918
1528.441713	-3.008300	3.334000	-10.027000	26.910661	0.000718	20.715925
1529.440093	-2.986500	3.335200	-9.959300	26.876961	0.000719	20.710013
1530.438302	-3.017500	3.333000	-10.056000	26.834024	0.000717	20.704298
1531.441664	-2.999500	3.334000	-9.998700	26.805216	0.000717	20.715162
1532.440118	-3.027600	3.333500	-10.091000	26.740184	0.000717	20.700986
1533.442549	-2.978800	3.333800	-9.929900	26.745654	0.000717	20.703641
1534.444449	-3.005600	3.332600	-10.015000	26.768690	0.000716	20.718267
1535.448475	-3.027500	3.330700	-10.083000	26.739775	0.000716	20.715275
1536.444723	-3.010400	3.331900	-10.029000	26.734171	0.000715	20.719124
1537.446416	-3.022300	3.330200	-10.063000	26.724886	0.000712	20.707891
1538.441404	-2.998000	3.331800	-9.985800	26.755296	0.000713	20.713336
1539.443419	-2.996800	3.330900	-9.981200	26.754507	0.000712	20.722974
1540.443779	-3.006200	3.330400	-10.010000	26.752271	0.000710	20.717881
1541.443191	-2.992700	3.330500	-9.966000	26.700099	0.000710	20.704309
1542.442625	-3.005700	3.329400	-10.005000	26.696700	0.000710	20.698520
1543.442028	-3.014700	3.327800	-10.031000	26.738356	0.000709	20.700097
1544.443834	-3.012600	3.327900	-10.025000	26.749130	0.000709	20.691014
1545.446942	-2.998300	3.329600	-9.982700	26.776808	0.000708	20.686598
1546.445255	-3.033100	3.327700	-10.092000	26.725906	0.000709	20.693269
1547.444179	-2.981300	3.328700	-9.922100	26.690111	0.000708	20.715131
1548.446508	-2.964900	3.328200	-9.865500	26.652103	0.000707	20.713905
1549.445692	-2.981900	3.327200	-9.920400	26.626267	0.000709	20.695517
1550.438559	-3.000000	3.325900	-9.976600	26.653274	0.000707	20.685682
1551.447542	-3.011900	3.324600	-10.011000	26.715837	0.000703	20.705907
1552.440234	-2.986300	3.325800	-9.930600	26.744606	0.000706	20.699742
1553.442820	-2.994800	3.325600	-9.957900	26.749672	0.000705	20.705784
1554.444221	-3.013200	3.324400	-10.016000	26.764739	0.000704	20.719037
1555.444135	-3.011200	3.323700	-10.007000	26.783756	0.000703	20.698327
1556.444360	-2.993500	3.325000	-9.952800	26.774520	0.000703	20.712275
1557.444437	-3.006600	3.323800	-9.991800	26.787693	0.000702	20.708450
1558.445967	-3.003500	3.323700	-9.982100	26.802473	0.000701	20.701499
1559.443577	-2.987600	3.323300	-9.927600	26.835044	0.000701	20.704375
1560.446163	-3.005000	3.322200	-9.982200	26.873663	0.000700	20.700058
1561.443698	-2.997500	3.323300	-9.959900	26.923574	0.000699	20.705201
1562.447045	-2.999600	3.321600	-9.962800	26.952173	0.000701	20.711200
1563.446001	-2.998300	3.322400	-9.961000	26.966287	0.000698	20.714488
1564.448466	-3.006400	3.318900	-9.976600	26.927084	0.000696	20.712524
1565.449968	-2.978600	3.321300	-9.891200	26.962026	0.000697	20.719686
1566.452621	-3.013200	3.318800	-9.999100	26.927329	0.000698	20.698545
1567.450192	-3.008300	3.318700	-9.981900	26.889067	0.000697	20.705117
1568.445342	-2.987000	3.319600	-9.915100	26.867523	0.000695	20.718067
1569.448637	-3.010600	3.319000	-9.991400	26.883734	0.000693	20.714453
1570.446604	-2.995900	3.319900	-9.944500	26.920912	0.000692	20.727656
1571.447346	-2.986000	3.318200	-9.906900	26.946504	0.000691	20.698861
1572.448354	-2.999700	3.318600	-9.954000	26.957796	0.000693	20.711165
1573.446252	-2.990200	3.318000	-9.919700	26.967576	0.000690	20.711516
1574.455987	-2.996700	3.317000	-9.939100	27.003068	0.000689	20.713543
1575.452704	-2.983400	3.318200	-9.898000	26.995402	0.000689	20.704885
1576.452810	-2.991800	3.317300	-9.922300	27.017091	0.000687	20.702514
1577.452276	-3.002400	3.316100	-9.954600	27.036104	0.000688	20.730645
1578.452462	-2.982400	3.316000	-9.888900	27.008188	0.000687	20.707786
1579.449829	-3.019200	3.314600	-10.006000	26.957737	0.000684	20.720589
1580.453229	-2.997100	3.313900	-9.931000	26.964045	0.000686	20.710336
1581.449667	-2.987400	3.314400	-9.899600	26.974149	0.000685	20.709118
1582.450846	-3.005300	3.313400	-9.956600	26.988473	0.000686	20.708348
1583.455030	-3.026400	3.313100	-10.025000	26.929882	0.000685	20.738099
1584.455732	-2.999500	3.311600	-9.931900	26.928719	0.000683	20.736455
1585.456667	-2.994100	3.312300	-9.916200	26.942247	0.000683	20.719711
1586.458272	-2.992400	3.312500	-9.911500	26.952100	0.000683	20.722033
1587.453270	-3.014700	3.310600	-9.979300	26.980429	0.000679	20.716856
1588.455304	-2.994700	3.310700	-9.913500	27.012387	0.000682	20.730027
1589.459752	-2.998800	3.309900	-9.925100	27.022327	0.000681	20.713470
1590.456180	-3.007600	3.310800	-9.956500	27.052795	0.000680	20.709023
1591.456437	-3.013400	3.310600	-9.975200	27.031163	0.000680	20.728521
1592.455534	-3.002800	3.307900	-9.932200	27.004686	0.000677	20.743147
1593.454396	-2.994200	3.308700	-9.904900	26.978728	0.000677	20.714197
1594.471772	-2.983800	3.309500	-9.873800	26.955062	0.000676	20.714106
1595.457893	-2.994400	3.309200	-9.906700	26.969190	0.000677	20.733530
1596.459510	-3.021300	3.307700	-9.992300	26.984352	0.000677	20.718904
1597.458832	-2.987900	3.307100	-9.880600	27.027014	0.000676	20.715339
1598.456918	-2.994300	3.305900	-9.898000	27.061757	0.000675	20.721830
1599.456168	-3.023300	3.305700	-9.992900	27.054870	0.000674	20.720119
1600.456223	-3.015800	3.305900	-9.969200	27.037750	0.000672	20.742733
1601.457243	-2.988500	3.306400	-9.880500	27.036018	0.000673	20.702107
1602.459659	-3.000600	3.305000	-9.916500	27.097089	0.000672	20.720854
1603.460052	-3.012200	3.304500	-9.953300	27.093771	0.000671	20.726052
1604.458319	-2.980200	3.306200	-9.852300	27.053745	0.000671	20.737008
1605.458327	-3.006400	3.303300	-9.929600	27.017448	0.000670	20.716625
1606.461394	-3.000800	3.304600	-9.914700	26.965607	0.000670	20.733720
1607.461126	-2.982300	3.303500	-9.850600	26.941298	0.000668	20.720180
1608.459483	-2.994700	3.303500	-9.892100	26.965248	0.000670	20.725297
1609.461609	-2.996800	3.301500	-9.892400	26.965328	0.000667	20.742923
1610.459987	-2.995800	3.302600	-9.893100	26.960361	0.000668	20.733661
1611.461168	-2.998900	3.302300	-9.901500	26.955150	0.000665	20.699495
1612.466780	-2.978400	3.301300	-9.832000	26.918280	0.000665	20.734967
1613.460838	-2.996800	3.301400	-9.892800	26.867727	0.000663	20.742456
1614.464651	-2.970700	3.300900	-9.804700	26.872921	0.000662	20.729186
1615.467134	-2.979000	3.300700	-9.831900	26.861101	0.000661	20.721567
1616.460445	-2.997500	3.299800	-9.890500	26.833579	0.000662	20.734198
1617.464280	-3.003200	3.299500	-9.907200	26.823309	0.000661	20.720552
1618.467106	-3.003200	3.300000	-9.909300	26.834033	0.000662	20.736077
1619.463411	-3.022600	3.297800	-9.966400	26.858750	0.000659	20.714462
1620.464794	-2.997600	3.299000	-9.886800	26.870246	0.000658	20.727918
1621.461289	-3.009400	3.296400	-9.919400	26.885531	0.000659	20.735702
1622.467942	-2.974300	3.299200	-9.812200	26.898465	0.000657	20.733535
1623.466094	-2.994700	3.297900	-9.874900	26.907872	0.000656	20.726397
1624.462921	-2.996200	3.297300	-9.878300	26.883627	0.000655	20.732365
1625.463012	-2.988100	3.296200	-9.848400	26.900733	0.000656	20.750514
1626.467170	-3.029700	3.293800	-9.977300	26.889960	0.000657	20.722137
1627.463408	-3.012900	3.295400	-9.927700	26.915123	0.000655	20.747440
1628.465151	-3.015300	3.294600	-9.932800	26.975803	0.000654	20.729274
1629.464293	-2.995500	3.295600	-9.870700	27.012238	0.000652	20.752639
1630.462669	-2.993500	3.293700	-9.858700	27.021214	0.000653	20.727051
1631.469448	-2.970200	3.295400	-9.787600	27.046755	0.000653	20.744676
1632.465307	-3.003300	3.294000	-9.891300	27.076978	0.000652	20.739984
1633.465435	-3.005900	3.292400	-9.894900	27.092285	0.000651	20.732618
1634.465371	-3.002200	3.293000	-9.884900	27.147605	0.000649	20.752695
1635.465309	-3.023100	3.290800	-9.945900	27.189750	0.000649	20.750988
1636.462907	-3.007100	3.290900	-9.895200	27.228339	0.000650	20.753292
1637.464944	-2.992200	3.290900	-9.845300	27.244521	0.000648	20.743015
1638.462049	-2.989600	3.291500	-9.838600	27.253826	0.000648	20.756169
1639.463107	-2.975500	3.291500	-9.792400	27.281809	0.000648	20.732632
1640.465715	-2.993800	3.291600	-9.852200	27.317291	0.000645	20.736082
1641.465651	-2.952000	3.291300	-9.715100	27.309944	0.000645	20.740546
1642.464345	-2.989900	3.289200	-9.833400	27.337266	0.000644	20.737209
1643.466029	-2.989400	3.288700	-9.827900	27.309627	0.000644	20.751132
1644.469157	-2.996300	3.287300	-9.848600	27.344011	0.000644	20.751108
1645.467632	-2.970400	3.288700	-9.768300	27.346773	0.000644	20.750567
1646.466447	-2.998900	3.288600	-9.860800	27.344074	0.000642	20.748326
1647.477522	-2.988200	3.289000	-9.827200	27.313583	0.000642	20.739464
1648.469072	-3.011700	3.286400	-9.896900	27.296223	0.000643	20.749029
1649.470529	-3.019500	3.287600	-9.925300	27.310217	0.000640	20.738449
1650.467587	-2.994300	3.287500	-9.842900	27.302902	0.000641	20.760964
1651.468570	-2.978000	3.285700	-9.783800	27.277148	0.000639	20.741695
1652.465738	-3.007700	3.285300	-9.880300	27.247035	0.000638	20.750761
1653.471406	-2.983500	3.285600	-9.801700	27.247783	0.000637	20.753883
1654.468559	-2.998700	3.285100	-9.849400	27.260884	0.000638	20.762320
1655.468195	-2.980300	3.284500	-9.787900	27.260063	0.000636	20.773823
1656.469771	-2.995300	3.285500	-9.838600	27.217921	0.000636	20.748977
1657.470627	-2.961000	3.284900	-9.725700	27.169341	0.000634	20.761755
1658.472038	-2.996800	3.282800	-9.837100	27.160782	0.000635	20.755043
1659.472099	-3.020200	3.283300	-9.913900	27.156556	0.000631	20.777346
1660.472843	-3.012800	3.282200	-9.887100	27.192472	0.000632	20.762735
1661.471240	-2.981600	3.282100	-9.783500	27.215791	0.000633	20.760585
1662.472651	-2.981900	3.282000	-9.785400	27.211800	0.000632	20.758467
1663.477690	-2.990800	3.282500	-9.816200	27.246813	0.000632	20.741053
1664.481610	-3.012300	3.279200	-9.876600	27.278891	0.000631	20.765734
1665.473989	-2.998500	3.281300	-9.838400	27.320892	0.000629	20.767206
1666.478882	-2.997900	3.279400	-9.830100	27.282442	0.000630	20.757452
1667.471160	-2.980900	3.280100	-9.775900	27.256761	0.000628	20.755327
1668.474963	-2.982900	3.279700	-9.782400	27.234190	0.000627	20.771505
1669.480556	-3.009400	3.277500	-9.862800	27.279572	0.000624	20.745556
1670.479103	-2.970600	3.279800	-9.741600	27.310822	0.000626	20.754706
1671.479981	-3.010200	3.278800	-9.868100	27.319932	0.000626	20.777146
1672.474774	-3.036200	3.278600	-9.952700	27.317680	0.000625	20.770613
1673.477814	-2.990600	3.277600	-9.800900	27.331325	0.000626	20.757312
1674.474792	-2.986600	3.277000	-9.786200	27.342735	0.000622	20.776851
1675.481689	-2.975300	3.277800	-9.751600	27.376996	0.000624	20.771014
1676.474235	-3.018200	3.275700	-9.885200	27.396076	0.000621	20.779777
1677.478732	-2.995300	3.276300	-9.812900	27.403764	0.000621	20.775183
1678.475285	-2.991100	3.275600	-9.796300	27.424649	0.000622	20.761580
1679.476146	-3.027500	3.273700	-9.910300	27.445694	0.000620	20.770424
1680.476476	-3.005700	3.273400	-9.838300	27.460775	0.000618	20.773743
1681.476998	-3.008200	3.273000	-9.844200	27.475881	0.000618	20.781829
1682.482006	-3.013300	3.273500	-9.863600	27.449000	0.000619	20.769009
1683.479733	-2.996500	3.273100	-9.806900	27.407500	0.000617	20.762346
1684.479346	-2.996800	3.271800	-9.803500	27.388096	0.000616	20.790240
1685.490737	-2.997600	3.273000	-9.810300	27.405671	0.000616	20.779472
1686.489296	-2.998400	3.272300	-9.810500	27.433423	0.000616	20.771829
1687.480374	-2.986800	3.271800	-9.771400	27.453720	0.000615	20.796991
1688.482835	-2.994800	3.271200	-9.795400	27.453102	0.000614	20.778826
1689.484397	-3.004000	3.270000	-9.821300	27.482469	0.000616	20.769964
1690.483076	-2.989500	3.272100	-9.780900	27.442360	0.000612	20.774657
1691.488228	-2.994900	3.269200	-9.789900	27.425027	0.000613	20.779030
1692.481682	-2.993400	3.270100	-9.787800	27.354303	0.000611	20.776160
1693.485774	-3.008700	3.268500	-9.832800	27.356506	0.000612	20.766048
1694.482139	-3.004200	3.268400	-9.818900	27.390921	0.000608	20.795453
1695.488484	-2.981800	3.268000	-9.744400	27.425725	0.000609	20.795380
1696.488410	-2.986700	3.268800	-9.761200	27.459537	0.000609	20.791938
1697.495991	-2.986900	3.268600	-9.761600	27.515871	0.000608	20.787923
1698.481992	-3.006700	3.267600	-9.823000	27.558910	0.000607	20.783336
1699.484789	-3.017200	3.266700	-9.855400	27.528473	0.000606	20.783533
1700.486753	-3.016900	3.267000	-9.854800	27.467141	0.000607	20.806700
1701.483521	-3.013800	3.265900	-9.841500	27.460843	0.000605	20.797519
1702.487410	-3.004300	3.267000	-9.812900	27.494849	0.000605	20.789058
1703.485349	-3.012500	3.264000	-9.832000	27.499918	0.000604	20.775666
1704.488362	-3.016300	3.264200	-9.845100	27.524651	0.000604	20.764989
1705.492579	-2.992600	3.265600	-9.771500	27.551360	0.000602	20.791861
1706.487444	-3.001300	3.264700	-9.797400	27.516891	0.000602	20.792269
1707.482804	-3.006700	3.263300	-9.810700	27.517216	0.000602	20.788328
1708.486681	-2.990600	3.264200	-9.759800	27.495188	0.000603	20.786080
1709.499438	-2.999600	3.261600	-9.781900	27.498990	0.000602	20.805078
1710.482874	-2.998700	3.261300	-9.778700	27.507896	0.000599	20.785115
1711.493544	-3.009100	3.263800	-9.819900	27.517133	0.000598	20.807685
1712.491955	-2.986900	3.262200	-9.742500	27.570703	0.000597	20.814168
1713.490303	-2.998300	3.261400	-9.777900	27.546222	0.000598	20.782424
1714.495754	-3.013400	3.261500	-9.826600	27.510567	0.000597	20.795863
1715.490581	-3.000500	3.261500	-9.785500	27.513729	0.000596	20.803312
1716.487784	-3.006100	3.259900	-9.798200	27.506723	0.000595	20.801005
1717.491834	-2.992600	3.259900	-9.754800	27.508259	0.000595	20.822938
1718.489791	-3.002100	3.259500	-9.784300	27.532668	0.000594	20.816202
1719.496799	-3.012100	3.257700	-9.811100	27.566005	0.000595	20.812286
1720.492302	-3.009400	3.259500	-9.807300	27.579378	0.000592	20.803931
1721.491370	-3.017900	3.257000	-9.828700	27.563104	0.000592	20.817428
1722.501258	-3.048300	3.257000	-9.925500	27.540484	0.000591	20.817428
1723.491695	-3.016000	3.256200	-9.819900	27.486588	0.000591	20.817256
1724.494441	-3.002700	3.256500	-9.776400	27.430535	0.000587	20.800693
1725.494065	-3.003200	3.257200	-9.781100	27.381217	0.000588	20.825046
1726.501957	-2.991400	3.256500	-9.740200	27.368774	0.000586	20.797356
1727.497112	-2.988700	3.255200	-9.728000	27.423514	0.000587	20.804535
1728.492335	-3.010700	3.254600	-9.797600	27.430298	0.000588	20.823213
1729.490295	-2.997700	3.254600	-9.755900	27.456293	0.000585	20.825658
1730.494338	-2.994300	3.255700	-9.746900	27.480793	0.000586	20.819486
1731.492679	-2.992700	3.253300	-9.734700	27.527139	0.000585	20.822493
1732.497106	-2.993000	3.254700	-9.740600	27.554423	0.000584	20.812487
1733.507629	-2.990600	3.253000	-9.726800	27.589271	0.000584	20.820049
1734.497127	-3.021400	3.251700	-9.823500	27.621095	0.000583	20.799439
1735.497622	-2.996500	3.252100	-9.743600	27.615367	0.000581	20.808849
1736.510011	-2.999100	3.251700	-9.750600	27.555852	0.000584	20.821985
1737.498274	-2.999000	3.251700	-9.750800	27.493019	0.000580	20.845537
1738.494070	-2.991400	3.251000	-9.723500	27.436220	0.000578	20.816369
1739.497318	-2.990800	3.251000	-9.721900	27.417675	0.000578	20.827109
1740.503987	-3.008000	3.248800	-9.771400	27.457809	0.000579	20.822442
1741.496006	-2.991800	3.250800	-9.724900	27.471166	0.000578	20.824500
1742.500310	-3.008300	3.249500	-9.774700	27.494958	0.000577	20.819987
1743.502450	-3.000500	3.249000	-9.747500	27.526997	0.000577	20.818083
1744.503109	-3.021000	3.248000	-9.811100	27.576884	0.000576	20.824655
1745.497873	-2.988400	3.248600	-9.706900	27.567882	0.000575	20.812752
1746.497986	-3.003700	3.248300	-9.756300	27.568873	0.000576	20.821336
1747.501290	-3.027000	3.246600	-9.826400	27.563623	0.000575	20.826485
1748.502826	-3.005100	3.246400	-9.754900	27.585667	0.000575	20.809310
1749.499679	-2.996100	3.246000	-9.724200	27.575073	0.000572	20.827573
1750.502441	-3.014800	3.246100	-9.785400	27.568978	0.000573	20.840881
1751.504091	-3.008100	3.245300	-9.760800	27.550526	0.000571	20.846023
1752.503181	-2.998200	3.245600	-9.730300	27.515547	0.000570	20.845443
1753.504937	-2.985100	3.246300	-9.689100	27.532740	0.000570	20.859422
1754.503137	-2.999600	3.244500	-9.732000	27.494989	0.000570	20.837562
1755.506051	-2.981500	3.244300	-9.672400	27.519049	0.000570	20.820992
1756.502042	-3.017900	3.242900	-9.784800	27.514141	0.000568	20.828856
1757.506371	-3.019100	3.242000	-9.786800	27.544424	0.000569	20.832772
1758.503897	-3.021200	3.242200	-9.793600	27.584156	0.000566	20.829600
1759.506135	-3.019500	3.241500	-9.786100	27.589964	0.000566	20.806522
1760.506559	-2.993900	3.242300	-9.704200	27.535128	0.000565	20.826264
1761.506245	-3.021400	3.241900	-9.793000	27.572626	0.000563	20.825586
1762.505804	-3.020700	3.241100	-9.789300	27.585227	0.000563	20.826886
1763.507982	-3.009400	3.240900	-9.752400	27.647964	0.000565	20.829320
1764.505904	-3.026600	3.239300	-9.803100	27.671444	0.000563	20.843463
1765.504444	-2.998100	3.239800	-9.711400	27.697440	0.000561	20.833113
1766.508511	-3.013600	3.240200	-9.762800	27.676366	0.000563	20.835140
1767.507271	-3.012200	3.238800	-9.754500	27.649605	0.000561	20.824333
1768.506990	-2.983500	3.239800	-9.663600	27.671061	0.000560	20.830750
1769.508938	-3.010700	3.237300	-9.745900	27.672237	0.000559	20.839046
1770.511355	-3.010500	3.237300	-9.744700	27.701420	0.000560	20.809143
1771.510826	-2.991400	3.239000	-9.688000	27.696869	0.000557	20.835857
1772.513829	-2.967800	3.237800	-9.607600	27.675714	0.000556	20.826898
1773.511326	-3.002700	3.237300	-9.720100	27.648709	0.000555	20.819164
1774.509049	-2.982000	3.237900	-9.655200	27.648140	0.000558	20.811479
1775.517357	-3.012300	3.235800	-9.746300	27.631208	0.000554	20.826684
1776.509813	-3.010400	3.235300	-9.737600	27.666500	0.000554	20.810040
1777.512224	-2.983100	3.236300	-9.652900	27.686427	0.000550	20.815393
1778.511955	-3.002100	3.235200	-9.710500	27.717696	0.000552	20.822677
1779.510443	-3.006300	3.235000	-9.724300	27.727762	0.000550	20.822849
1780.509639	-3.002000	3.233000	-9.704400	27.714154	0.000551	20.815319
1781.510671	-2.988800	3.234000	-9.665000	27.714545	0.000549	20.809548
1782.512632	-3.008300	3.235300	-9.732000	27.718248	0.000548	20.816120
1783.510534	-2.996500	3.233100	-9.686100	27.759589	0.000546	20.807937
1784.509187	-2.986200	3.234800	-9.658100	27.778914	0.000545	20.778547
1785.511294	-3.008200	3.232300	-9.722000	27.788857	0.000545	20.816054
1786.510163	-3.012100	3.231400	-9.731600	27.765024	0.000545	20.809612
1787.512535	-3.015300	3.231100	-9.740900	27.719401	0.000545	20.818702
1788.513287	-2.999100	3.230500	-9.687100	27.679325	0.000544	20.815833
1789.513836	-2.999000	3.229800	-9.684300	27.719872	0.000542	20.798314
1790.509893	-2.996200	3.231900	-9.682400	27.738946	0.000544	20.795697
1791.514453	-2.990700	3.230600	-9.660800	27.761342	0.000542	20.808278
1792.509676	-2.996900	3.230600	-9.680400	27.790261	0.000539	20.823630
1793.510253	-3.030000	3.227200	-9.777200	27.780001	0.000539	20.779166
1794.512513	-3.001300	3.228600	-9.689400	27.823224	0.000540	20.801802
1795.508952	-3.012600	3.227400	-9.721200	27.808172	0.000536	20.808465
1796.509834	-3.003300	3.227500	-9.691500	27.747058	0.000538	20.816189
1797.511237	-2.995800	3.227800	-9.668600	27.686251	0.000537	20.783922
1798.509565	-2.996800	3.226900	-9.669100	27.649969	0.000534	20.770171
1799.508945	-3.016900	3.226800	-9.732300	27.677924	0.000536	20.803991
1800.509450	-3.022500	3.224800	-9.745900	27.720900	0.000535	20.796029
1801.511946	-3.031100	3.226600	-9.778900	27.724376	0.000534	20.795260
1802.509907	-3.009800	3.224200	-9.703100	27.747495	0.000532	20.775377
1803.511338	-2.988300	3.226800	-9.640600	27.789900	0.000532	20.796240
1804.514615	-3.011800	3.223500	-9.706300	27.826900	0.000531	20.800761
1805.510231	-2.993700	3.224100	-9.651500	27.868269	0.000530	20.798299
1806.512348	-3.002000	3.224900	-9.679400	27.924477	0.000531	20.779955
1807.512762	-3.000700	3.223100	-9.670700	27.886520	0.000529	20.784900
1808.513947	-2.999800	3.221500	-9.662800	27.864508	0.000528	20.788824
1809.511893	-3.019300	3.220400	-9.721300	27.838327	0.000528	20.776699
1810.514399	-2.977800	3.222200	-9.594200	27.816760	0.000526	20.785814
1811.516186	-2.964900	3.222100	-9.550700	27.806915	0.000525	20.766897
1812.515174	-3.036900	3.219100	-9.775700	27.816582	0.000525	20.799859
1813.518436	-2.986700	3.219300	-9.614600	27.829725	0.000525	20.773257
1814.517392	-3.010600	3.219400	-9.690600	27.841884	0.000525	20.778382
1815.518036	-2.977800	3.218800	-9.584100	27.867098	0.000525	20.766774
1816.517151	-2.973600	3.219700	-9.572000	27.871443	0.000523	20.784424
1817.519861	-2.974900	3.219900	-9.576500	27.850235	0.000523	20.791529
1818.517282	-3.007300	3.217500	-9.673600	27.837156	0.000522	20.784055
1819.516286	-3.003400	3.219300	-9.667200	27.833704	0.000519	20.764460
1820.518926	-3.002900	3.218600	-9.664100	27.857634	0.000522	20.768155
1821.517391	-2.991700	3.217200	-9.623200	27.901122	0.000519	20.783475
1822.520903	-2.984800	3.217300	-9.601600	27.921258	0.000517	20.778611
1823.518473	-3.009100	3.216700	-9.677700	27.910569	0.000518	20.778758
1824.517409	-2.995800	3.215800	-9.632500	27.904176	0.000517	20.786075
1825.519398	-2.979200	3.215300	-9.578100	27.876471	0.000516	20.777156
1826.524537	-3.004800	3.213800	-9.654600	27.842582	0.000517	20.780507
1827.524725	-3.010500	3.213900	-9.673800	27.844613	0.000515	20.770223
1828.521718	-2.976300	3.214500	-9.566500	27.868299	0.000512	20.774147
1829.520217	-2.999400	3.213600	-9.638000	27.878712	0.000514	20.779886
1830.527210	-3.000100	3.213300	-9.638400	27.890473	0.000514	20.765170
1831.523046	-3.002900	3.213000	-9.647000	27.893202	0.000511	20.774081
1832.520707	-3.011000	3.212300	-9.671100	27.911575	0.000512	20.769339
1833.519870	-3.004700	3.213000	-9.652200	27.954021	0.000508	20.763698
1834.524986	-3.008000	3.209800	-9.654400	27.992534	0.000509	20.760738
1835.521984	-2.987500	3.211400	-9.593400	28.034751	0.000510	20.779525
1836.518529	-2.965600	3.212100	-9.524400	28.028805	0.000509	20.763109
1837.520635	-3.003500	3.211300	-9.643100	28.001558	0.000505	20.753699
1838.520901	-3.002500	3.209600	-9.636200	27.975266	0.000508	20.742882
1839.524018	-3.018500	3.210000	-9.687900	27.947172	0.000505	20.750640
1840.521768	-3.017700	3.209700	-9.684600	27.841223	0.000505	20.762544
1841.520832	-3.024600	3.208200	-9.701900	27.778561	0.000501	20.773449
1842.522528	-3.010100	3.207700	-9.654600	27.756993	0.000503	20.760278
1843.523749	-3.020100	3.207600	-9.686500	27.718762	0.000502	20.782024
1844.521684	-2.995100	3.206700	-9.603700	27.711369	0.000501	20.772688
1845.535686	-3.000000	3.205900	-9.616800	27.700166	0.000500	20.779432
1846.523542	-2.997600	3.207300	-9.613200	27.715422	0.000498	20.752584
1847.524924	-2.998000	3.206800	-9.612800	27.770134	0.000499	20.762124
1848.521944	-3.025700	3.205000	-9.696300	27.833236	0.000497	20.788171
1849.526982	-3.002900	3.205900	-9.626000	27.881305	0.000496	20.757365
1850.526458	-3.010700	3.205100	-9.648100	27.885277	0.000497	20.770846
1851.523049	-3.018900	3.205200	-9.675100	27.942377	0.000495	20.759564
1852.527714	-3.019500	3.203900	-9.673500	27.996809	0.000494	20.782584
1853.521590	-2.999400	3.204700	-9.610600	28.025023	0.000492	20.762620
1854.521626	-3.007400	3.202700	-9.631000	28.006684	0.000492	20.754592
1855.524773	-2.994100	3.203300	-9.589800	27.989077	0.000490	20.768163
1856.525438	-2.987500	3.202800	-9.567700	27.957920	0.000490	20.766200
1857.522724	-3.008900	3.201100	-9.630600	27.976673	0.000490	20.751884
1858.526733	-3.005500	3.201700	-9.621200	28.006430	0.000489	20.769984
1859.527674	-2.991100	3.200700	-9.572000	28.020098	0.000488	20.748180
1860.528655	-3.002900	3.199200	-9.605600	28.041344	0.000489	20.743487
1861.529814	-2.943500	3.201600	-9.422900	28.045308	0.000487	20.746529
1862.528754	-2.990400	3.199200	-9.564800	28.047353	0.000487	20.736733
1863.529083	-3.041600	3.199600	-9.730300	28.028665	0.000486	20.751588
1864.526634	-2.991800	3.197500	-9.564800	27.968499	0.000485	20.750770
1865.530615	-3.028700	3.196000	-9.678100	27.936596	0.000482	20.759909
1866.529387	-3.009100	3.198600	-9.624500	27.848572	0.000482	20.759983
1867.527321	-3.007000	3.196900	-9.612000	27.837866	0.000479	20.749681
1868.530450	-3.028300	3.195300	-9.675700	27.804276	0.000480	20.750964
1869.535710	-3.013800	3.197600	-9.635100	27.825038	0.000479	20.726813
1870.530258	-2.961600	3.196700	-9.466400	27.809661	0.000478	20.739788
1871.535663	-2.964000	3.197900	-9.477800	27.813267	0.000478	20.738675
1872.530760	-2.987000	3.195200	-9.543000	27.876454	0.000477	20.746319
1873.529146	-2.988300	3.196000	-9.549400	27.898840	0.000476	20.732339
1874.529808	-3.009400	3.192900	-9.608000	27.949872	0.000475	20.734865
1875.528958	-3.003600	3.195100	-9.595900	27.922159	0.000475	20.760077
1876.529662	-2.972800	3.194500	-9.495700	27.921614	0.000473	20.736769
1877.528441	-2.995800	3.192000	-9.561200	27.905653	0.000474	20.737300
1878.531107	-3.024000	3.192500	-9.653300	27.900789	0.000472	20.763699
1879.532486	-3.007000	3.192700	-9.598900	27.901567	0.000471	20.745990
1880.530763	-3.023800	3.190500	-9.645300	27.950114	0.000471	20.735108
1881.537172	-2.985200	3.191700	-9.526900	27.920809	0.000471	20.733588
1882.532304	-3.018600	3.191000	-9.631700	27.925244	0.000469	20.730939
1883.534738	-3.003800	3.190800	-9.583800	27.948359	0.000467	20.730497
1884.540242	-3.007000	3.189300	-9.590300	27.952104	0.000467	20.731421
1885.532299	-3.007900	3.189500	-9.592700	27.980173	0.000465	20.742130
1886.534430	-2.995800	3.188500	-9.551300	28.019068	0.000464	20.730546
1887.536756	-2.999100	3.188900	-9.562600	28.021853	0.000463	20.727659
1888.536317	-3.015600	3.187900	-9.612900	27.996960	0.000465	20.729156
1889.536755	-2.974800	3.188200	-9.483800	27.991413	0.000462	20.737797
1890.539854	-2.971200	3.189100	-9.474000	28.022177	0.000461	20.756911
1891.540869	-2.977900	3.187800	-9.492300	28.007307	0.000459	20.711594
1892.535107	-3.003900	3.185800	-9.569100	28.001256	0.000459	20.742964
1893.540087	-3.007200	3.185900	-9.580100	27.940495	0.000459	20.742023
1894.540073	-3.028600	3.185000	-9.645000	27.935597	0.000457	20.729031
1895.537067	-3.020200	3.184400	-9.616100	27.931755	0.000456	20.719474
1896.543408	-3.011800	3.185900	-9.593900	27.924738	0.000455	20.738490
1897.541844	-2.999300	3.183200	-9.546400	27.914178	0.000457	20.735449
1898.540099	-2.981100	3.186000	-9.496700	27.899679	0.000456	20.738874
1899.542455	-3.005800	3.182900	-9.566000	27.868611	0.000456	20.742217
1900.540295	-3.011600	3.182000	-9.581900	27.894082	0.000454	20.740827
1901.540015	-2.994500	3.183400	-9.532000	27.912682	0.000452	20.742004
1902.541337	-3.009800	3.182200	-9.576400	27.939308	0.000452	20.733240
1903.543259	-3.029400	3.180200	-9.632400	27.971478	0.000449	20.742387
1904.542584	-2.982600	3.183500	-9.494800	28.032195	0.000450	20.713413
1905.541895	-2.999500	3.180300	-9.538200	28.029174	0.000449	20.712743
1906.544042	-3.011000	3.179500	-9.573000	28.059198	0.000448	20.732536
1907.542378	-2.983500	3.180900	-9.489600	28.077154	0.000449	20.737334
1908.543022	-2.962100	3.182000	-9.425100	28.059562	0.000446	20.737644
1909.544634	-3.004000	3.178600	-9.547600	28.089139	0.000443	20.723320
1910.543615	-3.010300	3.178300	-9.566400	28.072881	0.000445	20.724497
1911.544017	-3.007300	3.177500	-9.554600	28.102709	0.000442	20.727023
1912.547123	-2.985000	3.179000	-9.488000	28.145058	0.000444	20.742630
1913.545312	-3.001700	3.177300	-9.536200	28.178749	0.000442	20.727235
1914.545904	-2.984700	3.176900	-9.480900	28.220568	0.000441	20.728559
1915.547106	-2.996600	3.176500	-9.517000	28.248410	0.000439	20.709649
1916.546967	-3.000200	3.174400	-9.522400	28.286979	0.000438	20.702012
1917.545118	-2.994300	3.174800	-9.505300	28.240866	0.000437	20.722442
1918.553348	-3.017000	3.175400	-9.578900	28.230481	0.000436	20.711037
1919.549501	-3.025400	3.173900	-9.601300	28.198536	0.000434	20.714438
1920.552766	-2.992100	3.176500	-9.503700	28.179226	0.000435	20.713015
1921.548651	-3.013000	3.172500	-9.557900	28.176132	0.000432	20.715116
1922.555998	-3.012600	3.172300	-9.555100	28.173760	0.000432	20.719367
1923.547872	-2.966700	3.172200	-9.408700	28.165876	0.000432	20.726128
1924.552527	-2.984200	3.172300	-9.466100	28.214442	0.000431	20.726185
1925.553887	-3.001900	3.172400	-9.522300	28.247717	0.000431	20.731237
1926.548659	-2.996100	3.169500	-9.495000	28.272360	0.000430	20.696776
1927.551838	-2.997200	3.171600	-9.504900	28.292439	0.000430	20.704191
1928.547740	-2.981900	3.170700	-9.453900	28.339936	0.000427	20.724041
1929.559600	-2.991900	3.171600	-9.488700	28.402167	0.000426	20.732176
1930.551516	-2.986500	3.169200	-9.462600	28.395761	0.000427	20.711025
1931.553408	-3.010400	3.168400	-9.537600	28.409684	0.000425	20.709872
1932.554566	-3.012600	3.167800	-9.541900	28.412095	0.000424	20.716568
1933.552694	-2.989000	3.167700	-9.467300	28.470758	0.000425	20.703094
1934.557125	-3.008100	3.167200	-9.526000	28.504707	0.000423	20.707411
1935.551403	-2.985100	3.168100	-9.456600	28.534726	0.000423	20.700183
1936.553063	-2.986400	3.167200	-9.458300	28.523231	0.000420	20.707099
1937.550173	-3.008600	3.166100	-9.524400	28.530820	0.000420	20.698147
1938.558483	-3.005900	3.166200	-9.516600	28.545074	0.000420	20.701122
1939.553031	-3.021100	3.165700	-9.563000	28.575084	0.000420	20.703845
1940.554507	-3.017600	3.165100	-9.550100	28.559028	0.000416	20.719444
1941.558962	-3.004500	3.163500	-9.502900	28.517977	0.000419	20.704179
1942.554157	-2.981700	3.164200	-9.433500	28.481049	0.000416	20.707294
1943.551998	-2.989100	3.162600	-9.451600	28.422224	0.000412	20.700214
1944.557165	-2.987700	3.161500	-9.443300	28.415193	0.000413	20.698349
1945.553653	-3.001200	3.161200	-9.485300	28.423815	0.000412	20.691858
1946.553208	-2.982500	3.161300	-9.427300	28.413391	0.000410	20.700802
1947.554255	-2.997500	3.160300	-9.472000	28.412100	0.000410	20.713727
1948.552725	-3.015400	3.160200	-9.528300	28.407025	0.000411	20.705298
1949.553150	-3.019200	3.157400	-9.531900	28.370613	0.000408	20.686175
1950.552142	-2.993800	3.158400	-9.454200	28.344543	0.000408	20.696910
1951.557456	-3.006700	3.157600	-9.492700	28.361528	0.000406	20.714487
1952.553113	-3.017700	3.157200	-9.527000	28.365344	0.000406	20.675178
1953.555773	-3.013600	3.156600	-9.511200	28.377448	0.000405	20.704913
1954.556811	-3.009100	3.156700	-9.497700	28.410037	0.000404	20.685095
1955.555114	-2.987900	3.158000	-9.434700	28.391258	0.000402	20.687523
1956.557417	-2.982400	3.156200	-9.411500	28.393734	0.000402	20.690965
1957.556066	-3.014300	3.154800	-9.508000	28.425388	0.000402	20.696761
1958.553045	-3.011000	3.156000	-9.502000	28.471751	0.000401	20.701724
1959.555520	-3.009100	3.156500	-9.497100	28.470744	0.000400	20.690277
1960.559569	-3.002600	3.153500	-9.467700	28.428294	0.000399	20.699688
1961.565938	-3.011900	3.152000	-9.493100	28.384429	0.000398	20.676852
1962.554515	-3.033700	3.151300	-9.558700	28.333053	0.000399	20.683916
1963.558347	-2.994500	3.152000	-9.437200	28.274439	0.000397	20.696499
1964.555338	-3.018800	3.150900	-9.511000	28.251663	0.000396	20.676885
1965.576008	-3.005700	3.150900	-9.469700	28.253393	0.000396	20.682894
1966.561007	-3.031300	3.147700	-9.540700	28.295712	0.000395	20.698951
1967.556480	-3.020000	3.149300	-9.509500	28.339751	0.000390	20.687342
1968.555355	-2.999900	3.149700	-9.447500	28.361152	0.000395	20.685183
1969.558562	-3.000700	3.149200	-9.448900	28.346497	0.000394	20.683229
1970.557614	-3.000400	3.148600	-9.446200	28.318104	0.000390	20.699686
1971.561220	-2.996000	3.148100	-9.430300	28.327425	0.000390	20.691527
1972.564251	-2.997900	3.147100	-9.434100	28.343387	0.000390	20.687684
1973.562945	-2.989000	3.147700	-9.407300	28.338654	0.000389	20.704731
1974.557989	-2.972300	3.145500	-9.347400	28.340318	0.000389	20.696923
1975.563489	-2.981600	3.146800	-9.380400	28.312534	0.000387	20.688861
1976.560885	-2.991800	3.144900	-9.406800	28.249217	0.000386	20.678216
1977.559106	-2.979000	3.145600	-9.369900	28.255932	0.000383	20.679287
1978.562810	-3.003400	3.144400	-9.443400	28.298170	0.000385	20.672975
1979.561167	-2.993100	3.145000	-9.411600	28.347087	0.000382	20.686194
1980.571856	-3.010100	3.142000	-9.456600	28.395825	0.000381	20.667464
1981.562735	-3.000600	3.143200	-9.430000	28.418930	0.000382	20.702587
1982.568848	-3.003800	3.141200	-9.434600	28.436799	0.000381	20.685966
1983.563926	-3.022400	3.140900	-9.491600	28.420197	0.000380	20.702914
1984.566961	-3.023400	3.141200	-9.495400	28.408076	0.000379	20.678853
1985.574205	-3.001000	3.140600	-9.423800	28.343945	0.000378	20.670227
1986.566317	-2.981300	3.139700	-9.358700	28.331782	0.000378	20.688802
1987.565310	-2.992700	3.140800	-9.397800	28.292445	0.000376	20.686178
1988.567445	-2.952700	3.138700	-9.266200	28.284268	0.000376	20.686006
1989.565327	-3.012600	3.137000	-9.448500	28.345641	0.000374	20.692325
1990.565686	-3.010000	3.137100	-9.440300	28.402229	0.000372	20.700468
1991.567873	-3.005100	3.136100	-9.423600	28.477421	0.000371	20.669498
1992.568635	-3.011600	3.135600	-9.441800	28.477128	0.000370	20.688171
1993.573597	-3.005900	3.135800	-9.424900	28.522702	0.000372	20.699454
1994.570075	-3.009200	3.134200	-9.430300	28.549490	0.000369	20.697982
1995.570254	-2.982600	3.134000	-9.346600	28.590531	0.000369	20.675776
1996.572375	-2.987700	3.132600	-9.358100	28.625523	0.000368	20.674509
1997.568322	-3.009100	3.132300	-9.424200	28.644825	0.000367	20.677828
1998.571483	-2.984000	3.133300	-9.348300	28.665838	0.000366	20.686192
1999.569454	-3.005000	3.132600	-9.412000	28.674507	0.000366	20.697769
2000.566667	-2.989700	3.131700	-9.362200	28.661090	0.000366	20.685676
2001.565755	-3.004200	3.130800	-9.404300	28.605570	0.000365	20.686183
2002.570226	-3.002500	3.128500	-9.392500	28.586373	0.000363	20.670640
2003.571897	-3.013900	3.130600	-9.433300	28.558417	0.000361	20.689903
2004.569130	-3.009900	3.127800	-9.412200	28.552126	0.000363	20.691154
2005.566386	-3.007100	3.127800	-9.403600	28.513373	0.000361	20.693852
2006.570090	-3.011500	3.127000	-9.415000	28.502844	0.000360	20.677557
2007.568454	-3.005300	3.129600	-9.403600	28.513762	0.000359	20.665317
2008.568972	-3.003800	3.125700	-9.388000	28.544974	0.000359	20.681579
2009.571326	-2.969800	3.127500	-9.286800	28.589018	0.000357	20.703653
2010.571268	-2.987100	3.126600	-9.338500	28.583767	0.000357	20.679870
2011.574689	-2.986200	3.124300	-9.329200	28.585545	0.000355	20.685454
2012.569651	-3.014000	3.123000	-9.411900	28.558863	0.000356	20.679919
2013.569714	-3.021600	3.123400	-9.436300	28.538577	0.000352	20.670868
2014.570378	-3.020100	3.121500	-9.426100	28.509313	0.000354	20.690711
2015.570836	-3.006600	3.123200	-9.389200	28.558781	0.000352	20.689795
2016.570092	-2.977700	3.123300	-9.299100	28.583360	0.000350	20.681357
2017.569397	-2.997400	3.121300	-9.355000	28.606615	0.000350	20.674906
2018.572405	-3.021400	3.120400	-9.425800	28.644472	0.000348	20.677473
2019.572983	-2.992900	3.120300	-9.337800	28.672799	0.000351	20.685142
2020.570930	-3.015700	3.118600	-9.403300	28.665745	0.000347	20.678037
2021.575717	-2.980200	3.120200	-9.297100	28.641485	0.000349	20.679680
2022.573044	-3.019800	3.117400	-9.413600	28.566264	0.000345	20.682157
2023.573381	-2.986100	3.117100	-9.305600	28.585372	0.000345	20.666787
2024.569911	-2.996000	3.118100	-9.340500	28.594171	0.000344	20.682762
2025.573509	-3.006500	3.116000	-9.367100	28.656175	0.000342	20.689736
2026.574858	-2.977700	3.116200	-9.277500	28.671532	0.000343	20.685763
2027.577077	-2.998600	3.115200	-9.339500	28.692821	0.000341	20.687765
2028.577062	-2.991900	3.115200	-9.319200	28.693414	0.000338	20.682672
2029.575179	-2.993300	3.114000	-9.319700	28.665322	0.000339	20.688992
2030.577022	-2.995300	3.113100	-9.323400	28.586881	0.000338	20.674471
2031.575573	-2.999800	3.111500	-9.331900	28.558389	0.000337	20.685606
2032.574729	-2.995700	3.112200	-9.321800	28.504642	0.000340	20.703552
2033.575526	-2.995700	3.112300	-9.321600	28.458775	0.000335	20.684388
2034.576110	-2.995700	3.111700	-9.320200	28.427796	0.000335	20.694919
2035.576003	-3.001700	3.108600	-9.330500	28.471172	0.000334	20.706830
2036.579526	-2.985200	3.109900	-9.282900	28.535432	0.000333	20.694256
2037.579712	-2.993300	3.108300	-9.303200	28.579225	0.000333	20.712283
2038.578408	-3.006300	3.107100	-9.339800	28.595581	0.000332	20.687028
2039.582522	-2.999800	3.107600	-9.320400	28.637432	0.000333	20.703102
2040.576093	-2.989300	3.107400	-9.287900	28.625403	0.000331	20.707107
2041.580437	-3.012500	3.104600	-9.351900	28.568210	0.000328	20.694075
2042.581760	-2.991500	3.105100	-9.287800	28.510867	0.000330	20.684689
2043.584930	-2.972800	3.104500	-9.228500	28.453522	0.000327	20.679571
2044.579719	-2.987400	3.103400	-9.270200	28.422704	0.000326	20.695955
2045.579714	-2.978100	3.103400	-9.239400	28.424734	0.000325	20.695628
2046.579120	-2.987300	3.102500	-9.267100	28.492691	0.000325	20.703845
2047.578334	-2.971700	3.101600	-9.214700	28.536673	0.000326	20.695032
2048.578615	-2.983600	3.100800	-9.250200	28.557170	0.000324	20.681059
2049.581258	-2.999000	3.101800	-9.300600	28.561658	0.000322	20.689374
2050.586344	-3.000000	3.100600	-9.301000	28.592658	0.000324	20.689300
2051.580842	-2.996300	3.099100	-9.284800	28.645264	0.000321	20.703403
2052.585839	-2.993800	3.096800	-9.269800	28.669224	0.000322	20.702406
2053.581695	-2.997600	3.097800	-9.284300	28.638227	0.000322	20.694418
2054.581504	-3.007300	3.095700	-9.309200	28.636246	0.000320	20.683887
2055.593416	-2.994300	3.095000	-9.266400	28.665507	0.000319	20.697239
2056.584195	-2.978200	3.097300	-9.223300	28.705082	0.000318	20.691106
2057.582292	-3.008700	3.094800	-9.311100	28.725243	0.000317	20.689128
2058.584595	-3.017900	3.093300	-9.334700	28.735932	0.000317	20.696576
2059.585758	-3.007200	3.093100	-9.300400	28.698816	0.000317	20.698546
2060.581715	-2.992600	3.093300	-9.254700	28.729690	0.000317	20.697402
2061.586526	-2.993500	3.091700	-9.253700	28.752456	0.000313	20.705635
2062.582922	-3.033100	3.090000	-9.370800	28.723920	0.000312	20.690166
2063.583594	-3.018700	3.090400	-9.328200	28.674711	0.000312	20.709355
2064.584482	-3.010400	3.088900	-9.297400	28.627146	0.000311	20.693215
2065.581498	-2.987100	3.090000	-9.229300	28.606180	0.000308	20.714301
2066.586471	-3.007100	3.087700	-9.283700	28.561455	0.000308	20.718568
2067.583630	-2.992400	3.087300	-9.236500	28.521411	0.000308	20.701947
2068.586659	-2.985900	3.086400	-9.214700	28.467987	0.000311	20.705520
2069.583447	-2.991400	3.086400	-9.231600	28.493883	0.000307	20.696036
2070.592026	-2.991100	3.084400	-9.224600	28.441570	0.000307	20.724912
2071.588007	-2.997300	3.085400	-9.246700	28.451881	0.000304	20.713009
2072.589326	-2.997600	3.085300	-9.247100	28.500110	0.000304	20.704678
2073.584474	-3.005100	3.083400	-9.263900	28.564636	0.000305	20.725092
2074.585852	-3.009400	3.082200	-9.273800	28.599435	0.000303	20.733112
2075.588476	-3.001100	3.081300	-9.246600	28.636748	0.000302	20.715690
2076.587675	-3.000300	3.080100	-9.240500	28.684920	0.000299	20.679806
2077.588843	-3.001300	3.080200	-9.243400	28.759767	0.000301	20.721061
2078.584898	-2.981100	3.078900	-9.177100	28.826664	0.000299	20.732973
2079.587432	-2.987800	3.079500	-9.200300	28.827061	0.000297	20.723415
2080.584311	-3.007700	3.076300	-9.251400	28.831817	0.000298	20.720619
2081.593342	-2.984800	3.077700	-9.185400	28.763743	0.000295	20.727438
2082.589390	-3.000700	3.075500	-9.227500	28.774667	0.000296	20.699559
2083.591887	-3.029500	3.074200	-9.312500	28.785477	0.000295	20.729890
2084.592049	-2.995200	3.075700	-9.211200	28.806245	0.000294	20.714773
2085.590464	-2.974300	3.075500	-9.146400	28.822378	0.000293	20.716326
2086.590319	-2.934900	3.074900	-9.022900	28.847787	0.000292	20.714896
2087.595356	-3.007700	3.071500	-9.237700	28.882227	0.000294	20.717823
2088.592148	-3.007200	3.070600	-9.232800	28.884661	0.000293	20.723594
2089.597717	-3.030600	3.068500	-9.297400	28.833285	0.000292	20.737746
2090.594038	-2.979700	3.070600	-9.148500	28.833260	0.000290	20.728712
2091.591368	-2.990300	3.068500	-9.174700	28.840548	0.000288	20.721354
2092.594437	-2.955800	3.068800	-9.068200	28.897824	0.000288	20.722629
2093.592134	-2.998700	3.068300	-9.199000	28.914102	0.000288	20.725278
2094.594314	-3.007300	3.065800	-9.219000	28.924212	0.000287	20.713652
2095.596147	-2.986300	3.065900	-9.154500	28.894683	0.000286	20.720888
2096.595168	-2.996400	3.065700	-9.184400	28.895161	0.000287	20.721844
2097.595883	-3.018800	3.063600	-9.247900	28.879678	0.000286	20.722367
2098.592070	-3.014700	3.063000	-9.232000	28.914483	0.000283	20.713333
2099.598794	-3.011700	3.061600	-9.220100	28.874850	0.000284	20.728883
2100.595513	-3.010000	3.061600	-9.214500	28.867441	0.000284	20.723790
2101.596592	-3.016700	3.059400	-9.228100	28.899600	0.000283	20.725842
2102.595778	-3.010100	3.058900	-9.206300	28.934177	0.000284	20.743133
2103.593619	-2.986900	3.059900	-9.137200	28.960240	0.000281	20.731458
2104.593097	-2.985700	3.059000	-9.131500	28.981670	0.000281	20.733609
2105.597867	-2.985300	3.056500	-9.123000	29.027789	0.000280	20.732660
2106.598614	-2.990300	3.055400	-9.135300	29.045104	0.000280	20.747736
2107.595479	-3.013600	3.054800	-9.204800	29.089761	0.000278	20.738203
2108.597255	-3.005900	3.054300	-9.179800	29.103959	0.000279	20.738285
2109.595270	-2.990500	3.054000	-9.131700	29.059627	0.000279	20.747670
2110.601723	-3.020000	3.051900	-9.215600	29.099285	0.000277	20.739266
2111.601160	-2.987800	3.052600	-9.119300	29.107480	0.000275	20.760800
2112.602142	-2.990200	3.050500	-9.121600	29.140694	0.000276	20.741636
2113.598458	-3.012200	3.049800	-9.185600	29.159809	0.000275	20.717748
2114.600652	-3.002400	3.049800	-9.154700	29.157042	0.000275	20.736298
2115.615242	-3.002700	3.046800	-9.147600	29.138666	0.000274	20.738170
2116.601259	-3.000400	3.046300	-9.138500	29.061720	0.000275	20.739821
2117.601573	-3.011600	3.046200	-9.173000	29.039302	0.000275	20.749002
2118.601666	-2.998600	3.044700	-9.128200	29.033590	0.000276	20.736134
2119.603783	-2.996800	3.043200	-9.118400	28.974398	0.000274	20.743353
2120.602762	-2.996700	3.042600	-9.117000	28.934070	0.000272	20.750613
2121.602683	-2.997200	3.041700	-9.115700	28.943012	0.000272	20.754880
2122.609146	-2.977200	3.041600	-9.054800	28.926937	0.000274	20.731572
2123.606014	-2.962200	3.041100	-9.007500	28.925306	0.000270	20.757905
2124.599148	-2.979400	3.040000	-9.056600	28.912550	0.000270	20.753114
2125.601726	-3.021400	3.036700	-9.173400	28.899794	0.000269	20.760652
2126.602974	-3.002700	3.036400	-9.116000	28.885008	0.000269	20.765671
2127.602462	-2.989100	3.036800	-9.075700	28.934873	0.000267	20.753793
2128.605907	-2.986500	3.036000	-9.066000	28.965245	0.000267	20.754994
2129.601581	-2.984800	3.034600	-9.056400	28.951775	0.000265	20.743320
2130.605217	-3.008700	3.033500	-9.126100	28.938646	0.000266	20.741946
2131.602296	-3.019800	3.032700	-9.157400	28.922466	0.000267	20.754095
2132.606116	-3.012700	3.030400	-9.128700	28.866141	0.000264	20.768475
2133.601072	-2.994400	3.031800	-9.075500	28.874743	0.000264	20.760545
2134.605997	-3.019200	3.029600	-9.146600	28.800464	0.000264	20.748307
2135.603624	-3.007500	3.027900	-9.105500	28.790214	0.000263	20.759793
2136.601371	-2.968500	3.028300	-8.988500	28.803442	0.000263	20.752255
2137.605328	-3.035600	3.025000	-9.181400	28.773000	0.000262	20.742453
2138.602717	-3.003800	3.025000	-9.085100	28.800821	0.000263	20.754356
2139.606019	-3.017900	3.023400	-9.123900	28.849797	0.000262	20.753907
2140.603137	-3.004000	3.024400	-9.084600	28.906082	0.000261	20.747546
2141.603665	-3.003200	3.021200	-9.071700	28.952027	0.000261	20.741676
2142.604978	-3.011400	3.020700	-9.095900	28.958981	0.000261	20.775236
2143.604987	-3.030800	3.019300	-9.150500	28.944115	0.000259	20.778277
2144.602888	-3.025000	3.019000	-9.131700	28.941941	0.000260	20.762336
2145.610826	-3.018100	3.016700	-9.103900	28.925712	0.000259	20.764003
2146.613373	-3.006900	3.016100	-9.068400	28.933259	0.000260	20.764494
2147.605651	-3.004500	3.015300	-9.057400	28.985807	0.000257	20.775710
2148.604738	-3.002500	3.014000	-9.048400	29.002984	0.000258	20.765042
2149.602126	-3.014600	3.013000	-9.081900	29.041769	0.000258	20.772825
2150.603446	-3.007000	3.011700	-9.055500	29.072064	0.000255	20.754038
2151.607819	-2.985100	3.011300	-8.987600	29.125587	0.000258	20.777149
2152.608870	-3.004000	3.010000	-9.040800	29.137798	0.000255	20.750097
2153.606523	-2.999400	3.008200	-9.022100	29.154413	0.000256	20.769211
2154.605024	-3.024800	3.006100	-9.091900	29.108526	0.000255	20.780346
2155.604864	-2.996500	3.006600	-9.007600	29.090563	0.000256	20.763194
2156.608983	-3.000800	3.004500	-9.015300	29.100526	0.000257	20.776078
2157.604781	-3.018300	3.003700	-9.064600	29.138933	0.000256	20.776847
2158.601759	-2.980900	3.003000	-8.949900	29.176050	0.000253	20.776316
2159.603130	-2.997600	3.000900	-8.994600	29.247520	0.000252	20.779112
2160.605342	-3.001700	2.999200	-9.001400	29.275457	0.000253	20.786404
2161.605803	-2.996500	2.999300	-8.986700	29.308415	0.000252	20.763668
2162.613818	-2.977900	2.997700	-8.926000	29.270152	0.000253	20.800024
2163.607535	-3.017800	2.995300	-9.036900	29.211242	0.000251	20.790442
2164.607541	-3.009300	2.994900	-9.011200	29.152304	0.000253	20.783207
2165.611025	-2.970100	2.995800	-8.895900	29.092170	0.000250	20.756278
2166.604616	-2.986500	2.995300	-8.942900	29.084129	0.000250	20.779945
2167.608625	-3.010400	2.991800	-9.004700	29.101978	0.000251	20.795560
2168.609861	-3.024200	2.988900	-9.037200	29.126294	0.000250	20.787344
2169.605149	-2.996200	2.990300	-8.958300	29.180706	0.000251	20.789069
2170.606550	-3.014000	2.986800	-8.999700	29.240738	0.000250	20.813529
2171.612217	-3.038700	2.984900	-9.069400	29.291324	0.000249	20.797653
2172.606933	-3.028400	2.985100	-9.037300	29.328297	0.000250	20.790344
2173.608888	-2.992800	2.985300	-8.933200	29.310022	0.000250	20.782357
2174.616471	-3.003200	2.983000	-8.957100	29.305041	0.000246	20.789666
2175.607082	-3.004500	2.981500	-8.956800	29.319099	0.000248	20.802411
2176.610609	-2.985200	2.980000	-8.894800	29.364003	0.000249	20.787450
2177.613336	-3.023800	2.978000	-9.003500	29.397177	0.000250	20.806662
2178.607833	-2.985900	2.977900	-8.890700	29.429710	0.000246	20.785398
2179.610835	-2.980200	2.977400	-8.872400	29.478657	0.000246	20.793009
2180.610651	-2.978500	2.975400	-8.860900	29.484707	0.000248	20.789625
2181.607799	-3.004200	2.972400	-8.928300	29.464748	0.000245	20.773299
2182.611056	-2.980700	2.972100	-8.857500	29.438307	0.000246	20.794064
2183.610170	-3.011900	2.969700	-8.943200	29.396537	0.000248	20.820240
2184.612939	-2.949900	2.971000	-8.762800	29.332353	0.000247	20.787320
2185.610024	-2.996500	2.966900	-8.889200	29.335200	0.000246	20.792560
2186.617031	-3.004500	2.966700	-8.912800	29.374321	0.000248	20.820608
2187.618641	-2.985000	2.965400	-8.850900	29.404210	0.000248	20.807111
2188.612807	-3.005700	2.963900	-8.907200	29.465761	0.000245	20.821736
2189.610669	-3.026700	2.960900	-8.960400	29.460060	0.000247	20.809826
2190.611016	-2.993900	2.961100	-8.864100	29.438129	0.000244	20.802419
2191.612649	-2.972300	2.961100	-8.799500	29.409530	0.000244	20.810578
2192.611894	-3.041600	2.956500	-8.991400	29.371571	0.000245	20.833958
2193.611146	-2.984800	2.957200	-8.825200	29.375829	0.000243	20.807430
2194.621201	-2.993900	2.955100	-8.846500	29.409976	0.000246	20.813872
2195.610884	-2.989500	2.953900	-8.829400	29.419150	0.000243	20.826911
2196.612406	-2.995300	2.952200	-8.840900	29.342987	0.000245	20.817478
2197.614183	-2.995600	2.950000	-8.835900	29.378725	0.000244	20.793279
2198.611843	-2.996500	2.949700	-8.838300	29.434577	0.000243	20.809270
2199.614767	-3.029100	2.947200	-8.926300	29.469290	0.000244	20.811542
2200.617864	-2.988700	2.947100	-8.806900	29.486273	0.000242	20.815859
2201.619053	-3.009100	2.943300	-8.855300	29.505405	0.000245	20.806695
2202.612870	-3.009400	2.943600	-8.857100	29.488568	0.000244	20.826707
2203.619597	-3.027000	2.940500	-8.899900	29.496297	0.000243	20.827385
2204.618600	-2.979400	2.942100	-8.764500	29.511552	0.000242	20.828064
2205.615502	-3.010100	2.937700	-8.841500	29.519022	0.000242	20.821843
2206.618200	-2.998300	2.936700	-8.804400	29.565507	0.000242	20.827451
2207.617813	-2.994700	2.934200	-8.785400	29.571427	0.000242	20.831048
2208.614935	-2.988300	2.934800	-8.769500	29.589901	0.000242	20.801307
2209.614878	-3.005000	2.931600	-8.808300	29.614359	0.000243	20.830230
2210.619001	-3.003200	2.929500	-8.796900	29.616751	0.000242	20.831694
2211.618282	-3.018500	2.927100	-8.834200	29.594053	0.000242	20.830149
2212.618474	-3.003200	2.926700	-8.788900	29.524220	0.000241	20.822342
2213.614503	-3.029900	2.923400	-8.856000	29.447148	0.000239	20.824312
2214.618477	-3.011600	2.923700	-8.804200	29.459184	0.000240	20.829805
2215.620485	-3.005500	2.922500	-8.782800	29.435291	0.000241	20.841757
2216.622448	-2.969200	2.921700	-8.674900	29.465567	0.000240	20.828653
2217.617508	-3.010200	2.918000	-8.782900	29.468017	0.000239	20.825432
2218.619154	-3.037200	2.915100	-8.853100	29.477676	0.000239	20.826159
2219.620570	-2.990800	2.915200	-8.718500	29.505234	0.000237	20.831179
2220.618325	-3.022400	2.914100	-8.805800	29.557024	0.000237	20.823167
2221.621907	-3.005300	2.911900	-8.750300	29.591636	0.000239	20.836721
2222.625671	-2.982000	2.910700	-8.677500	29.603338	0.000237	20.826707
2223.626595	-2.995900	2.910100	-8.716900	29.639165	0.000238	20.843383
2224.625003	-3.008300	2.907100	-8.744600	29.674885	0.000238	20.835299
2225.630552	-3.001900	2.905600	-8.721800	29.740604	0.000238	20.839917
2226.623259	-3.008400	2.901900	-8.728800	29.749856	0.000236	20.835969
2227.628060	-3.018000	2.902200	-8.758000	29.772429	0.000239	20.857779
2228.625197	-3.011100	2.901000	-8.733900	29.813739	0.000240	20.832576
2229.621683	-2.956600	2.900200	-8.573300	29.825520	0.000239	20.836868
2230.629024	-3.000900	2.895600	-8.689000	29.846753	0.000236	20.845476
2231.628881	-2.988500	2.894600	-8.649800	29.827854	0.000238	20.848231
2232.626269	-3.007900	2.892200	-8.697200	29.781664	0.000237	20.847651
2233.629682	-3.012400	2.889500	-8.702600	29.723009	0.000237	20.856316
2234.627367	-2.995100	2.890200	-8.656100	29.615705	0.000238	20.824001
2235.629834	-2.964900	2.887800	-8.561400	29.572206	0.000238	20.830410
2236.629013	-2.998400	2.886200	-8.651800	29.544649	0.000238	20.828710
2237.628089	-2.983400	2.884200	-8.604200	29.561987	0.000237	20.833386
2238.626403	-2.993600	2.879800	-8.620400	29.527821	0.000239	20.848255
2239.630611	-2.995500	2.879200	-8.624100	29.562798	0.000237	20.854117
2240.630567	-2.999600	2.877000	-8.628400	29.534228	0.000237	20.836222
2241.631410	-2.986400	2.875800	-8.587400	29.557503	0.000237	20.855416
2242.633642	-2.987400	2.873400	-8.581500	29.555727	0.000238	20.845566
2243.629678	-2.997700	2.871400	-8.606400	29.594515	0.000239	20.845787
2244.633283	-2.997500	2.869500	-8.600200	29.621227	0.000236	20.826249
2245.625515	-3.027200	2.867100	-8.677800	29.604400	0.000236	20.838208
2246.629038	-3.010100	2.864800	-8.621100	29.603695	0.000238	20.850299
2247.629294	-3.011200	2.864400	-8.624100	29.620951	0.000239	20.846833
2248.627618	-3.012100	2.861100	-8.616100	29.651352	0.000237	20.840023
2249.626802	-2.985100	2.859600	-8.534300	29.697216	0.000237	20.856389
2250.629006	-3.006700	2.856900	-8.588700	29.730980	0.000237	20.837800
2251.629335	-2.998800	2.856900	-8.565800	29.746767	0.000236	20.857509
2252.631326	-2.991400	2.854000	-8.534600	29.773775	0.000235	20.817886
2253.630579	-2.960100	2.852300	-8.441200	29.760380	0.000237	20.838994
2254.628857	-3.022500	2.848400	-8.608700	29.786318	0.000237	20.833378
2255.630395	-2.971900	2.847400	-8.461100	29.767654	0.000238	20.833051
2256.633910	-3.001100	2.845000	-8.537600	29.710125	0.000236	20.814404
2257.631275	-2.982800	2.841900	-8.475000	29.692408	0.000238	20.825939
2258.633157	-3.022400	2.839300	-8.580800	29.726107	0.000235	20.835732
2259.627763	-3.005700	2.839100	-8.533100	29.770240	0.000236	20.834236
2260.642662	-2.971600	2.836200	-8.426600	29.779840	0.000237	20.818312
2261.635071	-3.017000	2.834000	-8.549100	29.744181	0.000238	20.834988
2262.634367	-2.982600	2.832700	-8.447600	29.706306	0.000236	20.836632
2263.635698	-3.029500	2.829700	-8.570900	29.676012	0.000236	20.824108
2264.639306	-3.037600	2.825300	-8.581500	29.663038	0.000237	20.831890
2265.636266	-3.035500	2.825100	-8.574300	29.649464	0.000236	20.817257
2266.636040	-3.012100	2.823100	-8.501800	29.634494	0.000235	20.824451
2267.633727	-3.001900	2.821700	-8.469000	29.608099	0.000234	20.812540
2268.637358	-3.014300	2.817800	-8.493200	29.601538	0.000237	20.824419
2269.635466	-2.974200	2.818300	-8.380700	29.595724	0.000235	20.827566
2270.644962	-2.990600	2.813100	-8.410900	29.616468	0.000234	20.803433
2271.636460	-3.005700	2.811300	-8.447800	29.686562	0.000234	20.824787
2272.632493	-3.018000	2.809500	-8.477600	29.743078	0.000235	20.809221
2273.639960	-3.017100	2.805500	-8.463000	29.810821	0.000235	20.827738
2274.636625	-2.998900	2.803600	-8.406300	29.791662	0.000234	20.810317
2275.638039	-3.016400	2.801300	-8.448900	29.741716	0.000235	20.800736
2276.638177	-2.996600	2.799400	-8.388000	29.674058	0.000234	20.813603
2277.638848	-3.007000	2.796400	-8.408100	29.654354	0.000236	20.819816
2278.636587	-2.972100	2.795400	-8.306600	29.606064	0.000235	20.819972
2279.640599	-2.982200	2.792200	-8.324800	29.557147	0.000234	20.807170
2280.634180	-2.997700	2.789100	-8.359700	29.499380	0.000236	20.825277
2281.634621	-2.998900	2.786100	-8.354200	29.502851	0.000234	20.814078
2282.640641	-3.023600	2.782500	-8.411800	29.539516	0.000234	20.805518
2283.638277	-2.971100	2.782000	-8.264800	29.602690	0.000235	20.801398
2284.641172	-2.994700	2.779100	-8.321400	29.654695	0.000235	20.810677
2285.638661	-2.983900	2.775800	-8.281200	29.671723	0.000237	20.813620
2286.639893	-3.034800	2.771500	-8.410000	29.635614	0.000235	20.790967
2287.637650	-3.005800	2.768700	-8.320900	29.643261	0.000233	20.798676
2288.638861	-2.987800	2.767300	-8.266900	29.686181	0.000235	20.804963
2289.639464	-2.993300	2.764500	-8.273400	29.708983	0.000234	20.808036
2290.636614	-2.988900	2.763000	-8.257000	29.766625	0.000234	20.801194
2291.637065	-2.997000	2.758200	-8.264100	29.787065	0.000237	20.799044
2292.638847	-3.006800	2.754600	-8.281400	29.747246	0.000235	20.805363
2293.644947	-2.994800	2.753700	-8.245600	29.735684	0.000234	20.784223
2294.643122	-2.989400	2.749400	-8.218100	29.789870	0.000234	20.793338
2295.642878	-3.007800	2.746500	-8.259300	29.826891	0.000234	20.794630
2296.641944	-3.018400	2.744100	-8.281600	29.905370	0.000235	20.804063
2297.643930	-3.015800	2.741300	-8.266200	29.954668	0.000235	20.816792
2298.644123	-3.025000	2.736100	-8.276100	29.946058	0.000235	20.791515
2299.641617	-3.020000	2.734000	-8.255000	30.004028	0.000235	20.812517
2300.639562	-3.014900	2.729800	-8.229100	30.026061	0.000233	20.799649
2301.641411	-3.024200	2.726000	-8.242300	30.065594	0.000234	20.789733
2302.640149	-3.038600	2.723000	-8.272700	30.066583	0.000234	20.775083
2303.643691	-2.997300	2.721800	-8.157400	30.061930	0.000234	20.781770
2304.644727	-3.020500	2.717000	-8.206100	30.108497	0.000235	20.788907
2305.653462	-2.990400	2.714500	-8.116300	30.137871	0.000236	20.799567
2306.645883	-3.046700	2.709000	-8.252000	30.139127	0.000234	20.808421
2307.641861	-2.982000	2.707700	-8.073200	30.129450	0.000233	20.804824
2308.649991	-3.000200	2.703300	-8.107700	30.143115	0.000232	20.798693
2309.644086	-3.003800	2.699300	-8.106100	30.133470	0.000234	20.786119
2310.640926	-3.008100	2.694800	-8.105600	30.140619	0.000232	20.791907
2311.649884	-2.995600	2.691600	-8.062300	30.102069	0.000233	20.804709
2312.651276	-2.985300	2.688500	-8.024900	30.011178	0.000234	20.799813
2313.642622	-3.015200	2.685100	-8.094400	29.971838	0.000231	20.799968
2314.641673	-3.029600	2.680000	-8.118000	29.984354	0.000231	20.803581
2315.645445	-2.985200	2.679400	-7.996100	29.999400	0.000233	20.790305
2316.642282	-3.002300	2.673700	-8.025900	29.993612	0.000233	20.783520
2317.642349	-3.035100	2.668500	-8.097900	30.040230	0.000232	20.805404
2318.645192	-3.041100	2.664700	-8.101900	30.030163	0.000231	20.794303
2319.644914	-3.022500	2.660800	-8.040600	30.059579	0.000232	20.778925
2320.642507	-2.999700	2.656900	-7.968900	30.044932	0.000229	20.785016
2321.649930	-3.006700	2.652300	-7.974100	30.114657	0.000232	20.778051
2322.647951	-3.010200	2.648700	-7.971900	30.109162	0.000232	20.803328
2323.644935	-3.005700	2.643600	-7.944800	30.131063	0.000233	20.781321
2324.647698	-2.989800	2.640100	-7.892400	30.137603	0.000232	20.778435
2325.647488	-3.002000	2.635700	-7.911200	30.203133	0.000233	20.785261
2326.649554	-2.999000	2.630900	-7.889000	30.236556	0.000231	20.826087
2327.649907	-2.964500	2.628900	-7.792400	30.189824	0.000232	20.805503
2328.650856	-3.015800	2.621300	-7.904500	30.096331	0.000232	20.765730
2329.651880	-3.002800	2.616400	-7.855000	30.113004	0.000231	20.782547
2330.647951	-3.018800	2.611300	-7.881000	30.089173	0.000233	20.764202
2331.646686	-3.021300	2.605300	-7.870000	30.090170	0.000231	20.781329
2332.649795	-3.007200	2.600800	-7.820400	30.064873	0.000233	20.787109
2333.650621	-3.004600	2.595900	-7.799000	30.097093	0.000231	20.749429
2334.646589	-3.010100	2.591800	-7.800200	30.102013	0.000231	20.778100
2335.650342	-2.980600	2.585400	-7.704300	30.057448	0.000232	20.774879
2336.650160	-2.977800	2.580800	-7.683900	30.052552	0.000232	20.758561
2337.652402	-3.009800	2.574100	-7.746700	30.048620	0.000231	20.771191
2338.651832	-3.008800	2.568500	-7.727500	30.068115	0.000233	20.755765
2339.655419	-3.023400	2.561400	-7.743500	30.140262	0.000232	20.788703
2340.652382	-3.006900	2.557100	-7.687700	30.153109	0.000231	20.778901
2341.651623	-3.020400	2.550900	-7.703600	30.157915	0.000233	20.765256
2342.649449	-3.001400	2.545700	-7.639700	30.107022	0.000232	20.779832
2343.648939	-2.982200	2.539800	-7.573200	30.071835	0.000233	20.781803
2344.661266	-2.999400	2.531200	-7.591600	30.056021	0.000233	20.769646
2345.649354	-2.989700	2.525500	-7.549500	30.038204	0.000231	20.760686
2346.653579	-2.992400	2.519000	-7.536200	30.048652	0.000232	20.763163
2347.650705	-2.995500	2.514300	-7.530900	30.050728	0.000231	20.784223
2348.659930	-3.007000	2.505700	-7.533000	30.020865	0.000231	20.781132
2349.652904	-3.021600	2.499600	-7.551400	30.072978	0.000233	20.782007
