LabVIEW Measurement	
Writer_Version	2
Reader_Version	2
Separator	Tab
Decimal_Separator	.
Multi_Headings	No
X_Columns	One
Time_Pref	Absolute
Operator	admin
Description	Clolumns are: time, Current, Voltage, Power, Battery Temp, and Chamber Temp
Date	2024/08/16
Time	13:06:06.104549407958984375
***End_of_Header***	
	
Channels	6						
Samples	1	1	1	1	1	1	
Date	2024/08/23	2024/08/23	2024/08/23	2024/08/23	2024/08/23	2024/08/23	
Time	17:54:34.8863306045532226562	17:54:34.8951005935668945312	17:54:34.9001550674438476563	17:54:34.8650345802307128906	17:54:34.8650345802307128906	17:54:34.8650345802307128906	
X_Dimension	Time	Time	Time	Time	Time	Time	
X0	0.0000000000000000E+0	0.0000000000000000E+0	0.0000000000000000E+0	0.0000000000000000E+0	0.0000000000000000E+0	0.0000000000000000E+0	
Delta_X	1.000000	1.000000	1.000000	1.000000	1.000000	1.000000	
***End_of_Header***							
X_Value	Untitled	Untitled 1	Untitled 2	Untitled 3	Untitled 4	Untitled 5	Comment
0.000000	-0.003026	4.111200	-0.012423	21.046885	0.000982	20.809835
0.999898	-2.998900	3.956200	-11.863000	21.021735	0.000980	20.832569
1.999003	-3.007100	3.948900	-11.873000	21.028247	0.000980	20.846194
2.998699	-2.994600	3.943600	-11.808000	21.028272	0.000980	20.835788
3.999046	-2.984500	3.939000	-11.755000	21.043642	0.000980	20.820815
5.000310	-3.005000	3.934200	-11.821000	21.045812	0.000979	20.845745
5.998556	-2.992800	3.933700	-11.769000	21.061132	0.000977	20.835938
7.002069	-2.996100	3.930500	-11.776000	21.024630	0.000978	20.830723
8.001188	-3.017600	3.927400	-11.850000	21.066072	0.000976	20.831396
8.999731	-2.986300	3.926900	-11.726000	21.045538	0.000977	20.847841
10.003438	-3.019600	3.922500	-11.843000	21.067594	0.000975	20.832444
10.999590	-2.997600	3.922700	-11.758000	21.059360	0.000976	20.855028
11.999703	-2.998300	3.919800	-11.751000	21.077748	0.000972	20.856351
13.000208	-2.987700	3.918000	-11.704000	21.089125	0.000973	20.847342
14.001866	-2.998300	3.916100	-11.741000	21.070662	0.000973	20.845945
15.003330	-3.013900	3.915300	-11.800000	21.068891	0.000971	20.843699
16.004390	-3.012900	3.914800	-11.794000	21.083362	0.000971	20.848216
17.002504	-3.019500	3.912200	-11.812000	21.093192	0.000970	20.849039
18.001184	-3.013900	3.912700	-11.792000	21.064824	0.000968	20.842002
19.002562	-3.018400	3.911300	-11.805000	21.085432	0.000969	20.857873
20.004050	-3.010900	3.911100	-11.775000	21.092393	0.000966	20.834491
21.004918	-3.000500	3.910000	-11.731000	21.094614	0.000966	20.843824
22.003778	-2.991600	3.909600	-11.695000	21.096460	0.000967	20.869851
23.005329	-2.992800	3.909100	-11.697000	21.097558	0.000965	20.861941
24.002914	-3.007000	3.907100	-11.747000	21.108760	0.000963	20.851809
25.002853	-2.992500	3.905900	-11.688000	21.127272	0.000962	20.854679
26.005241	-3.000800	3.907600	-11.725000	21.127396	0.000963	20.857174
27.005935	-3.008400	3.905100	-11.746000	21.131164	0.000962	20.853356
28.001541	-3.024000	3.902900	-11.800000	21.127122	0.000963	20.864012
29.002601	-2.978300	3.905600	-11.630000	21.131438	0.000961	20.851260
30.004639	-3.014500	3.902900	-11.764000	21.150748	0.000962	20.864411
31.005972	-2.989500	3.902500	-11.665000	21.139895	0.000961	20.863987
32.006180	-3.020300	3.901700	-11.782000	21.168136	0.000960	20.859520
33.003867	-2.995500	3.902000	-11.687000	21.150224	0.000961	20.863413
34.004720	-3.003100	3.902300	-11.718000	21.195853	0.000960	20.842676
35.003479	-2.994300	3.901500	-11.682000	21.173201	0.000959	20.868853
36.003339	-2.987800	3.902100	-11.656000	21.190065	0.000959	20.860593
37.005081	-3.019100	3.899400	-11.772000	21.190215	0.000959	20.871648
38.002831	-2.992900	3.899300	-11.668000	21.208351	0.000958	20.866557
39.006167	-3.005000	3.899100	-11.716000	21.196077	0.000960	20.877512
40.004039	-3.005300	3.896800	-11.710000	21.204559	0.000959	20.852808
41.004602	-3.002100	3.896800	-11.698000	21.212442	0.000959	20.863064
42.009427	-3.013500	3.896900	-11.742000	21.210596	0.000957	20.877811
43.003133	-3.008000	3.896500	-11.720000	21.233148	0.000955	20.865759
44.003969	-2.998400	3.895700	-11.680000	21.219652	0.000958	20.865060
45.010855	-2.985300	3.894400	-11.625000	21.227784	0.000957	20.869402
46.006312	-2.986800	3.894400	-11.631000	21.239684	0.000957	20.873245
47.009250	-3.005200	3.894500	-11.703000	21.245621	0.000956	20.886296
48.005001	-2.988400	3.894900	-11.637000	21.255649	0.000957	20.883052
49.007458	-2.994400	3.892800	-11.655000	21.277850	0.000955	20.885822
50.007439	-2.995600	3.894900	-11.665000	21.249837	0.000955	20.881030
51.007709	-3.008400	3.891900	-11.707000	21.255150	0.000957	20.866907
52.015333	-3.018000	3.891400	-11.743000	21.291246	0.000954	20.871249
53.008989	-2.984700	3.892700	-11.617000	21.259565	0.000954	20.872746
54.006752	-3.000500	3.891400	-11.675000	21.271889	0.000954	20.867531
55.007454	-3.019600	3.891200	-11.749000	21.281318	0.000955	20.862265
56.012511	-2.996200	3.890400	-11.655000	21.295362	0.000953	20.873944
57.009414	-2.980800	3.891600	-11.600000	21.312623	0.000953	20.863239
58.013230	-2.988400	3.891000	-11.627000	21.320805	0.000953	20.881380
59.008417	-2.993100	3.890300	-11.643000	21.326019	0.000953	20.882802
60.011820	-2.962700	3.890300	-11.524000	21.333502	0.000954	20.878910
61.009357	-3.003300	3.888900	-11.678000	21.351361	0.000950	20.849364
62.012526	-2.993100	3.889800	-11.642000	21.341459	0.000953	20.870276
63.015283	-2.994200	3.889900	-11.646000	21.354679	0.000951	20.875915
64.013458	-2.986100	3.889900	-11.614000	21.375332	0.000951	20.885672
65.012260	-3.008000	3.888300	-11.695000	21.381194	0.000950	20.892010
66.011239	-3.007600	3.887500	-11.691000	21.381119	0.000950	20.891936
67.013285	-3.001000	3.887900	-11.666000	21.383688	0.000950	20.883601
68.012168	-3.009800	3.885900	-11.694000	21.385434	0.000951	20.900045
69.019792	-2.997300	3.887500	-11.651000	21.403243	0.000949	20.874244
70.012696	-2.996900	3.887100	-11.649000	21.431802	0.000949	20.886221
71.015524	-3.000400	3.886200	-11.659000	21.404815	0.000949	20.902840
72.014953	-2.985000	3.887500	-11.602000	21.412547	0.000949	20.878810
73.013891	-3.007400	3.885700	-11.685000	21.452229	0.000947	20.877737
74.016769	-2.977200	3.887100	-11.572000	21.465473	0.000949	20.885298
75.016278	-2.990000	3.885600	-11.617000	21.450807	0.000948	20.904288
76.015443	-2.987500	3.886200	-11.609000	21.434396	0.000948	20.883127
77.015547	-3.017200	3.884100	-11.718000	21.466421	0.000946	20.883402
78.018898	-2.972000	3.884200	-11.543000	21.466870	0.000947	20.898549
79.016143	-2.991700	3.884800	-11.621000	21.464500	0.000947	20.890489
80.019737	-2.990000	3.884300	-11.613000	21.460684	0.000946	20.912273
81.019660	-2.978600	3.885100	-11.571000	21.477969	0.000947	20.882628
82.019371	-2.999600	3.883800	-11.649000	21.464102	0.000947	20.891038
83.031583	-3.015100	3.882200	-11.704000	21.489566	0.000946	20.883327
84.022637	-3.002300	3.883900	-11.659000	21.491586	0.000947	20.902891
85.026189	-2.992000	3.882000	-11.614000	21.504306	0.000948	20.892860
86.023645	-3.011400	3.881700	-11.688000	21.494305	0.000947	20.914619
87.026861	-3.003100	3.882400	-11.657000	21.502086	0.000947	20.890165
88.034973	-3.006700	3.882900	-11.673000	21.521465	0.000946	20.910976
89.026249	-2.988800	3.882800	-11.603000	21.527051	0.000947	20.921306
90.027526	-3.015000	3.881300	-11.701000	21.537850	0.000947	20.901294
91.024765	-3.021400	3.882200	-11.728000	21.517649	0.000946	20.910477
92.023860	-3.011700	3.881400	-11.689000	21.545881	0.000946	20.888468
93.023752	-2.987300	3.881400	-11.594000	21.551019	0.000946	20.903091
94.024459	-3.015800	3.880400	-11.700000	21.547178	0.000946	20.918687
95.026805	-2.995300	3.880700	-11.623000	21.568376	0.000946	20.894383
96.025780	-3.001700	3.880900	-11.649000	21.582317	0.000943	20.896479
97.025650	-2.984300	3.881200	-11.582000	21.586008	0.000946	20.905861
98.029806	-2.995400	3.881400	-11.626000	21.585684	0.000946	20.930190
99.033290	-3.000200	3.879700	-11.639000	21.593739	0.000947	20.912175
100.027808	-3.006800	3.878400	-11.661000	21.594413	0.000947	20.908581
101.029668	-3.003200	3.879700	-11.650000	21.607081	0.000946	20.913672
102.026597	-2.999900	3.878700	-11.634000	21.617829	0.000944	20.921582
103.027161	-3.020700	3.878400	-11.715000	21.622767	0.000947	20.909455
104.028134	-3.008100	3.879000	-11.667000	21.626359	0.000947	20.917315
105.029047	-2.999600	3.878100	-11.630000	21.634488	0.000948	20.916442
106.030180	-2.996000	3.877300	-11.615000	21.624339	0.000948	20.890641
107.033285	-3.015100	3.877600	-11.689000	21.625386	0.000947	20.902594
108.028820	-3.003700	3.878200	-11.648000	21.689225	0.000947	20.919063
109.031573	-3.008800	3.877700	-11.666000	21.671745	0.000946	20.895881
110.028790	-2.993800	3.879100	-11.612000	21.661745	0.000946	20.905788
111.029100	-3.002500	3.877000	-11.640000	21.697404	0.000947	20.895008
112.037145	-3.000700	3.877800	-11.636000	21.679351	0.000947	20.894484
113.031378	-2.979700	3.878300	-11.556000	21.675336	0.000946	20.893786
114.032516	-2.999700	3.878000	-11.632000	21.680997	0.000945	20.916518
115.032013	-3.017900	3.874900	-11.693000	21.693066	0.000948	20.896356
116.032015	-2.987600	3.875400	-11.577000	21.671546	0.000946	20.887149
117.033402	-3.018300	3.874700	-11.693000	21.692917	0.000947	20.903319
118.033326	-3.013500	3.875400	-11.678000	21.729722	0.000945	20.895583
119.042313	-3.003600	3.876400	-11.640000	21.700847	0.000948	20.900823
120.033318	-3.004900	3.875300	-11.644000	21.707953	0.000944	20.892289
121.033933	-3.016700	3.874300	-11.684000	21.734211	0.000947	20.880162
122.032862	-3.006600	3.875900	-11.651000	21.720571	0.000947	20.891641
123.034502	-3.018800	3.873800	-11.692000	21.758647	0.000948	20.901298
124.033319	-3.006200	3.875400	-11.649000	21.750693	0.000946	20.889071
125.035528	-2.960000	3.875500	-11.470000	21.731842	0.000947	20.883956
126.036247	-2.990300	3.875500	-11.589000	21.737926	0.000949	20.894312
127.035787	-2.987700	3.872900	-11.569000	21.715211	0.000948	20.874898
128.047217	-3.013400	3.872200	-11.668000	21.767350	0.000949	20.878242
129.036013	-3.017000	3.873300	-11.685000	21.758947	0.000950	20.911080
130.043087	-2.978300	3.874900	-11.540000	21.745582	0.000949	20.882534
131.034869	-3.018500	3.873300	-11.691000	21.770093	0.000949	20.895684
132.034997	-2.994700	3.874100	-11.601000	21.744535	0.000951	20.881486
133.041660	-3.005000	3.872900	-11.638000	21.790639	0.000950	20.874524
134.035289	-3.013500	3.871500	-11.665000	21.801834	0.000951	20.870556
135.037375	-3.007600	3.873100	-11.648000	21.808566	0.000951	20.883931
136.039461	-3.010300	3.872100	-11.655000	21.796473	0.000952	20.877993
137.040319	-3.010400	3.871500	-11.653000	21.811433	0.000952	20.881112
138.042251	-2.993400	3.871500	-11.587000	21.819263	0.000953	20.878517
139.038826	-3.013100	3.871900	-11.666000	21.800861	0.000953	20.868635
140.039834	-3.015900	3.871500	-11.675000	21.830632	0.000953	20.871404
141.039287	-2.977700	3.872700	-11.531000	21.821381	0.000952	20.864043
142.039802	-2.982400	3.871700	-11.546000	21.841228	0.000953	20.873001
143.039921	-3.020100	3.870800	-11.689000	21.854343	0.000952	20.879963
144.040939	-3.009400	3.869800	-11.645000	21.841428	0.000954	20.876994
145.043396	-3.006200	3.870200	-11.634000	21.843871	0.000955	20.858578
146.041823	-3.028600	3.869600	-11.718000	21.870773	0.000953	20.858952
147.042770	-3.011600	3.871400	-11.658000	21.854218	0.000954	20.862770
148.041423	-3.005800	3.871000	-11.635000	21.867781	0.000953	20.860699
149.042239	-3.000100	3.871000	-11.611000	21.846239	0.000952	20.873749
150.040538	-3.005500	3.870800	-11.633000	21.860700	0.000953	20.871628
151.042253	-3.003300	3.870200	-11.623000	21.850976	0.000953	20.885128
152.042810	-2.989100	3.869100	-11.564000	21.853644	0.000955	20.873574
153.042165	-3.016100	3.869500	-11.669000	21.883089	0.000955	20.876968
154.043562	-2.982300	3.871300	-11.545000	21.866932	0.000955	20.879289
155.041116	-3.017100	3.868600	-11.671000	21.872318	0.000955	20.850067
156.045341	-2.992800	3.868000	-11.574000	21.890094	0.000954	20.861696
157.042404	-3.002500	3.869500	-11.618000	21.906350	0.000954	20.862794
158.043429	-2.992800	3.867800	-11.575000	21.902211	0.000954	20.866711
159.042379	-2.995600	3.868500	-11.587000	21.917668	0.000954	20.867485
160.049969	-2.990500	3.867200	-11.563000	21.919912	0.000955	20.863093
161.043175	-3.005100	3.867300	-11.620000	21.897473	0.000954	20.861970
162.043839	-2.966900	3.869700	-11.479000	21.906474	0.000955	20.867660
163.041700	-3.005700	3.867200	-11.623000	21.925970	0.000956	20.857777
164.043408	-2.994400	3.867100	-11.577000	21.954491	0.000956	20.878739
165.044013	-2.988000	3.867100	-11.554000	21.924200	0.000956	20.856006
166.041126	-2.988800	3.865100	-11.551000	21.940978	0.000955	20.845300
167.042674	-2.987900	3.867300	-11.554000	21.950377	0.000955	20.860398
168.046933	-2.991800	3.865800	-11.565000	21.951050	0.000956	20.862494
169.048898	-2.980400	3.866900	-11.524000	21.964263	0.000955	20.862918
170.043801	-2.992500	3.867800	-11.573000	21.975956	0.000955	20.873199
171.044493	-2.986000	3.865500	-11.541000	21.964163	0.000953	20.850965
172.045853	-2.972300	3.867300	-11.494000	21.968476	0.000957	20.874721
173.049150	-2.999300	3.866600	-11.595000	21.994004	0.000956	20.860922
174.044405	-2.979500	3.865900	-11.517000	21.988470	0.000956	20.852063
175.046477	-3.001000	3.865900	-11.600000	22.011156	0.000955	20.841108
176.047758	-2.996000	3.865600	-11.580000	22.016865	0.000956	20.857253
177.046529	-2.989500	3.865000	-11.554000	21.993880	0.000956	20.874073
178.045784	-2.977200	3.865100	-11.505000	22.026263	0.000956	20.860024
179.047457	-2.988400	3.864500	-11.548000	22.036035	0.000958	20.863642
180.046733	-3.012300	3.863800	-11.639000	22.017962	0.000957	20.857878
181.050799	-2.995600	3.865200	-11.576000	22.038105	0.000958	20.843904
182.050318	-3.004900	3.863800	-11.609000	22.069938	0.000957	20.844952
183.049842	-3.000200	3.864100	-11.591000	22.056253	0.000959	20.857803
184.049224	-2.993000	3.862900	-11.560000	22.049273	0.000959	20.870255
185.049650	-2.997500	3.862900	-11.578000	22.066074	0.000959	20.849618
186.053763	-2.998900	3.864000	-11.586000	22.071160	0.000958	20.849020
187.053710	-3.015400	3.861800	-11.643000	22.065851	0.000959	20.848446
188.050613	-2.992900	3.864300	-11.564000	22.069266	0.000960	20.860873
189.051769	-3.009100	3.864100	-11.627000	22.072931	0.000961	20.837042
190.052351	-3.004100	3.862600	-11.603000	22.059196	0.000960	20.833724
191.052742	-3.007800	3.861500	-11.614000	22.071984	0.000960	20.867861
192.052911	-3.003100	3.861700	-11.596000	22.082304	0.000961	20.848322
193.053700	-2.995000	3.862700	-11.568000	22.088287	0.000962	20.838665
194.058506	-2.984700	3.861500	-11.525000	22.124232	0.000962	20.826762
195.053524	-2.997800	3.862400	-11.578000	22.132234	0.000962	20.831928
196.053878	-2.990600	3.861700	-11.547000	22.112517	0.000964	20.836844
197.059135	-2.993900	3.860100	-11.556000	22.138216	0.000965	20.851667
198.055247	-2.990800	3.861500	-11.547000	22.148137	0.000964	20.852117
199.056872	-2.973200	3.862000	-11.480000	22.148537	0.000967	20.828336
200.055534	-2.987600	3.861000	-11.534000	22.129842	0.000966	20.824318
201.055682	-2.981800	3.860600	-11.511000	22.133332	0.000966	20.834924
202.061057	-3.001500	3.860000	-11.584000	22.169500	0.000967	20.812340
203.059247	-3.014600	3.859000	-11.633000	22.156912	0.000967	20.816333
204.060007	-2.988000	3.859700	-11.532000	22.155816	0.000968	20.825666
205.058521	-3.020500	3.857100	-11.650000	22.185527	0.000969	20.826964
206.059388	-2.977300	3.858900	-11.488000	22.172342	0.000968	20.822772
207.062432	-2.987700	3.860800	-11.533000	22.185528	0.000969	20.819853
208.062097	-3.030100	3.857800	-11.688000	22.215238	0.000968	20.810245
209.059548	-2.991600	3.859200	-11.544000	22.182163	0.000970	20.821225
210.059594	-3.008700	3.858000	-11.606000	22.220398	0.000967	20.810670
211.061564	-3.000000	3.858200	-11.572000	22.197368	0.000970	20.815586
212.064329	-2.984400	3.858900	-11.516000	22.210504	0.000970	20.821625
213.063696	-3.003600	3.856700	-11.583000	22.230468	0.000970	20.823123
214.061237	-3.004900	3.857000	-11.589000	22.230419	0.000970	20.811694
215.067811	-2.993000	3.858000	-11.547000	22.233036	0.000970	20.805779
216.062181	-2.965000	3.858800	-11.440000	22.227827	0.000971	20.796297
217.061459	-2.992400	3.857500	-11.542000	22.218905	0.000970	20.821976
218.062210	-2.996000	3.857100	-11.555000	22.252179	0.000971	20.831110
219.062884	-2.996700	3.857400	-11.559000	22.246422	0.000973	20.831509
220.063116	-3.004700	3.856300	-11.586000	22.255993	0.000972	20.823549
221.063692	-3.001600	3.857100	-11.576000	22.273689	0.000973	20.803336
222.063002	-2.994600	3.855700	-11.545000	22.286699	0.000973	20.804983
223.066767	-2.994500	3.855600	-11.544000	22.285129	0.000974	20.808627
224.064249	-2.996100	3.856600	-11.554000	22.304818	0.000974	20.814591
225.061985	-3.001700	3.856200	-11.574000	22.302152	0.000974	20.819508
226.061487	-3.014600	3.855200	-11.621000	22.280369	0.000974	20.833732
227.061077	-3.022500	3.854500	-11.650000	22.293081	0.000975	20.819434
228.063067	-3.037200	3.853000	-11.700000	22.296595	0.000975	20.808254
229.066561	-2.988500	3.853900	-11.517000	22.285355	0.000975	20.798422
230.067896	-2.996700	3.855000	-11.551000	22.285380	0.000977	20.776636
231.064921	-2.983500	3.855300	-11.501000	22.296846	0.000976	20.791910
232.067499	-2.984700	3.855700	-11.507000	22.312722	0.000975	20.819660
233.095522	-2.974200	3.854500	-11.463000	22.327751	0.000976	20.777811
234.066881	-3.001900	3.854500	-11.570000	22.344772	0.000978	20.802916
235.082161	-3.009800	3.854400	-11.600000	22.334605	0.000979	20.803166
236.104769	-3.012600	3.853300	-11.608000	22.367402	0.000978	20.800920
237.090781	-3.002600	3.852600	-11.567000	22.355814	0.000979	20.798325
238.069855	-3.000000	3.852500	-11.556000	22.349384	0.000981	20.796629
239.089850	-2.999300	3.853200	-11.556000	22.348288	0.000978	20.782729
240.096915	-2.983500	3.854400	-11.498000	22.345498	0.000978	20.804590
241.097638	-2.996500	3.851200	-11.539000	22.344202	0.000980	20.801397
242.083063	-3.018800	3.852700	-11.629000	22.338570	0.000981	20.801447
243.091001	-2.991600	3.852800	-11.525000	22.339194	0.000983	20.790692
244.085141	-2.983800	3.852100	-11.493000	22.346072	0.000980	20.800898
245.084709	-2.999600	3.852000	-11.553000	22.368876	0.000984	20.800974
246.083374	-2.980400	3.854000	-11.486000	22.367780	0.000982	20.807937
247.087230	-3.004200	3.850600	-11.567000	22.361999	0.000984	20.820166
248.096350	-2.991400	3.850900	-11.518000	22.388416	0.000986	20.791617
249.072500	-2.984800	3.851600	-11.495000	22.387819	0.000984	20.794812
250.072685	-2.999900	3.852100	-11.555000	22.396042	0.000985	20.795461
251.075661	-3.004300	3.850600	-11.565000	22.406435	0.000983	20.812981
252.076396	-3.008300	3.850300	-11.581000	22.391408	0.000983	20.787028
253.070193	-3.034000	3.850100	-11.680000	22.391808	0.000985	20.771780
254.071279	-2.996200	3.850600	-11.536000	22.378899	0.000987	20.805795
255.072729	-2.994000	3.849200	-11.523000	22.394550	0.000988	20.799183
256.076654	-3.006500	3.849100	-11.572000	22.408681	0.000986	20.782987
257.073556	-2.992500	3.849300	-11.518000	22.415984	0.000987	20.767541
258.075361	-2.992000	3.849100	-11.515000	22.405044	0.000989	20.785509
259.072599	-3.015000	3.849200	-11.604000	22.417230	0.000989	20.808144
260.072392	-3.000000	3.848300	-11.543000	22.429092	0.000989	20.762176
261.073447	-2.990900	3.848400	-11.509000	22.443223	0.000990	20.788181
262.073398	-2.987100	3.848300	-11.494000	22.446936	0.000991	20.782891
263.075324	-3.041600	3.845800	-11.696000	22.450550	0.000989	20.779398
264.091058	-3.003800	3.848200	-11.559000	22.459546	0.000991	20.776078
265.094017	-2.979100	3.849300	-11.467000	22.475371	0.000992	20.770590
266.097302	-2.993300	3.848300	-11.518000	22.467298	0.000993	20.776255
267.094285	-3.022400	3.845500	-11.622000	22.476169	0.000992	20.768070
268.097618	-3.007200	3.847100	-11.568000	22.494535	0.000993	20.785041
269.078615	-2.995400	3.847500	-11.523000	22.486238	0.000994	20.776731
270.076677	-3.010600	3.847000	-11.581000	22.521174	0.000993	20.775683
271.077889	-2.984300	3.846300	-11.478000	22.522720	0.000994	20.769645
272.079590	-3.015100	3.846800	-11.597000	22.525436	0.000993	20.767149
273.077493	-3.006000	3.846100	-11.559000	22.514348	0.000993	20.762683
274.079326	-3.003700	3.844600	-11.548000	22.513277	0.000997	20.796698
275.079063	-2.995100	3.847300	-11.521000	22.516592	0.000995	20.751179
276.078559	-3.000400	3.848100	-11.544000	22.509142	0.000996	20.772168
277.087256	-3.028800	3.845000	-11.644000	22.523321	0.000995	20.755548
278.080592	-2.998900	3.845900	-11.531000	22.509691	0.000996	20.758967
279.078851	-3.008100	3.844000	-11.562000	22.511462	0.000998	20.759318
280.079093	-3.018900	3.844400	-11.605000	22.516644	0.000998	20.751706
281.079132	-3.012500	3.845000	-11.582000	22.521080	0.000999	20.771322
282.079164	-3.005000	3.843800	-11.550000	22.518739	0.000999	20.756649
283.085246	-2.990900	3.845100	-11.499000	22.558483	0.000999	20.758047
284.083568	-3.000100	3.844600	-11.532000	22.549463	0.001000	20.756599
285.087182	-2.999400	3.843700	-11.528000	22.546499	0.001001	20.775443
286.091375	-3.004900	3.844000	-11.549000	22.545503	0.001001	20.736986
287.086142	-2.994800	3.843300	-11.509000	22.542489	0.001001	20.754830
288.087708	-2.981000	3.843700	-11.457000	22.541642	0.001001	20.747818
289.083950	-3.007100	3.843100	-11.556000	22.540696	0.001001	20.744499
290.085439	-3.003800	3.843300	-11.544000	22.543736	0.001002	20.758450
291.087504	-3.013500	3.842900	-11.580000	22.547400	0.001003	20.763542
292.085780	-3.018900	3.841100	-11.595000	22.553505	0.001003	20.762544
293.085348	-2.986800	3.841800	-11.474000	22.563722	0.001004	20.751914
294.092680	-3.018400	3.841700	-11.595000	22.556870	0.001004	20.749793
295.092556	-2.993900	3.841600	-11.501000	22.569678	0.001004	20.726584
296.092008	-2.983800	3.841700	-11.462000	22.568034	0.001004	20.746276
297.089642	-2.994500	3.842600	-11.505000	22.580269	0.001006	20.714906
298.087468	-3.013200	3.840100	-11.569000	22.581864	0.001006	20.747325
299.089540	-2.981600	3.839900	-11.448000	22.603218	0.001006	20.734573
300.091422	-2.988400	3.841900	-11.480000	22.585877	0.001006	20.743757
301.089625	-2.981700	3.841100	-11.451000	22.606957	0.001006	20.736421
302.088131	-2.980200	3.840700	-11.445000	22.615803	0.001006	20.750497
303.102612	-2.996100	3.839000	-11.501000	22.616427	0.001007	20.736423
304.091951	-2.986700	3.839700	-11.467000	22.609550	0.001007	20.725742
305.092658	-3.023400	3.839200	-11.606000	22.619965	0.001008	20.717680
306.090429	-3.005700	3.839500	-11.539000	22.614236	0.001009	20.752721
307.097009	-3.005400	3.839300	-11.537000	22.625996	0.001008	20.725144
308.093288	-2.984400	3.840200	-11.460000	22.603772	0.001009	20.734179
309.092948	-3.012000	3.838400	-11.560000	22.607461	0.001009	20.741667
310.092870	-3.013600	3.837400	-11.563000	22.617004	0.001012	20.729414
311.090161	-3.004700	3.838000	-11.531000	22.604597	0.001011	20.747808
312.095824	-2.981200	3.838800	-11.443000	22.603751	0.001010	20.751229
313.093061	-2.999700	3.838700	-11.514000	22.608560	0.001014	20.740397
314.091645	-3.007600	3.836900	-11.538000	22.635495	0.001013	20.738927
315.095391	-3.002900	3.837800	-11.524000	22.646185	0.001012	20.746315
316.093193	-3.001000	3.836100	-11.511000	22.632060	0.001014	20.748762
317.092368	-2.992000	3.837600	-11.480000	22.666818	0.001013	20.720987
318.094773	-3.015300	3.836100	-11.566000	22.659543	0.001014	20.736934
319.097366	-2.980600	3.837800	-11.437000	22.651099	0.001016	20.736063
320.098360	-2.998500	3.835700	-11.500000	22.650477	0.001015	20.743976
321.096578	-2.978700	3.835800	-11.424000	22.661091	0.001015	20.724734
322.098284	-3.013000	3.835300	-11.555000	22.667098	0.001016	20.740709
323.095979	-2.985600	3.835100	-11.449000	22.654691	0.001017	20.723540
324.098586	-3.001800	3.835300	-11.511000	22.703126	0.001019	20.731277
325.100779	-3.024900	3.834200	-11.596000	22.684915	0.001017	20.721570
326.099977	-2.985400	3.836300	-11.452000	22.696302	0.001018	20.723967
327.099880	-2.998600	3.834900	-11.497000	22.709606	0.001018	20.728285
328.100135	-2.985000	3.835000	-11.446000	22.719598	0.001019	20.725017
329.100321	-3.008700	3.835500	-11.539000	22.736316	0.001020	20.726116
330.101454	-3.002000	3.834300	-11.509000	22.727149	0.001021	20.727839
331.103461	-3.003600	3.834900	-11.518000	22.751714	0.001019	20.733480
332.100661	-3.019300	3.834200	-11.576000	22.732957	0.001019	20.710423
333.104180	-3.015900	3.833100	-11.559000	22.745563	0.001022	20.716413
334.101736	-3.019200	3.832500	-11.570000	22.745266	0.001023	20.706631
335.101540	-3.006800	3.833600	-11.524000	22.774465	0.001023	20.720234
336.103221	-3.000200	3.833900	-11.500000	22.774591	0.001025	20.711825
337.105660	-2.987900	3.832300	-11.448000	22.788691	0.001025	20.703664
338.105116	-3.006300	3.831600	-11.518000	22.764503	0.001024	20.708831
339.103461	-3.022900	3.831500	-11.581000	22.771803	0.001024	20.725155
340.101832	-2.991900	3.833500	-11.469000	22.794798	0.001025	20.713575
341.104756	-3.003500	3.832900	-11.512000	22.793329	0.001025	20.715423
342.108130	-3.004300	3.831300	-11.509000	22.817544	0.001026	20.734466
343.103081	-3.011900	3.830900	-11.537000	22.813285	0.001027	20.714077
344.106680	-3.002400	3.831000	-11.501000	22.797417	0.001027	20.698180
345.104056	-2.997300	3.829700	-11.478000	22.775570	0.001027	20.727506
346.105818	-3.010400	3.830800	-11.531000	22.801603	0.001030	20.717548
347.110888	-2.968200	3.831700	-11.371000	22.795252	0.001028	20.699330
348.106331	-3.012000	3.829600	-11.535000	22.812791	0.001030	20.705047
349.110689	-2.985600	3.829600	-11.432000	22.826891	0.001029	20.711586
350.107452	-2.980700	3.829300	-11.412000	22.824625	0.001027	20.715954
351.108684	-3.000000	3.830200	-11.489000	22.839323	0.001030	20.717877
352.112867	-3.036700	3.829500	-11.627000	22.879877	0.001031	20.706347
353.107132	-2.994600	3.829400	-11.467000	22.867747	0.001030	20.729757
354.109594	-3.008400	3.828100	-11.515000	22.853524	0.001033	20.690375
355.109748	-3.008500	3.827400	-11.514000	22.892585	0.001033	20.711491
356.111143	-3.005100	3.828600	-11.504000	22.879732	0.001029	20.706675
357.112508	-2.986600	3.829200	-11.434000	22.887853	0.001032	20.713389
358.122212	-2.996700	3.828500	-11.472000	22.884815	0.001034	20.721726
359.109609	-3.015700	3.827600	-11.542000	22.893484	0.001034	20.714288
360.113468	-3.016100	3.828300	-11.545000	22.938421	0.001033	20.719006
361.113173	-3.022600	3.826900	-11.566000	22.910126	0.001033	20.713418
362.112351	-3.011100	3.825200	-11.516000	22.909903	0.001035	20.727894
363.118400	-3.014600	3.827300	-11.536000	22.911050	0.001035	20.713395
364.111965	-3.005700	3.826200	-11.500000	22.877747	0.001036	20.723654
365.115407	-3.003100	3.825900	-11.489000	22.863351	0.001036	20.713024
366.112833	-2.987300	3.827200	-11.432000	22.874512	0.001037	20.717093
367.112939	-3.000600	3.824700	-11.476000	22.886071	0.001038	20.718242
368.118772	-2.989500	3.825800	-11.437000	22.902438	0.001037	20.724208
369.115367	-2.996900	3.826200	-11.465000	22.895214	0.001039	20.721713
370.125298	-3.005900	3.824200	-11.493000	22.921969	0.001038	20.719593
371.113137	-2.992400	3.824500	-11.443000	22.921621	0.001041	20.718296
372.143508	-3.015000	3.824500	-11.529000	22.901819	0.001040	20.739710
373.130781	-2.977200	3.825100	-11.387000	22.912431	0.001042	20.701027
374.114650	-3.040300	3.821900	-11.619000	22.934924	0.001041	20.689422
375.118073	-3.022800	3.823600	-11.557000	22.909268	0.001043	20.736267
376.115855	-3.020200	3.823400	-11.547000	22.909992	0.001041	20.733673
377.119493	-3.017300	3.821900	-11.532000	22.917092	0.001043	20.720872
378.118568	-3.018600	3.822100	-11.537000	22.920405	0.001044	20.715656
379.124392	-3.022100	3.823000	-11.552000	22.944292	0.001045	20.736270
380.120935	-3.001400	3.822100	-11.471000	22.948329	0.001046	20.731305
381.138892	-3.017300	3.822000	-11.530000	22.949898	0.001046	20.725290
382.132404	-3.028000	3.821600	-11.570000	22.950945	0.001047	20.725865
383.121446	-2.991900	3.822200	-11.435000	22.961506	0.001046	20.724117
384.145906	-2.989800	3.822200	-11.426000	22.973785	0.001046	20.707022
385.148944	-3.001000	3.821800	-11.469000	22.993686	0.001047	20.706098
386.123821	-2.999700	3.821300	-11.462000	23.009005	0.001048	20.733302
387.137958	-3.002600	3.820500	-11.471000	23.016901	0.001048	20.726514
388.145498	-2.999700	3.820300	-11.458000	23.017199	0.001048	20.731555
389.149626	-3.026000	3.820300	-11.558000	23.040488	0.001048	20.737820
390.141558	-2.998900	3.821300	-11.459000	23.038919	0.001048	20.700210
391.143364	-2.979900	3.821400	-11.386000	23.054809	0.001047	20.734151
392.142658	-3.003200	3.819100	-11.468000	23.046838	0.001049	20.735174
393.143772	-2.999600	3.818900	-11.453000	23.052343	0.001050	20.730732
394.149200	-3.000300	3.821200	-11.464000	23.042805	0.001048	20.731607
395.141127	-2.966600	3.820600	-11.333000	23.041909	0.001051	20.739244
396.128892	-2.984500	3.819300	-11.398000	23.018273	0.001051	20.734528
397.127756	-3.011400	3.817400	-11.494000	23.071398	0.001051	20.733704
398.127068	-2.991500	3.818100	-11.420000	23.066666	0.001050	20.709046
399.130393	-2.971900	3.820200	-11.352000	23.060690	0.001052	20.744787
400.149673	-3.020400	3.817500	-11.530000	23.076604	0.001051	20.728963
401.148436	-3.025100	3.817800	-11.549000	23.068038	0.001053	20.731286
402.147367	-3.007000	3.817600	-11.478000	23.057179	0.001052	20.739372
403.148619	-3.026200	3.814600	-11.543000	23.084526	0.001053	20.738798
404.152516	-2.988000	3.817000	-11.405000	23.070880	0.001053	20.754523
405.149532	-3.017500	3.815900	-11.513000	23.088961	0.001054	20.725223
406.129526	-3.004800	3.816800	-11.468000	23.103930	0.001055	20.740224
407.148426	-3.022400	3.815900	-11.531000	23.106844	0.001054	20.730341
408.148465	-3.018100	3.814000	-11.510000	23.108289	0.001055	20.757394
409.152373	-2.997500	3.815900	-11.437000	23.122335	0.001055	20.740648
410.131969	-3.008100	3.815000	-11.475000	23.104555	0.001055	20.751756
411.134204	-2.987100	3.817100	-11.401000	23.143059	0.001055	20.745294
412.132699	-2.991400	3.815500	-11.412000	23.126771	0.001055	20.737507
413.133593	-3.003400	3.813900	-11.453000	23.110684	0.001056	20.742250
414.133532	-3.007800	3.815000	-11.473000	23.112626	0.001058	20.740403
415.134570	-3.002700	3.814300	-11.453000	23.148390	0.001057	20.756800
416.139206	-3.002000	3.814400	-11.450000	23.115492	0.001056	20.739480
417.135425	-3.020900	3.814900	-11.523000	23.150882	0.001059	20.739382
418.157022	-3.007600	3.813100	-11.467000	23.136264	0.001059	20.753658
419.133797	-2.991000	3.813400	-11.405000	23.132852	0.001059	20.775369
420.136294	-3.003900	3.812300	-11.451000	23.134547	0.001059	20.749092
421.136876	-2.991200	3.814100	-11.407000	23.123813	0.001061	20.737861
422.134631	-2.999700	3.812400	-11.435000	23.134896	0.001058	20.746123
423.149841	-3.010200	3.812700	-11.476000	23.119481	0.001058	20.743478
424.153451	-2.990700	3.812100	-11.399000	23.161196	0.001059	20.745925
425.136436	-2.984500	3.812200	-11.376000	23.178380	0.001060	20.733747
426.141798	-2.994500	3.811500	-11.413000	23.193546	0.001061	20.754635
427.136990	-2.975700	3.811500	-11.340000	23.187496	0.001059	20.766590
428.170645	-2.983400	3.810800	-11.368000	23.193149	0.001061	20.765617
429.151498	-2.984300	3.811000	-11.372000	23.230479	0.001062	20.757982
430.136215	-3.008300	3.809800	-11.459000	23.224029	0.001062	20.748198
431.139681	-3.010900	3.809700	-11.469000	23.212873	0.001063	20.763572
432.136845	-3.021400	3.809400	-11.508000	23.235958	0.001063	20.765843
433.153387	-3.007900	3.809900	-11.458000	23.210633	0.001063	20.753266
434.136376	-3.008400	3.808500	-11.457000	23.207348	0.001062	20.791227
435.159237	-2.998700	3.809100	-11.422000	23.235513	0.001066	20.754492
436.151738	-2.991500	3.809400	-11.395000	23.239348	0.001065	20.777302
437.157402	-3.012900	3.808600	-11.473000	23.249808	0.001064	20.755541
438.152708	-3.001800	3.809000	-11.432000	23.230484	0.001065	20.776953
439.154165	-2.995200	3.807300	-11.403000	23.229140	0.001064	20.763753
440.140288	-2.990300	3.807900	-11.385000	23.230685	0.001064	20.772413
441.137026	-2.997600	3.806200	-11.409000	23.236188	0.001066	20.763229
442.153860	-3.008200	3.807700	-11.454000	23.224460	0.001068	20.770916
443.152610	-2.998000	3.806900	-11.412000	23.216517	0.001066	20.760585
444.137486	-3.005500	3.806600	-11.440000	23.255191	0.001067	20.754298
445.162049	-3.005500	3.807100	-11.442000	23.241893	0.001066	20.761359
446.164972	-3.002200	3.804300	-11.420000	23.260023	0.001066	20.757244
447.155932	-3.002100	3.805100	-11.422000	23.234897	0.001068	20.760039
448.152935	-2.981500	3.806200	-11.348000	23.241174	0.001067	20.767751
449.154642	-3.012600	3.804600	-11.460000	23.262888	0.001069	20.770546
450.140397	-3.016500	3.806100	-11.479000	23.250612	0.001071	20.787641
451.144590	-3.031200	3.803800	-11.529000	23.235473	0.001069	20.769624
452.138831	-3.024800	3.804200	-11.505000	23.226533	0.001068	20.773942
453.160777	-3.021800	3.803400	-11.492000	23.249617	0.001069	20.769100
454.157611	-2.999900	3.804500	-11.411000	23.271305	0.001070	20.764757
455.159276	-2.991000	3.804200	-11.377000	23.278029	0.001070	20.778608
456.168869	-2.994000	3.803400	-11.386000	23.286522	0.001069	20.761989
457.143889	-3.001500	3.803900	-11.415000	23.313762	0.001070	20.768427
458.141330	-2.992300	3.802500	-11.378000	23.286424	0.001069	20.772323
459.142754	-2.997900	3.802400	-11.399000	23.297179	0.001071	20.784998
460.162920	-3.007200	3.802100	-11.433000	23.303504	0.001074	20.808407
461.163772	-2.989500	3.803600	-11.370000	23.363316	0.001071	20.759296
462.160850	-2.990400	3.801800	-11.367000	23.355197	0.001071	20.790515
463.173250	-3.007100	3.800900	-11.429000	23.363987	0.001071	20.784152
464.163206	-2.992700	3.801300	-11.375000	23.349199	0.001074	20.784977
465.169425	-3.002700	3.801400	-11.414000	23.353905	0.001072	20.793961
466.166221	-3.014300	3.800300	-11.453000	23.328981	0.001074	20.776093
467.168133	-2.982200	3.801100	-11.334000	23.325047	0.001073	20.781634
468.147209	-3.009200	3.800100	-11.435000	23.341308	0.001074	20.780861
469.147825	-3.007700	3.798900	-11.425000	23.346986	0.001074	20.773750
470.150647	-3.001400	3.798900	-11.401000	23.368921	0.001074	20.785303
471.148349	-2.973700	3.799600	-11.297000	23.382318	0.001073	20.774549
472.148274	-2.981600	3.800400	-11.329000	23.398305	0.001074	20.782986
473.152965	-2.992100	3.798600	-11.364000	23.384685	0.001075	20.803474
474.148700	-2.998600	3.798800	-11.391000	23.371839	0.001075	20.780641
475.150463	-3.003600	3.798900	-11.410000	23.371068	0.001076	20.770385
476.151278	-2.996900	3.796800	-11.378000	23.347437	0.001076	20.785582
477.156529	-2.985900	3.797800	-11.339000	23.373435	0.001076	20.786508
478.155541	-3.011600	3.796200	-11.431000	23.388498	0.001076	20.786907
479.154124	-2.997200	3.797300	-11.380000	23.404907	0.001075	20.814259
480.153235	-2.996100	3.796600	-11.374000	23.393206	0.001078	20.771711
481.153293	-2.992700	3.797300	-11.363000	23.405008	0.001078	20.799187
482.154584	-3.017200	3.796400	-11.454000	23.419201	0.001079	20.781645
483.158223	-3.002000	3.795400	-11.393000	23.394552	0.001080	20.778750
484.172361	-2.978100	3.797000	-11.306000	23.402895	0.001077	20.781422
485.174692	-2.997300	3.794100	-11.371000	23.411583	0.001080	20.790605
486.173433	-2.990700	3.795600	-11.351000	23.455104	0.001078	20.796295
487.181921	-3.013100	3.795300	-11.435000	23.423013	0.001079	20.798268
488.183594	-3.014200	3.793300	-11.432000	23.450997	0.001078	20.811618
489.180877	-3.013300	3.793400	-11.430000	23.453713	0.001079	20.793478
490.178973	-3.004900	3.793700	-11.400000	23.456228	0.001078	20.806905
491.179750	-2.982600	3.792900	-11.312000	23.475697	0.001079	20.796074
492.178075	-3.005100	3.792400	-11.395000	23.480901	0.001080	20.807453
493.176973	-2.996400	3.792800	-11.364000	23.494795	0.001079	20.794828
494.190030	-3.001500	3.792600	-11.382000	23.500072	0.001081	20.799643
495.182020	-2.991000	3.792500	-11.342000	23.504555	0.001081	20.806034
496.179837	-2.999700	3.791200	-11.371000	23.500845	0.001081	20.780978
497.180742	-3.006700	3.792400	-11.402000	23.494026	0.001082	20.819187
498.181680	-3.009700	3.791000	-11.408000	23.517204	0.001084	20.791212
499.176900	-2.981700	3.792000	-11.306000	23.516805	0.001083	20.808830
500.177558	-2.981500	3.791800	-11.304000	23.528533	0.001083	20.824379
501.185092	-3.008200	3.789800	-11.399000	23.533959	0.001083	20.830292
502.184353	-3.017100	3.789500	-11.431000	23.503785	0.001083	20.809530
503.182427	-3.015600	3.789200	-11.426000	23.504285	0.001083	20.801495
504.180573	-2.980300	3.790100	-11.294000	23.481430	0.001084	20.841648
505.160604	-2.982900	3.790000	-11.305000	23.501248	0.001084	20.803667
506.161727	-3.007200	3.788600	-11.391000	23.487679	0.001087	20.800023
507.160570	-3.008000	3.788100	-11.393000	23.499331	0.001084	20.804590
508.162831	-2.988300	3.789000	-11.322000	23.519596	0.001085	20.798352
509.160570	-2.995200	3.788000	-11.344000	23.534880	0.001085	20.810353
510.161826	-3.009000	3.788200	-11.397000	23.547155	0.001086	20.817916
511.161577	-3.004400	3.788200	-11.381000	23.558980	0.001086	20.805588
512.162482	-3.008100	3.787500	-11.392000	23.568863	0.001088	20.819763
513.179373	-3.011400	3.786700	-11.400000	23.604437	0.001086	20.802319
514.187240	-3.016700	3.788000	-11.427000	23.592411	0.001087	20.833885
515.187490	-2.998800	3.785900	-11.352000	23.600528	0.001086	20.849133
516.183524	-2.988900	3.787700	-11.320000	23.582007	0.001087	20.827723
517.185854	-2.998400	3.787100	-11.354000	23.534283	0.001087	20.814971
518.180499	-2.999000	3.786600	-11.355000	23.516034	0.001088	20.811851
519.183105	-2.991100	3.786200	-11.322000	23.533610	0.001087	20.828994
520.180264	-3.005500	3.786400	-11.379000	23.541851	0.001087	20.823031
521.183508	-2.992600	3.786300	-11.329000	23.536672	0.001088	20.850554
522.178963	-3.008200	3.783700	-11.380000	23.586013	0.001088	20.845962
523.180098	-3.003100	3.784800	-11.363000	23.593604	0.001088	20.827495
524.190144	-3.000200	3.782500	-11.348000	23.597661	0.001089	20.814966
525.181269	-2.998700	3.783000	-11.344000	23.595419	0.001090	20.847805
526.188314	-3.000200	3.783800	-11.351000	23.606148	0.001088	20.841492
527.181336	-3.007700	3.784000	-11.380000	23.620510	0.001090	20.840717
528.191995	-3.017100	3.781600	-11.408000	23.614287	0.001090	20.848702
529.196658	-3.016900	3.781600	-11.408000	23.618018	0.001087	20.841064
530.189769	-2.984500	3.782600	-11.288000	23.592901	0.001091	20.858083
531.186713	-2.992200	3.780800	-11.311000	23.598425	0.001089	20.851293
532.186229	-3.003500	3.782100	-11.359000	23.609899	0.001088	20.839563
533.182349	-2.980100	3.781800	-11.269000	23.626852	0.001089	20.861298
534.179728	-3.004000	3.781800	-11.359000	23.637081	0.001089	20.849268
535.181249	-3.015400	3.779900	-11.396000	23.624061	0.001092	20.830052
536.183134	-2.987400	3.781100	-11.295000	23.640763	0.001093	20.860071
537.181367	-2.982600	3.779000	-11.271000	23.632322	0.001089	20.853506
538.183134	-2.980400	3.781200	-11.269000	23.626771	0.001090	20.866432
539.187752	-3.011500	3.779200	-11.380000	23.648178	0.001090	20.840479
540.184217	-2.990800	3.779800	-11.303000	23.633590	0.001089	20.834863
541.167046	-2.989400	3.779300	-11.297000	23.648350	0.001088	20.865780
542.187368	-2.980600	3.779700	-11.265000	23.652704	0.001092	20.859240
543.170425	-3.013400	3.778600	-11.385000	23.644664	0.001092	20.865404
544.169170	-3.009900	3.777800	-11.370000	23.611032	0.001092	20.871043
545.168736	-2.993600	3.778000	-11.309000	23.587481	0.001089	20.880623
546.170291	-3.005800	3.777500	-11.353000	23.572519	0.001091	20.859462
547.191139	-3.001000	3.776600	-11.332000	23.564702	0.001090	20.863005
548.193464	-2.997500	3.777600	-11.323000	23.563108	0.001090	20.874682
549.189029	-2.976500	3.777900	-11.244000	23.571122	0.001091	20.880346
550.194539	-3.016700	3.775500	-11.387000	23.568781	0.001090	20.877525
551.187921	-2.989100	3.776800	-11.287000	23.573162	0.001093	20.867218
552.194619	-3.009300	3.774600	-11.356000	23.616128	0.001092	20.867617
553.201304	-3.025900	3.774200	-11.419000	23.634424	0.001093	20.868888
554.188592	-2.970500	3.776200	-11.217000	23.636488	0.001092	20.879966
555.193578	-2.997500	3.775500	-11.316000	23.658841	0.001094	20.881039
556.189834	-3.006100	3.775100	-11.348000	23.667527	0.001093	20.882160
557.197406	-3.000300	3.773700	-11.322000	23.684529	0.001095	20.888299
558.200544	-3.018200	3.774300	-11.391000	23.706680	0.001094	20.888222
559.190101	-2.995500	3.774200	-11.305000	23.704140	0.001095	20.888994
560.198791	-2.993500	3.772500	-11.290000	23.708371	0.001092	20.882331
561.172546	-2.998400	3.772500	-11.309000	23.694704	0.001094	20.879060
562.193852	-2.963800	3.774200	-11.184000	23.716807	0.001093	20.876564
563.194749	-3.022900	3.772600	-11.404000	23.701172	0.001094	20.876063
564.196534	-3.011600	3.771200	-11.355000	23.728030	0.001096	20.872170
565.203401	-3.015600	3.770600	-11.369000	23.729074	0.001095	20.891233
566.191368	-3.024500	3.769600	-11.400000	23.739602	0.001094	20.887089
567.195605	-2.999600	3.772200	-11.314000	23.752369	0.001093	20.906527
568.192264	-2.993600	3.771300	-11.289000	23.772804	0.001093	20.894774
569.206277	-2.977300	3.772000	-11.229000	23.776809	0.001095	20.906375
570.197700	-3.013500	3.770200	-11.360000	23.773821	0.001094	20.902905
571.195323	-2.991800	3.769900	-11.278000	23.782082	0.001094	20.901231
572.195615	-3.007500	3.769400	-11.336000	23.775164	0.001094	20.912311
573.175312	-2.984800	3.771100	-11.254000	23.775186	0.001094	20.893843
574.179108	-3.025400	3.769000	-11.402000	23.777301	0.001095	20.890749
575.177678	-3.001600	3.769300	-11.314000	23.784069	0.001094	20.897533
576.177804	-2.997500	3.769100	-11.297000	23.812666	0.001094	20.912929
577.179584	-3.010500	3.768800	-11.345000	23.807338	0.001096	20.923232
578.177084	-3.024300	3.767900	-11.394000	23.828094	0.001095	20.902795
579.199585	-2.989800	3.768000	-11.265000	23.840835	0.001096	20.920784
580.196162	-3.001700	3.766300	-11.303000	23.839192	0.001097	20.896853
581.203561	-2.996400	3.767100	-11.285000	23.837001	0.001096	20.922629
582.202895	-2.986400	3.768100	-11.252000	23.850288	0.001093	20.916987
583.197202	-3.016200	3.765700	-11.357000	23.847525	0.001095	20.913268
584.202138	-3.007100	3.766600	-11.326000	23.843865	0.001095	20.899169
585.196745	-2.991400	3.767000	-11.267000	23.837518	0.001095	20.920777
586.200893	-3.006900	3.765800	-11.322000	23.830423	0.001097	20.918879
587.200748	-3.007300	3.763900	-11.318000	23.821411	0.001097	20.915059
588.198151	-3.016200	3.765400	-11.356000	23.844083	0.001096	20.927834
589.184300	-2.995300	3.764200	-11.273000	23.825715	0.001096	20.928855
590.185969	-3.013100	3.763200	-11.338000	23.840870	0.001097	20.921767
591.180493	-2.980700	3.765900	-11.224000	23.845025	0.001096	20.929726
592.180758	-2.978300	3.764200	-11.209000	23.832156	0.001095	20.916823
593.181983	-2.993100	3.763000	-11.261000	23.822423	0.001096	20.939304
594.197054	-2.991500	3.763300	-11.257000	23.839942	0.001096	20.921785
595.214192	-3.002500	3.763100	-11.298000	23.853655	0.001095	20.935059
596.184605	-3.002500	3.761900	-11.294000	23.874708	0.001095	20.936729
597.181298	-2.969600	3.764700	-11.179000	23.871373	0.001093	20.931014
598.182252	-2.994400	3.761700	-11.263000	23.850640	0.001094	20.947207
599.182511	-2.980700	3.761800	-11.212000	23.873261	0.001096	20.928641
600.180657	-3.003200	3.760300	-11.292000	23.873832	0.001092	20.939170
601.182225	-2.995900	3.761000	-11.267000	23.893293	0.001095	20.925495
602.195887	-3.016100	3.759500	-11.338000	23.906408	0.001095	20.936273
603.202585	-2.989100	3.762600	-11.245000	23.919622	0.001094	20.918706
604.198601	-2.987800	3.760300	-11.234000	23.918451	0.001093	20.893826
605.201941	-2.998200	3.759500	-11.271000	23.900705	0.001094	20.930081
606.217773	-3.011200	3.759700	-11.320000	23.895154	0.001095	20.919301
607.184862	-2.990200	3.759700	-11.242000	23.901177	0.001093	20.918702
608.181779	-3.014000	3.757500	-11.324000	23.909638	0.001093	20.919125
609.181617	-3.017300	3.758800	-11.339000	23.944826	0.001093	20.913634
610.187725	-3.015600	3.757900	-11.331000	23.959932	0.001094	20.896542
611.182979	-2.997800	3.758900	-11.268000	23.891891	0.001093	20.891849
612.184391	-3.008800	3.757800	-11.306000	23.924443	0.001092	20.904576
613.183267	-3.002000	3.757600	-11.279000	23.915783	0.001092	20.906797
614.186702	-3.009200	3.756000	-11.301000	23.940692	0.001093	20.911386
615.183154	-3.014600	3.756100	-11.321000	23.919813	0.001093	20.937861
616.183698	-2.991800	3.757200	-11.240000	23.946516	0.001091	20.913432
617.188920	-2.988500	3.755700	-11.223000	23.929295	0.001091	20.909440
618.183183	-2.967700	3.758700	-11.154000	23.920410	0.001091	20.905747
619.188734	-2.985200	3.758100	-11.217000	23.935540	0.001092	20.920443
620.186964	-2.974900	3.756800	-11.174000	23.925908	0.001089	20.899882
621.186455	-2.973900	3.757700	-11.174000	23.915033	0.001091	20.925009
622.202735	-2.993200	3.754400	-11.237000	23.932404	0.001091	20.926307
623.209194	-2.997800	3.755900	-11.258000	23.903410	0.001093	20.928527
624.186461	-3.026900	3.753900	-11.361000	23.886562	0.001092	20.901677
625.185234	-2.995400	3.754000	-11.244000	23.864984	0.001093	20.886206
626.186996	-3.005300	3.753000	-11.278000	23.864013	0.001092	20.904672
627.207163	-3.000600	3.754700	-11.264000	23.874715	0.001090	20.893118
628.206492	-2.997300	3.753400	-11.249000	23.868419	0.001089	20.893443
629.214926	-2.986300	3.753300	-11.207000	23.911846	0.001090	20.890049
630.215292	-3.006900	3.752500	-11.282000	23.902240	0.001093	20.908390
631.210052	-3.001800	3.750600	-11.257000	23.910752	0.001090	20.905545
632.206961	-3.004800	3.753300	-11.277000	23.935589	0.001091	20.898209
633.212952	-3.019200	3.751300	-11.325000	23.943900	0.001090	20.908914
634.208020	-3.009600	3.751400	-11.289000	23.953383	0.001091	20.889975
635.209840	-3.002700	3.750200	-11.260000	23.975331	0.001090	20.888752
636.209516	-2.987600	3.751500	-11.206000	23.944573	0.001090	20.878770
637.220709	-3.000300	3.750000	-11.251000	23.986654	0.001090	20.869762
638.215380	-2.996900	3.749300	-11.235000	23.974387	0.001090	20.902976
639.207249	-2.992100	3.750400	-11.220000	23.980210	0.001092	20.896488
640.189760	-3.001600	3.748600	-11.251000	23.971948	0.001091	20.894842
641.204052	-3.004300	3.748900	-11.262000	23.993523	0.001089	20.902726
642.204817	-2.984800	3.749800	-11.192000	24.006563	0.001088	20.895889
643.215769	-2.991300	3.748400	-11.210000	24.007235	0.001091	20.890400
644.222681	-2.992000	3.749600	-11.218000	24.018260	0.001092	20.893395
645.212258	-2.988500	3.748600	-11.202000	24.001138	0.001090	20.894243
646.207264	-2.995900	3.749400	-11.232000	24.021644	0.001091	20.884462
647.211941	-2.996800	3.747400	-11.229000	24.054018	0.001093	20.881368
648.223958	-3.030100	3.745600	-11.349000	24.016717	0.001091	20.907494
649.207969	-2.993600	3.747400	-11.217000	23.996711	0.001089	20.880795
650.214293	-2.985500	3.747300	-11.186000	24.008209	0.001090	20.881420
651.213221	-3.000700	3.745100	-11.237000	23.971876	0.001092	20.875805
652.192003	-2.987300	3.748000	-11.196000	23.942238	0.001090	20.864576
653.191402	-2.982500	3.746200	-11.172000	23.917601	0.001089	20.876380
654.194833	-2.995300	3.746300	-11.221000	23.920662	0.001091	20.870915
655.192166	-2.987400	3.745700	-11.189000	23.914217	0.001089	20.882469
656.192267	-3.009600	3.745200	-11.270000	23.935520	0.001089	20.879175
657.193931	-2.993900	3.744800	-11.211000	23.955503	0.001091	20.876929
658.191395	-3.002300	3.744100	-11.240000	23.955628	0.001091	20.880374
659.191399	-2.981100	3.745100	-11.164000	23.987332	0.001089	20.887036
660.194793	-2.992900	3.743000	-11.200000	23.996989	0.001091	20.863057
661.192153	-3.047700	3.740800	-11.399000	24.010103	0.001091	20.875733
662.192828	-2.989700	3.743300	-11.191000	24.039367	0.001092	20.868097
663.204931	-3.011100	3.742300	-11.267000	24.030283	0.001089	20.865626
664.210650	-3.013100	3.742100	-11.274000	24.016075	0.001089	20.875085
665.210739	-2.986900	3.742300	-11.177000	23.996292	0.001089	20.859039
666.211308	-3.003500	3.741900	-11.238000	23.997015	0.001089	20.875884
667.222324	-3.004400	3.740700	-11.237000	24.012518	0.001090	20.880526
668.208302	-2.998200	3.741100	-11.216000	24.027722	0.001089	20.868273
669.207992	-3.013300	3.739700	-11.268000	24.029389	0.001090	20.848135
670.210577	-2.984100	3.740300	-11.159000	24.054473	0.001089	20.848635
671.213129	-3.014500	3.740300	-11.274000	24.045689	0.001090	20.857843
672.213244	-2.998000	3.740800	-11.214000	24.055544	0.001089	20.875786
673.209310	-2.984200	3.740900	-11.163000	24.063407	0.001086	20.840526
674.193290	-2.998100	3.740800	-11.214000	24.090182	0.001088	20.854575
675.191262	-2.980000	3.741300	-11.148000	24.063705	0.001088	20.855049
676.194130	-3.015000	3.737900	-11.269000	24.061690	0.001088	20.853028
677.193198	-3.009100	3.737700	-11.246000	24.061243	0.001086	20.876286
678.195048	-2.999800	3.738200	-11.212000	24.041136	0.001088	20.836683
679.193550	-2.981000	3.737800	-11.141000	24.023444	0.001088	20.832216
680.193487	-2.983700	3.737500	-11.150000	24.020035	0.001089	20.858668
681.195117	-2.986500	3.738400	-11.163000	23.991617	0.001087	20.829696
682.196463	-3.010600	3.737000	-11.249000	23.974322	0.001089	20.848862
683.195759	-2.998200	3.737700	-11.205000	23.960910	0.001090	20.851058
684.198691	-2.994400	3.737200	-11.190000	23.958048	0.001086	20.856723
685.197842	-3.008700	3.736500	-11.240000	23.966410	0.001087	20.841875
686.202947	-2.989100	3.736700	-11.168000	23.983107	0.001085	20.845818
687.198157	-2.988900	3.735800	-11.165000	23.974622	0.001086	20.850111
688.201227	-2.980200	3.735300	-11.131000	23.962379	0.001085	20.837359
689.197199	-3.030300	3.734200	-11.315000	23.966510	0.001086	20.871846
690.200032	-2.988000	3.735800	-11.161000	23.992615	0.001085	20.832120
691.198802	-2.983200	3.734000	-11.138000	23.989505	0.001086	20.834691
692.199108	-3.000500	3.733900	-11.202000	23.964845	0.001085	20.848841
693.202093	-3.014600	3.733100	-11.253000	23.964396	0.001088	20.838434
694.205220	-3.004800	3.733700	-11.218000	23.982912	0.001086	20.848941
695.199605	-3.004200	3.734600	-11.218000	23.992766	0.001085	20.820418
696.199584	-2.999600	3.734100	-11.200000	24.020164	0.001087	20.841255
697.204253	-3.011900	3.733000	-11.242000	24.032159	0.001088	20.829103
698.199721	-3.002400	3.733000	-11.207000	24.008544	0.001086	20.826283
699.200482	-3.004200	3.733400	-11.216000	24.034199	0.001086	20.832097
700.207228	-3.027400	3.730000	-11.291000	24.044477	0.001086	20.828179
701.200997	-2.960000	3.732800	-11.048000	24.031138	0.001086	20.824285
702.203976	-2.999900	3.732100	-11.195000	24.039997	0.001085	20.832695
703.203821	-2.995800	3.730800	-11.176000	24.038628	0.001086	20.826581
704.203156	-3.013100	3.730900	-11.240000	24.053234	0.001087	20.829850
705.203990	-3.025500	3.729600	-11.283000	24.046863	0.001086	20.835314
706.205964	-3.014500	3.730300	-11.244000	24.043802	0.001084	20.833667
707.202597	-2.985800	3.731400	-11.140000	24.057264	0.001086	20.811132
708.203918	-3.027900	3.729700	-11.290000	24.092822	0.001083	20.813602
709.205958	-3.014200	3.728600	-11.237000	24.076299	0.001083	20.828326
710.206517	-2.997800	3.729300	-11.179000	24.096179	0.001085	20.840676
711.203382	-3.014100	3.728800	-11.238000	24.053604	0.001085	20.847289
712.205425	-2.980900	3.729500	-11.117000	24.064278	0.001083	20.829546
713.204768	-3.020400	3.727700	-11.258000	24.067637	0.001084	20.836708
714.205034	-2.976100	3.729100	-11.097000	24.045788	0.001083	20.839451
715.209208	-2.970400	3.728800	-11.075000	24.050441	0.001082	20.809031
716.206558	-3.006100	3.727100	-11.203000	24.043399	0.001083	20.817616
717.207839	-3.010200	3.728300	-11.221000	24.066664	0.001082	20.815344
718.207488	-2.991700	3.727000	-11.149000	24.065818	0.001082	20.832512
719.207080	-2.988300	3.727900	-11.139000	24.074104	0.001083	20.830392
720.207726	-2.997100	3.726800	-11.169000	24.087714	0.001082	20.824126
721.208629	-3.009400	3.726600	-11.214000	24.080273	0.001081	20.799121
722.207013	-2.999200	3.725800	-11.174000	24.111974	0.001080	20.815741
723.207092	-3.020300	3.724000	-11.246000	24.082487	0.001082	20.816040
724.206894	-3.017200	3.724500	-11.237000	24.058001	0.001081	20.827044
725.209949	-3.008400	3.726100	-11.209000	24.039837	0.001083	20.823052
726.208494	-3.018900	3.724300	-11.242000	24.034313	0.001084	20.843116
727.210213	-3.004300	3.725000	-11.190000	24.050187	0.001081	20.822053
728.207244	-3.005500	3.725300	-11.195000	24.047052	0.001081	20.820805
729.207346	-3.004100	3.725000	-11.190000	24.031075	0.001080	20.825171
730.208745	-3.003300	3.723700	-11.182000	24.051630	0.001082	20.820180
731.207656	-3.027400	3.721400	-11.264000	24.074074	0.001079	20.825146
732.209691	-3.006400	3.724300	-11.195000	24.050136	0.001080	20.825320
733.210093	-3.020100	3.722500	-11.242000	24.046155	0.001079	20.824647
734.210833	-3.026900	3.721600	-11.263000	24.025327	0.001078	20.813716
735.219805	-2.991100	3.723400	-11.135000	24.002433	0.001079	20.821577
736.211594	-3.022600	3.721600	-11.247000	24.013754	0.001079	20.822499
737.209671	-2.997600	3.722300	-11.157000	23.994045	0.001076	20.796570
738.209544	-2.989800	3.721400	-11.125000	23.982350	0.001077	20.816136
739.210775	-3.012100	3.721400	-11.209000	23.997381	0.001078	20.820304
740.210302	-2.993000	3.721200	-11.137000	24.011440	0.001078	20.800738
741.211442	-2.985100	3.721100	-11.107000	24.013830	0.001078	20.809299
742.213204	-3.018800	3.719600	-11.228000	23.999795	0.001077	20.810396
743.212058	-3.004900	3.719100	-11.175000	23.989889	0.001078	20.820377
744.211988	-2.997000	3.719400	-11.146000	24.024182	0.001078	20.799292
745.212413	-3.009600	3.717900	-11.188000	24.051878	0.001077	20.821852
746.211237	-2.995200	3.719500	-11.139000	24.094676	0.001076	20.808825
747.212278	-3.001300	3.718900	-11.160000	24.108736	0.001079	20.825770
748.212902	-3.000400	3.719200	-11.158000	24.117842	0.001077	20.801238
749.211086	-3.005900	3.718700	-11.177000	24.114159	0.001077	20.809398
750.211700	-3.000200	3.719100	-11.157000	24.134041	0.001077	20.799941
751.214284	-2.974500	3.717400	-11.057000	24.147501	0.001079	20.812019
752.212320	-3.007000	3.717400	-11.177000	24.137473	0.001074	20.804806
753.212300	-3.008300	3.718500	-11.185000	24.135956	0.001075	20.793327
754.212578	-2.994100	3.718400	-11.132000	24.104380	0.001077	20.802436
755.217181	-2.982900	3.717900	-11.089000	24.099527	0.001074	20.797569
756.213204	-2.981900	3.718000	-11.085000	24.132571	0.001074	20.789458
757.219020	-2.996500	3.716800	-11.135000	24.121349	0.001075	20.800014
758.226010	-3.012400	3.715300	-11.191000	24.130231	0.001075	20.798017
759.213240	-2.995600	3.718100	-11.136000	24.106418	0.001075	20.787410
760.214807	-2.991000	3.716200	-11.114000	24.096067	0.001076	20.804530
761.219064	-2.989200	3.715600	-11.106000	24.106317	0.001075	20.798214
762.216311	-3.004700	3.714200	-11.158000	24.125327	0.001075	20.781718
763.216474	-3.008200	3.715000	-11.174000	24.115100	0.001072	20.809394
764.215965	-3.016700	3.713100	-11.201000	24.145456	0.001074	20.785312
765.222612	-2.981200	3.715000	-11.074000	24.128137	0.001076	20.815831
766.216793	-3.000700	3.715200	-11.147000	24.156004	0.001071	20.791150
767.215518	-3.002900	3.713200	-11.149000	24.159660	0.001070	20.785334
768.220597	-2.993700	3.713400	-11.116000	24.157844	0.001071	20.811961
769.217228	-3.000600	3.712300	-11.138000	24.198574	0.001070	20.794492
770.223073	-2.990100	3.713000	-11.101000	24.180908	0.001070	20.796688
771.217878	-3.017500	3.711800	-11.199000	24.169561	0.001071	20.784833
772.221352	-3.006900	3.712300	-11.161000	24.139131	0.001069	20.799831
773.218569	-2.984800	3.713600	-11.083000	24.166177	0.001070	20.795189
774.224379	-3.018900	3.711700	-11.205000	24.159507	0.001068	20.789922
775.222061	-2.992100	3.711600	-11.104000	24.129824	0.001069	20.767262
776.218741	-2.997500	3.711500	-11.124000	24.146321	0.001070	20.798981
777.221714	-3.000800	3.710600	-11.134000	24.143882	0.001069	20.800803
778.217466	-2.980500	3.710900	-11.059000	24.156895	0.001066	20.792043
779.219604	-3.000300	3.710200	-11.131000	24.177198	0.001067	20.795812
780.219326	-2.993800	3.709500	-11.104000	24.177794	0.001068	20.791194
781.222780	-3.004800	3.710300	-11.148000	24.188816	0.001069	20.808413
782.220314	-2.977500	3.709600	-11.044000	24.197798	0.001066	20.798930
783.222456	-2.996000	3.708900	-11.111000	24.220040	0.001065	20.793739
784.222951	-2.963300	3.710400	-10.994000	24.231635	0.001068	20.796360
785.217742	-2.987900	3.708200	-11.078000	24.235988	0.001065	20.781760
786.218968	-2.994700	3.709300	-11.107000	24.260320	0.001064	20.787675
787.219386	-2.973000	3.709700	-11.027000	24.239845	0.001067	20.791792
788.226255	-3.013200	3.707600	-11.170000	24.294180	0.001064	20.788923
789.219122	-2.997000	3.708500	-11.113000	24.229893	0.001065	20.780862
790.225676	-3.004700	3.707000	-11.136000	24.238850	0.001064	20.777992
791.224219	-2.996700	3.707800	-11.111000	24.247035	0.001066	20.774822
792.220001	-3.005900	3.707800	-11.144000	24.232355	0.001063	20.773848
793.224854	-2.999100	3.707200	-11.117000	24.231061	0.001064	20.777766
794.221716	-3.004000	3.705800	-11.131000	24.228025	0.001063	20.772824
795.223945	-3.013900	3.705100	-11.166000	24.214316	0.001064	20.785153
796.224031	-2.989300	3.706100	-11.076000	24.201105	0.001065	20.775694
797.221841	-3.014800	3.705100	-11.169000	24.186723	0.001065	20.770278
798.222311	-3.012300	3.705400	-11.161000	24.191973	0.001064	20.804467
799.224298	-3.015600	3.704500	-11.171000	24.211777	0.001064	20.785925
800.223327	-3.004000	3.704900	-11.128000	24.214264	0.001064	20.775143
801.222990	-2.986500	3.705200	-11.064000	24.236656	0.001062	20.785749
802.225678	-2.970600	3.705900	-11.006000	24.277880	0.001065	20.779684
803.225009	-2.987900	3.705400	-11.071000	24.273949	0.001063	20.797078
804.226007	-3.002200	3.704000	-11.120000	24.282605	0.001063	20.792959
805.225189	-2.981700	3.703700	-11.042000	24.326614	0.001061	20.765982
806.225557	-3.013100	3.703000	-11.157000	24.304845	0.001059	20.795354
807.226467	-2.980500	3.701900	-11.032000	24.328826	0.001062	20.788116
808.230398	-3.004700	3.702300	-11.123000	24.343330	0.001061	20.775164
809.226734	-2.995200	3.703200	-11.090000	24.335319	0.001060	20.760490
810.226439	-2.978800	3.702600	-11.029000	24.338627	0.001059	20.770446
811.229665	-2.991000	3.703600	-11.076000	24.353130	0.001061	20.780253
812.226583	-3.007000	3.700800	-11.127000	24.363677	0.001060	20.783722
813.225971	-2.983700	3.703300	-11.049000	24.369896	0.001058	20.780478
814.230179	-2.997500	3.702600	-11.098000	24.371537	0.001060	20.754622
815.228619	-3.021800	3.699700	-11.179000	24.379223	0.001059	20.777980
816.229837	-3.002200	3.699900	-11.107000	24.374994	0.001059	20.766151
817.234139	-3.008500	3.700400	-11.132000	24.332131	0.001061	20.772938
818.228434	-2.981300	3.700400	-11.030000	24.333997	0.001058	20.770069
819.229524	-2.977600	3.701000	-11.020000	24.299789	0.001060	20.751875
820.233137	-3.009200	3.699300	-11.131000	24.313123	0.001059	20.778053
821.229010	-3.007200	3.698600	-11.121000	24.285234	0.001058	20.774733
822.229785	-2.999900	3.699000	-11.096000	24.274387	0.001057	20.761956
823.229679	-2.989400	3.700400	-11.061000	24.290981	0.001058	20.771489
824.229854	-3.014200	3.698100	-11.146000	24.300683	0.001057	20.789282
825.233229	-2.994200	3.698600	-11.073000	24.302026	0.001057	20.754592
826.227511	-3.004900	3.695600	-11.102000	24.291502	0.001055	20.749251
827.247016	-2.989700	3.697900	-11.055000	24.282918	0.001054	20.783316
828.229993	-2.976000	3.698600	-11.005000	24.295034	0.001055	20.790728
829.230749	-2.992900	3.696400	-11.061000	24.331653	0.001054	20.775304
830.229558	-2.995700	3.696800	-11.074000	24.302571	0.001053	20.770313
831.236180	-2.990600	3.697300	-11.056000	24.295431	0.001052	20.776902
832.229761	-2.974800	3.697500	-10.998000	24.325632	0.001054	20.787283
833.231570	-2.973600	3.696700	-10.992000	24.338991	0.001052	20.776501
834.233440	-3.018400	3.695600	-11.154000	24.311974	0.001051	20.783539
835.232357	-3.016000	3.694700	-11.141000	24.292694	0.001053	20.785061
836.232681	-3.014000	3.694900	-11.135000	24.292370	0.001052	20.790426
837.231810	-3.008500	3.694600	-11.114000	24.315731	0.001052	20.779721
838.245646	-2.999600	3.696200	-11.086000	24.296973	0.001051	20.785086
839.232037	-3.017700	3.693300	-11.143000	24.338991	0.001050	20.778872
840.232795	-2.999300	3.693300	-11.075000	24.352872	0.001049	20.781417
841.235062	-3.011600	3.694100	-11.124000	24.360584	0.001050	20.789153
842.233994	-3.000300	3.693600	-11.080000	24.362873	0.001051	20.754939
843.233959	-3.010200	3.692400	-11.114000	24.399889	0.001050	20.766944
844.231974	-3.021300	3.692900	-11.157000	24.367103	0.001050	20.786210
845.232108	-3.009300	3.692000	-11.110000	24.364840	0.001050	20.774457
846.230901	-3.003700	3.692200	-11.090000	24.344192	0.001049	20.767494
847.232903	-3.012500	3.690500	-11.116000	24.355511	0.001050	20.765098
848.233174	-3.011000	3.691400	-11.113000	24.336232	0.001047	20.760931
849.232322	-3.011600	3.692200	-11.119000	24.314689	0.001047	20.776304
850.234562	-2.995300	3.691200	-11.056000	24.322599	0.001047	20.780921
851.234365	-3.013200	3.691500	-11.122000	24.310734	0.001048	20.773286
852.234978	-2.996100	3.692500	-11.062000	24.306107	0.001050	20.759160
853.235092	-3.016900	3.690300	-11.133000	24.310112	0.001050	20.781197
854.233188	-2.986700	3.691900	-11.025000	24.321880	0.001048	20.756017
855.233937	-2.994700	3.689700	-11.049000	24.338971	0.001047	20.784542
856.237288	-2.989800	3.690900	-11.034000	24.336185	0.001046	20.779850
857.233761	-3.008100	3.688800	-11.096000	24.332727	0.001045	20.746983
858.234620	-2.995200	3.689800	-11.051000	24.293296	0.001045	20.779975
859.236232	-3.007300	3.689200	-11.094000	24.312478	0.001047	20.768871
860.234332	-2.979300	3.689600	-10.991000	24.311980	0.001046	20.760311
861.233300	-3.014200	3.687900	-11.115000	24.332978	0.001045	20.781374
862.235144	-2.976200	3.689600	-10.980000	24.321459	0.001046	20.770294
863.236272	-3.012300	3.687000	-11.106000	24.336137	0.001047	20.788812
864.240428	-3.012800	3.688600	-11.113000	24.314022	0.001045	20.768049
865.237549	-2.987300	3.688000	-11.016000	24.338525	0.001045	20.771767
866.238588	-3.019100	3.686900	-11.130000	24.351288	0.001045	20.783147
867.241923	-2.989800	3.689100	-11.029000	24.343874	0.001043	20.796099
868.240338	-2.995700	3.687200	-11.043000	24.361612	0.001045	20.784495
869.241315	-2.998200	3.687300	-11.054000	24.356115	0.001044	20.759540
870.241220	-2.998100	3.687300	-11.053000	24.368603	0.001040	20.764956
871.241012	-2.993900	3.687400	-11.039000	24.412112	0.001043	20.774939
872.240012	-3.009700	3.685800	-11.092000	24.389525	0.001042	20.786418
873.241874	-2.989100	3.686500	-11.018000	24.417883	0.001041	20.775038
874.239510	-3.003200	3.686800	-11.071000	24.406689	0.001041	20.785620
875.246641	-3.009000	3.686100	-11.090000	24.428555	0.001041	20.796651
876.255416	-2.991900	3.686100	-11.027000	24.426988	0.001041	20.773741
877.251723	-3.004700	3.683900	-11.069000	24.444774	0.001040	20.776412
878.247198	-3.013700	3.683800	-11.101000	24.458455	0.001040	20.765007
879.255711	-3.010500	3.683700	-11.089000	24.474574	0.001040	20.777386
880.244085	-3.007300	3.684400	-11.079000	24.481814	0.001039	20.779908
881.245924	-3.016200	3.682500	-11.106000	24.463107	0.001039	20.785796
882.249674	-2.970200	3.683900	-10.941000	24.462362	0.001039	20.785049
883.246197	-3.014200	3.681600	-11.096000	24.458134	0.001039	20.768952
884.247911	-2.997100	3.681600	-11.033000	24.467063	0.001040	20.763687
885.248869	-2.992200	3.681200	-11.013000	24.490272	0.001038	20.765634
886.246912	-2.987600	3.681700	-10.999000	24.491266	0.001040	20.773744
887.245989	-3.005100	3.680900	-11.060000	24.509797	0.001037	20.798975
888.246597	-2.991200	3.682300	-11.013000	24.510221	0.001038	20.768579
889.246025	-3.006300	3.682200	-11.069000	24.541560	0.001039	20.814248
890.248006	-2.979100	3.682800	-10.970000	24.538452	0.001037	20.780784
891.246480	-2.981900	3.681300	-10.976000	24.563200	0.001035	20.772423
892.246786	-2.993300	3.680100	-11.015000	24.567876	0.001035	20.799875
893.250360	-2.996000	3.681700	-11.028000	24.560341	0.001035	20.776667
894.246688	-2.995400	3.679800	-11.021000	24.559371	0.001035	20.788970
895.247310	-2.973000	3.680400	-10.941000	24.549497	0.001034	20.784279
896.252786	-3.005300	3.679500	-11.057000	24.570440	0.001036	20.783007
897.248863	-2.992400	3.680600	-11.013000	24.556736	0.001035	20.796758
898.252048	-3.024800	3.678500	-11.126000	24.523108	0.001035	20.805692
899.247612	-3.018200	3.677800	-11.099000	24.516020	0.001034	20.785304
900.250500	-3.010000	3.678500	-11.070000	24.476448	0.001033	20.771205
901.248201	-3.007800	3.677500	-11.061000	24.430131	0.001032	20.797758
902.251172	-3.014600	3.678300	-11.087000	24.447720	0.001031	20.800230
903.251470	-3.003400	3.679600	-11.050000	24.462992	0.001035	20.785681
904.252719	-3.003700	3.677300	-11.045000	24.460207	0.001033	20.787154
905.250082	-3.004200	3.677500	-11.047000	24.447372	0.001031	20.792769
906.249393	-3.011700	3.676900	-11.072000	24.424936	0.001031	20.792072
907.247674	-3.021900	3.675200	-11.104000	24.409638	0.001030	20.778147
908.253792	-2.994700	3.677300	-11.011000	24.415784	0.001032	20.789528
909.252004	-3.001300	3.675800	-11.031000	24.435958	0.001029	20.795069
910.250604	-3.005000	3.676000	-11.045000	24.433994	0.001031	20.786934
911.251698	-3.003200	3.676100	-11.039000	24.425836	0.001031	20.785862
912.248853	-2.988500	3.676500	-10.986000	24.442478	0.001029	20.806351
913.248981	-3.019600	3.674200	-11.093000	24.444494	0.001030	20.801261
914.252901	-2.993600	3.674700	-11.000000	24.471757	0.001031	20.806328
915.250457	-2.999700	3.674500	-11.021000	24.460390	0.001030	20.801562
916.249647	-3.027200	3.673300	-11.118000	24.474567	0.001030	20.784491
917.257065	-3.015700	3.675100	-11.082000	24.465416	0.001029	20.789060
918.249690	-3.000800	3.673600	-11.022000	24.472679	0.001030	20.778330
919.253629	-3.010900	3.673000	-11.058000	24.460617	0.001028	20.806531
920.258514	-3.012200	3.673300	-11.064000	24.453105	0.001028	20.794253
921.258189	-3.006500	3.672900	-11.040000	24.439448	0.001028	20.794303
922.253932	-3.004700	3.674100	-11.038000	24.460369	0.001028	20.790161
923.254416	-3.011400	3.673100	-11.060000	24.488701	0.001027	20.795827
924.256496	-3.000200	3.672000	-11.015000	24.486438	0.001026	20.780280
925.252850	-3.007200	3.672600	-11.043000	24.499620	0.001028	20.796351
926.254999	-2.980400	3.673200	-10.946000	24.523948	0.001026	20.780930
927.254155	-3.008900	3.672100	-11.048000	24.554716	0.001026	20.799947
928.253975	-3.006300	3.672300	-11.039000	24.554839	0.001026	20.802915
929.255165	-2.987800	3.672900	-10.973000	24.567799	0.001026	20.802642
930.254960	-3.005100	3.672000	-11.034000	24.606597	0.001026	20.814545
931.256021	-2.998700	3.671400	-11.008000	24.612743	0.001025	20.819288
932.260295	-3.013000	3.669800	-11.057000	24.641865	0.001025	20.786871
933.256260	-2.998500	3.671300	-11.006000	24.613015	0.001022	20.802492
934.258012	-3.005900	3.670800	-11.031000	24.590358	0.001025	20.784500
935.257879	-2.990200	3.669500	-10.972000	24.550662	0.001022	20.791612
936.255954	-2.980300	3.670200	-10.937000	24.575285	0.001025	20.808731
937.257497	-2.989800	3.669100	-10.968000	24.602892	0.001022	20.821259
938.258850	-2.998800	3.669400	-11.002000	24.591776	0.001024	20.814371
939.260145	-2.992300	3.667400	-10.973000	24.589388	0.001020	20.819088
940.260125	-2.989300	3.669500	-10.969000	24.602569	0.001023	20.785372
941.259794	-2.974600	3.667900	-10.909000	24.604709	0.001022	20.823555
942.259417	-2.987500	3.669000	-10.960000	24.626372	0.001021	20.804515
943.263730	-2.998300	3.667800	-10.996000	24.646716	0.001020	20.794583
944.262802	-3.018100	3.666600	-11.065000	24.618463	0.001021	20.808433
945.262210	-3.007900	3.666700	-11.028000	24.583669	0.001021	20.791064
946.263070	-2.983500	3.666900	-10.938000	24.563523	0.001019	20.803093
947.261661	-2.993600	3.667200	-10.976000	24.585261	0.001020	20.807835
948.262313	-2.997300	3.666000	-10.986000	24.586629	0.001019	20.824380
949.262323	-3.009000	3.666400	-11.031000	24.603864	0.001021	20.803268
950.262590	-2.992100	3.665600	-10.967000	24.618042	0.001020	20.813700
951.263181	-2.983000	3.666000	-10.935000	24.631870	0.001020	20.801497
952.270392	-2.984100	3.665600	-10.937000	24.633659	0.001019	20.813724
953.266171	-3.002700	3.664600	-11.002000	24.618539	0.001019	20.829846
954.263159	-2.986600	3.664200	-10.943000	24.619409	0.001020	20.815546
955.261884	-2.985100	3.665000	-10.939000	24.602598	0.001020	20.819540
956.269300	-3.002800	3.663500	-10.998000	24.602919	0.001018	20.809906
957.268275	-2.982100	3.664300	-10.927000	24.592150	0.001019	20.823282
958.266798	-3.008600	3.664300	-11.023000	24.573695	0.001019	20.829420
959.266194	-3.005100	3.663600	-11.009000	24.611624	0.001017	20.799674
960.265829	-2.978100	3.662700	-10.907000	24.621571	0.001015	20.821034
961.268322	-2.987800	3.662200	-10.941000	24.615104	0.001018	20.832089
962.271693	-2.955200	3.664600	-10.828000	24.591103	0.001017	20.815594
963.269638	-2.985700	3.663500	-10.937000	24.595505	0.001019	20.826174
964.267608	-2.979200	3.663200	-10.913000	24.643182	0.001019	20.841770
965.273100	-2.989400	3.662000	-10.947000	24.643529	0.001018	20.838326
966.269953	-3.034500	3.662100	-11.111000	24.660589	0.001017	20.831262
967.274241	-2.998100	3.663500	-10.982000	24.666159	0.001017	20.814093
968.272810	-3.008900	3.660600	-11.011000	24.669466	0.001015	20.827842
969.275599	-3.016300	3.660700	-11.041000	24.676976	0.001017	20.833481
970.270696	-2.978800	3.661800	-10.905000	24.657576	0.001016	20.824921
971.271398	-2.985300	3.661800	-10.931000	24.670060	0.001017	20.829386
972.273175	-3.012600	3.660700	-11.028000	24.670607	0.001016	20.838944
973.272723	-3.018400	3.659100	-11.044000	24.645588	0.001015	20.833279
974.273603	-3.021100	3.658700	-11.052000	24.636806	0.001016	20.848175
975.274177	-3.000300	3.660900	-10.983000	24.636010	0.001015	20.819876
976.275225	-3.012900	3.658800	-11.023000	24.610143	0.001014	20.836119
977.273021	-2.988700	3.659200	-10.935000	24.619021	0.001015	20.835070
978.275367	-2.994800	3.660200	-10.960000	24.625437	0.001012	20.826336
979.274431	-3.015200	3.658200	-11.029000	24.614368	0.001014	20.843204
980.276676	-3.029300	3.657200	-11.078000	24.652369	0.001012	20.845299
981.274132	-3.006600	3.658400	-10.998000	24.662539	0.001014	20.873046
982.280005	-2.988500	3.658600	-10.933000	24.678007	0.001011	20.834516
983.277140	-3.008800	3.657300	-11.002000	24.680568	0.001009	20.823810
984.275621	-3.001700	3.657700	-10.978000	24.680244	0.001013	20.852407
985.274592	-3.011700	3.656100	-11.010000	24.694219	0.001009	20.846991
986.274664	-3.018500	3.656300	-11.036000	24.698446	0.001008	20.850758
987.278524	-2.993500	3.657700	-10.948000	24.710730	0.001008	20.855024
988.281675	-3.003900	3.656300	-10.982000	24.695734	0.001009	20.862734
989.278532	-2.989500	3.655500	-10.927000	24.727391	0.001008	20.865104
990.277473	-2.986400	3.654700	-10.914000	24.739326	0.001009	20.838676
991.279008	-2.998900	3.656100	-10.963000	24.732562	0.001006	20.866500
992.279969	-2.979300	3.655500	-10.890000	24.750342	0.001006	20.850678
993.276966	-2.985500	3.654800	-10.910000	24.756956	0.001006	20.858264
994.281151	-3.005100	3.653100	-10.977000	24.774984	0.001008	20.884414
995.282985	-2.986700	3.654200	-10.912000	24.811810	0.001006	20.865423
996.278624	-2.999700	3.653200	-10.958000	24.790374	0.001008	20.867619
997.278812	-3.001400	3.653500	-10.965000	24.778089	0.001007	20.864773
998.279109	-2.991600	3.653000	-10.926000	24.776024	0.001006	20.873131
999.282399	-3.004700	3.653900	-10.978000	24.798826	0.001005	20.873729
1000.280713	-2.999300	3.653700	-10.957000	24.787785	0.001003	20.860279
1001.277808	-3.031200	3.651500	-11.066000	24.807950	0.001003	20.874825
1002.279843	-3.008800	3.651300	-10.985000	24.798053	0.001004	20.844031
1003.281355	-2.990300	3.651700	-10.917000	24.780993	0.001003	20.864842
1004.281612	-2.971700	3.653100	-10.854000	24.791187	0.001005	20.858478
1005.282405	-3.002000	3.650600	-10.957000	24.774426	0.001004	20.869631
1006.282270	-3.007800	3.650100	-10.977000	24.799914	0.001002	20.879088
1007.280517	-3.008300	3.650800	-10.982000	24.824531	0.001002	20.877715
1008.281545	-3.012700	3.651300	-10.999000	24.811449	0.001003	20.886871
1009.282328	-3.007600	3.650000	-10.976000	24.857103	0.001001	20.892860
1010.280490	-2.982100	3.650500	-10.885000	24.855063	0.001002	20.888442
1011.282814	-3.020800	3.648600	-11.019000	24.869558	0.001002	20.888291
1012.281892	-3.018300	3.649300	-11.014000	24.866225	0.001002	20.890636
1013.281204	-3.025900	3.650100	-11.044000	24.866920	0.001001	20.898918
1014.283221	-2.997000	3.649200	-10.936000	24.860579	0.001002	20.883547
1015.284966	-2.998600	3.649500	-10.942000	24.843023	0.001002	20.898642
1016.284186	-2.999500	3.648800	-10.943000	24.826909	0.001000	20.894799
1017.284416	-3.011000	3.647800	-10.983000	24.815593	0.001000	20.897193
1018.283859	-3.010000	3.646500	-10.975000	24.800896	0.001000	20.899039
1019.284380	-2.984500	3.647700	-10.884000	24.765808	0.001002	20.877103
1020.284693	-3.012300	3.646100	-10.982000	24.756656	0.001000	20.905849
1021.285618	-2.998300	3.647500	-10.934000	24.749916	0.000998	20.897189
1022.283577	-3.006700	3.646900	-10.963000	24.736038	0.000999	20.904599
1023.288068	-3.002200	3.647500	-10.950000	24.750759	0.000999	20.902302
1024.284010	-3.012700	3.646200	-10.984000	24.724845	0.000998	20.906643
1025.282784	-2.992600	3.645300	-10.908000	24.750508	0.000999	20.899206
1026.284355	-3.000800	3.646400	-10.940000	24.741829	0.000998	20.909935
1027.284511	-2.979200	3.644600	-10.857000	24.733198	0.000996	20.910283
1028.293029	-2.990700	3.645400	-10.901000	24.753266	0.000996	20.898180
1029.287573	-3.004400	3.645200	-10.951000	24.784971	0.000996	20.925253
1030.286318	-2.999900	3.644900	-10.934000	24.794991	0.000998	20.895958
1031.285568	-3.010400	3.643700	-10.966000	24.803446	0.000996	20.921509
1032.287624	-3.002400	3.643800	-10.939000	24.820303	0.000996	20.903342
1033.286650	-3.001200	3.643300	-10.933000	24.843577	0.000995	20.923853
1034.288846	-2.998400	3.644600	-10.927000	24.838479	0.000995	20.930589
1035.287376	-3.009800	3.643500	-10.965000	24.835942	0.000994	20.923776
1036.287394	-3.010800	3.644100	-10.971000	24.866103	0.000994	20.916115
1037.286775	-2.999200	3.643300	-10.925000	24.847752	0.000992	20.919508
1038.286709	-3.025900	3.640800	-11.015000	24.808612	0.000991	20.916737
1039.288640	-2.974500	3.643500	-10.835000	24.814505	0.000991	20.925969
1040.286820	-3.000200	3.642300	-10.927000	24.836112	0.000991	20.912568
1041.289989	-3.009600	3.641600	-10.959000	24.833451	0.000991	20.921750
1042.288522	-2.989300	3.641400	-10.883000	24.846679	0.000989	20.934077
1043.287970	-3.039300	3.639900	-11.060000	24.837105	0.000990	20.925891
1044.287116	-2.989500	3.641700	-10.885000	24.858464	0.000988	20.927887
1045.286757	-3.004300	3.641100	-10.937000	24.837924	0.000988	20.931455
1046.287312	-2.987100	3.641300	-10.876000	24.841405	0.000986	20.934473
1047.288640	-2.984100	3.642100	-10.867000	24.822457	0.000987	20.954809
1048.288508	-2.988100	3.640800	-10.877000	24.806542	0.000987	20.954959
1049.289494	-3.001700	3.641300	-10.929000	24.775657	0.000987	20.939138
1050.291353	-3.017000	3.640500	-10.981000	24.742334	0.000988	20.940311
1051.293025	-2.994300	3.639700	-10.897000	24.729950	0.000984	20.920773
1052.294332	-3.006100	3.637800	-10.935000	24.726319	0.000986	20.935619
1053.292684	-2.994900	3.638500	-10.896000	24.755389	0.000983	20.935869
1054.290393	-3.003400	3.638600	-10.928000	24.759044	0.000983	20.945225
1055.290276	-2.971000	3.639000	-10.810000	24.738652	0.000984	20.942306
1056.291705	-3.004100	3.637700	-10.926000	24.735245	0.000981	20.938886
1057.294007	-2.986900	3.638500	-10.867000	24.716146	0.000980	20.962866
1058.292917	-3.000000	3.636000	-10.906000	24.739746	0.000981	20.969003
1059.297496	-2.996800	3.636900	-10.897000	24.764166	0.000982	20.958898
1060.295004	-3.005200	3.636300	-10.927000	24.784233	0.000980	20.929728
1061.296104	-3.024000	3.635400	-10.992000	24.818748	0.000982	20.951087
1062.296815	-3.018200	3.636600	-10.974000	24.807757	0.000982	20.952859
1063.295317	-2.997100	3.635500	-10.895000	24.806464	0.000980	20.946347
1064.294882	-2.999700	3.635600	-10.904000	24.821955	0.000980	20.946721
1065.296489	-3.016700	3.634900	-10.965000	24.767249	0.000980	20.947768
1066.295142	-3.009500	3.635000	-10.938000	24.764637	0.000979	20.969801
1067.295422	-3.013000	3.634500	-10.950000	24.774957	0.000978	20.931799
1068.297052	-2.990200	3.633200	-10.861000	24.786421	0.000978	20.979332
1069.298769	-2.965900	3.635300	-10.780000	24.825337	0.000978	20.951062
1070.296405	-2.983600	3.635500	-10.845000	24.841972	0.000977	20.937887
1071.296825	-3.005300	3.633700	-10.918000	24.839063	0.000977	20.947768
1072.296120	-2.996800	3.634200	-10.890000	24.832697	0.000977	20.940432
1073.297504	-2.996500	3.633600	-10.887000	24.887674	0.000976	20.956726
1074.298082	-2.986900	3.633600	-10.852000	24.885063	0.000977	20.936090
1075.300657	-2.990500	3.633500	-10.863000	24.913881	0.000975	20.963113
1076.299486	-3.038800	3.631600	-11.034000	24.939067	0.000978	20.951411
1077.300584	-2.995400	3.632800	-10.880000	24.941405	0.000975	20.943800
1078.300830	-3.011300	3.631400	-10.934000	24.963358	0.000976	20.955403
1079.301044	-3.002600	3.631300	-10.903000	24.922533	0.000977	20.929602
1080.300138	-3.016700	3.630100	-10.950000	24.918181	0.000974	20.946095
1081.302997	-2.999100	3.632400	-10.893000	24.906545	0.000975	20.945796
1082.301583	-3.001900	3.630500	-10.897000	24.887126	0.000974	20.945746
1083.300381	-3.009700	3.629500	-10.923000	24.887747	0.000974	20.939258
1084.302281	-2.992300	3.630200	-10.861000	24.879965	0.000974	20.945671
1085.303754	-3.005100	3.629600	-10.906000	24.902691	0.000973	20.934816
1086.304712	-3.005400	3.629000	-10.906000	24.875712	0.000973	20.926706
1087.306524	-3.001600	3.629000	-10.892000	24.860793	0.000973	20.934017
1088.307997	-3.013200	3.628000	-10.931000	24.851916	0.000971	20.923213
1089.301118	-3.005600	3.628100	-10.904000	24.837394	0.000972	20.912907
1090.308245	-3.004200	3.627900	-10.898000	24.844829	0.000972	20.933168
1091.307416	-3.003600	3.628900	-10.898000	24.850274	0.000973	20.913980
1092.301953	-2.991700	3.628300	-10.854000	24.895255	0.000972	20.904597
1093.309683	-2.978100	3.629800	-10.809000	24.881852	0.000971	20.907741
1094.308697	-3.001200	3.627400	-10.885000	24.872255	0.000971	20.928926
1095.304633	-3.003000	3.625800	-10.886000	24.894558	0.000969	20.903898
1096.306994	-3.014000	3.626600	-10.929000	24.911416	0.000969	20.906118
1097.309530	-2.981300	3.626600	-10.811000	24.943291	0.000969	20.906817
1098.310291	-3.022400	3.625400	-10.956000	24.949556	0.000969	20.905993
1099.309038	-3.011800	3.626200	-10.921000	24.962509	0.000971	20.915675
1100.313684	-3.001100	3.624800	-10.878000	24.950351	0.000970	20.894464
1101.304655	-2.997500	3.626700	-10.869000	24.970515	0.000970	20.930346
1102.312905	-2.993800	3.625300	-10.852000	24.980708	0.000968	20.914501
1103.312674	-2.991900	3.625000	-10.845000	24.957561	0.000968	20.936784
1104.307461	-3.000100	3.624100	-10.872000	24.942543	0.000969	20.908911
1105.308846	-2.983200	3.623900	-10.809000	24.894730	0.000968	20.915449
1106.314141	-3.004800	3.623800	-10.888000	24.887021	0.000966	20.900601
1107.310061	-3.002600	3.623500	-10.878000	24.911065	0.000969	20.886802
1108.311014	-2.980900	3.624400	-10.802000	24.890651	0.000967	20.909459
1109.313257	-3.006800	3.624000	-10.896000	24.867601	0.000966	20.904343
1110.307780	-2.973400	3.624900	-10.777000	24.877323	0.000964	20.911729
1111.319387	-3.003400	3.623500	-10.881000	24.840199	0.000965	20.919988
1112.307030	-3.022400	3.621300	-10.944000	24.836543	0.000963	20.893563
1113.307597	-3.001500	3.621300	-10.868000	24.872175	0.000965	20.893762
1114.310153	-2.994100	3.621500	-10.842000	24.886198	0.000965	20.903568
1115.309608	-2.999400	3.622200	-10.863000	24.877943	0.000965	20.905240
1116.311840	-2.984900	3.622900	-10.813000	24.899078	0.000963	20.899425
1117.315549	-2.998100	3.621000	-10.855000	24.917825	0.000962	20.909706
1118.316514	-2.977700	3.622700	-10.786000	24.896764	0.000964	20.892837
1119.313377	-2.993100	3.622600	-10.842000	24.898878	0.000961	20.905863
1120.312480	-2.977300	3.622500	-10.783000	24.853375	0.000961	20.895756
1121.314166	-3.013100	3.619800	-10.906000	24.842608	0.000962	20.881632
1122.312566	-2.989900	3.620100	-10.823000	24.846313	0.000962	20.887246
1123.312420	-2.994400	3.619500	-10.836000	24.857054	0.000962	20.885699
1124.315818	-3.018400	3.619100	-10.922000	24.877692	0.000962	20.885549
1125.313629	-2.973700	3.619600	-10.763000	24.891442	0.000960	20.904089
1126.315095	-3.000200	3.617600	-10.851000	24.901337	0.000959	20.905960
1127.316477	-3.016200	3.616700	-10.906000	24.900542	0.000959	20.902791
1128.318902	-3.005900	3.617500	-10.871000	24.926176	0.000956	20.916191
1129.318130	-3.018100	3.616200	-10.913000	24.941790	0.000959	20.888243
1130.320837	-3.010400	3.617100	-10.887000	24.970756	0.000955	20.897401
1131.316825	-3.003500	3.618000	-10.865000	24.955937	0.000957	20.920457
1132.315799	-3.015600	3.615900	-10.902000	25.001709	0.000954	20.884375
1133.319107	-3.019100	3.615100	-10.913000	24.981297	0.000955	20.895180
1134.315815	-3.013000	3.617700	-10.899000	24.947235	0.000955	20.894655
1135.317562	-3.025500	3.616600	-10.941000	24.939179	0.000952	20.900794
1136.317980	-2.999400	3.615700	-10.844000	24.964962	0.000954	20.894431
1137.319117	-2.999700	3.615700	-10.843000	24.990620	0.000951	20.906907
1138.316627	-2.997900	3.615400	-10.838000	24.971575	0.000952	20.920032
1139.321500	-2.998000	3.615900	-10.839000	24.986369	0.000951	20.889839
1140.318875	-3.002900	3.613100	-10.849000	25.020380	0.000950	20.897899
1141.318250	-2.994800	3.613700	-10.821000	25.026893	0.000948	20.898747
1142.325198	-2.994900	3.615300	-10.827000	25.052774	0.000949	20.876838
1143.319240	-2.976200	3.614700	-10.757000	25.037782	0.000948	20.881230
1144.320903	-3.002200	3.612000	-10.841000	25.003772	0.000949	20.898298
1145.321005	-2.985300	3.613800	-10.787000	24.965683	0.000947	20.880930
1146.320214	-3.001800	3.613000	-10.843000	24.917846	0.000947	20.880332
1147.318554	-2.985800	3.612700	-10.785000	24.892857	0.000945	20.889390
1148.322829	-3.037100	3.613100	-10.971000	24.895891	0.000947	20.900494
1149.318966	-3.014100	3.611300	-10.883000	24.893528	0.000946	20.884374
1150.318418	-2.991200	3.611800	-10.803000	24.879057	0.000945	20.890712
1151.321982	-3.010200	3.609700	-10.865000	24.901609	0.000943	20.891536
1152.322227	-3.005900	3.609600	-10.850000	24.937040	0.000944	20.894380
1153.320978	-2.993200	3.611800	-10.809000	24.937214	0.000944	20.879383
1154.322922	-2.986700	3.611000	-10.784000	24.981595	0.000942	20.888841
1155.327320	-3.020100	3.608100	-10.895000	25.000664	0.000942	20.865309
1156.323939	-3.012800	3.609100	-10.873000	25.026421	0.000943	20.891635
1157.327283	-2.994600	3.609500	-10.808000	25.039100	0.000942	20.885871
1158.323894	-2.993900	3.609200	-10.804000	25.038827	0.000941	20.875640
1159.323669	-3.012200	3.609400	-10.872000	25.047876	0.000939	20.891361
1160.323591	-3.001000	3.608700	-10.828000	25.060654	0.000940	20.902765
1161.324040	-2.989000	3.609500	-10.787000	25.055384	0.000938	20.890363
1162.328278	-3.021900	3.606400	-10.896000	25.010857	0.000938	20.871747
1163.324677	-2.995900	3.606400	-10.803000	25.006432	0.000937	20.886270
1164.326982	-2.986800	3.608100	-10.776000	25.045912	0.000936	20.869951
1165.327609	-2.980300	3.608300	-10.753000	25.028907	0.000936	20.886071
1166.326141	-3.001200	3.607100	-10.824000	25.010758	0.000936	20.857898
1167.329053	-2.983900	3.607200	-10.763000	25.011752	0.000936	20.858896
1168.328218	-3.005200	3.605400	-10.833000	25.009241	0.000935	20.888142
1169.328474	-3.010000	3.606400	-10.854000	25.022095	0.000937	20.870699
1170.329082	-2.993000	3.605500	-10.790000	24.989973	0.000933	20.862165
1171.328312	-3.000600	3.605100	-10.815000	25.002902	0.000935	20.870874
1172.327872	-3.023700	3.604400	-10.896000	25.006631	0.000934	20.873195
1173.330092	-2.991000	3.605100	-10.781000	25.034575	0.000934	20.870425
1174.329719	-3.006800	3.604900	-10.838000	25.023785	0.000934	20.859595
1175.328215	-3.028700	3.603200	-10.912000	25.037733	0.000934	20.878809
1176.341317	-2.989300	3.604100	-10.772000	25.050387	0.000933	20.884399
1177.331529	-2.995200	3.603900	-10.793000	25.060058	0.000933	20.870400
1178.331201	-3.013700	3.603900	-10.859000	25.053867	0.000932	20.853281
1179.330140	-3.001900	3.602800	-10.814000	25.082009	0.000932	20.880107
1180.330840	-3.003800	3.602900	-10.822000	25.106248	0.000930	20.849913
1181.330516	-2.978700	3.602100	-10.729000	25.079697	0.000930	20.846968
1182.331857	-3.000700	3.602400	-10.808000	25.099561	0.000930	20.865010
1183.330543	-3.004800	3.602400	-10.824000	25.094564	0.000931	20.833443
1184.331291	-2.994400	3.601900	-10.784000	25.096055	0.000929	20.851535
1185.334873	-3.013300	3.601400	-10.850000	25.058541	0.000929	20.848016
1186.333810	-3.004400	3.602000	-10.820000	25.076590	0.000929	20.860443
1187.335374	-2.984600	3.601900	-10.750000	25.081562	0.000930	20.851210
1188.334368	-2.980900	3.599800	-10.729000	25.054738	0.000927	20.843724
1189.334724	-3.004200	3.600000	-10.813000	25.000987	0.000927	20.844298
1190.342175	-3.012700	3.599900	-10.844000	25.020504	0.000925	20.842551
1191.336874	-3.002700	3.599400	-10.807000	24.999098	0.000927	20.843350
1192.336031	-2.998600	3.598700	-10.787000	25.022368	0.000926	20.852009
1193.337236	-3.020400	3.597800	-10.866000	25.035644	0.000926	20.855378
1194.335724	-3.015900	3.598000	-10.850000	25.048870	0.000926	20.840205
1195.337409	-3.023400	3.597900	-10.876000	25.053669	0.000925	20.832694
1196.339689	-3.008800	3.596900	-10.822000	25.034824	0.000923	20.837485
1197.338740	-2.993300	3.599000	-10.772000	25.009714	0.000924	20.839307
1198.337324	-3.012000	3.596500	-10.832000	25.000789	0.000921	20.867331
1199.336889	-3.020500	3.595300	-10.859000	24.991018	0.000923	20.847093
1200.342061	-3.017700	3.596700	-10.851000	24.973714	0.000920	20.835888
1201.344090	-3.001200	3.597600	-10.796000	25.001211	0.000923	20.847368
1202.341977	-3.000900	3.597000	-10.793000	25.025501	0.000922	20.836188
1203.339159	-3.010300	3.594800	-10.821000	25.001783	0.000920	20.846519
1204.340853	-3.018100	3.595100	-10.849000	24.988432	0.000919	20.860618
1205.340394	-2.989900	3.595200	-10.747000	25.005140	0.000919	20.857474
1206.340887	-3.014300	3.593900	-10.832000	25.050288	0.000919	20.837835
1207.339242	-3.020200	3.593600	-10.852000	25.045490	0.000920	20.833967
1208.339628	-3.007900	3.593700	-10.809000	25.037957	0.000917	20.851535
1209.340544	-2.994000	3.593900	-10.759000	25.043973	0.000918	20.829126
1210.339501	-3.002600	3.592500	-10.786000	25.068536	0.000917	20.834342
1211.336948	-2.997300	3.591400	-10.764000	25.057448	0.000915	20.822264
1212.339796	-3.004300	3.593100	-10.793000	25.021250	0.000915	20.838559
1213.339458	-2.989300	3.592800	-10.738000	24.968766	0.000914	20.830449
1214.339175	-2.997700	3.593500	-10.771000	24.918841	0.000918	20.840081
1215.340166	-2.994000	3.591900	-10.753000	24.866426	0.000914	20.834891
1216.341690	-3.027400	3.590800	-10.869000	24.881942	0.000915	20.806367
1217.339397	-3.007400	3.590900	-10.799000	24.902480	0.000915	20.824609
1218.339623	-3.025800	3.589300	-10.859000	24.914539	0.000913	20.821066
1219.338838	-2.976100	3.591900	-10.687000	24.921302	0.000915	20.832595
1220.339202	-2.988900	3.590700	-10.732000	24.941143	0.000913	20.840181
1221.339673	-3.002900	3.589500	-10.778000	24.950393	0.000912	20.821016
1222.340798	-2.989000	3.590400	-10.730000	24.970631	0.000911	20.816674
1223.340302	-3.012400	3.588800	-10.810000	25.002405	0.000913	20.822488
1224.341189	-3.019600	3.588300	-10.833000	25.037684	0.000910	20.832770
1225.342276	-3.003900	3.587700	-10.776000	25.009416	0.000909	20.825258
1226.341956	-3.010100	3.587000	-10.796000	25.023090	0.000909	20.829975
1227.343405	-3.007500	3.589100	-10.793000	25.031593	0.000907	20.823337
1228.342549	-2.977000	3.588400	-10.680000	25.038603	0.000909	20.834167
1229.343196	-2.988000	3.587400	-10.717000	25.015408	0.000908	20.820367
1230.343005	-3.004100	3.587500	-10.775000	24.998054	0.000908	20.820492
1231.344810	-2.997500	3.585900	-10.747000	24.987662	0.000905	20.826656
1232.343010	-2.998400	3.585800	-10.751000	24.949870	0.000906	20.802000
1233.344974	-3.003400	3.585600	-10.768000	24.974410	0.000908	20.821415
1234.343241	-2.964600	3.587100	-10.633000	24.935400	0.000904	20.820192
1235.343652	-3.001200	3.585500	-10.760000	24.933361	0.000905	20.801551
1236.343796	-2.988200	3.585000	-10.711000	24.915235	0.000902	20.826980
1237.346436	-2.984400	3.585400	-10.699000	24.872742	0.000905	20.819893
1238.343818	-2.977400	3.584700	-10.672000	24.894871	0.000903	20.808912
1239.344004	-2.977900	3.585800	-10.676000	24.922968	0.000904	20.829051
1240.345889	-2.990100	3.584300	-10.716000	24.959567	0.000903	20.808887
1241.345911	-2.986400	3.586200	-10.708000	24.976250	0.000903	20.800502
1242.345354	-2.987000	3.585000	-10.707000	25.011504	0.000904	20.822612
1243.347315	-2.984300	3.583400	-10.693000	25.046335	0.000901	20.804470
1244.354580	-3.015200	3.582600	-10.801000	25.096503	0.000901	20.809311
1245.346548	-3.014500	3.581500	-10.795000	25.090164	0.000901	20.793465
1246.345080	-3.015500	3.582800	-10.802000	25.112015	0.000901	20.792641
1247.346632	-3.007700	3.581700	-10.771000	25.113010	0.000900	20.805019
1248.352285	-2.968500	3.583000	-10.635000	25.123600	0.000898	20.809486
1249.346132	-2.982400	3.581800	-10.681000	25.141424	0.000899	20.817896
1250.349228	-2.997200	3.583000	-10.738000	25.146644	0.000897	20.803222
1251.349062	-2.999300	3.580900	-10.739000	25.188654	0.000900	20.834965
1252.349587	-3.023100	3.579200	-10.819000	25.199045	0.000898	20.808413
1253.351779	-3.022500	3.580800	-10.821000	25.204613	0.000898	20.811632
1254.350186	-2.989500	3.581000	-10.704000	25.192731	0.000899	20.817247
1255.350530	-2.983200	3.579900	-10.678000	25.174635	0.000897	20.781062
1256.350693	-3.014700	3.580300	-10.792000	25.154698	0.000894	20.806566
1257.352402	-3.006900	3.578800	-10.759000	25.145650	0.000894	20.805069
1258.352109	-2.983300	3.580500	-10.680000	25.139908	0.000893	20.788399
1259.350946	-3.000000	3.579800	-10.738000	25.133394	0.000893	20.792766
1260.352101	-2.985500	3.579100	-10.685000	25.156041	0.000893	20.786577
1261.350441	-2.980800	3.577800	-10.664000	25.169787	0.000893	20.774299
1262.350862	-2.995200	3.578500	-10.717000	25.167028	0.000892	20.796659
1263.352824	-2.982000	3.576800	-10.664000	25.149776	0.000891	20.803996
1264.351269	-3.000000	3.577900	-10.733000	25.169091	0.000891	20.796360
1265.350678	-3.023200	3.575200	-10.807000	25.125887	0.000890	20.789023
1266.355874	-2.997100	3.577200	-10.721000	25.127379	0.000889	20.794313
1267.351224	-2.987800	3.577400	-10.687000	25.123650	0.000889	20.805269
1268.350411	-3.024500	3.573600	-10.806000	25.105577	0.000890	20.796609
1269.353826	-2.988700	3.574800	-10.683000	25.070798	0.000887	20.802000
1270.352065	-2.989600	3.576100	-10.690000	25.091481	0.000888	20.785779
1271.351836	-2.975300	3.575700	-10.638000	25.100158	0.000885	20.784531
1272.352097	-2.982100	3.574700	-10.659000	25.107441	0.000888	20.797059
1273.352267	-2.982800	3.575900	-10.665000	25.135955	0.000887	20.789173
1274.352065	-3.001600	3.572700	-10.723000	25.157880	0.000885	20.755232
1275.356028	-3.000300	3.573500	-10.721000	25.206627	0.000887	20.788050
1276.351916	-2.991800	3.574100	-10.692000	25.205931	0.000884	20.781187
1277.357151	-3.021000	3.572800	-10.793000	25.200462	0.000884	20.779490
1278.357864	-2.980400	3.572900	-10.647000	25.226065	0.000882	20.769158
1279.354024	-2.984500	3.572300	-10.661000	25.239015	0.000881	20.788798
1280.354353	-3.007500	3.571800	-10.740000	25.267550	0.000883	20.779041
1281.354820	-3.024800	3.571000	-10.801000	25.286416	0.000881	20.776645
1282.354945	-2.986400	3.571300	-10.664000	25.294344	0.000882	20.787925
1283.354270	-3.001400	3.569500	-10.712000	25.299663	0.000881	20.774299
1284.357788	-2.986200	3.570900	-10.662000	25.301925	0.000881	20.783208
1285.353301	-3.000400	3.570700	-10.713000	25.326208	0.000879	20.793839
1286.353922	-2.989200	3.571300	-10.674000	25.308462	0.000878	20.767486
1287.361066	-2.997000	3.571600	-10.703000	25.329489	0.000878	20.786702
1288.357045	-3.014000	3.569500	-10.757000	25.328893	0.000878	20.770456
1289.355707	-2.988600	3.570000	-10.668000	25.290666	0.000877	20.772852
1290.360040	-2.996500	3.569900	-10.695000	25.250151	0.000878	20.784806
1291.358028	-2.992800	3.568000	-10.677000	25.245105	0.000875	20.779265
1292.356178	-3.001500	3.568200	-10.708000	25.203868	0.000876	20.778642
1293.359861	-2.994800	3.568300	-10.686000	25.165935	0.000877	20.773750
1294.358562	-2.986100	3.567800	-10.653000	25.180924	0.000874	20.777893
1295.356462	-3.001500	3.568700	-10.710000	25.184553	0.000874	20.783433
1296.362920	-2.991600	3.567800	-10.673000	25.193626	0.000874	20.803922
1297.357773	-3.003100	3.567700	-10.713000	25.204390	0.000871	20.765415
1298.357393	-2.968800	3.568100	-10.592000	25.120866	0.000870	20.779241
1299.362291	-2.982700	3.566600	-10.637000	25.107666	0.000872	20.801077
1300.357841	-3.001000	3.565300	-10.699000	25.074652	0.000872	20.781686
1301.359521	-3.016500	3.563200	-10.747000	25.063514	0.000870	20.788050
1302.361455	-3.009800	3.564700	-10.728000	25.054341	0.000870	20.769358
1303.360066	-2.982700	3.567100	-10.639000	25.019660	0.000870	20.791918
1304.361415	-2.998400	3.565200	-10.688000	25.059835	0.000868	20.790995
1305.366733	-3.014500	3.564200	-10.743000	25.076815	0.000870	20.789073
1306.364703	-3.000600	3.563400	-10.691000	25.098965	0.000869	20.779066
1307.361138	-2.989600	3.563200	-10.651000	25.109680	0.000867	20.779865
1308.361845	-3.004600	3.561700	-10.700000	25.102346	0.000867	20.777719
1309.362263	-3.008600	3.563000	-10.718000	25.139610	0.000867	20.791894
1310.360096	-2.992500	3.562000	-10.657000	25.134439	0.000867	20.795712
1311.361180	-3.003500	3.562300	-10.698000	25.187288	0.000866	20.791395
1312.361540	-3.004500	3.562800	-10.704000	25.193950	0.000865	20.793815
1313.362970	-2.997000	3.561600	-10.673000	25.223580	0.000865	20.784208
1314.362580	-3.011800	3.561600	-10.726000	25.190346	0.000863	20.793042
1315.360205	-3.007200	3.561300	-10.708000	25.177097	0.000862	20.774525
1316.362623	-2.998300	3.560800	-10.675000	25.154426	0.000865	20.792543
1317.365871	-2.981500	3.561100	-10.616000	25.165066	0.000863	20.774300
1318.362116	-3.013600	3.560100	-10.726000	25.149480	0.000860	20.797060
1319.364307	-3.011700	3.559200	-10.718000	25.122682	0.000861	20.766364
1320.369543	-2.994800	3.560300	-10.661000	25.110849	0.000861	20.779616
1321.363405	-2.987200	3.560600	-10.635000	25.109506	0.000860	20.764992
1322.362388	-3.022200	3.557600	-10.750000	25.135136	0.000860	20.766065
1323.367317	-2.996500	3.560100	-10.667000	25.146720	0.000860	20.763944
1324.370223	-2.998500	3.558700	-10.670000	25.151518	0.000859	20.796736
1325.363839	-3.010300	3.558700	-10.712000	25.172921	0.000858	20.785506
1326.369627	-3.002000	3.557700	-10.679000	25.201756	0.000859	20.797385
1327.364835	-2.994000	3.556700	-10.648000	25.217118	0.000859	20.772504
1328.363832	-2.993000	3.558500	-10.650000	25.222512	0.000858	20.802575
1329.369237	-2.986600	3.557500	-10.624000	25.238196	0.000856	20.773751
1330.364958	-3.010400	3.556000	-10.704000	25.254974	0.000857	20.795812
1331.368362	-2.996400	3.557300	-10.657000	25.251917	0.000855	20.794165
1332.369949	-2.998600	3.555900	-10.662000	25.242223	0.000858	20.786329
1333.363050	-3.004200	3.554700	-10.677000	25.202750	0.000856	20.785580
1334.367434	-3.002600	3.555300	-10.674000	25.235686	0.000855	20.773602
1335.371864	-3.019800	3.554300	-10.732000	25.224898	0.000854	20.777944
1336.368609	-2.979400	3.554700	-10.590000	25.241701	0.000856	20.799081
1337.367234	-3.003500	3.553700	-10.672000	25.248636	0.000853	20.790397
1338.372797	-2.985700	3.555300	-10.615000	25.246076	0.000856	20.799680
1339.370482	-3.009200	3.552700	-10.690000	25.224500	0.000853	20.790347
1340.368999	-2.999200	3.554100	-10.659000	25.223034	0.000852	20.794564
1341.376082	-2.983500	3.553700	-10.602000	25.251494	0.000852	20.779042
1342.373560	-3.018900	3.551900	-10.721000	25.244311	0.000854	20.785106
1343.370875	-3.011000	3.551400	-10.692000	25.249282	0.000852	20.797684
1344.370127	-3.005700	3.551900	-10.675000	25.246225	0.000851	20.792243
1345.371998	-3.031200	3.551500	-10.765000	25.273740	0.000853	20.791894
1346.368254	-3.002200	3.552100	-10.663000	25.272746	0.000853	20.778094
1347.370503	-2.989800	3.552100	-10.619000	25.220473	0.000849	20.792942
1348.368989	-3.011600	3.551800	-10.695000	25.237525	0.000849	20.791570
1349.371346	-2.966800	3.552400	-10.539000	25.214955	0.000849	20.784557
1350.368840	-2.979500	3.551200	-10.579000	25.186444	0.000850	20.796237
1351.369777	-2.992700	3.550100	-10.624000	25.164246	0.000849	20.785331
1352.370013	-2.979300	3.550800	-10.578000	25.132650	0.000850	20.785855
1353.369625	-2.976900	3.550300	-10.567000	25.124969	0.000847	20.795214
1354.370890	-2.989800	3.550400	-10.615000	25.163326	0.000849	20.800529
1355.373005	-2.991500	3.548900	-10.616000	25.186917	0.000846	20.797185
1356.374831	-2.991100	3.549200	-10.615000	25.228229	0.000847	20.803100
1357.375630	-3.001100	3.550500	-10.653000	25.217118	0.000846	20.798109
1358.371996	-2.987400	3.550000	-10.604000	25.197158	0.000846	20.790872
1359.372139	-2.987200	3.549200	-10.601000	25.171281	0.000847	20.796662
1360.373171	-3.008800	3.547800	-10.674000	25.194523	0.000845	20.781589
1361.373512	-3.017000	3.546100	-10.697000	25.229050	0.000846	20.798708
1362.371416	-2.997500	3.548000	-10.635000	25.235041	0.000846	20.804248
1363.375496	-2.973500	3.547700	-10.547000	25.271580	0.000842	20.790673
1364.373045	-2.983300	3.548700	-10.586000	25.260196	0.000845	20.798210
1365.373208	-2.993700	3.546000	-10.615000	25.265788	0.000844	20.806669
1366.373136	-2.971400	3.546800	-10.537000	25.240535	0.000844	20.805497
1367.374010	-3.013700	3.544400	-10.681000	25.188086	0.000844	20.786980
1368.373252	-2.987800	3.546100	-10.593000	25.175185	0.000841	20.810064
1369.374173	-2.992200	3.545300	-10.607000	25.148015	0.000842	20.794642
1370.372416	-2.999500	3.542800	-10.626000	25.177498	0.000840	20.808118
1371.374734	-2.981600	3.544400	-10.567000	25.182519	0.000840	20.800357
1372.374064	-2.983000	3.544700	-10.572000	25.230718	0.000841	20.809391
1373.381986	-3.018200	3.542900	-10.692000	25.225150	0.000839	20.805224
1374.374662	-2.994200	3.542900	-10.607000	25.246477	0.000840	20.799609
1375.379851	-3.002000	3.543100	-10.635000	25.222615	0.000840	20.803627
1376.375405	-2.995900	3.542200	-10.612000	25.185603	0.000838	20.804401
1377.376374	-2.978300	3.542400	-10.549000	25.172925	0.000840	20.803054
1378.377767	-2.998000	3.542100	-10.618000	25.180482	0.000836	20.830080
1379.377760	-2.999200	3.541600	-10.621000	25.209666	0.000837	20.800110
1380.377343	-3.014400	3.540500	-10.671000	25.215110	0.000838	20.820274
1381.377792	-2.996400	3.539600	-10.605000	25.242949	0.000835	20.819301
1382.378267	-2.988300	3.540500	-10.579000	25.240265	0.000835	20.819925
1383.387888	-3.017800	3.539900	-10.681000	25.260399	0.000837	20.808371
1384.385714	-3.004000	3.539200	-10.631000	25.304990	0.000834	20.819002
1385.379682	-3.004100	3.538600	-10.629000	25.323781	0.000833	20.829334
1386.378246	-3.003600	3.540400	-10.632000	25.321942	0.000833	20.824642
1387.379651	-2.969300	3.540500	-10.512000	25.349083	0.000833	20.807324
1388.378167	-3.002500	3.539700	-10.627000	25.318389	0.000832	20.837670
1389.378441	-2.995200	3.537800	-10.595000	25.306434	0.000832	20.829460
1390.382148	-2.986200	3.538600	-10.565000	25.339317	0.000831	20.832131
1391.379626	-2.982000	3.537300	-10.547000	25.342524	0.000831	20.829661
1392.380741	-2.964000	3.539300	-10.489000	25.332657	0.000832	20.833978
1393.381635	-3.010500	3.537500	-10.648000	25.341107	0.000831	20.838670
1394.381625	-3.002100	3.536300	-10.616000	25.352640	0.000830	20.819430
1395.378374	-3.011300	3.537200	-10.650000	25.330421	0.000830	20.825570
1396.380024	-2.992600	3.537100	-10.584000	25.333503	0.000830	20.833880
1397.380707	-2.987300	3.536100	-10.562000	25.363279	0.000828	20.825370
1398.385393	-2.978500	3.535400	-10.528000	25.376949	0.000829	20.825346
1399.383058	-2.997400	3.537000	-10.600000	25.352618	0.000828	20.857813
1400.381946	-2.973200	3.536800	-10.514000	25.357341	0.000828	20.829365
1401.380826	-2.996100	3.534400	-10.589000	25.360199	0.000826	20.837925
1402.389729	-2.992700	3.534900	-10.578000	25.334351	0.000826	20.831887
1403.381963	-3.016800	3.534400	-10.661000	25.389701	0.000827	20.836728
1404.381485	-3.003900	3.533400	-10.613000	25.392410	0.000825	20.850828
1405.385551	-2.989700	3.534000	-10.565000	25.368677	0.000827	20.826523
1406.381346	-2.981800	3.533500	-10.535000	25.394698	0.000828	20.844591
1407.382632	-3.015900	3.531900	-10.651000	25.366937	0.000827	20.838527
1408.383160	-3.008200	3.532000	-10.624000	25.380682	0.000823	20.847112
1409.383472	-3.013800	3.531100	-10.641000	25.367486	0.000823	20.831017
1410.385033	-3.003700	3.531400	-10.606000	25.369972	0.000823	20.856746
1411.387304	-2.998200	3.531900	-10.588000	25.359633	0.000822	20.832616
1412.388129	-2.978800	3.532500	-10.521000	25.361721	0.000822	20.852255
1413.384368	-2.987900	3.531100	-10.550000	25.366097	0.000823	20.865656
1414.387556	-3.011700	3.529600	-10.629000	25.359933	0.000822	20.857572
1415.387480	-2.993000	3.530400	-10.565000	25.386552	0.000822	20.857747
1416.385659	-2.995600	3.531700	-10.578000	25.393934	0.000820	20.849987
1417.385578	-2.999600	3.529600	-10.586000	25.391201	0.000821	20.867156
1418.385207	-2.983700	3.530400	-10.531000	25.421894	0.000817	20.857674
1419.389666	-3.008000	3.528300	-10.611000	25.435514	0.000819	20.843376
1420.389233	-3.021200	3.527800	-10.657000	25.401318	0.000817	20.852185
1421.391772	-2.996200	3.528500	-10.571000	25.390507	0.000816	20.853184
1422.389075	-2.966200	3.529300	-10.467000	25.395031	0.000817	20.848718
1423.405533	-3.004200	3.525900	-10.591000	25.430646	0.000817	20.855556
1424.390033	-3.020800	3.526600	-10.652000	25.441109	0.000816	20.868907
1425.390304	-2.997000	3.526800	-10.568000	25.419587	0.000815	20.861521
1426.391397	-2.990200	3.526900	-10.545000	25.395407	0.000814	20.858578
1427.390234	-3.008700	3.525300	-10.605000	25.390387	0.000815	20.849744
1428.391058	-2.996200	3.525500	-10.562000	25.389095	0.000814	20.861723
1429.390736	-2.992100	3.524300	-10.543000	25.399932	0.000813	20.873078
1430.391399	-3.012400	3.525000	-10.618000	25.410494	0.000812	20.856184
1431.389897	-2.999100	3.523900	-10.567000	25.405723	0.000813	20.870832
1432.388964	-2.984400	3.523600	-10.515000	25.398715	0.000811	20.859529
1433.393053	-3.002500	3.525300	-10.584000	25.415342	0.000812	20.865319
1434.391814	-2.992800	3.523100	-10.543000	25.409850	0.000812	20.873554
1435.390370	-3.007900	3.524400	-10.600000	25.441165	0.000809	20.875127
1436.393104	-2.979700	3.523900	-10.500000	25.438009	0.000810	20.863424
1437.391177	-3.022600	3.521400	-10.642000	25.461569	0.000810	20.878547
1438.392372	-2.993200	3.522200	-10.541000	25.451853	0.000809	20.876851
1439.391156	-2.991800	3.521800	-10.534000	25.480383	0.000806	20.879896
1440.396485	-3.004400	3.521400	-10.578000	25.483415	0.000809	20.873932
1441.392818	-3.028200	3.521700	-10.663000	25.491716	0.000807	20.886061
1442.393461	-2.994800	3.522400	-10.547000	25.491915	0.000807	20.874882
1443.395491	-2.989700	3.520800	-10.524000	25.477702	0.000807	20.874359
1444.395219	-2.995300	3.520000	-10.542000	25.481828	0.000808	20.887510
1445.393602	-2.987300	3.520900	-10.516000	25.443582	0.000805	20.859537
1446.394892	-3.010200	3.519100	-10.591000	25.433269	0.000806	20.866725
1447.395475	-2.998000	3.519500	-10.549000	25.412220	0.000806	20.879727
1448.397470	-3.007900	3.518800	-10.583000	25.426660	0.000803	20.877632
1449.397095	-3.048000	3.517500	-10.720000	25.413937	0.000805	20.898045
1450.397788	-3.019000	3.517100	-10.617000	25.428774	0.000803	20.864108
1451.398369	-3.005900	3.518600	-10.576000	25.452782	0.000804	20.885369
1452.397397	-3.021400	3.517800	-10.627000	25.440432	0.000803	20.895726
1453.401029	-2.997600	3.518200	-10.545000	25.404421	0.000802	20.889913
1454.399272	-3.009700	3.517600	-10.586000	25.408076	0.000802	20.876514
1455.396314	-2.999200	3.517500	-10.549000	25.427784	0.000802	20.908629
1456.419502	-3.011400	3.514100	-10.581000	25.416254	0.000802	20.886622
1457.397610	-3.012600	3.516000	-10.591000	25.418294	0.000803	20.897678
1458.398080	-2.982500	3.517700	-10.490000	25.449930	0.000800	20.869231
1459.407161	-2.992500	3.516800	-10.523000	25.457113	0.000798	20.882133
1460.402626	-3.004300	3.514800	-10.559000	25.451051	0.000799	20.920612
1461.403895	-2.984800	3.516400	-10.495000	25.474090	0.000798	20.905816
1462.399995	-2.979700	3.515500	-10.473000	25.473196	0.000799	20.893066
1463.403256	-2.996200	3.513900	-10.527000	25.477495	0.000797	20.905443
1464.404324	-2.998100	3.513100	-10.532000	25.443873	0.000797	20.896810
1465.402462	-3.019600	3.512700	-10.606000	25.450335	0.000796	20.907567
1466.404634	-3.011100	3.512900	-10.576000	25.384625	0.000796	20.896587
1467.404741	-2.977300	3.513900	-10.460000	25.357511	0.000795	20.896863
1468.403222	-2.983400	3.512600	-10.479000	25.381123	0.000793	20.896389
1469.406185	-2.996700	3.512500	-10.525000	25.380452	0.000791	20.910888
1470.406828	-2.967800	3.513000	-10.425000	25.344216	0.000792	20.911961
1471.404841	-3.014700	3.510300	-10.582000	25.339942	0.000791	20.901506
1472.403683	-2.977500	3.512900	-10.458000	25.314292	0.000791	20.923640
1473.405818	-2.995300	3.511000	-10.515000	25.331070	0.000789	20.919623
1474.404726	-2.975600	3.512000	-10.449000	25.305892	0.000788	20.901458
1475.405739	-2.998200	3.509400	-10.521000	25.335619	0.000790	20.920397
1476.407416	-3.008700	3.510700	-10.561000	25.365195	0.000789	20.914060
1477.406540	-2.978600	3.510700	-10.455000	25.368999	0.000789	20.922145
1478.410678	-2.981900	3.508700	-10.462000	25.343972	0.000790	20.925939
1479.406814	-2.993100	3.510300	-10.505000	25.336740	0.000787	20.900662
1480.407097	-2.987000	3.508900	-10.479000	25.339971	0.000788	20.909596
1481.411901	-2.992400	3.509700	-10.502000	25.307586	0.000788	20.913115
1482.407119	-3.015000	3.507300	-10.574000	25.315242	0.000786	20.927438
1483.406837	-3.018500	3.507800	-10.586000	25.320164	0.000785	20.913890
1484.407972	-3.009800	3.507000	-10.555000	25.307190	0.000787	20.936896
1485.407810	-3.002300	3.508000	-10.531000	25.329561	0.000785	20.935650
1486.405891	-3.015100	3.506100	-10.570000	25.319172	0.000785	20.915263
1487.408365	-3.013800	3.507000	-10.568000	25.357846	0.000786	20.900517
1488.411264	-3.003200	3.505300	-10.525000	25.386006	0.000785	20.935902
1489.405821	-3.025000	3.505100	-10.601000	25.388716	0.000784	20.922029
1490.408236	-3.001500	3.506000	-10.522000	25.448213	0.000783	20.919659
1491.410568	-2.977200	3.507000	-10.439000	25.462827	0.000783	20.936228
1492.407566	-3.003000	3.505400	-10.525000	25.457784	0.000783	20.910778
1493.410289	-2.987400	3.505400	-10.470000	25.432460	0.000783	20.916169
1494.411105	-3.004900	3.503700	-10.528000	25.474409	0.000784	20.917516
1495.408293	-2.989900	3.505800	-10.480000	25.445608	0.000782	20.922259
1496.406809	-3.027100	3.501200	-10.596000	25.450803	0.000781	20.919889
1497.409356	-3.006100	3.503400	-10.530000	25.447748	0.000782	20.937208
1498.407729	-2.991500	3.502600	-10.477000	25.444617	0.000780	20.933590
1499.409758	-3.004300	3.502400	-10.522000	25.451428	0.000783	20.911508
1500.409861	-2.981800	3.502600	-10.444000	25.447775	0.000779	20.924434
1501.408765	-2.979600	3.502800	-10.435000	25.461916	0.000782	20.930099
1502.409177	-2.981800	3.500200	-10.435000	25.472652	0.000781	20.945146
1503.410382	-3.005500	3.501200	-10.522000	25.463955	0.000778	20.934991
1504.410957	-3.024400	3.500500	-10.586000	25.424368	0.000779	20.929378
1505.410483	-3.028600	3.499000	-10.597000	25.389152	0.000778	20.935742
1506.411433	-3.017300	3.498800	-10.556000	25.418280	0.000778	20.922792
1507.412485	-2.993900	3.498600	-10.473000	25.415995	0.000780	20.942780
1508.414472	-2.979100	3.500200	-10.426000	25.424594	0.000776	20.946199
1509.414989	-2.999600	3.499400	-10.495000	25.437469	0.000777	20.950591
1510.412225	-2.992900	3.499500	-10.473000	25.439631	0.000777	20.960822
1511.415293	-2.993600	3.497000	-10.467000	25.428672	0.000776	20.965464
1512.412259	-2.972800	3.498800	-10.400000	25.463864	0.000775	20.959078
1513.413091	-3.003900	3.496400	-10.502000	25.488144	0.000775	20.922299
1514.414962	-2.986900	3.498800	-10.449000	25.487971	0.000775	20.956734
1515.413202	-2.990200	3.498500	-10.460000	25.466178	0.000775	20.951920
1516.411145	-3.014900	3.496700	-10.542000	25.479474	0.000774	20.947255
1517.411654	-3.002400	3.496100	-10.496000	25.498214	0.000775	20.959433
1518.412925	-3.013200	3.495600	-10.532000	25.467747	0.000775	20.955865
1519.413653	-3.001500	3.496200	-10.493000	25.433155	0.000773	20.948631
1520.412131	-3.003000	3.494700	-10.493000	25.402587	0.000774	20.957764
1521.414086	-3.008500	3.494900	-10.514000	25.403558	0.000774	20.964428
1522.412558	-3.027000	3.493600	-10.574000	25.428486	0.000772	20.960536
1523.412652	-2.996500	3.494900	-10.471000	25.434625	0.000772	20.949159
1524.414268	-3.001200	3.494000	-10.484000	25.428612	0.000770	20.966826
1525.413424	-3.004800	3.494800	-10.500000	25.391310	0.000770	20.966827
1526.414072	-3.009000	3.492800	-10.509000	25.398966	0.000769	20.965506
1527.420503	-2.988800	3.492900	-10.439000	25.408461	0.000770	20.964609
1528.415421	-2.994700	3.492400	-10.458000	25.431599	0.000770	20.965084
1529.416387	-3.013300	3.491200	-10.519000	25.424941	0.000769	20.974044
1530.418410	-2.973600	3.490800	-10.379000	25.427427	0.000770	20.976066
1531.417170	-2.976300	3.491300	-10.388000	25.472037	0.000766	20.968232
1532.420907	-2.981300	3.492400	-10.410000	25.454244	0.000766	20.967909
1533.420668	-2.995900	3.489700	-10.454000	25.463467	0.000764	20.958205
1534.421489	-2.991200	3.490900	-10.440000	25.473060	0.000765	20.968785
1535.417431	-2.999300	3.489200	-10.464000	25.502287	0.000765	20.968738
1536.423804	-3.018900	3.488500	-10.530000	25.500871	0.000762	20.975850
1537.419754	-2.993500	3.488700	-10.442000	25.494114	0.000763	20.979495
1538.420360	-2.999100	3.488900	-10.462000	25.514368	0.000764	20.969016
1539.421272	-2.995900	3.488900	-10.452000	25.483331	0.000763	20.966298
1540.419960	-2.997500	3.488300	-10.454000	25.503984	0.000762	20.972338
1541.420420	-3.002200	3.487500	-10.470000	25.516758	0.000763	20.972364
1542.423429	-2.983800	3.487100	-10.403000	25.498569	0.000762	20.972590
1543.421360	-3.007500	3.486300	-10.484000	25.471681	0.000760	20.973089
1544.421242	-3.006200	3.487100	-10.482000	25.449218	0.000762	20.966655
1545.423355	-3.007300	3.485700	-10.481000	25.445541	0.000761	20.972919
1546.421955	-3.004100	3.486000	-10.471000	25.465001	0.000761	20.967805
1547.422249	-2.991500	3.484900	-10.424000	25.476956	0.000759	20.978860
1548.422529	-3.028200	3.484300	-10.549000	25.480809	0.000758	20.945276
1549.420789	-3.003900	3.485200	-10.468000	25.465801	0.000758	20.960549
1550.421611	-3.003200	3.484000	-10.462000	25.461775	0.000759	20.949870
1551.424016	-2.998700	3.485500	-10.450000	25.461951	0.000760	20.962372
1552.422857	-3.011600	3.483100	-10.489000	25.470378	0.000756	20.957085
1553.424185	-3.007600	3.481800	-10.470000	25.449031	0.000758	20.953667
1554.422924	-3.021800	3.483400	-10.525000	25.463820	0.000759	20.969463
1555.425289	-3.015000	3.481300	-10.495000	25.487007	0.000755	20.956714
1556.422306	-3.015600	3.481700	-10.498000	25.483829	0.000755	20.936456
1557.425220	-2.988400	3.481800	-10.403000	25.476572	0.000756	20.953348
1558.424669	-2.997000	3.480600	-10.429000	25.501872	0.000755	20.961684
1559.422444	-3.007900	3.481500	-10.471000	25.485647	0.000753	20.963408
1560.426144	-3.013300	3.479400	-10.483000	25.528117	0.000754	20.958643
1561.428708	-2.978100	3.482600	-10.370000	25.538431	0.000751	20.967577
1562.424983	-2.985700	3.480400	-10.391000	25.537812	0.000753	20.941829
1563.426043	-2.977300	3.479800	-10.360000	25.570216	0.000752	20.939284
1564.425436	-2.976500	3.481200	-10.361000	25.583412	0.000749	20.957750
1565.424356	-2.984000	3.479700	-10.383000	25.595314	0.000750	20.962117
1566.427787	-2.986100	3.479300	-10.389000	25.621233	0.000749	20.958277
1567.428556	-3.012000	3.477100	-10.472000	25.611295	0.000748	20.944030
1568.425289	-2.969100	3.479200	-10.330000	25.581753	0.000748	20.960825
1569.428745	-2.994500	3.477500	-10.412000	25.572659	0.000747	20.947901
1570.427775	-3.001300	3.477100	-10.435000	25.573778	0.000750	20.934327
1571.424181	-2.994300	3.476600	-10.409000	25.573631	0.000748	20.941291
1572.427608	-2.991000	3.477100	-10.398000	25.559864	0.000750	20.937897
1573.424849	-3.014200	3.476400	-10.476000	25.560811	0.000749	20.936952
1574.424408	-2.990200	3.477100	-10.396000	25.576318	0.000748	20.943989
1575.424644	-3.006200	3.476700	-10.451000	25.586630	0.000746	20.947707
1576.425820	-2.981500	3.476300	-10.364000	25.582756	0.000745	20.928172
1577.425573	-2.987900	3.474200	-10.379000	25.600997	0.000745	20.914250
1578.428374	-3.004900	3.475700	-10.443000	25.627560	0.000745	20.943295
1579.429386	-3.009600	3.474000	-10.455000	25.609769	0.000745	20.936334
1580.427836	-2.964100	3.476200	-10.303000	25.582040	0.000743	20.944046
1581.427042	-3.006700	3.474000	-10.444000	25.531524	0.000745	20.944523
1582.428996	-3.013600	3.473200	-10.465000	25.522430	0.000745	20.934917
1583.427613	-3.035900	3.472400	-10.541000	25.512266	0.000743	20.909065
1584.425845	-2.996600	3.472500	-10.405000	25.537690	0.000741	20.929854
1585.427330	-3.004100	3.473500	-10.434000	25.546165	0.000742	20.917977
1586.429345	-2.985700	3.472600	-10.366000	25.536698	0.000743	20.939288
1587.429785	-3.036900	3.470100	-10.537000	25.565325	0.000741	20.937218
1588.434153	-2.996300	3.471500	-10.401000	25.545745	0.000741	20.935098
1589.430361	-2.981900	3.472200	-10.352000	25.582200	0.000740	20.935199
1590.430686	-2.989600	3.470800	-10.375000	25.575095	0.000740	20.942287
1591.428213	-3.006300	3.470500	-10.433000	25.598679	0.000740	20.943213
1592.430103	-3.007100	3.470300	-10.435000	25.601661	0.000737	20.936726
1593.428869	-2.965400	3.470200	-10.289000	25.622211	0.000736	20.938872
1594.431125	-3.033400	3.467600	-10.518000	25.611454	0.000737	20.917165
1595.429351	-2.999700	3.468100	-10.402000	25.572096	0.000736	20.942594
1596.429241	-2.993800	3.469000	-10.383000	25.559671	0.000737	20.922058
1597.436903	-3.006000	3.467900	-10.424000	25.586186	0.000738	20.922609
1598.435082	-2.978700	3.468900	-10.332000	25.574459	0.000737	20.928374
1599.427335	-3.010200	3.467700	-10.436000	25.554482	0.000737	20.920640
1600.429256	-3.009300	3.465800	-10.429000	25.551949	0.000734	20.909089
1601.430638	-2.998300	3.466500	-10.392000	25.571407	0.000734	20.928627
1602.430192	-2.992000	3.466000	-10.368000	25.599290	0.000736	20.927233
1603.429970	-2.989200	3.465500	-10.357000	25.581101	0.000731	20.922717
1604.431272	-3.026600	3.463000	-10.480000	25.553122	0.000733	20.937765
1605.434840	-3.006500	3.464000	-10.412000	25.539507	0.000733	20.925989
1606.432120	-2.997900	3.464600	-10.385000	25.553622	0.000731	20.923096
1607.432924	-3.013100	3.463800	-10.435000	25.533545	0.000732	20.910994
1608.435864	-3.038600	3.463600	-10.523000	25.496916	0.000730	20.914987
1609.432520	-2.997200	3.461400	-10.373000	25.482753	0.000729	20.932531
1610.435884	-3.011600	3.462600	-10.427000	25.511034	0.000727	20.906880
1611.433131	-2.989200	3.462100	-10.348000	25.525920	0.000726	20.928465
1612.434898	-2.999800	3.462800	-10.386000	25.520228	0.000727	20.921801
1613.434252	-2.969100	3.461500	-10.277000	25.545700	0.000725	20.908029
1614.434916	-3.012000	3.461600	-10.424000	25.539687	0.000725	20.911947
1615.434300	-3.014600	3.460100	-10.429000	25.567742	0.000724	20.926844
1616.432365	-3.003500	3.461500	-10.396000	25.595049	0.000724	20.913493
1617.433265	-2.994000	3.461000	-10.361000	25.594652	0.000724	20.911672
1618.433355	-3.000300	3.460400	-10.381000	25.636745	0.000725	20.902264
1619.434933	-2.982800	3.461500	-10.323000	25.620766	0.000723	20.906605
1620.434308	-3.015200	3.459300	-10.430000	25.649889	0.000723	20.908827
1621.433662	-3.020400	3.457600	-10.442000	25.635204	0.000724	20.892657
1622.435595	-3.001100	3.459800	-10.383000	25.626382	0.000724	20.902288
1623.434837	-2.982400	3.460100	-10.319000	25.588215	0.000721	20.922750
1624.436821	-3.025700	3.457400	-10.460000	25.578003	0.000720	20.926718
1625.437187	-3.001900	3.459000	-10.382000	25.587693	0.000720	20.895675
1626.436033	-3.008900	3.457300	-10.401000	25.592340	0.000719	20.895600
1627.437631	-3.013100	3.458100	-10.419000	25.612018	0.000720	20.902560
1628.436509	-3.018600	3.456800	-10.434000	25.563067	0.000718	20.884220
1629.436332	-2.997400	3.457000	-10.361000	25.575515	0.000719	20.906203
1630.438079	-2.963200	3.457700	-10.245000	25.573824	0.000720	20.902135
1631.438451	-3.004500	3.456200	-10.382000	25.569725	0.000718	20.902285
1632.438825	-3.006800	3.454400	-10.386000	25.566219	0.000720	20.889282
1633.440719	-3.013400	3.454400	-10.408000	25.584682	0.000716	20.907823
1634.438843	-3.003300	3.453300	-10.370000	25.558093	0.000716	20.903406
1635.438937	-3.003200	3.453500	-10.370000	25.552276	0.000718	20.879074
1636.439867	-3.023000	3.453200	-10.438000	25.572750	0.000716	20.887781
1637.438550	-3.034000	3.452600	-10.474000	25.564700	0.000715	20.898187
1638.441574	-2.990600	3.454800	-10.330000	25.622148	0.000715	20.908466
1639.440650	-3.003400	3.453300	-10.371000	25.604877	0.000716	20.887804
1640.444124	-2.975000	3.453400	-10.273000	25.637378	0.000715	20.893893
1641.441966	-2.987500	3.452600	-10.314000	25.641677	0.000715	20.896313
1642.443510	-3.008100	3.451200	-10.379000	25.633351	0.000715	20.878469
1643.442335	-3.004900	3.450800	-10.368000	25.613497	0.000718	20.875599
1644.444213	-2.978800	3.453300	-10.285000	25.591905	0.000715	20.890896
1645.441300	-2.991200	3.451200	-10.322000	25.592897	0.000716	20.876721
1646.443515	-3.026300	3.449400	-10.437000	25.577191	0.000714	20.867586
1647.444081	-3.003600	3.450100	-10.362000	25.590236	0.000714	20.862196
1648.445722	-2.994400	3.451000	-10.331000	25.630018	0.000713	20.870855
1649.442659	-3.015700	3.448700	-10.400000	25.589591	0.000712	20.881935
1650.446115	-3.010800	3.448000	-10.380000	25.573240	0.000711	20.870730
1651.442542	-3.007300	3.448700	-10.370000	25.559996	0.000710	20.891094
1652.442293	-3.015900	3.448200	-10.398000	25.583078	0.000710	20.888196
1653.442998	-3.004500	3.448700	-10.361000	25.610115	0.000709	20.879314
1654.443410	-3.008000	3.447800	-10.370000	25.577565	0.000708	20.857531
1655.445154	-3.000800	3.447100	-10.343000	25.590286	0.000707	20.885004
1656.443614	-2.992900	3.446500	-10.314000	25.572892	0.000707	20.878441
1657.446825	-2.989400	3.448000	-10.306000	25.560989	0.000706	20.867436
1658.440783	-3.013600	3.446200	-10.385000	25.532734	0.000705	20.867984
1659.447951	-2.992900	3.446100	-10.313000	25.529903	0.000706	20.869408
1660.447497	-2.989600	3.445800	-10.301000	25.537655	0.000704	20.866762
1661.446837	-3.025200	3.443800	-10.417000	25.527018	0.000706	20.872201
1662.445070	-2.985800	3.445500	-10.286000	25.544414	0.000702	20.864067
1663.449271	-2.999600	3.445800	-10.335000	25.581712	0.000703	20.869281
1664.446210	-2.996900	3.443900	-10.320000	25.598783	0.000702	20.850865
1665.446714	-2.997600	3.443400	-10.321000	25.606262	0.000703	20.862643
1666.449670	-3.009900	3.442900	-10.362000	25.601986	0.000703	20.877315
1667.447601	-2.997100	3.443200	-10.318000	25.629618	0.000700	20.854807
1668.445202	-2.990900	3.442600	-10.296000	25.658588	0.000703	20.863514
1669.452871	-2.998300	3.441600	-10.317000	25.638164	0.000700	20.867183
1670.444161	-2.980200	3.443900	-10.263000	25.697895	0.000699	20.856053
1671.448082	-2.996300	3.440900	-10.309000	25.684155	0.000699	20.849839
1672.454962	-3.010900	3.440700	-10.359000	25.688229	0.000697	20.852035
1673.448550	-3.010800	3.440300	-10.357000	25.692254	0.000697	20.862714
1674.447300	-2.988200	3.441400	-10.281000	25.699333	0.000695	20.854653
1675.453002	-2.999800	3.441100	-10.321000	25.717792	0.000698	20.860391
1676.447077	-3.006800	3.438300	-10.338000	25.727358	0.000695	20.858145
1677.449286	-3.011600	3.440200	-10.359000	25.740028	0.000695	20.874663
1678.453746	-3.012200	3.439200	-10.359000	25.745767	0.000696	20.842024
1679.448945	-3.006200	3.438400	-10.336000	25.687404	0.000695	20.850732
1680.449310	-3.002900	3.439200	-10.327000	25.679575	0.000694	20.845240
1681.452879	-3.016200	3.437700	-10.368000	25.655175	0.000696	20.856293
1682.449836	-3.017300	3.437200	-10.370000	25.695550	0.000693	20.846111
1683.449063	-3.024000	3.436500	-10.390000	25.663075	0.000694	20.856167
1684.450743	-2.996100	3.437000	-10.296000	25.643097	0.000694	20.844638
1685.451569	-3.016400	3.437300	-10.367000	25.586170	0.000694	20.829664
1686.449207	-2.998700	3.435300	-10.301000	25.596680	0.000694	20.831684
1687.454650	-2.984400	3.436900	-10.255000	25.607663	0.000692	20.853146
1688.460886	-2.983700	3.435700	-10.250000	25.601276	0.000693	20.841516
1689.450564	-2.960200	3.436900	-10.172000	25.618294	0.000690	20.833478
1690.454127	-2.995000	3.435000	-10.286000	25.593944	0.000691	20.836997
1691.455707	-3.016600	3.433700	-10.356000	25.594788	0.000690	20.835001
1692.453640	-3.001200	3.434800	-10.307000	25.579233	0.000692	20.817483
1693.454774	-2.983600	3.433400	-10.243000	25.575231	0.000691	20.843334
1694.459189	-3.001100	3.433300	-10.302000	25.592402	0.000689	20.837819
1695.452002	-2.999900	3.433700	-10.299000	25.566954	0.000690	20.842608
1696.459332	-2.999700	3.433700	-10.299000	25.614392	0.000689	20.841412
1697.454850	-2.994600	3.432800	-10.279000	25.629944	0.000689	20.819574
1698.458594	-3.002200	3.431600	-10.301000	25.615209	0.000687	20.827060
1699.462943	-2.990700	3.432100	-10.263000	25.593765	0.000688	20.812163
1700.456225	-2.996400	3.430900	-10.279000	25.585042	0.000688	20.827583
1701.456322	-2.965500	3.433500	-10.181000	25.594733	0.000688	20.836368
1702.458016	-2.988700	3.431800	-10.255000	25.592147	0.000686	20.832822
1703.459218	-3.031900	3.431200	-10.401000	25.602261	0.000686	20.814531
1704.456711	-3.004200	3.430700	-10.304000	25.606708	0.000685	20.811885
1705.460085	-3.008200	3.429500	-10.316000	25.582431	0.000686	20.816426
1706.455546	-2.982700	3.430400	-10.231000	25.559743	0.000682	20.820194
1707.454865	-2.988700	3.429700	-10.250000	25.520083	0.000683	20.808815
1708.460442	-2.994900	3.428700	-10.267000	25.537352	0.000682	20.822363
1709.457496	-3.008200	3.429100	-10.314000	25.534122	0.000681	20.834292
1710.458869	-2.986000	3.430300	-10.243000	25.513545	0.000681	20.810310
1711.459248	-3.012700	3.427600	-10.325000	25.497664	0.000683	20.819965
1712.460594	-2.979100	3.427900	-10.211000	25.456412	0.000681	20.826429
1713.456860	-2.997300	3.426000	-10.268000	25.456437	0.000680	20.839730
1714.464434	-3.007800	3.427500	-10.308000	25.442594	0.000680	20.813502
1715.460265	-2.996700	3.426900	-10.268000	25.467768	0.000681	20.821237
1716.459639	-2.985500	3.427000	-10.231000	25.482851	0.000678	20.818840
1717.461228	-2.979300	3.425600	-10.205000	25.527183	0.000680	20.805987
1718.461948	-3.006300	3.426300	-10.299000	25.522213	0.000678	20.814273
1719.461133	-3.017200	3.423200	-10.327000	25.474027	0.000676	20.798600
1720.465405	-2.974900	3.424900	-10.187000	25.454965	0.000677	20.781829
1721.460606	-2.988100	3.423800	-10.231000	25.448354	0.000676	20.799371
1722.457654	-3.024200	3.423000	-10.351000	25.427950	0.000675	20.784098
1723.464754	-2.999000	3.423400	-10.267000	25.430484	0.000677	20.816515
1724.458284	-2.977900	3.423900	-10.195000	25.450961	0.000676	20.810050
1725.458431	-2.987100	3.423800	-10.226000	25.485703	0.000675	20.798945
1726.464959	-3.016000	3.422200	-10.320000	25.502849	0.000674	20.805732
1727.459821	-3.001400	3.421900	-10.270000	25.539725	0.000675	20.819057
1728.463951	-3.028800	3.421800	-10.363000	25.544297	0.000674	20.818906
1729.465113	-3.020700	3.421200	-10.333000	25.554309	0.000675	20.804780
1730.464869	-2.983900	3.422500	-10.212000	25.522652	0.000675	20.788160
1731.459933	-3.016400	3.420900	-10.318000	25.534379	0.000674	20.795671
1732.473213	-2.987600	3.421100	-10.220000	25.542007	0.000674	20.806650
1733.464612	-2.987300	3.421800	-10.221000	25.537658	0.000674	20.793748
1734.464741	-2.991700	3.421200	-10.233000	25.534478	0.000673	20.801459
1735.466967	-2.988600	3.421600	-10.225000	25.550107	0.000672	20.792973
1736.467633	-3.006300	3.419300	-10.278000	25.581193	0.000672	20.792424
1737.466850	-2.999200	3.419800	-10.255000	25.613321	0.000670	20.789603
1738.470373	-2.983900	3.419200	-10.200000	25.599729	0.000671	20.779272
1739.465605	-3.019300	3.416900	-10.316000	25.583032	0.000669	20.790477
1740.465755	-3.015400	3.419100	-10.309000	25.537506	0.000671	20.810665
1741.469444	-2.993300	3.418100	-10.229000	25.536587	0.000672	20.799310
1742.473032	-3.020100	3.417600	-10.321000	25.544018	0.000670	20.787332
1743.467420	-2.997900	3.417400	-10.244000	25.565587	0.000670	20.800458
1744.472756	-2.994100	3.417600	-10.232000	25.576570	0.000668	20.792523
1745.468148	-2.995500	3.416500	-10.233000	25.563128	0.000669	20.786135
1746.467292	-2.995800	3.416100	-10.233000	25.583703	0.000669	20.782617
1747.470103	-3.006500	3.414700	-10.266000	25.560644	0.000667	20.800710
1748.467793	-2.995100	3.414900	-10.227000	25.582089	0.000667	20.790005
1749.472859	-2.978100	3.414100	-10.167000	25.618467	0.000667	20.793349
1750.470145	-3.030700	3.414000	-10.345000	25.633574	0.000666	20.773908
1751.468586	-3.015700	3.415200	-10.297000	25.659962	0.000665	20.781919
1752.467592	-3.010300	3.415100	-10.280000	25.644135	0.000665	20.799214
1753.473211	-3.002300	3.414200	-10.249000	25.637326	0.000664	20.771512
1754.469319	-3.035100	3.411800	-10.354000	25.637898	0.000663	20.779673
1755.467926	-3.003400	3.414000	-10.253000	25.644359	0.000663	20.783792
1756.470421	-3.003100	3.412400	-10.247000	25.602740	0.000665	20.787037
1757.473186	-2.983900	3.412600	-10.182000	25.592751	0.000664	20.789807
1758.468948	-3.008200	3.412100	-10.263000	25.554186	0.000662	20.799440
1759.471308	-2.974200	3.412800	-10.150000	25.569965	0.000662	20.772139
1760.476929	-3.000500	3.411400	-10.235000	25.589424	0.000661	20.790259
1761.467705	-3.004700	3.411000	-10.248000	25.594516	0.000661	20.793950
1762.475810	-3.027400	3.410500	-10.324000	25.631890	0.000662	20.799244
1763.472180	-3.011900	3.410600	-10.271000	25.649258	0.000659	20.778755
1764.470624	-3.021300	3.410300	-10.303000	25.675496	0.000659	20.781874
1765.475409	-2.972400	3.410300	-10.136000	25.681583	0.000660	20.795100
1766.472354	-3.010500	3.409900	-10.263000	25.662675	0.000657	20.785592
1767.470093	-2.998600	3.409800	-10.223000	25.658030	0.000655	20.788987
1768.476915	-2.995700	3.408700	-10.210000	25.598769	0.000655	20.795377
1769.473433	-2.976400	3.409900	-10.148000	25.575833	0.000656	20.789886
1770.475111	-3.005900	3.407600	-10.242000	25.565321	0.000656	20.776484
1771.472503	-2.981900	3.408200	-10.161000	25.596457	0.000655	20.792581
1772.473557	-2.998000	3.409000	-10.218000	25.611166	0.000654	20.776059
1773.472019	-3.005900	3.407000	-10.240000	25.589473	0.000654	20.784145
1774.475939	-2.984900	3.408500	-10.173000	25.618171	0.000653	20.778827
1775.477589	-2.986500	3.407900	-10.176000	25.631987	0.000652	20.775633
1776.475990	-3.002800	3.406900	-10.229000	25.607485	0.000654	20.791328
1777.477810	-2.995200	3.405900	-10.201000	25.629303	0.000652	20.782895
1778.477972	-2.993900	3.406000	-10.196000	25.625476	0.000650	20.780000
1779.480346	-3.007200	3.404000	-10.235000	25.657926	0.000651	20.798841
1780.478796	-2.988100	3.404400	-10.172000	25.664385	0.000650	20.788258
1781.476340	-3.017200	3.404600	-10.271000	25.653824	0.000649	20.782393
1782.476575	-2.999900	3.404800	-10.213000	25.633872	0.000649	20.772311
1783.477450	-2.988500	3.404700	-10.174000	25.666370	0.000650	20.802580
1784.479253	-3.003600	3.404300	-10.224000	25.668059	0.000647	20.788155
1785.477880	-2.981600	3.404500	-10.150000	25.642964	0.000648	20.796615
1786.478982	-3.011400	3.403600	-10.249000	25.654863	0.000648	20.818524
1787.478560	-3.012400	3.402100	-10.248000	25.670765	0.000647	20.770958
1788.478612	-2.983000	3.402300	-10.148000	25.658565	0.000648	20.790948
1789.479756	-2.993400	3.402600	-10.185000	25.696778	0.000647	20.777171
1790.479082	-2.971200	3.402600	-10.109000	25.694913	0.000649	20.784781
1791.478695	-2.982900	3.402300	-10.148000	25.708874	0.000646	20.779837
1792.482553	-3.010200	3.399900	-10.234000	25.725521	0.000647	20.781385
1793.479897	-3.005100	3.401200	-10.220000	25.754340	0.000647	20.770029
1794.477489	-2.979400	3.401000	-10.132000	25.732873	0.000646	20.805365
1795.479135	-3.014700	3.398800	-10.245000	25.685144	0.000645	20.759322
1796.480690	-2.982900	3.399100	-10.138000	25.680199	0.000645	20.778537
1797.476890	-3.004500	3.398200	-10.209000	25.706112	0.000646	20.773745
1798.479316	-2.997700	3.399600	-10.190000	25.691254	0.000645	20.770200
1799.479684	-2.994400	3.398500	-10.176000	25.696372	0.000643	20.787669
1800.478748	-3.001200	3.397300	-10.195000	25.709068	0.000643	20.793309
1801.479155	-2.994600	3.398200	-10.175000	25.674406	0.000641	20.785521
1802.482530	-3.002900	3.397600	-10.201000	25.648168	0.000644	20.763910
1803.479382	-3.043800	3.396400	-10.336000	25.610151	0.000641	20.787842
1804.487549	-3.012800	3.398700	-10.238000	25.553496	0.000642	20.794006
1805.483525	-3.037300	3.395700	-10.313000	25.563137	0.000643	20.769074
1806.478040	-3.012400	3.396400	-10.230000	25.545196	0.000639	20.788041
1807.481761	-3.000400	3.395100	-10.185000	25.560775	0.000639	20.789936
1808.486328	-2.978000	3.396400	-10.114000	25.580132	0.000639	20.787566
1809.487086	-2.992600	3.395200	-10.160000	25.574491	0.000640	20.782374
1810.481973	-2.996700	3.396300	-10.176000	25.599689	0.000638	20.759790
1811.484231	-2.993500	3.395100	-10.162000	25.607091	0.000638	20.781923
1812.482682	-3.010800	3.393900	-10.217000	25.663395	0.000639	20.792480
1813.483199	-2.985300	3.394100	-10.131000	25.650872	0.000638	20.769944
1814.483428	-3.013100	3.393400	-10.223000	25.689955	0.000636	20.790707
1815.481401	-2.985100	3.393800	-10.129000	25.683991	0.000636	20.797045
1816.482121	-2.990500	3.393300	-10.146000	25.689331	0.000634	20.770166
1817.480881	-3.014700	3.393400	-10.229000	25.679145	0.000633	20.800712
1818.480053	-3.000500	3.393100	-10.180000	25.641699	0.000633	20.767370
1819.480254	-2.979900	3.393400	-10.111000	25.621274	0.000634	20.779573
1820.480802	-3.008200	3.392800	-10.206000	25.621895	0.000634	20.774032
1821.481049	-2.998300	3.393200	-10.173000	25.592995	0.000631	20.780095
1822.483840	-2.979900	3.392400	-10.108000	25.598114	0.000632	20.783813
1823.488063	-2.974600	3.392300	-10.089000	25.584795	0.000631	20.797938
1824.484131	-3.009300	3.389500	-10.199000	25.568741	0.000631	20.800307
1825.483404	-3.009400	3.389200	-10.198000	25.574282	0.000629	20.769362
1826.485965	-2.998600	3.390700	-10.166000	25.583152	0.000628	20.788227
1827.492486	-3.012600	3.390200	-10.212000	25.609663	0.000628	20.776446
1828.491100	-2.976700	3.390100	-10.090000	25.636077	0.000628	20.784483
1829.492994	-3.003500	3.388800	-10.177000	25.662711	0.000627	20.795586
1830.486062	-2.992600	3.390500	-10.145000	25.681941	0.000628	20.781710
1831.487101	-3.005800	3.388200	-10.183000	25.704873	0.000627	20.804268
1832.491693	-2.993600	3.387800	-10.140000	25.746389	0.000626	20.794760
1833.486394	-3.015000	3.386700	-10.209000	25.733370	0.000626	20.797804
1834.488047	-2.979800	3.388500	-10.096000	25.701666	0.000625	20.804366
1835.491120	-2.997000	3.387600	-10.152000	25.692770	0.000627	20.788318
1836.487491	-3.030600	3.385200	-10.258000	25.695675	0.000627	20.798823
1837.492481	-2.993100	3.385900	-10.133000	25.726805	0.000626	20.803538
1838.490981	-2.992200	3.386800	-10.133000	25.722432	0.000625	20.788714
1839.485542	-2.994800	3.386200	-10.140000	25.695324	0.000625	20.780453
1840.489591	-2.981700	3.386600	-10.097000	25.710330	0.000627	20.796473
1841.491920	-3.017100	3.384900	-10.211000	25.707895	0.000624	20.786915
1842.488426	-3.010700	3.384800	-10.190000	25.721931	0.000623	20.765451
1843.487687	-3.001100	3.384600	-10.156000	25.686824	0.000625	20.779501
1844.493549	-3.002000	3.385100	-10.161000	25.718353	0.000623	20.797419
1845.489755	-2.976300	3.385300	-10.075000	25.721655	0.000622	20.797891
1846.491286	-3.027600	3.383200	-10.242000	25.754301	0.000623	20.793698
1847.497600	-3.001400	3.384400	-10.158000	25.750400	0.000621	20.772235
1848.497437	-3.003000	3.384300	-10.162000	25.785107	0.000622	20.788606
1849.499876	-2.968300	3.384300	-10.044000	25.796260	0.000620	20.788904
1850.498556	-2.993900	3.383700	-10.130000	25.816880	0.000621	20.790176
1851.496230	-2.985600	3.383100	-10.100000	25.815563	0.000621	20.778896
1852.494959	-2.993200	3.382600	-10.124000	25.794296	0.000620	20.787879
1853.498436	-2.993300	3.382700	-10.124000	25.786519	0.000619	20.805197
1854.495609	-3.010200	3.381200	-10.178000	25.753177	0.000622	20.798259
1855.503599	-2.989100	3.382100	-10.109000	25.760605	0.000620	20.791495
1856.499176	-2.969300	3.382400	-10.042000	25.733647	0.000617	20.783383
1857.496262	-2.981000	3.380300	-10.076000	25.722813	0.000620	20.793839
1858.498813	-3.012000	3.380100	-10.179000	25.736427	0.000619	20.792814
1859.500497	-2.994300	3.380900	-10.123000	25.713470	0.000619	20.782557
1860.497746	-3.001100	3.380300	-10.143000	25.719009	0.000616	20.807561
1861.495564	-2.985600	3.380300	-10.091000	25.722710	0.000616	20.793261
1862.501929	-3.020800	3.377400	-10.202000	25.724101	0.000615	20.811727
1863.497652	-2.994300	3.378800	-10.117000	25.709168	0.000617	20.791987
1864.496813	-2.999300	3.379400	-10.134000	25.713814	0.000615	20.795705
1865.500126	-2.990400	3.377600	-10.100000	25.740895	0.000616	20.816268
1866.497787	-2.986400	3.378000	-10.087000	25.754633	0.000614	20.810626
1867.500721	-2.997900	3.378000	-10.126000	25.802656	0.000615	20.813820
1868.501621	-3.005100	3.376800	-10.146000	25.779675	0.000614	20.794529
1869.498023	-2.995400	3.376900	-10.115000	25.831746	0.000613	20.792307
1870.498783	-3.003500	3.377100	-10.142000	25.802878	0.000614	20.809776
1871.503146	-3.006000	3.376600	-10.148000	25.794081	0.000614	20.816586
1872.504540	-3.009200	3.374600	-10.154000	25.791001	0.000612	20.800216
1873.500760	-2.961300	3.377200	-10.000000	25.764839	0.000610	20.784368
1874.503136	-3.013800	3.374900	-10.170000	25.798328	0.000611	20.803309
1875.499136	-2.996400	3.374700	-10.109000	25.798477	0.000609	20.819105
1876.503710	-3.036300	3.373100	-10.240000	25.762825	0.000611	20.786613
1877.505892	-2.982400	3.374500	-10.063000	25.769210	0.000609	20.813889
1878.498906	-2.991400	3.374400	-10.093000	25.784290	0.000608	20.810545
1879.502282	-3.007900	3.372400	-10.142000	25.803270	0.000607	20.820601
1880.502879	-3.014200	3.372700	-10.165000	25.820387	0.000606	20.805553
1881.499032	-2.987400	3.373800	-10.077000	25.859390	0.000605	20.818180
1882.500906	-2.999300	3.372700	-10.115000	25.865276	0.000606	20.812239
1883.503493	-3.002000	3.372800	-10.124000	25.869524	0.000605	20.810343
1884.501326	-3.006300	3.373300	-10.140000	25.899433	0.000605	20.818103
1885.509418	-3.004000	3.371600	-10.128000	25.898564	0.000605	20.830980
1886.511800	-2.991800	3.370900	-10.084000	25.931552	0.000603	20.800584
1887.508447	-3.005400	3.370700	-10.130000	25.922932	0.000604	20.819425
1888.504274	-2.996400	3.371300	-10.100000	25.940592	0.000601	20.808244
1889.508538	-3.009600	3.370500	-10.143000	25.958998	0.000602	20.804450
1890.508713	-2.987400	3.371500	-10.071000	25.959072	0.000603	20.800257
1891.509332	-3.015400	3.371200	-10.165000	25.960090	0.000601	20.829254
1892.510302	-3.018000	3.369100	-10.167000	25.953134	0.000599	20.820370
1893.508470	-3.029100	3.368400	-10.202000	25.909339	0.000599	20.823788
1894.509997	-2.998200	3.368100	-10.097000	25.863630	0.000599	20.821017
1895.514474	-2.983100	3.369300	-10.050000	25.822888	0.000600	20.808539
1896.513793	-2.995700	3.369500	-10.093000	25.844127	0.000598	20.827503
1897.510042	-3.003600	3.369300	-10.119000	25.850908	0.000597	20.814401
1898.514740	-2.994600	3.367300	-10.082000	25.855379	0.000598	20.834539
1899.514666	-2.984800	3.367300	-10.050000	25.876592	0.000596	20.820762
1900.512088	-2.982900	3.367400	-10.043000	25.906601	0.000598	20.812976
1901.515330	-3.009800	3.366700	-10.131000	25.903792	0.000596	20.803517
1902.514617	-3.000200	3.365900	-10.097000	25.917404	0.000595	20.806286
1903.514201	-3.015500	3.365600	-10.148000	25.926719	0.000596	20.820859
1904.516184	-2.991300	3.366500	-10.069000	25.923514	0.000595	20.829967
1905.514163	-3.014200	3.366000	-10.145000	25.922842	0.000594	20.825973
1906.509789	-2.998300	3.365100	-10.088000	25.877805	0.000596	20.816765
1907.512563	-2.996500	3.366300	-10.087000	25.858526	0.000596	20.827269
1908.512402	-2.996000	3.364900	-10.081000	25.854079	0.000593	20.815690
1909.518182	-2.985800	3.365200	-10.046000	25.871914	0.000593	20.819381
1910.511351	-2.989700	3.365000	-10.059000	25.909748	0.000595	20.819457
1911.512105	-2.995200	3.364400	-10.076000	25.902867	0.000592	20.829139
1912.513410	-2.994200	3.363000	-10.068000	25.921696	0.000595	20.799217
1913.510122	-2.991400	3.364300	-10.063000	25.953789	0.000593	20.830511
1914.518049	-2.993900	3.363600	-10.069000	25.948150	0.000593	20.812992
1915.519005	-2.979500	3.363600	-10.020000	25.919459	0.000593	20.808824
1916.523449	-3.012600	3.362800	-10.129000	25.915807	0.000592	20.837871
1917.513914	-2.972200	3.363600	-9.996300	25.953465	0.000592	20.824495
1918.512967	-2.976800	3.362000	-10.007000	25.956272	0.000592	20.816884
1919.514631	-3.021200	3.361800	-10.156000	25.944721	0.000590	20.812866
1920.513916	-2.997500	3.361300	-10.075000	25.946113	0.000589	20.819954
1921.518409	-3.007800	3.360100	-10.106000	25.939530	0.000591	20.838470
1922.515883	-2.993800	3.360900	-10.060000	25.891040	0.000593	20.830534
1923.516665	-3.007100	3.359600	-10.102000	25.880159	0.000589	20.828139
1924.515879	-2.994400	3.360500	-10.061000	25.859889	0.000589	20.837173
1925.516878	-2.975200	3.360600	-9.997300	25.808687	0.000589	20.843111
1926.518999	-3.019400	3.358400	-10.139000	25.790129	0.000591	20.846755
1927.518457	-2.991200	3.357700	-10.043000	25.766577	0.000589	20.848227
1928.519073	-2.989600	3.359100	-10.041000	25.826425	0.000589	20.838170
1929.520226	-3.014200	3.356500	-10.117000	25.843046	0.000588	20.834478
1930.522488	-2.995900	3.357800	-10.059000	25.825557	0.000587	20.843462
1931.520361	-2.997000	3.357700	-10.062000	25.851220	0.000586	20.828464
1932.521859	-2.987800	3.357300	-10.030000	25.856561	0.000586	20.847580
1933.520844	-3.014700	3.356400	-10.118000	25.855096	0.000585	20.845634
1934.522451	-2.986400	3.357700	-10.027000	25.881578	0.000585	20.841417
1935.522314	-2.981300	3.357500	-10.008000	25.871741	0.000586	20.841018
1936.522593	-3.007800	3.356500	-10.094000	25.901427	0.000584	20.841917
1937.522199	-2.975700	3.356600	-9.987300	25.891765	0.000583	20.848331
1938.527782	-2.994100	3.355200	-10.045000	25.930739	0.000582	20.843863
1939.523986	-2.986000	3.356200	-10.020000	25.921500	0.000583	20.854021
1940.521465	-3.007900	3.354400	-10.089000	25.881183	0.000582	20.864727
1941.523279	-2.980800	3.356100	-10.003000	25.874675	0.000582	20.870043
1942.520593	-3.014600	3.353100	-10.107000	25.872191	0.000583	20.868969
1943.523625	-2.980000	3.354700	-9.995300	25.853063	0.000580	20.858764
1944.523409	-2.990000	3.353700	-10.026000	25.827824	0.000581	20.872290
1945.522244	-2.993900	3.353600	-10.040000	25.826134	0.000579	20.880075
1946.522573	-2.988800	3.354300	-10.024000	25.849835	0.000579	20.875435
1947.530715	-3.014900	3.353000	-10.108000	25.852221	0.000578	20.845590
1948.523993	-2.989800	3.352500	-10.022000	25.862182	0.000579	20.851330
1949.522638	-2.985300	3.352000	-10.006000	25.843948	0.000577	20.873789
1950.523679	-3.009400	3.353600	-10.091000	25.841987	0.000577	20.849534
1951.522643	-2.988800	3.351300	-10.015000	25.873238	0.000576	20.868599
1952.522330	-2.985200	3.352000	-10.004000	25.876196	0.000576	20.858769
1953.526990	-3.009200	3.351200	-10.084000	25.875823	0.000578	20.871670
1954.527689	-3.012900	3.352300	-10.100000	25.819456	0.000575	20.878109
1955.529391	-3.009200	3.350400	-10.081000	25.785719	0.000575	20.868402
1956.528528	-3.001000	3.350100	-10.053000	25.742714	0.000573	20.860767
1957.533225	-2.989000	3.351200	-10.015000	25.735211	0.000575	20.871248
1958.526653	-3.023900	3.348600	-10.125000	25.715286	0.000572	20.879683
1959.526632	-3.001000	3.350100	-10.053000	25.678663	0.000573	20.868504
1960.538796	-2.997600	3.348900	-10.038000	25.682913	0.000574	20.883677
1961.529073	-3.012000	3.347900	-10.083000	25.690666	0.000573	20.882929
1962.532600	-3.019000	3.347400	-10.105000	25.716829	0.000571	20.891189
1963.533273	-2.999300	3.349200	-10.045000	25.756035	0.000573	20.892163
1964.529829	-2.988700	3.347300	-10.004000	25.799215	0.000570	20.877216
1965.536298	-3.005300	3.347700	-10.060000	25.839560	0.000572	20.877441
1966.536473	-2.970500	3.347200	-9.941600	25.847585	0.000571	20.875546
1967.530068	-3.003300	3.347700	-10.053000	25.910585	0.000569	20.885253
1968.536997	-3.003700	3.346600	-10.051000	25.908723	0.000569	20.916097
1969.534418	-2.979500	3.346400	-9.969800	25.936123	0.000569	20.900477
1970.531985	-3.023400	3.344900	-10.111000	25.947823	0.000569	20.890421
1971.535939	-3.012600	3.345700	-10.078000	25.953487	0.000569	20.896585
1972.534009	-2.998400	3.345500	-10.030000	25.944645	0.000568	20.894814
1973.538613	-3.016600	3.343500	-10.086000	25.896131	0.000567	20.896811
1974.537088	-3.006100	3.344500	-10.053000	25.860112	0.000567	20.881491
1975.538002	-2.985700	3.344900	-9.985600	25.822849	0.000566	20.914230
1976.535860	-3.033500	3.342600	-10.139000	25.835172	0.000567	20.883938
1977.538684	-3.011000	3.344400	-10.069000	25.861604	0.000565	20.915229
1978.535296	-2.994100	3.342500	-10.007000	25.859692	0.000563	20.909990
1979.537018	-3.034900	3.343900	-10.147000	25.903265	0.000565	20.887383
1980.535808	-3.021500	3.342100	-10.097000	25.922418	0.000563	20.903778
1981.536269	-2.993000	3.343200	-10.004000	25.940950	0.000564	20.903904
1982.539790	-3.007100	3.342300	-10.050000	25.958016	0.000564	20.911090
1983.535682	-2.992100	3.342400	-9.999900	25.973045	0.000562	20.908647
1984.538558	-3.008700	3.341400	-10.052000	26.015992	0.000562	20.909121
1985.537311	-2.996000	3.342000	-10.012000	26.015645	0.000563	20.904031
1986.537406	-2.990600	3.340800	-9.990300	26.019694	0.000561	20.914736
1987.537270	-2.978400	3.340900	-9.949600	26.051909	0.000561	20.921498
1988.537021	-3.000000	3.340000	-10.018000	26.044905	0.000560	20.919203
1989.536285	-2.996800	3.339100	-10.005000	26.012318	0.000560	20.922024
1990.536463	-3.010200	3.339100	-10.050000	26.015598	0.000560	20.922948
1991.537614	-3.003000	3.339200	-10.026000	26.000173	0.000558	20.883747
1992.538653	-2.976200	3.339700	-9.938600	26.019349	0.000558	20.910597
1993.542470	-3.015300	3.337800	-10.063000	26.044237	0.000558	20.920902
1994.537585	-3.013900	3.337200	-10.057000	26.077545	0.000558	20.912643
1995.539871	-3.002300	3.338800	-10.024000	26.119544	0.000555	20.931607
1996.535472	-3.003500	3.337900	-10.024000	26.120314	0.000557	20.931908
1997.538263	-2.984600	3.337100	-9.958600	26.155581	0.000555	20.911870
1998.539455	-2.975800	3.337500	-9.929800	26.165789	0.000556	20.915015
1999.539578	-2.987900	3.337600	-9.971100	26.167104	0.000553	20.936723
2000.537200	-2.979000	3.336800	-9.938700	26.152999	0.000553	20.940092
2001.543532	-2.994600	3.336700	-9.991100	26.134994	0.000554	20.913943
2002.539772	-2.993400	3.336200	-9.985200	26.141749	0.000553	20.924049
2003.538049	-2.996400	3.336200	-9.995300	26.147362	0.000553	20.932059
2004.545579	-2.999700	3.336100	-10.007000	26.145649	0.000551	20.934130
2005.540136	-2.992600	3.336800	-9.984100	26.092326	0.000552	20.941716
2006.542375	-3.020100	3.335400	-10.072000	26.122626	0.000551	20.936600
2007.542478	-2.980100	3.335300	-9.937500	26.095132	0.000549	20.938846
2008.541465	-3.032100	3.333500	-10.106000	26.143736	0.000549	20.944535
2009.539793	-2.999600	3.335100	-10.003000	26.153547	0.000551	20.945384
2010.541373	-3.006600	3.334200	-10.024000	26.156677	0.000549	20.951373
2011.540916	-3.017200	3.333700	-10.057000	26.160700	0.000548	20.944511
2012.542958	-3.010800	3.333300	-10.035000	26.157622	0.000548	20.944263
2013.541760	-3.043200	3.331600	-10.138000	26.165047	0.000545	20.943664
2014.544685	-2.989400	3.331900	-9.958900	26.127546	0.000546	20.958611
2015.546503	-2.979800	3.332200	-9.927900	26.132017	0.000547	20.942717
2016.549217	-2.997100	3.332600	-9.987300	26.121314	0.000545	20.943816
2017.546082	-2.982500	3.333700	-9.941800	26.089224	0.000545	20.922480
2018.543308	-2.998100	3.331800	-9.987700	26.048765	0.000545	20.921658
2019.550354	-2.990800	3.330300	-9.958700	26.044096	0.000544	20.943991
2020.544641	-2.965800	3.332300	-9.882200	26.068786	0.000542	20.938453
2021.543935	-2.995100	3.330400	-9.974300	26.094343	0.000543	20.930468
2022.548653	-2.987200	3.330600	-9.947900	26.120869	0.000542	20.936257
2023.546621	-3.010100	3.329100	-10.019000	26.122608	0.000541	20.933264
2024.544749	-2.995300	3.328800	-9.970200	26.132966	0.000539	20.946989
2025.549033	-2.977000	3.330100	-9.912300	26.134928	0.000537	20.926677
2026.547497	-2.994600	3.329700	-9.969800	26.159044	0.000540	20.931470
2027.550225	-3.015500	3.328800	-10.036000	26.164559	0.000541	20.921838
2028.552786	-3.002300	3.328200	-9.991000	26.153781	0.000540	20.921915
2029.547890	-3.004600	3.328700	-9.999300	26.176680	0.000538	20.940180
2030.546933	-3.013400	3.325800	-10.022000	26.172384	0.000539	20.905522
2031.551589	-2.984500	3.326700	-9.927000	26.135802	0.000538	20.928030
2032.552734	-2.994100	3.327400	-9.961600	26.133468	0.000538	20.935641
2033.546350	-3.004000	3.325500	-9.989100	26.105055	0.000536	20.904724
2034.547225	-2.981800	3.326400	-9.917700	26.086876	0.000537	20.910165
2035.553769	-3.003500	3.324600	-9.983800	26.077836	0.000536	20.915780
2036.550478	-3.011600	3.324400	-10.011000	26.050491	0.000536	20.916281
2037.552401	-2.980900	3.325300	-9.911800	26.092019	0.000535	20.918651
2038.551729	-3.005600	3.323800	-9.987900	26.081415	0.000535	20.929807
2039.553160	-3.000700	3.324600	-9.975000	26.104339	0.000534	20.924866
2040.548806	-2.998600	3.324300	-9.966900	26.100291	0.000531	20.920799
2041.550198	-3.012200	3.323600	-10.010000	26.085763	0.000533	20.921374
2042.554860	-3.000600	3.323500	-9.971200	26.071407	0.000529	20.921174
2043.555062	-3.003000	3.323800	-9.979900	26.044459	0.000533	20.903583
2044.548548	-2.988700	3.323300	-9.931300	26.011200	0.000530	20.908099
2045.548820	-3.016800	3.322000	-10.021000	25.971110	0.000529	20.919029
2046.551306	-3.001000	3.321400	-9.966800	25.994385	0.000529	20.915387
2047.553920	-2.997200	3.322100	-9.956000	26.036040	0.000530	20.911245
2048.555093	-2.951200	3.323100	-9.806000	26.028812	0.000528	20.909198
2049.552483	-3.010500	3.320300	-9.994400	26.074240	0.000528	20.910746
2050.553409	-3.006700	3.320500	-9.982400	26.061673	0.000527	20.898594
2051.555280	-2.999000	3.320700	-9.957800	26.050397	0.000527	20.909548
2052.554170	-2.989100	3.319700	-9.921600	26.038822	0.000528	20.898868
2053.552460	-2.993600	3.321000	-9.940200	26.024516	0.000527	20.914839
2054.553298	-3.017200	3.319000	-10.013000	26.016691	0.000525	20.919779
2055.554278	-3.010200	3.319500	-9.990800	25.984127	0.000525	20.903659
2056.554974	-2.991200	3.318500	-9.924300	25.991555	0.000525	20.890734
2057.558887	-2.998300	3.317900	-9.946700	25.969993	0.000525	20.896572
2058.554392	-3.001600	3.317000	-9.954700	26.029507	0.000523	20.906104
2059.556432	-2.985300	3.317800	-9.902800	26.064777	0.000524	20.906928
2060.555079	-2.976300	3.318700	-9.875700	26.089987	0.000522	20.922773
2061.554529	-2.983300	3.316500	-9.893100	26.133153	0.000522	20.904981
2062.558388	-2.997700	3.318200	-9.945800	26.166954	0.000521	20.883472
2063.559469	-3.010400	3.316200	-9.982200	26.191068	0.000521	20.893004
2064.554673	-3.016100	3.316500	-10.003000	26.231350	0.000520	20.886541
2065.557187	-2.993200	3.315700	-9.923600	26.245033	0.000521	20.890334
2066.562929	-2.997000	3.314700	-9.933300	26.202542	0.000521	20.901688
2067.555782	-2.995600	3.316000	-9.932100	26.175025	0.000519	20.894900
2068.558660	-2.993000	3.314100	-9.918700	26.164868	0.000520	20.895599
2069.558946	-3.007000	3.315100	-9.966400	26.190348	0.000517	20.896073
2070.557335	-3.009700	3.313600	-9.971300	26.201300	0.000514	20.899965
2071.559797	-2.989000	3.315000	-9.907300	26.230579	0.000518	20.883396
2072.557809	-3.006300	3.314500	-9.961800	26.247490	0.000517	20.889485
2073.568176	-3.011200	3.314600	-9.978800	26.273069	0.000516	20.876783
2074.560378	-3.015600	3.312800	-9.989100	26.321193	0.000518	20.891007
2075.567770	-3.003900	3.312900	-9.949900	26.308182	0.000515	20.896896
2076.559751	-3.002500	3.313400	-9.947400	26.305848	0.000515	20.877483
2077.561719	-3.009900	3.311900	-9.967500	26.304258	0.000513	20.882523
2078.567296	-2.982100	3.312000	-9.875200	26.314539	0.000515	20.887639
2079.559001	-3.021600	3.309800	-10.000000	26.322112	0.000513	20.887189
2080.575769	-3.001000	3.312100	-9.938700	26.344088	0.000513	20.884145
2081.563302	-2.982600	3.310400	-9.872900	26.345355	0.000510	20.896798
2082.561119	-2.999000	3.311100	-9.929400	26.351091	0.000513	20.885967
2083.563441	-3.021900	3.309900	-10.001000	26.348310	0.000512	20.889336
2084.560149	-3.034500	3.308100	-10.037000	26.373016	0.000513	20.894252
2085.562266	-3.022400	3.308200	-9.997200	26.388238	0.000512	20.884895
2086.566826	-3.000100	3.309800	-9.928900	26.402640	0.000511	20.890360
2087.564269	-2.993800	3.308600	-9.903600	26.392907	0.000510	20.856398
2088.568455	-3.004700	3.309200	-9.942100	26.431493	0.000509	20.875264
2089.567130	-2.998300	3.309000	-9.919100	26.441225	0.000509	20.876986
2090.558853	-3.030500	3.307500	-10.022000	26.461039	0.000508	20.873194
2091.560144	-2.999600	3.308500	-9.922800	26.453094	0.000507	20.871847
2092.564549	-3.013800	3.307800	-9.967700	26.475465	0.000508	20.883900
2093.561719	-3.003800	3.307300	-9.933800	26.451805	0.000509	20.878610
2094.562622	-3.009300	3.306200	-9.948400	26.449893	0.000506	20.879060
2095.562705	-3.013500	3.307200	-9.965000	26.409174	0.000507	20.879385
2096.564301	-3.009900	3.306400	-9.951200	26.368478	0.000505	20.863615
2097.569214	-2.984100	3.306400	-9.865800	26.365053	0.000506	20.879137
2098.564172	-3.000000	3.305100	-9.913900	26.337466	0.000504	20.875594
2099.568166	-2.994000	3.305400	-9.896000	26.326715	0.000505	20.876643
2100.569777	-2.976800	3.306300	-9.841100	26.301536	0.000504	20.888795
2101.569969	-2.993500	3.306200	-9.896400	26.278642	0.000503	20.901823
2102.565897	-3.019000	3.303000	-9.971200	26.271689	0.000502	20.863544
2103.562506	-3.030200	3.302500	-10.006000	26.307871	0.000502	20.885679
2104.564462	-3.002000	3.303800	-9.916700	26.311621	0.000500	20.857682
2105.566452	-3.009900	3.303300	-9.941600	26.318475	0.000500	20.875949
2106.571936	-3.002600	3.303100	-9.916900	26.290539	0.000499	20.873004
2107.566595	-3.026700	3.302200	-9.993400	26.313759	0.000501	20.859355
2108.567477	-2.987200	3.302900	-9.865500	26.326969	0.000499	20.864571
2109.572043	-3.006200	3.302100	-9.925900	26.337448	0.000498	20.865619
2110.569482	-3.003900	3.301300	-9.915400	26.370947	0.000499	20.877949
2111.570300	-2.995200	3.302100	-9.889300	26.376881	0.000498	20.863999
2112.567496	-2.990900	3.301100	-9.872200	26.389173	0.000496	20.874456
2113.566513	-3.002400	3.299600	-9.906000	26.379764	0.000499	20.890602
2114.571467	-3.017900	3.299600	-9.956900	26.408766	0.000494	20.870440
2115.571334	-2.977500	3.300100	-9.824400	26.406580	0.000496	20.860183
2116.572541	-2.984900	3.299100	-9.846700	26.426991	0.000494	20.852249
2117.573820	-2.998200	3.300400	-9.894100	26.416464	0.000495	20.857790
2118.569907	-3.005900	3.299500	-9.915600	26.427911	0.000494	20.887785
2119.572369	-2.978200	3.299500	-9.825100	26.383168	0.000493	20.857516
2120.568649	-3.013300	3.297700	-9.934900	26.341380	0.000493	20.849183
2121.567417	-3.001900	3.297900	-9.899000	26.281932	0.000492	20.865303
2122.575241	-3.002900	3.297600	-9.901600	26.274609	0.000493	20.866952
2123.571227	-2.996600	3.296800	-9.879000	26.284293	0.000492	20.860563
2124.573470	-2.999900	3.298400	-9.894100	26.269370	0.000489	20.877334
2125.567825	-2.981000	3.297100	-9.827200	26.268552	0.000490	20.871771
2126.574044	-3.008100	3.295400	-9.911900	26.264628	0.000490	20.864983
2127.570990	-3.002600	3.294300	-9.890400	26.274612	0.000489	20.865533
2128.571488	-2.976700	3.296700	-9.812000	26.288643	0.000488	20.871099
2129.572077	-2.998000	3.295900	-9.880100	26.290060	0.000487	20.841230
2130.571886	-3.001200	3.294100	-9.885400	26.276030	0.000487	20.877389
2131.570058	-3.019200	3.294000	-9.943600	26.255693	0.000489	20.851737
2132.574394	-3.000300	3.293500	-9.881200	26.238012	0.000488	20.860522
2133.570117	-3.017600	3.292800	-9.935600	26.203817	0.000485	20.862194
2134.573752	-3.000600	3.294200	-9.883500	26.138775	0.000484	20.835719
2135.571491	-2.986400	3.294100	-9.836700	26.167162	0.000485	20.874199
2136.574773	-2.978200	3.293800	-9.806800	26.190806	0.000484	20.857656
2137.573796	-2.985300	3.293100	-9.829800	26.219267	0.000483	20.845004
2138.582431	-2.985400	3.293100	-9.829600	26.222523	0.000484	20.832629
2139.572826	-3.005300	3.291400	-9.890200	26.231189	0.000483	20.870733
2140.574995	-2.992300	3.291900	-9.848400	26.220959	0.000481	20.863299
2141.578462	-3.002500	3.290800	-9.880200	26.238143	0.000477	20.854963
2142.575352	-3.003900	3.290700	-9.884000	26.261959	0.000479	20.870361
2143.579442	-3.011500	3.291400	-9.910800	26.277060	0.000478	20.873682
2144.573916	-3.002500	3.290400	-9.877900	26.296355	0.000479	20.860832
2145.577382	-3.033000	3.288200	-9.972200	26.335864	0.000478	20.827519
2146.575321	-2.999100	3.291000	-9.869400	26.338719	0.000479	20.855518
2147.577488	-3.022400	3.288600	-9.938300	26.330129	0.000477	20.851626
2148.579257	-2.994200	3.288000	-9.843400	26.350789	0.000478	20.855794
2149.580229	-2.995400	3.288300	-9.848700	26.350541	0.000476	20.858864
2150.576241	-2.987600	3.287700	-9.820200	26.354341	0.000474	20.848458
2151.578973	-2.987500	3.289200	-9.825400	26.366907	0.000475	20.853975
2152.580506	-3.006300	3.287100	-9.880400	26.356652	0.000476	20.864057
2153.584935	-3.008300	3.286500	-9.885500	26.371353	0.000475	20.862237
2154.581550	-3.013700	3.287100	-9.905700	26.321890	0.000474	20.822011
2155.578674	-2.987300	3.287200	-9.817900	26.328224	0.000474	20.832643
2156.578313	-3.013700	3.284900	-9.898500	26.319782	0.000472	20.868727
2157.580178	-3.007100	3.285900	-9.879600	26.371133	0.000470	20.846843
2158.584231	-3.028900	3.284100	-9.946200	26.410961	0.000471	20.859845
2159.581421	-3.006400	3.283800	-9.870600	26.376125	0.000468	20.851386
2160.581989	-3.010900	3.284800	-9.889500	26.461712	0.000467	20.855853
2161.588264	-2.993700	3.284700	-9.832600	26.456077	0.000468	20.844500
2162.584681	-2.989400	3.283100	-9.813400	26.440784	0.000467	20.850465
2163.581846	-3.018400	3.281800	-9.905000	26.427425	0.000467	20.846522
2164.586809	-3.011700	3.282500	-9.884700	26.426061	0.000468	20.863168
2165.588216	-2.989800	3.283100	-9.814500	26.438377	0.000467	20.858477
2166.584149	-3.011600	3.282400	-9.884200	26.427452	0.000464	20.841807
2167.588222	-3.016100	3.281800	-9.897200	26.432468	0.000464	20.845900
2168.593900	-2.999300	3.282400	-9.843800	26.448061	0.000464	20.837865
2169.591097	-3.008000	3.280900	-9.867000	26.462833	0.000463	20.857928
2170.587515	-3.013000	3.280500	-9.883100	26.471250	0.000462	20.843156
2171.589274	-3.009200	3.280300	-9.869800	26.488083	0.000462	20.853437
2172.585594	-3.022600	3.280100	-9.913000	26.526714	0.000461	20.852438
2173.588470	-3.015200	3.279900	-9.888800	26.526540	0.000462	20.836143
2174.600312	-3.004800	3.279400	-9.853500	26.559410	0.000460	20.847846
2175.588034	-2.989200	3.279000	-9.801100	26.574381	0.000459	20.834920
2176.592135	-3.010400	3.279200	-9.870900	26.581058	0.000458	20.818399
2177.598585	-2.988900	3.279900	-9.802400	26.594587	0.000458	20.834370
2178.590560	-3.004400	3.277800	-9.847200	26.601389	0.000458	20.831250
2179.595298	-2.990000	3.278300	-9.801200	26.628349	0.000455	20.825161
2180.593667	-2.995200	3.278300	-9.818200	26.619485	0.000456	20.848492
2181.586484	-2.985500	3.277600	-9.783600	26.581851	0.000454	20.833894
2182.589522	-2.987200	3.277200	-9.788900	26.529889	0.000455	20.817224
2183.587604	-3.008600	3.276200	-9.856300	26.491630	0.000455	20.815278
2184.588213	-2.995900	3.276400	-9.814000	26.407462	0.000454	20.823613
2185.590470	-3.007600	3.275500	-9.850500	26.348762	0.000452	20.826257
2186.585075	-3.020100	3.275100	-9.889900	26.335875	0.000453	20.813306
2187.592763	-3.021400	3.273800	-9.889700	26.326041	0.000451	20.803423
2188.590556	-3.007200	3.274700	-9.847100	26.334806	0.000450	20.819818
2189.592536	-3.013000	3.274200	-9.864100	26.380519	0.000450	20.827354
2190.586588	-3.002700	3.273500	-9.827500	26.417118	0.000449	20.837585
2191.593129	-3.004100	3.272600	-9.829600	26.414113	0.000451	20.826030
2192.589892	-2.994600	3.273500	-9.801600	26.416918	0.000448	20.811781
2193.590217	-3.002400	3.273800	-9.828400	26.385161	0.000448	20.821114
2194.593346	-2.992900	3.272400	-9.792200	26.432858	0.000445	20.819267
2195.589241	-3.029900	3.271600	-9.911500	26.479511	0.000446	20.831545
2196.598478	-2.995300	3.270900	-9.796400	26.453292	0.000447	20.824157
2197.591958	-3.010100	3.269900	-9.841600	26.426899	0.000446	20.829398
2198.594044	-2.995100	3.270700	-9.794500	26.411975	0.000445	20.824830
2199.589314	-3.013000	3.270000	-9.852300	26.420492	0.000444	20.804941
2200.591816	-3.012400	3.269500	-9.847000	26.423718	0.000444	20.817667
2201.594535	-3.000700	3.269300	-9.809200	26.455747	0.000443	20.812401
2202.596983	-3.017800	3.269700	-9.866400	26.479929	0.000441	20.814896
2203.592821	-3.010600	3.269500	-9.842400	26.471215	0.000441	20.817517
2204.594768	-2.999500	3.269000	-9.804700	26.500387	0.000440	20.819812
2205.594637	-3.012100	3.268300	-9.843400	26.566624	0.000440	20.814796
2206.594053	-2.995400	3.267700	-9.787200	26.590629	0.000439	20.819012
2207.593608	-2.996800	3.268600	-9.794700	26.571762	0.000436	20.809055
2208.592573	-3.004400	3.267300	-9.815700	26.561162	0.000437	20.801718
2209.595791	-2.997700	3.266600	-9.791600	26.541696	0.000437	20.794480
2210.595570	-2.987400	3.267000	-9.758100	26.527396	0.000436	20.792433
2211.594322	-2.993700	3.265500	-9.775300	26.488938	0.000436	20.797398
2212.595116	-3.009200	3.266200	-9.827500	26.471931	0.000434	20.792632
2213.594532	-3.019300	3.265700	-9.859200	26.491568	0.000434	20.791033
2214.597183	-3.018000	3.264200	-9.850400	26.468825	0.000432	20.825072
2215.592901	-3.002400	3.265400	-9.803100	26.456856	0.000434	20.798817
2216.592417	-3.013500	3.265100	-9.837400	26.468129	0.000431	20.803984
2217.592497	-2.993200	3.263400	-9.767300	26.505891	0.000431	20.773662
2218.596392	-3.004500	3.263600	-9.803900	26.515696	0.000431	20.800113
2219.594900	-2.993800	3.263600	-9.769700	26.476146	0.000430	20.783593
2220.594862	-3.009700	3.263100	-9.820000	26.449405	0.000429	20.791802
2221.597008	-3.012500	3.263300	-9.830300	26.492232	0.000428	20.786485
2222.594216	-2.992500	3.263600	-9.765600	26.539503	0.000429	20.807922
2223.601684	-3.003600	3.261500	-9.795000	26.559041	0.000429	20.775879
2224.595962	-2.995300	3.262400	-9.770000	26.587366	0.000428	20.789653
2225.598671	-2.993900	3.263000	-9.767100	26.548562	0.000427	20.794742
2226.599784	-3.000300	3.261800	-9.785400	26.548959	0.000426	20.795616
2227.593553	-3.013400	3.261100	-9.826400	26.580884	0.000427	20.788353
2228.600752	-2.999100	3.260400	-9.777000	26.613057	0.000426	20.805047
2229.597914	-2.991400	3.261000	-9.753700	26.625742	0.000424	20.778919
2230.594413	-3.001900	3.258700	-9.780700	26.669579	0.000423	20.786004
2231.595255	-3.000200	3.260100	-9.779500	26.709593	0.000422	20.783558
2232.596769	-3.009000	3.257300	-9.800400	26.724858	0.000422	20.773300
2233.597895	-2.990300	3.258600	-9.743100	26.746503	0.000422	20.771354
2234.599590	-3.030400	3.256500	-9.867400	26.775096	0.000422	20.780660
2235.594646	-3.001200	3.259300	-9.780000	26.786959	0.000420	20.794959
2236.599316	-3.022900	3.257300	-9.845500	26.743794	0.000419	20.773372
2237.600533	-2.994000	3.256100	-9.748300	26.664757	0.000418	20.787320
2238.600585	-2.980100	3.256600	-9.704100	26.603094	0.000419	20.792187
2239.598921	-2.995100	3.256700	-9.752200	26.558033	0.000417	20.775814
2240.600045	-3.014100	3.254900	-9.809700	26.556592	0.000418	20.791435
2241.601537	-3.001100	3.256100	-9.771000	26.599340	0.000416	20.799319
2242.600594	-2.985400	3.255100	-9.716200	26.622898	0.000414	20.782224
2243.599850	-3.005600	3.254500	-9.781000	26.627912	0.000414	20.772091
2244.598618	-3.000800	3.253700	-9.762500	26.651344	0.000414	20.789484
2245.599915	-3.003600	3.252900	-9.768800	26.659485	0.000413	20.771114
2246.599840	-3.013600	3.252900	-9.802200	26.654569	0.000412	20.769492
2247.604743	-3.014100	3.252600	-9.802700	26.680459	0.000412	20.777975
2248.605476	-3.004200	3.251600	-9.767200	26.686538	0.000412	20.781716
2249.602898	-3.027900	3.250400	-9.839900	26.708628	0.000410	20.772156
2250.601590	-3.018700	3.250300	-9.811100	26.737819	0.000410	20.772106
2251.612174	-2.963600	3.254200	-9.642700	26.753753	0.000409	20.793816
2252.611477	-2.965700	3.251900	-9.642900	26.730468	0.000408	20.776569
2253.607564	-2.999700	3.250100	-9.748200	26.660516	0.000408	20.779738
2254.610482	-2.974700	3.251200	-9.670700	26.624817	0.000408	20.770403
2255.603560	-2.994100	3.250300	-9.731000	26.636061	0.000405	20.760842
2256.606750	-2.972200	3.249700	-9.657200	26.679649	0.000406	20.767204
2257.614612	-2.951200	3.251000	-9.592700	26.702186	0.000405	20.763783
2258.607862	-2.977500	3.250300	-9.676600	26.690718	0.000405	20.756046
2259.608050	-2.973300	3.249600	-9.660500	26.683319	0.000405	20.767100
2260.614975	-3.008600	3.247500	-9.769900	26.679321	0.000405	20.764029
2261.606637	-2.991700	3.247300	-9.714400	26.669862	0.000403	20.764477
2262.608537	-3.003100	3.246900	-9.749000	26.685424	0.000401	20.765423
2263.607326	-2.983800	3.248000	-9.690400	26.722408	0.000403	20.772734
2264.609554	-3.009600	3.246100	-9.768300	26.740205	0.000402	20.758858
2265.610476	-2.984600	3.247000	-9.690500	26.749114	0.000400	20.757857
2266.605602	-2.993500	3.245600	-9.714700	26.744123	0.000399	20.778444
2267.610663	-3.005100	3.243900	-9.746200	26.753803	0.000400	20.776323
2268.617456	-2.975800	3.246700	-9.659900	26.724413	0.000400	20.766214
2269.611449	-2.985500	3.244800	-9.686200	26.742432	0.000398	20.776270
2270.613236	-3.006800	3.242400	-9.748300	26.774103	0.000398	20.773025
2271.609085	-2.995400	3.245800	-9.721300	26.811110	0.000397	20.759498
2272.609967	-2.992000	3.243400	-9.703500	26.827788	0.000395	20.767258
2273.612672	-2.996000	3.242100	-9.712400	26.855609	0.000395	20.771049
2274.610188	-3.004500	3.241800	-9.738600	26.854616	0.000393	20.768628
2275.608968	-2.983300	3.241300	-9.668600	26.830515	0.000393	20.766681
2276.614328	-2.999800	3.243500	-9.728600	26.827733	0.000393	20.752030
2277.619018	-2.982100	3.240500	-9.660800	26.795988	0.000392	20.757095
2278.612792	-2.996800	3.241900	-9.713800	26.802764	0.000393	20.770072
2279.617546	-3.012500	3.239800	-9.759000	26.798642	0.000392	20.772092
2280.613346	-3.008400	3.240700	-9.748300	26.770841	0.000391	20.755994
2281.616644	-3.004100	3.239400	-9.730000	26.799261	0.000390	20.767498
2282.616088	-2.993900	3.239600	-9.698000	26.794866	0.000390	20.743639
2283.616414	-2.990400	3.238900	-9.685400	26.843363	0.000390	20.757787
2284.610314	-3.004700	3.238400	-9.729400	26.848872	0.000388	20.753370
2285.617679	-3.013700	3.238000	-9.757600	26.864134	0.000388	20.744534
2286.615085	-3.000000	3.238600	-9.714700	26.837503	0.000387	20.773233
2287.615779	-3.021700	3.236600	-9.779200	26.795208	0.000387	20.759630
2288.616555	-3.007100	3.237800	-9.735100	26.769046	0.000387	20.749448
2289.610909	-2.998200	3.237100	-9.703600	26.713220	0.000385	20.762548
2290.613245	-2.997600	3.235800	-9.697900	26.676258	0.000385	20.764268
2291.619620	-2.984100	3.234900	-9.652300	26.651558	0.000385	20.775947
2292.615768	-2.992800	3.234000	-9.677300	26.620650	0.000385	20.757204
2293.617076	-2.964800	3.234800	-9.589600	26.627252	0.000385	20.753883
2294.613000	-2.991300	3.234500	-9.674100	26.620970	0.000382	20.763690
2295.635161	-2.990300	3.234800	-9.672400	26.594605	0.000383	20.763265
2296.613189	-2.997800	3.231800	-9.686600	26.587033	0.000383	20.759446
2297.625136	-2.996700	3.232400	-9.686500	26.632139	0.000383	20.762590
2298.616216	-2.993800	3.231700	-9.673100	26.673221	0.000382	20.759319
2299.614429	-2.971400	3.233100	-9.606000	26.676075	0.000382	20.745118
2300.620134	-3.015500	3.231300	-9.742500	26.690795	0.000383	20.749959
2301.618189	-3.009200	3.230500	-9.720400	26.698936	0.000380	20.751980
2302.617581	-2.979400	3.231200	-9.626600	26.714152	0.000380	20.760639
2303.620961	-2.995200	3.229700	-9.671800	26.789907	0.000380	20.755722
2304.620209	-2.999800	3.231000	-9.691400	26.813286	0.000381	20.748883
2305.617305	-2.987100	3.229500	-9.645300	26.809961	0.000381	20.771618
2306.617515	-2.978800	3.228000	-9.614800	26.811077	0.000378	20.759464
2307.615633	-2.993000	3.227800	-9.658300	26.816190	0.000380	20.766028
2308.619653	-2.991800	3.226100	-9.651000	26.847512	0.000377	20.777133
2309.621777	-3.004100	3.226600	-9.692100	26.851904	0.000376	20.771118
2310.620909	-3.000100	3.225800	-9.677100	26.870593	0.000376	20.763356
2311.616359	-2.989200	3.226500	-9.643700	26.895461	0.000376	20.765602
2312.628195	-2.991800	3.227000	-9.653200	26.907050	0.000375	20.765402
2313.620636	-2.987200	3.226500	-9.636700	26.929660	0.000375	20.745462
2314.619919	-2.992300	3.226400	-9.652900	26.939437	0.000373	20.767623
2315.620058	-2.984100	3.226000	-9.625600	26.928517	0.000372	20.774660
2316.622369	-3.004200	3.223600	-9.683600	26.922461	0.000372	20.768096
2317.617186	-2.999200	3.224600	-9.669200	26.903451	0.000371	20.779326
2318.627977	-2.982400	3.225100	-9.617000	26.871682	0.000370	20.777254
2319.621391	-3.003600	3.223300	-9.680900	26.845821	0.000369	20.764052
2320.622064	-2.991000	3.221800	-9.634000	26.862201	0.000368	20.778152
2321.622664	-2.997500	3.222600	-9.658000	26.850858	0.000369	20.781445
2322.623600	-2.995000	3.221500	-9.646900	26.843809	0.000369	20.789057
2323.621068	-2.973600	3.221200	-9.577900	26.848475	0.000367	20.765299
2324.625021	-2.990900	3.221700	-9.635200	26.875354	0.000367	20.779998
2325.623158	-2.996200	3.220400	-9.648100	26.909428	0.000366	20.782966
2326.617405	-3.011600	3.220500	-9.698100	26.939384	0.000366	20.763776
2327.622593	-2.986000	3.220900	-9.616100	26.932236	0.000362	20.781245
2328.620470	-2.989800	3.219000	-9.624000	26.934518	0.000365	20.773582
2329.629016	-3.016400	3.218300	-9.706500	26.918585	0.000364	20.769414
2330.627606	-3.015000	3.219300	-9.705200	26.873093	0.000362	20.763025
2331.624666	-3.018700	3.217200	-9.710700	26.849118	0.000361	20.787282
2332.626631	-2.987100	3.220400	-9.618400	26.834970	0.000362	20.782540
2333.624454	-2.976600	3.217900	-9.577600	26.848770	0.000361	20.763224
2334.627657	-2.983000	3.216200	-9.592900	26.871702	0.000360	20.779170
2335.623787	-2.971400	3.216900	-9.557400	26.912951	0.000360	20.778922
2336.630078	-2.978900	3.215000	-9.576200	26.934020	0.000359	20.774029
2337.629688	-2.993100	3.214100	-9.619200	26.946404	0.000359	20.783637
2338.625834	-3.015000	3.213500	-9.687900	26.983430	0.000358	20.778671
2339.631802	-3.002300	3.213900	-9.648200	27.066536	0.000358	20.773105
2340.625555	-3.003800	3.213800	-9.652000	27.083930	0.000356	20.781116
2341.632737	-2.981800	3.214700	-9.584100	27.084475	0.000357	20.793992
2342.630743	-3.000100	3.212600	-9.636900	27.071373	0.000356	20.774651
2343.626199	-2.993200	3.212800	-9.614800	27.059189	0.000356	20.778045
2344.624470	-2.987600	3.212200	-9.596200	27.080083	0.000356	20.787678
2345.626743	-2.986100	3.212200	-9.590500	27.083532	0.000355	20.786405
2346.628659	-2.978600	3.212600	-9.568400	27.069065	0.000356	20.782761
2347.628727	-3.002200	3.210000	-9.634300	27.081918	0.000353	20.789524
2348.636018	-2.990600	3.210600	-9.600900	27.091843	0.000355	20.777694
2349.635362	-2.980800	3.209200	-9.565000	27.100304	0.000352	20.787152
2350.631069	-2.987800	3.211400	-9.593800	27.069187	0.000353	20.804221
2351.629130	-2.995700	3.208600	-9.611000	27.050948	0.000352	20.796310
2352.630201	-2.985900	3.208500	-9.579500	27.044123	0.000351	20.789447
2353.629677	-2.989400	3.207600	-9.587100	26.982804	0.000350	20.783257
2354.632840	-2.990100	3.207900	-9.591400	26.982233	0.000351	20.798330
2355.629441	-3.012800	3.205100	-9.655500	26.973893	0.000349	20.797056
2356.634414	-2.997400	3.205100	-9.605900	26.978062	0.000348	20.793188
2357.630722	-3.039900	3.204500	-9.740700	27.046155	0.000349	20.787222
2358.632320	-3.003000	3.206300	-9.627800	27.047048	0.000349	20.797603
2359.630861	-2.972700	3.205000	-9.526100	27.086353	0.000348	20.779285
2360.631007	-3.002800	3.205600	-9.624100	27.123225	0.000347	20.807360
2361.629433	-2.976700	3.205300	-9.539500	27.161412	0.000346	20.796454
2362.632524	-2.989600	3.202900	-9.573600	27.181633	0.000347	20.777911
2363.631217	-2.992800	3.203200	-9.584800	27.172228	0.000345	20.786945
2364.643895	-2.984100	3.203300	-9.558200	27.194261	0.000347	20.784449
2365.642793	-2.995100	3.201500	-9.587800	27.187983	0.000344	20.782402
2366.635900	-2.979200	3.201800	-9.537200	27.211032	0.000343	20.791360
2367.634976	-3.003500	3.200300	-9.611000	27.194656	0.000341	20.784372
2368.629890	-3.011800	3.200400	-9.637400	27.231549	0.000343	20.814368
2369.633877	-2.961900	3.202000	-9.483000	27.217854	0.000340	20.785894
2370.632844	-2.986800	3.198600	-9.552100	27.199418	0.000340	20.801965
2371.633306	-2.994900	3.199100	-9.580300	27.206092	0.000340	20.791608
2372.634972	-2.979700	3.199800	-9.533500	27.219067	0.000342	20.796124
2373.633292	-2.983800	3.198400	-9.542700	27.203138	0.000340	20.793378
2374.637222	-2.980400	3.197700	-9.529600	27.204850	0.000341	20.817385
2375.635016	-2.997900	3.196600	-9.582600	27.157956	0.000338	20.810048
2376.634587	-2.984100	3.196800	-9.538600	27.165746	0.000338	20.795124
2377.636322	-2.988600	3.196100	-9.550800	27.174504	0.000338	20.818631
2378.637390	-2.994900	3.196800	-9.572800	27.181228	0.000339	20.794100
2379.637824	-2.993900	3.196100	-9.568000	27.208619	0.000340	20.787037
2380.645337	-2.999300	3.195000	-9.581900	27.219858	0.000339	20.824419
2381.636733	-2.993300	3.195400	-9.563000	27.228318	0.000338	20.806851
2382.641950	-2.993700	3.195000	-9.563800	27.244965	0.000336	20.807474
2383.643173	-3.006500	3.195300	-9.605800	27.268162	0.000335	20.799988
2384.640674	-2.971700	3.193500	-9.488500	27.314058	0.000333	20.790204
2385.641361	-2.989400	3.193100	-9.543600	27.325321	0.000334	20.805327
2386.639315	-2.971000	3.191900	-9.481800	27.338717	0.000334	20.812639
2387.640951	-2.997000	3.192400	-9.566700	27.303811	0.000335	20.812139
2388.642734	-2.991500	3.190900	-9.544900	27.256277	0.000331	20.796093
2389.644062	-3.016800	3.189700	-9.621100	27.247345	0.000331	20.806548
2390.642630	-2.991400	3.190700	-9.544800	27.218341	0.000332	20.830006
2391.646282	-2.989300	3.189700	-9.534500	27.194398	0.000330	20.795967
2392.643314	-2.989100	3.190800	-9.536700	27.154674	0.000329	20.811489
2393.642383	-3.015000	3.188400	-9.611700	27.112517	0.000330	20.816978
2394.647021	-2.991600	3.187300	-9.534500	27.070606	0.000330	20.808493
2395.642952	-3.017300	3.187500	-9.616600	27.035096	0.000330	20.818300
2396.645401	-2.992800	3.186600	-9.535200	27.025343	0.000327	20.823665
2397.650964	-2.979300	3.186800	-9.493400	27.049487	0.000327	20.822815
2398.641738	-2.989800	3.187900	-9.529000	27.026806	0.000327	20.812808
2399.644992	-3.005400	3.185000	-9.571500	27.074797	0.000324	20.819346
2400.643178	-2.999800	3.185600	-9.554900	27.120850	0.000325	20.822040
2401.652630	-3.015100	3.183000	-9.596300	27.164669	0.000327	20.843825
2402.646180	-2.984600	3.185100	-9.506300	27.201811	0.000325	20.812906
2403.647253	-2.980900	3.182700	-9.486000	27.234858	0.000325	20.824335
2404.646431	-3.002200	3.182600	-9.553700	27.229351	0.000325	20.812157
2405.644032	-2.979600	3.183300	-9.483100	27.238455	0.000325	20.813728
2406.648349	-2.997300	3.180700	-9.533300	27.206449	0.000324	20.825631
2407.659137	-2.987600	3.181700	-9.504300	27.213048	0.000326	20.806665
2408.652606	-2.986200	3.180700	-9.497200	27.220541	0.000324	20.806615
2409.650863	-3.000000	3.180200	-9.539900	27.245375	0.000323	20.825904
2410.651350	-3.003800	3.178500	-9.546400	27.238626	0.000323	20.824331
2411.648087	-2.990300	3.179700	-9.507600	27.237584	0.000324	20.817119
2412.650657	-2.997900	3.179500	-9.531300	27.219546	0.000322	20.826002
2413.651921	-2.993500	3.177900	-9.511600	27.180345	0.000324	20.825928
2414.653525	-3.010200	3.177600	-9.563800	27.188234	0.000323	20.826751
2415.650704	-2.998700	3.176500	-9.524500	27.231330	0.000323	20.819363
2416.655633	-2.991800	3.175800	-9.500600	27.256810	0.000322	20.832190
2417.655975	-3.004000	3.176000	-9.539200	27.266436	0.000324	20.825752
2418.652291	-3.013400	3.174900	-9.567000	27.265989	0.000321	20.828147
2419.653656	-2.974000	3.176500	-9.446200	27.266560	0.000322	20.808333
2420.653767	-2.999400	3.174800	-9.521500	27.266088	0.000322	20.819238
2421.656595	-2.985800	3.173200	-9.472200	27.281470	0.000323	20.826649
2422.654495	-2.987500	3.173500	-9.479500	27.312258	0.000321	20.832963
2423.655551	-3.015000	3.172300	-9.563400	27.326597	0.000319	20.829844
2424.654408	-3.020200	3.172100	-9.579800	27.382215	0.000321	20.817990
2425.661047	-3.008900	3.173200	-9.545900	27.379164	0.000321	20.820136
2426.658344	-2.993400	3.171600	-9.492600	27.361874	0.000320	20.837355
2427.654791	-2.991300	3.169500	-9.479500	27.391592	0.000320	20.855871
2428.655468	-2.984000	3.169900	-9.457700	27.395289	0.000318	20.834934
2429.652164	-3.003300	3.168800	-9.516100	27.416572	0.000319	20.850656
2430.655895	-3.016100	3.167800	-9.553300	27.419450	0.000319	20.842172
2431.657810	-2.981500	3.167500	-9.442900	27.406129	0.000318	20.846314
2432.661730	-3.006000	3.166600	-9.517800	27.420542	0.000319	20.833786
2433.665319	-2.992800	3.166900	-9.477100	27.406973	0.000319	20.821085
2434.655215	-2.993400	3.166700	-9.477900	27.385813	0.000318	20.849583
2435.658857	-3.025600	3.164000	-9.571800	27.380058	0.000317	20.845217
2436.658149	-2.996400	3.165300	-9.483800	27.419128	0.000317	20.849908
2437.659960	-3.017600	3.163600	-9.545200	27.382663	0.000316	20.840250
2438.657513	-3.003400	3.162900	-9.498100	27.345427	0.000314	20.857319
2439.655936	-3.007600	3.164200	-9.515200	27.297324	0.000315	20.838804
2440.659136	-3.010200	3.163300	-9.521300	27.274574	0.000314	20.833938
2441.655995	-2.985200	3.164100	-9.443400	27.261773	0.000314	20.856621
2442.661757	-3.018300	3.160800	-9.539100	27.288716	0.000314	20.845792
2443.661080	-2.988200	3.160700	-9.442700	27.266338	0.000315	20.849834
2444.660022	-3.032800	3.158600	-9.578200	27.243314	0.000314	20.870296
2445.667569	-2.998500	3.159700	-9.472800	27.203816	0.000311	20.866130
2446.665656	-3.002400	3.157800	-9.478700	27.197019	0.000312	20.861663
2447.661764	-3.009700	3.157200	-9.501400	27.226444	0.000313	20.873242
2448.663624	-3.011100	3.156900	-9.504400	27.247509	0.000309	20.868351
2449.664103	-2.969200	3.157900	-9.374800	27.257483	0.000308	20.872220
2450.668933	-3.004700	3.155800	-9.481100	27.300849	0.000309	20.874116
2451.665370	-2.983400	3.155900	-9.414500	27.327320	0.000309	20.859493
2452.665560	-3.001800	3.154600	-9.468000	27.339055	0.000308	20.860866
2453.664267	-2.994600	3.154700	-9.446000	27.332109	0.000306	20.851983
2454.667590	-2.980600	3.155100	-9.403100	27.330794	0.000306	20.875789
2455.665858	-2.978300	3.155100	-9.395900	27.310476	0.000306	20.874317
2456.665432	-2.994800	3.153900	-9.444300	27.325510	0.000308	20.874267
2457.662246	-2.984400	3.153700	-9.410900	27.385520	0.000304	20.864934
2458.668925	-2.998600	3.151300	-9.448600	27.401991	0.000305	20.870599
2459.671290	-3.015700	3.151800	-9.503200	27.441879	0.000303	20.878484
2460.665622	-3.007100	3.150100	-9.472000	27.424887	0.000305	20.875140
2461.673046	-2.988200	3.150800	-9.413700	27.436745	0.000303	20.905085
2462.667369	-3.011600	3.148400	-9.480800	27.470008	0.000303	20.877386
2463.668164	-3.019300	3.149200	-9.507100	27.500593	0.000303	20.903413
2464.669094	-2.990900	3.147200	-9.412000	27.524032	0.000302	20.881479
2465.670355	-3.016100	3.146300	-9.487900	27.516218	0.000303	20.882626
2466.667504	-2.992900	3.145300	-9.412600	27.490794	0.000301	20.895926
2467.673473	-3.016600	3.144700	-9.485400	27.495233	0.000304	20.891858
2468.674302	-2.987100	3.144200	-9.390500	27.494365	0.000300	20.892407
2469.670115	-2.987300	3.142300	-9.385900	27.516614	0.000299	20.872593
2470.670464	-3.012200	3.142600	-9.464900	27.550941	0.000300	20.883423
2471.673648	-3.013800	3.141700	-9.466700	27.513389	0.000300	20.890684
2472.678210	-3.014400	3.141500	-9.468500	27.510487	0.000297	20.898195
2473.669431	-2.984600	3.141000	-9.373100	27.531172	0.000297	20.900041
2474.677802	-2.984300	3.142500	-9.377400	27.517926	0.000298	20.864431
2475.687522	-3.009500	3.138900	-9.445400	27.532163	0.000297	20.884918
2476.675492	-3.008100	3.138600	-9.440800	27.575519	0.000299	20.890133
2477.676765	-2.992500	3.138400	-9.390800	27.545755	0.000297	20.867775
2478.679204	-3.028300	3.136800	-9.498000	27.524076	0.000298	20.891480
2479.681145	-2.981700	3.136500	-9.351400	27.476154	0.000298	20.897318
2480.680413	-3.007400	3.135800	-9.430500	27.486721	0.000296	20.890406
2481.683109	-3.009300	3.134900	-9.433000	27.515989	0.000297	20.885714
2482.672255	-3.013700	3.134900	-9.446700	27.525464	0.000300	20.910418
2483.687468	-3.022500	3.133400	-9.469900	27.571275	0.000295	20.883493
2484.681488	-2.997700	3.132700	-9.390400	27.602823	0.000296	20.889157
2485.680805	-3.002900	3.131200	-9.401900	27.631617	0.000294	20.882569
2486.678527	-2.967800	3.131500	-9.292500	27.663709	0.000296	20.904428
2487.681227	-3.009200	3.129800	-9.416900	27.667701	0.000295	20.896592
2488.682734	-3.037200	3.129300	-9.502800	27.655623	0.000295	20.882069
2489.681998	-3.013700	3.127400	-9.424200	27.674744	0.000295	20.905101
2490.674498	-3.016100	3.128300	-9.434100	27.684490	0.000295	20.906373
2491.675177	-2.991700	3.128000	-9.356900	27.727665	0.000294	20.913309
2492.675322	-2.978500	3.127500	-9.314000	27.724342	0.000295	20.912810
2493.673482	-3.027700	3.124600	-9.459600	27.756407	0.000295	20.899560
2494.673838	-3.001700	3.125100	-9.379500	27.752389	0.000294	20.897414
2495.679045	-3.023300	3.122700	-9.439400	27.709635	0.000293	20.895168
2496.676064	-3.004200	3.122700	-9.380800	27.669807	0.000293	20.898237
2497.683971	-3.042100	3.120100	-9.489700	27.623008	0.000293	20.910414
2498.679321	-2.994100	3.122500	-9.347400	27.573329	0.000292	20.898361
2499.689959	-2.996100	3.122900	-9.355300	27.570923	0.000293	20.910163
2500.677866	-2.987100	3.120500	-9.320700	27.581414	0.000291	20.912184
2501.678194	-3.031100	3.117800	-9.449500	27.605671	0.000294	20.914305
2502.678485	-2.974600	3.118400	-9.275000	27.639921	0.000293	20.914629
2503.681833	-3.005600	3.118000	-9.370500	27.652519	0.000292	20.910711
2504.681237	-2.994900	3.117000	-9.332400	27.650833	0.000294	20.898110
2505.685767	-2.996300	3.116200	-9.336200	27.684288	0.000290	20.871559
2506.680728	-3.007200	3.115100	-9.366800	27.679725	0.000289	20.899681
2507.687593	-3.030300	3.114100	-9.435800	27.677815	0.000292	20.896338
2508.685266	-3.009800	3.113900	-9.370900	27.689024	0.000293	20.898608
2509.680559	-2.975200	3.114100	-9.263500	27.674169	0.000290	20.886980
2510.684544	-2.971000	3.111600	-9.243200	27.644383	0.000289	20.886879
2511.684898	-2.986800	3.111300	-9.292400	27.644234	0.000288	20.881040
2512.686317	-3.003600	3.110100	-9.340700	27.597285	0.000290	20.879792
2513.687000	-3.014900	3.109600	-9.373500	27.653609	0.000289	20.879094
2514.692424	-3.010500	3.107500	-9.353700	27.688229	0.000289	20.876947
2515.683705	-2.987600	3.108700	-9.287500	27.713673	0.000288	20.890696
2516.686328	-3.014600	3.105100	-9.359400	27.695247	0.000287	20.906766
2517.687751	-2.993900	3.106500	-9.298500	27.704324	0.000287	20.892193
2518.690708	-2.982300	3.104900	-9.258300	27.745688	0.000286	20.884981
2519.691892	-3.017200	3.103600	-9.363500	27.754342	0.000286	20.873303
2520.689652	-3.006100	3.103600	-9.328500	27.691849	0.000286	20.882011
2521.689016	-2.992200	3.103500	-9.285200	27.687533	0.000286	20.892841
2522.688024	-3.004700	3.101100	-9.317200	27.700950	0.000287	20.886428
2523.687439	-2.989500	3.101600	-9.271400	27.714862	0.000288	20.885255
2524.691521	-2.976500	3.100600	-9.227700	27.752159	0.000286	20.882485
2525.697763	-2.995600	3.098900	-9.281700	27.794092	0.000287	20.898130
2526.688225	-2.995900	3.099500	-9.284900	27.766318	0.000286	20.873501
2527.689770	-3.000600	3.096800	-9.291800	27.716795	0.000286	20.880089
2528.694093	-3.015900	3.094500	-9.331400	27.721854	0.000285	20.857205
2529.690579	-2.986400	3.097400	-9.248400	27.704346	0.000285	20.853811
2530.690183	-2.991200	3.095400	-9.258600	27.673916	0.000285	20.878191
2531.686756	-2.978300	3.094300	-9.214800	27.661764	0.000283	20.857904
2532.689132	-2.980800	3.093100	-9.218800	27.690086	0.000287	20.856057
2533.688324	-3.006300	3.091400	-9.292500	27.661292	0.000286	20.878765
2534.689389	-3.022800	3.089900	-9.338800	27.699732	0.000283	20.854385
2535.690365	-3.002300	3.090000	-9.275800	27.687258	0.000284	20.871703
2536.693828	-2.999400	3.088700	-9.262400	27.712479	0.000285	20.883805
2537.693422	-2.981000	3.089000	-9.207900	27.696235	0.000283	20.875046
2538.688540	-3.004500	3.086300	-9.271800	27.703948	0.000286	20.873798
2539.696427	-2.989800	3.085900	-9.225400	27.705733	0.000284	20.868957
2540.692988	-3.008200	3.085700	-9.281200	27.719943	0.000285	20.868558
2541.695405	-2.982700	3.084900	-9.201100	27.693606	0.000284	20.866237
2542.691505	-3.000000	3.083300	-9.248800	27.656753	0.000287	20.858551
2543.695404	-2.987700	3.082600	-9.209200	27.683016	0.000285	20.853685
2544.695006	-2.985600	3.081300	-9.198800	27.659778	0.000286	20.863966
2545.692097	-3.012900	3.078800	-9.273900	27.675973	0.000287	20.842805
2546.691999	-2.990700	3.078000	-9.204200	27.645716	0.000286	20.868308
2547.693734	-2.995300	3.077900	-9.218000	27.602116	0.000283	20.862843
2548.700232	-3.001500	3.077200	-9.235100	27.589814	0.000284	20.848569
2549.698961	-3.025900	3.075800	-9.305500	27.599536	0.000285	20.857403
2550.700046	-3.001200	3.075900	-9.230100	27.640409	0.000285	20.855381
2551.690701	-2.953600	3.075300	-9.081700	27.671732	0.000286	20.853235
2552.692943	-2.980100	3.073700	-9.158400	27.715081	0.000285	20.855606
2553.694009	-2.983900	3.073000	-9.168800	27.717586	0.000285	20.860497
2554.695910	-3.014900	3.071400	-9.258400	27.709154	0.000284	20.849642
2555.692866	-2.997000	3.069100	-9.197800	27.664391	0.000285	20.848219
2556.700362	-2.987500	3.070100	-9.171400	27.614417	0.000284	20.859574
2557.700114	-3.008800	3.067400	-9.227600	27.608737	0.000284	20.848644
2558.702980	-3.000100	3.065600	-9.196800	27.561489	0.000283	20.846148
2559.700218	-2.962500	3.066900	-9.085000	27.523491	0.000283	20.826883
2560.694641	-2.969700	3.067100	-9.107200	27.510047	0.000283	20.838013
2561.697462	-2.985900	3.065000	-9.151000	27.453542	0.000283	20.858450
2562.700791	-2.994100	3.063100	-9.170800	27.459818	0.000282	20.838212
2563.694091	-2.995300	3.061900	-9.170300	27.449052	0.000282	20.834494
2564.697532	-2.985600	3.060700	-9.136600	27.459991	0.000282	20.824637
2565.696989	-2.985400	3.060000	-9.134100	27.496404	0.000281	20.833296
2566.698324	-3.008500	3.058200	-9.199500	27.545119	0.000282	20.838212
2567.701213	-2.995500	3.056900	-9.155400	27.624362	0.000282	20.839709
2568.695837	-3.023500	3.056000	-9.238800	27.659901	0.000281	20.856504
2569.703168	-2.968800	3.055900	-9.070000	27.694423	0.000279	20.828180
2570.704525	-2.988700	3.053900	-9.125500	27.693530	0.000280	20.829178
2571.700865	-2.991300	3.053600	-9.133200	27.716990	0.000280	20.828604
2572.708732	-3.021800	3.051400	-9.219300	27.756048	0.000282	20.826658
2573.704888	-3.012500	3.050500	-9.188400	27.769141	0.000283	20.829877
2574.709477	-2.980000	3.050900	-9.090200	27.781664	0.000281	20.841057
2575.711979	-2.994000	3.049100	-9.127800	27.836019	0.000279	20.852136
2576.709011	-2.988800	3.047500	-9.107100	27.842590	0.000281	20.872973
2577.707883	-2.992500	3.046800	-9.116100	27.865005	0.000283	20.839110
2578.708201	-3.000100	3.045300	-9.134600	27.837159	0.000282	20.832422
2579.709914	-3.007700	3.044300	-9.155700	27.865228	0.000283	20.833171
2580.706553	-3.010300	3.043300	-9.160800	27.884966	0.000282	20.852086
2581.705402	-2.983600	3.042100	-9.074500	27.903760	0.000282	20.840657
2582.710654	-3.004100	3.041500	-9.136000	27.844400	0.000280	20.822640
2583.712580	-3.009500	3.040300	-9.148900	27.822381	0.000283	20.827980
2584.702141	-3.004500	3.038100	-9.127000	27.834184	0.000280	20.812358
2585.711077	-3.010200	3.038000	-9.144100	27.824513	0.000280	20.835816
2586.712708	-3.007300	3.036500	-9.130300	27.833539	0.000280	20.828779
2587.714223	-3.015000	3.034300	-9.147900	27.832200	0.000281	20.828854
2588.715135	-3.012200	3.034500	-9.139700	27.860468	0.000280	20.840707
2589.710610	-2.993200	3.034000	-9.079900	27.889751	0.000280	20.840782
2590.705154	-2.992800	3.032600	-9.075300	27.903760	0.000280	20.843502
2591.705477	-3.032600	3.030700	-9.189200	27.884767	0.000280	20.834344
2592.712634	-3.014400	3.028900	-9.129100	27.868576	0.000279	20.845074
2593.709848	-3.018000	3.027400	-9.134800	27.823125	0.000279	20.834419
2594.707483	-2.988600	3.027500	-9.047100	27.803238	0.000279	20.847595
2595.718932	-3.002400	3.025800	-9.082800	27.817000	0.000279	20.818772
2596.709742	-3.001300	3.024800	-9.078000	27.808594	0.000278	20.824062
2597.715341	-3.024900	3.024900	-9.148800	27.799072	0.000277	20.806419
2598.714021	-3.003000	3.021800	-9.073500	27.813975	0.000279	20.833271
2599.709802	-3.002600	3.022100	-9.073500	27.809487	0.000280	20.825435
2600.708570	-2.988600	3.020500	-9.025700	27.822406	0.000278	20.830376
2601.708888	-3.019600	3.018700	-9.114200	27.776382	0.000279	20.821043
2602.713122	-3.014000	3.017300	-9.092800	27.787913	0.000279	20.821267
2603.722692	-2.998900	3.016000	-9.043200	27.785111	0.000278	20.825884
2604.720012	-2.996600	3.014800	-9.033800	27.814148	0.000280	20.819221
2605.721508	-2.994500	3.014100	-9.024100	27.837903	0.000280	20.825584
2606.715546	-2.995600	3.013400	-9.024700	27.865129	0.000278	20.840657
2607.716627	-3.007800	3.012600	-9.059600	27.880428	0.000281	20.830450
2608.712765	-2.984400	3.010900	-8.984900	27.924687	0.000279	20.817149
2609.712996	-3.003600	3.008200	-9.034000	27.943778	0.000278	20.825934
2610.716195	-3.001900	3.006800	-9.025100	27.931232	0.000278	20.818048
2611.716893	-3.013700	3.006500	-9.059800	27.944844	0.000280	20.810411
2612.735217	-3.024300	3.003700	-9.082700	27.960489	0.000281	20.808141
2613.723061	-3.008300	3.004100	-9.035400	27.967282	0.000278	20.832047
2614.714408	-3.004400	3.002400	-9.018900	27.955778	0.000279	20.816201
2615.714779	-2.971800	3.002900	-8.922300	27.961455	0.000277	20.817648
2616.715863	-2.999500	3.000200	-8.998000	27.976406	0.000279	20.818472
2617.716168	-3.005700	2.999400	-9.015000	27.981067	0.000277	20.822689
2618.720952	-2.993100	2.999100	-8.974700	27.959373	0.000278	20.816500
2619.718829	-3.007500	2.995900	-9.009400	27.925579	0.000279	20.825634
2620.715104	-2.995800	2.995300	-8.971800	27.898379	0.000276	20.815801
2621.724127	-2.982200	2.995300	-8.931400	27.854689	0.000278	20.814029
2622.729173	-2.989700	2.993600	-8.948800	27.850796	0.000279	20.810111
2623.731519	-2.991200	2.991600	-8.947400	27.860863	0.000277	20.810760
2624.726237	-2.990700	2.990700	-8.942800	27.875914	0.000278	20.807416
2625.724570	-2.983200	2.988800	-8.915300	27.911941	0.000278	20.831822
2626.723141	-2.995800	2.988700	-8.953100	27.918413	0.000278	20.809887
2627.727504	-3.006000	2.985300	-8.973200	27.923917	0.000277	20.822065
2628.726336	-2.995100	2.984900	-8.939200	27.903883	0.000278	20.803323
2629.722039	-3.008000	2.982800	-8.970900	27.929049	0.000276	20.818696
2630.726460	-2.969000	2.982300	-8.851800	27.925206	0.000279	20.807715
2631.720426	-3.015700	2.980700	-8.987300	27.923148	0.000279	20.811334
2632.745148	-3.022300	2.977900	-8.999400	27.935025	0.000279	20.819020
2633.723311	-3.049300	2.977000	-9.075900	27.941471	0.000279	20.810336
2634.728995	-2.993300	2.978400	-8.914300	27.952455	0.000279	20.818546
2635.732570	-2.967100	2.975700	-8.828000	27.980347	0.000279	20.811059
2636.726274	-3.005300	2.973500	-8.935000	27.998892	0.000280	20.796061
2637.727005	-3.015200	2.972100	-8.960200	27.996537	0.000278	20.806018
2638.724559	-2.989800	2.970400	-8.879500	27.952132	0.000279	20.813954
2639.728519	-2.984700	2.970800	-8.865900	27.960810	0.000278	20.793765
2640.728141	-2.999900	2.967000	-8.899700	27.947843	0.000278	20.803473
2641.732038	-2.994900	2.967300	-8.886200	27.909164	0.000277	20.816699
2642.729218	-2.972800	2.967000	-8.819400	27.930959	0.000277	20.811134
2643.728818	-3.012900	2.963200	-8.927800	27.932868	0.000276	20.801677
2644.731472	-2.986600	2.963500	-8.849400	27.945166	0.000279	20.809787
2645.746369	-3.003400	2.960300	-8.889700	27.956249	0.000275	20.798657
2646.733244	-3.008900	2.959200	-8.902800	27.937529	0.000277	20.795463
2647.735997	-3.009600	2.957100	-8.899200	27.939364	0.000277	20.800629
2648.732787	-2.974800	2.957300	-8.796400	27.967778	0.000276	20.800304
2649.732459	-3.003900	2.955400	-8.875300	28.022892	0.000279	20.802675
2650.731912	-2.997700	2.954700	-8.856100	28.047857	0.000276	20.792718
2651.732234	-2.983000	2.951200	-8.801300	28.043965	0.000277	20.785481
2652.734777	-2.992600	2.951400	-8.831600	28.076614	0.000276	20.793691
2653.736001	-3.010100	2.949800	-8.878100	28.051476	0.000278	20.808215
2654.735742	-3.018100	2.947800	-8.896300	27.982629	0.000277	20.798658
2655.736605	-3.010900	2.946100	-8.869400	27.925678	0.000277	20.793018
2656.734781	-2.993800	2.945600	-8.818000	27.952629	0.000277	20.814928
2657.738068	-3.010800	2.943200	-8.860400	27.977596	0.000277	20.815403
2658.737665	-2.979800	2.943800	-8.770700	27.974893	0.000279	20.809837
2659.737611	-3.027100	2.939200	-8.895500	27.980968	0.000276	20.813581
2660.741296	-2.980500	2.940000	-8.761600	27.978637	0.000275	20.800804
2661.734845	-2.989500	2.937200	-8.780000	27.963414	0.000277	20.777420
2662.735814	-2.985700	2.936500	-8.765400	27.988257	0.000276	20.799107
2663.737179	-2.996500	2.934400	-8.791900	27.963786	0.000275	20.782536
2664.735226	-3.005500	2.932400	-8.811700	27.921165	0.000275	20.786579
2665.732896	-2.998500	2.930500	-8.786500	27.870931	0.000276	20.790547
2666.737024	-2.983600	2.929800	-8.738900	27.893048	0.000276	20.776297
2667.740488	-2.991800	2.928300	-8.759500	27.865748	0.000276	20.782012
2668.736292	-3.008100	2.924600	-8.795800	27.885114	0.000274	20.778268
2669.739611	-3.005600	2.924300	-8.788500	27.930934	0.000274	20.785031
2670.737812	-3.013300	2.922600	-8.805600	27.945190	0.000276	20.796061
2671.748398	-3.039800	2.920100	-8.874900	27.912735	0.000274	20.780938
2672.737527	-3.008600	2.918700	-8.780000	27.928107	0.000276	20.778867
2673.744169	-3.012800	2.918500	-8.791000	27.952529	0.000274	20.772628
2674.737170	-3.018200	2.917000	-8.803200	27.996562	0.000277	20.785181
2675.740043	-2.965800	2.916300	-8.648200	28.004842	0.000273	20.778817
2676.739859	-2.974000	2.915300	-8.668400	28.026039	0.000273	20.768385
2677.742852	-2.977000	2.913300	-8.671700	27.991578	0.000274	20.769733
2678.741041	-3.027200	2.909000	-8.805000	28.011932	0.000274	20.763194
2679.743230	-2.990500	2.907400	-8.693600	28.041385	0.000274	20.767237
2680.742111	-3.007800	2.907000	-8.743500	28.058070	0.000273	20.778342
2681.746225	-3.001700	2.905200	-8.719500	28.032981	0.000273	20.774424
2682.744128	-3.017800	2.902600	-8.758400	28.037493	0.000276	20.778492
2683.740451	-3.022700	2.901600	-8.770400	28.030551	0.000273	20.769607
2684.745012	-2.999500	2.899800	-8.697000	28.041781	0.000274	20.775697
2685.745946	-2.999600	2.898300	-8.692700	28.092132	0.000275	20.780862
2686.745837	-3.003200	2.896100	-8.696400	28.125771	0.000275	20.761621
2687.748409	-3.021500	2.894300	-8.743900	28.166450	0.000274	20.776495
2688.743375	-3.015900	2.893100	-8.723000	28.206805	0.000273	20.790096
2689.747878	-3.007500	2.892100	-8.696800	28.221331	0.000275	20.768684
2690.744455	-3.016000	2.889200	-8.712800	28.208293	0.000276	20.767885
2691.750893	-3.000000	2.888200	-8.663400	28.213523	0.000273	20.743752
2692.744133	-2.973100	2.886600	-8.581200	28.190247	0.000275	20.785753
2693.752026	-3.034800	2.882500	-8.746500	28.149767	0.000274	20.758751
2694.753022	-3.015600	2.881100	-8.687500	28.123565	0.000273	20.762719
2695.745989	-2.997000	2.879300	-8.628500	28.096990	0.000276	20.758726
2696.745317	-2.985100	2.877500	-8.588600	28.097957	0.000275	20.782459
2697.743624	-3.003600	2.875000	-8.633000	28.072968	0.000274	20.760148
2698.747500	-2.982200	2.874900	-8.572700	28.043715	0.000272	20.743028
2699.744723	-2.989500	2.871100	-8.581800	27.993610	0.000273	20.779839
2700.745271	-2.958500	2.871100	-8.493300	27.995345	0.000273	20.757877
2701.746137	-3.012000	2.868500	-8.638500	27.978238	0.000271	20.766263
2702.744739	-2.962100	2.866800	-8.490800	27.962817	0.000273	20.748843
2703.757756	-2.972100	2.865000	-8.514200	28.008213	0.000274	20.777468
2704.745620	-3.008800	2.862500	-8.611800	28.019146	0.000272	20.762869
2705.745655	-3.020800	2.860600	-8.639700	28.066895	0.000273	20.767785
2706.747374	-2.965200	2.859900	-8.479100	28.094164	0.000273	20.755407
2707.747632	-3.016300	2.857200	-8.617500	28.142455	0.000272	20.757553
2708.747525	-2.998900	2.854300	-8.558900	28.159336	0.000273	20.752737
2709.755069	-2.984900	2.852500	-8.513400	28.226437	0.000275	20.771454
2710.746602	-3.005300	2.850800	-8.566900	28.256182	0.000272	20.771529
2711.750381	-2.998700	2.847900	-8.538500	28.280249	0.000272	20.763992
2712.751772	-2.994800	2.846900	-8.524800	28.227850	0.000273	20.754858
2713.748970	-2.980300	2.845200	-8.477800	28.155643	0.000274	20.746174
2714.748674	-2.997100	2.842000	-8.517100	28.112286	0.000274	20.748045
2715.750775	-3.005000	2.839700	-8.532900	28.126169	0.000272	20.744477
2716.755380	-3.006600	2.837700	-8.531100	28.099247	0.000273	20.757679
2717.755565	-3.002800	2.835300	-8.512300	28.088092	0.000273	20.742181
2718.753362	-2.986500	2.833500	-8.460600	28.122178	0.000273	20.750891
2719.747898	-3.014500	2.830100	-8.530200	28.138935	0.000276	20.749743
2720.757233	-3.010300	2.830200	-8.519000	28.158519	0.000275	20.744802
2721.754277	-2.995800	2.826500	-8.466600	28.176516	0.000275	20.737315
2722.765117	-3.018500	2.824700	-8.525600	28.210103	0.000274	20.749793
2723.752784	-2.957000	2.825600	-8.353900	28.247358	0.000274	20.749369
2724.758903	-2.994900	2.819900	-8.444600	28.292048	0.000275	20.764492
2725.749494	-2.993200	2.818600	-8.435000	28.310092	0.000274	20.766539
2726.756434	-2.996000	2.815400	-8.433800	28.348682	0.000275	20.739012
2727.758512	-2.997400	2.813200	-8.431500	28.326574	0.000275	20.737140
2728.752277	-3.003500	2.810000	-8.438100	28.247780	0.000274	20.742206
2729.757906	-3.000200	2.808200	-8.423800	28.206361	0.000276	20.744602
2730.758436	-3.032100	2.806000	-8.507000	28.194289	0.000273	20.753312
2731.753732	-3.003500	2.802900	-8.417800	28.164171	0.000275	20.771829
2732.760836	-2.975300	2.802100	-8.335700	28.126095	0.000275	20.766689
2733.755827	-2.988000	2.800000	-8.365100	28.124335	0.000275	20.736940
2734.756946	-2.991100	2.796600	-8.364000	28.157230	0.000276	20.752039
2735.757716	-3.006800	2.793300	-8.397800	28.222448	0.000275	20.755109
2736.762666	-3.000000	2.791700	-8.374300	28.259554	0.000276	20.734620
2737.760333	-3.011800	2.787600	-8.395200	28.267683	0.000276	20.747073
2738.761804	-3.001000	2.786300	-8.360900	28.315297	0.000276	20.739062
2739.760506	-3.022300	2.781900	-8.406600	28.365808	0.000276	20.760050
2740.759469	-2.961600	2.782200	-8.239000	28.337925	0.000277	20.732448
2741.763427	-2.985300	2.778900	-8.294600	28.337479	0.000276	20.745276
2742.760690	-3.001000	2.774200	-8.324500	28.334753	0.000277	20.735418
2743.757914	-3.002400	2.771900	-8.321800	28.362685	0.000276	20.753586
2744.770241	-3.010700	2.769000	-8.335500	28.426353	0.000276	20.747996
2745.763406	-3.009400	2.764800	-8.320100	28.457008	0.000277	20.739037
2746.766502	-2.970700	2.764400	-8.211300	28.482112	0.000277	20.761947
2747.763805	-2.991600	2.762100	-8.262000	28.461196	0.000275	20.746573
2748.764592	-3.017000	2.758200	-8.320300	28.427616	0.000275	20.756855
2749.763282	-2.994400	2.756600	-8.253500	28.354654	0.000277	20.731275
2750.761369	-3.028100	2.751500	-8.331500	28.298095	0.000275	20.765365
2751.770980	-2.984100	2.749800	-8.204300	28.259206	0.000276	20.729528
2752.764677	-3.019800	2.744500	-8.286600	28.224355	0.000275	20.752288
2753.764468	-2.990600	2.742100	-8.198600	28.266121	0.000277	20.758777
2754.769394	-2.980700	2.739200	-8.164000	28.339164	0.000276	20.764516
2755.765006	-2.989300	2.735800	-8.177400	28.318319	0.000278	20.743528
2756.762891	-2.986900	2.732700	-8.161100	28.310834	0.000277	20.767286
2757.775161	-2.995200	2.729500	-8.173600	28.332695	0.000276	20.758003
2758.766484	-2.966100	2.726600	-8.085400	28.308827	0.000275	20.774748
2759.762995	-3.035900	2.722000	-8.262900	28.327390	0.000277	20.737014
2760.768762	-2.985600	2.719700	-8.118100	28.296434	0.000277	20.778866
2761.763786	-3.004000	2.716100	-8.157800	28.373886	0.000276	20.767236
2762.766735	-3.005900	2.712500	-8.152200	28.400751	0.000277	20.757778
2763.763508	-2.990500	2.708800	-8.098900	28.452323	0.000274	20.751389
2764.765444	-2.976600	2.706100	-8.053700	28.513012	0.000276	20.766987
2765.786484	-3.007400	2.702100	-8.124900	28.581256	0.000275	20.763168
2766.768761	-3.003700	2.700300	-8.109700	28.587500	0.000275	20.760922
2767.768780	-3.011100	2.694400	-8.112500	28.628037	0.000274	20.755282
2768.766276	-3.003700	2.691400	-8.082700	28.632224	0.000276	20.754758
2769.770929	-2.957700	2.688500	-7.950700	28.660272	0.000276	20.783008
2770.770418	-2.994400	2.685100	-8.038800	28.712551	0.000276	20.779240
2771.773036	-3.015000	2.679500	-8.078100	28.698081	0.000277	20.778890
2772.773867	-3.016500	2.675600	-8.070100	28.654970	0.000274	20.757279
2773.768645	-3.004800	2.670700	-8.024100	28.611039	0.000274	20.783208
2774.775452	-2.996600	2.667800	-7.993500	28.590102	0.000276	20.778716
2775.780595	-3.024100	2.662600	-8.050900	28.628557	0.000275	20.772402
2776.774220	-2.984900	2.660700	-7.940500	28.625039	0.000275	20.784980
2777.771649	-3.036900	2.652900	-8.054900	28.671050	0.000275	20.773475
2778.777879	-2.992200	2.651000	-7.931800	28.716019	0.000276	20.777044
2779.770351	-2.979600	2.646600	-7.884300	28.743619	0.000277	20.811957
2780.786165	-2.990500	2.643800	-7.905800	28.779097	0.000276	20.761397
2781.769965	-2.993100	2.637500	-7.893200	28.771986	0.000274	20.762295
2782.773232	-2.984800	2.632800	-7.856800	28.770723	0.000276	20.790895
2783.772356	-2.972600	2.629500	-7.815500	28.779072	0.000275	20.798356
2784.775997	-2.979100	2.623400	-7.813700	28.773498	0.000276	20.794638
2785.775975	-3.034300	2.618400	-7.943700	28.779221	0.000275	20.794713
2786.773247	-3.020200	2.613800	-7.892700	28.732248	0.000276	20.779640
2787.775854	-3.028200	2.608600	-7.898800	28.730167	0.000277	20.805993
2788.776441	-2.979300	2.604600	-7.759100	28.718993	0.000276	20.778143
2789.774765	-2.981900	2.600000	-7.752400	28.713369	0.000276	20.785754
2790.773870	-2.992300	2.593200	-7.758600	28.718374	0.000277	20.775622
2791.775732	-3.016800	2.588300	-7.807600	28.757469	0.000277	20.801252
2792.776208	-2.993100	2.584200	-7.733800	28.752886	0.000276	20.781936
2793.785627	-2.987400	2.579200	-7.703800	28.774837	0.000276	20.804995
2794.776308	-3.019700	2.573700	-7.770800	28.774936	0.000276	20.788974
2795.777772	-3.005400	2.566700	-7.712300	28.750830	0.000276	20.786504
2796.779553	-2.984000	2.562100	-7.644000	28.716888	0.000276	20.790247
2797.790321	-3.019900	2.556200	-7.718100	28.634828	0.000276	20.808589
2798.780591	-2.991800	2.551600	-7.633300	28.627345	0.000278	20.802001
2799.779181	-2.986900	2.546100	-7.604300	28.581952	0.000275	20.804173
2800.787581	-2.952700	2.539800	-7.497700	28.611067	0.000278	20.771381
2801.781167	-3.014500	2.532600	-7.633600	28.653585	0.000277	20.790024
2802.779528	-2.985000	2.527700	-7.544200	28.704501	0.000277	20.820444
2803.781989	-3.006600	2.520600	-7.576900	28.733464	0.000279	20.796986
2804.781462	-3.003700	2.514400	-7.552200	28.731260	0.000278	20.786705
2805.781282	-3.012900	2.508500	-7.556400	28.685177	0.000276	20.809989
2806.779813	-3.023900	2.502600	-7.565400	28.657476	0.000277	20.791572
2807.780889	-3.032000	2.495900	-7.565300	28.668255	0.000279	20.797212
