LabVIEW Measurement	
Writer_Version	2
Reader_Version	2
Separator	Tab
Decimal_Separator	.
Multi_Headings	No
X_Columns	One
Time_Pref	Absolute
Operator	admin
Description	Clolumns are: time, Current, Voltage, Power, Battery Temp, and Chamber Temp
Date	2024/08/16
Time	13:06:06.104549407958984375
***End_of_Header***	
	
Channels	6						
Samples	1	1	1	1	1	1	
Date	2024/08/28	2024/08/28	2024/08/28	2024/08/28	2024/08/28	2024/08/28	
Time	03:12:26.0303773880004882813	03:12:26.0365238189697265625	03:12:26.0413765907287597656	03:12:26.0154328346252441406	03:12:26.0154328346252441406	03:12:26.0154328346252441406	
X_Dimension	Time	Time	Time	Time	Time	Time	
X0	0.0000000000000000E+0	0.0000000000000000E+0	0.0000000000000000E+0	0.0000000000000000E+0	0.0000000000000000E+0	0.0000000000000000E+0	
Delta_X	1.000000	1.000000	1.000000	1.000000	1.000000	1.000000	
***End_of_Header***							
X_Value	Untitled	Untitled 1	Untitled 2	Untitled 3	Untitled 4	Untitled 5	Comment
0.000000	0.018557	4.108100	0.076249	21.091088	0.000974	20.820858
0.999556	-2.996900	3.945400	-11.824000	21.104831	0.000975	20.825595
2.000565	-3.003900	3.940000	-11.833000	21.110471	0.000974	20.835030
3.001636	-3.002400	3.933500	-11.809000	21.103096	0.000973	20.828126
4.002354	-2.999900	3.929300	-11.787000	21.104013	0.000971	20.843268
5.000261	-3.001300	3.926200	-11.782000	21.114103	0.000969	20.832498
6.001438	-3.010500	3.921900	-11.805000	21.116864	0.000970	20.832889
7.002919	-2.997200	3.919800	-11.747000	21.107175	0.000969	20.843112
8.002254	-2.998500	3.919000	-11.750000	21.110515	0.000969	20.839814
9.003391	-2.987200	3.916800	-11.699000	21.109171	0.000967	20.837522
10.003205	-2.983500	3.915900	-11.681000	21.106461	0.000967	20.831493
11.003302	-2.976300	3.913200	-11.646000	21.096081	0.000968	20.848136
12.004556	-2.988400	3.909100	-11.680000	21.104696	0.000966	20.849167
13.007022	-2.998600	3.910100	-11.724000	21.115859	0.000966	20.840893
14.006000	-3.016100	3.908200	-11.787000	21.119704	0.000965	20.847109
15.003478	-2.981700	3.907500	-11.651000	21.113859	0.000964	20.834625
16.004741	-3.011500	3.904200	-11.756000	21.113468	0.000963	20.855570
17.014970	-2.974100	3.905100	-11.613000	21.129554	0.000962	20.830410
18.006911	-3.003700	3.903200	-11.723000	21.144300	0.000962	20.849902
19.004958	-3.016500	3.901200	-11.767000	21.145801	0.000963	20.843342
20.006471	-3.018400	3.901800	-11.775000	21.135424	0.000962	20.848136
21.006847	-3.010900	3.899800	-11.740000	21.146905	0.000961	20.845395
22.006864	-2.998200	3.899800	-11.691000	21.166444	0.000961	20.846922
23.008569	-3.015100	3.898300	-11.752000	21.170766	0.000959	20.857884
24.010938	-3.004000	3.896800	-11.705000	21.167027	0.000959	20.852720
25.011540	-3.011300	3.897400	-11.735000	21.176689	0.000958	20.860963
26.007132	-2.988700	3.897400	-11.647000	21.185269	0.000959	20.862433
27.006505	-3.003400	3.895300	-11.698000	21.196197	0.000956	20.847287
28.009528	-2.992700	3.895300	-11.657000	21.187534	0.000958	20.861855
29.007440	-3.015300	3.893100	-11.738000	21.190378	0.000956	20.868493
30.012295	-2.989600	3.893300	-11.638000	21.207833	0.000955	20.857031
31.007615	-2.993000	3.893300	-11.652000	21.210203	0.000954	20.868410
32.008031	-2.994600	3.892900	-11.656000	21.217282	0.000956	20.844673
33.013585	-2.986100	3.891300	-11.618000	21.211360	0.000954	20.869567
34.032825	-3.011100	3.890600	-11.714000	21.231293	0.000955	20.853947
35.008076	-2.997600	3.891400	-11.664000	21.227079	0.000953	20.859688
36.007946	-3.041600	3.887100	-11.821000	21.239159	0.000955	20.859445
37.008614	-3.005400	3.890000	-11.690000	21.228179	0.000954	20.853203
38.007613	-3.017200	3.887900	-11.728000	21.249195	0.000951	20.875173
39.011719	-3.033500	3.888700	-11.795000	21.257170	0.000953	20.885047
40.038931	-3.026400	3.888200	-11.766000	21.251248	0.000954	20.869641
41.008748	-3.002400	3.887600	-11.671000	21.264827	0.000952	20.887492
42.016278	-2.980000	3.887100	-11.581000	21.274889	0.000952	20.893764
43.009682	-2.981500	3.885900	-11.585000	21.284973	0.000951	20.870188
44.011196	-2.985300	3.886300	-11.601000	21.299504	0.000950	20.872398
45.009991	-3.002600	3.885600	-11.666000	21.279577	0.000950	20.878540
46.019090	-2.981300	3.885500	-11.582000	21.295921	0.000951	20.870710
47.014623	-2.999100	3.885400	-11.651000	21.291603	0.000950	20.883934
48.009797	-2.991600	3.884700	-11.621000	21.285099	0.000949	20.867944
49.009364	-2.991600	3.884200	-11.620000	21.314040	0.000951	20.869397
50.011888	-2.986400	3.883200	-11.596000	21.312801	0.000947	20.880958
51.011798	-2.973500	3.885500	-11.552000	21.324910	0.000950	20.880271
52.013619	-2.993200	3.883400	-11.623000	21.345211	0.000948	20.865021
53.010306	-2.987600	3.882600	-11.599000	21.348237	0.000948	20.874686
54.010973	-3.021300	3.881500	-11.726000	21.354216	0.000946	20.870710
55.019376	-2.990100	3.881800	-11.606000	21.371616	0.000946	20.890963
56.011190	-2.999400	3.879900	-11.637000	21.382407	0.000947	20.873311
57.013391	-3.028400	3.879600	-11.747000	21.380277	0.000946	20.899153
58.014076	-2.990800	3.881400	-11.607000	21.384777	0.000945	20.886587
59.013323	-2.983700	3.879700	-11.575000	21.402785	0.000946	20.877104
60.015626	-2.990600	3.880000	-11.602000	21.399681	0.000949	20.887274
61.011590	-3.007600	3.879000	-11.665000	21.391124	0.000946	20.890567
62.012882	-2.995900	3.879000	-11.619000	21.422272	0.000946	20.879532
63.012860	-2.999300	3.879400	-11.635000	21.447201	0.000945	20.878870
64.012439	-2.989900	3.878500	-11.596000	21.424776	0.000945	20.890097
65.014257	-2.991000	3.879500	-11.603000	21.448045	0.000944	20.887300
66.013237	-2.990900	3.878600	-11.599000	21.442914	0.000942	20.899236
67.014248	-2.995100	3.877600	-11.613000	21.435119	0.000945	20.884799
68.013257	-2.996200	3.877600	-11.617000	21.451705	0.000943	20.880058
69.013873	-2.969300	3.877900	-11.514000	21.465978	0.000944	20.904294
70.012754	-3.013200	3.875800	-11.678000	21.466057	0.000942	20.905321
71.014569	-3.001600	3.876300	-11.633000	21.465057	0.000943	20.893890
72.013558	-2.992100	3.876600	-11.596000	21.492067	0.000943	20.911432
73.016659	-2.986900	3.876700	-11.578000	21.489646	0.000944	20.908061
74.014368	-3.005900	3.874500	-11.646000	21.515396	0.000945	20.902059
75.015396	-3.013300	3.874100	-11.671000	21.496728	0.000942	20.899501
76.019423	-2.996800	3.875700	-11.613000	21.513365	0.000944	20.896709
77.016068	-3.004700	3.874200	-11.640000	21.512339	0.000945	20.913224
78.016183	-3.002500	3.873600	-11.629000	21.504857	0.000943	20.914272
79.016242	-3.001500	3.875600	-11.631000	21.519473	0.000943	20.930318
80.016870	-2.998500	3.875600	-11.620000	21.516600	0.000943	20.917013
81.020537	-3.000400	3.873600	-11.620000	21.530002	0.000941	20.921414
82.018022	-2.997500	3.874300	-11.611000	21.551352	0.000943	20.904847
83.015888	-3.013600	3.872700	-11.670000	21.564306	0.000944	20.914490
84.018270	-3.014200	3.872700	-11.671000	21.563015	0.000942	20.907035
85.017289	-3.000100	3.872200	-11.616000	21.549982	0.000942	20.911536
86.018999	-2.973300	3.873800	-11.517000	21.559724	0.000943	20.917017
87.018844	-2.996400	3.871200	-11.599000	21.583364	0.000943	20.935929
88.017618	-2.984300	3.873200	-11.558000	21.582890	0.000942	20.920758
89.018704	-3.006000	3.872300	-11.639000	21.591606	0.000943	20.918574
90.024092	-3.004300	3.870800	-11.629000	21.612272	0.000941	20.913651
91.018581	-3.009000	3.870700	-11.646000	21.617032	0.000943	20.923154
92.021430	-3.019700	3.869500	-11.683000	21.607216	0.000942	20.911911
93.019653	-3.002700	3.870600	-11.622000	21.620661	0.000942	20.937690
94.031943	-2.990500	3.870300	-11.573000	21.633959	0.000943	20.927291
95.020017	-3.007900	3.869700	-11.638000	21.648386	0.000944	20.931297
96.020016	-2.999700	3.869900	-11.607000	21.649281	0.000940	20.926029
97.023669	-2.995000	3.869800	-11.589000	21.665021	0.000943	20.923763
98.020205	-3.006600	3.869100	-11.630000	21.675518	0.000942	20.939008
99.024565	-3.004200	3.869400	-11.624000	21.693766	0.000942	20.928348
100.019435	-3.016000	3.867600	-11.664000	21.675579	0.000941	20.937173
101.021399	-3.001500	3.868800	-11.610000	21.693579	0.000941	20.919153
102.019175	-3.002300	3.868900	-11.614000	21.706215	0.000943	20.927530
103.024594	-2.993200	3.868600	-11.578000	21.703215	0.000942	20.949182
104.021591	-2.985100	3.869900	-11.550000	21.730460	0.000941	20.951317
105.022057	-2.965900	3.868700	-11.472000	21.700008	0.000942	20.927956
106.021837	-2.982400	3.868300	-11.536000	21.727065	0.000941	20.928483
107.022279	-2.974100	3.868100	-11.503000	21.724748	0.000941	20.946076
108.025707	-2.990000	3.867500	-11.563000	21.736645	0.000941	20.941862
109.022714	-2.990700	3.867000	-11.563000	21.729773	0.000942	20.936881
110.027064	-3.000400	3.866100	-11.598000	21.744725	0.000944	20.931932
111.023528	-3.003500	3.866000	-11.611000	21.735124	0.000944	20.929435
112.024309	-2.994500	3.865900	-11.576000	21.733859	0.000943	20.952348
113.031444	-3.019600	3.866000	-11.673000	21.760098	0.000944	20.966754
114.027139	-3.010000	3.866700	-11.638000	21.757990	0.000943	20.947103
115.026415	-2.998200	3.865200	-11.588000	21.762593	0.000944	20.945546
116.026594	-2.997600	3.865100	-11.585000	21.768491	0.000943	20.922528
117.027003	-2.978200	3.866500	-11.514000	21.790023	0.000944	20.966358
118.026427	-2.982400	3.866300	-11.530000	21.774072	0.000941	20.945654
119.028370	-3.001000	3.863800	-11.594000	21.796364	0.000942	20.957533
120.027097	-2.988900	3.864200	-11.549000	21.794152	0.000944	20.942518
121.027276	-2.984600	3.866200	-11.538000	21.799633	0.000943	20.964122
122.027937	-2.982700	3.863800	-11.522000	21.810024	0.000944	20.947499
123.028998	-2.995700	3.864000	-11.574000	21.812024	0.000943	20.952818
124.029646	-3.008100	3.862900	-11.619000	21.818578	0.000943	20.959851
125.028231	-2.985300	3.864100	-11.534000	21.827948	0.000944	20.937938
126.029305	-2.999500	3.863700	-11.588000	21.843081	0.000945	20.969676
127.028327	-3.000800	3.864000	-11.594000	21.837662	0.000944	20.945289
128.028638	-3.011100	3.863200	-11.631000	21.839635	0.000945	20.957220
129.030562	-3.006400	3.863700	-11.615000	21.875029	0.000944	20.959455
130.029326	-3.000300	3.863600	-11.591000	21.865446	0.000946	20.968354
131.032859	-2.996000	3.864600	-11.578000	21.853790	0.000944	20.959534
132.029925	-2.995600	3.862400	-11.568000	21.889714	0.000945	20.956611
133.029783	-3.008100	3.863700	-11.622000	21.864498	0.000945	20.962191
134.034056	-2.990500	3.862400	-11.549000	21.882791	0.000946	20.960586
135.030433	-2.986800	3.861600	-11.532000	21.891526	0.000946	20.972173
136.030250	-2.989300	3.861800	-11.543000	21.872999	0.000946	20.964061
137.031026	-3.001300	3.863500	-11.595000	21.896080	0.000947	20.968198
138.032202	-2.986300	3.862400	-11.533000	21.890261	0.000947	20.968063
139.032978	-3.013100	3.861500	-11.634000	21.894572	0.000946	20.970481
140.035303	-3.002700	3.860000	-11.589000	21.895972	0.000947	20.964770
141.032151	-2.992300	3.861400	-11.553000	21.887419	0.000947	20.967114
142.033218	-3.010800	3.859100	-11.618000	21.899683	0.000949	20.969433
143.033343	-2.999200	3.859700	-11.574000	21.901865	0.000948	20.969246
144.032815	-3.021000	3.860700	-11.660000	21.920495	0.000947	21.000217
145.035574	-3.014700	3.859300	-11.634000	21.933628	0.000948	20.970694
146.032340	-3.005800	3.859800	-11.601000	21.946261	0.000949	20.990449
147.032969	-2.996100	3.859700	-11.562000	21.937596	0.000950	20.985569
148.031970	-3.007900	3.859600	-11.609000	21.966990	0.000949	20.970898
149.031503	-2.997200	3.859900	-11.568000	21.961836	0.000947	20.956732
150.033503	-2.983600	3.859300	-11.513000	21.969076	0.000948	20.964453
151.033503	-2.993500	3.858600	-11.550000	21.974099	0.000948	20.968058
152.032504	-3.001800	3.858600	-11.581000	21.983733	0.000950	20.990975
153.033502	-3.001000	3.857300	-11.575000	21.995253	0.000950	20.973586
154.033587	-2.989800	3.857700	-11.532000	22.008833	0.000948	20.991445
155.033876	-2.987300	3.857700	-11.523000	22.027961	0.000950	20.989731
156.034992	-3.015400	3.856100	-11.626000	22.046225	0.000949	21.001374
157.035212	-2.991200	3.857100	-11.537000	22.047463	0.000952	20.999769
158.039212	-2.998500	3.857100	-11.565000	22.029991	0.000949	20.986547
159.035214	-3.008300	3.857400	-11.603000	22.063276	0.000950	21.010381
160.035212	-2.995100	3.856800	-11.550000	22.049223	0.000950	21.005797
161.041212	-2.996500	3.856800	-11.555000	22.053225	0.000952	21.010277
162.038213	-2.992300	3.858500	-11.544000	22.065644	0.000951	20.980989
163.037213	-2.999800	3.857400	-11.571000	22.043383	0.000953	21.011329
164.037728	-2.971300	3.856700	-11.458000	22.069772	0.000951	20.998395
165.038089	-3.013400	3.855300	-11.616000	22.069168	0.000952	20.981197
166.037712	-3.017300	3.854500	-11.629000	22.099250	0.000954	20.982863
167.041709	-3.011400	3.855600	-11.610000	22.085271	0.000952	21.009642
168.038518	-2.991300	3.855800	-11.533000	22.138450	0.000952	21.003614
169.039693	-3.005300	3.855300	-11.585000	22.137347	0.000952	21.009620
170.038826	-3.036000	3.854100	-11.699000	22.142422	0.000954	21.007589
171.039780	-3.012100	3.855100	-11.610000	22.151472	0.000953	21.016648
172.042824	-3.018300	3.853800	-11.630000	22.158550	0.000954	21.009037
173.040019	-3.011000	3.854700	-11.604000	22.160762	0.000955	20.992288
174.042256	-3.004300	3.853300	-11.575000	22.171311	0.000955	20.995737
175.042421	-2.980600	3.854000	-11.486000	22.203432	0.000955	20.998973
176.041658	-2.999600	3.854500	-11.561000	22.180522	0.000954	20.998321
177.044203	-2.982100	3.853100	-11.489000	22.182147	0.000957	20.999473
178.043839	-3.004800	3.853500	-11.577000	22.193517	0.000955	20.981937
179.042727	-2.986700	3.853000	-11.507000	22.212034	0.000955	21.005214
180.044876	-2.987000	3.853500	-11.509000	22.210462	0.000955	20.986099
181.044550	-2.994200	3.852300	-11.534000	22.184180	0.000959	20.986339
182.044954	-3.010100	3.853300	-11.598000	22.177780	0.000958	20.988939
183.046026	-2.990100	3.853700	-11.521000	22.174808	0.000958	20.967001
184.044549	-2.963000	3.854000	-11.418000	22.166436	0.000957	20.979479
185.047936	-3.019200	3.852600	-11.631000	22.186096	0.000961	20.985886
186.047645	-3.012600	3.851900	-11.604000	22.163412	0.000958	20.973608
187.047730	-3.009700	3.852100	-11.591000	22.182355	0.000959	20.966971
188.048930	-2.990300	3.852000	-11.517000	22.201855	0.000958	20.980328
189.048547	-2.988100	3.852600	-11.511000	22.185909	0.000958	20.983329
190.052090	-2.998100	3.849800	-11.541000	22.227901	0.000960	20.978905
191.049776	-3.014200	3.850300	-11.605000	22.242446	0.000960	20.969289
192.050376	-2.978600	3.851000	-11.470000	22.240344	0.000960	20.962917
193.052516	-3.000900	3.850400	-11.554000	22.268257	0.000961	20.959098
194.053697	-2.996900	3.850800	-11.540000	22.255259	0.000962	20.962678
195.052133	-3.005600	3.849700	-11.570000	22.286673	0.000961	20.958572
196.051661	-3.000200	3.851200	-11.552000	22.286512	0.000961	20.953670
197.053191	-3.008100	3.850500	-11.581000	22.268414	0.000963	20.960203
198.056913	-3.009400	3.850300	-11.585000	22.245870	0.000962	20.970346
199.053818	-2.990900	3.849000	-11.511000	22.250949	0.000963	20.948881
200.054298	-2.998000	3.849200	-11.539000	22.254550	0.000961	20.971925
201.053531	-3.001000	3.849200	-11.551000	22.233605	0.000964	20.960438
202.053512	-2.994800	3.849400	-11.527000	22.263126	0.000963	20.959651
203.054424	-3.004400	3.848400	-11.559000	22.246448	0.000964	20.942479
204.056423	-3.046100	3.846500	-11.715000	22.264525	0.000963	20.946829
205.054822	-3.012100	3.847800	-11.589000	22.304907	0.000965	20.971612
206.054478	-2.999800	3.847700	-11.541000	22.294619	0.000965	20.932867
207.057156	-2.990700	3.848700	-11.509000	22.301722	0.000967	20.949460
208.057712	-2.999600	3.848200	-11.541000	22.333292	0.000967	20.954518
209.059832	-2.996200	3.848400	-11.529000	22.340681	0.000966	20.947694
210.057955	-3.001800	3.847400	-11.547000	22.336685	0.000966	20.945589
211.058848	-2.997200	3.846300	-11.527000	22.335972	0.000967	20.945824
212.057839	-2.993300	3.847800	-11.517000	22.334817	0.000968	20.934711
213.058466	-3.003300	3.848100	-11.556000	22.365882	0.000968	20.924568
214.058282	-3.025000	3.846200	-11.633000	22.368093	0.000968	20.931997
215.059285	-3.002500	3.846000	-11.547000	22.377637	0.000970	20.948664
216.063637	-2.999200	3.846800	-11.536000	22.378645	0.000969	20.926916
217.059194	-3.011800	3.846500	-11.584000	22.387632	0.000971	20.940182
218.058802	-3.020000	3.845300	-11.612000	22.362224	0.000968	20.941291
219.059440	-3.014700	3.845500	-11.592000	22.378293	0.000971	20.936046
220.059278	-2.973400	3.846800	-11.435000	22.371169	0.000970	20.930335
221.058493	-2.998000	3.845500	-11.527000	22.400916	0.000973	20.932149
222.058282	-3.004900	3.845000	-11.553000	22.386160	0.000972	20.933967
223.060474	-2.990700	3.846000	-11.501000	22.414704	0.000971	20.939791
224.059521	-3.020700	3.843600	-11.609000	22.415095	0.000972	20.935915
225.060677	-3.012100	3.843000	-11.575000	22.401572	0.000972	20.930435
226.059679	-2.990700	3.844000	-11.495000	22.463732	0.000973	20.920614
227.061330	-2.999600	3.844400	-11.531000	22.448342	0.000973	20.937442
228.060357	-2.989200	3.842800	-11.486000	22.445341	0.000974	20.944867
229.060996	-2.996900	3.843200	-11.515000	22.444768	0.000974	20.928647
230.063942	-2.986900	3.842900	-11.477000	22.434907	0.000975	20.926834
231.062123	-3.017100	3.842500	-11.593000	22.451839	0.000974	20.910601
232.062065	-3.008900	3.842800	-11.562000	22.448551	0.000977	20.922954
233.065855	-2.985100	3.843500	-11.472000	22.447474	0.000977	20.921401
234.061899	-2.997600	3.843200	-11.519000	22.423856	0.000978	20.924302
235.070864	-2.979200	3.843700	-11.449000	22.423852	0.000978	20.935202
236.063632	-3.028800	3.841800	-11.635000	22.452951	0.000976	20.918826
237.065578	-3.012100	3.843100	-11.575000	22.460683	0.000978	20.909501
238.066181	-2.988800	3.841400	-11.481000	22.465448	0.000980	20.939874
239.064970	-2.988100	3.842800	-11.482000	22.446557	0.000978	20.926647
240.067534	-2.989000	3.841500	-11.481000	22.452135	0.000980	20.934602
241.068187	-2.987700	3.841900	-11.478000	22.478596	0.000981	20.938817
242.067076	-2.994100	3.840400	-11.498000	22.470126	0.000982	20.918483
243.068212	-3.031600	3.839000	-11.637000	22.469310	0.000979	20.926199
244.068174	-3.000300	3.840400	-11.521000	22.480521	0.000980	20.923202
245.067564	-3.009500	3.839500	-11.554000	22.481650	0.000981	20.928600
246.078564	-2.971200	3.841200	-11.411000	22.470469	0.000984	20.924990
247.069568	-3.030700	3.840100	-11.636000	22.478305	0.000982	20.919087
248.070456	-2.979500	3.839800	-11.439000	22.460874	0.000982	20.909218
249.068729	-3.012100	3.838600	-11.560000	22.465791	0.000983	20.927417
250.069729	-2.988200	3.838800	-11.471000	22.472077	0.000983	20.932762
251.074730	-3.006800	3.839100	-11.543000	22.468398	0.000985	20.907744
252.071213	-2.993400	3.838900	-11.490000	22.467060	0.000984	20.916360
253.074209	-2.992300	3.839700	-11.488000	22.472815	0.000985	20.939665
254.071018	-2.981600	3.839700	-11.448000	22.483839	0.000986	20.915147
255.071005	-3.001000	3.837600	-11.516000	22.506300	0.000986	20.906347
256.074005	-2.998100	3.837400	-11.504000	22.497257	0.000988	20.917204
257.076005	-2.991500	3.838000	-11.481000	22.527375	0.000987	20.918918
258.073003	-3.005100	3.837400	-11.531000	22.535688	0.000989	20.927717
259.072162	-3.015600	3.836800	-11.569000	22.551520	0.000988	20.893790
260.072557	-2.995000	3.837400	-11.492000	22.558417	0.000987	20.910654
261.072556	-2.987400	3.838400	-11.464000	22.522619	0.000989	20.927904
262.074846	-3.010000	3.834900	-11.541000	22.514362	0.000989	20.937651
263.074981	-3.004300	3.836500	-11.525000	22.530459	0.000990	20.921058
264.077163	-3.003600	3.836300	-11.522000	22.493005	0.000990	20.896826
265.076199	-2.992000	3.835300	-11.474000	22.534724	0.000990	20.899254
266.076162	-3.031900	3.835300	-11.627000	22.539802	0.000993	20.928518
267.078163	-3.000200	3.835500	-11.505000	22.552189	0.000990	20.922907
268.076315	-3.003300	3.834900	-11.517000	22.573997	0.000992	20.925782
269.075915	-2.981400	3.834800	-11.432000	22.565054	0.000993	20.918248
270.075861	-3.008000	3.834100	-11.532000	22.581733	0.000992	20.899867
271.076855	-3.007100	3.834100	-11.528000	22.585442	0.000993	20.929657
272.077132	-3.002600	3.834500	-11.512000	22.599358	0.000993	20.922259
273.081135	-2.988600	3.835600	-11.463000	22.586523	0.000993	20.904665
274.089136	-3.006800	3.832200	-11.521000	22.600648	0.000995	20.914543
275.078136	-3.018100	3.833200	-11.568000	22.585108	0.000993	20.910833
276.078484	-3.008300	3.833500	-11.531000	22.591549	0.000995	20.893104
277.077613	-3.009800	3.833800	-11.537000	22.588109	0.000994	20.910520
278.082614	-3.005300	3.832800	-11.517000	22.594976	0.000998	20.891320
279.078608	-3.004600	3.831700	-11.511000	22.608943	0.000996	20.903887
280.079608	-3.029000	3.831300	-11.603000	22.616830	0.000996	20.897562
281.078611	-2.995100	3.832500	-11.477000	22.637425	0.000999	20.900172
282.078608	-3.004700	3.833300	-11.517000	22.640921	0.000999	20.909363
283.079611	-3.013200	3.832900	-11.549000	22.668143	0.000997	20.912447
284.079610	-3.020200	3.831700	-11.571000	22.678714	0.001001	20.888424
285.078609	-3.019200	3.830800	-11.565000	22.657547	0.000998	20.902782
286.080272	-2.993300	3.832100	-11.469000	22.673589	0.000999	20.917427
287.080659	-2.994700	3.831700	-11.474000	22.675592	0.001000	20.910898
288.084093	-3.000000	3.832700	-11.497000	22.670697	0.001001	20.916901
289.081059	-3.015500	3.830700	-11.550000	22.669880	0.001001	20.900912
290.080057	-2.992000	3.830600	-11.460000	22.696441	0.001003	20.916135
291.081060	-2.985600	3.830500	-11.436000	22.706569	0.001005	20.901151
292.081088	-2.992900	3.830300	-11.463000	22.698682	0.001005	20.929758
293.081482	-3.004100	3.829400	-11.503000	22.689033	0.001002	20.894018
294.084155	-3.005300	3.829300	-11.507000	22.676247	0.001003	20.885953
295.083162	-3.001700	3.830300	-11.495000	22.684034	0.001004	20.900864
296.081475	-3.003200	3.828900	-11.498000	22.700129	0.001004	20.895175
297.082810	-2.988300	3.829200	-11.441000	22.715276	0.001005	20.890433
298.082618	-3.002300	3.829600	-11.496000	22.736130	0.001006	20.879081
299.086625	-2.993300	3.828700	-11.459000	22.750964	0.001007	20.907214
300.083509	-2.980500	3.829500	-11.413000	22.753305	0.001007	20.901499
301.084263	-2.994700	3.828700	-11.465000	22.789326	0.001006	20.911977
302.084417	-2.994400	3.827800	-11.461000	22.794745	0.001007	20.906975
303.084955	-2.980200	3.829400	-11.412000	22.793434	0.001008	20.891912
304.085660	-3.002500	3.828300	-11.494000	22.768847	0.001008	20.900473
305.084656	-3.003400	3.828500	-11.497000	22.817812	0.001008	20.876980
306.088733	-3.016600	3.826400	-11.541000	22.804347	0.001008	20.884827
307.090641	-2.985300	3.827400	-11.425000	22.797221	0.001012	20.906136
308.086166	-2.983400	3.828300	-11.420000	22.791015	0.001012	20.891386
309.090457	-2.985900	3.828200	-11.430000	22.796882	0.001011	20.894418
310.087949	-3.005700	3.826600	-11.500000	22.813917	0.001011	20.898206
311.091983	-3.007900	3.826300	-11.508000	22.835138	0.001011	20.897180
312.089900	-3.005800	3.824700	-11.496000	22.851209	0.001011	20.895262
313.091916	-3.006800	3.825800	-11.503000	22.861513	0.001011	20.893731
314.091392	-2.994100	3.826500	-11.455000	22.856098	0.001013	20.889255
315.095012	-3.018800	3.823900	-11.542000	22.842372	0.001014	20.887358
316.093267	-2.993800	3.825500	-11.452000	22.835824	0.001016	20.898815
317.093355	-2.991600	3.824300	-11.440000	22.828303	0.001016	20.889859
318.093355	-2.986700	3.823000	-11.417000	22.812159	0.001013	20.895971
319.093132	-2.979500	3.824400	-11.394000	22.793964	0.001017	20.869211
320.095083	-2.985100	3.824400	-11.415000	22.838404	0.001016	20.881961
321.092850	-3.005700	3.824200	-11.493000	22.816944	0.001015	20.884170
322.093584	-2.998800	3.823900	-11.466000	22.829771	0.001017	20.882795
323.092655	-2.981500	3.823500	-11.399000	22.833879	0.001016	20.883117
324.093859	-3.009000	3.823000	-11.503000	22.869798	0.001018	20.885436
325.095205	-3.002000	3.821700	-11.471000	22.892724	0.001016	20.873317
326.094362	-3.002500	3.823300	-11.479000	22.893432	0.001019	20.866915
327.094322	-2.997500	3.823700	-11.461000	22.886410	0.001018	20.889751
328.094848	-3.028700	3.821100	-11.570000	22.902715	0.001022	20.881904
329.095973	-2.998400	3.822400	-11.460000	22.915124	0.001019	20.864466
330.097896	-2.999300	3.822300	-11.463000	22.936734	0.001021	20.886114
331.096087	-2.979300	3.823300	-11.390000	22.909601	0.001021	20.869363
332.097744	-2.980300	3.822900	-11.393000	22.925297	0.001022	20.884139
333.096872	-3.009100	3.821900	-11.499000	22.949590	0.001020	20.899468
334.096501	-2.982100	3.822300	-11.398000	22.950906	0.001024	20.872813
335.099154	-3.010800	3.820600	-11.502000	22.970782	0.001022	20.875657
336.100549	-3.019800	3.820300	-11.535000	22.952378	0.001022	20.882347
337.097527	-2.996100	3.820900	-11.447000	22.950194	0.001023	20.882056
338.097896	-3.008500	3.819900	-11.490000	22.939808	0.001025	20.894409
339.098349	-3.008600	3.819900	-11.492000	22.952399	0.001025	20.881421
340.099454	-3.001400	3.819500	-11.462000	22.955373	0.001025	20.894357
341.100386	-2.994300	3.818900	-11.434000	22.975146	0.001027	20.898045
342.097535	-3.013400	3.819300	-11.506000	22.987316	0.001026	20.893643
343.103011	-2.999300	3.819200	-11.453000	23.017025	0.001025	20.865092
344.097885	-3.002900	3.819900	-11.467000	23.018185	0.001025	20.886166
345.097926	-3.006200	3.817500	-11.475000	23.034483	0.001025	20.876893
346.101115	-3.004600	3.817300	-11.468000	23.032060	0.001027	20.863086
347.098317	-3.008800	3.817100	-11.484000	23.054171	0.001029	20.879550
348.098530	-2.991700	3.817600	-11.420000	23.054566	0.001029	20.864300
349.097498	-3.007200	3.817100	-11.478000	23.022179	0.001027	20.868358
350.099459	-2.996800	3.817000	-11.437000	23.023151	0.001027	20.866488
351.097948	-2.977400	3.818100	-11.367000	23.032143	0.001030	20.884979
352.101936	-3.014800	3.817300	-11.507000	23.038659	0.001031	20.855948
353.101447	-2.989900	3.817400	-11.412000	23.024597	0.001032	20.859402
354.098594	-2.985000	3.816200	-11.389000	23.003171	0.001030	20.860694
355.099008	-2.986700	3.817800	-11.402000	22.998460	0.001033	20.879207
356.101084	-3.016200	3.816200	-11.510000	22.983790	0.001034	20.842699
357.103601	-2.987000	3.815300	-11.394000	22.951005	0.001031	20.868645
358.101049	-2.994800	3.815800	-11.427000	22.938596	0.001032	20.870438
359.100681	-3.003400	3.813700	-11.452000	22.948696	0.001035	20.879133
360.101963	-2.983700	3.815900	-11.384000	22.962311	0.001034	20.880920
361.101397	-2.994200	3.814500	-11.419000	22.935101	0.001034	20.871203
362.103408	-3.017000	3.814200	-11.506000	22.954327	0.001037	20.871973
363.102825	-2.983200	3.814900	-11.379000	22.970413	0.001036	20.859167
364.105283	-3.017300	3.812400	-11.501000	22.984216	0.001036	20.879159
365.102734	-2.995000	3.813300	-11.419000	22.985344	0.001035	20.855635
366.101530	-2.996900	3.814200	-11.429000	23.000488	0.001035	20.868911
367.106431	-2.998400	3.813200	-11.433000	23.024488	0.001038	20.875888
368.102776	-2.981300	3.812900	-11.366000	23.041394	0.001038	20.867697
369.102426	-3.005700	3.813300	-11.461000	23.037925	0.001036	20.870385
370.103167	-2.993500	3.813100	-11.413000	23.051219	0.001036	20.860472
371.104086	-3.003100	3.811000	-11.443000	23.049356	0.001039	20.860028
372.102808	-2.977900	3.812400	-11.352000	23.035789	0.001039	20.855918
373.106515	-3.000100	3.811900	-11.435000	23.026720	0.001037	20.847305
374.104912	-3.005300	3.811300	-11.453000	23.024384	0.001038	20.870094
375.104930	-3.005200	3.810000	-11.448000	23.034504	0.001040	20.869328
376.105082	-3.019700	3.811100	-11.507000	23.062763	0.001040	20.860659
377.104814	-3.016100	3.810600	-11.492000	23.076277	0.001041	20.835321
378.109023	-2.987900	3.810900	-11.385000	23.092839	0.001042	20.846701
379.106387	-2.990800	3.809900	-11.394000	23.100723	0.001042	20.862186
380.106478	-3.026400	3.810000	-11.529000	23.140944	0.001042	20.859815
381.106071	-3.016600	3.810000	-11.492000	23.153381	0.001042	20.842407
382.106076	-3.003700	3.809600	-11.442000	23.159975	0.001044	20.845222
383.110104	-2.995800	3.810300	-11.413000	23.182422	0.001044	20.853016
384.107071	-2.994600	3.808700	-11.404000	23.186602	0.001044	20.847723
385.107070	-2.993900	3.808300	-11.401000	23.175507	0.001044	20.840872
386.107068	-3.010900	3.807200	-11.462000	23.188760	0.001043	20.840402
387.106938	-3.008600	3.807400	-11.454000	23.192545	0.001046	20.868850
388.108939	-2.993000	3.808400	-11.398000	23.206579	0.001044	20.857310
389.106506	-2.997700	3.807700	-11.414000	23.206865	0.001044	20.860441
390.107506	-2.966300	3.808700	-11.297000	23.218694	0.001047	20.855226
391.107508	-2.975400	3.808500	-11.330000	23.231656	0.001045	20.842612
392.107522	-2.990100	3.806900	-11.382000	23.233335	0.001046	20.838131
393.107523	-2.984900	3.807200	-11.364000	23.237099	0.001046	20.848066
394.109523	-2.975000	3.807800	-11.327000	23.249422	0.001049	20.856148
395.107523	-3.003100	3.805800	-11.428000	23.243059	0.001048	20.857357
396.107527	-2.973900	3.806800	-11.320000	23.248684	0.001049	20.845926
397.107522	-2.998100	3.805200	-11.407000	23.266902	0.001049	20.863708
398.107523	-3.005100	3.805900	-11.436000	23.279303	0.001048	20.851006
399.109791	-2.990300	3.805800	-11.380000	23.273369	0.001049	20.851224
400.108132	-2.985200	3.805500	-11.358000	23.280909	0.001050	20.847875
401.109024	-2.979800	3.804600	-11.335000	23.273074	0.001049	20.851402
402.114257	-3.006400	3.805500	-11.440000	23.280488	0.001050	20.836073
403.110251	-2.992400	3.805200	-11.385000	23.274597	0.001051	20.836334
404.111486	-3.006900	3.803700	-11.437000	23.287949	0.001050	20.846870
405.114458	-3.009700	3.804600	-11.449000	23.274706	0.001052	20.857305
406.112667	-3.027700	3.802500	-11.511000	23.270474	0.001052	20.858279
407.110664	-3.017200	3.803600	-11.474000	23.270027	0.001052	20.824642
408.110719	-3.003100	3.802400	-11.418000	23.250338	0.001052	20.836678
409.110636	-2.998000	3.803800	-11.402000	23.234937	0.001053	20.825038
410.111851	-2.980800	3.802100	-11.332000	23.222136	0.001054	20.825012
411.112599	-2.981800	3.802700	-11.338000	23.200185	0.001053	20.851850
412.114964	-3.009000	3.802000	-11.439000	23.193165	0.001054	20.844343
413.112531	-2.989700	3.802000	-11.365000	23.198136	0.001055	20.825142
414.113068	-2.997800	3.802700	-11.399000	23.197923	0.001054	20.827300
415.117293	-3.004500	3.800800	-11.419000	23.240033	0.001055	20.831567
416.115297	-2.990100	3.800500	-11.363000	23.240011	0.001057	20.822063
417.118345	-2.997100	3.800900	-11.391000	23.245003	0.001057	20.831332
418.115797	-2.999500	3.800400	-11.399000	23.243028	0.001057	20.840258
419.116010	-3.006200	3.800100	-11.422000	23.259905	0.001056	20.824455
420.120224	-3.010800	3.800400	-11.440000	23.264059	0.001057	20.831463
421.120823	-2.983400	3.800300	-11.337000	23.271655	0.001057	20.819161
422.117154	-2.996100	3.798400	-11.380000	23.271976	0.001057	20.828966
423.116899	-2.971400	3.799800	-11.289000	23.243506	0.001059	20.816081
424.117006	-3.009200	3.798700	-11.430000	23.276464	0.001059	20.847688
425.118438	-3.008200	3.798100	-11.424000	23.263455	0.001058	20.839867
426.121440	-3.004600	3.798200	-11.411000	23.272262	0.001059	20.830675
427.117587	-2.976600	3.796300	-11.298000	23.262774	0.001058	20.810261
428.119521	-2.977300	3.797500	-11.305000	23.277940	0.001059	20.821667
429.123410	-3.008100	3.796600	-11.420000	23.298835	0.001058	20.813210
430.118466	-3.001900	3.797300	-11.399000	23.285722	0.001060	20.846535
431.119467	-3.005200	3.797100	-11.410000	23.283383	0.001061	20.833285
432.118427	-2.984700	3.796200	-11.329000	23.275205	0.001060	20.822719
433.118639	-2.990100	3.795300	-11.347000	23.256467	0.001060	20.818165
434.119179	-3.003000	3.795800	-11.398000	23.294238	0.001062	20.833733
435.119338	-2.993100	3.795800	-11.359000	23.309539	0.001061	20.808765
436.118556	-3.004100	3.795200	-11.399000	23.316739	0.001063	20.834473
437.119541	-2.995100	3.795000	-11.365000	23.327912	0.001061	20.819592
438.118578	-3.000900	3.795400	-11.388000	23.322417	0.001063	20.833999
439.122362	-2.991100	3.794700	-11.349000	23.342942	0.001062	20.820905
440.122631	-3.013500	3.794000	-11.432000	23.342282	0.001064	20.841580
441.121073	-2.998800	3.795700	-11.382000	23.300524	0.001063	20.831498
442.124158	-3.010300	3.793800	-11.420000	23.319947	0.001063	20.835317
443.121123	-2.998500	3.793500	-11.373000	23.315216	0.001063	20.826308
444.123387	-2.985500	3.793400	-11.323000	23.331379	0.001065	20.823542
445.121855	-2.974600	3.795800	-11.290000	23.343181	0.001067	20.819248
446.122397	-2.989100	3.793200	-11.336000	23.314717	0.001064	20.819644
447.122899	-3.003500	3.791700	-11.388000	23.323550	0.001065	20.822807
448.128485	-2.996100	3.793700	-11.365000	23.289377	0.001065	20.812741
449.124109	-3.009900	3.791600	-11.411000	23.278500	0.001066	20.827444
450.124314	-3.004300	3.792700	-11.393000	23.286964	0.001066	20.810322
451.124394	-3.033800	3.790100	-11.497000	23.302130	0.001068	20.815090
452.124394	-3.009700	3.791600	-11.411000	23.306548	0.001067	20.822363
453.128396	-3.015400	3.789800	-11.427000	23.368051	0.001068	20.810984
454.129398	-2.980100	3.790600	-11.295000	23.384530	0.001067	20.846466
455.125699	-3.004800	3.789700	-11.387000	23.392173	0.001066	20.824729
456.125547	-2.991500	3.789600	-11.335000	23.415913	0.001068	20.837144
457.126192	-2.987800	3.789300	-11.321000	23.439744	0.001068	20.841115
458.126193	-2.994200	3.790800	-11.349000	23.446397	0.001068	20.834508
459.126477	-2.984100	3.788800	-11.303000	23.466530	0.001066	20.838567
460.124527	-2.990100	3.789200	-11.330000	23.441567	0.001069	20.849106
461.124624	-3.006800	3.787800	-11.387000	23.482925	0.001068	20.828923
462.125477	-2.990500	3.789300	-11.332000	23.483902	0.001070	20.827057
463.130878	-2.977100	3.788600	-11.279000	23.476572	0.001069	20.840098
464.126949	-2.969700	3.788400	-11.249000	23.475201	0.001071	20.819283
465.126001	-2.997200	3.787800	-11.351000	23.504980	0.001070	20.836331
466.129346	-3.010900	3.786100	-11.398000	23.484432	0.001070	20.820950
467.130409	-3.001900	3.787500	-11.370000	23.491236	0.001071	20.838675
468.129463	-3.000400	3.787100	-11.362000	23.526240	0.001073	20.816865
469.134462	-2.989800	3.784900	-11.315000	23.520802	0.001073	20.833699
470.128378	-3.015300	3.786100	-11.414000	23.552104	0.001072	20.852747
471.128045	-3.001500	3.785800	-11.362000	23.569340	0.001069	20.835413
472.128044	-3.001200	3.785500	-11.360000	23.550841	0.001072	20.828249
473.127555	-2.985400	3.785400	-11.300000	23.552837	0.001070	20.867232
474.128841	-3.007200	3.785300	-11.381000	23.540621	0.001073	20.848350
475.131846	-2.989100	3.784300	-11.311000	23.525880	0.001071	20.844478
476.128843	-2.997400	3.784400	-11.342000	23.529538	0.001073	20.834870
477.129054	-3.006600	3.784400	-11.378000	23.553796	0.001073	20.850177
478.130352	-2.989800	3.784300	-11.313000	23.558891	0.001073	20.850068
479.130568	-2.999400	3.783200	-11.347000	23.575649	0.001071	20.840316
480.131563	-2.987400	3.783400	-11.301000	23.579651	0.001072	20.825835
481.129758	-3.012500	3.782700	-11.394000	23.609371	0.001073	20.860369
482.132976	-2.986700	3.783600	-11.300000	23.604172	0.001074	20.831451
483.130574	-3.005900	3.781600	-11.366000	23.609683	0.001074	20.854044
484.134522	-3.022800	3.782600	-11.433000	23.606719	0.001075	20.848228
485.134970	-2.994300	3.782900	-11.325000	23.607010	0.001075	20.840934
486.135626	-2.985500	3.781800	-11.288000	23.620622	0.001076	20.846993
487.132204	-3.023300	3.780900	-11.429000	23.620358	0.001074	20.857159
488.133697	-3.001300	3.781200	-11.347000	23.656729	0.001075	20.847154
489.134372	-2.988900	3.779700	-11.296000	23.650602	0.001075	20.835797
490.138375	-3.011000	3.780000	-11.381000	23.678011	0.001076	20.848102
491.138373	-2.987100	3.780500	-11.292000	23.651843	0.001075	20.853636
492.135372	-2.997200	3.780900	-11.331000	23.690100	0.001077	20.864488
493.137372	-3.014600	3.779200	-11.391000	23.685245	0.001075	20.842552
494.135372	-3.006800	3.779500	-11.363000	23.668292	0.001076	20.825083
495.135373	-3.000300	3.778400	-11.336000	23.642384	0.001076	20.862170
496.138372	-3.016800	3.778100	-11.397000	23.604181	0.001078	20.851848
497.135373	-3.015300	3.778200	-11.391000	23.632955	0.001075	20.840390
498.139374	-3.012800	3.778000	-11.382000	23.609940	0.001077	20.859043
499.136374	-2.992400	3.777700	-11.303000	23.647565	0.001077	20.855036
500.139373	-2.998600	3.777300	-11.326000	23.645886	0.001077	20.856198
501.140371	-3.007200	3.776500	-11.355000	23.655896	0.001078	20.847742
502.137197	-2.998300	3.777100	-11.323000	23.657605	0.001077	20.853249
503.139199	-3.000200	3.776800	-11.330000	23.663676	0.001077	20.849852
504.139197	-3.013200	3.774600	-11.372000	23.662444	0.001078	20.865211
505.139197	-3.026200	3.776200	-11.426000	23.663255	0.001079	20.840895
506.140198	-2.997300	3.776200	-11.317000	23.680806	0.001078	20.861809
507.141195	-2.982300	3.776500	-11.262000	23.698544	0.001078	20.863471
508.142198	-3.003700	3.775900	-11.341000	23.692161	0.001079	20.855650
509.140197	-2.996100	3.775600	-11.312000	23.678212	0.001078	20.863475
510.139196	-3.016000	3.773700	-11.380000	23.673139	0.001078	20.861235
511.142200	-3.002700	3.774000	-11.332000	23.661975	0.001080	20.837716
512.141197	-2.992900	3.773400	-11.292000	23.670645	0.001080	20.851148
513.141405	-3.022900	3.772800	-11.404000	23.697234	0.001079	20.874959
514.147434	-2.997200	3.773200	-11.307000	23.707243	0.001078	20.866977
515.141438	-3.003000	3.771900	-11.326000	23.696370	0.001079	20.851335
516.141432	-2.989700	3.773600	-11.280000	23.703386	0.001079	20.850783
517.144435	-3.007300	3.771600	-11.340000	23.670120	0.001080	20.863897
518.143435	-2.975800	3.775000	-11.232000	23.662843	0.001078	20.852336
519.145434	-3.022700	3.771900	-11.400000	23.658565	0.001080	20.874598
520.145434	-3.000700	3.771800	-11.317000	23.658617	0.001079	20.878917
521.146437	-3.003100	3.772400	-11.326000	23.661429	0.001081	20.877469
522.146437	-3.013100	3.770800	-11.361000	23.685384	0.001079	20.840795
523.143434	-3.004800	3.771600	-11.332000	23.671200	0.001081	20.890109
524.144434	-3.017900	3.770000	-11.377000	23.688907	0.001080	20.868034
525.143434	-3.017700	3.769100	-11.373000	23.710511	0.001081	20.886847
526.144434	-3.028700	3.768300	-11.412000	23.705803	0.001081	20.891136
527.146435	-3.033700	3.768200	-11.430000	23.682976	0.001081	20.855925
528.143434	-3.005800	3.770100	-11.331000	23.675457	0.001080	20.888213
529.144434	-3.005000	3.769100	-11.325000	23.698314	0.001082	20.887895
530.146436	-3.010800	3.768500	-11.345000	23.699790	0.001081	20.882736
531.143433	-3.011500	3.768800	-11.349000	23.691546	0.001082	20.892015
532.146434	-2.988200	3.768700	-11.260000	23.666610	0.001080	20.871284
533.147265	-3.005100	3.767700	-11.321000	23.683631	0.001082	20.870331
534.145294	-3.017300	3.766200	-11.362000	23.681870	0.001082	20.874729
535.144290	-3.009300	3.767700	-11.338000	23.675040	0.001082	20.889692
536.150290	-3.004400	3.767100	-11.317000	23.695112	0.001081	20.869987
537.146355	-3.004100	3.765800	-11.312000	23.683501	0.001081	20.869726
538.150488	-3.008200	3.765000	-11.325000	23.693542	0.001080	20.895438
539.147482	-3.003600	3.765500	-11.309000	23.726543	0.001082	20.887273
540.149485	-2.997300	3.766900	-11.288000	23.720000	0.001084	20.885929
541.150055	-3.002900	3.766600	-11.309000	23.708993	0.001084	20.896704
542.151054	-3.019100	3.764600	-11.365000	23.743673	0.001083	20.893067
543.152055	-3.004800	3.764700	-11.312000	23.715219	0.001083	20.902471
544.152055	-2.987600	3.763900	-11.243000	23.687211	0.001083	20.889566
545.153054	-3.011100	3.764600	-11.334000	23.675735	0.001081	20.903663
546.151579	-3.003700	3.763800	-11.304000	23.676729	0.001084	20.896599
547.152582	-2.985400	3.765000	-11.239000	23.712698	0.001084	20.903263
548.152633	-3.007000	3.763300	-11.316000	23.696280	0.001084	20.892019
549.152664	-3.002100	3.763600	-11.298000	23.720031	0.001082	20.902554
550.153666	-3.025600	3.761500	-11.380000	23.729043	0.001084	20.894994
551.153716	-2.994200	3.763600	-11.268000	23.744041	0.001084	20.900075
552.153771	-3.008100	3.761700	-11.315000	23.748380	0.001083	20.910588
553.159770	-2.987600	3.760900	-11.235000	23.762963	0.001084	20.905768
554.156818	-2.988900	3.761800	-11.242000	23.749149	0.001085	20.894290
555.154978	-3.006800	3.760500	-11.306000	23.772872	0.001085	20.908592
556.157192	-3.015500	3.760800	-11.339000	23.774187	0.001084	20.903746
557.157248	-3.024500	3.759600	-11.370000	23.798118	0.001082	20.894077
558.158258	-3.014700	3.760800	-11.337000	23.796439	0.001085	20.905669
559.160247	-3.031300	3.757900	-11.390000	23.821846	0.001083	20.898427
560.157083	-3.007900	3.759700	-11.308000	23.844783	0.001084	20.890606
561.160496	-3.008500	3.760600	-11.313000	23.873181	0.001083	20.904855
562.156802	-2.997400	3.759600	-11.268000	23.876439	0.001086	20.920923
563.157799	-2.996200	3.758500	-11.261000	23.885580	0.001086	20.910649
564.161024	-2.983600	3.758400	-11.210000	23.871819	0.001085	20.902542
565.160601	-3.020400	3.758200	-11.350000	23.856292	0.001085	20.918265
566.160083	-2.993600	3.759900	-11.255000	23.859707	0.001084	20.901302
567.160620	-3.011800	3.757100	-11.315000	23.863520	0.001086	20.916504
568.157809	-2.980100	3.757500	-11.197000	23.839113	0.001083	20.891085
569.158808	-2.971500	3.757900	-11.166000	23.842922	0.001083	20.914816
570.162346	-3.012100	3.756000	-11.310000	23.839378	0.001084	20.915056
571.160373	-2.987800	3.757000	-11.224000	23.853086	0.001083	20.922637
572.162504	-3.015100	3.756100	-11.323000	23.845785	0.001085	20.911524
573.160927	-3.007300	3.754800	-11.291000	23.829785	0.001086	20.898801
574.161928	-3.004800	3.756000	-11.284000	23.824137	0.001084	20.910680
575.166893	-2.996200	3.755700	-11.251000	23.844366	0.001084	20.916739
576.166662	-3.003700	3.755600	-11.280000	23.852167	0.001083	20.925033
577.160993	-3.003800	3.755300	-11.279000	23.869064	0.001084	20.921115
578.164231	-2.998100	3.754900	-11.256000	23.851225	0.001086	20.934046
579.161232	-3.003900	3.753700	-11.275000	23.856032	0.001085	20.921797
580.165446	-3.005600	3.753200	-11.278000	23.856978	0.001083	20.949769
581.167195	-3.015100	3.754800	-11.320000	23.887736	0.001085	20.923241
582.163606	-2.994100	3.753600	-11.238000	23.885901	0.001084	20.932306
583.167821	-2.997700	3.751400	-11.244000	23.903817	0.001084	20.935572
584.166822	-2.977300	3.753700	-11.176000	23.946659	0.001083	20.910258
585.163824	-2.996300	3.752500	-11.243000	23.980226	0.001085	20.924951
586.166964	-3.008200	3.752400	-11.286000	23.978994	0.001085	20.957376
587.164931	-2.996700	3.751100	-11.240000	23.998670	0.001086	20.925903
588.166207	-2.998300	3.750800	-11.245000	24.005077	0.001085	20.931379
589.169207	-2.988600	3.751100	-11.210000	23.999559	0.001085	20.925847
590.166270	-2.994900	3.750200	-11.230000	24.002292	0.001084	20.921949
591.169073	-2.995400	3.749800	-11.231000	23.999772	0.001085	20.933171
592.166100	-3.012800	3.749500	-11.296000	23.985526	0.001083	20.935955
593.166100	-3.019500	3.750000	-11.322000	23.989833	0.001084	20.949281
594.168312	-3.003300	3.749900	-11.260000	23.951617	0.001085	20.945571
595.167360	-3.016700	3.747900	-11.304000	23.937480	0.001085	20.936137
596.166956	-3.007100	3.748800	-11.273000	23.900993	0.001084	20.946015
597.170302	-3.016500	3.748300	-11.305000	23.927498	0.001084	20.938455
598.169362	-3.002400	3.748100	-11.251000	23.934326	0.001084	20.937242
599.172348	-3.000500	3.746300	-11.239000	23.935037	0.001085	20.951230
600.170152	-3.015900	3.746900	-11.299000	23.938894	0.001086	20.949881
601.170517	-3.000300	3.747000	-11.241000	23.937766	0.001084	20.955862
602.170517	-3.003700	3.746500	-11.253000	23.960280	0.001085	20.940982
603.172519	-2.992800	3.746500	-11.211000	23.961512	0.001084	20.962603
604.171517	-3.008400	3.747000	-11.272000	23.964162	0.001086	20.945823
605.173517	-3.020400	3.746400	-11.313000	23.979583	0.001086	20.958915
606.172517	-3.021100	3.744800	-11.313000	23.979926	0.001083	20.949777
607.178518	-3.008400	3.745400	-11.267000	23.974751	0.001084	20.950751
608.173519	-2.994100	3.746500	-11.216000	23.980659	0.001084	20.970424
609.172519	-2.996700	3.745800	-11.224000	23.984675	0.001085	20.974451
610.169518	-2.992200	3.745100	-11.205000	24.017512	0.001085	20.957597
611.170519	-3.003700	3.743700	-11.243000	24.007952	0.001086	20.969819
612.171518	-2.992000	3.745700	-11.206000	24.007288	0.001086	20.979109
613.174517	-2.992200	3.743900	-11.201000	23.994709	0.001085	20.970289
614.170517	-2.999500	3.743800	-11.229000	23.989273	0.001083	20.961520
615.172519	-3.019500	3.743600	-11.302000	24.006685	0.001083	20.959541
616.178517	-2.991400	3.742700	-11.195000	24.007288	0.001085	20.952086
617.173519	-3.017600	3.742300	-11.292000	24.023363	0.001083	20.970575
618.173520	-3.019200	3.741900	-11.296000	24.050946	0.001085	20.982114
619.173519	-3.028400	3.741400	-11.329000	24.067914	0.001086	20.967840
620.174519	-3.002900	3.741200	-11.234000	24.062739	0.001084	20.969762
621.174518	-2.993600	3.741300	-11.198000	24.056853	0.001084	20.981875
622.172519	-3.002100	3.740900	-11.229000	24.037998	0.001085	20.963443
623.177519	-3.018200	3.739500	-11.286000	24.055461	0.001085	20.981427
624.175519	-2.995400	3.739400	-11.201000	24.028065	0.001084	20.991883
625.174517	-3.005600	3.739400	-11.238000	24.051253	0.001086	20.985741
626.178517	-3.013400	3.739900	-11.270000	24.058163	0.001084	20.979870
627.174516	-2.999900	3.740200	-11.219000	24.041329	0.001086	20.986220
628.175517	-2.997200	3.739500	-11.207000	24.047974	0.001087	20.977713
629.178519	-2.991600	3.738600	-11.184000	24.048655	0.001084	20.971284
630.175518	-2.975100	3.738900	-11.123000	24.036675	0.001085	20.977286
631.178518	-2.979100	3.738400	-11.136000	24.023385	0.001084	20.974864
632.177518	-3.003000	3.738400	-11.225000	24.006702	0.001082	20.995588
633.177544	-2.997900	3.737700	-11.204000	23.985451	0.001082	20.985185
634.180543	-3.017200	3.738100	-11.277000	24.000004	0.001085	20.990295
635.178544	-3.014800	3.737200	-11.266000	24.008250	0.001084	20.996667
636.177058	-2.987600	3.738600	-11.167000	24.024118	0.001084	20.987925
637.181056	-2.975900	3.736900	-11.119000	24.051405	0.001081	20.995375
638.178279	-2.993000	3.735700	-11.180000	24.050381	0.001082	20.991978
639.181307	-2.989700	3.737400	-11.173000	24.074836	0.001082	20.988055
640.179502	-2.991100	3.735400	-11.172000	24.053478	0.001083	20.994609
641.178495	-2.993200	3.734200	-11.176000	24.076675	0.001083	20.994166
642.181099	-2.994500	3.735800	-11.186000	24.099598	0.001081	20.989181
643.180461	-3.008000	3.735800	-11.236000	24.089882	0.001084	20.991765
644.179510	-3.008900	3.735800	-11.241000	24.094215	0.001084	20.996110
645.180514	-3.006700	3.732400	-11.221000	24.122893	0.001084	21.003534
646.179817	-3.033800	3.732700	-11.323000	24.156116	0.001082	21.003664
647.183240	-3.005500	3.733900	-11.221000	24.180334	0.001082	21.014203
648.180358	-3.011800	3.732800	-11.240000	24.177944	0.001084	20.984310
649.181042	-2.970200	3.734500	-11.091000	24.174002	0.001084	20.977986
650.187045	-2.995700	3.732300	-11.181000	24.191914	0.001082	20.976986
651.183042	-2.990300	3.733700	-11.164000	24.221851	0.001082	20.996105
652.184044	-2.987900	3.732900	-11.152000	24.171144	0.001081	20.974172
653.183043	-3.020000	3.731500	-11.267000	24.161845	0.001082	20.983336
654.184096	-2.994000	3.731700	-11.172000	24.154962	0.001082	20.968374
655.184322	-2.998900	3.730700	-11.186000	24.138655	0.001082	20.964347
656.187323	-2.991800	3.732800	-11.167000	24.159165	0.001083	20.978752
657.184320	-3.004200	3.730300	-11.205000	24.156619	0.001082	20.956761
658.185545	-2.998900	3.729700	-11.184000	24.165835	0.001082	20.964107
659.188180	-3.008000	3.728900	-11.215000	24.167783	0.001080	20.959897
660.187950	-2.982000	3.729500	-11.120000	24.176526	0.001082	20.963451
661.184947	-3.004700	3.730700	-11.208000	24.182303	0.001082	20.971140
662.184947	-2.994600	3.728800	-11.165000	24.203264	0.001079	20.954234
663.186947	-2.984700	3.729900	-11.131000	24.188739	0.001082	20.971432
664.184394	-3.012900	3.728200	-11.232000	24.185721	0.001081	20.966034
665.184781	-3.020600	3.727900	-11.259000	24.198537	0.001080	20.957553
666.184781	-2.983700	3.728000	-11.123000	24.217025	0.001078	20.952390
667.184191	-3.000100	3.727800	-11.183000	24.222251	0.001079	20.949572
668.185514	-3.019700	3.727600	-11.254000	24.155648	0.001078	20.961950
669.183536	-3.002400	3.727400	-11.189000	24.158645	0.001081	20.955000
670.184670	-2.990200	3.727400	-11.145000	24.108902	0.001081	20.966274
671.184745	-2.995400	3.728200	-11.167000	24.090884	0.001080	20.953895
672.188715	-2.987900	3.727100	-11.135000	24.085081	0.001077	20.955661
673.185748	-3.013800	3.725700	-11.227000	24.084842	0.001079	20.948784
674.185764	-2.988500	3.725700	-11.133000	24.099347	0.001080	20.946262
675.187795	-2.995800	3.725300	-11.159000	24.094988	0.001080	20.939046
676.188798	-3.001900	3.724600	-11.180000	24.071952	0.001079	20.930169
677.186795	-3.006100	3.724500	-11.194000	24.060974	0.001077	20.945710
678.186823	-3.000500	3.725100	-11.176000	24.079594	0.001078	20.932143
679.186487	-3.037700	3.722800	-11.307000	24.067619	0.001077	20.937676
680.187517	-3.035200	3.723600	-11.300000	24.072581	0.001078	20.944548
681.189035	-2.996500	3.723800	-11.157000	24.071032	0.001075	20.953426
682.185587	-2.997000	3.723900	-11.160000	24.047164	0.001081	20.914319
683.186587	-3.004900	3.723900	-11.189000	24.101138	0.001079	20.924354
684.187918	-3.018400	3.722100	-11.234000	24.110537	0.001076	20.953217
685.187508	-2.999900	3.723500	-11.169000	24.154560	0.001077	20.929569
686.187837	-2.986400	3.722700	-11.116000	24.161755	0.001078	20.934888
687.187546	-2.995800	3.720200	-11.143000	24.175594	0.001078	20.944975
688.189426	-2.997100	3.721300	-11.152000	24.199942	0.001077	20.951851
689.191513	-2.989200	3.721900	-11.124000	24.196529	0.001074	20.939421
690.190342	-3.023500	3.720100	-11.246000	24.206300	0.001078	20.929308
691.188684	-3.013100	3.720000	-11.207000	24.216201	0.001078	20.916955
692.194684	-2.999400	3.720500	-11.159000	24.235162	0.001078	20.944979
693.190688	-3.013700	3.719800	-11.209000	24.215785	0.001074	20.920331
694.190650	-2.993700	3.719100	-11.132000	24.188155	0.001075	20.918221
695.194651	-2.987500	3.719600	-11.112000	24.211609	0.001075	20.920883
696.191726	-3.005300	3.718900	-11.175000	24.231094	0.001075	20.936159
697.197151	-3.003900	3.720100	-11.174000	24.230049	0.001077	20.931318
698.191152	-3.007000	3.719200	-11.183000	24.250029	0.001076	20.931918
699.193575	-2.995800	3.719000	-11.140000	24.254942	0.001075	20.917408
700.195620	-2.996500	3.718300	-11.141000	24.266131	0.001073	20.918674
701.190675	-3.013000	3.718700	-11.203000	24.252215	0.001075	20.922258
702.193008	-2.995100	3.719300	-11.139000	24.254921	0.001073	20.923550
703.197171	-2.989400	3.719000	-11.116000	24.273829	0.001075	20.925446
704.195104	-3.011800	3.718700	-11.199000	24.262245	0.001075	20.923784
705.196722	-2.999300	3.717000	-11.148000	24.260962	0.001073	20.904481
706.192460	-3.007400	3.716500	-11.177000	24.250376	0.001075	20.924681
707.195882	-3.009200	3.715500	-11.180000	24.228054	0.001073	20.910353
708.196893	-2.999200	3.716500	-11.146000	24.211509	0.001073	20.911775
709.197231	-2.995300	3.716300	-11.130000	24.191230	0.001073	20.930787
710.198306	-3.011300	3.715500	-11.188000	24.200507	0.001075	20.923498
711.194450	-2.989500	3.716900	-11.111000	24.205021	0.001072	20.914750
712.197446	-3.003800	3.715300	-11.159000	24.172268	0.001073	20.930735
713.199451	-2.973300	3.715200	-11.046000	24.203473	0.001074	20.921257
714.201446	-3.009500	3.715500	-11.181000	24.163317	0.001072	20.919861
715.197664	-2.976900	3.716400	-11.063000	24.176528	0.001070	20.923628
716.196218	-3.031100	3.713600	-11.255000	24.212689	0.001073	20.915329
717.197560	-3.005800	3.714000	-11.162000	24.222616	0.001074	20.933819
718.198705	-2.995100	3.713300	-11.120000	24.262661	0.001071	20.928943
719.200199	-3.005600	3.713100	-11.159000	24.290633	0.001072	20.935189
720.196813	-2.991100	3.712400	-11.103000	24.306309	0.001071	20.908717
721.198722	-2.996200	3.713100	-11.125000	24.300455	0.001070	20.909483
722.197911	-3.003700	3.712100	-11.148000	24.272359	0.001071	20.914964
723.200967	-3.005800	3.713300	-11.161000	24.293365	0.001069	20.928447
724.196970	-2.994400	3.713300	-11.118000	24.263429	0.001069	20.923550
725.198249	-3.007400	3.710300	-11.157000	24.266712	0.001070	20.926368
726.202119	-2.994900	3.710800	-11.113000	24.280836	0.001069	20.922045
727.203308	-3.012100	3.709900	-11.173000	24.295837	0.001071	20.926660
728.200306	-2.979200	3.710700	-11.054000	24.322940	0.001068	20.922554
729.204243	-3.013600	3.710800	-11.181000	24.315247	0.001070	20.913416
730.201630	-3.004900	3.711200	-11.150000	24.319475	0.001069	20.910545
731.201711	-2.998200	3.710600	-11.124000	24.284653	0.001067	20.913072
732.202713	-3.002400	3.709700	-11.136000	24.232188	0.001069	20.910232
733.209000	-3.006900	3.708900	-11.151000	24.252805	0.001070	20.904834
734.206964	-2.988000	3.709800	-11.084000	24.249886	0.001069	20.905225
735.204404	-2.997300	3.709000	-11.116000	24.256769	0.001069	20.918766
736.207402	-2.992800	3.708200	-11.098000	24.261526	0.001069	20.891772
737.209126	-2.990700	3.708100	-11.087000	24.274814	0.001067	20.913633
738.208384	-3.005600	3.708300	-11.145000	24.260690	0.001067	20.911320
739.205818	-3.029100	3.706300	-11.225000	24.248664	0.001068	20.904948
740.205745	-2.997600	3.706200	-11.108000	24.264861	0.001068	20.911711
741.209779	-3.010400	3.707000	-11.159000	24.289524	0.001067	20.901837
742.209909	-2.989900	3.707200	-11.083000	24.294485	0.001068	20.910606
743.210911	-3.018700	3.705000	-11.183000	24.314680	0.001068	20.916639
744.211155	-3.019400	3.705800	-11.189000	24.317069	0.001067	20.885848
745.212120	-3.003100	3.705500	-11.127000	24.321033	0.001065	20.892194
746.213333	-3.006500	3.704100	-11.136000	24.326289	0.001063	20.898888
747.212415	-2.987600	3.705800	-11.070000	24.347979	0.001065	20.900733
748.212557	-3.002800	3.704500	-11.123000	24.357146	0.001064	20.914195
749.213850	-2.988700	3.704800	-11.071000	24.381408	0.001066	20.918144
750.213888	-3.001900	3.705500	-11.122000	24.387687	0.001064	20.894574
751.210886	-2.989500	3.706200	-11.079000	24.381256	0.001066	20.887649
752.214265	-2.980400	3.706100	-11.044000	24.365732	0.001066	20.893412
753.213648	-3.021500	3.703300	-11.189000	24.358512	0.001065	20.903712
754.213666	-3.002200	3.703000	-11.116000	24.321063	0.001063	20.907870
755.214131	-3.027700	3.702300	-11.208000	24.286116	0.001065	20.907427
756.211431	-2.991300	3.703400	-11.076000	24.283435	0.001065	20.887671
757.211725	-3.005900	3.702900	-11.129000	24.274667	0.001064	20.897840
758.214724	-3.008600	3.701500	-11.135000	24.288536	0.001063	20.907010
759.215948	-3.003200	3.701400	-11.115000	24.266792	0.001063	20.889468
760.213427	-2.991600	3.701200	-11.072000	24.269103	0.001061	20.888467
761.219463	-3.023300	3.700500	-11.186000	24.277794	0.001061	20.885805
762.213907	-3.002100	3.700100	-11.107000	24.253738	0.001062	20.889650
763.217121	-3.000100	3.701600	-11.103000	24.260491	0.001061	20.890733
764.214293	-2.976000	3.702800	-11.018000	24.246674	0.001061	20.902003
765.216694	-3.015900	3.700700	-11.161000	24.250902	0.001061	20.902451
766.216743	-3.012100	3.700800	-11.146000	24.242897	0.001061	20.884940
767.219743	-3.004100	3.699900	-11.113000	24.263535	0.001061	20.898528
768.214192	-3.025500	3.698100	-11.187000	24.289616	0.001059	20.884387
769.214194	-2.991400	3.700200	-11.067000	24.305947	0.001061	20.900294
770.221613	-3.005800	3.698500	-11.116000	24.274988	0.001060	20.910964
771.217908	-2.973800	3.699800	-11.002000	24.268054	0.001060	20.918706
772.217998	-2.995400	3.699600	-11.081000	24.262542	0.001058	20.904644
773.216000	-3.013400	3.696500	-11.138000	24.253483	0.001059	20.894609
774.219003	-3.015700	3.697700	-11.150000	24.245629	0.001059	20.877249
775.219051	-3.014400	3.697800	-11.145000	24.227562	0.001059	20.886153
776.216267	-2.990100	3.697800	-11.056000	24.239406	0.001058	20.886654
777.219279	-3.012400	3.697200	-11.136000	24.260157	0.001059	20.895140
778.216719	-2.993600	3.696400	-11.064000	24.290431	0.001056	20.903696
779.219991	-2.987000	3.697100	-11.042000	24.311311	0.001057	20.904253
780.220007	-2.988500	3.697500	-11.049000	24.327434	0.001058	20.892926
781.221005	-2.999600	3.696900	-11.088000	24.382683	0.001057	20.887184
782.221035	-3.001600	3.696600	-11.094000	24.377406	0.001058	20.871460
783.219358	-3.000700	3.696200	-11.090000	24.412490	0.001057	20.892430
784.223204	-3.001500	3.696100	-11.092000	24.444048	0.001057	20.879994
785.222804	-2.986700	3.695600	-11.037000	24.423855	0.001056	20.888659
786.223518	-2.986000	3.694100	-11.030000	24.388646	0.001057	20.894588
787.222939	-2.997000	3.693400	-11.068000	24.364198	0.001056	20.889029
788.222973	-2.993300	3.694500	-11.057000	24.382527	0.001056	20.889399
789.220160	-3.003300	3.692500	-11.089000	24.392431	0.001055	20.892696
790.223792	-3.007300	3.693100	-11.106000	24.406346	0.001054	20.883422
791.224689	-2.994400	3.693000	-11.056000	24.424831	0.001055	20.884897
792.221132	-2.976700	3.693100	-10.991000	24.424727	0.001057	20.878629
793.221098	-3.005500	3.691000	-11.092000	24.401334	0.001054	20.867015
794.224658	-3.020000	3.692100	-11.148000	24.402201	0.001055	20.893013
795.224656	-3.005200	3.691700	-11.093000	24.391330	0.001054	20.895384
796.224625	-3.010700	3.692700	-11.117000	24.351680	0.001053	20.877894
797.225834	-3.022500	3.690100	-11.152000	24.346537	0.001053	20.877477
798.226057	-3.018900	3.690600	-11.140000	24.349269	0.001053	20.880217
799.223487	-2.997000	3.691200	-11.061000	24.361771	0.001054	20.895128
800.225954	-2.994900	3.690300	-11.051000	24.383673	0.001053	20.870161
801.228267	-3.034000	3.689700	-11.193000	24.416016	0.001052	20.897864
802.224205	-3.000700	3.690100	-11.072000	24.442561	0.001051	20.883244
803.227509	-2.992100	3.689800	-11.040000	24.473550	0.001053	20.883040
804.225731	-3.006600	3.690000	-11.094000	24.461912	0.001051	20.881796
805.227776	-2.988700	3.689500	-11.025000	24.456662	0.001053	20.883166
806.228994	-2.996600	3.689000	-11.053000	24.461071	0.001051	20.871944
807.234080	-2.980400	3.690600	-10.998000	24.493130	0.001052	20.865702
808.228131	-3.008400	3.688300	-11.095000	24.513924	0.001049	20.868546
809.225318	-2.998400	3.688000	-11.056000	24.519751	0.001050	20.872022
810.227554	-2.987200	3.688900	-11.017000	24.518069	0.001050	20.865119
811.229195	-2.984700	3.688300	-11.008000	24.518884	0.001051	20.860721
812.230487	-3.005800	3.688500	-11.085000	24.548522	0.001051	20.873862
813.231083	-2.993400	3.687100	-11.036000	24.548475	0.001049	20.875236
814.232159	-2.994900	3.686200	-11.039000	24.513131	0.001049	20.869172
815.234394	-3.010100	3.686800	-11.097000	24.520905	0.001048	20.886454
816.229391	-2.996500	3.687800	-11.049000	24.508721	0.001049	20.884188
817.233824	-3.038400	3.684600	-11.195000	24.468732	0.001048	20.871095
818.234040	-2.983900	3.685600	-10.995000	24.479420	0.001050	20.862378
819.234274	-3.018100	3.685500	-11.121000	24.478184	0.001045	20.900490
820.230459	-2.989100	3.685500	-11.015000	24.494990	0.001048	20.857137
821.232627	-2.980200	3.685700	-10.983000	24.477686	0.001046	20.888137
822.233751	-3.022200	3.683700	-11.131000	24.501238	0.001047	20.863405
823.234784	-3.007100	3.683800	-11.076000	24.499269	0.001048	20.855740
824.231988	-3.016800	3.683200	-11.109000	24.467319	0.001047	20.863988
825.232023	-3.022800	3.683000	-11.132000	24.471485	0.001046	20.853944
826.235262	-3.021300	3.684400	-11.131000	24.442712	0.001046	20.868698
827.235262	-3.017400	3.682100	-11.110000	24.409706	0.001047	20.882052
828.235511	-2.978900	3.682400	-10.968000	24.404087	0.001045	20.864088
829.231777	-3.002000	3.681900	-11.052000	24.369168	0.001045	20.862722
830.236166	-2.984100	3.683400	-10.990000	24.379483	0.001045	20.871647
831.233221	-2.997000	3.682300	-11.035000	24.410730	0.001045	20.860321
832.232704	-2.986900	3.682100	-10.997000	24.421336	0.001046	20.881865
833.237701	-3.002300	3.682100	-11.051000	24.448566	0.001044	20.872674
834.234517	-3.002200	3.683000	-11.056000	24.452975	0.001043	20.851969
835.237853	-2.998300	3.682000	-11.039000	24.432679	0.001042	20.864796
836.237884	-2.996600	3.681400	-11.030000	24.422806	0.001043	20.857263
837.239297	-2.983600	3.681700	-10.983000	24.397938	0.001043	20.850807
838.237751	-3.008500	3.679900	-11.070000	24.373417	0.001041	20.856554
839.241343	-3.009500	3.679400	-11.072000	24.391612	0.001041	20.845409
840.237750	-3.008300	3.680600	-11.071000	24.398250	0.001041	20.869611
841.241428	-2.988200	3.680400	-10.997000	24.432336	0.001042	20.854496
842.237931	-2.990000	3.680100	-11.002000	24.430836	0.001041	20.852991
843.242165	-2.988700	3.679900	-10.997000	24.448899	0.001041	20.870164
844.241535	-3.009400	3.678800	-11.070000	24.442044	0.001039	20.877036
845.238815	-2.989900	3.679100	-10.999000	24.434508	0.001043	20.854304
846.243143	-3.000900	3.678800	-11.039000	24.448769	0.001040	20.851068
847.243952	-3.018000	3.678400	-11.100000	24.423768	0.001039	20.865814
848.241903	-2.987900	3.678400	-10.990000	24.426105	0.001039	20.863891
849.242168	-3.003000	3.677200	-11.040000	24.448708	0.001041	20.869024
850.243630	-3.009500	3.677400	-11.066000	24.471871	0.001039	20.857175
851.241192	-3.007000	3.676400	-11.053000	24.471341	0.001037	20.861860
852.245194	-3.008800	3.676100	-11.060000	24.510173	0.001040	20.846292
853.243822	-3.011200	3.676200	-11.069000	24.523015	0.001039	20.855857
854.243248	-3.011100	3.676900	-11.071000	24.542334	0.001036	20.844895
855.246831	-2.987500	3.676400	-10.982000	24.579381	0.001037	20.839867
856.243238	-3.005200	3.675700	-11.044000	24.600854	0.001039	20.858093
857.248168	-2.990800	3.675500	-10.992000	24.612117	0.001038	20.857066
858.247224	-2.990900	3.677000	-10.996000	24.626714	0.001038	20.842316
859.243226	-3.017900	3.674600	-11.089000	24.597100	0.001037	20.874713
860.251679	-3.017600	3.674500	-11.087000	24.570424	0.001035	20.850793
861.243933	-3.007100	3.673900	-11.047000	24.548374	0.001036	20.867549
862.244330	-2.983500	3.674300	-10.961000	24.588355	0.001036	20.851716
863.244728	-3.015700	3.674000	-11.078000	24.607808	0.001036	20.868862
864.244087	-2.994100	3.674000	-10.999000	24.610565	0.001035	20.872577
865.244331	-3.006600	3.674600	-11.047000	24.639945	0.001036	20.836152
866.247528	-3.000600	3.672800	-11.020000	24.626662	0.001034	20.840841
867.244082	-3.012600	3.671000	-11.058000	24.603295	0.001035	20.851533
868.244340	-2.979100	3.673200	-10.942000	24.585317	0.001034	20.851512
869.246126	-2.992600	3.672600	-10.990000	24.542681	0.001033	20.848088
870.247714	-2.989500	3.674000	-10.983000	24.531127	0.001033	20.832703
871.247717	-3.000400	3.671900	-11.016000	24.511330	0.001034	20.827065
872.244557	-3.012900	3.670400	-11.057000	24.530810	0.001032	20.833333
873.244611	-2.991200	3.672200	-10.983000	24.542287	0.001030	20.837736
874.244611	-3.032300	3.671400	-11.130000	24.557643	0.001031	20.841763
875.245609	-2.972400	3.671600	-10.911000	24.533490	0.001033	20.825116
876.249210	-3.000200	3.671800	-11.015000	24.532653	0.001030	20.840398
877.251244	-3.021800	3.669200	-11.085000	24.511621	0.001031	20.847745
878.256687	-2.991800	3.668600	-10.975000	24.522096	0.001030	20.842607
879.249687	-2.979000	3.670800	-10.935000	24.507576	0.001031	20.845108
880.252720	-2.990800	3.669800	-10.975000	24.512701	0.001030	20.859259
881.251735	-2.992600	3.669900	-10.982000	24.514924	0.001031	20.846318
882.249734	-3.000600	3.668900	-11.008000	24.542551	0.001030	20.831837
883.249785	-2.999400	3.670100	-11.007000	24.579858	0.001029	20.835604
884.249808	-3.011800	3.669000	-11.049000	24.570013	0.001028	20.830941
885.249806	-3.009000	3.668900	-11.038000	24.572375	0.001030	20.840424
886.250596	-3.013600	3.668300	-11.054000	24.551816	0.001030	20.840659
887.255026	-3.010000	3.666700	-11.036000	24.551530	0.001028	20.816191
888.250026	-3.003700	3.666800	-11.012000	24.540978	0.001028	20.850172
889.256454	-2.990600	3.667500	-10.967000	24.559564	0.001028	20.816665
890.252451	-2.996000	3.667800	-10.987000	24.573897	0.001029	20.825830
891.254681	-2.998700	3.667200	-10.996000	24.591677	0.001027	20.846514
892.255693	-3.011600	3.665800	-11.038000	24.581307	0.001026	20.832790
893.252694	-3.009100	3.664800	-11.027000	24.594326	0.001025	20.832577
894.255765	-2.982000	3.666900	-10.933000	24.621022	0.001024	20.820958
895.253779	-2.971500	3.667300	-10.895000	24.608316	0.001026	20.817217
896.256766	-3.002300	3.665400	-11.003000	24.600183	0.001026	20.817592
897.257812	-2.997500	3.665800	-10.987000	24.574535	0.001025	20.829315
898.259813	-3.011200	3.665600	-11.037000	24.539009	0.001024	20.824016
899.256207	-3.003200	3.665000	-11.005000	24.574136	0.001024	20.831285
900.257207	-2.984800	3.664800	-10.938000	24.559144	0.001023	20.827622
901.260240	-2.989200	3.664200	-10.952000	24.517743	0.001023	20.814533
902.261208	-3.000700	3.665000	-10.996000	24.522677	0.001024	20.831337
903.260620	-3.012300	3.663500	-11.034000	24.517661	0.001025	20.810657
904.261785	-3.022600	3.662000	-11.068000	24.515848	0.001022	20.830650
905.261785	-3.006100	3.663400	-11.011000	24.521129	0.001023	20.827888
906.261151	-2.979500	3.662800	-10.913000	24.535307	0.001024	20.816508
907.262723	-2.997100	3.663900	-10.981000	24.543631	0.001024	20.834343
908.264091	-3.006600	3.662300	-11.011000	24.572614	0.001020	20.820275
909.260690	-2.990000	3.663700	-10.953000	24.616692	0.001021	20.823251
910.263689	-2.967200	3.662300	-10.866000	24.608320	0.001021	20.813429
911.261687	-3.054500	3.660000	-11.178000	24.639929	0.001021	20.828075
912.262410	-2.998500	3.660900	-10.975000	24.637067	0.001021	20.808609
913.266642	-2.989400	3.661300	-10.944000	24.651083	0.001020	20.833577
914.266125	-2.994700	3.662200	-10.966000	24.643418	0.001019	20.805024
915.267125	-3.004000	3.660000	-10.994000	24.681220	0.001021	20.826835
916.263521	-3.006800	3.661000	-11.006000	24.664500	0.001020	20.819540
917.264056	-3.023600	3.660500	-11.067000	24.704638	0.001019	20.820937
918.267372	-3.014300	3.659600	-11.030000	24.729078	0.001021	20.796625
919.265329	-3.027400	3.659400	-11.078000	24.734613	0.001017	20.814981
920.267330	-2.996000	3.659300	-10.961000	24.713117	0.001019	20.796729
921.269544	-2.996800	3.658100	-10.961000	24.731830	0.001016	20.814559
922.268542	-2.997000	3.658600	-10.963000	24.730283	0.001019	20.804472
923.264904	-2.999100	3.659000	-10.973000	24.740838	0.001015	20.803685
924.269659	-2.980900	3.659700	-10.909000	24.740340	0.001017	20.803185
925.266883	-3.000100	3.658800	-10.975000	24.732437	0.001017	20.810901
926.267498	-3.003000	3.657800	-10.984000	24.718969	0.001016	20.814455
927.266498	-3.009000	3.657300	-11.004000	24.741311	0.001015	20.800840
928.266498	-3.007900	3.656300	-10.997000	24.737271	0.001015	20.779716
929.269709	-2.994300	3.658000	-10.952000	24.762018	0.001015	20.799809
930.269704	-2.984200	3.659100	-10.918000	24.753331	0.001014	20.798678
931.270706	-2.983400	3.658200	-10.913000	24.784250	0.001013	20.790352
932.270942	-3.001300	3.656300	-10.973000	24.763071	0.001013	20.821254
933.267819	-2.984600	3.656900	-10.913000	24.753196	0.001014	20.806129
934.271372	-2.995800	3.655700	-10.951000	24.727739	0.001013	20.809505
935.272372	-2.987900	3.655300	-10.919000	24.747085	0.001015	20.794780
936.271374	-2.993800	3.654600	-10.941000	24.780314	0.001015	20.813429
937.269372	-2.991900	3.654700	-10.934000	24.782412	0.001014	20.826439
938.270890	-2.993400	3.654500	-10.939000	24.739312	0.001013	20.808791
939.270888	-3.011000	3.653800	-11.001000	24.735693	0.001012	20.795202
940.270888	-2.994600	3.654900	-10.942000	24.732780	0.001014	20.799391
941.270889	-2.989900	3.654600	-10.925000	24.767033	0.001012	20.805316
942.267888	-2.999100	3.653600	-10.956000	24.754063	0.001010	20.809844
943.267890	-3.002700	3.652300	-10.966000	24.724956	0.001011	20.814773
944.268110	-2.998900	3.652500	-10.953000	24.697862	0.001011	20.811293
945.275255	-3.010300	3.653500	-10.997000	24.663394	0.001011	20.808000
946.268257	-3.000600	3.652300	-10.959000	24.679040	0.001008	20.792879
947.271304	-2.996900	3.652000	-10.944000	24.657464	0.001008	20.815325
948.269357	-3.033200	3.648900	-11.066000	24.685213	0.001010	20.812350
949.272522	-2.985600	3.651100	-10.900000	24.719888	0.001010	20.808739
950.273536	-3.015000	3.649200	-11.000000	24.698148	0.001009	20.813002
951.269764	-2.983600	3.650900	-10.892000	24.714790	0.001007	20.804097
952.272759	-2.989400	3.650500	-10.912000	24.715106	0.001008	20.814846
953.270764	-3.013300	3.649300	-10.995000	24.714343	0.001007	20.803175
954.273758	-2.983200	3.651500	-10.892000	24.723819	0.001006	20.822167
955.275205	-2.985500	3.650100	-10.894000	24.754349	0.001006	20.801596
956.272327	-3.026800	3.649800	-11.047000	24.773587	0.001004	20.805254
957.283327	-2.990100	3.649700	-10.912000	24.784588	0.001005	20.788794
958.274543	-2.990500	3.649000	-10.912000	24.797366	0.001008	20.808256
959.275761	-3.002300	3.648600	-10.954000	24.792247	0.001003	20.824929
960.276033	-2.982900	3.650300	-10.886000	24.771042	0.001006	20.817400
961.276034	-2.989700	3.648800	-10.908000	24.763426	0.001004	20.837731
962.277036	-2.994900	3.648800	-10.926000	24.744994	0.001005	20.808330
963.276129	-2.989800	3.647300	-10.904000	24.743950	0.001003	20.810126
964.276134	-2.992000	3.647800	-10.913000	24.766261	0.001004	20.812601
965.276494	-2.993500	3.646800	-10.915000	24.735840	0.001003	20.829488
966.272672	-2.985800	3.647500	-10.890000	24.769308	0.001005	20.817556
967.275948	-3.009200	3.646200	-10.970000	24.795840	0.001003	20.825690
968.273944	-2.984600	3.647500	-10.886000	24.795134	0.001001	20.798903
969.277413	-3.007100	3.646800	-10.966000	24.798991	0.001002	20.818896
970.276623	-2.994600	3.648400	-10.924000	24.786100	0.001003	20.825873
971.277843	-2.984000	3.645900	-10.879000	24.746355	0.001001	20.816333
972.273842	-2.997900	3.645400	-10.927000	24.716801	0.001000	20.809908
973.276690	-3.015800	3.644000	-10.989000	24.672749	0.001002	20.835403
974.273547	-3.001900	3.645100	-10.941000	24.649023	0.000999	20.819657
975.276802	-2.994800	3.645800	-10.918000	24.626419	0.001001	20.815942
976.278977	-2.983800	3.644600	-10.874000	24.630143	0.000999	20.819204
977.276209	-2.992700	3.645200	-10.908000	24.632636	0.000998	20.830240
978.280423	-3.001400	3.643800	-10.936000	24.670936	0.000998	20.833585
979.277479	-3.004100	3.643900	-10.946000	24.710124	0.000999	20.814589
980.280107	-3.022100	3.644000	-11.011000	24.724907	0.000997	20.838431
981.280463	-2.996700	3.643100	-10.916000	24.768505	0.001000	20.849940
982.281054	-2.999200	3.644200	-10.928000	24.796221	0.000998	20.819909
983.278055	-2.961100	3.644700	-10.791000	24.813676	0.000996	20.824624
984.279055	-3.020500	3.640700	-10.996000	24.836224	0.000995	20.835399
985.283434	-2.998000	3.642400	-10.919000	24.852577	0.000998	20.821466
986.282718	-3.010800	3.642100	-10.964000	24.885119	0.000996	20.828996
987.283718	-3.011000	3.641700	-10.964000	24.893887	0.000996	20.830683
988.285905	-2.992600	3.640400	-10.893000	24.857826	0.000995	20.833846
989.287459	-3.027800	3.640500	-11.021000	24.836800	0.000995	20.835503
990.288916	-3.012100	3.640500	-10.965000	24.785671	0.000993	20.838243
991.286814	-3.013600	3.640400	-10.968000	24.794907	0.000994	20.855573
992.289760	-3.003700	3.640500	-10.934000	24.795982	0.000994	20.826781
993.285992	-3.004200	3.639600	-10.933000	24.793988	0.000993	20.836634
994.289032	-3.009000	3.639400	-10.949000	24.816749	0.000992	20.849993
995.290386	-3.002600	3.640100	-10.928000	24.810555	0.000995	20.846147
996.287634	-3.017600	3.639200	-10.981000	24.844463	0.000995	20.831340
997.288239	-2.980500	3.640100	-10.848000	24.816905	0.000992	20.853942
998.289486	-3.015300	3.638400	-10.970000	24.820347	0.000993	20.839379
999.289484	-3.002600	3.638700	-10.926000	24.853756	0.000990	20.842563
1000.287480	-3.000300	3.638000	-10.913000	24.872866	0.000993	20.848940
1001.288559	-2.994900	3.637600	-10.894000	24.891105	0.000991	20.858709
1002.289943	-3.006100	3.638300	-10.936000	24.893042	0.000990	20.832680
1003.291382	-2.993300	3.638500	-10.890000	24.898186	0.000991	20.834050
1004.289537	-3.001000	3.636000	-10.910000	24.928161	0.000990	20.837108
1005.291142	-3.015100	3.635300	-10.960000	24.951543	0.000989	20.861524
1006.286569	-3.005100	3.635500	-10.923000	24.964883	0.000991	20.853577
1007.286687	-3.000400	3.636500	-10.910000	24.962963	0.000991	20.840270
1008.292725	-2.995100	3.636000	-10.889000	25.017313	0.000987	20.837926
1009.291890	-3.000600	3.634800	-10.904000	24.999363	0.000989	20.857365
1010.287319	-2.991500	3.635800	-10.875000	25.021777	0.000987	20.840984
1011.288754	-2.992700	3.634800	-10.877000	25.004403	0.000988	20.842511
1012.291061	-3.020800	3.633200	-10.974000	25.012013	0.000986	20.849201
1013.298493	-2.989700	3.634600	-10.865000	25.003775	0.000986	20.838087
1014.288494	-2.988600	3.634200	-10.859000	24.948085	0.000987	20.850941
1015.291745	-3.018700	3.633000	-10.965000	24.939607	0.000986	20.847648
1016.289754	-2.988600	3.633400	-10.857000	24.928898	0.000986	20.848279
1017.293004	-2.995500	3.634900	-10.886000	24.948973	0.000985	20.844246
1018.301007	-2.980400	3.634500	-10.831000	24.939763	0.000986	20.857287
1019.291224	-2.993800	3.631800	-10.872000	24.941965	0.000986	20.859497
1020.291529	-3.006900	3.632500	-10.921000	24.942992	0.000984	20.861476
1021.291562	-3.020000	3.632200	-10.968000	24.936456	0.000983	20.853968
1022.295704	-3.000800	3.631100	-10.895000	24.922154	0.000984	20.862846
1023.297812	-2.999600	3.631100	-10.891000	24.930025	0.000984	20.868375
1024.294816	-3.005300	3.630700	-10.910000	24.901732	0.000982	20.869375
1025.295812	-3.004700	3.631000	-10.910000	24.873672	0.000981	20.862550
1026.292992	-3.019500	3.629500	-10.958000	24.857822	0.000982	20.855651
1027.294013	-3.004200	3.630100	-10.905000	24.835274	0.000981	20.863842
1028.298011	-3.027900	3.628900	-10.987000	24.860344	0.000984	20.862924
1029.300011	-3.012300	3.630000	-10.933000	24.893098	0.000981	20.853598
1030.299795	-2.982800	3.629900	-10.827000	24.917109	0.000979	20.861102
1031.300231	-2.977300	3.631600	-10.811000	24.950780	0.000980	20.879249
1032.297622	-2.985000	3.630200	-10.835000	24.956579	0.000979	20.866104
1033.300528	-3.000600	3.628300	-10.886000	24.937106	0.000980	20.856517
1034.300528	-2.979800	3.628900	-10.812000	24.931780	0.000978	20.865395
1035.298835	-3.011700	3.628500	-10.926000	24.910465	0.000977	20.878613
1036.302496	-3.000500	3.627900	-10.884000	24.893432	0.000977	20.871476
1037.298758	-2.999500	3.629000	-10.884000	24.872120	0.000978	20.859570
1038.299240	-3.017000	3.628500	-10.947000	24.884694	0.000977	20.881197
1039.300285	-3.006700	3.626800	-10.904000	24.893380	0.000977	20.876639
1040.308430	-2.985600	3.626600	-10.827000	24.905138	0.000976	20.865682
1041.301126	-2.995800	3.626100	-10.862000	24.922197	0.000975	20.844398
1042.301591	-3.006800	3.625100	-10.899000	24.872302	0.000976	20.882037
1043.302923	-2.997000	3.627400	-10.871000	24.903270	0.000976	20.890358
1044.306954	-2.999800	3.626100	-10.876000	24.899677	0.000975	20.873476
1045.308492	-3.011300	3.624000	-10.911000	24.881226	0.000976	20.883881
1046.304884	-2.998600	3.624600	-10.868000	24.876134	0.000973	20.878770
1047.310939	-3.019300	3.623100	-10.939000	24.885058	0.000975	20.876821
1048.306938	-2.991000	3.625700	-10.844000	24.883745	0.000973	20.898261
1049.309494	-3.003900	3.623500	-10.883000	24.936417	0.000973	20.888539
1050.311495	-2.994600	3.623800	-10.851000	24.937730	0.000972	20.894124
1051.311494	-3.008100	3.623700	-10.900000	24.957861	0.000971	20.881141
1052.307086	-2.997100	3.622900	-10.856000	24.964895	0.000973	20.886778
1053.308311	-2.979700	3.624200	-10.798000	24.967543	0.000973	20.888487
1054.312346	-3.002300	3.623600	-10.878000	24.977988	0.000972	20.878583
1055.312024	-3.016100	3.622900	-10.925000	24.993862	0.000971	20.882663
1056.312512	-2.988400	3.623000	-10.826000	24.999899	0.000972	20.886825
1057.308687	-3.007100	3.622300	-10.891000	24.998846	0.000973	20.898569
1058.309834	-2.997300	3.622500	-10.857000	24.972943	0.000970	20.882528
1059.312803	-3.020200	3.621800	-10.938000	24.989481	0.000972	20.901497
1060.314058	-2.992600	3.621800	-10.837000	24.991392	0.000970	20.887295
1061.315106	-2.994800	3.621200	-10.844000	25.021780	0.000971	20.895037
1062.312108	-3.005400	3.620500	-10.880000	25.011097	0.000971	20.903754
1063.315444	-2.996900	3.622200	-10.854000	25.003908	0.000969	20.887530
1064.315603	-3.004500	3.619700	-10.874000	25.012904	0.000968	20.892767
1065.315570	-3.000600	3.619500	-10.860000	25.048228	0.000969	20.895033
1066.316568	-3.023200	3.618200	-10.938000	25.025086	0.000966	20.917320
1067.319673	-3.024800	3.619600	-10.947000	25.009307	0.000967	20.896268
1068.322672	-3.005300	3.619000	-10.875000	24.975591	0.000968	20.892297
1069.314898	-2.998200	3.620200	-10.853000	24.940837	0.000965	20.919051
1070.318278	-2.991900	3.618300	-10.825000	24.953015	0.000966	20.897138
1071.335216	-2.980900	3.616800	-10.780000	24.945348	0.000967	20.924053
1072.317439	-3.015700	3.617700	-10.909000	24.940104	0.000964	20.917842
1073.318334	-3.010300	3.618100	-10.890000	24.951048	0.000968	20.905594
1074.315790	-2.996300	3.616000	-10.834000	25.000250	0.000964	20.916572
1075.319043	-2.999700	3.617800	-10.851000	25.011010	0.000964	20.918838
1076.319013	-2.994600	3.616800	-10.830000	25.050165	0.000964	20.907407
1077.319269	-2.999100	3.616800	-10.846000	25.022031	0.000962	20.909038
1078.316234	-3.004700	3.617400	-10.867000	25.015127	0.000962	20.903532
1079.319235	-3.009600	3.616100	-10.882000	25.023920	0.000963	20.930373
1080.316459	-3.009700	3.615100	-10.879000	25.007989	0.000960	20.919599
1081.318803	-2.988800	3.616000	-10.806000	24.987387	0.000961	20.930212
1082.318639	-2.998800	3.614900	-10.839000	25.012215	0.000959	20.909143
1083.318767	-3.009400	3.615300	-10.879000	25.020583	0.000960	20.923705
1084.315818	-2.996600	3.615500	-10.833000	25.071572	0.000960	20.917990
1085.318984	-3.029300	3.613000	-10.943000	25.098942	0.000958	20.917964
1086.318915	-2.999800	3.616100	-10.846000	25.086682	0.000959	20.925097
1087.319129	-3.009900	3.614200	-10.877000	25.044145	0.000961	20.926493
1088.315886	-3.006600	3.613300	-10.862000	25.022260	0.000956	20.905002
1089.318885	-3.016900	3.613000	-10.898000	25.021285	0.000958	20.918246
1090.320426	-2.989900	3.613200	-10.802000	25.007855	0.000958	20.939850
1091.319609	-2.977700	3.614500	-10.762000	25.000661	0.000957	20.930734
1092.321927	-2.991300	3.614200	-10.809000	25.006958	0.000955	20.946061
1093.318742	-2.996300	3.612600	-10.822000	25.001341	0.000956	20.954647
1094.318743	-2.997400	3.612600	-10.827000	24.986407	0.000957	20.923065
1095.318838	-2.989300	3.612700	-10.798000	24.967979	0.000955	20.930646
1096.321838	-3.003300	3.611000	-10.844000	24.970346	0.000954	20.933495
1097.322871	-2.998000	3.609800	-10.820000	24.977930	0.000952	20.930677
1098.323091	-3.021300	3.609900	-10.905000	24.990207	0.000953	20.951533
1099.320093	-3.010800	3.609700	-10.867000	25.024461	0.000953	20.945139
1100.322707	-3.011900	3.610700	-10.874000	25.054216	0.000952	20.939920
1101.322120	-3.003800	3.610300	-10.844000	25.077569	0.000952	20.966677
1102.322026	-2.985200	3.611300	-10.780000	25.089616	0.000953	20.949849
1103.327841	-3.007400	3.609600	-10.855000	25.109532	0.000952	20.952772
1104.322842	-3.015700	3.607700	-10.878000	25.098798	0.000951	20.951006
1105.326106	-2.998800	3.608100	-10.819000	25.101212	0.000949	20.940628
1106.325286	-2.987600	3.608500	-10.779000	25.108323	0.000951	20.947292
1107.326287	-3.001500	3.608800	-10.829000	25.120629	0.000949	20.943525
1108.326208	-3.014600	3.608900	-10.878000	25.147868	0.000951	20.959014
1109.327422	-3.029400	3.606900	-10.926000	25.158623	0.000949	20.937097
1110.329388	-3.000600	3.607800	-10.825000	25.166231	0.000948	20.961327
1111.332389	-3.002500	3.604700	-10.822000	25.168940	0.000948	20.950771
1112.328613	-2.985200	3.606300	-10.764000	25.129729	0.000949	20.935117
1113.330638	-3.006900	3.607100	-10.845000	25.098711	0.000949	20.956134
1114.330667	-3.008200	3.604300	-10.841000	25.097325	0.000948	20.970861
1115.331667	-2.997300	3.605700	-10.806000	25.127263	0.000950	20.954451
1116.331723	-3.014500	3.605300	-10.867000	25.118943	0.000948	20.966486
1117.332725	-2.994500	3.605100	-10.795000	25.107244	0.000947	20.970387
1118.332337	-2.995300	3.604700	-10.796000	25.103720	0.000945	20.968747
1119.331671	-3.014800	3.603500	-10.863000	25.113327	0.000945	20.967960
1120.330197	-3.006100	3.603100	-10.830000	25.111863	0.000944	20.976920
1121.334967	-2.999800	3.604300	-10.811000	25.120833	0.000945	20.952737
1122.329966	-3.014700	3.602800	-10.861000	25.143318	0.000945	20.962032
1123.329709	-3.004300	3.603500	-10.824000	25.148855	0.000945	20.977072
1124.330269	-3.000700	3.604200	-10.814000	25.142347	0.000943	20.952524
1125.332497	-3.011900	3.603000	-10.851000	25.181995	0.000944	20.971461
1126.337739	-3.009700	3.601800	-10.839000	25.193382	0.000943	20.960609
1127.329741	-3.018300	3.602200	-10.871000	25.167566	0.000941	20.982104
1128.330643	-2.999700	3.603000	-10.807000	25.193278	0.000942	20.972831
1129.330902	-3.003400	3.601100	-10.815000	25.150506	0.000940	20.972092
1130.335615	-3.011900	3.600000	-10.842000	25.120070	0.000941	20.979468
1131.333861	-2.993900	3.601800	-10.782000	25.117127	0.000939	20.983626
1132.336828	-2.986200	3.600800	-10.751000	25.101437	0.000940	20.973566
1133.330500	-3.000500	3.600700	-10.802000	25.150450	0.000938	20.988154
1134.333496	-3.006400	3.600900	-10.824000	25.159636	0.000938	20.978885
1135.336896	-2.991700	3.600500	-10.771000	25.183464	0.000938	20.985736
1136.331896	-3.003800	3.599600	-10.811000	25.176453	0.000937	20.979172
1137.334281	-2.989000	3.601000	-10.762000	25.170868	0.000936	21.005329
1138.330500	-3.007800	3.599700	-10.826000	25.139348	0.000936	20.993129
1139.333550	-2.980600	3.598900	-10.725000	25.150476	0.000937	20.983913
1140.333550	-3.023800	3.597500	-10.876000	25.169290	0.000936	21.004694
1141.334551	-3.026000	3.596700	-10.882000	25.186531	0.000935	20.995452
1142.330708	-3.006900	3.596100	-10.811000	25.188317	0.000936	20.985392
1143.334761	-3.016300	3.597100	-10.849000	25.167609	0.000937	20.993051
1144.332129	-3.013600	3.596900	-10.838000	25.152681	0.000936	20.996083
1145.332127	-2.994600	3.596800	-10.770000	25.147798	0.000935	20.997818
1146.335778	-3.025700	3.595000	-10.877000	25.150766	0.000935	21.002219
1147.335780	-3.011600	3.597100	-10.832000	25.169654	0.000935	20.999370
1148.332807	-2.994700	3.595000	-10.765000	25.180989	0.000932	21.008852
1149.333808	-3.007500	3.595700	-10.814000	25.200930	0.000932	21.001845
1150.333316	-3.015600	3.594700	-10.838000	25.241780	0.000932	20.999236
1151.338862	-3.016000	3.594600	-10.841000	25.215571	0.000933	21.004216
1152.334087	-3.030300	3.593400	-10.887000	25.223097	0.000933	21.006555
1153.337508	-3.008000	3.593200	-10.806000	25.206411	0.000931	20.998814
1154.335943	-2.979800	3.595500	-10.713000	25.187909	0.000930	21.026701
1155.338943	-2.991600	3.594300	-10.752000	25.183268	0.000930	21.006399
1156.338943	-2.995800	3.593200	-10.764000	25.153855	0.000930	21.005320
1157.337444	-2.999600	3.594200	-10.780000	25.163951	0.000928	21.014980
1158.340643	-3.020500	3.591400	-10.847000	25.170464	0.000929	21.000184
1159.338735	-3.002000	3.591800	-10.781000	25.185080	0.000929	21.024335
1160.339736	-2.992400	3.592200	-10.748000	25.230861	0.000927	21.021460
1161.340790	-2.998200	3.591900	-10.767000	25.244739	0.000927	21.002680
1162.344340	-3.000000	3.592500	-10.777000	25.271948	0.000925	21.015297
1163.344579	-2.982400	3.593000	-10.715000	25.247598	0.000926	21.028306
1164.347969	-2.997000	3.589900	-10.757000	25.226870	0.000926	21.025039
1165.343594	-3.007900	3.590900	-10.800000	25.215640	0.000927	21.029410
1166.346643	-2.995900	3.592000	-10.761000	25.197615	0.000923	21.036443
1167.346642	-2.985200	3.590500	-10.717000	25.215432	0.000924	21.021617
1168.343483	-2.987700	3.590400	-10.726000	25.232772	0.000924	21.033333
1169.346980	-3.009800	3.588100	-10.798000	25.221749	0.000923	21.007573
1170.342980	-2.976400	3.590200	-10.685000	25.231541	0.000922	21.014558
1171.346420	-2.982800	3.588100	-10.702000	25.236052	0.000925	21.008656
1172.346990	-2.997800	3.587900	-10.755000	25.243027	0.000923	21.017554
1173.348213	-3.007900	3.587800	-10.791000	25.270397	0.000921	21.045976
1174.345205	-3.004800	3.586600	-10.775000	25.297524	0.000922	21.015371
1175.345990	-3.001600	3.587000	-10.766000	25.316283	0.000920	21.033255
1176.348050	-3.000500	3.587400	-10.763000	25.341151	0.000922	21.018398
1177.349229	-3.016000	3.585500	-10.813000	25.351514	0.000918	21.043023
1178.348990	-2.993900	3.586600	-10.737000	25.352515	0.000919	21.019851
1179.345955	-2.997900	3.587000	-10.752000	25.367202	0.000917	21.006150
1180.349640	-2.993000	3.585900	-10.731000	25.385804	0.000920	21.021508
1181.347075	-2.979300	3.586800	-10.686000	25.373475	0.000918	21.033781
1182.347193	-2.997700	3.584200	-10.742000	25.369671	0.000917	21.015267
1183.350192	-2.968700	3.586600	-10.646000	25.341364	0.000916	21.034255
1184.351457	-3.015200	3.583300	-10.802000	25.332599	0.000917	21.043945
1185.349504	-3.010500	3.583300	-10.786000	25.315915	0.000914	21.022456
1186.350730	-2.984500	3.584500	-10.697000	25.275245	0.000916	21.036147
1187.349943	-2.992400	3.584600	-10.725000	25.267165	0.000915	21.013340
1188.349522	-2.969700	3.582900	-10.639000	25.243157	0.000914	21.012944
1189.349599	-2.998100	3.583300	-10.742000	25.224297	0.000914	21.009182
1190.347409	-3.005500	3.582800	-10.767000	25.250220	0.000914	20.987323
1191.350420	-2.988500	3.581500	-10.702000	25.254362	0.000912	21.018976
1192.346816	-3.000600	3.582100	-10.747000	25.290071	0.000913	20.996987
1193.350023	-3.004200	3.582700	-10.762000	25.312657	0.000911	21.005437
1194.350025	-3.007500	3.582300	-10.773000	25.309720	0.000912	20.983525
1195.352616	-2.983900	3.582200	-10.688000	25.335719	0.000911	20.993981
1196.348023	-3.003600	3.580400	-10.752000	25.311479	0.000910	20.998565
1197.347028	-3.038500	3.581100	-10.879000	25.311037	0.000909	20.991959
1198.349846	-2.963000	3.581300	-10.611000	25.303004	0.000910	20.982947
1199.350069	-2.989600	3.581400	-10.706000	25.301141	0.000909	20.991506
1200.350251	-3.003400	3.579500	-10.748000	25.295656	0.000908	21.009704
1201.348255	-2.973200	3.580000	-10.643000	25.264881	0.000908	20.988292
1202.347643	-2.967400	3.579800	-10.621000	25.281536	0.000908	20.985574
1203.350681	-3.000700	3.578800	-10.737000	25.287420	0.000906	20.981051
1204.350904	-2.985400	3.578600	-10.682000	25.314598	0.000904	20.982734
1205.351871	-3.005200	3.579600	-10.757000	25.280150	0.000905	20.981812
1206.349873	-3.017900	3.577800	-10.796000	25.244548	0.000905	21.003911
1207.354092	-2.984300	3.577900	-10.676000	25.231194	0.000906	20.981499
1208.354474	-3.011900	3.576100	-10.770000	25.228698	0.000904	20.979941
1209.354421	-3.019800	3.576600	-10.799000	25.218811	0.000904	20.990402
1210.357434	-3.002000	3.576500	-10.735000	25.258452	0.000903	20.997008
1211.352573	-2.995300	3.576600	-10.712000	25.270860	0.000904	20.987657
1212.356173	-2.984900	3.576800	-10.675000	25.299906	0.000902	20.960874
1213.353174	-2.981700	3.576400	-10.662000	25.307722	0.000903	20.986735
1214.354173	-3.008600	3.576100	-10.757000	25.317089	0.000901	20.988079
1215.360181	-2.997600	3.575900	-10.718000	25.334380	0.000903	20.970830
1216.354832	-2.992400	3.575100	-10.698000	25.372448	0.000902	20.977284
1217.358049	-2.971300	3.575800	-10.623000	25.388083	0.000901	20.972595
1218.356264	-2.994800	3.574500	-10.704000	25.373527	0.000900	20.970308
1219.359753	-2.972100	3.575000	-10.623000	25.364893	0.000898	20.986766
1220.360879	-2.996200	3.574900	-10.710000	25.324545	0.000897	20.973757
1221.357876	-2.989000	3.575600	-10.686000	25.280704	0.000898	20.969094
1222.362346	-3.032600	3.572900	-10.834000	25.288208	0.000899	20.970938
1223.359104	-2.991200	3.573500	-10.688000	25.309351	0.000899	20.973200
1224.363107	-3.007600	3.571500	-10.740000	25.315729	0.000898	20.979128
1225.364104	-2.985300	3.572800	-10.665000	25.286813	0.000898	20.979968
1226.365368	-3.011600	3.571200	-10.753000	25.299824	0.000898	20.988762
1227.365026	-2.991500	3.571400	-10.683000	25.283326	0.000896	20.971252
1228.364980	-2.987800	3.572900	-10.675000	25.301328	0.000895	20.968938
1229.362170	-2.999000	3.571500	-10.710000	25.353871	0.000896	20.963849
1230.365306	-2.974300	3.571900	-10.623000	25.344899	0.000894	20.975227
1231.366302	-2.989300	3.571100	-10.674000	25.360799	0.000893	20.992137
1232.363206	-3.019700	3.571200	-10.783000	25.363948	0.000894	20.983447
1233.365250	-2.972100	3.571700	-10.615000	25.388291	0.000890	20.981812
1234.361554	-3.004200	3.568600	-10.720000	25.393983	0.000893	20.970934
1235.364758	-2.991300	3.570200	-10.678000	25.410931	0.000891	20.953341
1236.364155	-2.988000	3.568900	-10.663000	25.405555	0.000891	20.962640
1237.365545	-2.993500	3.570200	-10.687000	25.385276	0.000891	20.963614
1238.367399	-2.978100	3.569300	-10.628000	25.347468	0.000889	20.951731
1239.364279	-2.990000	3.569700	-10.671000	25.309273	0.000890	20.943728
1240.367867	-3.016400	3.566300	-10.756000	25.297151	0.000889	20.961426
1241.368108	-3.015200	3.567400	-10.756000	25.290015	0.000887	20.968485
1242.368839	-2.998500	3.568300	-10.699000	25.242737	0.000889	20.964166
1243.368844	-3.005300	3.568500	-10.723000	25.266662	0.000888	20.954524
1244.367021	-3.013400	3.565600	-10.744000	25.285427	0.000886	20.960087
1245.371020	-3.003800	3.566100	-10.710000	25.305547	0.000886	20.955159
1246.373381	-3.018900	3.564900	-10.761000	25.296367	0.000887	20.968224
1247.368376	-3.004100	3.564200	-10.706000	25.309958	0.000887	20.968594
1248.368380	-2.990800	3.565800	-10.664000	25.277741	0.000886	20.985557
1249.368601	-3.010400	3.565200	-10.731000	25.280973	0.000884	20.953719
1250.372636	-2.989400	3.565000	-10.656000	25.273781	0.000884	20.949818
1251.374087	-2.985700	3.566100	-10.647000	25.281311	0.000883	20.960222
1252.374444	-3.000200	3.564200	-10.692000	25.294456	0.000881	20.954454
1253.372737	-2.979300	3.564000	-10.617000	25.311041	0.000883	20.941236
1254.376158	-2.979800	3.564500	-10.621000	25.315027	0.000883	20.961831
1255.378370	-3.006600	3.563200	-10.711000	25.343335	0.000882	20.984087
1256.372566	-3.017600	3.562100	-10.749000	25.364616	0.000880	20.966102
1257.376290	-3.005400	3.562000	-10.704000	25.339272	0.000878	20.953933
1258.374042	-2.993300	3.563600	-10.665000	25.336278	0.000880	20.940023
1259.376041	-2.986900	3.561900	-10.636000	25.349032	0.000881	20.945716
1260.373484	-2.989000	3.561000	-10.643000	25.359369	0.000879	20.948983
1261.375496	-2.989600	3.560900	-10.645000	25.382114	0.000877	20.953802
1262.375498	-2.987500	3.561200	-10.638000	25.410394	0.000879	20.965128
1263.375496	-2.969600	3.562000	-10.576000	25.409060	0.000877	20.977063
1264.375521	-2.975100	3.562600	-10.598000	25.389912	0.000876	20.945986
1265.373521	-3.005600	3.559700	-10.698000	25.389860	0.000877	20.971061
1266.373824	-3.000200	3.559100	-10.677000	25.373904	0.000874	20.952671
1267.373824	-3.001200	3.559100	-10.680000	25.365040	0.000874	20.957047
1268.380876	-2.988500	3.558200	-10.632000	25.376322	0.000874	20.945617
1269.375875	-3.015000	3.558700	-10.727000	25.374745	0.000874	20.943085
1270.381120	-3.030300	3.557300	-10.779000	25.406885	0.000874	20.955916
1271.377319	-3.004000	3.559500	-10.692000	25.414263	0.000872	20.962849
1272.379548	-2.995800	3.560000	-10.663000	25.413817	0.000873	20.955290
1273.383921	-3.000400	3.557100	-10.672000	25.386139	0.000872	20.936035
1274.379330	-2.996100	3.557800	-10.659000	25.381235	0.000871	20.955290
1275.382329	-3.000000	3.557400	-10.670000	25.366575	0.000873	20.960958
1276.378495	-2.997600	3.556900	-10.660000	25.381997	0.000871	20.945152
1277.382495	-3.015300	3.554900	-10.718000	25.413111	0.000871	20.939884
1278.382558	-3.023600	3.556100	-10.752000	25.412379	0.000870	20.951476
1279.379614	-2.997700	3.555100	-10.655000	25.423348	0.000869	20.965333
1280.383035	-3.017100	3.555900	-10.728000	25.442361	0.000868	20.948866
1281.380466	-3.017200	3.554400	-10.723000	25.474365	0.000869	20.941176
1282.380530	-3.006600	3.553800	-10.684000	25.442578	0.000868	20.949084
1283.385954	-3.001400	3.554200	-10.667000	25.455426	0.000867	20.944917
1284.384954	-2.985500	3.555200	-10.613000	25.449080	0.000867	20.936648
1285.382834	-3.030200	3.555200	-10.772000	25.415372	0.000867	20.937414
1286.386550	-3.013800	3.552800	-10.706000	25.416187	0.000867	20.933491
1287.381610	-3.017700	3.553400	-10.721000	25.432371	0.000864	20.955430
1288.385880	-3.007400	3.553100	-10.684000	25.442712	0.000865	20.935944
1289.390881	-2.991700	3.552400	-10.626000	25.432718	0.000863	20.944400
1290.382880	-3.002600	3.552800	-10.667000	25.426917	0.000864	20.942842
1291.386261	-3.003000	3.550700	-10.662000	25.446364	0.000862	20.943404
1292.382755	-2.987100	3.554100	-10.615000	25.466637	0.000863	20.951433
1293.386472	-3.005000	3.551100	-10.670000	25.487101	0.000863	20.922674
1294.386730	-3.002300	3.550300	-10.658000	25.478498	0.000864	20.927311
1295.387767	-3.004800	3.550800	-10.668000	25.470155	0.000861	20.945009
1296.386125	-2.998100	3.550900	-10.645000	25.460187	0.000861	20.941638
1297.386329	-2.974900	3.552300	-10.566000	25.431991	0.000859	20.945566
1298.388475	-3.001500	3.549400	-10.652000	25.418141	0.000860	20.943039
1299.389845	-3.012600	3.549300	-10.691000	25.394271	0.000860	20.950363
1300.390143	-2.991000	3.551100	-10.620000	25.401510	0.000856	20.966639
1301.390142	-2.990100	3.549700	-10.613000	25.428664	0.000857	20.937010
1302.387988	-2.994300	3.548100	-10.623000	25.465733	0.000858	20.943887
1303.391021	-2.988600	3.549400	-10.606000	25.452901	0.000857	20.933374
1304.393235	-2.983900	3.548300	-10.587000	25.432078	0.000856	20.944231
1305.393203	-2.997500	3.547500	-10.633000	25.447530	0.000855	20.935567
1306.391781	-2.989100	3.548100	-10.605000	25.404114	0.000856	20.955979
1307.394156	-2.986800	3.549300	-10.600000	25.391343	0.000855	20.959750
1308.393101	-2.991800	3.545800	-10.608000	25.399947	0.000853	20.907229
1309.393320	-2.984800	3.546400	-10.584000	25.399739	0.000853	20.931200
1310.393320	-2.984100	3.548600	-10.588000	25.429483	0.000855	20.930247
1311.393116	-2.993100	3.545500	-10.609000	25.424371	0.000856	20.951664
1312.390316	-3.007400	3.546000	-10.663000	25.402520	0.000852	20.952482
1313.394316	-2.981600	3.547200	-10.575000	25.419026	0.000852	20.926385
1314.393808	-3.019700	3.543700	-10.699000	25.447201	0.000852	20.934762
1315.394392	-3.006100	3.543500	-10.651000	25.449142	0.000852	20.938133
1316.395601	-2.990900	3.543600	-10.597000	25.451213	0.000849	20.944479
1317.396372	-2.984400	3.544400	-10.577000	25.439984	0.000850	20.934627
1318.394340	-2.990000	3.543400	-10.594000	25.474012	0.000850	20.932762
1319.397042	-2.999800	3.543000	-10.627000	25.479231	0.000848	20.928521
1320.396809	-2.990800	3.543500	-10.596000	25.505439	0.000848	20.928760
1321.393981	-2.984200	3.544000	-10.575000	25.514773	0.000847	20.936711
1322.397756	-3.004300	3.543300	-10.644000	25.538329	0.000849	20.930496
1323.397002	-2.993900	3.543300	-10.608000	25.517949	0.000849	20.934210
1324.398035	-2.972700	3.543100	-10.532000	25.488675	0.000847	20.946537
1325.398400	-2.985000	3.541600	-10.570000	25.473098	0.000846	20.945593
1326.399594	-2.992100	3.541700	-10.595000	25.441644	0.000845	20.946250
1327.395591	-2.971700	3.542100	-10.524000	25.428422	0.000844	20.926338
1328.398865	-2.970900	3.541600	-10.520000	25.432590	0.000845	20.943322
1329.396746	-2.992400	3.541600	-10.597000	25.439231	0.000843	20.923915
1330.395875	-2.973200	3.541500	-10.529000	25.451585	0.000843	20.937742
1331.400363	-2.990700	3.538900	-10.582000	25.436662	0.000843	20.937929
1332.396421	-2.980800	3.540300	-10.551000	25.424069	0.000844	20.908217
1333.398935	-3.001400	3.538700	-10.620000	25.439547	0.000842	20.934663
1334.395952	-3.016600	3.538300	-10.673000	25.407360	0.000841	20.939799
1335.396259	-3.010500	3.538500	-10.652000	25.436926	0.000841	20.925394
1336.398995	-3.030000	3.536700	-10.714000	25.432625	0.000842	20.936246
1337.400043	-3.012400	3.537000	-10.654000	25.428951	0.000843	20.929239
1338.401262	-2.998000	3.538300	-10.606000	25.432101	0.000840	20.923867
1339.402183	-3.017000	3.536400	-10.669000	25.442142	0.000838	20.959076
1340.402181	-2.992300	3.536800	-10.582000	25.468272	0.000839	20.932688
1341.402249	-2.973900	3.536600	-10.515000	25.498734	0.000839	20.912546
1342.402943	-2.988000	3.537500	-10.568000	25.537498	0.000837	20.915438
1343.402688	-2.989100	3.536300	-10.569000	25.562153	0.000837	20.922180
1344.402093	-3.001500	3.535700	-10.612000	25.567953	0.000836	20.920418
1345.400576	-2.975500	3.535700	-10.519000	25.551112	0.000836	20.925790
1346.404062	-2.986100	3.535100	-10.555000	25.560658	0.000835	20.929213
1347.407140	-3.010400	3.534700	-10.640000	25.565354	0.000835	20.924446
1348.401138	-2.980500	3.534700	-10.534000	25.532174	0.000835	20.931427
1349.404191	-3.005100	3.533500	-10.617000	25.487688	0.000835	20.911884
1350.401120	-3.018400	3.535100	-10.669000	25.495082	0.000835	20.913620
1351.407507	-3.000700	3.534000	-10.604000	25.501432	0.000834	20.921893
1352.405586	-3.034400	3.531700	-10.715000	25.530338	0.000833	20.921049
1353.401550	-3.008000	3.533500	-10.628000	25.526799	0.000832	20.913702
1354.402723	-3.040200	3.531200	-10.734000	25.513626	0.000830	20.914224
1355.401690	-2.997200	3.531400	-10.583000	25.471894	0.000829	20.907878
1356.402926	-3.017800	3.531100	-10.654000	25.488238	0.000831	20.906747
1357.405131	-2.969300	3.532800	-10.489000	25.527162	0.000830	20.907904
1358.407234	-2.977500	3.532700	-10.518000	25.550951	0.000829	20.900501
1359.408234	-2.977300	3.531300	-10.512000	25.572358	0.000830	20.920101
1360.405491	-2.992400	3.532000	-10.567000	25.558739	0.000830	20.905951
1361.407710	-3.031500	3.529800	-10.699000	25.527951	0.000828	20.913437
1362.408183	-2.992400	3.530100	-10.563000	25.517637	0.000827	20.900710
1363.408184	-2.989100	3.529100	-10.548000	25.527816	0.000829	20.907613
1364.408238	-2.996000	3.529500	-10.573000	25.531334	0.000829	20.907352
1365.408708	-3.020300	3.528000	-10.655000	25.511317	0.000825	20.922336
1366.405448	-2.998500	3.528500	-10.580000	25.462212	0.000824	20.912854
1367.409446	-3.041000	3.526600	-10.723000	25.468978	0.000825	20.904002
1368.411483	-3.014200	3.526700	-10.629000	25.484928	0.000824	20.907217
1369.410481	-3.009900	3.528100	-10.619000	25.502398	0.000823	20.905320
1370.409481	-3.023200	3.526200	-10.659000	25.531568	0.000823	20.918017
1371.408051	-3.007900	3.528000	-10.611000	25.541240	0.000822	20.914928
1372.410470	-3.013600	3.526100	-10.625000	25.510788	0.000825	20.911849
1373.410505	-3.036800	3.526700	-10.709000	25.511001	0.000822	20.914907
1374.409094	-3.014500	3.524400	-10.624000	25.489489	0.000822	20.901366
1375.413183	-2.972900	3.527500	-10.486000	25.525135	0.000821	20.898757
1376.410206	-2.971000	3.527800	-10.480000	25.503364	0.000822	20.914824
1377.413968	-2.988100	3.525400	-10.532000	25.507323	0.000821	20.913110
1378.415357	-2.988800	3.524900	-10.534000	25.504780	0.000818	20.910083
1379.414325	-2.984300	3.525300	-10.519000	25.530775	0.000820	20.901575
1380.413567	-3.009000	3.524200	-10.603000	25.544778	0.000819	20.913741
1381.415208	-2.987100	3.524200	-10.526000	25.567099	0.000819	20.918612
1382.415285	-3.000300	3.524200	-10.572000	25.568515	0.000817	20.893959
1383.415318	-3.014300	3.522200	-10.616000	25.571088	0.000816	20.903180
1384.415284	-2.985400	3.523400	-10.518000	25.509237	0.000815	20.897017
1385.414965	-3.009300	3.522200	-10.598000	25.469788	0.000817	20.891541
1386.415126	-2.983100	3.523400	-10.510000	25.466608	0.000816	20.898778
1387.416336	-2.996500	3.520800	-10.549000	25.437914	0.000815	20.924015
1388.413298	-2.997700	3.521600	-10.555000	25.415954	0.000815	20.901966
1389.416311	-2.990100	3.521000	-10.527000	25.432191	0.000815	20.902623
1390.413949	-2.968800	3.522200	-10.456000	25.443523	0.000813	20.892667
1391.418333	-2.991400	3.521700	-10.533000	25.461202	0.000813	20.904254
1392.414334	-2.975700	3.521300	-10.477000	25.512014	0.000813	20.880840
1393.417331	-3.011100	3.518400	-10.593000	25.530584	0.000812	20.884315
1394.417332	-3.014500	3.520500	-10.612000	25.533837	0.000812	20.890427
1395.417332	-2.991200	3.519000	-10.525000	25.560714	0.000811	20.901770
1396.415302	-2.991700	3.519300	-10.527000	25.590202	0.000809	20.885394
1397.415285	-3.014100	3.519200	-10.606000	25.572283	0.000809	20.891105
1398.419024	-2.981200	3.518400	-10.488000	25.557600	0.000809	20.888213
1399.420027	-3.015900	3.518300	-10.608000	25.550860	0.000809	20.898987
1400.417027	-2.994700	3.517600	-10.534000	25.560194	0.000807	20.890818
1401.420023	-2.983300	3.518000	-10.494000	25.577528	0.000807	20.881675
1402.417442	-2.964800	3.518700	-10.432000	25.546238	0.000806	20.883915
1403.421443	-2.993800	3.517400	-10.529000	25.544219	0.000806	20.877147
1404.421669	-2.996300	3.516700	-10.536000	25.527144	0.000805	20.893189
1405.418942	-3.019800	3.516200	-10.617000	25.496428	0.000806	20.890318
1406.418988	-3.001400	3.516100	-10.552000	25.466651	0.000804	20.874641
1407.419208	-2.990500	3.516200	-10.514000	25.445143	0.000805	20.905672
1408.423481	-3.000700	3.516100	-10.550000	25.438455	0.000805	20.904645
1409.423481	-3.014400	3.514600	-10.592000	25.450099	0.000803	20.882675
1410.420655	-2.981400	3.515100	-10.479000	25.453694	0.000805	20.885811
1411.423656	-2.979800	3.514400	-10.472000	25.479088	0.000803	20.877173
1412.421657	-3.020600	3.513500	-10.612000	25.539840	0.000801	20.893610
1413.426446	-3.006200	3.513300	-10.562000	25.561294	0.000802	20.897138
1414.426463	-3.015100	3.512600	-10.590000	25.568511	0.000803	20.879257
1415.427268	-3.010200	3.512800	-10.573000	25.560350	0.000801	20.888604
1416.427269	-2.974800	3.512400	-10.448000	25.583354	0.000799	20.880413
1417.428762	-3.019800	3.511800	-10.603000	25.530605	0.000800	20.897612
1418.428322	-2.985700	3.514000	-10.491000	25.505586	0.000799	20.888608
1419.428130	-3.001600	3.510600	-10.537000	25.515107	0.000799	20.876834
1420.429129	-2.971600	3.513000	-10.438000	25.516398	0.000799	20.889509
1421.428128	-2.989600	3.510900	-10.495000	25.506353	0.000797	20.876577
1422.428788	-2.998500	3.510500	-10.524000	25.474817	0.000799	20.876203
1423.429014	-2.991200	3.508800	-10.494000	25.483091	0.000799	20.858435
1424.428228	-3.028800	3.509700	-10.629000	25.502155	0.000796	20.875681
1425.430228	-3.012300	3.510700	-10.574000	25.505200	0.000797	20.880162
1426.429285	-2.998200	3.508900	-10.520000	25.510529	0.000795	20.887408
1427.431406	-3.011300	3.508100	-10.563000	25.493817	0.000796	20.873946
1428.426796	-2.974100	3.510200	-10.439000	25.523485	0.000794	20.872919
1429.429821	-2.975100	3.508300	-10.437000	25.512651	0.000795	20.881006
1430.430049	-3.005100	3.506400	-10.536000	25.554932	0.000795	20.874629
1431.430049	-3.007100	3.507100	-10.545000	25.583026	0.000794	20.859222
1432.428727	-3.010800	3.507000	-10.557000	25.556379	0.000794	20.894572
1433.428946	-3.004900	3.506100	-10.535000	25.529575	0.000792	20.856752
1434.428946	-2.991200	3.505800	-10.486000	25.484057	0.000793	20.860827
1435.431947	-2.992800	3.505300	-10.489000	25.427742	0.000793	20.866391
1436.434136	-2.983900	3.506200	-10.461000	25.436896	0.000792	20.860410
1437.429294	-2.996200	3.506600	-10.506000	25.455497	0.000790	20.873872
1438.431525	-2.998500	3.505300	-10.510000	25.475718	0.000790	20.865729
1439.429012	-3.017100	3.504500	-10.572000	25.477642	0.000791	20.855334
1440.429621	-3.017400	3.503800	-10.571000	25.494241	0.000792	20.858726
1441.433032	-3.004600	3.505400	-10.532000	25.540175	0.000789	20.846060
1442.430830	-3.019200	3.502000	-10.572000	25.544190	0.000787	20.870006
1443.439503	-3.007700	3.502900	-10.534000	25.553659	0.000789	20.830205
1444.430947	-2.995300	3.502200	-10.489000	25.593422	0.000786	20.861602
1445.433635	-2.995800	3.502200	-10.491000	25.584581	0.000788	20.844664
1446.434635	-2.977700	3.502200	-10.427000	25.541855	0.000786	20.846799
1447.433634	-2.980400	3.501800	-10.435000	25.509303	0.000788	20.880488
1448.430581	-3.000200	3.502100	-10.507000	25.482368	0.000787	20.856287
1449.433581	-2.979100	3.502400	-10.433000	25.480709	0.000786	20.851776
1450.434621	-2.975600	3.501800	-10.419000	25.487086	0.000783	20.859127
1451.435165	-2.980600	3.500400	-10.433000	25.498656	0.000785	20.856996
1452.436222	-2.999100	3.498700	-10.491000	25.536086	0.000783	20.868031
1453.433263	-3.026500	3.496900	-10.581000	25.503953	0.000783	20.858996
1454.436260	-3.016600	3.499600	-10.556000	25.499990	0.000784	20.859757
1455.435395	-3.014200	3.497800	-10.542000	25.462979	0.000783	20.851515
1456.436610	-3.029800	3.497800	-10.597000	25.436905	0.000782	20.849040
1457.442270	-3.008200	3.498900	-10.525000	25.451309	0.000780	20.835055
1458.437427	-2.986900	3.497500	-10.445000	25.487060	0.000781	20.850566
1459.439464	-2.975900	3.498200	-10.409000	25.481684	0.000780	20.849910
1460.436342	-3.004300	3.497900	-10.507000	25.533911	0.000782	20.864425
1461.439342	-3.001700	3.497000	-10.495000	25.576399	0.000778	20.853041
1462.438796	-3.004100	3.496200	-10.502000	25.583165	0.000780	20.846560
1463.439183	-2.991900	3.497800	-10.464000	25.611362	0.000778	20.832680
1464.439186	-3.016400	3.494500	-10.540000	25.635491	0.000778	20.846482
1465.436528	-3.017900	3.494900	-10.546000	25.634391	0.000780	20.850592
1466.439836	-3.005300	3.495500	-10.503000	25.661218	0.000778	20.838656
1467.439016	-3.014100	3.495400	-10.534000	25.642936	0.000776	20.826459
1468.442016	-2.972400	3.494600	-10.386000	25.635725	0.000776	20.830122
1469.440211	-3.011400	3.493700	-10.520000	25.663838	0.000778	20.857408
1470.443239	-3.003500	3.494300	-10.495000	25.661794	0.000776	20.818847
1471.440433	-3.000700	3.493300	-10.481000	25.671838	0.000776	20.843158
1472.443835	-3.004600	3.493300	-10.495000	25.669265	0.000775	20.837730
1473.445417	-2.994000	3.493000	-10.457000	25.669473	0.000774	20.837938
1474.441494	-3.019800	3.492000	-10.544000	25.645396	0.000773	20.827033
1475.446620	-3.003200	3.492200	-10.487000	25.655466	0.000774	20.835724
1476.444659	-2.978500	3.492500	-10.401000	25.668866	0.000772	20.826898
1477.448013	-2.992000	3.491200	-10.444000	25.662288	0.000772	20.831670
1478.447192	-2.998500	3.491700	-10.468000	25.667559	0.000775	20.820369
1479.447418	-2.997900	3.489100	-10.459000	25.642014	0.000772	20.835963
1480.448442	-3.019500	3.489200	-10.535000	25.614419	0.000770	20.837647
1481.447041	-3.012500	3.489700	-10.511000	25.586560	0.000770	20.843332
1482.450263	-2.996000	3.490400	-10.456000	25.583441	0.000770	20.841622
1483.450264	-3.022200	3.488200	-10.541000	25.535782	0.000770	20.829321
1484.449487	-2.980100	3.489400	-10.398000	25.499509	0.000769	20.838886
1485.450181	-3.010500	3.487500	-10.498000	25.461860	0.000769	20.824314
1486.451202	-3.011200	3.487200	-10.499000	25.433005	0.000769	20.826158
1487.447266	-3.001600	3.487100	-10.466000	25.429622	0.000768	20.833666
1488.447266	-3.004300	3.487700	-10.477000	25.446621	0.000769	20.835563
1489.454479	-2.989300	3.488300	-10.426000	25.471200	0.000766	20.838434
1490.451807	-3.001200	3.486100	-10.462000	25.498217	0.000765	20.841857
1491.451811	-2.977900	3.488200	-10.386000	25.524710	0.000765	20.834323
1492.451354	-3.007300	3.484900	-10.479000	25.554663	0.000766	20.838799
1493.454459	-3.010800	3.486800	-10.496000	25.596734	0.000766	20.829843
1494.453640	-2.976200	3.485600	-10.373000	25.578508	0.000767	20.819599
1495.455616	-2.984400	3.485000	-10.400000	25.548525	0.000764	20.836428
1496.454479	-3.018100	3.483700	-10.513000	25.535067	0.000763	20.832870
1497.454426	-3.028000	3.484000	-10.548000	25.529982	0.000764	20.836298
1498.452405	-2.986500	3.485400	-10.408000	25.545194	0.000762	20.844463
1499.452802	-3.000800	3.483700	-10.453000	25.523688	0.000764	20.855107
1500.457062	-3.021900	3.482700	-10.522000	25.504273	0.000764	20.857421
1501.452415	-2.999100	3.484500	-10.449000	25.504403	0.000760	20.834319
1502.454531	-3.018600	3.481400	-10.508000	25.513903	0.000760	20.841962
1503.451586	-3.010000	3.480400	-10.474000	25.524155	0.000761	20.841352
1504.451585	-3.005100	3.482500	-10.464000	25.542647	0.000759	20.847120
1505.456006	-3.002100	3.482300	-10.453000	25.544323	0.000759	20.846433
1506.454971	-3.013400	3.480200	-10.485000	25.567194	0.000759	20.847590
1507.455363	-3.019100	3.480500	-10.507000	25.551748	0.000759	20.831130
1508.453409	-3.019300	3.479000	-10.502000	25.534408	0.000758	20.851648
1509.454394	-2.993900	3.479700	-10.416000	25.546368	0.000757	20.831891
1510.456392	-2.969800	3.480900	-10.337000	25.542617	0.000759	20.853253
1511.458473	-2.989500	3.479700	-10.402000	25.525121	0.000757	20.846115
1512.453156	-2.993500	3.479200	-10.413000	25.518403	0.000756	20.846006
1513.457155	-2.990600	3.479500	-10.405000	25.529734	0.000756	20.845532
1514.456158	-3.007700	3.478300	-10.459000	25.560553	0.000755	20.833809
1515.453551	-2.989100	3.477200	-10.393000	25.562732	0.000755	20.838368
1516.456275	-2.996600	3.477900	-10.421000	25.564724	0.000755	20.848903
1517.456276	-2.991800	3.478500	-10.405000	25.606769	0.000753	20.851774
1518.459275	-3.013900	3.475900	-10.474000	25.601416	0.000754	20.842605
1519.453501	-2.994300	3.475700	-10.407000	25.614163	0.000754	20.853984
1520.457308	-2.999900	3.475400	-10.425000	25.616051	0.000754	20.835967
1521.456867	-2.994800	3.476900	-10.412000	25.598791	0.000753	20.856089
1522.458834	-2.981000	3.477400	-10.365000	25.558816	0.000753	20.832065
1523.457045	-3.003000	3.475800	-10.437000	25.559002	0.000750	20.858803
1524.456045	-2.996700	3.474800	-10.412000	25.546073	0.000750	20.845345
1525.454046	-2.986600	3.474500	-10.376000	25.549793	0.000751	20.845762
1526.457456	-2.985700	3.472800	-10.368000	25.532008	0.000753	20.827902
1527.457421	-2.991600	3.474000	-10.391000	25.545440	0.000752	20.854667
1528.453812	-2.990200	3.472500	-10.381000	25.570749	0.000749	20.849738
1529.456810	-2.988800	3.472500	-10.378000	25.609909	0.000749	20.846867
1530.454027	-3.004700	3.472100	-10.432000	25.625017	0.000748	20.863936
1531.456554	-2.990100	3.473200	-10.384000	25.654023	0.000747	20.829533
1532.454523	-2.996600	3.472300	-10.404000	25.671386	0.000746	20.850765
1533.454566	-3.005500	3.471700	-10.433000	25.667579	0.000747	20.864958
1534.457087	-3.000000	3.470500	-10.410000	25.628815	0.000747	20.859690
1535.454395	-2.987100	3.471100	-10.368000	25.600359	0.000746	20.869042
1536.457394	-2.992700	3.470800	-10.386000	25.570039	0.000746	20.849499
1537.456856	-2.992500	3.468700	-10.379000	25.579109	0.000745	20.859555
1538.458078	-3.001300	3.467600	-10.406000	25.596655	0.000745	20.870064
1539.456264	-3.009100	3.468200	-10.435000	25.564057	0.000744	20.874310
1540.460262	-2.999100	3.468600	-10.402000	25.555372	0.000743	20.854209
1541.457022	-3.019200	3.467700	-10.469000	25.526411	0.000743	20.852626
1542.460257	-3.018100	3.468100	-10.466000	25.486382	0.000742	20.861739
1543.460242	-3.013900	3.466500	-10.447000	25.454482	0.000744	20.851517
1544.458258	-2.974900	3.467200	-10.313000	25.419254	0.000743	20.878255
1545.459486	-3.010500	3.467800	-10.439000	25.412405	0.000744	20.851465
1546.457585	-3.008600	3.465000	-10.424000	25.418439	0.000742	20.883601
1547.461780	-2.987300	3.467000	-10.356000	25.418886	0.000741	20.846593
1548.464034	-2.990100	3.466800	-10.364000	25.450839	0.000740	20.867298
1549.463036	-2.987500	3.467300	-10.358000	25.474655	0.000740	20.875093
1550.464747	-2.998400	3.465000	-10.389000	25.514031	0.000741	20.857737
1551.459714	-2.994600	3.465800	-10.377000	25.536477	0.000740	20.866054
1552.463979	-3.002300	3.463900	-10.399000	25.530344	0.000739	20.867006
1553.465163	-2.993400	3.464800	-10.370000	25.511354	0.000739	20.893453
1554.461160	-2.986800	3.465500	-10.350000	25.508413	0.000738	20.864423
1555.464174	-2.974200	3.463800	-10.302000	25.509015	0.000738	20.854122
1556.461044	-2.986200	3.464000	-10.344000	25.479108	0.000738	20.873400
1557.465261	-3.027900	3.461100	-10.479000	25.463059	0.000737	20.866293
1558.474230	-2.979000	3.464500	-10.320000	25.475881	0.000738	20.876323
1559.462566	-3.002300	3.461600	-10.392000	25.489054	0.000738	20.863948
1560.467091	-3.012400	3.460900	-10.425000	25.511319	0.000736	20.875875
1561.464379	-3.013900	3.461800	-10.432000	25.529473	0.000735	20.896950
1562.466679	-3.021600	3.460500	-10.455000	25.520056	0.000735	20.868054
1563.466776	-3.022300	3.459500	-10.454000	25.511007	0.000736	20.882674
1564.467776	-2.994600	3.459700	-10.359000	25.516409	0.000734	20.896632
1565.468828	-2.996900	3.460100	-10.368000	25.529261	0.000732	20.872082
1566.465846	-2.993700	3.459300	-10.355000	25.531015	0.000734	20.883800
1567.466156	-2.991200	3.459900	-10.348000	25.536239	0.000731	20.903270
1568.468154	-2.981200	3.458800	-10.310000	25.526064	0.000733	20.887363
1569.470371	-3.014000	3.457300	-10.420000	25.506121	0.000731	20.883931
1570.470373	-2.999200	3.458500	-10.372000	25.517613	0.000730	20.884092
1571.471424	-2.985400	3.457600	-10.322000	25.534792	0.000732	20.880956
1572.481767	-3.000600	3.457000	-10.372000	25.570623	0.000731	20.899394
1573.469704	-3.010600	3.455100	-10.401000	25.598742	0.000728	20.890651
1574.471785	-2.990800	3.455900	-10.335000	25.604195	0.000728	20.873370
1575.468415	-2.986600	3.456700	-10.323000	25.629507	0.000728	20.888359
1576.470068	-3.013600	3.455300	-10.411000	25.630478	0.000728	20.887437
1577.469360	-3.010900	3.455000	-10.402000	25.665439	0.000728	20.892678
1578.471680	-3.015200	3.453100	-10.408000	25.698225	0.000728	20.878194
1579.469698	-2.990600	3.454800	-10.330000	25.683014	0.000728	20.879512
1580.473824	-3.002300	3.455700	-10.373000	25.710446	0.000728	20.884779
1581.473887	-3.006800	3.455200	-10.387000	25.720520	0.000726	20.873561
1582.474067	-2.992700	3.454000	-10.335000	25.748133	0.000727	20.887546
1583.473206	-2.976500	3.453800	-10.279000	25.786715	0.000726	20.882678
1584.475623	-3.012100	3.453200	-10.400000	25.778946	0.000724	20.880564
1585.475624	-2.978600	3.453700	-10.287000	25.757232	0.000725	20.872978
1586.473623	-2.996300	3.452700	-10.345000	25.719706	0.000724	20.897398
1587.476699	-3.009000	3.451900	-10.387000	25.713751	0.000724	20.880038
1588.474731	-2.997600	3.451400	-10.344000	25.726865	0.000725	20.893209
1589.476716	-2.972600	3.452100	-10.260000	25.764478	0.000722	20.897324
1590.481771	-2.995900	3.451500	-10.339000	25.756998	0.000722	20.878907
1591.474189	-2.979700	3.450700	-10.281000	25.733110	0.000721	20.899481
1592.480191	-2.995000	3.449500	-10.330000	25.748428	0.000723	20.907280
1593.473619	-3.003800	3.449100	-10.360000	25.734240	0.000720	20.898246
1594.480702	-3.023800	3.448300	-10.425000	25.744496	0.000722	20.915658
1595.477786	-3.007400	3.448800	-10.371000	25.731382	0.000719	20.895375
1596.474799	-3.025200	3.447100	-10.426000	25.777322	0.000720	20.911647
1597.478019	-2.999600	3.446800	-10.337000	25.755669	0.000719	20.896537
1598.474663	-3.013100	3.447400	-10.386000	25.779769	0.000719	20.895140
1599.478894	-2.988900	3.447900	-10.305000	25.795450	0.000720	20.914209
1600.478888	-3.005300	3.447100	-10.359000	25.826677	0.000718	20.902904
1601.481406	-3.023300	3.445100	-10.415000	25.845168	0.000719	20.905832
1602.480091	-2.999200	3.445600	-10.333000	25.845428	0.000718	20.902300
1603.480125	-3.001200	3.446000	-10.340000	25.863919	0.000716	20.917554
1604.477821	-2.993100	3.445700	-10.311000	25.864568	0.000718	20.897820
1605.476604	-2.982700	3.447200	-10.281000	25.846082	0.000716	20.916706
1606.481691	-2.992400	3.445400	-10.310000	25.812958	0.000714	20.925631
1607.478255	-2.993800	3.444700	-10.312000	25.824971	0.000717	20.908776
1608.481473	-3.008800	3.445200	-10.364000	25.840050	0.000716	20.910647
1609.477517	-2.983200	3.444500	-10.275000	25.863126	0.000716	20.919602
1610.480899	-3.011600	3.444300	-10.372000	25.840127	0.000716	20.919259
1611.480913	-2.982100	3.443900	-10.270000	25.849277	0.000712	20.909485
1612.480719	-3.010300	3.443700	-10.366000	25.864460	0.000714	20.919520
1613.481372	-3.016700	3.442500	-10.384000	25.859714	0.000712	20.922812
1614.479437	-3.004100	3.442000	-10.339000	25.864455	0.000712	20.909085
1615.481832	-2.999600	3.441900	-10.324000	25.880685	0.000713	20.914009
1616.481985	-3.000200	3.442200	-10.327000	25.882049	0.000711	20.922490
1617.484634	-2.997100	3.441400	-10.314000	25.842084	0.000712	20.924069
1618.486238	-2.987300	3.440900	-10.278000	25.860939	0.000709	20.934473
1619.484914	-2.999300	3.439500	-10.316000	25.836866	0.000709	20.950592
1620.482365	-2.991300	3.438900	-10.286000	25.803379	0.000712	20.940188
1621.484768	-2.992300	3.440000	-10.293000	25.799074	0.000709	20.939184
1622.485634	-2.988900	3.440300	-10.282000	25.814724	0.000710	20.935464
1623.482120	-2.995200	3.438900	-10.298000	25.832194	0.000708	20.931676
1624.483158	-2.996500	3.438200	-10.302000	25.856816	0.000706	20.924169
1625.485374	-2.998600	3.437700	-10.308000	25.849684	0.000709	20.932650
1626.486374	-3.017800	3.436800	-10.370000	25.822593	0.000707	20.960435
1627.488352	-3.018100	3.437400	-10.373000	25.816587	0.000709	20.936861
1628.489061	-3.016300	3.437800	-10.368000	25.830929	0.000706	20.929458
1629.486060	-2.997500	3.435000	-10.295000	25.810264	0.000706	20.950896
1630.484146	-3.032900	3.435000	-10.417000	25.829379	0.000706	20.926952
1631.485032	-3.017600	3.436200	-10.368000	25.861999	0.000706	20.944072
1632.488488	-3.002800	3.435700	-10.316000	25.842404	0.000705	20.947621
1633.487522	-3.002100	3.434800	-10.311000	25.811022	0.000706	20.936012
1634.484931	-2.977400	3.434800	-10.226000	25.855755	0.000705	20.936378
1635.488934	-3.015000	3.434400	-10.354000	25.871517	0.000703	20.952684
1636.486151	-2.991100	3.433800	-10.270000	25.887902	0.000702	20.939274
1637.486154	-3.006400	3.435100	-10.326000	25.894090	0.000703	20.924155
1638.489200	-2.994700	3.433700	-10.281000	25.876756	0.000702	20.956998
1639.488165	-2.968200	3.434200	-10.193000	25.862155	0.000702	20.962718
1640.489165	-3.007300	3.432700	-10.322000	25.869200	0.000702	20.955098
1641.486664	-2.992400	3.432500	-10.270000	25.849458	0.000700	20.950913
1642.489250	-3.010400	3.432200	-10.330000	25.856482	0.000700	20.960813
1643.489305	-2.968600	3.432800	-10.189000	25.823571	0.000701	20.970899
1644.489435	-2.984300	3.430700	-10.237000	25.804508	0.000700	20.956020
1645.490392	-2.992000	3.431400	-10.266000	25.790036	0.000698	20.961396
1646.490741	-2.996700	3.431400	-10.282000	25.797371	0.000699	20.973030
1647.486960	-2.983300	3.430300	-10.232000	25.802755	0.000698	20.971325
1648.490987	-3.001300	3.431200	-10.297000	25.802356	0.000698	20.975666
1649.492188	-3.007800	3.431200	-10.319000	25.783661	0.000697	20.944563
1650.493424	-3.007600	3.430600	-10.316000	25.819951	0.000698	20.961100
1651.492483	-3.019900	3.428400	-10.352000	25.820241	0.000698	20.974665
1652.487536	-3.001700	3.427700	-10.288000	25.840590	0.000697	20.948169
1653.490758	-2.983000	3.430700	-10.233000	25.852338	0.000695	20.970873
1654.499942	-3.001800	3.428500	-10.291000	25.861778	0.000694	20.939583
1655.491529	-2.988100	3.428200	-10.243000	25.833691	0.000694	20.971582
1656.492253	-3.003300	3.428100	-10.295000	25.826321	0.000694	20.968920
1657.495398	-2.983800	3.426800	-10.224000	25.793076	0.000693	20.954019
1658.490423	-3.009100	3.426500	-10.309000	25.816642	0.000693	20.978636
1659.493330	-2.986500	3.428100	-10.237000	25.821917	0.000694	20.959282
1660.493362	-3.009700	3.425000	-10.307000	25.861618	0.000692	20.974979
1661.490378	-3.022100	3.425100	-10.350000	25.873392	0.000692	20.990123
1662.493002	-3.029000	3.424100	-10.370000	25.900373	0.000692	20.956541
1663.490001	-3.015700	3.425200	-10.328000	25.894683	0.000691	20.964575
1664.494001	-3.008100	3.423900	-10.299000	25.869170	0.000691	20.990149
1665.495002	-3.013500	3.423500	-10.316000	25.832193	0.000689	20.969129
1666.491001	-3.018500	3.424000	-10.334000	25.845071	0.000689	20.994864
1667.494001	-2.989600	3.424100	-10.236000	25.793569	0.000690	20.977745
1668.492001	-3.001700	3.424000	-10.277000	25.741800	0.000689	20.979324
1669.492003	-3.010800	3.421800	-10.301000	25.760054	0.000688	20.994337
1670.494002	-2.986600	3.421900	-10.218000	25.751168	0.000690	20.990628
1671.495002	-2.983400	3.422700	-10.210000	25.741250	0.000689	20.987305
1672.495001	-2.990800	3.421000	-10.231000	25.734854	0.000687	20.994155
1673.495002	-2.994200	3.420700	-10.241000	25.746070	0.000687	20.996412
1674.491520	-3.012100	3.421400	-10.304000	25.719064	0.000687	20.993942
1675.494519	-3.011100	3.421600	-10.302000	25.700233	0.000688	20.992572
1676.495519	-3.007200	3.420400	-10.285000	25.700813	0.000686	20.997895
1677.495520	-3.004300	3.419600	-10.272000	25.690947	0.000687	20.991780
1678.491520	-3.008500	3.419500	-10.287000	25.697504	0.000684	20.973713
1679.495520	-3.002800	3.419900	-10.268000	25.702697	0.000684	20.988409
1680.496519	-2.993300	3.419400	-10.234000	25.688955	0.000685	20.999261
1681.494519	-2.992000	3.418500	-10.227000	25.713477	0.000684	20.994020
1682.496520	-2.990700	3.418900	-10.224000	25.733672	0.000683	20.997708
1683.494519	-2.999600	3.417700	-10.251000	25.727379	0.000682	20.996603
1684.494520	-2.998600	3.417300	-10.247000	25.739943	0.000681	21.004954
1685.497519	-2.986800	3.418400	-10.208000	25.701224	0.000681	21.026752
1686.497519	-2.990200	3.417400	-10.217000	25.737132	0.000683	21.001183
1687.494519	-2.997800	3.416800	-10.241000	25.705690	0.000682	21.015592
1688.497520	-3.011800	3.415300	-10.285000	25.702645	0.000680	21.003053
1689.495522	-2.974500	3.417900	-10.165000	25.700072	0.000680	21.016114
1690.500520	-3.002500	3.415500	-10.254000	25.701229	0.000678	21.020120
1691.498519	-3.012700	3.414900	-10.287000	25.722108	0.000680	21.009799
1692.498518	-2.993900	3.415000	-10.223000	25.740778	0.000678	21.015749
1693.499527	-2.969700	3.417000	-10.146000	25.757248	0.000678	21.025652
1694.496031	-2.990300	3.415600	-10.213000	25.737188	0.000679	21.007877
1695.499031	-2.982400	3.413400	-10.179000	25.704746	0.000677	21.010378
1696.499032	-3.001200	3.413700	-10.243000	25.673853	0.000677	21.008747
1697.499032	-2.976900	3.413900	-10.162000	25.694546	0.000677	21.013409
1698.496033	-2.991900	3.413400	-10.211000	25.724183	0.000676	21.018519
1699.497032	-3.016500	3.411600	-10.289000	25.691060	0.000676	21.012278
1700.500033	-3.006000	3.412300	-10.256000	25.668084	0.000673	21.045145
1701.499032	-2.988600	3.412200	-10.197000	25.636926	0.000674	21.035664
1702.500034	-2.999700	3.411700	-10.234000	25.635800	0.000675	21.022208
1703.497034	-3.000500	3.410900	-10.234000	25.693286	0.000674	21.003136
1704.501033	-3.000300	3.410300	-10.231000	25.722347	0.000674	21.025682
1705.499032	-3.026700	3.410300	-10.321000	25.733603	0.000673	21.018972
1706.501032	-3.014000	3.410200	-10.276000	25.763918	0.000674	21.014336
1707.501032	-3.013100	3.408700	-10.270000	25.784921	0.000672	21.014096
1708.503032	-3.003900	3.408700	-10.238000	25.776533	0.000672	21.033642
1709.502033	-3.013500	3.408500	-10.270000	25.789538	0.000671	21.017784
1710.500032	-2.991700	3.408300	-10.195000	25.735807	0.000671	21.019289
1711.503032	-3.012300	3.407800	-10.265000	25.722879	0.000671	21.024796
1712.501031	-3.001500	3.407100	-10.225000	25.730376	0.000671	21.022843
1713.505033	-2.996500	3.408000	-10.210000	25.741757	0.000669	21.012939
1714.503031	-3.015100	3.406400	-10.268000	25.785502	0.000671	21.007094
1715.504034	-2.997500	3.406600	-10.211000	25.823242	0.000670	21.019872
1716.506032	-3.006800	3.405600	-10.239000	25.803599	0.000668	21.019581
1717.504031	-3.038600	3.406100	-10.348000	25.759176	0.000666	21.016210
1718.505031	-3.017600	3.405600	-10.275000	25.763316	0.000667	21.006620
1719.501033	-3.032900	3.403700	-10.321000	25.773445	0.000666	20.998779
1720.505032	-2.986200	3.406500	-10.172000	25.808086	0.000666	21.019820
1721.501034	-3.006800	3.404800	-10.237000	25.839031	0.000665	21.001597
1722.503544	-3.007500	3.403400	-10.234000	25.879883	0.000666	21.019872
1723.504544	-2.998000	3.404400	-10.206000	25.897087	0.000664	21.006338
1724.506601	-3.011100	3.404700	-10.251000	25.931589	0.000665	20.995956
1725.502820	-2.981600	3.404900	-10.151000	25.932459	0.000664	20.995882
1726.504451	-2.990400	3.403800	-10.178000	25.913975	0.000665	20.979211
1727.506636	-3.012000	3.403100	-10.249000	25.865987	0.000664	21.004019
1728.508301	-2.989900	3.403900	-10.176000	25.830877	0.000663	20.998148
1729.508080	-2.993100	3.403000	-10.185000	25.814382	0.000661	21.003863
1730.508082	-3.000200	3.401300	-10.203000	25.806488	0.000661	20.986927
1731.511481	-3.007300	3.401900	-10.229000	25.811944	0.000662	20.990985
1732.506095	-2.996800	3.402300	-10.194000	25.826763	0.000663	20.984535
1733.510067	-3.001600	3.399900	-10.203000	25.803292	0.000659	20.973761
1734.513405	-2.992300	3.401200	-10.176000	25.800299	0.000660	20.983082
1735.509413	-3.006200	3.399700	-10.219000	25.814045	0.000661	20.980294
1736.512454	-3.018000	3.400500	-10.262000	25.859960	0.000659	20.971891
1737.513482	-2.988500	3.400200	-10.161000	25.859488	0.000659	20.975210
1738.508719	-3.015200	3.400200	-10.251000	25.917885	0.000659	20.978872
1739.511753	-2.973400	3.399100	-10.106000	25.916209	0.000658	20.989515
1740.513995	-2.992300	3.397900	-10.167000	25.934200	0.000658	20.990994
1741.514789	-3.014800	3.397900	-10.243000	25.894234	0.000658	20.971234
1742.515007	-2.994500	3.398700	-10.176000	25.890436	0.000655	20.945612
1743.511956	-3.009500	3.397200	-10.223000	25.877666	0.000656	20.955542
1744.514555	-3.003300	3.397200	-10.202000	25.873942	0.000655	20.982617
1745.517418	-2.989300	3.398100	-10.156000	25.920669	0.000656	20.973135
1746.514383	-2.998200	3.395900	-10.180000	25.884933	0.000655	20.978011
1747.518416	-2.981900	3.397100	-10.128000	25.854881	0.000654	20.966790
1748.514598	-2.988200	3.395500	-10.146000	25.816227	0.000651	20.957834
1749.514815	-2.972900	3.396100	-10.095000	25.776685	0.000653	20.961736
1750.518710	-2.992600	3.396500	-10.164000	25.751117	0.000652	20.949805
1751.528089	-2.999600	3.394300	-10.181000	25.748280	0.000651	20.953119
1752.516599	-3.010900	3.393800	-10.218000	25.740918	0.000651	20.985549
1753.520596	-3.015800	3.395100	-10.239000	25.767716	0.000651	20.973588
1754.519826	-3.018900	3.392700	-10.241000	25.766383	0.000651	20.962293
1755.520031	-3.002100	3.393100	-10.185000	25.736860	0.000652	20.962984
1756.520550	-2.991200	3.393800	-10.150000	25.757574	0.000650	20.960083
1757.522245	-2.991300	3.394300	-10.152000	25.718922	0.000650	20.962036
1758.521616	-2.991800	3.392300	-10.149000	25.681784	0.000649	20.957452
1759.518617	-2.999300	3.392500	-10.175000	25.753304	0.000647	20.946787
1760.524875	-3.031900	3.390900	-10.279000	25.752122	0.000649	20.947022
1761.526305	-2.995400	3.390400	-10.155000	25.780600	0.000648	20.956660
1762.525847	-3.005400	3.390700	-10.190000	25.775988	0.000647	20.958191
1763.526061	-2.994300	3.390900	-10.153000	25.742421	0.000648	20.962406
1764.533140	-2.995800	3.390600	-10.157000	25.731668	0.000644	20.969147
1765.525663	-3.004500	3.390200	-10.185000	25.735734	0.000647	20.963750
1766.528662	-2.995100	3.390600	-10.154000	25.743630	0.000647	20.952241
1767.522661	-3.008700	3.389800	-10.198000	25.758497	0.000647	20.956269
1768.522714	-3.002300	3.388100	-10.171000	25.796546	0.000644	20.934748
1769.523715	-2.990200	3.389400	-10.134000	25.802111	0.000644	20.940811
1770.527195	-2.991600	3.390100	-10.141000	25.818056	0.000643	20.951137
1771.526542	-2.960500	3.389900	-10.035000	25.805181	0.000645	20.957644
1772.528541	-3.005700	3.389700	-10.187000	25.793142	0.000640	20.955982
1773.528063	-3.009800	3.388600	-10.198000	25.814228	0.000642	20.940654
1774.527271	-3.003900	3.387200	-10.174000	25.767657	0.000642	20.949349
1775.530242	-2.984200	3.388800	-10.112000	25.771900	0.000642	20.944604
1776.531239	-3.001700	3.388100	-10.170000	25.768834	0.000640	20.947688
1777.531287	-2.998500	3.386200	-10.151000	25.800305	0.000640	20.943738
1778.528285	-2.984500	3.385500	-10.102000	25.818606	0.000641	20.951215
1779.533357	-2.996900	3.386200	-10.146000	25.875091	0.000641	20.924035
1780.533789	-2.989300	3.386400	-10.122000	25.873259	0.000638	20.950167
1781.532707	-3.013300	3.385300	-10.200000	25.885003	0.000640	20.947266
1782.534433	-2.991800	3.384100	-10.123000	25.925256	0.000638	20.952142
1783.533845	-2.988000	3.385100	-10.113000	25.901392	0.000638	20.936705
1784.531811	-2.990500	3.383300	-10.117000	25.892793	0.000638	20.933282
1785.532033	-3.012700	3.382400	-10.189000	25.878819	0.000637	20.935366
1786.535249	-3.002000	3.383900	-10.158000	25.916630	0.000636	20.937788
1787.531613	-3.025300	3.383500	-10.235000	25.900630	0.000636	20.936888
1788.534646	-3.005400	3.383000	-10.166000	25.882907	0.000637	20.944687
1789.534830	-3.004000	3.382900	-10.161000	25.900396	0.000636	20.946609
1790.536263	-2.989300	3.382200	-10.110000	25.896205	0.000636	20.926280
1791.537300	-2.998200	3.382700	-10.140000	25.892875	0.000635	20.951855
1792.536351	-3.000100	3.382200	-10.146000	25.877559	0.000634	20.937893
1793.540543	-2.973100	3.383100	-10.056000	25.895910	0.000633	20.940206
1794.537754	-2.997700	3.381200	-10.135000	25.905766	0.000633	20.956743
1795.537704	-3.005800	3.380300	-10.160000	25.863550	0.000634	20.942312
1796.535282	-3.011800	3.379400	-10.177000	25.845324	0.000633	20.951502
1797.534498	-3.012100	3.379000	-10.177000	25.812339	0.000632	20.943973
1798.537518	-3.013300	3.379700	-10.183000	25.808667	0.000629	20.929380
1799.538517	-3.012100	3.378900	-10.176000	25.773052	0.000631	20.927745
1800.538988	-3.015800	3.379400	-10.191000	25.770562	0.000630	20.924296
1801.541256	-2.980600	3.380800	-10.076000	25.746903	0.000632	20.920446
1802.536256	-3.000100	3.379600	-10.137000	25.778401	0.000627	20.934065
1803.539827	-3.000600	3.377800	-10.134000	25.816739	0.000629	20.916153
1804.541266	-2.986500	3.377200	-10.085000	25.832233	0.000627	20.939301
1805.537305	-2.985500	3.377100	-10.081000	25.822745	0.000628	20.930720
1806.539810	-2.991600	3.377200	-10.101000	25.852244	0.000627	20.916732
1807.537607	-3.002100	3.377200	-10.136000	25.888059	0.000626	20.933269
1808.537970	-2.990100	3.377500	-10.098000	25.877576	0.000628	20.936962
1809.541006	-3.014200	3.376000	-10.174000	25.886938	0.000626	20.920764
1810.541007	-3.016600	3.376300	-10.184000	25.919076	0.000625	20.904687
1811.539320	-2.970200	3.376000	-10.027000	25.909221	0.000625	20.915174
1812.539634	-3.015400	3.373300	-10.171000	25.875264	0.000625	20.942698
1813.541545	-2.976700	3.375600	-10.048000	25.842020	0.000623	20.918315
1814.541676	-2.990800	3.374700	-10.092000	25.858349	0.000624	20.941354
1815.542290	-3.018700	3.373700	-10.182000	25.886934	0.000625	20.951102
1816.544319	-3.018800	3.374500	-10.186000	25.889921	0.000623	20.922338
1817.544290	-3.031300	3.371500	-10.218000	25.904999	0.000623	20.919942
1818.542468	-2.983300	3.374200	-10.065000	25.943857	0.000619	20.930528
1819.546648	-3.019300	3.372000	-10.179000	25.940211	0.000621	20.924021
1820.546035	-3.004000	3.372800	-10.131000	25.965666	0.000621	20.934895
1821.548591	-3.008800	3.373100	-10.148000	25.979487	0.000622	20.916540
1822.546147	-3.018400	3.371100	-10.173000	26.022854	0.000621	20.919333
1823.543643	-3.013500	3.371500	-10.159000	26.010086	0.000620	20.929737
1824.543679	-3.000300	3.370100	-10.110000	26.001647	0.000618	20.920311
1825.548037	-2.995700	3.371900	-10.100000	25.958301	0.000618	20.926548
1826.547285	-2.984600	3.370900	-10.060000	25.949286	0.000618	20.932190
1827.546315	-2.996500	3.371300	-10.102000	25.978730	0.000618	20.930002
1828.543806	-2.986600	3.370100	-10.063000	25.972386	0.000617	20.918889
1829.543806	-2.986900	3.369000	-10.061000	25.947108	0.000617	20.949440
1830.546608	-3.011200	3.368600	-10.142000	25.901223	0.000616	20.922786
1831.546627	-3.006500	3.369800	-10.130000	25.921912	0.000615	20.916545
1832.547983	-3.013600	3.368800	-10.152000	25.890969	0.000616	20.927184
1833.545176	-2.996300	3.369600	-10.095000	25.884314	0.000614	20.928558
1834.548406	-2.975300	3.368400	-10.021000	25.857172	0.000615	20.925000
1835.548251	-2.997100	3.368100	-10.094000	25.824525	0.000615	20.903587
1836.548150	-2.984100	3.368100	-10.049000	25.817938	0.000611	20.921151
1837.547705	-2.989000	3.367800	-10.065000	25.835485	0.000611	20.933086
1838.548483	-2.979000	3.368800	-10.035000	25.843956	0.000611	20.932586
1839.545763	-2.984600	3.367000	-10.047000	25.866742	0.000612	20.921812
1840.548018	-2.989800	3.367100	-10.065000	25.866326	0.000611	20.924713
1841.550715	-2.994000	3.366300	-10.078000	25.900093	0.000610	20.933503
1842.547167	-3.029500	3.364100	-10.191000	25.940189	0.000612	20.932534
1843.549217	-3.004500	3.364800	-10.109000	25.981613	0.000613	20.938588
1844.546218	-2.976600	3.367000	-10.021000	25.985285	0.000611	20.920942
1845.547104	-2.974500	3.366600	-10.013000	26.037644	0.000611	20.907167
1846.549400	-2.989800	3.364000	-10.056000	26.062889	0.000609	20.907876
1847.549542	-2.998600	3.364700	-10.089000	26.090338	0.000609	20.914591
1848.548542	-2.991400	3.365800	-10.068000	26.100092	0.000608	20.910642
1849.546229	-3.023000	3.362300	-10.163000	26.079878	0.000609	20.909772
1850.546456	-2.989900	3.362800	-10.053000	26.055815	0.000607	20.916888
1851.549450	-2.999200	3.362100	-10.083000	26.057205	0.000607	20.896001
1852.549900	-3.001500	3.362900	-10.094000	26.062422	0.000605	20.906458
1853.549904	-3.003000	3.362800	-10.098000	26.061452	0.000606	20.910225
1854.545957	-3.016100	3.360500	-10.135000	26.030903	0.000605	20.915092
1855.546956	-2.987900	3.361200	-10.042000	26.028465	0.000606	20.915962
1856.548361	-2.996900	3.361600	-10.073000	26.030777	0.000603	20.955264
1857.552754	-3.005100	3.360800	-10.099000	25.987541	0.000602	20.917519
1858.549942	-3.003800	3.360900	-10.094000	25.973200	0.000605	20.904535
1859.550294	-3.017000	3.361100	-10.139000	25.971443	0.000601	20.907036
1860.549627	-3.028100	3.359000	-10.170000	25.924038	0.000602	20.914887
1861.551629	-3.038900	3.358600	-10.205000	25.918245	0.000603	20.898163
1862.550520	-3.007100	3.358100	-10.097000	25.966775	0.000603	20.906614
1863.550519	-3.001200	3.360000	-10.083000	25.980804	0.000601	20.901269
1864.547515	-2.996500	3.360000	-10.068000	26.018139	0.000601	20.904166
1865.547514	-2.979400	3.358400	-10.005000	26.055893	0.000600	20.922182
1866.548514	-3.006000	3.358000	-10.093000	26.050364	0.000600	20.923265
1867.553124	-3.006900	3.358000	-10.096000	26.071072	0.000599	20.908985
1868.550125	-3.008000	3.357300	-10.098000	26.049970	0.000597	20.880673
1869.555818	-3.017000	3.357000	-10.126000	26.029465	0.000598	20.891839
1870.552849	-3.000700	3.357500	-10.074000	26.021707	0.000598	20.894949
1871.553120	-3.006700	3.356400	-10.090000	26.018169	0.000597	20.904196
1872.552764	-3.004900	3.356300	-10.085000	25.997846	0.000595	20.912700
1873.553762	-3.010100	3.356600	-10.103000	25.976639	0.000595	20.889025
1874.551764	-2.995400	3.355700	-10.050000	25.917011	0.000595	20.927740
1875.551983	-3.001200	3.355100	-10.068000	25.933586	0.000596	20.895558
1876.555042	-2.994500	3.356000	-10.049000	25.940168	0.000596	20.889842
1877.556506	-2.995300	3.354600	-10.046000	25.897768	0.000594	20.891817
1878.558507	-3.016300	3.353500	-10.114000	25.860584	0.000595	20.908041
1879.556552	-3.000800	3.353900	-10.063000	25.822693	0.000595	20.904118
1880.554212	-3.016400	3.352700	-10.112000	25.828856	0.000593	20.906989
1881.557832	-3.004100	3.353500	-10.073000	25.858982	0.000594	20.907854
1882.559425	-3.000400	3.353800	-10.062000	25.890580	0.000591	20.899768
1883.558426	-3.021300	3.351700	-10.126000	25.892732	0.000591	20.916627
1884.559478	-2.985900	3.354800	-10.016000	25.903038	0.000591	20.900429
1885.557444	-2.993500	3.352300	-10.034000	25.949157	0.000590	20.885123
1886.560444	-3.014500	3.352100	-10.104000	25.956180	0.000591	20.888859
1887.559495	-2.990100	3.351800	-10.022000	25.954166	0.000590	20.898215
1888.563298	-3.012200	3.351300	-10.093000	25.952616	0.000588	20.888598
1889.561522	-2.992400	3.352200	-10.030000	25.962973	0.000587	20.897580
1890.560524	-2.988600	3.352100	-10.017000	25.941133	0.000588	20.913095
1891.557882	-3.011900	3.350900	-10.092000	25.900409	0.000588	20.886884
1892.561258	-2.994300	3.351300	-10.034000	25.914884	0.000586	20.899529
1893.564258	-3.012000	3.350500	-10.091000	25.927680	0.000586	20.882513
1894.560255	-3.002200	3.350700	-10.059000	25.971053	0.000587	20.897637
1895.560261	-3.002400	3.349300	-10.055000	25.988329	0.000588	20.901243
1896.561641	-3.007900	3.348900	-10.072000	26.013160	0.000585	20.895845
1897.564466	-3.005600	3.350000	-10.067000	26.012082	0.000585	20.872004
1898.563696	-2.997200	3.348200	-10.034000	26.022542	0.000583	20.874927
1899.564210	-3.002500	3.348000	-10.050000	26.041891	0.000583	20.879194
1900.564279	-3.008400	3.348700	-10.073000	26.062604	0.000583	20.900003
1901.565889	-2.985500	3.348400	-9.995700	26.052533	0.000584	20.878033
1902.560855	-2.992200	3.345900	-10.010000	26.012813	0.000583	20.877954
1903.563661	-3.009200	3.347200	-10.072000	26.008458	0.000582	20.874052
1904.565408	-3.001800	3.346400	-10.042000	26.023118	0.000581	20.898263
1905.562463	-3.047600	3.344800	-10.192000	26.061292	0.000580	20.888729
1906.563676	-2.992800	3.345100	-10.010000	26.043593	0.000581	20.860516
1907.562993	-3.004400	3.346100	-10.052000	26.031665	0.000581	20.881721
1908.562947	-3.019900	3.345200	-10.102000	25.992914	0.000581	20.876454
1909.566480	-3.012500	3.344800	-10.075000	26.020650	0.000579	20.893887
1910.563382	-2.992500	3.344400	-10.007000	26.025789	0.000579	20.876767
1911.566153	-2.970600	3.345100	-9.935600	26.014489	0.000578	20.878215
1912.567371	-2.976300	3.346200	-9.957200	26.040497	0.000576	20.891069
1913.566434	-3.004700	3.344000	-10.047000	26.051507	0.000576	20.876053
1914.566975	-3.001900	3.342900	-10.034000	26.067188	0.000576	20.865257
1915.569197	-2.999100	3.343600	-10.027000	26.059659	0.000575	20.879029
1916.569194	-3.021500	3.342700	-10.098000	26.060919	0.000574	20.863226
1917.568388	-3.010400	3.342200	-10.061000	26.065301	0.000574	20.862413
1918.569388	-2.990100	3.341500	-9.989700	26.038007	0.000574	20.880033
1919.569390	-2.995300	3.341500	-10.008000	25.994486	0.000573	20.859068
1920.570594	-2.989600	3.342400	-9.991200	25.975421	0.000574	20.863622
1921.567026	-2.984900	3.341900	-9.974200	25.970182	0.000572	20.870212
1922.570029	-2.984600	3.340600	-9.969600	25.964779	0.000573	20.875214
1923.566779	-2.996800	3.341300	-10.013000	25.972962	0.000573	20.867789
1924.570058	-3.006800	3.340900	-10.044000	25.953638	0.000572	20.875875
1925.571023	-3.034400	3.339200	-10.131000	25.944904	0.000572	20.870895
1926.568023	-3.027500	3.338300	-10.106000	25.953668	0.000570	20.857889
1927.572479	-3.006300	3.338500	-10.035000	25.993940	0.000570	20.880804
1928.569476	-3.001500	3.338500	-10.019000	26.009462	0.000569	20.868424
1929.571539	-2.993500	3.339300	-9.995000	26.049970	0.000569	20.865501
1930.575103	-3.003000	3.338900	-10.026000	26.054529	0.000570	20.871504
1931.570965	-3.006300	3.336800	-10.029000	26.042896	0.000568	20.859816
1932.574468	-3.021900	3.335800	-10.079000	26.078575	0.000568	20.861526
1933.573826	-3.012200	3.336500	-10.049000	26.114621	0.000568	20.885888
1934.570872	-3.016000	3.334800	-10.057000	26.111400	0.000568	20.872696
1935.573904	-2.965000	3.337700	-9.895400	26.164329	0.000568	20.856180
1936.573658	-3.008500	3.336400	-10.036000	26.164277	0.000565	20.864662
1937.579659	-2.986000	3.335400	-9.957500	26.172900	0.000565	20.865741
1938.571658	-3.016100	3.334400	-10.055000	26.171853	0.000565	20.859473
1939.574666	-2.988100	3.335800	-9.966700	26.198463	0.000565	20.869616
1940.575658	-2.993900	3.335300	-9.984900	26.183052	0.000564	20.860295
1941.572659	-3.016400	3.334800	-10.058000	26.179983	0.000563	20.846306
1942.577660	-3.020000	3.334500	-10.069000	26.155004	0.000566	20.851078
1943.578659	-2.992700	3.334800	-9.978700	26.110855	0.000564	20.862191
1944.576658	-3.022700	3.334100	-10.076000	26.114890	0.000562	20.846806
1945.579660	-3.014300	3.332500	-10.044000	26.141610	0.000563	20.875076
1946.578658	-3.007800	3.333700	-10.026000	26.141030	0.000560	20.865958
1947.579172	-3.003200	3.333200	-10.009000	26.157706	0.000561	20.848102
1948.580173	-2.993700	3.332900	-9.977100	26.185442	0.000561	20.853214
1949.578691	-2.992800	3.332800	-9.973000	26.176087	0.000559	20.871787
1950.580233	-3.019900	3.331600	-10.059000	26.165104	0.000560	20.860278
1951.580234	-3.020600	3.329700	-10.057000	26.132566	0.000559	20.865989
1952.580234	-3.015700	3.329800	-10.041000	26.159308	0.000557	20.856350
1953.581234	-2.981700	3.331600	-9.932500	26.144186	0.000558	20.859647
1954.577234	-3.028700	3.329700	-10.083000	26.120328	0.000557	20.853692
1955.577235	-3.000500	3.331400	-9.993900	26.091148	0.000557	20.853771
1956.585234	-2.993900	3.330000	-9.967800	26.070021	0.000557	20.822112
1957.577233	-3.022400	3.329300	-10.061000	26.017690	0.000557	20.844449
1958.577233	-3.015600	3.329200	-10.038000	26.028886	0.000556	20.839103
1959.577233	-2.996800	3.330000	-9.977700	25.992521	0.000553	20.853301
1960.580264	-3.013200	3.327600	-10.026000	25.971625	0.000555	20.858860
1961.580264	-3.003800	3.328600	-9.996400	25.994123	0.000554	20.842109
1962.581264	-3.008800	3.327200	-10.009000	25.995357	0.000554	20.848564
1963.581264	-2.975100	3.328900	-9.902500	26.044148	0.000552	20.851117
1964.580264	-2.994400	3.328000	-9.962700	26.030752	0.000553	20.838607
1965.578263	-3.012900	3.326500	-10.021000	26.023751	0.000553	20.824936
1966.581264	-2.981200	3.326500	-9.916200	26.026189	0.000553	20.819798
1967.583266	-3.025200	3.326800	-10.063000	26.042048	0.000552	20.858490
1968.579263	-3.024400	3.325400	-10.056000	26.077286	0.000549	20.831782
1969.581810	-3.014700	3.323800	-10.019000	26.120467	0.000549	20.835341
1970.579810	-2.996300	3.326100	-9.964400	26.157061	0.000550	20.835601
1971.582810	-3.009100	3.325300	-10.006000	26.158949	0.000548	20.849825
1972.581810	-3.031800	3.323500	-10.075000	26.180607	0.000549	20.838873
1973.582810	-3.023200	3.323500	-10.046000	26.205533	0.000548	20.850169
1974.579810	-3.027600	3.323400	-10.061000	26.210013	0.000546	20.844714
1975.580325	-3.002300	3.323700	-9.977600	26.246951	0.000548	20.827306
1976.583325	-2.973500	3.322400	-9.878300	26.260059	0.000547	20.845693
1977.586328	-2.998800	3.323600	-9.965000	26.275261	0.000546	20.843427
1978.583325	-2.981200	3.323600	-9.907200	26.302730	0.000545	20.824092
1979.583327	-2.968200	3.323700	-9.864400	26.276443	0.000545	20.825175
1980.582326	-3.003000	3.322100	-9.975800	26.218931	0.000545	20.836606
1981.580328	-2.996000	3.320600	-9.946700	26.196469	0.000543	20.833949
1982.583327	-2.991200	3.320600	-9.931700	26.188178	0.000544	20.816610
1983.584326	-3.010900	3.320800	-9.996400	26.194131	0.000541	20.824488
1984.580843	-2.981200	3.320900	-9.898800	26.197594	0.000543	20.851200
1985.583844	-3.028400	3.319000	-10.050000	26.217992	0.000541	20.844197
1986.585843	-3.003800	3.321000	-9.974700	26.219040	0.000541	20.834819
1987.584408	-3.012500	3.319900	-10.000000	26.151962	0.000543	20.825262
1988.584409	-2.996000	3.318900	-9.942300	26.125143	0.000541	20.828660
1989.583978	-3.015100	3.319600	-10.008000	26.066601	0.000541	20.818676
1990.584978	-3.003300	3.318700	-9.965900	26.045967	0.000541	20.828290
1991.582980	-3.008400	3.317300	-9.978700	26.046443	0.000540	20.836355
1992.582978	-2.997500	3.319700	-9.949900	26.041486	0.000539	20.817624
1993.585495	-2.992100	3.319900	-9.932500	25.990487	0.000539	20.843671
1994.587498	-3.013200	3.317500	-9.995000	25.984221	0.000539	20.834058
1995.583008	-2.980800	3.317400	-9.887400	26.027670	0.000538	20.837407
1996.588007	-3.017800	3.317200	-10.010000	26.036663	0.000535	20.845020
1997.582573	-3.024100	3.316200	-10.027000	26.042637	0.000536	20.823996
1998.586573	-3.019200	3.315900	-10.010000	26.106713	0.000536	20.829108
1999.586635	-2.999000	3.314600	-9.938000	26.141161	0.000535	20.828633
2000.587485	-2.985200	3.316900	-9.901100	26.197893	0.000535	20.828742
2001.587799	-2.992100	3.316000	-9.921200	26.223876	0.000534	20.824980
2002.587979	-3.008100	3.313800	-9.966500	26.253073	0.000532	20.843889
2003.589182	-2.993600	3.316000	-9.925700	26.266046	0.000533	20.818520
2004.588451	-2.993300	3.313500	-9.917600	26.286339	0.000533	20.831801
2005.583918	-3.001000	3.314200	-9.945000	26.309717	0.000532	20.808354
2006.583916	-3.001400	3.314300	-9.947000	26.341202	0.000534	20.850901
2007.587132	-2.981700	3.315100	-9.883200	26.318266	0.000534	20.856773
2008.587425	-2.988700	3.313600	-9.902300	26.327282	0.000532	20.832170
2009.584846	-2.985600	3.313600	-9.892200	26.336116	0.000532	20.834885
2010.589099	-3.011000	3.311500	-9.968800	26.326598	0.000529	20.834328
2011.590469	-2.993800	3.311200	-9.912300	26.339289	0.000528	20.848030
2012.586663	-2.999600	3.313000	-9.936700	26.337008	0.000530	20.819660
2013.588067	-3.000000	3.310900	-9.931900	26.322776	0.000529	20.819582
2014.588795	-3.025300	3.310300	-10.014000	26.345686	0.000528	20.834546
2015.594318	-3.023900	3.310600	-10.011000	26.333186	0.000526	20.815345
2016.590319	-3.003700	3.310400	-9.941900	26.348097	0.000527	20.830805
2017.596318	-2.998200	3.311000	-9.925900	26.352664	0.000529	20.831601
2018.591320	-3.018400	3.308700	-9.985700	26.355174	0.000526	20.844080
2019.592465	-3.006400	3.308200	-9.945000	26.323118	0.000525	20.852167
2020.593476	-3.013000	3.309900	-9.971900	26.333944	0.000524	20.846925
2021.589470	-2.992100	3.308700	-9.898700	26.363324	0.000522	20.829039
2022.593068	-3.009900	3.307200	-9.953600	26.383191	0.000525	20.837151
2023.593069	-3.000800	3.308000	-9.926300	26.403451	0.000524	20.835228
2024.592846	-2.997800	3.307200	-9.913700	26.403031	0.000523	20.831962
2025.594373	-2.992300	3.307800	-9.897100	26.396322	0.000522	20.839443
2026.593584	-2.986300	3.306300	-9.872800	26.414877	0.000521	20.832488
2027.591558	-3.000100	3.306900	-9.919800	26.429579	0.000519	20.844420
2028.594941	-2.993800	3.307200	-9.900100	26.488650	0.000520	20.872498
2029.592836	-3.006500	3.305700	-9.938100	26.462601	0.000522	20.827351
2030.596774	-2.982000	3.307300	-9.861200	26.452591	0.000521	20.873711
2031.595786	-2.999400	3.305800	-9.914300	26.446324	0.000519	20.852715
2032.599821	-2.994100	3.305500	-9.896400	26.382714	0.000518	20.840940
2033.597270	-2.993900	3.305400	-9.895000	26.344370	0.000519	20.870679
2034.595328	-3.011500	3.304100	-9.949300	26.346439	0.000517	20.838621
2035.598534	-2.996200	3.303800	-9.897100	26.374564	0.000519	20.832749
2036.599296	-2.964900	3.304200	-9.795500	26.419564	0.000517	20.844785
2037.598263	-2.985300	3.302900	-9.859400	26.456573	0.000515	20.866808
2038.598951	-2.996700	3.303700	-9.899000	26.460347	0.000515	20.853532
2039.596352	-3.011100	3.301500	-9.939200	26.452037	0.000514	20.873154
2040.600437	-2.991600	3.302400	-9.878500	26.405623	0.000513	20.869179
2041.600949	-3.015900	3.301200	-9.955100	26.365969	0.000515	20.839757
2042.600656	-3.000800	3.301600	-9.906000	26.320755	0.000514	20.841257
2043.601122	-3.027500	3.299700	-9.988300	26.352183	0.000514	20.856721
2044.601272	-3.015500	3.299800	-9.949300	26.354144	0.000511	20.852053
2045.599486	-2.992300	3.299700	-9.872800	26.387406	0.000512	20.860353
2046.603118	-2.977500	3.301100	-9.828100	26.380382	0.000511	20.870836
2047.603683	-2.984300	3.300500	-9.848000	26.421633	0.000510	20.865355
2048.601386	-3.003100	3.299000	-9.906100	26.454374	0.000507	20.874555
2049.604437	-2.998500	3.300700	-9.896800	26.440871	0.000509	20.838699
2050.601043	-2.988900	3.300300	-9.864000	26.447947	0.000508	20.849130
2051.605104	-2.991700	3.299700	-9.871000	26.455676	0.000510	20.851684
2052.605146	-3.020100	3.299000	-9.961400	26.441814	0.000509	20.864302
2053.606822	-2.976500	3.298600	-9.817600	26.429077	0.000507	20.865251
2054.607806	-3.008900	3.298700	-9.925000	26.403286	0.000508	20.857347
2055.602789	-2.980400	3.297200	-9.825200	26.382559	0.000508	20.877765
2056.602195	-3.003300	3.296900	-9.900700	26.426930	0.000506	20.866886
2057.605420	-3.026300	3.297100	-9.976600	26.415340	0.000506	20.877047
2058.607255	-2.967100	3.298000	-9.784100	26.390916	0.000505	20.861984
2059.603324	-2.980100	3.298300	-9.827700	26.328221	0.000504	20.857295
2060.603957	-2.987200	3.296100	-9.844900	26.304471	0.000504	20.878943
2061.602632	-2.991500	3.295900	-9.857500	26.287537	0.000503	20.881840
2062.606861	-3.005400	3.295200	-9.901100	26.332515	0.000505	20.883893
2063.606497	-2.996100	3.295000	-9.870700	26.364363	0.000501	20.870383
2064.608173	-3.027100	3.294500	-9.972100	26.413163	0.000502	20.872962
2065.605617	-3.014400	3.294700	-9.930600	26.445428	0.000502	20.889270
2066.606875	-3.018800	3.294700	-9.944800	26.399248	0.000500	20.858978
2067.608066	-2.989500	3.294200	-9.846900	26.389678	0.000501	20.886342
2068.608483	-3.006800	3.291300	-9.894700	26.362969	0.000500	20.877042
2069.605239	-3.010900	3.292300	-9.911300	26.360636	0.000498	20.893663
2070.605237	-3.002900	3.291700	-9.882900	26.389072	0.000499	20.880044
2071.606029	-2.997900	3.293200	-9.872600	26.435408	0.000498	20.864028
2072.605051	-3.012100	3.291800	-9.914200	26.482743	0.000496	20.898800
2073.607905	-2.999900	3.290400	-9.870000	26.525617	0.000496	20.865559
2074.605904	-3.006800	3.291500	-9.895900	26.543408	0.000496	20.892923
2075.607856	-2.992600	3.291000	-9.847700	26.570714	0.000495	20.868691
2076.604857	-3.013600	3.289900	-9.913800	26.583320	0.000494	20.885155
2077.606001	-3.009800	3.289200	-9.898300	26.601871	0.000495	20.901431
2078.606688	-2.995900	3.288700	-9.851000	26.616809	0.000494	20.892740
2079.608921	-2.999000	3.289100	-9.862600	26.625035	0.000492	20.894846
2080.605965	-3.027600	3.287800	-9.952700	26.614762	0.000491	20.893054
2081.607110	-2.996000	3.287700	-9.848600	26.607972	0.000493	20.886229
2082.606029	-2.994600	3.288500	-9.847100	26.612637	0.000491	20.900874
2083.606123	-2.991500	3.289200	-9.838600	26.595423	0.000492	20.898269
2084.610166	-2.988500	3.287300	-9.823800	26.576422	0.000491	20.913779
2085.606166	-2.987200	3.287400	-9.818500	26.605432	0.000491	20.889839
2086.608166	-3.008200	3.286600	-9.885800	26.623035	0.000489	20.899947
2087.607169	-2.994600	3.287400	-9.843800	26.622983	0.000488	20.891835
2088.608624	-2.990300	3.287000	-9.828200	26.663364	0.000489	20.899239
2089.610371	-2.983100	3.286100	-9.802300	26.637393	0.000489	20.908216
2090.611015	-3.005100	3.284300	-9.868900	26.610897	0.000488	20.902444
2091.607667	-3.006600	3.284300	-9.873700	26.600707	0.000489	20.913535
2092.608278	-2.989200	3.286000	-9.820900	26.565668	0.000486	20.893962
2093.607277	-3.000400	3.285500	-9.856700	26.562019	0.000486	20.909734
2094.607276	-2.976800	3.286000	-9.780900	26.577092	0.000486	20.903549
2095.610846	-3.036300	3.282600	-9.966100	26.589511	0.000485	20.888059
2096.609851	-3.002900	3.285900	-9.866700	26.603792	0.000483	20.897198
2097.608911	-3.005200	3.283600	-9.867100	26.634216	0.000483	20.910238
2098.610240	-3.027200	3.283600	-9.938200	26.659162	0.000483	20.910186
2099.609710	-2.982800	3.283000	-9.791300	26.662511	0.000481	20.926827
2100.616485	-3.028900	3.282400	-9.940500	26.686513	0.000482	20.902596
2101.610435	-3.005700	3.281200	-9.861800	26.702523	0.000480	20.925801
2102.613323	-3.009400	3.282700	-9.878100	26.713863	0.000480	20.899273
2103.610631	-2.998700	3.281200	-9.838400	26.682160	0.000479	20.916710
2104.612288	-2.989300	3.281400	-9.807800	26.631507	0.000478	20.925531
2105.610503	-3.002300	3.281600	-9.851400	26.650395	0.000480	20.910381
2106.614007	-2.994800	3.281100	-9.824600	26.654095	0.000478	20.912204
2107.613404	-3.004800	3.280400	-9.856100	26.663429	0.000475	20.932016
2108.611961	-2.998000	3.280100	-9.832500	26.674428	0.000478	20.914153
2109.613822	-3.000900	3.279700	-9.840400	26.707126	0.000477	20.910516
2110.610618	-2.988500	3.278600	-9.797400	26.696430	0.000475	20.912565
2111.613429	-2.995900	3.278300	-9.820500	26.711947	0.000474	20.916784
2112.612688	-3.008800	3.278300	-9.862500	26.713807	0.000474	20.914861
2113.617817	-3.002300	3.278100	-9.841100	26.693367	0.000472	20.927027
2114.612452	-3.013100	3.277100	-9.873400	26.679010	0.000473	20.927292
2115.624787	-3.008600	3.276100	-9.854800	26.648608	0.000471	20.931816
2116.625827	-3.014000	3.276500	-9.874400	26.670858	0.000472	20.922416
2117.613020	-2.996600	3.277000	-9.818000	26.649504	0.000472	20.923708
2118.612541	-3.002100	3.276500	-9.835400	26.611035	0.000473	20.907797
2119.622543	-3.019100	3.275100	-9.886200	26.579142	0.000471	20.950649
2120.615271	-3.003600	3.275200	-9.836300	26.590151	0.000471	20.952706
2121.615613	-3.002800	3.275700	-9.834700	26.615834	0.000471	20.939645
2122.615892	-2.975400	3.276200	-9.746200	26.651831	0.000468	20.912299
2123.615312	-2.995900	3.274600	-9.808300	26.682437	0.000466	20.941641
2124.616516	-3.009300	3.274600	-9.853300	26.704340	0.000469	20.918145
2125.616061	-3.015700	3.274000	-9.872800	26.670563	0.000465	20.919750
2126.617855	-3.003600	3.272600	-9.827700	26.599835	0.000466	20.952010
2127.621135	-3.005400	3.272900	-9.834700	26.594911	0.000467	20.946112
2128.617575	-2.992700	3.272000	-9.791600	26.602510	0.000466	20.936208
2129.616545	-3.011800	3.272600	-9.855500	26.611156	0.000464	20.949640
2130.617134	-3.025300	3.271200	-9.895400	26.571907	0.000465	20.943377
2131.617251	-3.015500	3.270900	-9.862200	26.572716	0.000463	20.934234
2132.617387	-2.990300	3.272700	-9.785700	26.574152	0.000462	20.938996
2133.620621	-3.003700	3.271200	-9.824800	26.564061	0.000461	20.918897
2134.619067	-3.006200	3.270500	-9.830700	26.541086	0.000462	20.933734
2135.619211	-3.003300	3.269500	-9.818000	26.554212	0.000461	20.950244
2136.619011	-2.998800	3.270100	-9.805500	26.517341	0.000460	20.940684
2137.620775	-3.000300	3.269900	-9.809600	26.507937	0.000460	20.959204
2138.625452	-3.017100	3.268800	-9.861300	26.503241	0.000460	20.927936
2139.621302	-3.019500	3.269100	-9.869600	26.513904	0.000458	20.955246
2140.624747	-3.009100	3.267900	-9.831800	26.509685	0.000457	20.962383
2141.621597	-2.993300	3.267600	-9.778700	26.501168	0.000457	20.959039
2142.621722	-3.022100	3.267200	-9.873100	26.507197	0.000456	20.956564
2143.623643	-3.008900	3.265700	-9.824800	26.467333	0.000454	20.982873
2144.621503	-2.989900	3.267500	-9.767900	26.469142	0.000456	20.963358
2145.621946	-2.985500	3.266400	-9.750100	26.490924	0.000456	20.945899
2146.621657	-2.998800	3.266900	-9.796000	26.523598	0.000453	20.962618
2147.620954	-2.997400	3.265200	-9.786800	26.544881	0.000452	20.958882
2148.621544	-3.003900	3.265700	-9.809500	26.533716	0.000452	20.971365
2149.624019	-2.997900	3.265500	-9.788600	26.564766	0.000453	20.961326
2150.622410	-3.024300	3.262900	-9.866900	26.545011	0.000450	20.965176
2151.623851	-2.986300	3.265300	-9.750100	26.567830	0.000452	20.974361
2152.622746	-2.995700	3.263800	-9.775700	26.573914	0.000450	20.968151
2153.626683	-3.014600	3.263800	-9.837400	26.575957	0.000450	20.949818
2154.629164	-2.975300	3.265500	-9.715000	26.589060	0.000449	20.961566
2155.626284	-2.987200	3.263600	-9.747900	26.586152	0.000449	20.970021
2156.627324	-2.984700	3.262100	-9.733900	26.639421	0.000446	20.992272
2157.625531	-3.001700	3.260900	-9.786300	26.709332	0.000446	20.969151
2158.626254	-3.010900	3.261600	-9.818900	26.752379	0.000447	20.967385
2159.630270	-3.002600	3.262400	-9.793800	26.765005	0.000446	20.979602
2160.628431	-2.999800	3.261300	-9.781800	26.755862	0.000447	20.960456
2161.627789	-2.978200	3.260200	-9.708900	26.736366	0.000445	20.966933
2162.629457	-2.979600	3.261400	-9.715700	26.701756	0.000445	20.976706
2163.627754	-2.983400	3.260200	-9.725100	26.692323	0.000443	20.980972
2164.630456	-3.002300	3.259500	-9.784400	26.721482	0.000441	20.967615
2165.631268	-2.986300	3.257800	-9.728000	26.761284	0.000442	20.982499
2166.633237	-3.006300	3.258900	-9.795600	26.734501	0.000441	20.967428
2167.630955	-2.998000	3.259900	-9.771600	26.736678	0.000442	20.997113
2168.629244	-2.983800	3.259500	-9.724700	26.795654	0.000441	20.997613
2169.630390	-3.011000	3.258200	-9.809200	26.808305	0.000437	20.992315
2170.632338	-2.995300	3.258200	-9.758400	26.822089	0.000438	20.964927
2171.630694	-2.998000	3.258000	-9.764800	26.780009	0.000439	20.982834
2172.633604	-2.991800	3.257100	-9.743700	26.746002	0.000437	20.998900
2173.631682	-2.993100	3.256200	-9.745300	26.703655	0.000437	20.980037
2174.632149	-2.983500	3.257700	-9.718500	26.675357	0.000434	21.009429
2175.631494	-3.024000	3.254100	-9.839300	26.664721	0.000434	21.000161
2176.633595	-3.019900	3.254000	-9.824300	26.712149	0.000434	20.982886
2177.632514	-2.983800	3.255000	-9.711500	26.739187	0.000435	21.004850
2178.640437	-2.995800	3.254300	-9.748300	26.820405	0.000433	21.035768
2179.633346	-2.998200	3.253100	-9.752700	26.799708	0.000431	20.986517
2180.637758	-3.002300	3.252800	-9.765100	26.798215	0.000431	20.991180
2181.634436	-3.000900	3.252900	-9.760400	26.828816	0.000433	21.011987
2182.635166	-2.999800	3.253500	-9.757700	26.855168	0.000430	21.005767
2183.635823	-3.002700	3.252100	-9.764500	26.892871	0.000430	21.002901
2184.636252	-2.993400	3.252200	-9.734200	26.905784	0.000429	21.019202
2185.637197	-2.997800	3.250700	-9.743500	26.921081	0.000429	20.978167
2186.638118	-2.986600	3.251400	-9.708100	26.859987	0.000429	21.001131
2187.638196	-2.998400	3.251200	-9.747100	26.849115	0.000426	21.004423
2188.637931	-3.005100	3.250200	-9.765100	26.866723	0.000426	21.022599
2189.638679	-2.989900	3.250100	-9.714600	26.839554	0.000427	21.009508
2190.637400	-2.990400	3.250800	-9.720400	26.833977	0.000424	21.011487
2191.639063	-3.004800	3.249500	-9.762900	26.822945	0.000424	21.016988
2192.638309	-3.018100	3.248300	-9.802400	26.778170	0.000424	21.019385
2193.638070	-2.999800	3.248800	-9.744900	26.788312	0.000424	21.006824
2194.639886	-2.997400	3.247900	-9.733100	26.788493	0.000423	21.020755
2195.639907	-3.013200	3.248000	-9.785800	26.812601	0.000422	21.027922
2196.639847	-2.984400	3.247000	-9.688800	26.806024	0.000421	21.024156
2197.638767	-3.000700	3.246100	-9.740000	26.792820	0.000421	20.998556
2198.641220	-3.011400	3.245900	-9.773600	26.849487	0.000421	21.019020
2199.639388	-3.006700	3.246800	-9.760800	26.901302	0.000420	21.011852
2200.641479	-3.013500	3.246500	-9.781700	26.892373	0.000418	21.022786
2201.641036	-2.999500	3.246800	-9.737600	26.844772	0.000419	21.030871
2202.641575	-3.006100	3.245100	-9.754100	26.859152	0.000417	20.999344
2203.643516	-3.012900	3.243300	-9.771500	26.829469	0.000417	21.031606
2204.644880	-3.021200	3.244300	-9.799900	26.829340	0.000417	21.017728
2205.642016	-3.003600	3.243900	-9.742400	26.829521	0.000416	21.016488
2206.643518	-3.021400	3.241000	-9.791500	26.819722	0.000415	20.994785
2207.643136	-2.993400	3.242600	-9.706200	26.800313	0.000417	21.002297
2208.647947	-2.978400	3.243500	-9.659300	26.775842	0.000413	21.010408
2209.646246	-2.991900	3.242300	-9.699100	26.799262	0.000412	21.020677
2210.644355	-2.965300	3.244800	-9.620100	26.821794	0.000412	21.007298
2211.645336	-2.995300	3.242300	-9.711000	26.839346	0.000411	21.014514
2212.642786	-3.009100	3.240400	-9.749200	26.815084	0.000410	21.010508
2213.642251	-2.994900	3.241000	-9.705600	26.797220	0.000413	21.014831
2214.646963	-3.003100	3.240200	-9.729700	26.788017	0.000411	20.987565
2215.643290	-3.009900	3.241100	-9.754700	26.766458	0.000409	20.979641
2216.645614	-2.994500	3.243000	-9.709200	26.728257	0.000411	20.990071
2217.642371	-3.007500	3.239600	-9.741900	26.737798	0.000408	21.000609
2218.643188	-3.026300	3.236900	-9.795100	26.705070	0.000408	20.974348
2219.643568	-2.991500	3.239800	-9.691400	26.708107	0.000407	21.003001
2220.646550	-3.006200	3.237200	-9.731100	26.731325	0.000406	20.980354
2221.642694	-2.983300	3.238900	-9.662300	26.762239	0.000405	20.981563
2222.643608	-3.000700	3.237200	-9.712900	26.799729	0.000404	20.977532
2223.644175	-3.010100	3.235800	-9.738500	26.847960	0.000404	20.994255
2224.643670	-3.008200	3.236500	-9.734500	26.903210	0.000406	20.965414
2225.645958	-2.994100	3.235800	-9.687100	26.929508	0.000402	20.988535
2226.645507	-3.028300	3.234200	-9.792200	26.908288	0.000403	20.970994
2227.648930	-3.017400	3.234800	-9.760000	26.922833	0.000403	20.971869
2228.645424	-3.006200	3.235100	-9.723600	26.953949	0.000402	20.978027
2229.647567	-3.008500	3.233300	-9.725700	26.930425	0.000400	20.973339
2230.648263	-2.977500	3.234200	-9.628300	26.930637	0.000401	20.984930
2231.648377	-2.989400	3.233500	-9.665400	26.932441	0.000399	20.974891
2232.647788	-2.995900	3.233900	-9.686300	26.964690	0.000399	20.966545
2233.647443	-3.018200	3.231600	-9.751200	26.990044	0.000398	20.965962
2234.646536	-3.013400	3.232000	-9.737800	27.023234	0.000398	20.976579
2235.647718	-2.998000	3.232400	-9.690000	27.046493	0.000397	20.976261
2236.649058	-3.004300	3.231800	-9.707900	27.026976	0.000395	20.972756
2237.646863	-2.988000	3.232000	-9.656500	27.038348	0.000396	20.961434
2238.650120	-3.006200	3.231400	-9.713300	27.096412	0.000395	20.973834
2239.648271	-3.006000	3.228600	-9.703800	27.123523	0.000396	20.964592
2240.647119	-3.010200	3.230200	-9.722300	27.129518	0.000395	20.979628
2241.650664	-3.015700	3.228600	-9.735400	27.146515	0.000390	20.962587
2242.649423	-3.008200	3.228900	-9.711900	27.165667	0.000392	20.953875
2243.650243	-3.023400	3.226600	-9.754000	27.175061	0.000392	20.989870
2244.649292	-2.998700	3.229800	-9.683400	27.140936	0.000392	20.982102
2245.649546	-2.983800	3.227400	-9.626900	27.116110	0.000390	20.957137
2246.649478	-3.000700	3.227700	-9.685000	27.065373	0.000391	20.954001
2247.649777	-2.981500	3.226900	-9.619600	27.012360	0.000388	20.954266
2248.649364	-2.993000	3.227000	-9.656800	27.030142	0.000390	20.954606
2249.648813	-3.013700	3.225100	-9.718500	27.049655	0.000389	20.976122
2250.650263	-3.012000	3.225600	-9.713700	27.065348	0.000387	20.960612
2251.649966	-2.999300	3.223400	-9.667100	27.108121	0.000386	20.947207
2252.655330	-2.973200	3.225600	-9.588800	27.130538	0.000387	20.956950
2253.650538	-3.002400	3.224400	-9.679700	27.136589	0.000386	20.962087
2254.657173	-3.003000	3.223200	-9.678500	27.112835	0.000384	20.951474
2255.650886	-2.979300	3.225400	-9.607800	27.110158	0.000383	20.949256
2256.651747	-3.001100	3.221500	-9.666700	27.063799	0.000383	20.963796
2257.651866	-3.008500	3.222500	-9.693300	27.031271	0.000383	20.949104
2258.655145	-2.987500	3.222600	-9.625800	27.048426	0.000385	20.950234
2259.652842	-3.014700	3.221500	-9.711000	27.045883	0.000384	20.952892
2260.652848	-3.012100	3.220200	-9.698400	27.070849	0.000382	20.956663
2261.652890	-3.006500	3.220100	-9.679300	27.083211	0.000379	20.951078
2262.652598	-2.989600	3.218800	-9.621700	27.136823	0.000379	20.945728
2263.656116	-2.985200	3.218200	-9.606700	27.142744	0.000379	20.981550
2264.653096	-2.982500	3.219400	-9.600800	27.146381	0.000377	20.970511
2265.654472	-2.996300	3.218400	-9.640800	27.157073	0.000378	20.949499
2266.653795	-2.987400	3.219500	-9.616300	27.143765	0.000377	20.951761
2267.654875	-2.997100	3.217200	-9.641700	27.199155	0.000375	20.955789
2268.657340	-3.010800	3.215700	-9.681200	27.209396	0.000375	20.946650
2269.657228	-2.985000	3.218800	-9.607100	27.228382	0.000375	20.956737
2270.656920	-3.014400	3.217000	-9.697100	27.172678	0.000376	20.958555
2271.656419	-3.002800	3.215600	-9.655000	27.120396	0.000373	20.954810
2272.656999	-2.997700	3.217100	-9.641400	27.122519	0.000375	20.942249
2273.655636	-3.015100	3.214800	-9.691900	27.133285	0.000373	20.946437
2274.659539	-2.979200	3.215200	-9.577200	27.162358	0.000373	20.968563
2275.656228	-2.976900	3.213800	-9.566000	27.208842	0.000370	20.927604
2276.658217	-2.988400	3.212400	-9.598400	27.220783	0.000372	20.940561
2277.656776	-2.995700	3.213200	-9.624800	27.218219	0.000370	20.951256
2278.657184	-3.002200	3.213100	-9.645500	27.226124	0.000371	20.955414
2279.657989	-2.989900	3.213000	-9.605700	27.235578	0.000368	20.944062
2280.658670	-2.972000	3.212300	-9.545800	27.218686	0.000371	20.950304
2281.661078	-2.994800	3.211700	-9.617300	27.262633	0.000368	20.926708
2282.660310	-2.999400	3.212000	-9.633500	27.244383	0.000369	20.946755
2283.660023	-2.969400	3.211200	-9.533900	27.241737	0.000366	20.941248
2284.660232	-3.015100	3.211100	-9.681200	27.237152	0.000365	20.936164
2285.661556	-3.019700	3.210000	-9.691300	27.212817	0.000364	20.957676
2286.660474	-3.007900	3.210600	-9.656200	27.203471	0.000364	20.953966
2287.660942	-2.981700	3.209000	-9.567700	27.149227	0.000366	20.954884
2288.660966	-3.008100	3.208900	-9.651600	27.101879	0.000363	20.945672
2289.661163	-2.998400	3.209300	-9.621600	27.096377	0.000364	20.934450
2290.665605	-3.007200	3.207400	-9.644500	27.104812	0.000363	20.939139
2291.662632	-3.016700	3.206800	-9.673100	27.075188	0.000364	20.941113
2292.663406	-3.017900	3.207000	-9.677600	27.040355	0.000361	20.934059
2293.664669	-2.994600	3.206400	-9.600000	27.009050	0.000359	20.955680
2294.663743	-3.004200	3.205200	-9.628500	26.993911	0.000362	20.959420
2295.667947	-3.012700	3.204800	-9.654500	26.982227	0.000361	20.941035
2296.663721	-2.988100	3.205000	-9.576100	26.984403	0.000360	20.940852
2297.664675	-3.002100	3.205300	-9.622100	27.049884	0.000361	20.937951
2298.662772	-3.002100	3.204800	-9.620300	27.043837	0.000357	20.938508
2299.663945	-3.029600	3.203600	-9.705000	27.055256	0.000358	20.938612
2300.662253	-2.988500	3.203500	-9.572100	27.013320	0.000357	20.933423
2301.666075	-3.006100	3.203000	-9.627200	26.984926	0.000356	20.950386
2302.664743	-2.988500	3.201400	-9.566400	26.983827	0.000357	20.935533
2303.664977	-2.978600	3.201700	-9.534300	26.974397	0.000357	20.923206
2304.666636	-2.989600	3.201000	-9.568700	26.934292	0.000355	20.961108
2305.666539	-3.006600	3.200100	-9.620400	26.942126	0.000353	20.948125
2306.671247	-3.012400	3.198400	-9.633400	26.971646	0.000352	20.960264
2307.665559	-2.994000	3.199400	-9.577800	26.956004	0.000353	20.952596
2308.669754	-3.000600	3.198200	-9.593900	26.948360	0.000353	20.928317
2309.666761	-2.979300	3.199500	-9.531600	26.973350	0.000354	20.945385
2310.667265	-3.001900	3.197500	-9.597300	27.020055	0.000352	20.926921
2311.667758	-2.992600	3.198000	-9.569000	27.018930	0.000350	20.935746
2312.669980	-2.990700	3.198000	-9.562700	27.018480	0.000351	20.940035
2313.667763	-2.990600	3.197000	-9.558900	27.005698	0.000349	20.930501
2314.669109	-3.016100	3.196100	-9.638700	26.973402	0.000349	20.945437
2315.668229	-3.013400	3.197300	-9.633400	26.923390	0.000348	20.933554
2316.670610	-3.004200	3.195600	-9.598900	26.961195	0.000349	20.928896
2317.669454	-3.015100	3.194200	-9.629700	27.004361	0.000349	20.935794
2318.668468	-3.033600	3.192500	-9.683400	27.075291	0.000348	20.954018
2319.671710	-2.997400	3.197300	-9.582900	27.123929	0.000347	20.943666
2320.673252	-2.999200	3.195500	-9.581800	27.162509	0.000343	20.939321
2321.671151	-3.000400	3.194900	-9.585100	27.197944	0.000345	20.941770
2322.670871	-2.999800	3.192400	-9.575400	27.227673	0.000343	20.939904
2323.670042	-2.981000	3.193100	-9.517600	27.280619	0.000342	20.950012
2324.668881	-2.988500	3.191200	-9.536400	27.301412	0.000343	20.919248
2325.668593	-2.993900	3.191600	-9.554300	27.344988	0.000341	20.930366
2326.671228	-3.009600	3.190800	-9.601800	27.333676	0.000343	20.946485
2327.671582	-3.008700	3.191400	-9.600400	27.323436	0.000342	20.933341
2328.672755	-2.986700	3.191300	-9.530500	27.350934	0.000343	20.950095
2329.672988	-2.990100	3.191800	-9.543000	27.377801	0.000340	20.932553
2330.673540	-2.992900	3.189600	-9.545100	27.375128	0.000339	20.925124
2331.672939	-2.986600	3.188400	-9.520000	27.367747	0.000341	20.936190
2332.673843	-3.020800	3.187300	-9.627300	27.330874	0.000341	20.930392
2333.679075	-3.006400	3.186600	-9.578900	27.345148	0.000338	20.924837
2334.674840	-3.006500	3.187000	-9.581200	27.363241	0.000339	20.920279
2335.677136	-3.010800	3.188500	-9.598700	27.326403	0.000336	20.927317
2336.675680	-2.981800	3.187600	-9.503800	27.297355	0.000338	20.918961
2337.677234	-2.990800	3.184700	-9.522900	27.283240	0.000337	20.937951
2338.681328	-2.994200	3.183700	-9.531400	27.256190	0.000333	20.931605
2339.682548	-2.998700	3.184300	-9.547300	27.256013	0.000335	20.957502
2340.678810	-3.008000	3.183400	-9.574700	27.274267	0.000334	20.917074
2341.678656	-2.979100	3.182900	-9.481600	27.257924	0.000334	20.924342
2342.679523	-2.999700	3.183200	-9.547600	27.235686	0.000333	20.908139
2343.679295	-2.999200	3.183100	-9.544900	27.273817	0.000333	20.935585
2344.683358	-3.014000	3.182500	-9.590900	27.248678	0.000333	20.936851
2345.684219	-2.993500	3.181900	-9.523200	27.234718	0.000332	20.930396
2346.682575	-2.991500	3.182100	-9.518400	27.218980	0.000330	20.908879
2347.681046	-2.986900	3.181000	-9.500200	27.184199	0.000330	20.921310
2348.684880	-3.008000	3.179400	-9.562900	27.241001	0.000332	20.930553
2349.682768	-3.005300	3.179700	-9.553200	27.191556	0.000331	20.931079
2350.681535	-2.985100	3.179800	-9.491300	27.208241	0.000330	20.922732
2351.681051	-2.975700	3.178900	-9.458600	27.259779	0.000328	20.918622
2352.680856	-3.003200	3.178200	-9.544300	27.254071	0.000329	20.929000
2353.680475	-2.995500	3.177900	-9.518200	27.320327	0.000329	20.899871
2354.681664	-3.008600	3.176900	-9.556400	27.329490	0.000328	20.933267
2355.685211	-3.006600	3.177400	-9.551200	27.292304	0.000328	20.920044
2356.690448	-3.010400	3.174900	-9.557300	27.340854	0.000326	20.903450
2357.682940	-3.000800	3.174800	-9.525700	27.339440	0.000327	20.934267
2358.682267	-2.993800	3.175500	-9.505700	27.333027	0.000326	20.927343
2359.683323	-3.009200	3.173000	-9.546200	27.383016	0.000325	20.916465
2360.687575	-3.006400	3.172300	-9.536100	27.390976	0.000323	20.918783
2361.684856	-3.014200	3.174500	-9.566800	27.408078	0.000321	20.920814
2362.685301	-3.010700	3.171300	-9.545800	27.426511	0.000323	20.927978
2363.685283	-3.024500	3.170700	-9.588700	27.414210	0.000323	20.904225
2364.684751	-3.008800	3.169800	-9.536100	27.399443	0.000321	20.910232
2365.691363	-2.996000	3.170100	-9.496000	27.361944	0.000321	20.935094
2366.687258	-2.989000	3.170700	-9.476600	27.356292	0.000321	20.925616
2367.686252	-2.979000	3.170900	-9.445100	27.375695	0.000320	20.919057
2368.689602	-3.018900	3.169100	-9.565300	27.354827	0.000316	20.916082
2369.686964	-2.990700	3.169700	-9.477900	27.365879	0.000320	20.916769
2370.686669	-3.010400	3.166900	-9.532900	27.350455	0.000319	20.909314
2371.692541	-2.983500	3.167200	-9.448800	27.347103	0.000318	20.914477
2372.688964	-3.004100	3.166500	-9.511300	27.363185	0.000318	20.913586
2373.693299	-2.999000	3.166300	-9.494800	27.336583	0.000318	20.916222
2374.689014	-3.003500	3.165900	-9.508100	27.370597	0.000318	20.912507
2375.692030	-3.003100	3.166100	-9.507400	27.392387	0.000317	20.914512
2376.690417	-3.011700	3.165300	-9.532000	27.378640	0.000316	20.920123
2377.690451	-3.018800	3.164900	-9.553500	27.372435	0.000317	20.904874
2378.689928	-3.022300	3.162600	-9.557200	27.360807	0.000315	20.910245
2379.690833	-2.974800	3.164300	-9.411300	27.363821	0.000314	20.909010
2380.691315	-3.019000	3.163400	-9.549200	27.396028	0.000312	20.924812
2381.690552	-3.013100	3.160800	-9.522600	27.423369	0.000312	20.921972
2382.692872	-2.989200	3.162600	-9.453300	27.472643	0.000313	20.902795
2383.691898	-3.000800	3.160800	-9.483800	27.531873	0.000312	20.901694
2384.692646	-2.972800	3.160600	-9.394900	27.529284	0.000313	20.913786
2385.693545	-3.009500	3.159200	-9.507100	27.564074	0.000311	20.926030
2386.694207	-2.993000	3.158500	-9.452400	27.590148	0.000308	20.895370
2387.697464	-2.994000	3.159100	-9.456900	27.606093	0.000311	20.910937
2388.695425	-2.983500	3.158500	-9.422600	27.594364	0.000312	20.897714
2389.696677	-3.015600	3.156100	-9.517100	27.593603	0.000309	20.902164
2390.694965	-2.998300	3.154900	-9.457700	27.629001	0.000307	20.885152
2391.695163	-3.001500	3.157000	-9.474500	27.578813	0.000308	20.882068
2392.698435	-2.990500	3.155200	-9.434400	27.539180	0.000307	20.894348
2393.696490	-2.988200	3.156800	-9.432400	27.506658	0.000308	20.915678
2394.695496	-3.022300	3.153500	-9.529300	27.473067	0.000308	20.916496
2395.696397	-3.002000	3.153400	-9.465500	27.442697	0.000308	20.900168
2396.697443	-2.990200	3.152200	-9.424800	27.433167	0.000307	20.912390
2397.697443	-2.998500	3.154100	-9.457200	27.476081	0.000306	20.878754
2398.700624	-3.002200	3.152300	-9.461900	27.486320	0.000306	20.902804
2399.697475	-2.990700	3.152500	-9.427300	27.461103	0.000305	20.901142
2400.700488	-3.012500	3.150500	-9.490100	27.425704	0.000304	20.897297
2401.698526	-3.005300	3.149700	-9.465000	27.430914	0.000306	20.890685
2402.699324	-3.014500	3.150000	-9.495500	27.436885	0.000302	20.911390
2403.699615	-2.985200	3.150400	-9.402700	27.467572	0.000304	20.906701
2404.698773	-2.991200	3.147200	-9.412100	27.457234	0.000302	20.913369
2405.699582	-2.985300	3.146600	-9.393000	27.480560	0.000304	20.899380
2406.701535	-2.981300	3.148700	-9.385900	27.505487	0.000301	20.897432
2407.702180	-2.996300	3.145000	-9.422000	27.523265	0.000302	20.879285
2408.700908	-3.013000	3.144500	-9.472600	27.536750	0.000302	20.899015
2409.705184	-3.008100	3.144900	-9.459800	27.584191	0.000301	20.903600
2410.702832	-3.000300	3.143100	-9.428400	27.596495	0.000300	20.894170
2411.701868	-2.988900	3.144300	-9.396500	27.656419	0.000300	20.899463
2412.703126	-2.984300	3.142100	-9.376600	27.689195	0.000301	20.907788
2413.703883	-2.996300	3.142800	-9.415800	27.721915	0.000299	20.911790
2414.706598	-3.005400	3.141300	-9.438900	27.711657	0.000299	20.885349
2415.702760	-2.995400	3.139800	-9.403600	27.686762	0.000297	20.903443
2416.710224	-2.997900	3.138700	-9.408100	27.617286	0.000298	20.875736
2417.704666	-3.006800	3.140200	-9.441000	27.597179	0.000297	20.887745
2418.701803	-2.970000	3.138700	-9.321000	27.612180	0.000296	20.882452
2419.708333	-3.006500	3.137400	-9.432100	27.637363	0.000296	20.878867
2420.705095	-2.988700	3.136600	-9.372800	27.640562	0.000296	20.892517
2421.705062	-3.002800	3.136300	-9.417200	27.657832	0.000296	20.899463
2422.704142	-2.997800	3.134400	-9.395600	27.697858	0.000294	20.877628
2423.706907	-2.983800	3.135300	-9.354200	27.714116	0.000297	20.885927
2424.705912	-2.985200	3.133600	-9.353500	27.730132	0.000295	20.897301
2425.709993	-2.994600	3.133100	-9.380600	27.712175	0.000296	20.889663
2426.706912	-3.008400	3.132500	-9.423200	27.718958	0.000294	20.893169
2427.707438	-3.001600	3.132600	-9.402100	27.746230	0.000294	20.885527
2428.706501	-3.015000	3.130200	-9.435200	27.731494	0.000294	20.884922
2429.708510	-2.991900	3.132600	-9.371200	27.762673	0.000293	20.893539
2430.709231	-2.984400	3.130000	-9.340500	27.772619	0.000295	20.878894
2431.707320	-2.990400	3.129000	-9.355600	27.810726	0.000293	20.875992
2432.710435	-3.007800	3.128100	-9.407900	27.790886	0.000294	20.888741
2433.707315	-2.988800	3.127400	-9.346300	27.814288	0.000292	20.881473
2434.707851	-3.036400	3.126600	-9.492600	27.778485	0.000292	20.890011
2435.707979	-2.997800	3.125800	-9.368700	27.752308	0.000291	20.864618
2436.712645	-2.997500	3.125700	-9.368100	27.671605	0.000291	20.869228
2437.708735	-3.012500	3.123300	-9.407800	27.634224	0.000290	20.875236
2438.709261	-2.980500	3.125000	-9.312000	27.612150	0.000288	20.895222
2439.708874	-3.005300	3.122600	-9.383700	27.659121	0.000290	20.867097
2440.707763	-3.019400	3.122700	-9.427000	27.649878	0.000291	20.864435
2441.710220	-3.016100	3.121700	-9.413600	27.606262	0.000291	20.867014
2442.708372	-3.003700	3.119600	-9.368700	27.566842	0.000286	20.876188
2443.710988	-3.006000	3.119600	-9.377000	27.526967	0.000290	20.881112
2444.708855	-3.000000	3.119500	-9.357900	27.560867	0.000289	20.871599
2445.707949	-2.977300	3.118900	-9.284700	27.583543	0.000288	20.867389
2446.710918	-3.016900	3.117000	-9.403000	27.641059	0.000287	20.854613
2447.708928	-3.002700	3.116900	-9.357500	27.610849	0.000287	20.883483
2448.708931	-3.002600	3.116700	-9.357500	27.589985	0.000289	20.857275
2449.710257	-3.008200	3.114100	-9.367400	27.585878	0.000285	20.872108
2450.709080	-3.011600	3.113700	-9.376500	27.561814	0.000287	20.877767
2451.710454	-2.986000	3.113600	-9.295800	27.581373	0.000287	20.868998
2452.713345	-2.978500	3.113200	-9.271600	27.589985	0.000286	20.841155
2453.713378	-2.990300	3.112500	-9.306100	27.611398	0.000285	20.861751
2454.711467	-2.990000	3.112500	-9.305100	27.634886	0.000283	20.868789
2455.714366	-3.003800	3.111000	-9.343600	27.667162	0.000285	20.876136
2456.712285	-3.014500	3.108600	-9.369900	27.703971	0.000285	20.857702
2457.718312	-2.983100	3.110800	-9.279200	27.711981	0.000284	20.873822
2458.714346	-2.992300	3.108900	-9.301500	27.725438	0.000284	20.864605
2459.714874	-2.980600	3.107200	-9.259600	27.741791	0.000285	20.858302
2460.716467	-3.019400	3.107400	-9.381100	27.714488	0.000282	20.867336
2461.715213	-3.006600	3.104400	-9.332100	27.738419	0.000282	20.844953
2462.716433	-3.016900	3.104700	-9.365500	27.756717	0.000283	20.866684
2463.719594	-3.012000	3.102300	-9.343800	27.761870	0.000282	20.855749
2464.719139	-3.010700	3.103400	-9.342600	27.783755	0.000280	20.880142
2465.720843	-2.986500	3.102100	-9.262300	27.783962	0.000283	20.861860
2466.721235	-2.992700	3.100600	-9.277200	27.769728	0.000280	20.863183
2467.716655	-2.970200	3.101900	-9.212500	27.759518	0.000282	20.849115
2468.726722	-3.024200	3.098900	-9.370800	27.749784	0.000283	20.848328
2469.720874	-2.992600	3.098600	-9.271900	27.758027	0.000281	20.843348
2470.722779	-3.004700	3.096600	-9.303400	27.765306	0.000282	20.841664
2471.726872	-2.985900	3.097000	-9.246000	27.796454	0.000281	20.867794
2472.721475	-3.015800	3.094400	-9.331300	27.757897	0.000281	20.845588
2473.725956	-2.982900	3.094800	-9.230700	27.709392	0.000280	20.862208
2474.722315	-2.968200	3.095100	-9.185600	27.721539	0.000281	20.847406
2475.723909	-3.004200	3.093400	-9.291900	27.710650	0.000280	20.827440
2476.720011	-3.000900	3.092600	-9.280000	27.733427	0.000280	20.840877
2477.724402	-3.004800	3.090700	-9.286100	27.750493	0.000278	20.859473
2478.722519	-2.982600	3.091000	-9.217800	27.794570	0.000280	20.848354
2479.726022	-2.975300	3.090700	-9.194000	27.776251	0.000279	20.850308
2480.721596	-2.996000	3.090400	-9.257600	27.722378	0.000280	20.851095
2481.723741	-3.009000	3.087000	-9.287800	27.654189	0.000276	20.846488
2482.724204	-3.007400	3.087100	-9.282300	27.580863	0.000277	20.851891
2483.721229	-2.982000	3.085900	-9.201100	27.572485	0.000278	20.850099
2484.729620	-2.991500	3.085400	-9.228400	27.558606	0.000277	20.854627
2485.721958	-2.991300	3.084500	-9.225400	27.567513	0.000278	20.854579
2486.726082	-2.975200	3.084800	-9.176800	27.618199	0.000278	20.852474
2487.722676	-3.005100	3.081000	-9.257200	27.573535	0.000278	20.844044
2488.725254	-3.001700	3.082100	-9.251000	27.584348	0.000278	20.838328
2489.726868	-3.037500	3.080100	-9.354100	27.582722	0.000277	20.846649
2490.728994	-2.988500	3.079700	-9.203200	27.600578	0.000276	20.831425
2491.725683	-2.980400	3.078000	-9.172300	27.645085	0.000278	20.836854
2492.729672	-2.989200	3.078000	-9.199300	27.682336	0.000280	20.833087
2493.726903	-3.024600	3.075600	-9.300800	27.673984	0.000278	20.829424
2494.725929	-3.001700	3.074300	-9.226700	27.711290	0.000277	20.841360
2495.732200	-2.988500	3.075200	-9.188700	27.732541	0.000276	20.857054
2496.730568	-2.987300	3.074000	-9.181700	27.747152	0.000277	20.835723
2497.736019	-2.988900	3.073500	-9.185800	27.721708	0.000276	20.830033
2498.730647	-3.004100	3.072900	-9.230400	27.705921	0.000276	20.837380
2499.730922	-3.015200	3.070900	-9.258100	27.696601	0.000277	20.829898
2500.735660	-3.032000	3.068400	-9.302600	27.713119	0.000276	20.830873
2501.730488	-2.981900	3.069100	-9.150400	27.687778	0.000275	20.847572
2502.729129	-2.997900	3.068700	-9.198100	27.664322	0.000274	20.827762
2503.727466	-3.015200	3.066600	-9.245500	27.665139	0.000274	20.825266
2504.734492	-2.984900	3.067100	-9.153800	27.659299	0.000275	20.831716
2505.730947	-3.013200	3.064200	-9.231600	27.623036	0.000275	20.842643
2506.734054	-2.965100	3.064400	-9.085400	27.577487	0.000274	20.843752
2507.731264	-2.991900	3.062400	-9.160700	27.621783	0.000274	20.839485
2508.730643	-2.997700	3.060500	-9.173300	27.656415	0.000273	20.828341
2509.732165	-2.985300	3.061800	-9.139500	27.731153	0.000273	20.841908
2510.735927	-2.962800	3.060600	-9.067400	27.747018	0.000273	20.824208
2511.737973	-2.980300	3.060400	-9.119900	27.752909	0.000273	20.825870
2512.729967	-3.024000	3.056400	-9.241200	27.739267	0.000274	20.848650
2513.733689	-2.989400	3.057400	-9.138500	27.714584	0.000274	20.829502
2514.734369	-3.002000	3.054800	-9.169000	27.718980	0.000273	20.818279
2515.732634	-3.006900	3.054000	-9.181800	27.744242	0.000273	20.837537
2516.733366	-3.007700	3.052200	-9.178000	27.741990	0.000274	20.836693
2517.732237	-3.010900	3.052900	-9.189900	27.761204	0.000274	20.841804
2518.737357	-3.006300	3.051100	-9.171700	27.789448	0.000274	20.849838
2519.734946	-2.992100	3.049800	-9.124600	27.818923	0.000274	20.824974
2520.734874	-2.991700	3.050200	-9.123300	27.810252	0.000270	20.832843
2521.735518	-2.989900	3.048100	-9.111500	27.817877	0.000274	20.837197
2522.737659	-3.030500	3.047700	-9.234300	27.812275	0.000272	20.833931
2523.737306	-2.990400	3.045400	-9.105400	27.854521	0.000272	20.842783
2524.738286	-3.004400	3.044800	-9.146700	27.897517	0.000271	20.836271
2525.734565	-3.009600	3.042300	-9.154700	27.886505	0.000271	20.851265
2526.742858	-2.984900	3.044200	-9.085200	27.873941	0.000272	20.832930
2527.737154	-2.980300	3.041900	-9.064100	27.834703	0.000271	20.823786
2528.740087	-2.988300	3.040600	-9.085500	27.836696	0.000272	20.842387
2529.738057	-2.996300	3.038800	-9.102700	27.874412	0.000271	20.822499
2530.735498	-2.977600	3.039500	-9.049300	27.896502	0.000272	20.818654
2531.738195	-3.011400	3.036100	-9.142100	27.915247	0.000272	20.827563
2532.742853	-2.986200	3.035600	-9.064300	27.908440	0.000271	20.829246
2533.742371	-2.986700	3.033900	-9.059400	27.910665	0.000272	20.827219
2534.740645	-2.981700	3.032700	-9.042200	27.921423	0.000269	20.855589
2535.735436	-3.002400	3.032400	-9.103300	27.928515	0.000271	20.844710
2536.740036	-2.997300	3.030900	-9.083500	27.945764	0.000271	20.833148
2537.741562	-2.997400	3.029400	-9.079300	27.936969	0.000272	20.844210
2538.739031	-3.012000	3.028200	-9.120500	27.949636	0.000270	20.856485
2539.737350	-2.993500	3.027200	-9.060300	27.940271	0.000272	20.843740
2540.738791	-3.020400	3.026200	-9.138500	27.895538	0.000270	20.844710
2541.740309	-2.998300	3.024800	-9.068100	27.835551	0.000270	20.840286
2542.742236	-3.011400	3.024000	-9.105800	27.802835	0.000272	20.850508
2543.741588	-3.038200	3.022800	-9.182600	27.760669	0.000270	20.834627
2544.737923	-2.985800	3.022100	-9.022700	27.778599	0.000269	20.843662
2545.741129	-3.007800	3.019400	-9.080300	27.799805	0.000272	20.847934
2546.742111	-3.008100	3.019300	-9.081100	27.820034	0.000271	20.862127
2547.741971	-3.012300	3.017900	-9.089400	27.762005	0.000270	20.842135
2548.740016	-2.961800	3.017400	-8.936200	27.706406	0.000268	20.842135
2549.742140	-2.999800	3.014900	-9.042800	27.684783	0.000272	20.859256
2550.740967	-2.998700	3.014300	-9.037300	27.675173	0.000268	20.846267
2551.742147	-3.004200	3.013200	-9.051200	27.704340	0.000271	20.855228
2552.745398	-2.989000	3.011700	-9.000900	27.768441	0.000272	20.841500
2553.749762	-2.994500	3.012100	-9.019100	27.795275	0.000270	20.833892
2554.746778	-2.997700	3.010100	-9.021900	27.777108	0.000270	20.859704
2555.743819	-2.998900	3.008400	-9.021400	27.789358	0.000268	20.874876
2556.745763	-2.987700	3.007500	-8.984400	27.782260	0.000269	20.832174
2557.744155	-2.978400	3.006700	-8.954500	27.811714	0.000269	20.857547
2558.746840	-3.026200	3.003600	-9.088800	27.767313	0.000270	20.858381
2559.746470	-3.025900	3.004000	-9.088100	27.756455	0.000269	20.864523
2560.745021	-3.007700	3.001200	-9.026100	27.769254	0.000269	20.855119
2561.746835	-3.012700	3.000900	-9.039800	27.728283	0.000269	20.856563
2562.747595	-2.981400	3.000600	-8.944800	27.714049	0.000269	20.862627
2563.743450	-3.002600	2.997500	-8.998900	27.701534	0.000269	20.853353
2564.756917	-2.997800	2.996500	-8.981700	27.769906	0.000269	20.860991
2565.745904	-3.000100	2.996000	-8.987200	27.780112	0.000269	20.866046
2566.750350	-3.025500	2.993500	-9.056200	27.834898	0.000269	20.863810
2567.747466	-3.003500	2.993300	-8.989200	27.889751	0.000270	20.875393
2568.745146	-3.019100	2.991600	-9.031100	27.921734	0.000267	20.848790
2569.748851	-3.003700	2.991100	-8.982600	27.944506	0.000269	20.849425
2570.746210	-3.007100	2.988100	-8.984900	27.941126	0.000266	20.875893
2571.745163	-3.010500	2.988400	-8.995600	28.005196	0.000268	20.871157
2572.746603	-3.003300	2.986100	-8.967400	28.047430	0.000268	20.847763
2573.748172	-3.005900	2.984900	-8.971200	28.105578	0.000267	20.850821
2574.746763	-2.989300	2.985800	-8.923500	28.102907	0.000268	20.848133
2575.752063	-3.017800	2.981500	-8.996100	28.079931	0.000268	20.856298
2576.749995	-3.005900	2.981700	-8.961600	28.074274	0.000266	20.850604
2577.750211	-3.000200	2.980600	-8.941700	28.091153	0.000266	20.863327
2578.754078	-2.992100	2.980000	-8.915800	28.087882	0.000266	20.876154
2579.754217	-2.997100	2.977100	-8.921000	28.067473	0.000267	20.869834
2580.758862	-3.006400	2.975100	-8.943800	28.071323	0.000268	20.869443
2581.757861	-2.992600	2.975100	-8.901900	28.106537	0.000268	20.883079
2582.754501	-3.013300	2.972700	-8.955700	28.115962	0.000266	20.845153
2583.754936	-3.000700	2.971700	-8.916300	28.136815	0.000269	20.867094
2584.753069	-2.992800	2.969500	-8.886400	28.098245	0.000269	20.860034
2585.757178	-3.014900	2.968300	-8.948700	28.070035	0.000268	20.863405
2586.754334	-2.981100	2.967700	-8.846100	28.068203	0.000269	20.865828
2587.754004	-2.999800	2.965400	-8.894200	28.086236	0.000269	20.880187
2588.757270	-2.997400	2.964400	-8.884100	28.053026	0.000266	20.865249
2589.757482	-2.998700	2.964600	-8.889100	28.067810	0.000269	20.880604
2590.758803	-3.002100	2.960900	-8.887600	28.028610	0.000267	20.872440
2591.756563	-2.972100	2.961600	-8.800400	27.990740	0.000269	20.895958
2592.758732	-2.975600	2.960000	-8.807200	28.015892	0.000269	20.891878
2593.760188	-3.020500	2.956200	-8.928100	28.029288	0.000266	20.866485
2594.758636	-2.949700	2.958700	-8.726100	27.990874	0.000268	20.871913
2595.757600	-3.012100	2.953100	-8.893800	27.966374	0.000265	20.869538
2596.762981	-3.013700	2.951500	-8.894000	27.913664	0.000267	20.883340
2597.761415	-3.004500	2.953500	-8.873100	27.876084	0.000268	20.884397
2598.758461	-2.994100	2.951000	-8.834800	27.873253	0.000267	20.891030
2599.759757	-3.011600	2.949700	-8.882200	27.887650	0.000268	20.896037
2600.758475	-3.005700	2.949200	-8.863100	27.878280	0.000268	20.890399
2601.761338	-2.991800	2.945500	-8.811400	27.958210	0.000267	20.888346
2602.761648	-2.994400	2.943800	-8.813900	27.976504	0.000270	20.881630
2603.765739	-2.984100	2.943400	-8.781800	28.048182	0.000268	20.889769
2604.761260	-2.975900	2.941300	-8.752600	28.082381	0.000267	20.893849
2605.759184	-2.985400	2.940600	-8.777400	28.100124	0.000267	20.902700
2606.763427	-3.015700	2.937700	-8.858100	28.070134	0.000267	20.898590
2607.764197	-2.987700	2.937600	-8.775600	28.152478	0.000267	20.897559
2608.763173	-3.004000	2.936000	-8.818800	28.197325	0.000268	20.885336
2609.761930	-3.017400	2.932600	-8.847900	28.246828	0.000268	20.899138
2610.763506	-3.014100	2.932500	-8.838100	28.235158	0.000268	20.893553
2611.763672	-2.989200	2.930400	-8.758700	28.230893	0.000267	20.891630
2612.763566	-2.995500	2.928000	-8.769600	28.264512	0.000267	20.895131
2613.765825	-3.003800	2.927300	-8.790900	28.288948	0.000269	20.901717
2614.763520	-2.967700	2.926600	-8.683100	28.303154	0.000267	20.889468
2615.765286	-2.982900	2.924300	-8.721600	28.280027	0.000267	20.901743
2616.763560	-2.993200	2.922000	-8.745000	28.274894	0.000266	20.888041
2617.769595	-2.976600	2.921600	-8.695400	28.277011	0.000268	20.904396
2618.765216	-3.013400	2.918400	-8.793200	28.251844	0.000265	20.921729
2619.765426	-3.017200	2.917900	-8.802100	28.216647	0.000269	20.901943
2620.766925	-3.035600	2.914500	-8.846100	28.143749	0.000267	20.906314
2621.764590	-2.998800	2.914100	-8.736900	28.125298	0.000266	20.892956
2622.770739	-3.003200	2.913000	-8.747400	28.124771	0.000267	20.908071
2623.773001	-3.020100	2.909500	-8.785400	28.086909	0.000268	20.915948
2624.769556	-3.011600	2.909300	-8.760300	28.087747	0.000267	20.916792
2625.771901	-3.002200	2.909200	-8.733100	28.116582	0.000267	20.911207
2626.766671	-3.023400	2.906600	-8.786600	28.150261	0.000266	20.916661
2627.766018	-3.003400	2.905400	-8.725200	28.142302	0.000267	20.911494
2628.770532	-3.043100	2.902000	-8.830100	28.147850	0.000267	20.924665
2629.774060	-2.994700	2.901500	-8.688200	28.163418	0.000266	20.928483
2630.772372	-3.022900	2.898700	-8.761100	28.175867	0.000267	20.932955
2631.770755	-3.004200	2.899200	-8.708900	28.186725	0.000266	20.943885
2632.770247	-3.009900	2.894200	-8.710100	28.168145	0.000266	20.926130
2633.770796	-2.998700	2.894300	-8.678500	28.141040	0.000266	20.913068
2634.776975	-3.016700	2.890600	-8.718000	28.106868	0.000265	20.932720
2635.772218	-3.005500	2.889600	-8.683800	28.123587	0.000267	20.917783
2636.775103	-3.013500	2.889200	-8.705800	28.083080	0.000269	20.920154
2637.774248	-2.994200	2.888700	-8.648000	28.134074	0.000267	20.938296
2638.773736	-3.007600	2.884900	-8.676200	28.178999	0.000268	20.917618
2639.778338	-2.991500	2.884400	-8.626900	28.209301	0.000265	20.941958
2640.775301	-3.010700	2.880700	-8.671700	28.254539	0.000267	20.925865
2641.775025	-3.015800	2.879800	-8.684000	28.278894	0.000269	20.943745
2642.775648	-2.991800	2.877700	-8.608100	28.255610	0.000269	20.909401
2643.782156	-2.977000	2.876700	-8.562800	28.222276	0.000266	20.932263
2644.777585	-2.976000	2.874400	-8.552800	28.217904	0.000267	20.933076
2645.778738	-2.985200	2.873800	-8.577900	28.230987	0.000268	20.923964
2646.777265	-3.001800	2.871000	-8.616400	28.211548	0.000266	20.935212
2647.779087	-3.014100	2.866900	-8.639700	28.197393	0.000265	20.938030
2648.777919	-2.991400	2.866200	-8.573200	28.209902	0.000266	20.950148
2649.779748	-3.032100	2.862100	-8.676600	28.225335	0.000265	20.937239
2650.777845	-3.013700	2.861800	-8.623600	28.257650	0.000266	20.924729
2651.776298	-2.981000	2.861100	-8.528200	28.264450	0.000266	20.931575
2652.779670	-3.005100	2.857500	-8.585900	28.266649	0.000269	20.947538
2653.779679	-3.004000	2.856000	-8.578000	28.281901	0.000266	20.930653
2654.777264	-3.001300	2.854800	-8.565900	28.259607	0.000266	20.944715
2655.782286	-2.997300	2.852500	-8.549300	28.266908	0.000265	20.936895
2656.781384	-2.994100	2.851000	-8.535600	28.284467	0.000266	20.938452
2657.779521	-3.014300	2.848700	-8.586400	28.314027	0.000267	20.961574
2658.779033	-2.960800	2.846600	-8.427000	28.355394	0.000265	20.944907
2659.780672	-3.033600	2.844000	-8.626400	28.333417	0.000265	20.940322
2660.779463	-2.968500	2.844500	-8.443300	28.320201	0.000266	20.942188
2661.777452	-2.958700	2.841800	-8.406700	28.383487	0.000266	20.970821
2662.781595	-3.002000	2.839400	-8.523400	28.391937	0.000265	20.948987
2663.780793	-3.012700	2.837500	-8.547500	28.462205	0.000265	20.941510
2664.778955	-2.993300	2.833500	-8.480200	28.467431	0.000266	20.939187
2665.781991	-2.998100	2.831200	-8.487500	28.490533	0.000266	20.949648
2666.778294	-2.985900	2.829500	-8.447100	28.519012	0.000266	20.960308
2667.780635	-2.973400	2.830000	-8.412800	28.511375	0.000265	20.979641
2668.779619	-2.984500	2.826400	-8.434500	28.483648	0.000265	20.978745
2669.779272	-2.980100	2.824000	-8.414600	28.485717	0.000266	20.959495
2670.780012	-2.984300	2.822200	-8.420900	28.487596	0.000265	20.965653
2671.782245	-2.981500	2.820900	-8.409300	28.483838	0.000266	20.960447
2672.780933	-3.009700	2.816500	-8.476100	28.478887	0.000266	20.963996
2673.781891	-3.014600	2.812900	-8.479300	28.450109	0.000263	20.972947
2674.783019	-2.998600	2.812200	-8.431200	28.426799	0.000266	20.961804
2675.784405	-3.032100	2.809300	-8.517400	28.435305	0.000265	20.957568
2676.789710	-2.992200	2.807800	-8.400600	28.407528	0.000265	20.945246
2677.785871	-2.998100	2.804300	-8.406000	28.400279	0.000265	20.979667
2678.785383	-2.979000	2.804500	-8.353800	28.442554	0.000265	20.973874
2679.782560	-2.994000	2.801000	-8.384900	28.447630	0.000264	20.972821
2680.785275	-3.020700	2.797400	-8.449000	28.506537	0.000265	20.947273
2681.788008	-3.020300	2.794300	-8.438900	28.513129	0.000268	20.976192
2682.785763	-3.032000	2.792100	-8.464900	28.548596	0.000267	20.963548
2683.787228	-3.008000	2.790100	-8.391600	28.560154	0.000266	20.971869
2684.788908	-2.962700	2.788900	-8.261500	28.536359	0.000267	20.979198
2685.789211	-2.998600	2.783600	-8.345900	28.541378	0.000266	20.963866
2686.787915	-2.964200	2.782900	-8.248300	28.528066	0.000264	20.989336
2687.791440	-2.985300	2.779500	-8.296800	28.534420	0.000266	20.970607
2688.786623	-2.984700	2.777000	-8.287400	28.594273	0.000267	20.992002
2689.790267	-2.986500	2.774700	-8.285100	28.631460	0.000266	20.972560
2690.790546	-3.000300	2.770700	-8.312200	28.685386	0.000269	20.981829
2691.789903	-2.992000	2.768300	-8.281400	28.689887	0.000265	20.980198
2692.794739	-3.002000	2.765300	-8.301000	28.740726	0.000266	20.971664
2693.788420	-3.015900	2.761700	-8.328400	28.770015	0.000265	20.979828
2694.790030	-2.976700	2.759800	-8.213300	28.811048	0.000267	20.980385
2695.791517	-2.985700	2.757500	-8.231200	28.839756	0.000267	20.995077
2696.788943	-3.004200	2.754000	-8.272100	28.799566	0.000266	20.966924
2697.792423	-2.987500	2.750600	-8.216800	28.737194	0.000265	20.984225
2698.794889	-3.042300	2.746100	-8.353500	28.697419	0.000266	21.012435
2699.794848	-3.009900	2.745600	-8.263100	28.696348	0.000267	21.007564
2700.792730	-2.989700	2.742900	-8.199400	28.712923	0.000264	20.994390
2701.792441	-3.001400	2.738100	-8.217000	28.739232	0.000264	21.011878
2702.798186	-2.996100	2.735300	-8.194300	28.773521	0.000266	20.978145
2703.793439	-3.013300	2.732800	-8.232900	28.764703	0.000266	20.999604
2704.791040	-3.005500	2.730200	-8.204200	28.760031	0.000266	21.000114
2705.793463	-3.006800	2.725800	-8.195300	28.703905	0.000264	20.997160
2706.793490	-2.988200	2.722900	-8.134900	28.627746	0.000266	21.013857
2707.793375	-3.011600	2.718600	-8.185500	28.586425	0.000267	21.001166
2708.792925	-3.010400	2.715800	-8.175000	28.592333	0.000264	20.998582
2709.795603	-3.012000	2.713100	-8.170100	28.615924	0.000265	21.011909
2710.790039	-2.976900	2.708700	-8.061700	28.678692	0.000265	21.002584
2711.795182	-2.969000	2.707800	-8.038500	28.746975	0.000266	21.002136
2712.796036	-2.966300	2.703000	-8.017300	28.724985	0.000264	21.026448
2713.796456	-2.964900	2.699400	-8.002700	28.744937	0.000265	21.008142
2714.794043	-2.978900	2.695700	-8.028600	28.725037	0.000264	20.996634
2715.794697	-3.023900	2.690600	-8.134700	28.731942	0.000264	21.016862
2716.793366	-3.000000	2.688000	-8.062600	28.726082	0.000265	21.005272
2717.796114	-3.013000	2.682900	-8.082500	28.696291	0.000264	21.015092
2718.796216	-2.987000	2.680600	-8.006200	28.669908	0.000266	21.012700
2719.794134	-3.025800	2.675900	-8.095800	28.616395	0.000265	21.019020
2720.795707	-3.011100	2.672100	-8.045300	28.613203	0.000268	21.033820
2721.797288	-3.009000	2.667800	-8.025800	28.653384	0.000263	21.013601
2722.796179	-2.990100	2.664900	-7.967300	28.684765	0.000264	21.035720
2723.799123	-2.984400	2.660600	-7.938600	28.713061	0.000265	21.014914
2724.800950	-3.004000	2.655900	-7.977600	28.708013	0.000267	21.026422
2725.800913	-3.002700	2.653600	-7.967600	28.657119	0.000266	21.022103
2726.797464	-3.014200	2.648500	-7.981700	28.617523	0.000264	21.018258
2727.793528	-3.012100	2.643100	-7.960400	28.551637	0.000264	21.024921
2728.799482	-3.010000	2.639200	-7.943700	28.547115	0.000265	21.027953
2729.799563	-2.993900	2.635300	-7.889100	28.545935	0.000266	21.016810
2730.799624	-2.942400	2.631900	-7.743000	28.557891	0.000265	21.031693
2731.800470	-3.004200	2.626300	-7.888800	28.550851	0.000265	21.040722
2732.797810	-2.998300	2.622300	-7.860500	28.620689	0.000265	21.026661
2733.801643	-3.015300	2.615600	-7.885600	28.663166	0.000266	21.023452
2734.802493	-3.037000	2.611900	-7.931200	28.685685	0.000264	21.019581
2735.798815	-3.001300	2.606000	-7.820500	28.679431	0.000265	21.001905
2736.798200	-2.988400	2.601600	-7.773700	28.701349	0.000266	21.026348
2737.803794	-3.006400	2.596300	-7.804700	28.742014	0.000266	21.003776
2738.800460	-3.024700	2.591800	-7.837800	28.770965	0.000266	21.011600
2739.800006	-3.015500	2.586800	-7.798400	28.759823	0.000265	21.015075
2740.797661	-3.013900	2.580400	-7.775700	28.744346	0.000266	21.018924
2741.801600	-3.027400	2.574400	-7.793200	28.776665	0.000264	20.998378
2742.802708	-3.045100	2.570000	-7.824000	28.792234	0.000265	21.007421
2743.802417	-3.005000	2.565800	-7.708300	28.789167	0.000265	20.998170
2744.802175	-2.966500	2.561200	-7.596800	28.783653	0.000265	20.989771
2745.800627	-3.006800	2.554900	-7.681000	28.820234	0.000264	20.998644
2746.799515	-2.984700	2.548600	-7.605900	28.890891	0.000265	21.000123
2747.798419	-2.990100	2.543000	-7.602900	28.910395	0.000266	20.974257
2748.801937	-3.000400	2.536600	-7.609500	28.956859	0.000267	20.993090
2749.804109	-2.974100	2.531700	-7.529000	28.969990	0.000263	20.974553
2750.800366	-2.975600	2.524600	-7.510800	29.029550	0.000265	20.988093
2751.801419	-3.026600	2.518100	-7.620600	29.056447	0.000264	21.006655
2752.802876	-3.014300	2.512000	-7.570400	29.063532	0.000267	20.977763
2753.803141	-3.032600	2.505300	-7.595700	28.991928	0.000266	20.988593
2754.805912	-3.046700	2.500200	-7.616300	28.974692	0.000265	20.979763
2755.805583	-2.981500	2.494400	-7.436000	28.980581	0.000265	20.986170
