LabVIEW Measurement	
Writer_Version	2
Reader_Version	2
Separator	Tab
Decimal_Separator	.
Multi_Headings	No
X_Columns	One
Time_Pref	Absolute
Operator	admin
Description	Clolumns are: time, Current, Voltage, Power, Battery Temp, and Chamber Temp
Date	2024/08/16
Time	13:06:06.104549407958984375
***End_of_Header***	
	
Channels	6						
Samples	1	1	1	1	1	1	
Date	2024/09/13	2024/09/13	2024/09/13	2024/09/13	2024/09/13	2024/09/13	
Time	17:53:56.0240712165832519531	17:53:56.0295310020446777344	17:53:56.0363950729370117188	17:53:56.0050721168518066406	17:53:56.0050721168518066406	17:53:56.0050721168518066406	
X_Dimension	Time	Time	Time	Time	Time	Time	
X0	0.0000000000000000E+0	0.0000000000000000E+0	0.0000000000000000E+0	0.0000000000000000E+0	0.0000000000000000E+0	0.0000000000000000E+0	
Delta_X	1.000000	1.000000	1.000000	1.000000	1.000000	1.000000	
***End_of_Header***							
X_Value	Untitled	Untitled 1	Untitled 2	Untitled 3	Untitled 4	Untitled 5	Comment
0.000000	-0.002815	4.095700	-0.011595	21.046846	0.000931	20.846779
0.998861	-2.996000	3.916500	-11.733000	21.056026	0.000930	20.824194
2.003541	-2.993900	3.909300	-11.703000	21.070471	0.000929	20.831529
2.997114	-2.997600	3.904100	-11.701000	21.079980	0.000927	20.862376
4.002727	-2.996500	3.902300	-11.692000	21.047617	0.000926	20.838542
5.000804	-3.017000	3.896400	-11.754000	21.056702	0.000925	20.846206
6.005527	-3.020100	3.893800	-11.758000	21.062087	0.000923	20.840686
7.002369	-3.002500	3.892400	-11.687000	21.073941	0.000923	20.848276
8.002755	-3.009800	3.889600	-11.705000	21.072066	0.000923	20.851616
9.000463	-3.021300	3.886400	-11.741000	21.093249	0.000922	20.840562
10.004612	-3.004000	3.886400	-11.673000	21.081024	0.000920	20.850618
11.002959	-3.012100	3.883500	-11.697000	21.074536	0.000919	20.831328
12.006582	-3.000200	3.881700	-11.645000	21.073715	0.000920	20.825765
13.004257	-2.987600	3.880800	-11.594000	21.085569	0.000918	20.846156
14.004164	-3.005800	3.878700	-11.658000	21.098619	0.000919	20.849726
15.004897	-2.986000	3.879100	-11.582000	21.101240	0.000915	20.849029
16.008189	-2.988800	3.877300	-11.586000	21.098151	0.000916	20.834560
17.006373	-2.992900	3.876800	-11.601000	21.125790	0.000915	20.843714
18.004676	-3.011400	3.874100	-11.665000	21.100670	0.000915	20.838976
19.005734	-2.999400	3.874300	-11.619000	21.125645	0.000914	20.818914
20.006253	-3.001100	3.874200	-11.626000	21.112973	0.000915	20.820937
21.009141	-3.009200	3.870500	-11.644000	21.124427	0.000915	20.836662
22.007052	-2.987100	3.872000	-11.565000	21.139921	0.000912	20.844099
23.012353	-3.021800	3.868600	-11.689000	21.140501	0.000912	20.839938
24.008914	-3.006300	3.867700	-11.626000	21.146313	0.000912	20.832949
25.008024	-2.991500	3.869600	-11.575000	21.144172	0.000911	20.859256
26.010040	-2.986500	3.869000	-11.553000	21.148640	0.000912	20.815363
27.011239	-3.009100	3.867200	-11.636000	21.146868	0.000911	20.841565
28.009965	-2.996000	3.865900	-11.581000	21.173391	0.000911	20.842017
29.013566	-3.006600	3.865400	-11.620000	21.161469	0.000912	20.807334
30.010767	-3.012300	3.864900	-11.642000	21.177161	0.000909	20.811651
31.011643	-3.036100	3.863800	-11.730000	21.184476	0.000909	20.819442
32.012444	-3.015700	3.862200	-11.645000	21.182580	0.000910	20.815175
33.010951	-2.999400	3.862400	-11.583000	21.193984	0.000909	20.832746
34.011318	-2.971400	3.863500	-11.479000	21.218585	0.000909	20.822269
35.011928	-2.994600	3.861700	-11.562000	21.215518	0.000910	20.825365
36.011458	-3.001300	3.862300	-11.591000	21.240115	0.000908	20.815358
37.015078	-2.985500	3.861600	-11.527000	21.221382	0.000909	20.809420
38.013975	-2.989000	3.861600	-11.541000	21.213699	0.000908	20.824494
39.019164	-3.018500	3.859700	-11.648000	21.225001	0.000907	20.808299
40.012266	-2.992300	3.859500	-11.547000	21.234356	0.000908	20.843261
41.012255	-2.977800	3.860700	-11.493000	21.246209	0.000907	20.812445
42.017315	-3.008300	3.860700	-11.612000	21.255342	0.000910	20.816366
43.018487	-3.009900	3.857700	-11.609000	21.264467	0.000908	20.800839
44.014414	-2.997900	3.858300	-11.566000	21.254818	0.000909	20.816790
45.017693	-3.022900	3.857900	-11.661000	21.290266	0.000907	20.810527
46.012802	-3.009300	3.858900	-11.610000	21.280412	0.000907	20.808256
47.014227	-3.015000	3.857400	-11.629000	21.287769	0.000906	20.804710
48.019268	-2.988300	3.856600	-11.522000	21.294153	0.000908	20.810623
49.015625	-3.012600	3.854600	-11.611000	21.308025	0.000906	20.807905
50.020984	-2.999900	3.854700	-11.563000	21.315208	0.000907	20.816989
51.015518	-3.001700	3.855600	-11.570000	21.323693	0.000908	20.792761
52.015801	-3.016500	3.854200	-11.625000	21.332270	0.000908	20.804187
53.027131	-3.010100	3.853800	-11.598000	21.338431	0.000907	20.825997
54.018271	-3.003800	3.853900	-11.576000	21.361233	0.000908	20.814671
55.017834	-3.011400	3.854100	-11.604000	21.345094	0.000905	20.804689
56.017645	-2.991200	3.853500	-11.525000	21.373452	0.000908	20.802715
57.018224	-3.011100	3.851400	-11.596000	21.370531	0.000906	20.800266
58.021484	-3.019800	3.851200	-11.629000	21.370435	0.000910	20.812972
59.020257	-3.008100	3.851800	-11.586000	21.386595	0.000907	20.800217
60.020903	-2.980900	3.852300	-11.482000	21.409791	0.000907	20.797347
61.018705	-2.986200	3.853000	-11.506000	21.395942	0.000907	20.810043
62.020085	-3.002000	3.851300	-11.560000	21.407744	0.000905	20.801936
63.032961	-2.994900	3.851200	-11.532000	21.419241	0.000908	20.827664
64.020442	-3.012300	3.850400	-11.597000	21.428146	0.000908	20.810496
65.020267	-3.008300	3.849900	-11.580000	21.417689	0.000908	20.792921
66.019755	-3.000300	3.850100	-11.549000	21.446120	0.000907	20.792443
67.018797	-2.999600	3.849600	-11.546000	21.460863	0.000906	20.813833
68.019197	-3.024400	3.849700	-11.641000	21.443697	0.000907	20.797132
69.021099	-2.993400	3.850200	-11.524000	21.455845	0.000905	20.813080
70.019284	-2.990300	3.850200	-11.513000	21.483673	0.000906	20.788768
71.024124	-3.006500	3.849300	-11.571000	21.473874	0.000907	20.778962
72.019423	-2.984300	3.847900	-11.483000	21.490131	0.000909	20.792858
73.020156	-3.013800	3.845700	-11.589000	21.478832	0.000908	20.805261
74.020913	-2.982400	3.847300	-11.473000	21.506540	0.000907	20.815441
75.019986	-3.013900	3.846500	-11.591000	21.500330	0.000906	20.783623
76.018796	-2.986700	3.847600	-11.490000	21.500153	0.000906	20.802886
77.019167	-3.012400	3.846000	-11.585000	21.527160	0.000909	20.800987
78.019608	-3.010200	3.846800	-11.579000	21.533246	0.000908	20.809921
79.019215	-2.996200	3.846700	-11.524000	21.524812	0.000907	20.773033
80.021729	-2.973000	3.846500	-11.435000	21.510674	0.000908	20.797293
81.018571	-2.993600	3.844900	-11.509000	21.533964	0.000906	20.794993
82.018820	-3.012200	3.845700	-11.584000	21.519200	0.000907	20.783065
83.019938	-3.014400	3.844700	-11.589000	21.538551	0.000906	20.774926
84.020188	-3.005100	3.844500	-11.552000	21.586985	0.000910	20.779770
85.021945	-2.996600	3.844600	-11.520000	21.563742	0.000910	20.785910
86.019920	-2.987900	3.845000	-11.486000	21.572370	0.000909	20.791224
87.019728	-3.011700	3.843900	-11.576000	21.574135	0.000908	20.793465
88.020994	-2.993100	3.843700	-11.504000	21.564184	0.000909	20.789672
89.032959	-2.991800	3.844700	-11.500000	21.592240	0.000910	20.791193
90.022435	-3.007000	3.842600	-11.554000	21.595129	0.000909	20.783653
91.024588	-2.989600	3.843100	-11.488000	21.595306	0.000909	20.782407
92.020691	-2.998000	3.842400	-11.519000	21.608244	0.000910	20.788717
93.021720	-3.010300	3.842000	-11.564000	21.607721	0.000909	20.782029
94.023480	-3.008100	3.842500	-11.557000	21.639386	0.000908	20.800914
95.024207	-3.005100	3.841200	-11.542000	21.623552	0.000911	20.791233
96.028293	-3.003700	3.842400	-11.541000	21.645347	0.000910	20.770844
97.023866	-2.985300	3.843200	-11.471000	21.656938	0.000910	20.793349
98.028511	-2.992200	3.840600	-11.492000	21.668507	0.000908	20.780271
99.024150	-3.010100	3.841100	-11.561000	21.677884	0.000909	20.792500
100.024104	-3.013800	3.840300	-11.573000	21.662298	0.000908	20.772635
101.025110	-3.000400	3.840600	-11.522000	21.692766	0.000912	20.780367
102.025027	-3.034000	3.838800	-11.646000	21.700669	0.000912	20.785905
103.028804	-2.998100	3.839400	-11.510000	21.704784	0.000911	20.770109
104.025990	-2.996400	3.838900	-11.502000	21.705955	0.000913	20.801627
105.027118	-2.998500	3.838500	-11.509000	21.741085	0.000910	20.785102
106.028784	-3.005300	3.839700	-11.539000	21.749415	0.000912	20.789646
107.030841	-2.996000	3.839600	-11.503000	21.731455	0.000910	20.782577
108.028264	-2.999300	3.837900	-11.510000	21.736341	0.000913	20.783199
109.028831	-3.011100	3.838600	-11.558000	21.746739	0.000914	20.781752
110.028843	-2.970800	3.839700	-11.406000	21.749928	0.000912	20.783522
111.030678	-3.013800	3.836700	-11.560000	21.748482	0.000912	20.779704
112.034095	-3.017700	3.836100	-11.575000	21.757933	0.000912	20.797697
113.031434	-2.978400	3.838200	-11.430000	21.750501	0.000911	20.787414
114.034721	-3.000100	3.837500	-11.512000	21.769027	0.000911	20.780351
115.033143	-3.006800	3.836800	-11.535000	21.790544	0.000912	20.790033
116.032523	-2.997900	3.836200	-11.498000	21.796282	0.000913	20.772067
117.034597	-3.013000	3.835700	-11.556000	21.796031	0.000912	20.787938
118.035097	-3.018400	3.835000	-11.573000	21.786751	0.000913	20.783391
119.040818	-3.008300	3.835600	-11.538000	21.814751	0.000913	20.775380
120.033117	-3.002500	3.836900	-11.519000	21.810593	0.000915	20.782598
121.032826	-2.999300	3.835200	-11.501000	21.815005	0.000913	20.773738
122.035274	-2.980200	3.835900	-11.429000	21.819120	0.000912	20.768847
123.037005	-2.989400	3.834800	-11.463000	21.833707	0.000912	20.762110
124.035752	-2.991400	3.834700	-11.469000	21.840661	0.000913	20.786614
125.040935	-2.983200	3.835300	-11.440000	21.859288	0.000913	20.777283
126.035171	-2.978900	3.833900	-11.419000	21.862979	0.000913	20.758217
127.035378	-3.002800	3.832900	-11.509000	21.880432	0.000914	20.772368
128.038709	-2.992900	3.834200	-11.474000	21.866298	0.000914	20.759643
129.034697	-2.992200	3.833600	-11.468000	21.880187	0.000915	20.782555
130.038713	-3.006800	3.834100	-11.527000	21.886996	0.000914	20.757127
131.036393	-3.001000	3.833400	-11.503000	21.898665	0.000915	20.755057
132.037795	-3.003900	3.832400	-11.511000	21.906721	0.000916	20.764543
133.039513	-3.008100	3.832200	-11.527000	21.900712	0.000916	20.761373
134.041722	-2.997100	3.832000	-11.484000	21.882438	0.000917	20.760626
135.037925	-2.987400	3.832900	-11.449000	21.915799	0.000916	20.766517
136.038462	-2.994300	3.831000	-11.470000	21.940331	0.000916	20.759306
137.038099	-2.971500	3.832700	-11.388000	21.944796	0.000918	20.750972
138.037803	-3.009100	3.829100	-11.520000	21.946966	0.000917	20.774008
139.041682	-2.998000	3.831100	-11.484000	21.948938	0.000917	20.764128
140.038537	-2.994800	3.830500	-11.470000	21.961756	0.000920	20.757044
141.043246	-3.000100	3.829100	-11.486000	21.975068	0.000918	20.768473
142.039180	-3.001500	3.829900	-11.495000	21.979384	0.000919	20.774690
143.039793	-2.998100	3.830300	-11.482000	21.987312	0.000922	20.772670
144.041506	-2.980200	3.830500	-11.414000	22.003370	0.000922	20.770727
145.042825	-2.995200	3.830000	-11.470000	22.008810	0.000920	20.766215
146.038902	-2.997400	3.829800	-11.477000	21.997566	0.000921	20.760174
147.041019	-3.002800	3.829100	-11.497000	22.030251	0.000923	20.770609
148.041260	-2.997700	3.827900	-11.474000	22.000563	0.000923	20.755114
149.040465	-2.981900	3.828800	-11.416000	22.026738	0.000921	20.748125
150.042757	-3.011700	3.828400	-11.528000	22.038430	0.000924	20.764098
151.042106	-2.989700	3.830200	-11.450000	22.034867	0.000926	20.757686
152.045400	-2.982600	3.827800	-11.415000	22.037787	0.000924	20.774359
153.044699	-2.996200	3.828200	-11.469000	22.057032	0.000925	20.764229
154.045220	-2.977200	3.828900	-11.398000	22.063465	0.000925	20.758340
155.046555	-3.008300	3.826600	-11.511000	22.072613	0.000924	20.755644
156.045831	-2.986600	3.827500	-11.429000	22.054890	0.000925	20.762084
157.047264	-2.989800	3.826700	-11.440000	22.073786	0.000926	20.758715
158.046319	-2.964300	3.827800	-11.345000	22.084856	0.000927	20.777384
159.047321	-3.004800	3.826800	-11.497000	22.094427	0.000928	20.760414
160.046363	-2.999900	3.826400	-11.478000	22.097916	0.000929	20.776709
161.049035	-2.998800	3.826800	-11.475000	22.108357	0.000928	20.769618
162.044744	-2.988000	3.826600	-11.432000	22.100557	0.000929	20.778404
163.046626	-2.992000	3.827200	-11.450000	22.111453	0.000929	20.741896
164.046807	-3.001200	3.824700	-11.478000	22.125958	0.000930	20.764954
165.046426	-2.988900	3.826400	-11.436000	22.148044	0.000930	20.767625
166.051743	-3.018100	3.824300	-11.541000	22.134882	0.000931	20.781001
167.052247	-3.004600	3.824000	-11.488000	22.131143	0.000929	20.766352
168.048940	-2.977500	3.826800	-11.393000	22.142485	0.000930	20.755895
169.047407	-3.008900	3.824700	-11.506000	22.172993	0.000932	20.759887
170.049125	-3.021400	3.824600	-11.554000	22.178549	0.000932	20.780149
171.048801	-2.995700	3.825300	-11.457000	22.187225	0.000933	20.767498
172.048610	-2.990800	3.823000	-11.433000	22.177577	0.000933	20.791029
173.048057	-3.009100	3.823000	-11.503000	22.209929	0.000934	20.771263
174.048783	-2.984900	3.825300	-11.417000	22.212745	0.000934	20.772661
175.047940	-3.007400	3.822500	-11.494000	22.213216	0.000935	20.754165
176.048873	-3.017800	3.822700	-11.535000	22.229069	0.000936	20.766246
177.049140	-2.986400	3.822300	-11.414000	22.236668	0.000935	20.761052
178.049640	-3.011000	3.822500	-11.508000	22.229561	0.000935	20.792343
179.050702	-3.007700	3.821400	-11.492000	22.235717	0.000937	20.787127
180.048635	-2.988800	3.822100	-11.422000	22.228815	0.000935	20.758879
181.049617	-3.005700	3.820600	-11.483000	22.242146	0.000937	20.782184
182.055812	-2.995400	3.820600	-11.442000	22.250818	0.000938	20.776643
183.051100	-2.990400	3.822500	-11.429000	22.265350	0.000938	20.776494
184.056681	-2.993000	3.820400	-11.434000	22.241818	0.000941	20.772372
185.050100	-2.985600	3.821700	-11.409000	22.245783	0.000939	20.769230
186.050571	-2.979000	3.821300	-11.382000	22.272521	0.000940	20.770398
187.051788	-3.004400	3.819500	-11.474000	22.276684	0.000941	20.766980
188.054093	-2.985400	3.820000	-11.403000	22.298810	0.000938	20.769220
189.049960	-3.001700	3.819800	-11.464000	22.281738	0.000941	20.773937
190.051384	-2.992500	3.820400	-11.432000	22.311376	0.000940	20.770423
191.052494	-2.991100	3.820600	-11.427000	22.310199	0.000943	20.790582
192.053163	-3.009900	3.817000	-11.488000	22.350576	0.000943	20.769846
193.055096	-3.008400	3.818500	-11.486000	22.372431	0.000943	20.776559
194.053086	-3.009100	3.818400	-11.489000	22.389972	0.000942	20.783219
195.069226	-3.030200	3.817000	-11.565000	22.373103	0.000945	20.767748
196.053322	-2.992900	3.817300	-11.423000	22.362135	0.000943	20.767670
197.054611	-2.997100	3.816600	-11.438000	22.374693	0.000946	20.778350
198.054927	-2.990000	3.818700	-11.416000	22.376714	0.000944	20.769942
199.055681	-3.005800	3.815500	-11.467000	22.390665	0.000946	20.773007
200.054393	-3.030300	3.815400	-11.560000	22.421817	0.000948	20.769589
201.057220	-3.001400	3.815800	-11.452000	22.424806	0.000948	20.791549
202.056283	-3.002700	3.816600	-11.459000	22.414767	0.000948	20.791453
203.056647	-3.011900	3.815500	-11.490000	22.428844	0.000949	20.774256
204.058274	-3.019600	3.816600	-11.524000	22.442721	0.000948	20.807118
205.055748	-3.000300	3.815400	-11.446000	22.479997	0.000949	20.792292
206.058002	-3.020600	3.814900	-11.521000	22.467734	0.000948	20.807986
207.055533	-3.013400	3.815100	-11.496000	22.456299	0.000950	20.780414
208.059532	-2.983300	3.815800	-11.382000	22.477924	0.000950	20.773146
209.058533	-3.002700	3.814200	-11.452000	22.483082	0.000949	20.809606
210.057629	-3.001600	3.813400	-11.445000	22.520930	0.000949	20.769749
211.062622	-2.998500	3.814600	-11.438000	22.516496	0.000952	20.782378
212.056624	-2.993400	3.813300	-11.413000	22.525662	0.000951	20.782074
213.057416	-2.983100	3.815300	-11.380000	22.525312	0.000952	20.798794
214.058453	-3.010000	3.815100	-11.482000	22.555961	0.000952	20.780178
215.058954	-3.020000	3.814200	-11.518000	22.527503	0.000952	20.791031
216.057507	-2.995200	3.813700	-11.422000	22.530318	0.000952	20.804756
217.057119	-2.984600	3.814500	-11.383000	22.529071	0.000952	20.773635
218.065168	-2.987200	3.814100	-11.393000	22.557378	0.000952	20.804356
219.060389	-2.977700	3.813200	-11.354000	22.536024	0.000951	20.784392
220.061177	-2.990500	3.812600	-11.401000	22.540882	0.000952	20.786887
221.059047	-2.997100	3.813700	-11.429000	22.546486	0.000953	20.815733
222.061292	-3.008900	3.811600	-11.466000	22.531739	0.000952	20.803334
223.071371	-2.996300	3.811400	-11.419000	22.548334	0.000953	20.821850
224.065780	-2.992900	3.811400	-11.406000	22.551570	0.000955	20.793324
225.065171	-3.000500	3.811600	-11.434000	22.546638	0.000954	20.796919
226.063482	-2.970800	3.812400	-11.324000	22.555983	0.000955	20.791579
227.061182	-3.003800	3.810400	-11.445000	22.575316	0.000956	20.793872
228.069101	-2.995100	3.811600	-11.416000	22.592436	0.000956	20.798217
229.060917	-3.002200	3.810600	-11.438000	22.589221	0.000958	20.817757
230.061106	-3.034100	3.808400	-11.552000	22.616378	0.000959	20.793748
231.062510	-2.989700	3.809400	-11.388000	22.606066	0.000959	20.798592
232.061136	-3.013300	3.807900	-11.473000	22.613566	0.000959	20.805156
233.062852	-3.012600	3.809000	-11.473000	22.646032	0.000957	20.802113
234.061695	-2.987000	3.809600	-11.378000	22.630061	0.000960	20.797021
235.062413	-2.999000	3.808000	-11.419000	22.635840	0.000958	20.800913
236.064265	-2.998100	3.807700	-11.415000	22.619176	0.000961	20.800343
237.061823	-2.989900	3.807500	-11.383000	22.612746	0.000961	20.820456
238.064085	-2.993800	3.808400	-11.401000	22.632954	0.000962	20.792332
239.065295	-2.999600	3.807600	-11.420000	22.625503	0.000960	20.804310
240.062636	-2.986700	3.807800	-11.372000	22.645633	0.000964	20.812144
241.061942	-2.988300	3.807400	-11.377000	22.649324	0.000964	20.821531
242.067132	-2.983900	3.807900	-11.362000	22.653854	0.000964	20.822749
243.063385	-3.012700	3.805800	-11.465000	22.675657	0.000965	20.811398
244.073117	-3.011000	3.806500	-11.460000	22.649272	0.000966	20.820056
245.062497	-2.994200	3.806400	-11.396000	22.649992	0.000964	20.810821
246.063261	-2.997800	3.804200	-11.403000	22.667207	0.000963	20.802460
247.066441	-2.991700	3.806400	-11.387000	22.661629	0.000966	20.808726
248.064557	-3.008900	3.805100	-11.448000	22.690332	0.000967	20.813294
249.069385	-2.986900	3.806400	-11.368000	22.724067	0.000964	20.811050
250.065197	-3.007300	3.803600	-11.437000	22.729874	0.000969	20.809281
251.066647	-2.994300	3.804900	-11.391000	22.723449	0.000968	20.815646
252.067389	-3.006800	3.804000	-11.437000	22.748836	0.000969	20.812154
253.066575	-2.999700	3.804900	-11.413000	22.750507	0.000972	20.820940
254.067211	-2.987100	3.803800	-11.361000	22.756636	0.000971	20.835613
255.068066	-2.999500	3.803300	-11.407000	22.774449	0.000971	20.827853
256.068126	-2.994700	3.804000	-11.391000	22.803301	0.000972	20.823565
257.065947	-3.011800	3.801900	-11.449000	22.774283	0.000971	20.823893
258.067930	-2.976400	3.804000	-11.320000	22.786317	0.000971	20.816508
259.065909	-2.993800	3.803100	-11.384000	22.792774	0.000972	20.806381
260.067152	-2.984800	3.803500	-11.352000	22.786221	0.000971	20.811671
261.067655	-3.006300	3.802100	-11.430000	22.812731	0.000972	20.830166
262.069531	-3.003700	3.802200	-11.419000	22.820755	0.000973	20.823032
263.070802	-2.999700	3.802200	-11.405000	22.833114	0.000974	20.813128
264.069377	-2.982100	3.802300	-11.338000	22.842506	0.000976	20.817795
265.071179	-3.006100	3.800400	-11.423000	22.846116	0.000973	20.829472
266.070796	-3.006600	3.802200	-11.429000	22.836455	0.000977	20.811734
267.069772	-2.996400	3.802900	-11.394000	22.875912	0.000977	20.820442
268.073586	-3.011400	3.800600	-11.444000	22.861618	0.000976	20.827458
269.073972	-3.014700	3.800900	-11.456000	22.881867	0.000976	20.823088
270.071542	-3.027200	3.799200	-11.500000	22.908848	0.000978	20.806496
271.073750	-3.020800	3.799100	-11.475000	22.915229	0.000979	20.823321
272.072571	-3.003500	3.799100	-11.410000	22.952466	0.000978	20.827911
273.071601	-2.992400	3.801500	-11.374000	22.932839	0.000980	20.810618
274.072691	-3.027800	3.798800	-11.501000	22.917747	0.000982	20.830111
275.072463	-3.009900	3.800100	-11.437000	22.941933	0.000982	20.816885
276.077900	-3.019600	3.798000	-11.467000	22.941287	0.000981	20.837573
277.075588	-3.002200	3.798600	-11.403000	22.944501	0.000981	20.809500
278.073118	-3.007500	3.798500	-11.422000	22.970279	0.000983	20.822051
279.074431	-2.968900	3.799700	-11.279000	22.972373	0.000981	20.844063
280.074146	-2.987600	3.799000	-11.349000	22.973196	0.000983	20.819758
281.072724	-2.996000	3.797700	-11.377000	22.981090	0.000983	20.821028
282.073749	-2.989100	3.798300	-11.352000	23.000493	0.000985	20.832882
283.079646	-3.005800	3.796500	-11.410000	23.025073	0.000987	20.827638
284.074597	-2.988400	3.796500	-11.344000	23.027093	0.000985	20.831558
285.078328	-3.008200	3.796900	-11.421000	23.016555	0.000987	20.813414
286.075185	-3.013600	3.794900	-11.435000	23.015732	0.000987	20.840089
287.075533	-3.017800	3.794500	-11.449000	22.994758	0.000987	20.838041
288.075228	-2.984300	3.797200	-11.331000	22.995831	0.000987	20.832953
289.076951	-3.028500	3.794100	-11.489000	23.017099	0.000988	20.815381
290.078700	-3.022400	3.793200	-11.464000	23.043525	0.000987	20.854186
291.075618	-3.005300	3.796200	-11.408000	23.059039	0.000988	20.840334
292.079013	-3.000400	3.794600	-11.383000	23.030572	0.000989	20.817501
293.078580	-2.989400	3.793600	-11.339000	23.036049	0.000989	20.835791
294.077939	-2.963700	3.795200	-11.247000	23.031988	0.000991	20.845946
295.082700	-3.011800	3.792800	-11.422000	23.025929	0.000991	20.837030
296.078938	-3.001000	3.794100	-11.385000	23.041075	0.000990	20.828973
297.081241	-2.998500	3.794700	-11.376000	23.037982	0.000991	20.834408
298.079268	-3.011200	3.792900	-11.421000	23.058030	0.000993	20.844065
299.081262	-3.007800	3.793100	-11.409000	23.065079	0.000994	20.845912
300.083809	-2.998800	3.792100	-11.371000	23.067420	0.000993	20.854421
301.082653	-2.990000	3.791800	-11.337000	23.068936	0.000993	20.839819
302.082191	-2.986700	3.793300	-11.327000	23.103006	0.000996	20.833655
303.083933	-3.000100	3.792100	-11.376000	23.092296	0.000995	20.855165
304.083778	-3.006100	3.792100	-11.397000	23.104794	0.000995	20.845403
305.084385	-3.007600	3.790900	-11.401000	23.105987	0.000997	20.843280
306.085812	-2.995900	3.791600	-11.359000	23.111440	0.000996	20.858700
307.083561	-2.997300	3.790900	-11.361000	23.107954	0.000997	20.846673
308.084952	-3.003200	3.791400	-11.385000	23.098138	0.000995	20.851061
309.084241	-3.007700	3.789900	-11.398000	23.113206	0.000998	20.839134
310.083889	-3.014000	3.789500	-11.420000	23.102916	0.000997	20.845892
311.089318	-2.995800	3.789700	-11.353000	23.109615	0.000997	20.875837
312.083674	-3.010000	3.788000	-11.401000	23.083014	0.000999	20.864829
313.086238	-2.993800	3.789800	-11.345000	23.075541	0.000999	20.828420
314.085408	-3.017400	3.790200	-11.435000	23.081665	0.001002	20.861108
315.087430	-3.000100	3.788600	-11.365000	23.121262	0.001001	20.854792
316.086658	-3.003700	3.789400	-11.381000	23.136926	0.001002	20.850574
317.089817	-3.010500	3.787100	-11.400000	23.165536	0.001002	20.856010
318.088238	-2.984000	3.788600	-11.305000	23.158637	0.001001	20.857630
319.088194	-2.977900	3.787800	-11.278000	23.173524	0.001002	20.866859
320.088414	-2.981300	3.787800	-11.292000	23.208958	0.001003	20.864909
321.087852	-2.991900	3.788200	-11.333000	23.213016	0.001003	20.864708
322.090780	-3.018200	3.787000	-11.428000	23.199817	0.001003	20.879930
323.087333	-2.990500	3.786700	-11.324000	23.227627	0.001006	20.867971
324.097044	-3.016200	3.786200	-11.418000	23.217886	0.001005	20.877174
325.089095	-3.007700	3.785600	-11.385000	23.226202	0.001006	20.885981
326.087133	-3.002400	3.785800	-11.365000	23.225228	0.001005	20.864618
327.091293	-3.001100	3.786200	-11.363000	23.225224	0.001006	20.887847
328.091442	-2.980100	3.786700	-11.284000	23.224999	0.001007	20.886198
329.090840	-2.991300	3.786500	-11.324000	23.198598	0.001008	20.877760
330.090826	-2.985700	3.785300	-11.300000	23.241775	0.001007	20.890208
331.090805	-2.970500	3.786100	-11.245000	23.220007	0.001008	20.884041
332.091346	-2.983300	3.783800	-11.287000	23.195128	0.001009	20.888032
333.092431	-3.003400	3.784700	-11.366000	23.196421	0.001010	20.870837
334.091442	-3.004300	3.783400	-11.365000	23.176097	0.001008	20.891720
335.090906	-2.993300	3.784100	-11.326000	23.178562	0.001012	20.897034
336.091741	-2.998400	3.783800	-11.344000	23.217703	0.001010	20.879836
337.091250	-2.994900	3.782700	-11.327000	23.216457	0.001012	20.886173
338.095087	-2.997600	3.783200	-11.339000	23.237523	0.001011	20.895903
339.092673	-2.987600	3.783800	-11.303000	23.263298	0.001008	20.896130
340.093550	-3.007800	3.782300	-11.375000	23.272754	0.001011	20.893753
341.092484	-3.009300	3.781600	-11.379000	23.273054	0.001011	20.885993
342.092822	-3.016500	3.780800	-11.403000	23.266031	0.001010	20.910247
343.094501	-3.002500	3.782100	-11.354000	23.278428	0.001012	20.908921
344.093681	-3.005700	3.781700	-11.366000	23.278577	0.001013	20.904329
345.092500	-3.012500	3.780600	-11.387000	23.308831	0.001012	20.900037
346.094175	-2.995600	3.780400	-11.324000	23.308157	0.001014	20.887983
347.092815	-2.995800	3.780400	-11.325000	23.340597	0.001014	20.914803
348.094459	-2.981700	3.780600	-11.270000	23.341645	0.001014	20.904475
349.096138	-2.975700	3.780300	-11.248000	23.317165	0.001015	20.911233
350.096980	-3.006500	3.779100	-11.362000	23.347765	0.001014	20.891168
351.097174	-2.980500	3.780000	-11.265000	23.382074	0.001018	20.916070
352.094123	-2.994400	3.779400	-11.315000	23.367981	0.001015	20.908109
353.096717	-2.994200	3.778500	-11.312000	23.375377	0.001017	20.908884
354.101078	-3.004300	3.777400	-11.346000	23.404933	0.001017	20.896309
355.096306	-3.005500	3.777000	-11.351000	23.406748	0.001014	20.908559
356.096192	-3.000200	3.776400	-11.328000	23.393898	0.001017	20.894258
357.096062	-3.019400	3.776500	-11.402000	23.396711	0.001019	20.927421
358.095391	-2.994000	3.776600	-11.307000	23.411577	0.001016	20.907236
359.100286	-2.996000	3.777100	-11.314000	23.396436	0.001017	20.901069
360.097407	-3.002400	3.775300	-11.334000	23.428555	0.001017	20.906709
361.101398	-3.001900	3.776400	-11.335000	23.440833	0.001017	20.919488
362.098555	-2.992800	3.775200	-11.297000	23.442277	0.001017	20.888222
363.099567	-3.006600	3.774400	-11.347000	23.429180	0.001018	20.912076
364.108252	-3.018100	3.775000	-11.392000	23.428781	0.001019	20.921632
365.102812	-3.009500	3.774400	-11.358000	23.449997	0.001019	20.914924
366.100151	-3.009000	3.774300	-11.356000	23.453308	0.001020	20.914449
367.099805	-2.986700	3.773500	-11.269000	23.475365	0.001021	20.928496
368.098465	-2.993900	3.774000	-11.297000	23.441157	0.001020	20.927399
369.099690	-3.001100	3.773200	-11.322000	23.433143	0.001021	20.908937
370.102501	-3.006400	3.772800	-11.340000	23.426372	0.001019	20.897409
371.100846	-3.006700	3.772800	-11.342000	23.443275	0.001021	20.928099
372.102383	-2.989800	3.772600	-11.278000	23.421094	0.001019	20.922937
373.101376	-3.025100	3.770900	-11.406000	23.424557	0.001022	20.929726
374.103330	-3.013800	3.771800	-11.365000	23.427596	0.001021	20.932772
375.107812	-3.004900	3.771700	-11.333000	23.426848	0.001020	20.927755
376.103601	-2.995300	3.770500	-11.292000	23.450278	0.001020	20.929903
377.103942	-3.013600	3.771400	-11.364000	23.461783	0.001021	20.924839
378.103502	-3.015600	3.771900	-11.373000	23.496614	0.001022	20.927036
379.103899	-2.980300	3.772900	-11.243000	23.486807	0.001024	20.909147
380.103595	-3.005700	3.770900	-11.333000	23.502417	0.001021	20.919578
381.107402	-2.992000	3.770100	-11.279000	23.525997	0.001023	20.941315
382.107131	-3.012400	3.769800	-11.356000	23.515915	0.001025	20.924099
383.104718	-3.011700	3.768800	-11.348000	23.504093	0.001022	20.937377
384.106059	-3.007900	3.770700	-11.341000	23.478252	0.001022	20.913374
385.105402	-3.005100	3.768800	-11.324000	23.490777	0.001022	20.921660
386.107590	-3.001800	3.768100	-11.310000	23.506189	0.001023	20.939478
387.105498	-2.996000	3.767500	-11.285000	23.524392	0.001024	20.920743
388.105498	-3.011100	3.768400	-11.346000	23.524618	0.001026	20.923340
389.106086	-2.994400	3.768200	-11.283000	23.512450	0.001025	20.924418
390.104908	-2.994100	3.768100	-11.281000	23.519022	0.001026	20.926265
391.108532	-2.992800	3.768700	-11.277000	23.539390	0.001026	20.920129
392.108871	-3.012600	3.765900	-11.344000	23.554106	0.001028	20.941991
393.106715	-2.984100	3.767100	-11.240000	23.553160	0.001028	20.914967
394.110685	-2.981300	3.766800	-11.228000	23.564314	0.001029	20.909079
395.107703	-2.993700	3.767000	-11.276000	23.579428	0.001029	20.918066
396.108933	-2.995400	3.766100	-11.279000	23.605439	0.001029	20.939397
397.111999	-2.978600	3.765800	-11.215000	23.601686	0.001029	20.917145
398.109766	-2.987400	3.766400	-11.250000	23.637682	0.001029	20.891593
399.110371	-3.008600	3.764300	-11.325000	23.636912	0.001029	20.929224
400.110084	-3.006500	3.765400	-11.320000	23.648634	0.001029	20.922485
401.111632	-2.991000	3.763900	-11.256000	23.658817	0.001031	20.903771
402.114032	-2.986000	3.764800	-11.241000	23.660433	0.001031	20.891169
403.116055	-2.996300	3.764700	-11.279000	23.665290	0.001032	20.899830
404.114034	-2.983800	3.763800	-11.229000	23.659688	0.001030	20.907964
405.113103	-2.992800	3.764700	-11.266000	23.676365	0.001030	20.897657
406.113158	-2.984500	3.763300	-11.230000	23.671837	0.001029	20.909712
407.116681	-2.999500	3.763800	-11.289000	23.664644	0.001031	20.886381
408.118936	-2.971400	3.763500	-11.182000	23.668254	0.001029	20.901853
409.114044	-3.001900	3.762800	-11.294000	23.659942	0.001031	20.896365
410.113911	-3.001300	3.761900	-11.290000	23.676171	0.001031	20.910263
411.115061	-3.007600	3.761900	-11.312000	23.679435	0.001030	20.870391
412.114009	-2.998400	3.762600	-11.280000	23.672684	0.001032	20.897286
413.116999	-2.984400	3.762400	-11.227000	23.698872	0.001033	20.872334
414.116273	-2.987300	3.761100	-11.235000	23.698279	0.001032	20.899712
415.120956	-3.010900	3.759800	-11.319000	23.709057	0.001032	20.908621
416.117069	-3.001200	3.759900	-11.282000	23.692532	0.001031	20.892055
417.117336	-3.007200	3.759400	-11.305000	23.686835	0.001030	20.885396
418.119717	-3.004000	3.758700	-11.290000	23.659330	0.001031	20.896700
419.119226	-2.986900	3.759500	-11.229000	23.658582	0.001030	20.892632
420.120764	-2.988700	3.759200	-11.234000	23.667797	0.001030	20.869629
421.121184	-3.018200	3.758000	-11.341000	23.671608	0.001033	20.874398
422.136212	-3.012800	3.758900	-11.322000	23.684431	0.001032	20.875873
423.122144	-2.991100	3.758500	-11.241000	23.691228	0.001031	20.874628
424.127542	-3.027200	3.757200	-11.373000	23.709951	0.001033	20.881544
425.122549	-3.008200	3.756400	-11.298000	23.731635	0.001034	20.864879
426.124079	-2.992600	3.757700	-11.244000	23.746193	0.001035	20.873311
427.124726	-2.988300	3.757100	-11.226000	23.752641	0.001032	20.875982
428.122398	-3.008200	3.755900	-11.298000	23.759540	0.001033	20.890959
429.127963	-2.990200	3.758000	-11.235000	23.769323	0.001036	20.877535
430.123489	-2.988900	3.755300	-11.223000	23.766016	0.001035	20.850987
431.125834	-2.961300	3.757400	-11.125000	23.791701	0.001032	20.881006
432.123574	-2.980600	3.756500	-11.195000	23.801586	0.001032	20.882382
433.124704	-2.989000	3.755300	-11.224000	23.801092	0.001036	20.879515
434.128305	-2.969500	3.755600	-11.151000	23.820956	0.001036	20.861502
435.129368	-3.009300	3.754200	-11.296000	23.817247	0.001035	20.875326
436.125695	-2.988300	3.754200	-11.218000	23.794824	0.001036	20.878920
437.125211	-2.989100	3.754100	-11.221000	23.811131	0.001036	20.881995
438.125220	-2.992300	3.754200	-11.232000	23.790870	0.001038	20.865001
439.126778	-3.007000	3.752600	-11.282000	23.810513	0.001036	20.857669
440.129506	-2.987400	3.754000	-11.214000	23.798620	0.001036	20.870873
441.126183	-3.009300	3.752300	-11.291000	23.792923	0.001039	20.871800
442.130301	-3.006500	3.752600	-11.279000	23.821971	0.001038	20.856830
443.129345	-2.988600	3.752800	-11.214000	23.802805	0.001036	20.864165
444.129727	-2.989300	3.751900	-11.213000	23.815851	0.001038	20.842159
445.130774	-3.004100	3.751100	-11.268000	23.787258	0.001037	20.856164
446.128069	-2.997200	3.751300	-11.243000	23.790244	0.001040	20.841614
447.127722	-2.989800	3.752300	-11.217000	23.814164	0.001039	20.869864
448.128654	-2.991900	3.750400	-11.220000	23.796271	0.001039	20.846709
449.131303	-3.014700	3.749300	-11.302000	23.829300	0.001039	20.863703
450.130660	-2.998500	3.749700	-11.242000	23.834826	0.001037	20.868770
451.131979	-3.010100	3.748400	-11.282000	23.834826	0.001040	20.855020
452.137750	-2.982900	3.749900	-11.184000	23.861360	0.001039	20.851754
453.134177	-2.993000	3.749500	-11.221000	23.827887	0.001040	20.841900
454.131771	-3.023600	3.748900	-11.333000	23.860661	0.001039	20.843942
455.131447	-2.981700	3.748400	-11.176000	23.850660	0.001039	20.843397
456.135863	-2.980400	3.748900	-11.172000	23.851309	0.001039	20.837884
457.132140	-2.989000	3.747300	-11.200000	23.837271	0.001040	20.845619
458.134251	-2.977300	3.747800	-11.157000	23.824754	0.001040	20.841603
459.130671	-2.996500	3.746000	-11.224000	23.825724	0.001041	20.839257
460.132296	-2.986700	3.746400	-11.188000	23.808283	0.001040	20.844528
461.132393	-2.983000	3.746400	-11.175000	23.819707	0.001039	20.828956
462.136791	-2.980900	3.747600	-11.169000	23.831557	0.001043	20.826613
463.132964	-2.975600	3.747300	-11.148000	23.823119	0.001042	20.823843
464.133254	-3.000200	3.745700	-11.236000	23.846093	0.001041	20.841188
465.132045	-3.003600	3.745700	-11.249000	23.832626	0.001041	20.812039
466.132028	-2.997900	3.745800	-11.227000	23.854206	0.001040	20.841736
467.137207	-3.011600	3.743600	-11.273000	23.890641	0.001041	20.832278
468.132515	-2.988900	3.745000	-11.191000	23.894350	0.001041	20.840264
469.133123	-2.990500	3.745100	-11.197000	23.919908	0.001042	20.827013
470.132977	-2.995300	3.743000	-11.211000	23.932128	0.001040	20.835473
471.133445	-3.019900	3.743500	-11.304000	23.949725	0.001040	20.856912
472.136024	-3.001500	3.743800	-11.236000	23.943303	0.001040	20.828188
473.136287	-2.985100	3.743200	-11.173000	23.946712	0.001042	20.828287
474.133572	-3.012000	3.741700	-11.269000	23.963635	0.001040	20.829136
475.134234	-3.006100	3.741500	-11.246000	23.998997	0.001041	20.825718
476.135541	-2.984900	3.742900	-11.171000	23.990836	0.001043	20.812792
477.134877	-2.985900	3.741600	-11.171000	23.985512	0.001040	20.827367
478.138738	-2.992800	3.741700	-11.197000	23.979890	0.001043	20.829790
479.136317	-3.005500	3.741300	-11.243000	23.981609	0.001041	20.812074
480.138789	-2.997600	3.740500	-11.211000	23.960903	0.001043	20.842518
481.135858	-2.971400	3.741500	-11.115000	23.961351	0.001042	20.826846
482.137136	-2.981400	3.740900	-11.152000	23.977459	0.001040	20.818343
483.143484	-3.011800	3.737800	-11.256000	23.950854	0.001040	20.807785
484.137408	-3.011000	3.739100	-11.257000	23.971337	0.001041	20.813152
485.141582	-2.998200	3.738200	-11.205000	23.977215	0.001042	20.848918
486.139281	-2.998000	3.739800	-11.211000	24.007253	0.001042	20.806496
487.139916	-2.983400	3.739500	-11.155000	24.000535	0.001041	20.826785
488.139603	-2.988500	3.738900	-11.172000	23.999914	0.001043	20.819999
489.143398	-2.999900	3.739000	-11.216000	24.011091	0.001041	20.831208
490.142766	-2.996700	3.737200	-11.199000	24.010396	0.001043	20.833830
491.142958	-3.004700	3.737000	-11.228000	24.017414	0.001042	20.830911
492.141788	-3.011600	3.737100	-11.253000	24.032494	0.001042	20.819007
493.141836	-3.010600	3.737200	-11.250000	24.019806	0.001042	20.808654
494.144783	-2.990700	3.737200	-11.176000	24.010474	0.001044	20.810200
495.142175	-3.005100	3.735900	-11.225000	24.017216	0.001045	20.808902
496.154258	-2.996900	3.735700	-11.194000	24.027572	0.001044	20.803166
497.141965	-2.988500	3.735000	-11.161000	23.996741	0.001044	20.820610
498.142350	-3.016900	3.734200	-11.265000	24.026475	0.001044	20.811548
499.142865	-3.011300	3.734400	-11.243000	24.041456	0.001044	20.832262
500.142385	-2.980300	3.734500	-11.129000	24.042998	0.001043	20.813420
501.141875	-2.981600	3.734300	-11.134000	24.044639	0.001044	20.805109
502.141315	-2.986700	3.732500	-11.147000	24.051141	0.001044	20.818742
503.142921	-2.988000	3.733700	-11.155000	24.041308	0.001042	20.816467
504.142532	-2.985600	3.733400	-11.146000	24.058653	0.001043	20.800197
505.143087	-3.003600	3.732000	-11.209000	24.045714	0.001044	20.801446
506.142531	-3.000700	3.731200	-11.196000	24.048505	0.001043	20.802822
507.142359	-3.009200	3.732100	-11.230000	24.051787	0.001041	20.795682
508.142454	-3.006600	3.731000	-11.217000	24.053381	0.001041	20.798703
509.143004	-2.990300	3.732800	-11.161000	24.076322	0.001041	20.805115
510.147781	-3.006400	3.729500	-11.210000	24.084885	0.001043	20.819393
511.151588	-2.979200	3.732000	-11.118000	24.092350	0.001041	20.807914
512.146576	-2.960800	3.730900	-11.045000	24.102208	0.001043	20.820171
513.144674	-3.000500	3.728700	-11.187000	24.111437	0.001042	20.811410
514.148809	-2.987200	3.730500	-11.142000	24.154091	0.001044	20.819102
515.146679	-2.998400	3.729900	-11.183000	24.155131	0.001044	20.804025
516.146395	-3.014700	3.728800	-11.239000	24.164964	0.001040	20.808671
517.145245	-3.003200	3.729300	-11.197000	24.175889	0.001041	20.817732
518.146435	-3.001800	3.728800	-11.192000	24.180768	0.001043	20.815514
519.145185	-3.027200	3.726900	-11.279000	24.189824	0.001041	20.815588
520.145104	-3.021800	3.727600	-11.262000	24.192138	0.001045	20.812694
521.150017	-2.996000	3.727100	-11.165000	24.195154	0.001043	20.801968
522.145805	-3.001400	3.726400	-11.182000	24.163982	0.001042	20.809583
523.147980	-3.005600	3.726900	-11.201000	24.173462	0.001040	20.807711
524.146640	-3.030800	3.725300	-11.288000	24.172918	0.001040	20.774449
525.146057	-3.001900	3.726600	-11.186000	24.160976	0.001043	20.803249
526.149030	-2.984800	3.726300	-11.121000	24.188546	0.001043	20.792970
527.146791	-3.012700	3.725200	-11.222000	24.163643	0.001043	20.790277
528.146474	-3.018900	3.724800	-11.244000	24.173348	0.001042	20.807123
529.146509	-2.986700	3.724500	-11.122000	24.206319	0.001042	20.793727
530.146015	-2.993000	3.723500	-11.143000	24.225852	0.001045	20.791982
531.148022	-3.008100	3.723900	-11.201000	24.215953	0.001041	20.803864
532.149993	-2.970100	3.723800	-11.058000	24.230685	0.001043	20.802519
533.147922	-2.991700	3.723500	-11.139000	24.233250	0.001043	20.769530
534.148453	-3.003400	3.722400	-11.179000	24.276442	0.001041	20.782983
535.148042	-3.000300	3.723000	-11.169000	24.270748	0.001042	20.795764
536.149045	-2.988400	3.723800	-11.127000	24.263012	0.001043	20.790375
537.151248	-3.004900	3.721300	-11.181000	24.222511	0.001041	20.782466
538.150937	-2.998900	3.722600	-11.163000	24.249857	0.001042	20.800888
539.150565	-2.990100	3.722300	-11.129000	24.244090	0.001042	20.781826
540.150259	-3.021600	3.721200	-11.242000	24.244689	0.001042	20.774366
541.150103	-2.998000	3.721800	-11.157000	24.223220	0.001041	20.790290
542.153459	-2.971300	3.720900	-11.055000	24.230688	0.001040	20.787349
543.154968	-3.013700	3.720900	-11.213000	24.213374	0.001041	20.787526
544.152919	-3.018700	3.720700	-11.231000	24.170976	0.001041	20.782933
545.152542	-3.013000	3.720900	-11.210000	24.175859	0.001042	20.795417
546.152021	-3.010400	3.719200	-11.195000	24.189095	0.001042	20.784985
547.152510	-3.008000	3.719800	-11.188000	24.176035	0.001043	20.797490
548.151988	-3.032400	3.717900	-11.272000	24.186534	0.001041	20.760605
549.157311	-3.002700	3.718200	-11.164000	24.201044	0.001041	20.777529
550.157177	-2.991800	3.719300	-11.127000	24.182632	0.001044	20.775658
551.154755	-2.977500	3.719600	-11.074000	24.218855	0.001043	20.784964
552.155360	-2.991200	3.718100	-11.122000	24.241401	0.001044	20.792405
553.157497	-2.992800	3.717700	-11.126000	24.232592	0.001044	20.766974
554.155395	-2.988000	3.717100	-11.106000	24.222270	0.001043	20.765629
555.155754	-3.010200	3.716800	-11.186000	24.175714	0.001043	20.774883
556.155775	-2.999800	3.717800	-11.152000	24.187038	0.001042	20.771542
557.155178	-3.010900	3.715300	-11.185000	24.165091	0.001043	20.764228
558.159632	-3.009700	3.715300	-11.181000	24.140385	0.001043	20.774536
559.155972	-3.013800	3.716500	-11.199000	24.173403	0.001043	20.780626
560.156717	-2.999500	3.714900	-11.142000	24.140555	0.001044	20.771387
561.156547	-2.985400	3.714800	-11.090000	24.137072	0.001044	20.770739
562.156518	-2.980100	3.715000	-11.069000	24.156628	0.001042	20.761429
563.158058	-3.010700	3.713600	-11.179000	24.184488	0.001041	20.777045
564.157332	-2.998300	3.713200	-11.132000	24.172698	0.001042	20.773280
565.157751	-3.002000	3.712700	-11.144000	24.188196	0.001044	20.776022
566.158314	-2.981200	3.714700	-11.073000	24.206431	0.001044	20.768708
567.158071	-3.002600	3.713800	-11.149000	24.205535	0.001042	20.777293
568.159236	-3.022300	3.712200	-11.218000	24.202148	0.001041	20.778163
569.158381	-3.010600	3.712300	-11.176000	24.220164	0.001041	20.789122
570.159486	-2.984100	3.712400	-11.078000	24.223195	0.001041	20.772247
571.161105	-2.988500	3.711500	-11.092000	24.264719	0.001042	20.783078
572.162385	-3.001900	3.710800	-11.138000	24.307885	0.001039	20.751935
573.161866	-3.003800	3.712200	-11.150000	24.305120	0.001041	20.771447
574.163150	-3.021200	3.710500	-11.209000	24.324873	0.001040	20.752381
575.161472	-3.004000	3.710900	-11.146000	24.312136	0.001041	20.762364
576.159724	-2.991600	3.711300	-11.102000	24.317684	0.001043	20.766507
577.161245	-3.002700	3.711500	-11.143000	24.321812	0.001038	20.764957
578.161338	-3.010400	3.711100	-11.170000	24.328856	0.001040	20.776291
579.163065	-3.012800	3.709100	-11.174000	24.351469	0.001041	20.757250
580.161417	-3.004100	3.709500	-11.143000	24.364972	0.001040	20.773641
581.164656	-3.005100	3.708200	-11.143000	24.379504	0.001040	20.757873
582.162110	-3.002700	3.708900	-11.136000	24.393810	0.001040	20.776019
583.160254	-2.992800	3.707900	-11.096000	24.392964	0.001042	20.769480
584.164855	-3.011800	3.707700	-11.164000	24.386791	0.001040	20.769926
585.164596	-3.004500	3.706700	-11.135000	24.391370	0.001041	20.753181
586.160947	-2.993400	3.708900	-11.101000	24.403584	0.001042	20.765435
587.162279	-3.014300	3.706700	-11.171000	24.398586	0.001040	20.753782
588.161294	-3.003900	3.706900	-11.135000	24.429928	0.001041	20.755828
589.161293	-3.004200	3.706400	-11.133000	24.433857	0.001041	20.759296
590.164329	-2.998500	3.705800	-11.111000	24.447909	0.001040	20.754901
591.162762	-3.003000	3.706600	-11.130000	24.432835	0.001040	20.770124
592.165937	-2.986600	3.705400	-11.066000	24.409700	0.001041	20.757820
593.162625	-2.985800	3.705700	-11.063000	24.404152	0.001040	20.761737
594.163202	-3.020200	3.703100	-11.182000	24.389899	0.001040	20.767353
595.167708	-2.983200	3.704100	-11.050000	24.394498	0.001040	20.762958
596.163260	-3.015700	3.704400	-11.170000	24.361113	0.001041	20.760761
597.162809	-2.996400	3.704200	-11.098000	24.358129	0.001041	20.740697
598.164497	-3.007800	3.704500	-11.142000	24.367829	0.001040	20.766550
599.164674	-2.977000	3.703800	-11.025000	24.352951	0.001039	20.758737
600.164695	-3.004000	3.703300	-11.123000	24.358274	0.001041	20.754593
601.168839	-3.003700	3.702100	-11.118000	24.371332	0.001041	20.756313
602.165512	-2.993900	3.702700	-11.084000	24.395709	0.001041	20.755637
603.166300	-3.003700	3.702200	-11.119000	24.400287	0.001039	20.752644
604.166551	-3.014800	3.700600	-11.156000	24.440407	0.001040	20.752591
605.167138	-3.003500	3.703100	-11.120000	24.459855	0.001041	20.732272
606.169604	-3.007800	3.700500	-11.130000	24.449183	0.001040	20.756179
607.167269	-2.995800	3.700800	-11.086000	24.473805	0.001040	20.762863
608.168062	-3.010200	3.700000	-11.137000	24.484230	0.001039	20.772375
609.166862	-2.969700	3.702300	-10.993000	24.491940	0.001037	20.777265
610.168337	-3.023900	3.699000	-11.184000	24.496066	0.001039	20.747265
611.169038	-2.992100	3.700700	-11.073000	24.495096	0.001041	20.774742
612.166837	-2.985900	3.699000	-11.044000	24.474274	0.001039	20.768076
613.167213	-2.996500	3.699500	-11.084000	24.481088	0.001036	20.753575
614.167834	-3.001000	3.697400	-11.094000	24.470165	0.001037	20.753048
615.168036	-2.981400	3.698800	-11.025000	24.460166	0.001038	20.743964
616.168514	-2.985500	3.698200	-11.040000	24.467030	0.001040	20.739944
617.168934	-3.005900	3.697200	-11.112000	24.455560	0.001040	20.751671
618.167409	-2.985900	3.697400	-11.039000	24.472176	0.001038	20.757436
619.171930	-2.979300	3.697800	-11.016000	24.458170	0.001039	20.762351
620.169527	-3.001500	3.697500	-11.097000	24.453938	0.001039	20.740560
621.170495	-3.015900	3.694400	-11.140000	24.483885	0.001038	20.768236
622.175035	-2.981400	3.697700	-11.023000	24.460576	0.001038	20.762868
623.169154	-3.018400	3.696000	-11.154000	24.456594	0.001037	20.755079
624.170929	-3.003300	3.695400	-11.097000	24.447216	0.001038	20.759421
625.174080	-2.989600	3.696800	-11.051000	24.420573	0.001038	20.750235
626.172050	-2.987300	3.694800	-11.036000	24.424227	0.001038	20.771445
627.175491	-2.997800	3.694800	-11.075000	24.417335	0.001036	20.755522
628.170578	-3.013000	3.692500	-11.125000	24.427906	0.001036	20.771817
629.174576	-3.017100	3.692600	-11.139000	24.439869	0.001037	20.754422
630.172843	-3.018300	3.692600	-11.143000	24.452556	0.001038	20.753399
631.172297	-3.009900	3.692800	-11.114000	24.458792	0.001039	20.752543
632.174047	-2.983900	3.693700	-11.020000	24.463568	0.001035	20.763024
633.176034	-3.007400	3.693500	-11.107000	24.459286	0.001039	20.742133
634.172850	-2.995700	3.692900	-11.061000	24.467070	0.001037	20.773651
635.173094	-2.986700	3.693200	-11.029000	24.464358	0.001036	20.756231
636.172863	-2.981400	3.692600	-11.008000	24.491318	0.001036	20.764313
637.174414	-3.019600	3.690600	-11.143000	24.475323	0.001037	20.768655
638.175603	-2.992500	3.692400	-11.047000	24.470217	0.001035	20.753100
639.173381	-2.999900	3.690200	-11.070000	24.486631	0.001034	20.749179
640.175288	-3.014600	3.689800	-11.122000	24.503694	0.001036	20.762979
641.173570	-2.976000	3.691100	-10.983000	24.516299	0.001036	20.763298
642.172816	-2.991700	3.690100	-11.038000	24.530498	0.001034	20.769958
643.176011	-2.988300	3.691800	-11.031000	24.553630	0.001035	20.779891
644.173889	-2.992600	3.687800	-11.035000	24.547906	0.001034	20.754233
645.174962	-3.011600	3.687900	-11.106000	24.546958	0.001033	20.781731
646.174745	-2.988400	3.690100	-11.026000	24.542430	0.001034	20.771498
647.174628	-3.006700	3.689600	-11.092000	24.545808	0.001032	20.744067
648.173943	-3.015700	3.688100	-11.122000	24.567222	0.001033	20.774562
649.177458	-2.990400	3.688400	-11.029000	24.561650	0.001033	20.788412
650.173417	-3.007800	3.688100	-11.091000	24.545329	0.001031	20.786261
651.174514	-3.011900	3.687800	-11.106000	24.551670	0.001032	20.766545
652.174412	-2.991800	3.687200	-11.031000	24.550454	0.001032	20.753470
653.174350	-2.990000	3.687700	-11.026000	24.574724	0.001032	20.774029
654.179434	-2.995900	3.685700	-11.042000	24.545897	0.001033	20.781141
655.175587	-2.996700	3.685300	-11.042000	24.582109	0.001033	20.773378
656.176940	-2.994900	3.686400	-11.038000	24.590491	0.001033	20.783686
657.175129	-2.998200	3.687300	-11.053000	24.621504	0.001032	20.799156
658.175233	-3.000400	3.685700	-11.057000	24.635976	0.001030	20.772426
659.177661	-3.009600	3.684500	-11.088000	24.631825	0.001029	20.787702
660.177378	-2.988400	3.685600	-11.012000	24.618390	0.001031	20.760944
661.176600	-3.011800	3.684700	-11.095000	24.644926	0.001031	20.772398
662.176003	-2.979000	3.684600	-10.975000	24.611524	0.001032	20.786772
663.177337	-2.993300	3.682300	-11.022000	24.622294	0.001031	20.794733
664.179122	-2.994800	3.682700	-11.027000	24.609063	0.001033	20.776241
665.176982	-3.008000	3.683300	-11.079000	24.575088	0.001031	20.767756
666.176404	-3.003500	3.683300	-11.062000	24.607342	0.001030	20.775937
667.178348	-2.985200	3.681900	-10.989000	24.619431	0.001030	20.790438
668.176219	-3.000400	3.682300	-11.047000	24.635716	0.001029	20.776433
669.177498	-3.008800	3.681800	-11.077000	24.659540	0.001029	20.794649
670.180396	-3.006100	3.681700	-11.066000	24.663941	0.001030	20.792427
671.176996	-3.023500	3.680100	-11.126000	24.692144	0.001032	20.791330
672.177323	-2.993700	3.682200	-11.022000	24.670680	0.001028	20.763627
673.177209	-2.994800	3.680000	-11.020000	24.646430	0.001030	20.788132
674.176586	-2.991600	3.680000	-11.008000	24.635827	0.001030	20.803097
675.186694	-2.982700	3.681000	-10.977000	24.603073	0.001029	20.801051
676.178891	-2.991200	3.680200	-11.008000	24.585391	0.001026	20.803224
677.180250	-3.000500	3.680600	-11.042000	24.568650	0.001029	20.803970
678.178564	-3.009300	3.678200	-11.067000	24.592973	0.001028	20.793288
679.178307	-2.981900	3.679600	-10.972000	24.587871	0.001027	20.766831
680.179811	-2.992200	3.678500	-11.005000	24.555112	0.001026	20.783749
681.178007	-3.009900	3.679400	-11.073000	24.567646	0.001028	20.798221
682.178829	-2.986100	3.679000	-10.984000	24.585403	0.001027	20.807503
683.178277	-3.008200	3.677400	-11.061000	24.591694	0.001026	20.788211
684.178771	-2.998400	3.676900	-11.023000	24.588408	0.001027	20.810044
685.180369	-3.022700	3.675600	-11.110000	24.619123	0.001027	20.811940
686.179770	-2.996900	3.677100	-11.018000	24.638000	0.001027	20.792950
687.181131	-3.005600	3.676200	-11.048000	24.638346	0.001027	20.791874
688.181659	-3.009400	3.675900	-11.061000	24.664258	0.001023	20.803650
689.181373	-3.011500	3.674600	-11.065000	24.663860	0.001024	20.789974
690.183621	-3.003400	3.675000	-11.036000	24.637719	0.001026	20.799306
691.185030	-2.991700	3.675600	-10.996000	24.625856	0.001025	20.819170
692.183482	-3.000500	3.674600	-11.025000	24.613119	0.001024	20.814924
693.187144	-2.983000	3.676300	-10.964000	24.589417	0.001024	20.793987
694.185836	-3.007400	3.673400	-11.046000	24.605604	0.001026	20.796479
695.183817	-2.997400	3.675200	-11.015000	24.646814	0.001025	20.810803
696.186787	-2.979400	3.674200	-10.946000	24.670860	0.001023	20.792732
697.188402	-3.004100	3.672800	-11.032000	24.675533	0.001024	20.805481
698.183229	-2.994700	3.670900	-10.991000	24.688093	0.001021	20.799593
699.185274	-2.988200	3.674500	-10.979000	24.707936	0.001022	20.806228
700.184350	-3.010400	3.672300	-11.054000	24.707911	0.001022	20.787711
701.184603	-3.001500	3.670900	-11.017000	24.740136	0.001020	20.819101
702.187556	-3.016900	3.670400	-11.072000	24.777713	0.001024	20.806550
703.185417	-2.999700	3.670900	-11.011000	24.783206	0.001022	20.813960
704.192235	-3.000500	3.670400	-11.011000	24.787159	0.001020	20.817927
705.186609	-2.983100	3.671900	-10.952000	24.794817	0.001023	20.805698
706.186714	-2.980800	3.670600	-10.939000	24.799616	0.001020	20.825213
707.187997	-2.989400	3.670200	-10.970000	24.795586	0.001021	20.807418
708.188203	-2.989600	3.670500	-10.972000	24.779173	0.001020	20.800904
709.186928	-3.000400	3.669400	-11.009000	24.776536	0.001018	20.829551
710.187459	-3.002700	3.668900	-11.015000	24.768804	0.001021	20.811360
711.187418	-2.979200	3.669400	-10.930000	24.763131	0.001021	20.828900
712.187102	-3.005900	3.667800	-11.023000	24.768476	0.001019	20.815299
713.189938	-3.013700	3.668100	-11.052000	24.805326	0.001020	20.820037
714.190659	-2.998100	3.668000	-10.996000	24.802269	0.001019	20.787572
715.189103	-3.016800	3.667000	-11.061000	24.833546	0.001019	20.812798
716.187947	-2.985300	3.669200	-10.953000	24.806345	0.001019	20.805887
717.188242	-2.986300	3.668100	-10.953000	24.824820	0.001017	20.808781
718.190583	-3.001000	3.667100	-11.003000	24.836007	0.001017	20.824750
719.189261	-3.035300	3.665800	-11.125000	24.841504	0.001018	20.814620
720.192040	-2.995700	3.667000	-10.984000	24.863903	0.001018	20.833781
721.189530	-3.016500	3.666600	-11.059000	24.850480	0.001017	20.824577
722.188984	-2.999700	3.665400	-10.995000	24.832324	0.001016	20.815364
723.198020	-2.992200	3.664700	-10.963000	24.845478	0.001019	20.829039
724.190388	-3.006500	3.664200	-11.015000	24.847939	0.001016	20.830561
725.192145	-2.994300	3.664300	-10.970000	24.848235	0.001015	20.828488
726.192850	-3.017100	3.664700	-11.055000	24.857237	0.001012	20.818556
727.192774	-2.979800	3.665400	-10.920000	24.868822	0.001011	20.820226
728.192259	-2.997500	3.663600	-10.981000	24.887201	0.001014	20.822076
729.193314	-2.979900	3.665400	-10.921000	24.891724	0.001015	20.844633
730.193157	-3.000200	3.665100	-10.994000	24.896773	0.001013	20.839269
731.198370	-2.970800	3.664600	-10.884000	24.915073	0.001014	20.815438
732.193218	-3.004000	3.662500	-11.002000	24.941405	0.001013	20.830487
733.195775	-2.995700	3.662400	-10.970000	24.952418	0.001013	20.823523
734.194745	-3.002700	3.663000	-10.998000	24.936032	0.001013	20.829362
735.194276	-3.025100	3.660100	-11.071000	24.892400	0.001012	20.824450
736.195698	-3.006200	3.661500	-11.007000	24.885187	0.001013	20.832383
737.195062	-3.001500	3.660900	-10.987000	24.876684	0.001013	20.834280
738.194179	-3.003000	3.660000	-10.989000	24.880040	0.001014	20.823424
739.195580	-2.999200	3.660800	-10.978000	24.890659	0.001013	20.835978
740.195402	-3.014100	3.660800	-11.033000	24.898588	0.001013	20.849626
741.195246	-3.010100	3.659600	-11.015000	24.858530	0.001014	20.836923
742.196023	-3.006400	3.659000	-11.000000	24.878274	0.001011	20.841091
743.195602	-2.996500	3.659600	-10.965000	24.871431	0.001012	20.839913
744.200782	-3.011100	3.659200	-11.017000	24.887988	0.001013	20.849418
745.196810	-2.973400	3.659800	-10.881000	24.923098	0.001013	20.821596
746.196522	-2.992300	3.658900	-10.947000	24.898282	0.001014	20.823715
747.196881	-3.009500	3.658400	-11.009000	24.897461	0.001012	20.839012
748.197185	-3.011500	3.656900	-11.011000	24.910164	0.001011	20.846545
749.198006	-3.008100	3.658900	-11.004000	24.898576	0.001010	20.840604
750.196579	-3.023500	3.657000	-11.056000	24.907549	0.001011	20.838705
751.196531	-3.015800	3.656400	-11.025000	24.922119	0.001010	20.838630
752.196558	-2.993300	3.657000	-10.944000	24.916747	0.001012	20.840824
753.196214	-2.994400	3.658000	-10.953000	24.902769	0.001010	20.850502
754.198685	-3.008000	3.655300	-10.994000	24.897943	0.001009	20.841866
755.196517	-3.010000	3.655100	-11.001000	24.886206	0.001010	20.847155
756.197399	-3.021900	3.655000	-11.045000	24.900326	0.001008	20.861327
757.199194	-3.023200	3.653700	-11.045000	24.861115	0.001006	20.858956
758.196220	-3.020100	3.654600	-11.036000	24.891820	0.001011	20.848996
759.195889	-2.981600	3.654800	-10.896000	24.913372	0.001009	20.856403
760.201992	-3.021500	3.653700	-11.038000	24.935893	0.001006	20.856722
761.198325	-2.991600	3.654500	-10.932000	24.944622	0.001008	20.843198
762.198503	-2.987700	3.654700	-10.918000	24.963663	0.001008	20.852826
763.199821	-3.016800	3.653900	-11.022000	24.960751	0.001007	20.860335
764.200398	-3.009100	3.653600	-10.994000	24.988592	0.001007	20.880217
765.201361	-3.003200	3.654100	-10.973000	25.017505	0.001008	20.869886
766.203924	-3.004600	3.652800	-10.975000	25.011859	0.001006	20.859477
767.201959	-3.027700	3.650200	-11.051000	24.994825	0.001008	20.869880
768.216713	-2.988200	3.653600	-10.915000	24.997107	0.001006	20.867903
769.202768	-2.988900	3.653400	-10.919000	24.988777	0.001007	20.872817
770.202077	-3.001100	3.652000	-10.959000	24.973457	0.001006	20.868346
771.205806	-2.994000	3.651800	-10.933000	24.978202	0.001007	20.869790
772.202400	-3.007900	3.651100	-10.980000	24.975788	0.001006	20.856936
773.204351	-2.976200	3.652300	-10.870000	24.979188	0.001008	20.847072
774.202206	-3.004300	3.649700	-10.963000	24.966930	0.001005	20.869855
775.202136	-3.008600	3.649900	-10.979000	24.956933	0.001006	20.865511
776.206014	-3.001000	3.649700	-10.952000	24.981590	0.001005	20.880776
777.204438	-3.014600	3.649000	-11.000000	24.983402	0.001007	20.879276
778.202599	-3.011100	3.649200	-10.987000	24.990457	0.001005	20.900580
779.203087	-2.972300	3.650900	-10.851000	25.024018	0.001005	20.869311
780.204289	-3.001100	3.648500	-10.948000	25.007982	0.001006	20.874551
781.206619	-3.000300	3.649600	-10.949000	25.001959	0.001006	20.883203
782.206425	-3.001600	3.648400	-10.950000	24.990992	0.001003	20.863188
783.207817	-3.017000	3.647300	-11.002000	25.018337	0.001002	20.896797
784.205249	-3.016300	3.647000	-10.999000	25.041033	0.001003	20.885441
785.205296	-3.007000	3.647300	-10.967000	25.043265	0.001003	20.876302
786.211404	-3.013000	3.648400	-10.992000	25.034735	0.001003	20.898558
787.212741	-3.000700	3.648100	-10.946000	25.057257	0.001001	20.889398
788.207063	-2.981100	3.647100	-10.872000	25.061357	0.001001	20.864592
789.207552	-3.003000	3.646800	-10.950000	25.095687	0.001001	20.889095
790.208973	-3.012600	3.646700	-10.984000	25.102967	0.001002	20.882652
791.209620	-2.980000	3.648300	-10.870000	25.103118	0.001000	20.881382
792.207798	-2.998900	3.645400	-10.931000	25.130010	0.001001	20.901738
793.209966	-3.007200	3.645400	-10.962000	25.097046	0.001000	20.867701
794.210248	-3.008000	3.644400	-10.960000	25.080434	0.000999	20.887534
795.210143	-2.996500	3.646400	-10.925000	25.073448	0.000998	20.893796
796.211131	-2.999100	3.644600	-10.929000	25.052886	0.000999	20.903976
797.209498	-3.013100	3.644900	-10.980000	25.069194	0.000997	20.890949
798.209963	-3.013500	3.644600	-10.982000	25.046817	0.000997	20.892195
799.210739	-3.007600	3.643900	-10.957000	25.060636	0.000996	20.896109
800.211077	-3.020800	3.643100	-11.003000	25.057728	0.000997	20.879914
801.209748	-3.022200	3.641600	-11.004000	25.061355	0.000996	20.887348
802.212778	-3.013400	3.643200	-10.977000	25.063714	0.000996	20.903465
803.212479	-3.027600	3.642300	-11.026000	25.065755	0.000996	20.892238
804.215570	-2.987700	3.643400	-10.884000	25.028809	0.000997	20.891188
805.214112	-2.990100	3.641500	-10.886000	25.040242	0.000995	20.888914
806.214331	-2.988300	3.642300	-10.882000	25.034598	0.000994	20.915963
807.217387	-3.025200	3.641000	-11.014000	25.043891	0.000997	20.895422
808.214322	-2.993400	3.641200	-10.898000	25.058263	0.000996	20.903683
809.215390	-2.995800	3.641600	-10.908000	25.079417	0.000994	20.897891
810.212983	-2.974600	3.641700	-10.831000	25.100274	0.000993	20.888958
811.215250	-3.003600	3.639400	-10.930000	25.120782	0.000993	20.910965
812.217553	-3.005900	3.639300	-10.938000	25.106782	0.000991	20.922514
813.217045	-3.003500	3.638700	-10.927000	25.099993	0.000991	20.895314
814.214574	-2.984300	3.640600	-10.863000	25.112071	0.000991	20.927823
815.214971	-3.005500	3.638200	-10.934000	25.105285	0.000992	20.912478
816.216591	-2.982400	3.638700	-10.851000	25.098672	0.000991	20.903944
817.216345	-3.029900	3.638300	-11.023000	25.098222	0.000990	20.919137
818.218839	-3.004200	3.638600	-10.929000	25.113982	0.000992	20.893235
819.216681	-2.994200	3.638100	-10.893000	25.117832	0.000992	20.922227
820.217952	-3.017200	3.636600	-10.971000	25.131329	0.000991	20.927715
821.217318	-2.983600	3.638500	-10.855000	25.117779	0.000991	20.920278
822.217258	-3.009400	3.637000	-10.944000	25.136818	0.000991	20.922321
823.219082	-3.004200	3.636300	-10.923000	25.115514	0.000991	20.930331
824.218339	-3.009600	3.636900	-10.944000	25.113023	0.000991	20.921667
825.217577	-3.010900	3.636000	-10.947000	25.073344	0.000991	20.912657
826.218726	-3.021500	3.635400	-10.984000	25.046194	0.000989	20.929498
827.216907	-2.997600	3.635800	-10.898000	25.050739	0.000989	20.928371
828.217656	-3.013000	3.634700	-10.950000	25.051110	0.000988	20.926846
829.219982	-3.024700	3.634600	-10.993000	25.063021	0.000986	20.940223
830.218551	-3.010000	3.634400	-10.939000	25.087429	0.000989	20.936276
831.222661	-3.008900	3.634400	-10.934000	25.115667	0.000985	20.912943
832.221822	-3.024000	3.633400	-10.985000	25.112803	0.000984	20.926661
833.218786	-2.993300	3.633900	-10.877000	25.116955	0.000987	20.921821
834.221006	-3.002300	3.633800	-10.909000	25.146983	0.000986	20.917827
835.219923	-3.010500	3.633900	-10.939000	25.136963	0.000985	20.948067
836.221345	-3.011700	3.631800	-10.936000	25.153966	0.000984	20.913458
837.219589	-3.009600	3.631500	-10.928000	25.128087	0.000984	20.933470
838.218657	-2.994500	3.632200	-10.875000	25.149413	0.000983	20.920267
839.222436	-3.011800	3.631800	-10.938000	25.166814	0.000982	20.948638
840.224548	-2.978100	3.633300	-10.819000	25.188191	0.000983	20.947814
841.220491	-3.008600	3.630200	-10.920000	25.213868	0.000983	20.938031
842.221397	-3.023700	3.630800	-10.977000	25.220952	0.000980	20.956047
843.219543	-3.018400	3.629800	-10.955000	25.247622	0.000981	20.938729
844.231662	-2.983900	3.630600	-10.833000	25.217369	0.000980	20.937753
845.224383	-2.998400	3.631400	-10.888000	25.238251	0.000982	20.953500
846.221824	-3.018600	3.627700	-10.949000	25.219851	0.000980	20.936926
847.227147	-2.995700	3.629600	-10.872000	25.180033	0.000978	20.932513
848.223394	-3.007700	3.629600	-10.915000	25.167031	0.000979	20.941744
849.222853	-2.998700	3.627500	-10.877000	25.168423	0.000980	20.932238
850.224160	-2.987100	3.628700	-10.838000	25.178938	0.000979	20.961281
851.223911	-2.987300	3.628100	-10.837000	25.206479	0.000979	20.940096
852.224325	-2.996700	3.628600	-10.872000	25.197058	0.000979	20.940595
853.223959	-2.982000	3.629800	-10.823000	25.203519	0.000977	20.923376
854.224927	-2.992700	3.626800	-10.853000	25.154875	0.000977	20.949454
855.225195	-3.006200	3.628000	-10.906000	25.176922	0.000976	20.923227
856.226213	-3.002400	3.627200	-10.890000	25.174983	0.000975	20.941193
857.227115	-3.016100	3.625700	-10.934000	25.182889	0.000977	20.928268
858.226486	-2.989200	3.627100	-10.841000	25.203695	0.000976	20.937775
859.226346	-3.000700	3.626300	-10.881000	25.201138	0.000974	20.930942
860.226489	-3.004600	3.626200	-10.894000	25.250404	0.000973	20.941521
861.226571	-3.014600	3.626500	-10.931000	25.267032	0.000976	20.937353
862.225871	-2.994100	3.623800	-10.848000	25.283737	0.000974	20.929470
863.226853	-3.024600	3.624100	-10.960000	25.287215	0.000972	20.917317
864.226859	-3.004400	3.624500	-10.889000	25.262834	0.000972	20.935983
865.225755	-3.010300	3.625100	-10.912000	25.245137	0.000973	20.924382
866.226578	-2.996900	3.624600	-10.862000	25.231892	0.000971	20.918196
867.227074	-3.006100	3.622300	-10.888000	25.235815	0.000972	20.916920
868.226886	-2.978500	3.623300	-10.791000	25.239001	0.000971	20.924385
869.227265	-2.998500	3.623100	-10.862000	25.269627	0.000972	20.915779
870.227677	-3.012600	3.623000	-10.913000	25.292915	0.000972	20.905972
871.226732	-3.017700	3.620900	-10.926000	25.286282	0.000972	20.921595
872.229546	-3.004700	3.620600	-10.878000	25.293465	0.000971	20.916005
873.228762	-3.002300	3.623000	-10.876000	25.295480	0.000972	20.901435
874.230578	-2.999900	3.621200	-10.863000	25.306045	0.000968	20.918205
875.228536	-2.988300	3.622100	-10.824000	25.316533	0.000969	20.911667
876.229120	-3.000600	3.620800	-10.863000	25.288053	0.000971	20.902513
877.233759	-2.993300	3.620700	-10.836000	25.292276	0.000969	20.921449
878.228692	-2.995500	3.619300	-10.840000	25.238144	0.000969	20.903612
879.228797	-2.962000	3.621700	-10.727000	25.213808	0.000967	20.904784
880.229503	-3.015100	3.619400	-10.911000	25.195144	0.000968	20.905487
881.229614	-2.997700	3.619500	-10.849000	25.196709	0.000968	20.894257
882.234807	-2.999600	3.620000	-10.858000	25.203195	0.000967	20.890811
883.230801	-2.998200	3.619300	-10.851000	25.190023	0.000968	20.904613
884.230985	-3.006200	3.619200	-10.878000	25.237430	0.000967	20.909533
885.231283	-3.018500	3.617700	-10.918000	25.258806	0.000966	20.893064
886.230963	-3.013400	3.618400	-10.903000	25.276329	0.000967	20.896906
887.232024	-2.985500	3.618200	-10.801000	25.294225	0.000965	20.905865
888.234036	-2.983000	3.619900	-10.797000	25.305658	0.000966	20.877043
889.230803	-3.007200	3.617000	-10.876000	25.306652	0.000965	20.893686
890.232337	-2.985500	3.617200	-10.798000	25.296438	0.000967	20.898130
891.231381	-3.003500	3.617000	-10.863000	25.278487	0.000966	20.898124
892.232370	-3.020000	3.614800	-10.916000	25.245160	0.000968	20.884579
893.235320	-2.998000	3.615800	-10.838000	25.233847	0.000966	20.894557
894.239114	-3.002200	3.615700	-10.854000	25.241821	0.000965	20.893080
895.234009	-3.002700	3.614000	-10.851000	25.245725	0.000966	20.867604
896.232659	-2.990200	3.615100	-10.807000	25.270234	0.000962	20.878459
897.234041	-3.028000	3.614300	-10.943000	25.275302	0.000964	20.903461
898.234933	-2.996300	3.615000	-10.830000	25.301150	0.000963	20.877732
899.235531	-2.998300	3.614700	-10.837000	25.343898	0.000962	20.860911
900.234789	-2.995100	3.613700	-10.822000	25.354559	0.000962	20.898640
901.235139	-3.012900	3.613000	-10.884000	25.359605	0.000962	20.852975
902.238687	-2.964900	3.615700	-10.719000	25.359924	0.000962	20.880794
903.234361	-3.017200	3.613300	-10.900000	25.342377	0.000963	20.894943
904.236272	-3.018000	3.612000	-10.900000	25.325500	0.000963	20.876102
905.235023	-2.977300	3.613500	-10.756000	25.343467	0.000961	20.887029
906.236258	-3.000500	3.612400	-10.838000	25.350075	0.000961	20.871855
907.237190	-3.000000	3.612500	-10.836000	25.351940	0.000961	20.907388
908.236303	-2.994300	3.611200	-10.812000	25.348878	0.000959	20.901944
909.237542	-2.992300	3.610300	-10.802000	25.350369	0.000961	20.896804
910.235559	-2.993700	3.610400	-10.806000	25.360585	0.000960	20.877191
911.238390	-2.990700	3.612100	-10.801000	25.359388	0.000959	20.878834
912.237498	-3.010900	3.609500	-10.867000	25.368012	0.000959	20.866157
913.237616	-3.004300	3.608900	-10.841000	25.390477	0.000958	20.862163
914.239791	-3.010300	3.609800	-10.866000	25.384660	0.000957	20.853477
915.239335	-3.003200	3.608600	-10.836000	25.390126	0.000956	20.881249
916.238101	-2.992500	3.609500	-10.800000	25.360003	0.000957	20.887986
917.238519	-3.003200	3.608100	-10.835000	25.373750	0.000957	20.870496
918.243960	-3.011800	3.607400	-10.864000	25.373771	0.000954	20.868147
919.237635	-3.006000	3.608100	-10.845000	25.397555	0.000955	20.884915
920.239794	-2.995500	3.607800	-10.806000	25.405209	0.000955	20.876480
921.238194	-2.994700	3.607700	-10.803000	25.401184	0.000953	20.869120
922.242807	-3.020700	3.606400	-10.893000	25.395641	0.000954	20.868770
923.239341	-2.975100	3.607800	-10.732000	25.405558	0.000953	20.853598
924.239036	-2.984900	3.606300	-10.763000	25.430458	0.000953	20.867221
925.242652	-3.020600	3.606400	-10.892000	25.442759	0.000952	20.871987
926.239551	-2.999500	3.607200	-10.818000	25.442710	0.000952	20.865299
927.239617	-3.006700	3.606500	-10.843000	25.423353	0.000951	20.849656
928.240713	-3.005000	3.605000	-10.831000	25.427971	0.000951	20.879421
929.240000	-3.003600	3.606600	-10.832000	25.413560	0.000949	20.873960
930.240557	-2.985100	3.605000	-10.760000	25.395490	0.000951	20.866248
931.245662	-2.988100	3.606500	-10.776000	25.390519	0.000948	20.861256
932.240543	-2.999800	3.604300	-10.811000	25.410153	0.000951	20.870066
933.242502	-2.992900	3.604500	-10.787000	25.427353	0.000950	20.880223
934.241212	-3.022900	3.602600	-10.888000	25.442685	0.000949	20.869068
935.241421	-2.986400	3.603000	-10.758000	25.431800	0.000948	20.885163
936.250685	-3.006100	3.602000	-10.826000	25.416764	0.000948	20.867221
937.240953	-2.988500	3.602500	-10.764000	25.423773	0.000948	20.841543
938.243783	-2.982800	3.603200	-10.746000	25.458240	0.000948	20.852446
939.241528	-2.983700	3.602800	-10.749000	25.459832	0.000946	20.858312
940.242482	-2.985300	3.601300	-10.750000	25.481030	0.000946	20.849254
941.244996	-2.995600	3.601100	-10.785000	25.486200	0.000947	20.870090
942.244087	-2.997000	3.602400	-10.795000	25.468257	0.000943	20.862030
943.247778	-2.997400	3.600800	-10.792000	25.483938	0.000945	20.853595
944.244863	-3.025800	3.600200	-10.892000	25.522108	0.000946	20.849254
945.243641	-3.000600	3.600600	-10.803000	25.519026	0.000943	20.859908
946.247622	-3.002700	3.600900	-10.811000	25.519155	0.000945	20.852925
947.244476	-3.002600	3.600200	-10.809000	25.478250	0.000944	20.863530
948.247394	-2.973200	3.601300	-10.706000	25.463014	0.000945	20.854395
949.245565	-3.004900	3.599200	-10.813000	25.443929	0.000945	20.871265
950.244925	-3.010400	3.597900	-10.830000	25.470670	0.000943	20.854971
951.247704	-2.990900	3.598800	-10.762000	25.495621	0.000941	20.841621
952.245741	-2.998000	3.598500	-10.786000	25.491396	0.000941	20.883368
953.247950	-2.982700	3.598700	-10.731000	25.506431	0.000944	20.849157
954.244866	-3.009800	3.598200	-10.828000	25.492788	0.000944	20.851103
955.245377	-2.977400	3.597700	-10.710000	25.487245	0.000942	20.849331
956.244911	-3.010400	3.597600	-10.827000	25.474049	0.000940	20.841295
957.247533	-2.987700	3.596600	-10.744000	25.479866	0.000939	20.851404
958.249137	-3.000200	3.596600	-10.790000	25.423798	0.000939	20.840146
959.247893	-2.995100	3.595900	-10.769000	25.377673	0.000938	20.860211
960.247801	-3.007100	3.594500	-10.808000	25.345290	0.000936	20.876058
961.248854	-2.994100	3.594400	-10.761000	25.374938	0.000937	20.851776
962.251448	-3.000000	3.595600	-10.786000	25.403740	0.000937	20.853195
963.250770	-3.015500	3.593800	-10.835000	25.375361	0.000939	20.828494
964.251885	-3.042700	3.593900	-10.934000	25.400040	0.000935	20.856592
965.255194	-2.965400	3.596200	-10.663000	25.429093	0.000937	20.871066
966.253399	-2.984100	3.596100	-10.729000	25.468834	0.000936	20.846015
967.255307	-2.997500	3.593200	-10.770000	25.457600	0.000933	20.858915
968.253575	-3.013400	3.592700	-10.825000	25.424201	0.000935	20.829172
969.253478	-3.004500	3.593600	-10.795000	25.439037	0.000933	20.846439
970.255447	-2.982900	3.592700	-10.715000	25.469034	0.000933	20.843845
971.254572	-3.001900	3.592200	-10.782000	25.513590	0.000930	20.844019
972.257640	-3.004800	3.593800	-10.796000	25.503277	0.000932	20.844567
973.262260	-2.995800	3.592900	-10.762000	25.489313	0.000933	20.858044
974.257021	-2.985200	3.593600	-10.727000	25.506011	0.000931	20.842572
975.257307	-3.017700	3.591100	-10.835000	25.520821	0.000930	20.835633
976.257030	-2.992900	3.590500	-10.745000	25.549172	0.000930	20.826647
977.260725	-2.991500	3.590100	-10.739000	25.550119	0.000928	20.855097
978.260127	-2.993700	3.590200	-10.747000	25.556553	0.000930	20.844016
979.257992	-3.012100	3.588100	-10.805000	25.555287	0.000931	20.838952
980.257804	-2.986700	3.589000	-10.717000	25.557203	0.000927	20.840876
981.258723	-2.981600	3.590000	-10.702000	25.547039	0.000927	20.844418
982.258018	-2.997200	3.589000	-10.756000	25.564777	0.000929	20.844689
983.262319	-3.014000	3.588100	-10.814000	25.566492	0.000926	20.853523
984.258609	-3.002700	3.587600	-10.770000	25.578965	0.000926	20.836179
985.263641	-2.987800	3.589200	-10.723000	25.585177	0.000926	20.833409
986.261599	-3.016000	3.588400	-10.822000	25.572729	0.000926	20.836080
987.261590	-2.999300	3.588300	-10.761000	25.558639	0.000924	20.849904
988.265741	-3.010900	3.586100	-10.797000	25.557846	0.000923	20.850530
989.262286	-3.011300	3.585900	-10.797000	25.561818	0.000922	20.823700
990.263576	-2.968200	3.586800	-10.645000	25.551606	0.000924	20.825773
991.262963	-3.001100	3.585500	-10.759000	25.569822	0.000923	20.826523
992.263519	-3.002400	3.584500	-10.761000	25.575413	0.000921	20.836405
993.263348	-2.993200	3.585500	-10.731000	25.547857	0.000921	20.828171
994.266113	-2.988100	3.585100	-10.711000	25.507178	0.000921	20.838528
995.265740	-2.997400	3.584500	-10.743000	25.494279	0.000918	20.815617
996.265718	-2.996500	3.583900	-10.738000	25.443459	0.000919	20.826699
997.266663	-3.016600	3.584100	-10.811000	25.443808	0.000920	20.849333
998.266001	-3.016200	3.583200	-10.804000	25.451165	0.000921	20.825428
999.269547	-3.017500	3.584000	-10.814000	25.478379	0.000917	20.814823
1000.267864	-3.017300	3.582700	-10.809000	25.496917	0.000920	20.837706
1001.268135	-3.018000	3.581900	-10.809000	25.470280	0.000920	20.800527
1002.267109	-2.995900	3.582600	-10.732000	25.485782	0.000918	20.819413
1003.267265	-2.999400	3.583000	-10.746000	25.466849	0.000918	20.816047
1004.270298	-3.002800	3.582300	-10.756000	25.477835	0.000916	20.813803
1005.269524	-3.024700	3.581200	-10.831000	25.507307	0.000917	20.826330
1006.268099	-3.033100	3.579600	-10.855000	25.515336	0.000916	20.804996
1007.267679	-3.017400	3.580400	-10.802000	25.537302	0.000917	20.798132
1008.268843	-3.013800	3.579600	-10.785000	25.544113	0.000915	20.830101
1009.268534	-2.986400	3.581500	-10.694000	25.576264	0.000914	20.812604
1010.270674	-2.993600	3.581400	-10.718000	25.577310	0.000913	20.824086
1011.269343	-3.049100	3.576600	-10.904000	25.594630	0.000912	20.822040
1012.271756	-2.993800	3.579900	-10.716000	25.586582	0.000912	20.817277
1013.269859	-3.032300	3.577900	-10.848000	25.578208	0.000910	20.815978
1014.269890	-2.998900	3.578000	-10.729000	25.598984	0.000912	20.810291
1015.273627	-3.006300	3.577500	-10.754000	25.586657	0.000909	20.815455
1016.270187	-2.996800	3.577500	-10.720000	25.601122	0.000911	20.822396
1017.272372	-3.012200	3.576500	-10.772000	25.617544	0.000908	20.793845
1018.271374	-2.981600	3.577100	-10.664000	25.621423	0.000908	20.804378
1019.272257	-2.988000	3.577500	-10.688000	25.646247	0.000907	20.823620
1020.272794	-3.007600	3.576600	-10.757000	25.655689	0.000907	20.802283
1021.274671	-3.009000	3.576200	-10.760000	25.650597	0.000907	20.829886
1022.272325	-2.987000	3.576500	-10.681000	25.668663	0.000906	20.812943
1023.272726	-3.005800	3.576500	-10.749000	25.660838	0.000906	20.800817
1024.272352	-3.003200	3.576600	-10.740000	25.623295	0.000903	20.808155
1025.273152	-3.000700	3.574100	-10.724000	25.594447	0.000903	20.786294
1026.276580	-2.988800	3.574500	-10.683000	25.561524	0.000901	20.804439
1027.273619	-2.998100	3.576300	-10.721000	25.520426	0.000903	20.797305
1028.273960	-2.995800	3.574300	-10.707000	25.467146	0.000902	20.810181
1029.274822	-3.016800	3.572700	-10.778000	25.479601	0.000903	20.805619
1030.275017	-2.994900	3.574300	-10.703000	25.477838	0.000901	20.806694
1031.276393	-2.985800	3.574200	-10.671000	25.532065	0.000898	20.798562
1032.275359	-3.023400	3.573700	-10.804000	25.534278	0.000902	20.787034
1033.276182	-3.012700	3.571600	-10.758000	25.541162	0.000900	20.818129
1034.274740	-3.012900	3.572800	-10.764000	25.579531	0.000900	20.788859
1035.275744	-2.999000	3.572200	-10.712000	25.560698	0.000901	20.795549
1036.274523	-3.006700	3.572200	-10.740000	25.584629	0.000903	20.792555
1037.277485	-3.000800	3.572000	-10.718000	25.592087	0.000898	20.791511
1038.275594	-2.995500	3.572400	-10.700000	25.626205	0.000898	20.788319
1039.277580	-2.982300	3.572300	-10.652000	25.636172	0.000897	20.790268
1040.276170	-3.009500	3.570100	-10.743000	25.659156	0.000897	20.784429
1041.275732	-3.009600	3.570000	-10.743000	25.663062	0.000898	20.781714
1042.278714	-3.011400	3.569700	-10.748000	25.660328	0.000896	20.787977
1043.275752	-3.010300	3.569000	-10.743000	25.676906	0.000895	20.799412
1044.277925	-2.983000	3.569200	-10.646000	25.672583	0.000896	20.775156
1045.275716	-3.003900	3.569200	-10.720000	25.673580	0.000892	20.788010
1046.275601	-2.999400	3.567800	-10.700000	25.684290	0.000892	20.775533
1047.278735	-3.007300	3.568300	-10.729000	25.713786	0.000893	20.790461
1048.280609	-3.009700	3.567400	-10.735000	25.696619	0.000893	20.783649
1049.277221	-2.992400	3.568100	-10.676000	25.661361	0.000893	20.767677
1050.276614	-3.002400	3.568300	-10.711000	25.608859	0.000894	20.797924
1051.277308	-2.970000	3.568000	-10.596000	25.572459	0.000892	20.776066
1052.276942	-3.009800	3.567400	-10.736000	25.521567	0.000891	20.758621
1053.277987	-2.988200	3.567500	-10.660000	25.520746	0.000892	20.775341
1054.275649	-3.015000	3.566600	-10.751000	25.551114	0.000890	20.766957
1055.277678	-2.992100	3.566100	-10.667000	25.597506	0.000893	20.776565
1056.297756	-2.981300	3.566200	-10.630000	25.596988	0.000888	20.784105
1057.277459	-2.984800	3.565100	-10.639000	25.633411	0.000890	20.787021
1058.278885	-2.981100	3.565100	-10.627000	25.633386	0.000890	20.763762
1059.279357	-3.005400	3.564000	-10.709000	25.630554	0.000892	20.787470
1060.280231	-2.976600	3.564000	-10.608000	25.605779	0.000888	20.764485
1061.278685	-2.964400	3.565500	-10.569000	25.559906	0.000890	20.777684
1062.279172	-2.994800	3.563500	-10.670000	25.512445	0.000887	20.755624
1063.283481	-2.979900	3.563400	-10.617000	25.516444	0.000887	20.769598
1064.278471	-2.999000	3.562600	-10.682000	25.544249	0.000887	20.764330
1065.281476	-3.026500	3.561800	-10.778000	25.582491	0.000888	20.768597
1066.279468	-3.038400	3.561200	-10.818000	25.594541	0.000885	20.783545
1067.280358	-3.016800	3.561600	-10.744000	25.649034	0.000885	20.766202
1068.283145	-3.010500	3.561500	-10.721000	25.640410	0.000886	20.755643
1069.282207	-2.996800	3.561900	-10.672000	25.656609	0.000886	20.762430
1070.279429	-2.998600	3.562000	-10.679000	25.679569	0.000885	20.753248
1071.279178	-3.000900	3.560400	-10.682000	25.681158	0.000885	20.762905
1072.279375	-3.025700	3.558900	-10.767000	25.690278	0.000882	20.756418
1073.280627	-3.001400	3.561400	-10.688000	25.680960	0.000883	20.750378
1074.281201	-3.013800	3.560400	-10.729000	25.661429	0.000881	20.752098
1075.280395	-3.015000	3.558800	-10.729000	25.607236	0.000879	20.771164
1076.286324	-2.973500	3.559000	-10.582000	25.588126	0.000879	20.768093
1077.282323	-2.970800	3.559600	-10.573000	25.606767	0.000880	20.778279
1078.282665	-2.995000	3.558500	-10.657000	25.638944	0.000880	20.752749
1079.287570	-2.988200	3.559700	-10.637000	25.644684	0.000878	20.767996
1080.282139	-3.001500	3.558700	-10.680000	25.646248	0.000878	20.748704
1081.284106	-3.011800	3.556900	-10.711000	25.634075	0.000875	20.750703
1082.282790	-2.997100	3.558200	-10.663000	25.650796	0.000875	20.751850
1083.286375	-3.007300	3.557200	-10.695000	25.649108	0.000876	20.762009
1084.285461	-2.989000	3.556900	-10.630000	25.635667	0.000875	20.771743
1085.288108	-3.000400	3.556700	-10.670000	25.629456	0.000874	20.766453
1086.286468	-2.981400	3.557100	-10.604000	25.614549	0.000876	20.746739
1087.285903	-2.986400	3.556100	-10.618000	25.658358	0.000873	20.749962
1088.286257	-2.998500	3.555900	-10.662000	25.657389	0.000874	20.759420
1089.286191	-2.998800	3.554900	-10.660000	25.656744	0.000873	20.770627
1090.295244	-2.998900	3.554700	-10.659000	25.662165	0.000874	20.754260
1091.287985	-2.991200	3.553000	-10.626000	25.658040	0.000874	20.758651
1092.289474	-2.994300	3.553600	-10.640000	25.621016	0.000871	20.765563
1093.289154	-2.985800	3.552600	-10.606000	25.614857	0.000872	20.754635
1094.289291	-2.989800	3.552500	-10.619000	25.605365	0.000869	20.771655
1095.291591	-2.996100	3.553100	-10.645000	25.581691	0.000869	20.772061
1096.290673	-3.007100	3.552800	-10.682000	25.553412	0.000868	20.742238
1097.295981	-2.999500	3.552800	-10.655000	25.538578	0.000868	20.762429
1098.292106	-2.992400	3.552100	-10.629000	25.532937	0.000867	20.752022
1099.293291	-3.011400	3.551400	-10.693000	25.555655	0.000868	20.746387
1100.299176	-2.998800	3.550400	-10.646000	25.579311	0.000867	20.752601
1101.302685	-3.002600	3.550700	-10.660000	25.601279	0.000867	20.765655
1102.294199	-3.007800	3.549600	-10.675000	25.634949	0.000863	20.748736
1103.295622	-2.984800	3.550600	-10.597000	25.672744	0.000863	20.771524
1104.297806	-2.993600	3.550600	-10.628000	25.682686	0.000863	20.770129
1105.295378	-3.011300	3.548100	-10.683000	25.679357	0.000862	20.765837
1106.299838	-3.024300	3.548300	-10.730000	25.660130	0.000865	20.763596
1107.295202	-2.991100	3.549700	-10.616000	25.685277	0.000862	20.779370
1108.295929	-3.022100	3.547200	-10.719000	25.655563	0.000861	20.742887
1109.295615	-3.007700	3.549300	-10.673000	25.652385	0.000862	20.738272
1110.295332	-3.020600	3.547200	-10.713000	25.665209	0.000861	20.747359
1111.297679	-3.006600	3.546700	-10.661000	25.624386	0.000860	20.748558
1112.295155	-3.009200	3.547500	-10.674000	25.634254	0.000861	20.755150
1113.296647	-2.989500	3.547300	-10.604000	25.622951	0.000857	20.760868
1114.295537	-2.989600	3.546200	-10.600000	25.651653	0.000859	20.767884
1115.294828	-3.005700	3.545500	-10.656000	25.676949	0.000859	20.747297
1116.296239	-2.987200	3.548100	-10.597000	25.689349	0.000860	20.743630
1117.295222	-2.982700	3.545100	-10.573000	25.689179	0.000857	20.743460
1118.295189	-2.989800	3.544800	-10.597000	25.699441	0.000857	20.768941
1119.294966	-2.983300	3.545400	-10.576000	25.696143	0.000855	20.754247
1120.295496	-2.992000	3.544100	-10.603000	25.691968	0.000856	20.759538
1121.305084	-2.996900	3.543100	-10.618000	25.706979	0.000856	20.764183
1122.297269	-3.000200	3.542700	-10.628000	25.712819	0.000856	20.774317
1123.295381	-2.990100	3.543200	-10.593000	25.681243	0.000855	20.759197
1124.298546	-3.002500	3.542700	-10.636000	25.634114	0.000855	20.764019
1125.301140	-3.003900	3.542100	-10.639000	25.632198	0.000855	20.762568
1126.295238	-2.998900	3.542000	-10.621000	25.618192	0.000851	20.755614
1127.299729	-3.028000	3.542400	-10.725000	25.638495	0.000851	20.760358
1128.296783	-3.010600	3.541400	-10.660000	25.653701	0.000852	20.764725
1129.297203	-3.007000	3.540700	-10.645000	25.691693	0.000850	20.771590
1130.296616	-3.001300	3.540300	-10.624000	25.728246	0.000851	20.754250
1131.296882	-2.979000	3.541800	-10.549000	25.760722	0.000848	20.789242
1132.300869	-3.012200	3.540800	-10.664000	25.758985	0.000849	20.764263
1133.298493	-3.009300	3.539700	-10.651000	25.779088	0.000848	20.753162
1134.300546	-3.005000	3.541700	-10.642000	25.797973	0.000846	20.758381
1135.298687	-2.978500	3.541100	-10.546000	25.817178	0.000846	20.776725
1136.298841	-3.008600	3.539200	-10.647000	25.834997	0.000847	20.761433
1137.300321	-3.016700	3.538300	-10.673000	25.785660	0.000845	20.755970
1138.298871	-3.008700	3.537300	-10.642000	25.797834	0.000846	20.759664
1139.299940	-3.008600	3.538000	-10.643000	25.797988	0.000846	20.773570
1140.301149	-2.988300	3.538000	-10.570000	25.822561	0.000844	20.763640
1141.300104	-2.995200	3.537400	-10.594000	25.800428	0.000844	20.758477
1142.300847	-3.006300	3.536000	-10.629000	25.752234	0.000845	20.756059
1143.301770	-2.999300	3.536800	-10.606000	25.711711	0.000843	20.751866
1144.299770	-2.986200	3.537100	-10.562000	25.669452	0.000844	20.778175
1145.303531	-3.006400	3.536700	-10.632000	25.633326	0.000844	20.763228
1146.300136	-2.986400	3.535500	-10.557000	25.610992	0.000840	20.777781
1147.300565	-2.993900	3.535500	-10.584000	25.586368	0.000841	20.762534
1148.305758	-3.008100	3.535200	-10.632000	25.572655	0.000839	20.776263
1149.301857	-2.996300	3.534900	-10.590000	25.551162	0.000838	20.774118
1150.304018	-2.996300	3.534000	-10.588000	25.568532	0.000840	20.779235
1151.300908	-2.987500	3.535000	-10.560000	25.581061	0.000839	20.749616
1152.301743	-2.984700	3.534000	-10.546000	25.647650	0.000840	20.763389
1153.304647	-2.975900	3.533700	-10.515000	25.682566	0.000837	20.764319
1154.305015	-2.983900	3.531900	-10.538000	25.697154	0.000838	20.774230
1155.301772	-2.987100	3.533100	-10.553000	25.709203	0.000835	20.773529
1156.302752	-2.992800	3.534500	-10.576000	25.722772	0.000836	20.749226
1157.300796	-3.003600	3.533200	-10.610000	25.740436	0.000836	20.756537
1158.302204	-3.018400	3.532000	-10.660000	25.778280	0.000836	20.776058
1159.304525	-3.017800	3.528500	-10.647000	25.751796	0.000837	20.768896
1160.303827	-3.011000	3.531400	-10.632000	25.728814	0.000837	20.765252
1161.303186	-3.006200	3.530500	-10.611000	25.686281	0.000834	20.763783
1162.301900	-2.990400	3.530800	-10.557000	25.679474	0.000837	20.763110
1163.303369	-2.976700	3.530700	-10.508000	25.642331	0.000836	20.779384
1164.303413	-2.967900	3.531700	-10.480000	25.636292	0.000835	20.779483
1165.302788	-2.998500	3.528700	-10.580000	25.616936	0.000832	20.774267
1166.303123	-3.003400	3.528800	-10.597000	25.624366	0.000831	20.771772
1167.304034	-3.014100	3.528400	-10.634000	25.628019	0.000834	20.760743
1168.306891	-3.022700	3.526800	-10.659000	25.639677	0.000832	20.772451
1169.304024	-3.004300	3.528000	-10.598000	25.630778	0.000830	20.770626
1170.305427	-2.988500	3.528100	-10.541000	25.606778	0.000831	20.771652
1171.305037	-2.993700	3.526800	-10.557000	25.643383	0.000827	20.777122
1172.303737	-3.004400	3.527100	-10.596000	25.648502	0.000828	20.775151
1173.306330	-2.995200	3.526400	-10.561000	25.701449	0.000828	20.781863
1174.311281	-2.976200	3.526700	-10.495000	25.689972	0.000827	20.779818
1175.309255	-3.011400	3.526300	-10.618000	25.715516	0.000828	20.759007
1176.307561	-2.977900	3.526400	-10.499000	25.750374	0.000828	20.767468
1177.307659	-2.983700	3.525800	-10.518000	25.753953	0.000827	20.779598
1178.310193	-2.991800	3.525500	-10.545000	25.794499	0.000824	20.786187
1179.311029	-2.996400	3.524900	-10.560000	25.801460	0.000826	20.756194
1180.311825	-3.008100	3.523800	-10.598000	25.805057	0.000824	20.784938
1181.309905	-3.000800	3.523000	-10.571000	25.806106	0.000824	20.787888
1182.310296	-2.990500	3.523200	-10.534000	25.765289	0.000822	20.800941
1183.310288	-3.010000	3.521900	-10.600000	25.768917	0.000822	20.770447
1184.313556	-2.977500	3.522900	-10.488000	25.795376	0.000821	20.788489
1185.310021	-2.999300	3.521200	-10.561000	25.794284	0.000822	20.779332
1186.310393	-3.006800	3.521400	-10.587000	25.773394	0.000821	20.772099
1187.310441	-2.998000	3.521700	-10.557000	25.789147	0.000820	20.787448
1188.309805	-3.014400	3.519500	-10.608000	25.806439	0.000819	20.763567
1189.309753	-2.989200	3.521600	-10.526000	25.821868	0.000818	20.764366
1190.316017	-2.996600	3.520300	-10.548000	25.834464	0.000817	20.786503
1191.312966	-3.017800	3.519000	-10.619000	25.858164	0.000818	20.792292
1192.313380	-2.995900	3.520300	-10.546000	25.882189	0.000818	20.797462
1193.312985	-2.994700	3.519300	-10.539000	25.863933	0.000816	20.788605
1194.315060	-2.993100	3.519800	-10.534000	25.853678	0.000817	20.780674
1195.320827	-3.014200	3.518200	-10.603000	25.876933	0.000817	20.780327
1196.315406	-3.003400	3.518400	-10.566000	25.906742	0.000815	20.797945
1197.316494	-3.007900	3.517800	-10.579000	25.940104	0.000815	20.780253
1198.315392	-3.025700	3.517500	-10.641000	25.958863	0.000812	20.799573
1199.315391	-2.998100	3.518500	-10.547000	25.953897	0.000813	20.759495
1200.316090	-3.019000	3.515600	-10.613000	25.986887	0.000813	20.790270
1201.316602	-2.988000	3.517400	-10.509000	25.977427	0.000811	20.801154
1202.316319	-3.010300	3.516300	-10.584000	25.961035	0.000812	20.791798
1203.316195	-3.005700	3.514100	-10.560000	25.975419	0.000813	20.794869
1204.317284	-2.986200	3.516700	-10.500000	25.962235	0.000811	20.798693
1205.316969	-2.974600	3.516100	-10.457000	25.972720	0.000809	20.781252
1206.318025	-3.003500	3.514200	-10.552000	25.966138	0.000810	20.794553
1207.317492	-3.013200	3.514200	-10.588000	25.968525	0.000809	20.786521
1208.319362	-3.010500	3.513000	-10.575000	25.981324	0.000811	20.799853
1209.316439	-2.996500	3.513300	-10.526000	26.020449	0.000810	20.790798
1210.317570	-3.000400	3.512700	-10.539000	26.025147	0.000808	20.786509
1211.322749	-2.985600	3.514400	-10.490000	26.063372	0.000809	20.792673
1212.318886	-3.014000	3.513300	-10.587000	26.065985	0.000810	20.798617
1213.320485	-2.983400	3.512100	-10.477000	26.017504	0.000807	20.797796
1214.319118	-3.019300	3.510600	-10.599000	26.004388	0.000805	20.810697
1215.322105	-3.010200	3.511200	-10.567000	26.005659	0.000806	20.818138
1216.322675	-2.982300	3.511200	-10.470000	26.006477	0.000807	20.800942
1217.323647	-3.020000	3.511100	-10.603000	26.018380	0.000805	20.800099
1218.321968	-3.005400	3.509300	-10.546000	25.998016	0.000806	20.834167
1219.322231	-3.000300	3.511400	-10.535000	26.019725	0.000806	20.794338
1220.321094	-2.998000	3.509600	-10.522000	26.026564	0.000805	20.813063
1221.321788	-2.991200	3.510500	-10.500000	26.027156	0.000803	20.811287
1222.324585	-2.988700	3.508200	-10.483000	25.991712	0.000804	20.815979
1223.323451	-2.989900	3.508700	-10.489000	25.989084	0.000803	20.814287
1224.327730	-3.007100	3.508800	-10.550000	25.998547	0.000803	20.808148
1225.324983	-3.000300	3.507700	-10.523000	26.032058	0.000804	20.807678
1226.325497	-2.999900	3.506900	-10.519000	26.024162	0.000801	20.804960
1227.331985	-2.981300	3.509200	-10.461000	26.005207	0.000800	20.817210
1228.325690	-2.990000	3.507600	-10.487000	25.978630	0.000802	20.795250
1229.326238	-3.003900	3.505300	-10.528000	25.944427	0.000800	20.819683
1230.326417	-3.003000	3.505000	-10.525000	25.925601	0.000800	20.811676
1231.325753	-3.011900	3.505600	-10.558000	25.929574	0.000799	20.816141
1232.327678	-3.002000	3.505200	-10.521000	25.957547	0.000799	20.800621
1233.330087	-3.001600	3.504500	-10.518000	25.950390	0.000798	20.811923
1234.327881	-3.002200	3.506200	-10.525000	25.973097	0.000800	20.802019
1235.326846	-2.999700	3.504000	-10.510000	25.997786	0.000799	20.800745
1236.326861	-3.004600	3.502400	-10.522000	26.014054	0.000798	20.828943
1237.326514	-3.001600	3.503000	-10.513000	26.052431	0.000796	20.810603
1238.329415	-3.014900	3.503500	-10.562000	26.047237	0.000796	20.822454
1239.328276	-3.027900	3.501800	-10.602000	26.041824	0.000796	20.814644
1240.329145	-3.012200	3.500500	-10.544000	26.040433	0.000798	20.813247
1241.328528	-3.021200	3.501300	-10.577000	26.046022	0.000793	20.829293
1242.328878	-2.987100	3.501300	-10.457000	26.055756	0.000793	20.823901
1243.332833	-2.991400	3.500200	-10.470000	26.042697	0.000793	20.812677
1244.329455	-2.987900	3.500300	-10.457000	26.016065	0.000791	20.808205
1245.331990	-2.970400	3.500000	-10.395000	25.998057	0.000793	20.822829
1246.329616	-2.981700	3.500300	-10.436000	25.991296	0.000791	20.824570
1247.329903	-2.995200	3.498800	-10.478000	25.983822	0.000792	20.828915
1248.330145	-3.001600	3.499000	-10.501000	25.978035	0.000790	20.808403
1249.331237	-3.001400	3.498200	-10.499000	25.978285	0.000789	20.836154
1250.331436	-3.004300	3.498700	-10.510000	25.983276	0.000789	20.833582
1251.331038	-3.005200	3.497900	-10.510000	25.992370	0.000788	20.832287
1252.330410	-2.996900	3.497000	-10.478000	25.954687	0.000788	20.826671
1253.329778	-2.983500	3.496900	-10.432000	25.958241	0.000787	20.828819
1254.338020	-3.013800	3.497600	-10.539000	25.980226	0.000786	20.834785
1255.330570	-3.005500	3.495400	-10.503000	25.961421	0.000786	20.821109
1256.330748	-3.013300	3.496200	-10.533000	25.990534	0.000785	20.836133
1257.329530	-3.013000	3.495900	-10.532000	26.015924	0.000785	20.845520
1258.329622	-3.000200	3.495900	-10.487000	26.009863	0.000786	20.833267
1259.332191	-2.991800	3.495700	-10.456000	26.033860	0.000783	20.848368
1260.330172	-3.012000	3.494200	-10.523000	26.004724	0.000782	20.846595
1261.334293	-3.000300	3.493800	-10.481000	25.980285	0.000783	20.828206
1262.331032	-3.017200	3.492500	-10.535000	25.989125	0.000780	20.844674
1263.331270	-2.989200	3.494100	-10.442000	26.043105	0.000782	20.838216
1264.331884	-3.013800	3.491100	-10.520000	26.044943	0.000780	20.837693
1265.333302	-2.999900	3.492100	-10.475000	26.042038	0.000782	20.832877
1266.331324	-3.001200	3.491600	-10.478000	26.004336	0.000780	20.852369
1267.331344	-3.002800	3.490600	-10.480000	26.005033	0.000779	20.841216
1268.332247	-2.996400	3.491700	-10.460000	26.027313	0.000779	20.842738
1269.333633	-2.991400	3.492800	-10.448000	26.001508	0.000779	20.835778
1270.336722	-2.974700	3.492300	-10.387000	25.995598	0.000778	20.844539
1271.334024	-2.999500	3.488700	-10.462000	25.970483	0.000778	20.853445
1272.336824	-2.981200	3.491400	-10.407000	25.957046	0.000780	20.853222
1273.334024	-2.995300	3.490200	-10.453000	25.927093	0.000779	20.853476
1274.334358	-2.973400	3.492000	-10.382000	25.928432	0.000777	20.842019
1275.338694	-2.993600	3.488500	-10.443000	25.944035	0.000775	20.855323
1276.335370	-3.004800	3.487800	-10.479000	25.960902	0.000776	20.853777
1277.333798	-2.990500	3.489400	-10.434000	25.986761	0.000777	20.849411
1278.336143	-2.986500	3.489300	-10.419000	25.994365	0.000776	20.846145
1279.338017	-2.972300	3.489100	-10.369000	26.016817	0.000775	20.854003
1280.337209	-3.013200	3.487300	-10.506000	26.044168	0.000776	20.866783
1281.340962	-2.981500	3.488500	-10.400000	26.034779	0.000774	20.848816
1282.337567	-3.005200	3.486100	-10.476000	26.058575	0.000772	20.865138
1283.338350	-3.012700	3.485300	-10.499000	26.042231	0.000775	20.852510
1284.337779	-3.022500	3.484900	-10.531000	25.997696	0.000773	20.867509
1285.338156	-2.997700	3.485400	-10.447000	25.981527	0.000774	20.847471
1286.343238	-2.985700	3.485100	-10.404000	25.988310	0.000770	20.869932
1287.341831	-2.993800	3.484000	-10.430000	26.000081	0.000771	20.857103
1288.342873	-3.010800	3.483900	-10.488000	26.026632	0.000772	20.861494
1289.340486	-3.009300	3.484100	-10.484000	26.032768	0.000769	20.865761
1290.341173	-3.003500	3.482400	-10.459000	26.020399	0.000771	20.851912
1291.342949	-3.018900	3.482600	-10.512000	26.046281	0.000769	20.866536
1292.342786	-2.974800	3.483100	-10.359000	26.050528	0.000767	20.867484
1293.342413	-2.997900	3.481700	-10.437000	26.041833	0.000769	20.848791
1294.341996	-2.981000	3.484500	-10.385000	26.052215	0.000767	20.862067
1295.341790	-3.016900	3.480300	-10.498000	26.097244	0.000768	20.857050
1296.342298	-2.989900	3.482400	-10.411000	26.106931	0.000768	20.859197
1297.343625	-2.998200	3.481800	-10.438000	26.101691	0.000767	20.858674
1298.344094	-3.014500	3.479600	-10.489000	26.103977	0.000766	20.872349
1299.345202	-2.992900	3.480300	-10.415000	26.108770	0.000766	20.864363
1300.343505	-2.979400	3.479300	-10.365000	26.133998	0.000764	20.879755
1301.346350	-3.014500	3.478200	-10.484000	26.157321	0.000765	20.873319
1302.348919	-2.969600	3.479200	-10.331000	26.196310	0.000762	20.855599
1303.345638	-3.029800	3.477900	-10.536000	26.209374	0.000763	20.869674
1304.345718	-3.001100	3.477700	-10.436000	26.223180	0.000762	20.856997
1305.346820	-2.995900	3.477700	-10.418000	26.220473	0.000762	20.871819
1306.346764	-2.992500	3.478100	-10.406000	26.241184	0.000759	20.882674
1307.350756	-3.040400	3.477200	-10.571000	26.252632	0.000761	20.880427
1308.349014	-3.003600	3.476400	-10.441000	26.276895	0.000761	20.872094
1309.351206	-2.999300	3.476000	-10.425000	26.262093	0.000761	20.873814
1310.348339	-2.992300	3.476800	-10.402000	26.235050	0.000761	20.879355
1311.350143	-3.017300	3.473500	-10.479000	26.196282	0.000756	20.894923
1312.350933	-2.997600	3.474300	-10.414000	26.150313	0.000759	20.881450
1313.351001	-2.984800	3.474800	-10.371000	26.140478	0.000758	20.890058
1314.354222	-3.011000	3.473500	-10.457000	26.128308	0.000760	20.894424
1315.352901	-2.986800	3.473900	-10.374000	26.115218	0.000759	20.894548
1316.353676	-2.995200	3.472400	-10.400000	26.070162	0.000757	20.881521
1317.353839	-2.987800	3.473300	-10.376000	26.057921	0.000754	20.897669
1318.356511	-3.003800	3.472600	-10.430000	26.067109	0.000756	20.896943
1319.354517	-3.005000	3.471400	-10.430000	26.050342	0.000754	20.883891
1320.354589	-2.981900	3.472100	-10.353000	26.095571	0.000757	20.892825
1321.356103	-2.983800	3.471800	-10.358000	26.104189	0.000753	20.881096
1322.355044	-3.010800	3.471100	-10.450000	26.122571	0.000753	20.899565
1323.356946	-3.008000	3.469600	-10.435000	26.120554	0.000752	20.880470
1324.355485	-2.994900	3.469300	-10.390000	26.109577	0.000754	20.903104
1325.358794	-3.005600	3.469200	-10.426000	26.115884	0.000749	20.890002
1326.355426	-3.006400	3.468400	-10.426000	26.121723	0.000753	20.873584
1327.355777	-3.000800	3.468000	-10.405000	26.086722	0.000751	20.882512
1328.358578	-2.983000	3.469300	-10.348000	26.019565	0.000754	20.899435
1329.359225	-2.995700	3.467400	-10.385000	25.979798	0.000751	20.897888
1330.357874	-2.976700	3.467200	-10.319000	25.993185	0.000749	20.877675
1331.355751	-2.998800	3.468700	-10.400000	25.981235	0.000751	20.902177
1332.357407	-2.996300	3.467600	-10.388000	26.004385	0.000749	20.887978
1333.356459	-2.971600	3.467800	-10.303000	26.046218	0.000746	20.875955
1334.359131	-3.000600	3.465600	-10.397000	26.059928	0.000747	20.879299
1335.357191	-2.992200	3.466400	-10.371000	26.109031	0.000748	20.883116
1336.362069	-3.005200	3.465900	-10.415000	26.139284	0.000746	20.892178
1337.359373	-2.989200	3.465500	-10.357000	26.167051	0.000747	20.879776
1338.357831	-2.992500	3.465000	-10.369000	26.171322	0.000748	20.887861
1339.361635	-3.021100	3.462600	-10.459000	26.197303	0.000743	20.882200
1340.358812	-3.009100	3.464000	-10.421000	26.189781	0.000745	20.887443
1341.358483	-3.002300	3.462600	-10.394000	26.194024	0.000744	20.859467
1342.359046	-3.028300	3.461400	-10.480000	26.199391	0.000742	20.896151
1343.359354	-2.968700	3.463700	-10.282000	26.210789	0.000741	20.870148
1344.359377	-2.993900	3.462300	-10.365000	26.172125	0.000743	20.859746
1345.364423	-2.998000	3.462500	-10.378000	26.191795	0.000742	20.868131
1346.361000	-2.999100	3.462000	-10.382000	26.164131	0.000742	20.861196
1347.361197	-3.033800	3.459100	-10.492000	26.131153	0.000740	20.858405
1348.362407	-3.020800	3.460100	-10.451000	26.073880	0.000740	20.831680
1349.361037	-2.989400	3.460900	-10.344000	26.083643	0.000740	20.866617
1350.363750	-3.006200	3.459000	-10.398000	26.085182	0.000738	20.846827
1351.361447	-2.963900	3.460200	-10.254000	26.067274	0.000739	20.867240
1352.365968	-3.029600	3.458500	-10.476000	26.087118	0.000740	20.864894
1353.362374	-3.004400	3.459200	-10.391000	26.127581	0.000737	20.849601
1354.362890	-2.996600	3.459500	-10.365000	26.151595	0.000737	20.863298
1355.363374	-3.026600	3.457700	-10.464000	26.190263	0.000736	20.870385
1356.365129	-3.034800	3.455800	-10.487000	26.191904	0.000737	20.860655
1357.361964	-2.986200	3.455800	-10.319000	26.204098	0.000737	20.877175
1358.362290	-2.981500	3.457000	-10.306000	26.225279	0.000734	20.867639
1359.362987	-2.998600	3.456700	-10.364000	26.190587	0.000736	20.853168
1360.363727	-3.000200	3.457000	-10.370000	26.176924	0.000737	20.867413
1361.363582	-2.998200	3.454900	-10.357000	26.189217	0.000731	20.862222
1362.363337	-2.980300	3.456500	-10.300000	26.190904	0.000735	20.857754
1363.367246	-3.001900	3.454300	-10.369000	26.206003	0.000731	20.845426
1364.363418	-2.999600	3.454400	-10.361000	26.206278	0.000734	20.858504
1365.365242	-3.020500	3.453200	-10.429000	26.172301	0.000734	20.858500
1366.365522	-2.988300	3.453900	-10.321000	26.178657	0.000730	20.837387
1367.364571	-3.013800	3.453300	-10.406000	26.153225	0.000729	20.844075
1368.364486	-3.006600	3.452600	-10.379000	26.118803	0.000731	20.871599
1369.365975	-3.020900	3.451900	-10.426000	26.123402	0.000732	20.852039
1370.366528	-3.000900	3.452000	-10.358000	26.137681	0.000728	20.845051
1371.367303	-2.999900	3.450200	-10.349000	26.154493	0.000729	20.835392
1372.371474	-2.998400	3.450900	-10.346000	26.145179	0.000726	20.866334
1373.367729	-3.014600	3.450700	-10.402000	26.118535	0.000727	20.839563
1374.367239	-2.999400	3.449800	-10.347000	26.130381	0.000725	20.834397
1375.368855	-2.993300	3.450000	-10.325000	26.101645	0.000723	20.846774
1376.369267	-2.994200	3.449900	-10.329000	26.076888	0.000724	20.832331
1377.370453	-2.993500	3.449200	-10.324000	26.081854	0.000723	20.844432
1378.370738	-2.987100	3.448600	-10.300000	26.082628	0.000722	20.830512
1379.369734	-3.018100	3.447600	-10.404000	26.058508	0.000722	20.848950
1380.370878	-3.011700	3.448600	-10.385000	26.034345	0.000720	20.841268
1381.370836	-3.017800	3.446300	-10.399000	26.037528	0.000720	20.832613
1382.373936	-3.025700	3.446200	-10.426000	26.024990	0.000722	20.848465
1383.372014	-3.000900	3.445700	-10.340000	26.071682	0.000719	20.838480
1384.377414	-3.008000	3.446400	-10.365000	26.077151	0.000719	20.838285
1385.373184	-3.006600	3.445700	-10.358000	26.091034	0.000718	20.856026
1386.374485	-3.008200	3.444800	-10.362000	26.112128	0.000716	20.841186
1387.379045	-3.007900	3.445500	-10.363000	26.133761	0.000717	20.847276
1388.375060	-2.991400	3.444500	-10.303000	26.120499	0.000718	20.824942
1389.374490	-3.007300	3.444000	-10.355000	26.111163	0.000717	20.840217
1390.375963	-2.989700	3.444000	-10.296000	26.100764	0.000716	20.828820
1391.377356	-3.022300	3.441700	-10.402000	26.060557	0.000713	20.827301
1392.375928	-2.993000	3.442600	-10.303000	26.060458	0.000714	20.810607
1393.378549	-2.992900	3.442600	-10.302000	26.066075	0.000715	20.808190
1394.376804	-3.016100	3.441700	-10.380000	26.086296	0.000715	20.824241
1395.377000	-2.985200	3.442000	-10.274000	26.098992	0.000713	20.818505
1396.378444	-3.011400	3.442100	-10.364000	26.118914	0.000712	20.828090
1397.378277	-3.001400	3.440300	-10.325000	26.139011	0.000712	20.824102
1398.380937	-2.990700	3.440300	-10.287000	26.162509	0.000711	20.829222
1399.377598	-3.002300	3.439900	-10.327000	26.162883	0.000713	20.802571
1400.380927	-2.988100	3.440200	-10.279000	26.155611	0.000711	20.795264
1401.378735	-3.008000	3.439700	-10.345000	26.119677	0.000713	20.816530
1402.378104	-3.012200	3.438700	-10.358000	26.115631	0.000711	20.834749
1403.380225	-2.995400	3.439000	-10.300000	26.148269	0.000713	20.819180
1404.380754	-2.995900	3.437500	-10.297000	26.180729	0.000712	20.823348
1405.379921	-3.010100	3.438800	-10.350000	26.187786	0.000710	20.824750
1406.380166	-2.984400	3.438300	-10.260000	26.191286	0.000710	20.799344
1407.382693	-2.998000	3.437000	-10.303000	26.176514	0.000711	20.807259
1408.381991	-2.991700	3.437400	-10.281000	26.195937	0.000711	20.806863
1409.384546	-3.028300	3.436000	-10.404000	26.207561	0.000712	20.799577
1410.384542	-3.001400	3.435500	-10.310000	26.227727	0.000709	20.794712
1411.383306	-3.006000	3.436800	-10.331000	26.271087	0.000709	20.818844
1412.384117	-3.021000	3.434700	-10.375000	26.275336	0.000707	20.804623
1413.383749	-3.025400	3.433500	-10.387000	26.282090	0.000709	20.786280
1414.386966	-3.020400	3.433000	-10.367000	26.325102	0.000709	20.835195
1415.386167	-2.973700	3.434600	-10.212000	26.323063	0.000704	20.808965
1416.392539	-3.006000	3.432100	-10.315000	26.343378	0.000708	20.814209
1417.386183	-2.987800	3.434200	-10.259000	26.361285	0.000704	20.794273
1418.385630	-3.032600	3.431400	-10.405000	26.367939	0.000704	20.813289
1419.388687	-2.972500	3.432700	-10.202000	26.354061	0.000702	20.816410
1420.387421	-3.020200	3.430000	-10.359000	26.338717	0.000703	20.821377
1421.387603	-2.994900	3.433300	-10.281000	26.341252	0.000705	20.796899
1422.389351	-2.987600	3.430800	-10.249000	26.347389	0.000702	20.816342
1423.389282	-2.993600	3.431100	-10.270000	26.345456	0.000700	20.807288
1424.389494	-2.992300	3.429300	-10.260000	26.342079	0.000703	20.828550
1425.392761	-3.018000	3.428600	-10.347000	26.327753	0.000703	20.801350
1426.391011	-3.010500	3.428900	-10.322000	26.341143	0.000701	20.807220
1427.395197	-3.008400	3.427900	-10.311000	26.352839	0.000701	20.809492
1428.390158	-2.992200	3.429100	-10.258000	26.374294	0.000702	20.798813
1429.388916	-2.981200	3.427600	-10.217000	26.355001	0.000698	20.780371
1430.394026	-3.002800	3.427500	-10.291000	26.346069	0.000699	20.798895
1431.388883	-2.997600	3.427100	-10.272000	26.331866	0.000699	20.787939
1432.390588	-3.004600	3.426700	-10.295000	26.335196	0.000700	20.798399
1433.390719	-3.005000	3.426100	-10.294000	26.358092	0.000699	20.792486
1434.391805	-2.987100	3.426700	-10.234000	26.390895	0.000695	20.780884
1435.390802	-3.003500	3.427100	-10.292000	26.371432	0.000696	20.789773
1436.393855	-2.999500	3.424800	-10.271000	26.407213	0.000697	20.767413
1437.390580	-2.991900	3.424700	-10.245000	26.414761	0.000696	20.796811
1438.391889	-3.010500	3.424400	-10.308000	26.397236	0.000694	20.804326
1439.392298	-2.992600	3.424700	-10.248000	26.399520	0.000695	20.787657
1440.393137	-3.008000	3.422900	-10.295000	26.395975	0.000693	20.778404
1441.392647	-2.982600	3.424000	-10.212000	26.391085	0.000693	20.809524
1442.392629	-2.975500	3.423400	-10.186000	26.425925	0.000692	20.782901
1443.393879	-2.981900	3.423300	-10.207000	26.441546	0.000692	20.785799
1444.392697	-2.995500	3.423300	-10.254000	26.425707	0.000693	20.785527
1445.393442	-2.980200	3.420900	-10.193000	26.426732	0.000691	20.771383
1446.393407	-2.980400	3.422100	-10.198000	26.413178	0.000691	20.778149
1447.392827	-2.995900	3.420600	-10.247000	26.413030	0.000689	20.780371
1448.393900	-2.989000	3.421800	-10.227000	26.402109	0.000690	20.767024
1449.395068	-2.989300	3.420600	-10.224000	26.406534	0.000689	20.778411
1450.394851	-2.991600	3.420600	-10.232000	26.447081	0.000686	20.752481
1451.393941	-3.007800	3.420700	-10.287000	26.424666	0.000688	20.745598
1452.396021	-3.002800	3.417600	-10.261000	26.436188	0.000689	20.768560
1453.396163	-3.009000	3.418100	-10.284000	26.448039	0.000686	20.787584
1454.397146	-2.983400	3.420600	-10.204000	26.443247	0.000685	20.764750
1455.396166	-3.006900	3.417100	-10.274000	26.450647	0.000687	20.785938
1456.396291	-2.989900	3.417700	-10.217000	26.422600	0.000686	20.775765
1457.399626	-3.010900	3.416900	-10.287000	26.392206	0.000684	20.743320
1458.395632	-2.992900	3.417400	-10.226000	26.350496	0.000684	20.776792
1459.399760	-2.992600	3.416900	-10.225000	26.273674	0.000686	20.781141
1460.395785	-2.994300	3.417200	-10.230000	26.242381	0.000684	20.776721
1461.398357	-3.003800	3.414600	-10.256000	26.276213	0.000680	20.772787
1462.399200	-2.993900	3.415900	-10.226000	26.278399	0.000681	20.766449
1463.397392	-3.010800	3.414400	-10.278000	26.250414	0.000680	20.758714
1464.401319	-3.007800	3.414700	-10.270000	26.221438	0.000683	20.756149
1465.397787	-3.000500	3.415300	-10.247000	26.227424	0.000682	20.782079
1466.398119	-3.007800	3.412400	-10.262000	26.256858	0.000683	20.769932
1467.405154	-3.039800	3.412300	-10.371000	26.267537	0.000681	20.765017
1468.401314	-3.005900	3.413300	-10.259000	26.287829	0.000678	20.745105
1469.399259	-2.989800	3.412300	-10.201000	26.278795	0.000682	20.753096
1470.401283	-2.983300	3.413000	-10.180000	26.304273	0.000681	20.756889
1471.401013	-3.015900	3.411400	-10.287000	26.312892	0.000681	20.753223
1472.402751	-2.986400	3.411800	-10.188000	26.328757	0.000679	20.781022
1473.403673	-2.977300	3.411900	-10.158000	26.342098	0.000682	20.754600
1474.402486	-3.006200	3.409600	-10.250000	26.397792	0.000679	20.766479
1475.407103	-2.998700	3.410800	-10.226000	26.399232	0.000677	20.762236
1476.404207	-2.973200	3.412900	-10.145000	26.395708	0.000677	20.769600
1477.403851	-2.998900	3.410100	-10.224000	26.395786	0.000678	20.763040
1478.409335	-3.008500	3.408800	-10.254000	26.425179	0.000679	20.768400
1479.404081	-2.989900	3.409800	-10.194000	26.412495	0.000675	20.758970
1480.402976	-3.008100	3.409300	-10.255000	26.381083	0.000677	20.759643
1481.403488	-2.996100	3.408000	-10.209000	26.342672	0.000677	20.768928
1482.404371	-3.005400	3.406600	-10.237000	26.334627	0.000676	20.762265
1483.404469	-2.998600	3.407000	-10.216000	26.362786	0.000675	20.761642
1484.408547	-2.989200	3.407600	-10.185000	26.374855	0.000673	20.748167
1485.405084	-2.994600	3.406200	-10.199000	26.378182	0.000673	20.785651
1486.404117	-2.995600	3.406900	-10.204000	26.393525	0.000670	20.752707
1487.405638	-3.016300	3.406400	-10.273000	26.394022	0.000671	20.755103
1488.405142	-3.004500	3.405500	-10.231000	26.407756	0.000672	20.756579
1489.407724	-3.000100	3.405100	-10.215000	26.401972	0.000670	20.753136
1490.402798	-2.977500	3.406300	-10.140000	26.402443	0.000672	20.741755
1491.406157	-2.993200	3.404000	-10.188000	26.404454	0.000670	20.754682
1492.406111	-3.021300	3.404000	-10.284000	26.377711	0.000669	20.756253
1493.405818	-3.005400	3.403000	-10.226000	26.389062	0.000671	20.749643
1494.407623	-3.006300	3.403600	-10.231000	26.437054	0.000668	20.739558
1495.406885	-2.989400	3.404000	-10.175000	26.431492	0.000668	20.745347
1496.405593	-2.999300	3.402400	-10.203000	26.439462	0.000668	20.753833
1497.406127	-2.992500	3.402700	-10.182000	26.461314	0.000666	20.745924
1498.406843	-2.990800	3.401800	-10.173000	26.406341	0.000667	20.745673
1499.406610	-2.997500	3.401200	-10.193000	26.417786	0.000664	20.748641
1500.406379	-3.033400	3.399500	-10.311000	26.391765	0.000663	20.758999
1501.406774	-2.984800	3.400800	-10.149000	26.337979	0.000666	20.730545
1502.408183	-3.014100	3.398700	-10.242000	26.340940	0.000663	20.750591
1503.407735	-3.016000	3.399600	-10.253000	26.328370	0.000662	20.769728
1504.408317	-3.012100	3.399000	-10.238000	26.368599	0.000663	20.749940
1505.412530	-2.984900	3.399700	-10.146000	26.392315	0.000663	20.752913
1506.409083	-2.987000	3.398800	-10.151000	26.403317	0.000662	20.726985
1507.411125	-3.011800	3.396900	-10.230000	26.443814	0.000662	20.743507
1508.408901	-3.021900	3.397800	-10.267000	26.370244	0.000661	20.741635
1509.408498	-3.020600	3.397600	-10.262000	26.369920	0.000660	20.766441
1510.410789	-3.018300	3.396600	-10.251000	26.348021	0.000656	20.752492
1511.410396	-3.017200	3.396300	-10.246000	26.321727	0.000658	20.738394
1512.409236	-2.986300	3.397000	-10.144000	26.305066	0.000656	20.752945
1513.409172	-2.994500	3.395700	-10.167000	26.273331	0.000656	20.747131
1514.408530	-2.997300	3.396700	-10.180000	26.267944	0.000655	20.744562
1515.408719	-3.012500	3.395900	-10.229000	26.275194	0.000657	20.747581
1516.414803	-3.023000	3.395000	-10.262000	26.253941	0.000656	20.731912
1517.409883	-2.996300	3.394800	-10.169000	26.234645	0.000655	20.744764
1518.411767	-3.007500	3.394600	-10.208000	26.242666	0.000654	20.751877
1519.411715	-3.010600	3.393400	-10.215000	26.238547	0.000651	20.747737
1520.408906	-3.009000	3.392800	-10.208000	26.247043	0.000653	20.747740
1521.413016	-3.004700	3.391400	-10.189000	26.264994	0.000652	20.755822
1522.410598	-3.009000	3.392200	-10.206000	26.289807	0.000652	20.741403
1523.411111	-2.994100	3.391800	-10.154000	26.289737	0.000652	20.754135
1524.410779	-2.993600	3.391900	-10.152000	26.302948	0.000649	20.736116
1525.410003	-3.001300	3.391000	-10.176000	26.335329	0.000651	20.740211
1526.411193	-2.974000	3.391400	-10.085000	26.347723	0.000650	20.738916
1527.412383	-2.962500	3.393000	-10.051000	26.351994	0.000650	20.748898
1528.411185	-2.991200	3.389400	-10.137000	26.374963	0.000648	20.743534
1529.413673	-3.005300	3.389800	-10.187000	26.407293	0.000646	20.739517
1530.412356	-3.005400	3.390100	-10.188000	26.411416	0.000647	20.720901
1531.414160	-2.986900	3.389300	-10.122000	26.441961	0.000648	20.740222
1532.416329	-2.988000	3.389800	-10.127000	26.449086	0.000645	20.729840
1533.414003	-3.010300	3.387700	-10.196000	26.453086	0.000645	20.753775
1534.417407	-2.986800	3.388200	-10.118000	26.437321	0.000646	20.750732
1535.416235	-3.006900	3.386400	-10.181000	26.412744	0.000644	20.736935
1536.416767	-3.004300	3.386700	-10.174000	26.412273	0.000643	20.714649
1537.418978	-3.023100	3.387000	-10.238000	26.331426	0.000644	20.750987
1538.419157	-3.011300	3.386100	-10.196000	26.337018	0.000643	20.726259
1539.418832	-3.027200	3.385500	-10.248000	26.343799	0.000644	20.728808
1540.419246	-3.015700	3.384700	-10.206000	26.352122	0.000645	20.732906
1541.421701	-3.006000	3.384200	-10.172000	26.398828	0.000641	20.733854
1542.419953	-3.015500	3.384800	-10.206000	26.348873	0.000641	20.714940
1543.420971	-2.999000	3.384300	-10.148000	26.327297	0.000641	20.717439
1544.420636	-3.019000	3.382400	-10.210000	26.321858	0.000642	20.741845
1545.426311	-2.996800	3.383200	-10.137000	26.296511	0.000640	20.736286
1546.421851	-3.014800	3.382100	-10.195000	26.327921	0.000639	20.722807
1547.420884	-2.990000	3.381600	-10.110000	26.319063	0.000638	20.719120
1548.429453	-3.016800	3.382000	-10.202000	26.323383	0.000639	20.710185
1549.422741	-3.017300	3.381000	-10.201000	26.320158	0.000636	20.730653
1550.422736	-2.992000	3.382600	-10.121000	26.345963	0.000639	20.722921
1551.424603	-3.009100	3.380200	-10.170000	26.361655	0.000637	20.723045
1552.422828	-2.996800	3.381800	-10.134000	26.348794	0.000637	20.739518
1553.421697	-3.015800	3.380100	-10.192000	26.364838	0.000637	20.731461
1554.423023	-3.006200	3.380600	-10.161000	26.386367	0.000638	20.739348
1555.422732	-3.013200	3.377300	-10.175000	26.387512	0.000638	20.738602
1556.422374	-3.001700	3.378600	-10.139000	26.394662	0.000636	20.723502
1557.423639	-2.989000	3.380600	-10.104000	26.398613	0.000639	20.722257
1558.423222	-3.000800	3.377800	-10.135000	26.427816	0.000635	20.714150
1559.427177	-2.999700	3.379300	-10.136000	26.454115	0.000635	20.705021
1560.424424	-3.010500	3.378900	-10.171000	26.478772	0.000634	20.732651
1561.424878	-3.001600	3.378700	-10.141000	26.455062	0.000634	20.728260
1562.423374	-3.006300	3.376600	-10.150000	26.414840	0.000632	20.718178
1563.422714	-2.991200	3.378000	-10.103000	26.390957	0.000631	20.716458
1564.425972	-2.999600	3.377200	-10.130000	26.396396	0.000631	20.714339
1565.426802	-3.001100	3.376400	-10.132000	26.369460	0.000630	20.719509
1566.424619	-3.015800	3.375400	-10.178000	26.332295	0.000631	20.722935
1567.427866	-3.029500	3.375200	-10.224000	26.330211	0.000631	20.717047
1568.425441	-3.035900	3.374400	-10.243000	26.339146	0.000630	20.728399
1569.424829	-3.003800	3.374200	-10.134000	26.369545	0.000629	20.720070
1570.426752	-3.024400	3.374400	-10.205000	26.382657	0.000629	20.722816
1571.426695	-2.988800	3.374900	-10.086000	26.342834	0.000631	20.726889
1572.426065	-2.983300	3.372500	-10.060000	26.334169	0.000628	20.714387
1573.427290	-2.977000	3.374400	-10.044000	26.330370	0.000627	20.714837
1574.427920	-2.995600	3.373300	-10.104000	26.331543	0.000628	20.713645
1575.430558	-2.971500	3.375100	-10.028000	26.379743	0.000628	20.714671
1576.428184	-2.983100	3.372800	-10.061000	26.399861	0.000625	20.716399
1577.427124	-2.998400	3.373200	-10.113000	26.406437	0.000626	20.731544
1578.427627	-2.996800	3.370900	-10.100000	26.361552	0.000626	20.690223
1579.432433	-2.993500	3.371300	-10.092000	26.343752	0.000623	20.702206
1580.430280	-3.023800	3.371200	-10.192000	26.375016	0.000627	20.717507
1581.430213	-3.014300	3.370200	-10.158000	26.392472	0.000624	20.721775
1582.431576	-2.990400	3.371400	-10.081000	26.384160	0.000623	20.730017
1583.431144	-3.028900	3.369200	-10.205000	26.372637	0.000623	20.718435
1584.431448	-3.007500	3.369300	-10.132000	26.347066	0.000621	20.735410
1585.434237	-2.987700	3.370900	-10.069000	26.388738	0.000624	20.719445
1586.432374	-3.006100	3.368600	-10.125000	26.412256	0.000620	20.705623
1587.436287	-2.992600	3.368200	-10.079000	26.401582	0.000623	20.731880
1588.433552	-2.981100	3.369200	-10.043000	26.428050	0.000620	20.706324
1589.433666	-3.018500	3.365600	-10.158000	26.431011	0.000622	20.728742
1590.438629	-3.015000	3.365600	-10.146000	26.395707	0.000619	20.720285
1591.433181	-2.983700	3.366400	-10.043000	26.372295	0.000618	20.729946
1592.433581	-2.994200	3.367800	-10.083000	26.359934	0.000619	20.733644
1593.433629	-3.004200	3.365100	-10.109000	26.362371	0.000619	20.731826
1594.433063	-3.009100	3.365500	-10.126000	26.391326	0.000616	20.716355
1595.434125	-2.996900	3.366700	-10.088000	26.432968	0.000615	20.706999
1596.435838	-3.005100	3.366300	-10.115000	26.447944	0.000614	20.726795
1597.434053	-3.022300	3.362800	-10.163000	26.451275	0.000616	20.724453
1598.434752	-2.989300	3.364200	-10.055000	26.463019	0.000615	20.722507
1599.435656	-2.978400	3.364900	-10.020000	26.470079	0.000614	20.716800
1600.435601	-3.000300	3.361600	-10.085000	26.481425	0.000615	20.711134
1601.438650	-2.992800	3.363100	-10.064000	26.509384	0.000612	20.715530
1602.435636	-2.997400	3.363100	-10.079000	26.475969	0.000614	20.748801
1603.436522	-3.012300	3.362200	-10.127000	26.481884	0.000614	20.722502
1604.435451	-2.997500	3.362000	-10.077000	26.479005	0.000612	20.719608
1605.437429	-2.981000	3.361400	-10.020000	26.492414	0.000612	20.724077
1606.437329	-2.996300	3.361200	-10.069000	26.486482	0.000612	20.737082
1607.436636	-3.001600	3.360300	-10.085000	26.468286	0.000611	20.717369
1608.437743	-3.006900	3.361500	-10.105000	26.448604	0.000612	20.710862
1609.436134	-2.993600	3.360900	-10.060000	26.454634	0.000608	20.727829
1610.436350	-3.001900	3.360700	-10.087000	26.462982	0.000609	20.724366
1611.438983	-2.986300	3.360000	-10.033000	26.514675	0.000609	20.730332
1612.435894	-3.005200	3.360100	-10.097000	26.539433	0.000609	20.731511
1613.438802	-2.992400	3.359900	-10.053000	26.530426	0.000608	20.729095
1614.436953	-2.990000	3.359500	-10.043000	26.525438	0.000607	20.727874
1615.437101	-3.000400	3.357600	-10.073000	26.532292	0.000606	20.731919
1616.440803	-3.015200	3.356400	-10.119000	26.515310	0.000604	20.749464
1617.441515	-2.994000	3.358600	-10.055000	26.555089	0.000605	20.733973
1618.437677	-3.022700	3.355600	-10.142000	26.576340	0.000603	20.716927
1619.438363	-3.026100	3.355600	-10.154000	26.513436	0.000606	20.739044
1620.437521	-3.012200	3.355700	-10.106000	26.467104	0.000603	20.747476
1621.439313	-3.007900	3.354900	-10.091000	26.426764	0.000604	20.738698
1622.441341	-2.979600	3.356900	-10.001000	26.385819	0.000604	20.726942
1623.439287	-2.994500	3.354900	-10.045000	26.414453	0.000604	20.733437
1624.444368	-2.988800	3.355400	-10.028000	26.405764	0.000602	20.711426
1625.441472	-3.000100	3.355400	-10.066000	26.422050	0.000601	20.728744
1626.440624	-2.991000	3.354900	-10.033000	26.443882	0.000600	20.731721
1627.447165	-3.035100	3.354000	-10.179000	26.427371	0.000603	20.739782
1628.442776	-3.021700	3.353300	-10.131000	26.448874	0.000601	20.736739
1629.443692	-3.010200	3.353600	-10.094000	26.466230	0.000600	20.737589
1630.444941	-3.009600	3.350900	-10.083000	26.494140	0.000597	20.746202
1631.443773	-3.003200	3.352700	-10.068000	26.491732	0.000598	20.728608
1632.443523	-2.991000	3.351500	-10.023000	26.502336	0.000599	20.750647
1633.446476	-2.997200	3.352900	-10.048000	26.523518	0.000596	20.724522
1634.444382	-2.989600	3.352400	-10.021000	26.542095	0.000597	20.754102
1635.443689	-3.015100	3.350300	-10.100000	26.578789	0.000597	20.749736
1636.444194	-2.987400	3.351200	-10.011000	26.609719	0.000596	20.737205
1637.443831	-3.017300	3.349200	-10.104000	26.632711	0.000596	20.736137
1638.448640	-3.000600	3.350100	-10.052000	26.595724	0.000595	20.734043
1639.446743	-3.009800	3.348800	-10.078000	26.575266	0.000593	20.735288
1640.445723	-3.005200	3.349500	-10.064000	26.538125	0.000594	20.745844
1641.445714	-2.989000	3.350000	-10.012000	26.539843	0.000594	20.753735
1642.447746	-2.981700	3.349500	-9.984900	26.529244	0.000596	20.745926
1643.446169	-2.998800	3.347200	-10.036000	26.498677	0.000593	20.723260
1644.449742	-3.011700	3.348200	-10.081000	26.489522	0.000594	20.776648
1645.446494	-3.011800	3.346700	-10.079000	26.461890	0.000589	20.739865
1646.445863	-3.022000	3.347500	-10.116000	26.466850	0.000592	20.753859
1647.449896	-3.006200	3.345900	-10.057000	26.495379	0.000592	20.736542
1648.446885	-2.981300	3.348000	-9.980400	26.521000	0.000593	20.738112
1649.448857	-2.987500	3.347200	-9.997600	26.532694	0.000591	20.750342
1650.446359	-3.019100	3.346000	-10.101000	26.589145	0.000591	20.742603
1651.448145	-3.008800	3.345200	-10.064000	26.589814	0.000590	20.765087
1652.452012	-3.023300	3.344300	-10.110000	26.584999	0.000590	20.748866
1653.449723	-2.992100	3.344100	-10.005000	26.576484	0.000590	20.736987
1654.447792	-2.992800	3.343200	-10.004000	26.541349	0.000588	20.724427
1655.448954	-2.997300	3.344400	-10.023000	26.504407	0.000587	20.753204
1656.450825	-3.006800	3.341800	-10.047000	26.496782	0.000586	20.745064
1657.450785	-2.997000	3.342700	-10.017000	26.471481	0.000589	20.738599
1658.452249	-2.992300	3.342300	-10.000000	26.447172	0.000587	20.754944
1659.451075	-3.002000	3.341900	-10.032000	26.440465	0.000585	20.748202
1660.451946	-2.994900	3.341500	-10.007000	26.459979	0.000584	20.754539
1661.452522	-2.995100	3.342300	-10.010000	26.507369	0.000584	20.762819
1662.454039	-2.992900	3.342200	-10.002000	26.540020	0.000582	20.767664
1663.451430	-3.010000	3.341300	-10.055000	26.577431	0.000583	20.758803
1664.454070	-2.995100	3.341500	-10.007000	26.602750	0.000583	20.759124
1665.453362	-2.993900	3.340300	-9.999000	26.595503	0.000581	20.762270
1666.452973	-2.983500	3.340200	-9.964300	26.567800	0.000581	20.742483
1667.455998	-3.020500	3.338100	-10.081000	26.490986	0.000583	20.768637
1668.455711	-2.991300	3.339400	-9.987800	26.540664	0.000579	20.759302
1669.454252	-2.998400	3.339600	-10.012000	26.552903	0.000580	20.740784
1670.455118	-3.019800	3.338800	-10.082000	26.637732	0.000577	20.772954
1671.454308	-2.975100	3.339100	-9.932600	26.647440	0.000579	20.784610
1672.455865	-3.015600	3.337500	-10.063000	26.695027	0.000578	20.774129
1673.457073	-2.979300	3.338700	-9.946100	26.703893	0.000577	20.782569
1674.454063	-2.987200	3.337900	-9.968900	26.723628	0.000577	20.752622
1675.459949	-3.019500	3.336400	-10.073000	26.756493	0.000573	20.761009
1676.454801	-3.008500	3.336400	-10.037000	26.701761	0.000576	20.762881
1677.455140	-3.004900	3.334800	-10.019000	26.733290	0.000573	20.780829
1678.460957	-2.997800	3.335700	-9.999200	26.703824	0.000575	20.781550
1679.457269	-2.969200	3.336000	-9.903900	26.697446	0.000574	20.761388
1680.455180	-2.989300	3.334300	-9.966600	26.668254	0.000574	20.776611
1681.455309	-2.985300	3.334400	-9.953100	26.637998	0.000571	20.788395
1682.455868	-3.033100	3.332900	-10.108000	26.659772	0.000572	20.773774
1683.456861	-2.984900	3.332500	-9.946500	26.686533	0.000573	20.787401
1684.461146	-3.009400	3.332300	-10.027000	26.708729	0.000571	20.771783
1685.457602	-2.989100	3.333300	-9.962400	26.732461	0.000570	20.773358
1686.458011	-3.004600	3.332000	-10.010000	26.760065	0.000571	20.782618
1687.458383	-3.005000	3.332800	-10.015000	26.777219	0.000570	20.778528
1688.459290	-3.003200	3.331700	-10.005000	26.798736	0.000572	20.782618
1689.462371	-3.000900	3.330300	-9.992900	26.807450	0.000570	20.779526
1690.459229	-2.962000	3.332300	-9.868900	26.835401	0.000568	20.758791
1691.460686	-2.980700	3.330500	-9.925800	26.851090	0.000568	20.785472
1692.461581	-3.024200	3.329100	-10.067000	26.823214	0.000568	20.770719
1693.459897	-3.003800	3.330000	-10.001000	26.837763	0.000567	20.780132
1694.466966	-2.987000	3.329200	-9.943200	26.801549	0.000567	20.780705
1695.461046	-3.008900	3.328400	-10.014000	26.799413	0.000565	20.800368
1696.462505	-2.996400	3.328200	-9.971300	26.745035	0.000565	20.785525
1697.461797	-2.995600	3.328900	-9.970800	26.756575	0.000563	20.807085
1698.462168	-3.004300	3.327400	-9.994500	26.725797	0.000566	20.785150
1699.461321	-2.996300	3.328800	-9.973000	26.754718	0.000565	20.791467
1700.462871	-2.987200	3.327600	-9.939900	26.751019	0.000565	20.767833
1701.463578	-2.992000	3.326200	-9.951300	26.751019	0.000562	20.790118
1702.469492	-2.998400	3.327200	-9.974200	26.775841	0.000563	20.786626
1703.463057	-2.982600	3.327200	-9.922900	26.814389	0.000563	20.770381
1704.463526	-2.986500	3.325800	-9.930500	26.782641	0.000561	20.791091
1705.467937	-2.992000	3.324900	-9.946800	26.809694	0.000560	20.794584
1706.463842	-2.983100	3.326000	-9.920500	26.822078	0.000560	20.778586
1707.463920	-2.994100	3.323900	-9.950300	26.814409	0.000559	20.803118
1708.465145	-2.972600	3.324400	-9.881300	26.831956	0.000560	20.802743
1709.464735	-3.005900	3.323000	-9.987600	26.843942	0.000558	20.799622
1710.465114	-2.992400	3.323300	-9.943700	26.861690	0.000560	20.797552
1711.468035	-3.006800	3.322100	-9.987700	26.867295	0.000560	20.789912
1712.465534	-3.009800	3.322500	-9.998800	26.875258	0.000557	20.795074
1713.464861	-3.002900	3.324300	-9.980600	26.869722	0.000556	20.791879
1714.464546	-3.015400	3.321200	-10.014000	26.841281	0.000557	20.784144
1715.465596	-3.004000	3.322200	-9.978300	26.835844	0.000554	20.798591
1716.467035	-3.000000	3.322300	-9.965300	26.833486	0.000555	20.822299
1717.464842	-3.003800	3.322000	-9.976900	26.841125	0.000554	20.803902
1718.467602	-3.003500	3.321200	-9.974600	26.803948	0.000553	20.805403
1719.465658	-3.002500	3.320400	-9.968500	26.832981	0.000554	20.791446
1720.465989	-3.018100	3.318600	-10.014000	26.824267	0.000553	20.813030
1721.468283	-3.008200	3.319300	-9.984400	26.834355	0.000551	20.819380
1722.466721	-2.995900	3.317800	-9.939600	26.847850	0.000552	20.783163
1723.472442	-2.999800	3.319800	-9.957400	26.841100	0.000552	20.826162
1724.468186	-2.959700	3.320200	-9.825600	26.789272	0.000551	20.799181
1725.467790	-2.986400	3.319400	-9.911900	26.791732	0.000549	20.790275
1726.471640	-3.020000	3.317200	-10.016000	26.776817	0.000547	20.802306
1727.468327	-2.978800	3.317300	-9.881000	26.796727	0.000547	20.819953
1728.467997	-2.998300	3.316000	-9.942100	26.788558	0.000546	20.818852
1729.468970	-2.986700	3.317500	-9.907500	26.785802	0.000546	20.808021
1730.469199	-3.019100	3.316600	-10.012000	26.802140	0.000543	20.801214
1731.468970	-2.964800	3.318200	-9.836800	26.814922	0.000544	20.806479
1732.471861	-3.001500	3.315500	-9.949800	26.812023	0.000543	20.824900
1733.471307	-3.008600	3.315900	-9.975000	26.811650	0.000543	20.806508
1734.473247	-3.000900	3.314100	-9.943500	26.827687	0.000542	20.822159
1735.473643	-2.957800	3.315400	-9.805400	26.849199	0.000542	20.837150
1736.472473	-3.001500	3.314600	-9.947600	26.851861	0.000544	20.801420
1737.477102	-2.997100	3.313200	-9.929400	26.816767	0.000542	20.811179
1738.472980	-2.991300	3.314700	-9.914500	26.782714	0.000542	20.821985
1739.474453	-2.992300	3.313800	-9.915400	26.771942	0.000543	20.834387
1740.472726	-3.015100	3.312400	-9.986600	26.739675	0.000540	20.806689
1741.475309	-2.999500	3.312100	-9.934400	26.702368	0.000541	20.827502
1742.476633	-2.998900	3.312400	-9.933200	26.689806	0.000540	20.833365
1743.476990	-3.007700	3.311400	-9.958200	26.675431	0.000541	20.825078
1744.474453	-3.007700	3.310500	-9.955200	26.672847	0.000542	20.834808
1745.474468	-3.002800	3.310700	-9.939600	26.675780	0.000541	20.842971
1746.474617	-3.030200	3.309000	-10.026000	26.679848	0.000538	20.819561
1747.473986	-3.003100	3.308900	-9.936000	26.718268	0.000539	20.846805
1748.476551	-3.017600	3.309600	-9.984700	26.754980	0.000539	20.836774
1749.473798	-3.009500	3.310200	-9.960500	26.748677	0.000539	20.835179
1750.474597	-3.009300	3.307900	-9.953500	26.693788	0.000537	20.835471
1751.473936	-3.031000	3.308400	-10.026000	26.725559	0.000538	20.835170
1752.475486	-3.013300	3.307800	-9.966400	26.729779	0.000536	20.830404
1753.478610	-2.997600	3.308500	-9.916300	26.724386	0.000536	20.840155
1754.477006	-3.013900	3.307200	-9.966100	26.717985	0.000537	20.848892
1755.476191	-2.986900	3.307400	-9.877900	26.736497	0.000533	20.826252
1756.476708	-3.011200	3.305700	-9.953200	26.723583	0.000534	20.841718
1757.477204	-2.999700	3.306700	-9.918400	26.755427	0.000536	20.853818
1758.479177	-2.994600	3.305000	-9.896300	26.738695	0.000534	20.855962
1759.477042	-3.007800	3.305600	-9.941200	26.795681	0.000533	20.848772
1760.477447	-3.010300	3.306700	-9.952600	26.797141	0.000533	20.862093
1761.478560	-3.009300	3.305400	-9.945000	26.800217	0.000532	20.841953
1762.478851	-3.019300	3.303400	-9.973000	26.770830	0.000531	20.849864
1763.481383	-2.991600	3.303800	-9.882900	26.787402	0.000532	20.846612
1764.480275	-2.984100	3.303800	-9.858400	26.774094	0.000531	20.847457
1765.482912	-3.010800	3.301700	-9.939700	26.742620	0.000530	20.838098
1766.484941	-3.001100	3.303100	-9.912400	26.722336	0.000528	20.853266
1767.479882	-3.009600	3.302400	-9.937400	26.741394	0.000529	20.845874
1768.482566	-3.005500	3.302200	-9.923900	26.734889	0.000528	20.872524
1769.480195	-2.990600	3.302400	-9.875300	26.780582	0.000528	20.856350
1770.480607	-3.006600	3.301100	-9.923900	26.776781	0.000527	20.866278
1771.479862	-2.986500	3.300600	-9.855800	26.810038	0.000526	20.857991
1772.480401	-2.988700	3.301500	-9.865000	26.817132	0.000527	20.862279
1773.481540	-3.010600	3.300500	-9.934400	26.836889	0.000525	20.868393
1774.482782	-2.990200	3.300200	-9.867700	26.827405	0.000524	20.854115
1775.481255	-2.994300	3.300700	-9.882500	26.834302	0.000523	20.860576
1776.481543	-3.015100	3.299900	-9.948700	26.821344	0.000523	20.856556
1777.480706	-2.975600	3.299400	-9.817100	26.823845	0.000522	20.875192
1778.482781	-2.977500	3.300800	-9.826400	26.814664	0.000522	20.858849
1779.483377	-2.995100	3.298100	-9.877000	26.783059	0.000520	20.883495
1780.481658	-2.994600	3.298500	-9.876400	26.774275	0.000520	20.880353
1781.483294	-3.032600	3.297000	-9.995800	26.784896	0.000521	20.860213
1782.482904	-3.011200	3.297100	-9.926100	26.826171	0.000520	20.869469
1783.480935	-2.993400	3.296300	-9.866100	26.838181	0.000519	20.884864
1784.484837	-3.006000	3.296200	-9.907700	26.875632	0.000518	20.880795
1785.482403	-3.012100	3.296300	-9.928100	26.880097	0.000517	20.898560
1786.482612	-3.019400	3.294600	-9.946600	26.886150	0.000519	20.892792
1787.482306	-2.998000	3.297000	-9.883700	26.921364	0.000517	20.887898
1788.481586	-3.034200	3.293600	-9.992300	26.902945	0.000516	20.880758
1789.482754	-2.991400	3.295100	-9.855400	26.930618	0.000513	20.859748
1790.485045	-2.990900	3.295400	-9.855500	26.929970	0.000514	20.876165
1791.483486	-3.010200	3.294300	-9.915700	26.953965	0.000514	20.867103
1792.488957	-3.001800	3.291600	-9.879100	26.961235	0.000511	20.882473
1793.483481	-2.995800	3.292600	-9.863600	26.964781	0.000513	20.884617
1794.483550	-3.007800	3.293600	-9.905600	26.981206	0.000512	20.886435
1795.489010	-3.000300	3.292600	-9.877200	26.961473	0.000511	20.895039
1796.486507	-2.998600	3.292100	-9.870500	26.950484	0.000510	20.866922
1797.486943	-3.007400	3.291100	-9.896300	26.952862	0.000509	20.888278
1798.487157	-3.018200	3.291500	-9.933000	26.954572	0.000508	20.875774
1799.486758	-3.000900	3.291900	-9.877600	26.921442	0.000507	20.879443
1800.487698	-3.012600	3.290500	-9.912200	26.892330	0.000507	20.891894
1801.492435	-2.998700	3.290100	-9.865100	26.912733	0.000506	20.901030
1802.490715	-2.994400	3.290300	-9.851200	26.913524	0.000503	20.910359
1803.488618	-2.998200	3.291600	-9.867900	26.953608	0.000505	20.871012
1804.488082	-2.989400	3.289700	-9.832700	27.000780	0.000503	20.895687
1805.488868	-2.988300	3.289600	-9.828600	27.014630	0.000505	20.880218
1806.494614	-2.988900	3.290300	-9.833900	26.981604	0.000504	20.891576
1807.490002	-2.999600	3.288300	-9.862000	26.941623	0.000502	20.873659
1808.491755	-3.003200	3.288100	-9.872600	26.894421	0.000504	20.897789
1809.489331	-2.971600	3.287800	-9.768800	26.890082	0.000503	20.860713
1810.489747	-2.998300	3.287700	-9.856500	26.930606	0.000502	20.877753
1811.490457	-3.002000	3.287200	-9.867100	26.984068	0.000500	20.884097
1812.494210	-3.008400	3.285100	-9.881900	26.989304	0.000502	20.895051
1813.492293	-3.003400	3.286300	-9.869000	26.976200	0.000500	20.875238
1814.489316	-3.014000	3.284800	-9.899500	26.959824	0.000501	20.864935
1815.489356	-3.005600	3.284700	-9.871900	26.918506	0.000500	20.876491
1816.490633	-2.994800	3.284200	-9.834400	26.932529	0.000497	20.873996
1817.489484	-2.989900	3.283600	-9.817200	26.926325	0.000498	20.857328
1818.488953	-2.997700	3.283500	-9.842100	26.933300	0.000496	20.867660
1819.492116	-2.998700	3.283500	-9.845700	26.968492	0.000495	20.854211
1820.491313	-3.019400	3.283800	-9.913000	27.009439	0.000496	20.848921
1821.495143	-2.964100	3.285300	-9.736200	27.035846	0.000494	20.872632
1822.490961	-2.991800	3.283500	-9.821000	27.004035	0.000495	20.852496
1823.493744	-2.993000	3.282200	-9.822600	27.017585	0.000494	20.842889
1824.491385	-2.974800	3.282500	-9.764400	26.989914	0.000495	20.866744
1825.491546	-2.991400	3.280200	-9.811300	26.975621	0.000495	20.858536
1826.494615	-3.001800	3.281000	-9.847000	26.990460	0.000492	20.860181
1827.493419	-3.012800	3.280400	-9.881700	27.032107	0.000493	20.854173
1828.492614	-3.001200	3.280600	-9.844500	27.048929	0.000490	20.854495
1829.492698	-3.009500	3.278700	-9.866300	27.067345	0.000491	20.823705
1830.490802	-3.021100	3.278700	-9.904200	27.035284	0.000489	20.853102
1831.492604	-3.018300	3.280000	-9.899200	27.028610	0.000488	20.837855
1832.494748	-2.995800	3.278700	-9.821300	27.007622	0.000488	20.866060
1833.494690	-3.017200	3.278200	-9.889200	27.002509	0.000488	20.846694
1834.496492	-3.008200	3.277500	-9.858000	26.972706	0.000487	20.839958
1835.494651	-2.968500	3.279800	-9.734100	26.978987	0.000488	20.848645
1836.494987	-3.003000	3.277800	-9.841200	26.923770	0.000486	20.825836
1837.501533	-2.964400	3.278700	-9.717500	26.935735	0.000485	20.857307
1838.494780	-2.981700	3.277800	-9.772000	26.934398	0.000484	20.829885
1839.496520	-2.997800	3.275600	-9.818000	26.992444	0.000483	20.827564
1840.494438	-3.001100	3.274900	-9.827500	27.008700	0.000483	20.852920
1841.493921	-2.984200	3.275200	-9.772200	27.020537	0.000483	20.836375
1842.494908	-2.991000	3.276200	-9.798400	27.032730	0.000480	20.843421
1843.499234	-3.005700	3.273900	-9.839700	27.015235	0.000481	20.846690
1844.495677	-2.983500	3.275500	-9.771800	26.987044	0.000480	20.831143
1845.495190	-3.009800	3.273200	-9.850000	26.957244	0.000480	20.832944
1846.495904	-2.988900	3.274300	-9.785600	26.927144	0.000479	20.850565
1847.495716	-3.013400	3.274800	-9.867000	26.892279	0.000479	20.845379
1848.498740	-3.000300	3.272800	-9.818800	26.841375	0.000477	20.821697
1849.496849	-3.017300	3.272800	-9.873300	26.815762	0.000479	20.836247
1850.497307	-3.009800	3.272400	-9.848600	26.839050	0.000480	20.827419
1851.497621	-2.981400	3.273400	-9.758100	26.862182	0.000476	20.827444
1852.497569	-3.003000	3.272100	-9.825700	26.929842	0.000474	20.837158
1853.500556	-3.004400	3.269800	-9.821600	26.959007	0.000476	20.827131
1854.498809	-2.989300	3.272000	-9.779600	26.992907	0.000477	20.837512
1855.499225	-2.989000	3.270800	-9.775200	26.985933	0.000474	20.826706
1856.500545	-3.001600	3.270000	-9.814900	26.978815	0.000474	20.823342
1857.499507	-2.994700	3.269500	-9.788300	26.974378	0.000473	20.844484
1858.499475	-3.014700	3.269200	-9.854900	26.930876	0.000471	20.831559
1859.502573	-2.983700	3.269900	-9.755600	26.948994	0.000471	20.824649
1860.500438	-2.997100	3.268700	-9.795800	26.984539	0.000472	20.821985
1861.502060	-2.974400	3.270800	-9.727100	27.031983	0.000473	20.812799
1862.500926	-2.998500	3.269700	-9.803100	27.071247	0.000470	20.830474
1863.502001	-2.998800	3.266500	-9.794600	27.109190	0.000471	20.816477
1864.504514	-2.982300	3.268700	-9.747300	27.125100	0.000470	20.844332
1865.501022	-2.980600	3.267700	-9.738900	27.146712	0.000469	20.821499
1866.501531	-3.007800	3.266000	-9.822200	27.129568	0.000467	20.821800
1867.502461	-2.992500	3.266200	-9.773100	27.092992	0.000467	20.817730
1868.503521	-3.015400	3.265100	-9.843600	27.114162	0.000465	20.800142
1869.507647	-2.981300	3.266200	-9.737000	27.099498	0.000466	20.814791
1870.508111	-3.029900	3.263200	-9.885200	27.102725	0.000466	20.800018
1871.508026	-2.996100	3.263000	-9.774500	27.093250	0.000463	20.817990
1872.503427	-3.043300	3.263300	-9.929500	27.094320	0.000463	20.818592
1873.504633	-3.016200	3.262600	-9.840000	27.047198	0.000464	20.806289
1874.509633	-2.993300	3.263900	-9.768300	27.007195	0.000463	20.818691
1875.505427	-3.029500	3.262000	-9.880500	26.977318	0.000462	20.793388
1876.505440	-3.003800	3.263300	-9.800700	26.994297	0.000460	20.812832
1877.506024	-3.016500	3.261800	-9.838400	26.985166	0.000461	20.809814
1878.504963	-2.978300	3.262000	-9.714300	26.978889	0.000459	20.811563
1879.508223	-2.985800	3.263200	-9.741900	27.022046	0.000459	20.807547
1880.505189	-2.977300	3.262100	-9.710800	27.048773	0.000459	20.822097
1881.505659	-2.983800	3.261500	-9.730200	27.096247	0.000458	20.810573
1882.506055	-2.985400	3.261400	-9.736000	27.144438	0.000458	20.794555
1883.507329	-2.994400	3.260700	-9.762800	27.151587	0.000458	20.798901
1884.513614	-3.002400	3.260100	-9.786800	27.164935	0.000455	20.822283
1885.508179	-3.001700	3.259800	-9.782700	27.162307	0.000455	20.791191
1886.509578	-2.996500	3.259700	-9.765900	27.159208	0.000455	20.800402
1887.507801	-3.013700	3.258800	-9.820300	27.194270	0.000454	20.794415
1888.509849	-2.997700	3.258100	-9.765000	27.240152	0.000453	20.794572
1889.509454	-2.992400	3.259300	-9.752000	27.230281	0.000453	20.812619
1890.511455	-2.975100	3.259400	-9.695000	27.233277	0.000452	20.800934
1891.512290	-2.997900	3.256900	-9.762500	27.246087	0.000451	20.802913
1892.511609	-3.006600	3.255700	-9.787700	27.258622	0.000450	20.811254
1893.512135	-2.994300	3.256000	-9.748500	27.242919	0.000450	20.803993
1894.512131	-2.984200	3.255900	-9.715300	27.244759	0.000450	20.795413
1895.513912	-2.997000	3.256000	-9.756000	27.235430	0.000450	20.795038
1896.516038	-2.988600	3.256200	-9.730500	27.221218	0.000448	20.795442
1897.512722	-3.021600	3.253500	-9.830000	27.165075	0.000449	20.783069
1898.516629	-2.997100	3.253900	-9.749600	27.142750	0.000448	20.800918
1899.516776	-2.993100	3.253200	-9.736300	27.087914	0.000446	20.783700
1900.516192	-2.988700	3.253300	-9.722300	27.101435	0.000445	20.775961
1901.517145	-2.991600	3.255100	-9.737100	27.070749	0.000445	20.782084
1902.516720	-2.995000	3.251300	-9.736600	27.063927	0.000446	20.790396
1903.515880	-2.992600	3.251800	-9.730700	27.105961	0.000444	20.770082
1904.517015	-3.008400	3.251600	-9.780600	27.140008	0.000445	20.779194
1905.518183	-2.997900	3.252400	-9.748900	27.159144	0.000443	20.783742
1906.519625	-3.010000	3.250300	-9.782300	27.125053	0.000443	20.771739
1907.517401	-2.980100	3.250300	-9.683800	27.143689	0.000442	20.787638
1908.518336	-3.008400	3.250100	-9.776700	27.168011	0.000441	20.781755
1909.521077	-3.012400	3.249400	-9.788100	27.205454	0.000441	20.770577
1910.519036	-3.006400	3.249400	-9.767400	27.253561	0.000439	20.793362
1911.519337	-3.014600	3.247400	-9.788800	27.286788	0.000438	20.789325
1912.519311	-2.996500	3.250500	-9.739100	27.323805	0.000436	20.798586
1913.520989	-2.997000	3.248300	-9.734200	27.317304	0.000435	20.778296
1914.521472	-3.001900	3.246200	-9.744500	27.346688	0.000437	20.777035
1915.525324	-2.993000	3.246600	-9.716400	27.346512	0.000436	20.770219
1916.523631	-3.005600	3.246500	-9.756900	27.383133	0.000434	20.791412
1917.523062	-2.982500	3.249000	-9.688700	27.395539	0.000433	20.781608
1918.523086	-3.025200	3.245200	-9.815900	27.399138	0.000435	20.771951
1919.522912	-3.004600	3.246000	-9.751900	27.365923	0.000433	20.774099
1920.527106	-2.994000	3.245700	-9.715100	27.381806	0.000432	20.792448
1921.529375	-2.999300	3.245500	-9.732800	27.388703	0.000431	20.783740
1922.525578	-3.013000	3.244700	-9.774800	27.397860	0.000430	20.782045
1923.524831	-3.013600	3.243300	-9.773200	27.368887	0.000429	20.788461
1924.524790	-2.986800	3.243700	-9.686400	27.337336	0.000428	20.784697
1925.525999	-2.997900	3.243700	-9.722900	27.320048	0.000429	20.790539
1926.526386	-3.020900	3.241900	-9.792100	27.305214	0.000428	20.773247
1927.524981	-2.998000	3.241600	-9.717400	27.335479	0.000428	20.758647
1928.528884	-2.994900	3.242700	-9.708300	27.352649	0.000426	20.754107
1929.526654	-2.985700	3.242700	-9.680300	27.404422	0.000425	20.797182
1930.525576	-3.007800	3.242400	-9.751400	27.416410	0.000426	20.758507
1931.529441	-3.016600	3.239800	-9.771900	27.435164	0.000426	20.788280
1932.527759	-3.012400	3.239800	-9.757900	27.415320	0.000424	20.769739
1933.528985	-2.985100	3.240200	-9.671100	27.355932	0.000421	20.767368
1934.528993	-3.003300	3.238900	-9.725800	27.340550	0.000421	20.749048
1935.528870	-2.983800	3.239100	-9.663900	27.310265	0.000422	20.778802
1936.533202	-3.005700	3.239200	-9.735600	27.244591	0.000421	20.772485
1937.528732	-3.002000	3.238000	-9.719600	27.195123	0.000420	20.770617
1938.534176	-3.006200	3.237800	-9.732100	27.131406	0.000420	20.765801
1939.529045	-3.025200	3.238100	-9.794300	27.074287	0.000419	20.750080
1940.528570	-3.012400	3.237000	-9.749200	27.063443	0.000418	20.766675
1941.535106	-3.005100	3.237200	-9.726800	27.074459	0.000417	20.765900
1942.533179	-2.998200	3.236700	-9.702800	27.086467	0.000416	20.759959
1943.530724	-3.000200	3.236400	-9.709300	27.109867	0.000416	20.774485
1944.530211	-2.999500	3.236200	-9.705900	27.133145	0.000415	20.760437
1945.530694	-2.995000	3.236400	-9.691100	27.148649	0.000416	20.764651
1946.529858	-2.992200	3.237100	-9.685100	27.147382	0.000414	20.760532
1947.533811	-2.998100	3.234500	-9.696800	27.163136	0.000413	20.753143
1948.531412	-2.999300	3.234100	-9.698200	27.195889	0.000413	20.775655
1949.535017	-3.001200	3.233800	-9.703400	27.158844	0.000413	20.723220
1950.531385	-3.014100	3.232000	-9.739800	27.121001	0.000412	20.766716
1951.530987	-2.989600	3.232900	-9.663900	27.139564	0.000412	20.754565
1952.533850	-2.996800	3.233000	-9.687900	27.201817	0.000410	20.762651
1953.530689	-2.999300	3.231100	-9.689900	27.244665	0.000409	20.775878
1954.531689	-3.000100	3.231500	-9.693800	27.220570	0.000408	20.769660
1955.532208	-3.036300	3.231000	-9.809600	27.233175	0.000408	20.768588
1956.533453	-2.997000	3.230200	-9.680000	27.232036	0.000406	20.758907
1957.532324	-3.016700	3.230500	-9.744500	27.226149	0.000405	20.747770
1958.545159	-2.968500	3.231000	-9.590400	27.234069	0.000404	20.750046
1959.532898	-3.002000	3.230500	-9.696800	27.292147	0.000405	20.762948
1960.532295	-2.995500	3.230900	-9.677100	27.318273	0.000404	20.750821
1961.533408	-2.993600	3.228800	-9.664000	27.327602	0.000403	20.752145
1962.532986	-3.015800	3.227400	-9.732500	27.333287	0.000403	20.752648
1963.535119	-3.019300	3.227700	-9.744100	27.370200	0.000400	20.766073
1964.533546	-2.999500	3.227100	-9.679100	27.358117	0.000399	20.739219
1965.533679	-3.002500	3.226400	-9.686500	27.385061	0.000398	20.755419
1966.534191	-2.979700	3.227600	-9.616200	27.399226	0.000399	20.747857
1967.534606	-3.007800	3.224800	-9.697900	27.403025	0.000398	20.735558
1968.538502	-3.003500	3.226700	-9.690300	27.390525	0.000400	20.757122
1969.535732	-2.999700	3.226000	-9.675500	27.402255	0.000397	20.744266
1970.537006	-3.008300	3.225500	-9.701200	27.425132	0.000397	20.757324
1971.535670	-3.010700	3.224000	-9.706000	27.448423	0.000397	20.738555
1972.535605	-3.008600	3.224400	-9.700200	27.462193	0.000396	20.750987
1973.536814	-2.995100	3.224000	-9.655100	27.436513	0.000394	20.737953
1974.536246	-2.998900	3.223200	-9.665000	27.405587	0.000393	20.767059
1975.536926	-2.999400	3.224900	-9.671800	27.388988	0.000391	20.747041
1976.535203	-2.999500	3.223800	-9.668700	27.383209	0.000392	20.756875
1977.536033	-3.023800	3.222000	-9.740900	27.396907	0.000391	20.732247
1978.538053	-3.002000	3.222100	-9.671700	27.329353	0.000392	20.753432
1979.540226	-3.008600	3.220300	-9.687000	27.330939	0.000390	20.744596
1980.537996	-3.000000	3.221200	-9.662800	27.376037	0.000389	20.732115
1981.538647	-2.970700	3.221200	-9.568700	27.414538	0.000388	20.740501
1982.539202	-3.008300	3.220200	-9.685200	27.446931	0.000388	20.719510
1983.539602	-3.006400	3.219900	-9.679300	27.497212	0.000387	20.746864
1984.543529	-3.006000	3.219200	-9.676700	27.518390	0.000386	20.727393
1985.541959	-3.036300	3.217300	-9.767600	27.575515	0.000385	20.744567
1986.540238	-3.032900	3.217300	-9.755000	27.596946	0.000383	20.757596
1987.540024	-3.029300	3.216000	-9.741700	27.602101	0.000383	20.744291
1988.541419	-2.996900	3.219000	-9.646700	27.594635	0.000382	20.724923
1989.540881	-2.981500	3.218200	-9.594300	27.579354	0.000381	20.736576
1990.540381	-2.995100	3.216300	-9.632100	27.549223	0.000382	20.741821
1991.539943	-2.985300	3.217700	-9.603800	27.554702	0.000381	20.725521
1992.541069	-2.988800	3.216100	-9.610100	27.563881	0.000380	20.725274
1993.544298	-2.999900	3.216300	-9.647800	27.595180	0.000379	20.745387
1994.544403	-2.981900	3.216400	-9.589600	27.603564	0.000378	20.740547
1995.543782	-3.004700	3.216900	-9.664800	27.625810	0.000380	20.739697
1996.545799	-3.015900	3.214000	-9.692100	27.649400	0.000377	20.736881
1997.545253	-3.004500	3.211800	-9.649200	27.657111	0.000374	20.725200
1998.545764	-3.001000	3.214500	-9.646200	27.599450	0.000374	20.717914
1999.548329	-3.012500	3.212500	-9.676900	27.587423	0.000373	20.731418
2000.546738	-2.997400	3.212400	-9.627400	27.587895	0.000373	20.729995
2001.547975	-3.024000	3.210700	-9.707900	27.615300	0.000372	20.750459
2002.545442	-3.013200	3.212000	-9.677400	27.601884	0.000372	20.720363
2003.545064	-2.983600	3.212400	-9.582100	27.544097	0.000370	20.727179
2004.547552	-3.029500	3.209300	-9.721200	27.505027	0.000370	20.742398
2005.548930	-3.003300	3.209500	-9.637100	27.495585	0.000368	20.731002
2006.546525	-2.991600	3.210100	-9.602300	27.507863	0.000367	20.728182
2007.547119	-2.990600	3.209300	-9.595900	27.496258	0.000369	20.731678
2008.547583	-2.997400	3.208100	-9.615100	27.466689	0.000368	20.734647
2009.546485	-3.014400	3.207400	-9.667400	27.398477	0.000368	20.743310
2010.548583	-2.996100	3.207800	-9.610100	27.385972	0.000366	20.721720
2011.547977	-3.046600	3.206700	-9.768400	27.417309	0.000364	20.723848
2012.551636	-2.990000	3.207000	-9.588200	27.441547	0.000364	20.744440
2013.548565	-2.978300	3.207500	-9.551400	27.404863	0.000361	20.726500
2014.548761	-2.989600	3.206000	-9.583500	27.396551	0.000363	20.750856
2015.555136	-3.015000	3.205400	-9.663500	27.422601	0.000360	20.740078
2016.553751	-2.979200	3.207300	-9.554100	27.467055	0.000360	20.745921
2017.552631	-3.022400	3.204700	-9.684300	27.475469	0.000358	20.721668
2018.552973	-3.000500	3.207000	-9.622000	27.486878	0.000358	20.719870
2019.552097	-2.970200	3.205400	-9.519800	27.463839	0.000357	20.733201
2020.552784	-2.987800	3.204400	-9.573200	27.502488	0.000357	20.726093
2021.556390	-2.998200	3.204300	-9.605900	27.511791	0.000357	20.744936
2022.552001	-2.961600	3.203600	-9.486000	27.518172	0.000357	20.733338
2023.551914	-2.992600	3.203100	-9.583900	27.511373	0.000356	20.721756
2024.553383	-2.999700	3.202100	-9.604300	27.508300	0.000356	20.734785
2025.553627	-2.994300	3.201000	-9.583800	27.516886	0.000355	20.735837
2026.555779	-2.995900	3.201900	-9.591400	27.502624	0.000353	20.744249
2027.553850	-2.999100	3.201800	-9.602100	27.523984	0.000351	20.740608
2028.555126	-2.983400	3.201200	-9.550200	27.560697	0.000351	20.708319
2029.557123	-2.987400	3.198900	-9.554200	27.581613	0.000351	20.720829
2030.557282	-2.982300	3.200000	-9.542100	27.634764	0.000353	20.724050
2031.557666	-3.019400	3.197600	-9.653200	27.667228	0.000348	20.720207
2032.557389	-3.022400	3.197500	-9.663600	27.643221	0.000349	20.717386
2033.555413	-2.983300	3.199600	-9.544600	27.663537	0.000349	20.728346
2034.555572	-3.010100	3.195900	-9.618900	27.708349	0.000346	20.739302
2035.557646	-3.014500	3.198100	-9.639500	27.673756	0.000348	20.726301
2036.555625	-2.981000	3.198000	-9.531900	27.650441	0.000347	20.715168
2037.559015	-3.010000	3.197000	-9.622000	27.651256	0.000345	20.744914
2038.555347	-3.001300	3.196300	-9.591000	27.670305	0.000345	20.741797
2039.560510	-2.972100	3.196300	-9.499000	27.700237	0.000343	20.744415
2040.558023	-2.984900	3.194000	-9.532800	27.693517	0.000343	20.718211
2041.557322	-2.997400	3.195100	-9.576600	27.696742	0.000344	20.723353
2042.557983	-2.990800	3.193700	-9.550400	27.740086	0.000342	20.734255
2043.558575	-3.012700	3.193300	-9.619200	27.766398	0.000345	20.718533
2044.558788	-3.012500	3.192800	-9.617700	27.790648	0.000342	20.736300
2045.558989	-3.003400	3.191600	-9.584700	27.808080	0.000340	20.730135
2046.559329	-3.000200	3.191600	-9.574500	27.785219	0.000339	20.710447
2047.559172	-3.010300	3.191400	-9.606100	27.789828	0.000338	20.735001
2048.561602	-3.017000	3.190700	-9.623800	27.786055	0.000336	20.738790
2049.559219	-2.983500	3.191100	-9.519700	27.761210	0.000336	20.738444
2050.560635	-3.012500	3.189400	-9.606900	27.734300	0.000338	20.742183
2051.561286	-2.998400	3.189000	-9.561300	27.700109	0.000338	20.732906
2052.565748	-3.003000	3.187700	-9.571600	27.704174	0.000335	20.717555
2053.561354	-3.004800	3.187800	-9.577800	27.719551	0.000333	20.730659
2054.564869	-2.991400	3.189100	-9.539300	27.747326	0.000334	20.748179
2055.561245	-2.978000	3.189300	-9.496100	27.765205	0.000333	20.726816
2056.563406	-2.962500	3.187500	-9.441700	27.810809	0.000332	20.746159
2057.563608	-2.991900	3.186400	-9.532000	27.789111	0.000331	20.742815
2058.563570	-2.997800	3.185900	-9.549000	27.766549	0.000329	20.731488
2059.564010	-3.003700	3.185500	-9.566900	27.779172	0.000328	20.734709
2060.563214	-3.019700	3.183600	-9.612400	27.773912	0.000330	20.740320
2061.562575	-2.992100	3.183900	-9.525800	27.742672	0.000327	20.742073
2062.563926	-3.024000	3.183700	-9.625500	27.733523	0.000328	20.741401
2063.564036	-3.009900	3.184500	-9.583000	27.717798	0.000326	20.733162
2064.569639	-3.016100	3.183900	-9.601800	27.765612	0.000325	20.721535
2065.565118	-2.985400	3.183600	-9.503300	27.810395	0.000325	20.732940
2066.565374	-2.998200	3.182800	-9.541200	27.772360	0.000325	20.724059
2067.564128	-2.996500	3.181400	-9.532200	27.715643	0.000324	20.749961
2068.565613	-2.968700	3.183100	-9.449000	27.651187	0.000323	20.755750
2069.562907	-3.004400	3.179700	-9.551900	27.625196	0.000323	20.761840
2070.564718	-2.992700	3.181000	-9.519200	27.612355	0.000321	20.747970
2071.563636	-2.989000	3.181800	-9.509600	27.662922	0.000322	20.742902
2072.563069	-2.985000	3.180100	-9.490900	27.678075	0.000318	20.750563
2073.565389	-3.012400	3.178500	-9.572100	27.696972	0.000318	20.741129
2074.567706	-3.012700	3.177200	-9.571000	27.754505	0.000318	20.749239
2075.564559	-2.992500	3.177200	-9.506200	27.769852	0.000318	20.757098
2076.564524	-3.003900	3.175900	-9.539300	27.768718	0.000317	20.765914
2077.564170	-3.008200	3.175900	-9.552800	27.778371	0.000315	20.759033
2078.564497	-2.996300	3.177700	-9.519900	27.792128	0.000314	20.771930
2079.568433	-2.994100	3.177000	-9.510600	27.815911	0.000315	20.743232
2080.566033	-3.008500	3.175800	-9.553800	27.808888	0.000314	20.752761
2081.570486	-2.991300	3.176200	-9.499500	27.801153	0.000313	20.748296
2082.567533	-3.006800	3.176000	-9.548600	27.803656	0.000313	20.741331
2083.567156	-2.984700	3.175000	-9.474900	27.790292	0.000311	20.761548
2084.570390	-2.995100	3.173000	-9.502400	27.831806	0.000311	20.746428
2085.567832	-3.014400	3.172800	-9.563000	27.855628	0.000310	20.747170
2086.569814	-2.987700	3.174000	-9.481500	27.869045	0.000309	20.759725
2087.566823	-2.998400	3.170500	-9.503700	27.930789	0.000310	20.762599
2088.567479	-3.001500	3.171500	-9.517700	27.988059	0.000307	20.764294
2089.566978	-2.986600	3.170700	-9.468100	27.991209	0.000306	20.758930
2090.569734	-2.989100	3.170900	-9.477100	27.924292	0.000304	20.762698
2091.568970	-3.009000	3.170400	-9.538300	27.922584	0.000306	20.747702
2092.569067	-3.020600	3.170100	-9.573700	27.920425	0.000304	20.749797
2093.569196	-2.999000	3.170400	-9.506400	27.928855	0.000303	20.769188
2094.568285	-3.024500	3.168100	-9.581400	27.923055	0.000303	20.753392
2095.571182	-3.026600	3.166800	-9.583300	27.976885	0.000301	20.769168
2096.569442	-2.992400	3.167700	-9.478200	28.004820	0.000301	20.759354
2097.572345	-2.996000	3.166400	-9.485400	28.010404	0.000302	20.773035
2098.568799	-3.013000	3.168000	-9.544300	27.959877	0.000301	20.763903
2099.568509	-2.997700	3.165100	-9.487100	27.915968	0.000302	20.749104
2100.572446	-3.004800	3.164000	-9.506100	27.902753	0.000298	20.746709
2101.570804	-2.982900	3.165500	-9.442400	27.838288	0.000299	20.770970
2102.570549	-2.992200	3.164600	-9.468100	27.864249	0.000299	20.760588
2103.569563	-2.993600	3.163600	-9.469600	27.853188	0.000301	20.769844
2104.572435	-3.008500	3.163600	-9.517000	27.842971	0.000299	20.757190
2105.569798	-2.981100	3.162500	-9.426700	27.838337	0.000299	20.765804
2106.571757	-2.991100	3.162900	-9.458200	27.824773	0.000298	20.752626
2107.571333	-3.004000	3.160900	-9.494300	27.825445	0.000294	20.763260
2108.574300	-2.984300	3.162700	-9.436300	27.787675	0.000296	20.778354
2109.571318	-3.015900	3.159900	-9.527900	27.773119	0.000295	20.760386
2110.573001	-2.993400	3.159000	-9.454900	27.795435	0.000294	20.753920
2111.577382	-3.003000	3.159300	-9.486800	27.779063	0.000295	20.760678
2112.573702	-3.009400	3.159000	-9.505100	27.772614	0.000295	20.770310
2113.574609	-3.010800	3.157000	-9.504000	27.752178	0.000293	20.782460
2114.575956	-2.996900	3.157600	-9.461900	27.724407	0.000292	20.782015
2115.576480	-2.961100	3.157600	-9.348700	27.722715	0.000291	20.768932
2116.576214	-2.996600	3.154900	-9.452700	27.717139	0.000289	20.764743
2117.579939	-3.022700	3.154700	-9.533900	27.769881	0.000290	20.765662
2118.575868	-2.997000	3.155300	-9.454900	27.813300	0.000289	20.766211
2119.575883	-2.995400	3.154200	-9.446700	27.819273	0.000291	20.768429
2120.576979	-2.993500	3.154400	-9.441200	27.872261	0.000289	20.779083
2121.576377	-2.990900	3.154200	-9.432400	27.875063	0.000287	20.769575
2122.578735	-3.015500	3.153000	-9.506500	27.903427	0.000286	20.779157
2123.577977	-2.983400	3.153200	-9.406000	27.952564	0.000286	20.797793
2124.580284	-2.987300	3.151600	-9.413500	27.996422	0.000287	20.780773
2125.579082	-3.010300	3.151000	-9.484300	28.017698	0.000284	20.784170
2126.580644	-3.015100	3.149800	-9.493700	28.030608	0.000285	20.782467
2127.581149	-3.020600	3.149700	-9.513400	28.039308	0.000284	20.776526
2128.580065	-3.000600	3.148900	-9.447500	28.030628	0.000284	20.792919
2129.580613	-3.001500	3.148300	-9.447500	28.033675	0.000281	20.787926
2130.581038	-2.997700	3.148800	-9.438400	28.005089	0.000280	20.804669
2131.579588	-3.017600	3.147000	-9.495000	28.025143	0.000281	20.786924
2132.579538	-3.018000	3.146600	-9.495000	28.056252	0.000281	20.786470
2133.581364	-2.996000	3.146900	-9.426900	28.059275	0.000278	20.788564
2134.580570	-2.987600	3.146000	-9.398200	28.019703	0.000277	20.795198
2135.581783	-2.997900	3.144500	-9.426000	27.963941	0.000278	20.792176
2136.581197	-3.006500	3.143600	-9.450200	27.976787	0.000276	20.790881
2137.581824	-3.011000	3.143000	-9.462500	27.962553	0.000278	20.796468
2138.584115	-2.995300	3.143600	-9.414900	28.016176	0.000278	20.785483
2139.581264	-2.986000	3.142900	-9.383500	28.033305	0.000276	20.793243
2140.583671	-2.995800	3.142800	-9.414100	28.102169	0.000273	20.775794
2141.581542	-2.986300	3.142000	-9.382100	28.106359	0.000273	20.796607
2142.584224	-3.018500	3.140500	-9.478900	28.080105	0.000273	20.804317
2143.585477	-2.995500	3.141000	-9.408200	28.036672	0.000272	20.792365
2144.589374	-2.997100	3.140600	-9.410300	28.025092	0.000271	20.798726
2145.585721	-2.997600	3.139400	-9.409300	27.976844	0.000272	20.823654
2146.585699	-2.990700	3.138900	-9.387300	27.987526	0.000271	20.810699
2147.586098	-2.983800	3.139100	-9.365600	28.006021	0.000269	20.815090
2148.586339	-2.974900	3.138000	-9.334200	28.034832	0.000268	20.823229
2149.589478	-2.987400	3.136800	-9.369900	28.077299	0.000270	20.810976
2150.586200	-2.985600	3.136200	-9.362700	28.102214	0.000267	20.791960
2151.587695	-2.990100	3.136000	-9.375300	28.113871	0.000267	20.800376
2152.586706	-2.982300	3.136100	-9.351700	28.149986	0.000265	20.787895
2153.587905	-2.979500	3.133300	-9.334800	28.157841	0.000268	20.809553
2154.589291	-3.005600	3.132900	-9.415000	28.155314	0.000266	20.809380
2155.589756	-2.994700	3.134700	-9.385900	28.133845	0.000264	20.812897
2156.589395	-3.007500	3.132200	-9.418600	28.126849	0.000264	20.809174
2157.592965	-3.015300	3.131000	-9.439400	28.139222	0.000263	20.805983
2158.590675	-3.003500	3.129600	-9.398700	28.161801	0.000263	20.808798
2159.590626	-2.996500	3.130300	-9.378100	28.185006	0.000264	20.820306
2160.590220	-2.990100	3.130000	-9.357500	28.225706	0.000261	20.819081
2161.593252	-3.012500	3.128300	-9.423000	28.244417	0.000261	20.815160
2162.593156	-2.988900	3.128400	-9.349200	28.285065	0.000263	20.814834
2163.591529	-3.001600	3.128200	-9.387300	28.297354	0.000263	20.821043
2164.592535	-2.982400	3.126800	-9.324800	28.333663	0.000262	20.809239
2165.592851	-2.983200	3.126100	-9.324900	28.363551	0.000258	20.787651
2166.589814	-2.988100	3.125300	-9.338200	28.389745	0.000260	20.830146
2167.591088	-3.019800	3.123900	-9.432900	28.412392	0.000258	20.819760
2168.593478	-2.978800	3.123900	-9.305000	28.424090	0.000259	20.836755
2169.590732	-2.973700	3.124200	-9.289800	28.438609	0.000256	20.829565
2170.594511	-2.981600	3.123700	-9.313300	28.466557	0.000258	20.827837
2171.593219	-3.005700	3.122700	-9.385200	28.494406	0.000258	20.819372
2172.595298	-3.004100	3.121200	-9.375300	28.512298	0.000255	20.821269
2173.594290	-3.005500	3.121100	-9.379700	28.507732	0.000254	20.826154
2174.592761	-3.002900	3.119500	-9.366600	28.511916	0.000254	20.818988
2175.597790	-2.993100	3.119700	-9.336500	28.471224	0.000253	20.840597
2176.594238	-3.010000	3.118700	-9.385900	28.427851	0.000253	20.838646
2177.598049	-2.998500	3.118900	-9.350700	28.397486	0.000254	20.838889
2178.595403	-3.010400	3.117000	-9.382900	28.341646	0.000254	20.850466
2179.594676	-2.972900	3.117900	-9.268400	28.328206	0.000254	20.819391
2180.595015	-3.001400	3.116500	-9.352400	28.301335	0.000251	20.845440
2181.597005	-3.002000	3.114100	-9.347400	28.327457	0.000252	20.815792
2182.595256	-3.011300	3.114500	-9.377400	28.373027	0.000251	20.842710
2183.593735	-2.989900	3.113600	-9.308000	28.366553	0.000252	20.844252
2184.596122	-2.983200	3.113900	-9.287300	28.377134	0.000249	20.809862
2185.595797	-3.026000	3.111300	-9.414100	28.353806	0.000249	20.846115
2186.597851	-2.999900	3.111800	-9.333600	28.336796	0.000250	20.822824
2187.595012	-3.006100	3.109600	-9.346800	28.295802	0.000249	20.836076
2188.600401	-2.993400	3.110100	-9.308700	28.261169	0.000248	20.861423
2189.597553	-2.991100	3.109600	-9.300000	28.232290	0.000247	20.841831
2190.597252	-2.991500	3.109100	-9.299900	28.219463	0.000245	20.818012
2191.598699	-2.987200	3.109000	-9.286100	28.266583	0.000246	20.843166
2192.597518	-3.000300	3.106900	-9.319300	28.282242	0.000247	20.834751
2193.597517	-2.988900	3.106100	-9.282700	28.268753	0.000244	20.832075
2194.598166	-2.977800	3.106800	-9.250000	28.275014	0.000244	20.845491
2195.598787	-2.973200	3.105100	-9.231000	28.278184	0.000246	20.862906
2196.599911	-3.006900	3.105000	-9.335000	28.282643	0.000246	20.860758
2197.601057	-3.003200	3.103100	-9.318500	28.253441	0.000245	20.846056
2198.598723	-3.002000	3.100900	-9.307800	28.222325	0.000245	20.852186
2199.604909	-2.999600	3.101900	-9.303100	28.252339	0.000243	20.847317
2200.600786	-2.998100	3.101100	-9.296800	28.295583	0.000244	20.846760
2201.601047	-3.006000	3.098800	-9.314500	28.330726	0.000244	20.850850
2202.608797	-2.993900	3.097800	-9.273300	28.375703	0.000241	20.849197
2203.602271	-2.961700	3.100700	-9.182500	28.390316	0.000241	20.880031
2204.603050	-2.993200	3.099400	-9.275600	28.435418	0.000240	20.867127
2205.608417	-2.987800	3.097500	-9.252200	28.465622	0.000242	20.852973
2206.603673	-3.012800	3.095400	-9.325600	28.459374	0.000239	20.866595
2207.603767	-2.986800	3.095700	-9.244300	28.406457	0.000238	20.859302
2208.606642	-2.972600	3.096000	-9.202300	28.370887	0.000239	20.889864
2209.604043	-3.007500	3.094200	-9.304200	28.300001	0.000238	20.883923
2210.603450	-3.003000	3.092500	-9.284700	28.312564	0.000237	20.872866
2211.604066	-3.025400	3.091000	-9.351000	28.338112	0.000239	20.879623
2212.604110	-3.006300	3.090600	-9.290500	28.280562	0.000236	20.870516
2213.607625	-3.011500	3.090800	-9.306900	28.314239	0.000237	20.870285
2214.604757	-3.017700	3.088200	-9.318200	28.284690	0.000235	20.877042
2215.607390	-3.016800	3.089300	-9.317900	28.332797	0.000235	20.883754
2216.607889	-2.990100	3.088300	-9.232500	28.375199	0.000235	20.887568
2217.609318	-2.985500	3.088500	-9.219200	28.401613	0.000234	20.880501
2218.608070	-2.987600	3.086400	-9.219900	28.441613	0.000234	20.877158
2219.607048	-2.982600	3.086600	-9.204500	28.459902	0.000232	20.873291
2220.607143	-3.033000	3.083800	-9.352600	28.425697	0.000232	20.889580
2221.606994	-3.004100	3.082800	-9.260300	28.441064	0.000234	20.879924
2222.609995	-2.978300	3.084200	-9.184300	28.463464	0.000231	20.881144
2223.607933	-2.987500	3.083100	-9.209100	28.452954	0.000233	20.879570
2224.610919	-2.972300	3.081500	-9.157900	28.400815	0.000231	20.895817
2225.608630	-3.004500	3.080500	-9.254200	28.351273	0.000232	20.870590
2226.612122	-3.007700	3.079500	-9.260600	28.368623	0.000229	20.877154
2227.610937	-2.994700	3.079600	-9.221600	28.355908	0.000231	20.897541
2228.610817	-3.034600	3.075600	-9.332500	28.394689	0.000229	20.889650
2229.617691	-2.999900	3.076700	-9.228100	28.402674	0.000230	20.894370
2230.611765	-2.988900	3.076500	-9.194400	28.426365	0.000228	20.904475
2231.612021	-3.034900	3.073800	-9.328000	28.422946	0.000228	20.897714
2232.612751	-2.980700	3.075900	-9.167500	28.478900	0.000226	20.873930
2233.615608	-3.006300	3.073600	-9.239100	28.512976	0.000226	20.913932
2234.616653	-2.997400	3.071900	-9.206700	28.554634	0.000226	20.880497
2235.614736	-3.013500	3.069900	-9.249100	28.565859	0.000227	20.899862
2236.612707	-3.010100	3.069600	-9.238600	28.577801	0.000227	20.901457
2237.614738	-2.969700	3.071000	-9.119200	28.599262	0.000229	20.898889
2238.613563	-2.991500	3.069600	-9.181000	28.596785	0.000227	20.884542
2239.617577	-2.977900	3.068600	-9.136800	28.601296	0.000226	20.914213
2240.614891	-2.971300	3.066600	-9.110900	28.567849	0.000225	20.884323
2241.617718	-3.009600	3.065900	-9.225900	28.583062	0.000225	20.908651
2242.613838	-3.008200	3.066700	-9.223600	28.615399	0.000225	20.907081
2243.614652	-3.001100	3.064500	-9.195500	28.637947	0.000225	20.918410
2244.618030	-3.028000	3.063100	-9.273700	28.650658	0.000224	20.891859
2245.615277	-3.005900	3.062300	-9.204100	28.689956	0.000226	20.909154
2246.616559	-3.002400	3.061200	-9.189900	28.647420	0.000224	20.897607
2247.615466	-3.013800	3.059900	-9.220500	28.625961	0.000225	20.891641
2248.616095	-3.011500	3.058300	-9.208100	28.599900	0.000225	20.909962
2249.615355	-3.013200	3.057100	-9.210400	28.559702	0.000224	20.894609
2250.616253	-2.990900	3.058800	-9.147600	28.577347	0.000224	20.892465
2251.616349	-3.019900	3.055200	-9.225500	28.580790	0.000223	20.915371
2252.618927	-2.975100	3.057000	-9.093900	28.639020	0.000226	20.897681
2253.616812	-2.991300	3.054100	-9.135300	28.603982	0.000225	20.890841
2254.617015	-3.000000	3.053000	-9.158600	28.610941	0.000223	20.898324
2255.619766	-3.000700	3.053400	-9.161600	28.598058	0.000223	20.898625
2256.618373	-2.998400	3.050800	-9.146800	28.612755	0.000224	20.904891
2257.622377	-3.016900	3.049500	-9.198600	28.620381	0.000222	20.908305
2258.620067	-2.988900	3.049800	-9.114800	28.607891	0.000223	20.893830
2259.620264	-3.002700	3.048400	-9.150700	28.578252	0.000221	20.893377
2260.620404	-3.004200	3.046600	-9.151600	28.573024	0.000222	20.901387
2261.625484	-3.001800	3.046400	-9.143900	28.578346	0.000224	20.912910
2262.622365	-2.966600	3.045500	-9.034000	28.610556	0.000221	20.880868
2263.622731	-3.006400	3.043600	-9.149100	28.666329	0.000221	20.892944
2264.623018	-2.993000	3.042200	-9.104600	28.716249	0.000222	20.877793
2265.623606	-3.001600	3.040200	-9.124000	28.732078	0.000220	20.892313
2266.627794	-2.993600	3.040600	-9.101800	28.746200	0.000220	20.865762
2267.625342	-3.003700	3.039200	-9.127600	28.718873	0.000221	20.872849
2268.627765	-2.985300	3.039200	-9.071000	28.737252	0.000219	20.886620
2269.625076	-2.999500	3.037500	-9.110100	28.702736	0.000219	20.871769
2270.625364	-2.999300	3.036900	-9.107700	28.669808	0.000220	20.878906
2271.628395	-2.984300	3.035700	-9.057400	28.637149	0.000219	20.881573
2272.626210	-3.006600	3.032600	-9.116600	28.638590	0.000219	20.868801
2273.627268	-2.986100	3.033600	-9.057400	28.697927	0.000218	20.862658
2274.627638	-2.985200	3.032300	-9.051400	28.705954	0.000219	20.866950
2275.627166	-2.980200	3.031100	-9.031800	28.728525	0.000217	20.873563
2276.628078	-3.018100	3.029500	-9.142000	28.743162	0.000216	20.851798
2277.630855	-3.002000	3.028100	-9.088800	28.699507	0.000217	20.895067
2278.626262	-2.989300	3.026600	-9.046400	28.706421	0.000217	20.873109
2279.625949	-3.007700	3.025100	-9.098100	28.708005	0.000216	20.877550
2280.627250	-2.997300	3.025600	-9.067100	28.702008	0.000217	20.872458
2281.627036	-3.041500	3.023100	-9.192600	28.720887	0.000216	20.868240
2282.628184	-3.003600	3.024500	-9.083100	28.737731	0.000214	20.873353
2283.627230	-2.999300	3.021200	-9.060600	28.765479	0.000214	20.872380
2284.629769	-3.009100	3.018800	-9.083300	28.769764	0.000217	20.876222
2285.629897	-2.999200	3.018100	-9.051100	28.722422	0.000215	20.870735
2286.636051	-2.964100	3.019500	-8.949600	28.732082	0.000215	20.851069
2287.630887	-3.002400	3.016200	-9.054800	28.740060	0.000215	20.862897
2288.631596	-3.026600	3.014600	-9.122700	28.755446	0.000214	20.844258
2289.632185	-2.985400	3.013600	-8.995700	28.704059	0.000214	20.866463
2290.630862	-2.972800	3.013800	-8.957900	28.650548	0.000214	20.839595
2291.631342	-2.976300	3.012900	-8.966000	28.634493	0.000214	20.868941
2292.630184	-3.009700	3.010400	-9.058800	28.688282	0.000213	20.863850
2293.632237	-2.986600	3.010000	-8.988600	28.704317	0.000215	20.853448
2294.631462	-3.024100	3.008700	-9.097100	28.715094	0.000214	20.858613
2295.637661	-2.996900	3.008500	-9.014400	28.711009	0.000214	20.839801
2296.631339	-2.988100	3.005900	-8.980600	28.736282	0.000212	20.838230
2297.634004	-3.022900	3.005000	-9.083200	28.757194	0.000214	20.843173
2298.637273	-3.012900	3.001900	-9.042500	28.811051	0.000213	20.857595
2299.635016	-3.016100	3.001700	-9.051600	28.835822	0.000214	20.849832
2300.636025	-3.003200	3.000700	-9.010600	28.870055	0.000213	20.843540
2301.636126	-2.998300	2.999300	-8.992200	28.873104	0.000212	20.843293
2302.636404	-3.012200	2.997700	-9.028600	28.900897	0.000214	20.845214
2303.636858	-3.009700	2.996600	-9.017700	28.919228	0.000213	20.846138
2304.641636	-3.012900	2.995100	-9.022600	28.931199	0.000211	20.838283
2305.638526	-3.004100	2.995200	-8.996600	28.932607	0.000212	20.841124
2306.638544	-2.996600	2.992900	-8.967200	28.946898	0.000212	20.853151
2307.639198	-3.010300	2.991700	-9.004100	28.985019	0.000213	20.825177
2308.639133	-3.011000	2.991000	-9.004900	28.943628	0.000213	20.843219
2309.642608	-2.996300	2.989600	-8.957300	28.913155	0.000213	20.845235
2310.641698	-3.001000	2.986700	-8.960300	28.847086	0.000214	20.823721
2311.641783	-2.995700	2.985400	-8.942600	28.787606	0.000213	20.848677
2312.641146	-3.012400	2.984500	-8.989900	28.710927	0.000213	20.840667
2313.641317	-3.003800	2.983900	-8.961300	28.729086	0.000213	20.825292
2314.645181	-2.981300	2.981900	-8.889300	28.707976	0.000213	20.843384
2315.643899	-3.016400	2.980200	-8.988600	28.693260	0.000212	20.829510
2316.645302	-3.012600	2.979500	-8.974300	28.670983	0.000214	20.842633
2317.643549	-3.018000	2.977300	-8.983600	28.664839	0.000213	20.831229
2318.645080	-3.006800	2.975700	-8.946700	28.680440	0.000212	20.836985
2319.647114	-2.997500	2.976400	-8.920900	28.708115	0.000212	20.841153
2320.643799	-3.017400	2.973700	-8.971800	28.733981	0.000212	20.834491
2321.645600	-2.972400	2.973500	-8.837400	28.765025	0.000211	20.837785
2322.645651	-2.981700	2.970900	-8.856800	28.815537	0.000211	20.828925
2323.645739	-2.991300	2.969800	-8.883000	28.860670	0.000211	20.836457
2324.645081	-3.004400	2.966600	-8.911900	28.922372	0.000211	20.840296
2325.653269	-2.996800	2.966600	-8.888500	28.878457	0.000210	20.826401
2326.646043	-2.991500	2.964100	-8.865900	28.852120	0.000211	20.836853
2327.648674	-3.009900	2.962100	-8.913700	28.869858	0.000209	20.838127
2328.647567	-3.008900	2.962200	-8.911500	28.886479	0.000210	20.802715
2329.649809	-2.997600	2.959700	-8.869900	28.873652	0.000210	20.830570
2330.650776	-2.992100	2.960100	-8.856500	28.866887	0.000210	20.819487
2331.647347	-2.987800	2.958100	-8.837400	28.887568	0.000208	20.833209
2332.650213	-3.001700	2.955500	-8.871200	28.925048	0.000210	20.831613
2333.647458	-3.032600	2.954000	-8.956700	28.944619	0.000209	20.833312
2334.648488	-2.992200	2.952900	-8.834500	28.957154	0.000209	20.839776
2335.651833	-3.005600	2.952000	-8.871800	28.981626	0.000210	20.827449
2336.655105	-2.992900	2.950100	-8.828500	29.020610	0.000209	20.848707
2337.649484	-3.021100	2.947600	-8.904200	29.057791	0.000210	20.812676
2338.648846	-3.012200	2.947600	-8.877200	29.056604	0.000209	20.829972
2339.649256	-3.027300	2.943300	-8.909000	29.066412	0.000209	20.823260
2340.650495	-3.003000	2.943200	-8.837500	29.047339	0.000209	20.817793
2341.657778	-3.019700	2.940300	-8.876200	29.072039	0.000208	20.829403
2342.652007	-2.971300	2.940400	-8.735100	29.081774	0.000209	20.810763
2343.654001	-3.008200	2.938000	-8.837500	29.071892	0.000209	20.825935
2344.652071	-3.037800	2.935000	-8.914700	29.065324	0.000211	20.812206
2345.653513	-3.010200	2.933800	-8.830800	29.057799	0.000209	20.797511
2346.654077	-3.021900	2.932800	-8.862000	29.052229	0.000210	20.804702
2347.652669	-3.000200	2.932400	-8.796900	29.069240	0.000206	20.812358
2348.652153	-2.993500	2.930100	-8.770200	29.075537	0.000211	20.820126
2349.652905	-3.050000	2.926200	-8.922800	29.097503	0.000210	20.807646
2350.654094	-3.018900	2.926800	-8.833400	29.112414	0.000209	20.818877
2351.660238	-3.004600	2.925000	-8.786800	29.130320	0.000207	20.816531
2352.655186	-2.997900	2.925000	-8.767300	29.156498	0.000207	20.820151
2353.654810	-3.001100	2.921700	-8.767300	29.133343	0.000207	20.808672
2354.657884	-2.997600	2.920500	-8.753500	29.132824	0.000206	20.801985
2355.655764	-2.995300	2.918900	-8.742500	29.093419	0.000208	20.800212
2356.655884	-3.021900	2.916500	-8.812200	28.990564	0.000209	20.820806
2357.657747	-3.012300	2.914900	-8.779600	28.919719	0.000210	20.812494
2358.655010	-2.990900	2.914200	-8.714900	28.915185	0.000207	20.819780
2359.658354	-2.996100	2.912200	-8.724900	28.909586	0.000209	20.819355
2360.655111	-3.016200	2.912000	-8.781900	28.924671	0.000209	20.809423
2361.655345	-3.008700	2.908900	-8.751300	28.974411	0.000207	20.807378
2362.658204	-3.008200	2.906300	-8.741900	28.974657	0.000210	20.796245
2363.657946	-2.999300	2.905600	-8.713200	28.996678	0.000207	20.809897
2364.654932	-3.030600	2.901700	-8.793000	29.014119	0.000207	20.803288
2365.655291	-2.994200	2.901500	-8.686700	29.053174	0.000209	20.798542
2366.655285	-2.997700	2.899800	-8.691800	29.048939	0.000208	20.822249
2367.655584	-2.998800	2.899400	-8.694200	29.084822	0.000207	20.810990
2368.656610	-3.001000	2.896100	-8.690400	29.082666	0.000210	20.792221
2369.655567	-3.008600	2.893800	-8.705500	29.122713	0.000207	20.797487
2370.658439	-3.006800	2.892900	-8.697500	29.085956	0.000209	20.812606
2371.655192	-2.981600	2.890800	-8.617500	29.054079	0.000208	20.802298
2372.655776	-3.012200	2.888500	-8.699700	29.038251	0.000209	20.815273
2373.660196	-3.019900	2.884600	-8.709900	29.007453	0.000207	20.812219
2374.655573	-2.998400	2.885700	-8.651600	28.945409	0.000208	20.783848
2375.657300	-2.996600	2.883100	-8.639000	28.949513	0.000207	20.819277
2376.657463	-2.986800	2.880700	-8.602900	28.972869	0.000208	20.800134
2377.658008	-3.017700	2.877800	-8.681300	28.967393	0.000206	20.802678
2378.657297	-3.018600	2.876300	-8.681400	28.916016	0.000209	20.794065
2379.659597	-2.998800	2.874000	-8.617400	28.894014	0.000206	20.793710
2380.657011	-3.017900	2.871900	-8.665700	28.889852	0.000206	20.801845
2381.659327	-3.010800	2.870400	-8.640900	28.872409	0.000208	20.794704
2382.657927	-2.992700	2.869300	-8.585800	28.900174	0.000207	20.790907
2383.658922	-3.022000	2.867000	-8.662800	28.913324	0.000208	20.798939
2384.660403	-3.016900	2.866100	-8.644600	28.944386	0.000208	20.811267
2385.658457	-3.020700	2.862300	-8.645300	28.990500	0.000209	20.808888
2386.658705	-2.995400	2.863000	-8.574700	29.025001	0.000208	20.800502
2387.657979	-3.002400	2.859600	-8.584500	29.049121	0.000206	20.809630
2388.659169	-2.972700	2.858000	-8.494800	29.077671	0.000206	20.790982
2389.659884	-3.004100	2.855200	-8.576700	29.103749	0.000206	20.785964
2390.660576	-2.980800	2.854100	-8.505700	29.169573	0.000208	20.782592
2391.659322	-2.997100	2.851600	-8.545300	29.181901	0.000208	20.801179
2392.659930	-2.979900	2.850200	-8.491700	29.205796	0.000208	20.772626
2393.660637	-2.993200	2.847400	-8.521600	29.216745	0.000209	20.786505
2394.663385	-2.978500	2.847000	-8.479000	29.243728	0.000207	20.799472
2395.661622	-2.961500	2.845500	-8.425600	29.250118	0.000207	20.794059
2396.659824	-3.022300	2.841400	-8.586200	29.184762	0.000207	20.786043
2397.662070	-3.008400	2.839400	-8.540800	29.144762	0.000208	20.803583
2398.662297	-3.010100	2.835200	-8.533800	29.094960	0.000207	20.787540
2399.661702	-3.019700	2.833100	-8.554300	29.150388	0.000206	20.808304
2400.662370	-3.010900	2.831900	-8.525800	29.144913	0.000206	20.827443
2401.662700	-2.998700	2.830400	-8.486300	29.178616	0.000205	20.797869
2402.662887	-3.030100	2.826600	-8.563400	29.190302	0.000206	20.780721
2403.662214	-3.014300	2.825400	-8.515800	29.145826	0.000203	20.796595
2404.661985	-3.014500	2.822500	-8.505800	29.140949	0.000204	20.791206
2405.661442	-3.008900	2.820900	-8.487000	29.173563	0.000205	20.773336
2406.663940	-2.978800	2.818200	-8.392600	29.215858	0.000204	20.796042
2407.662541	-3.025500	2.814600	-8.514500	29.236740	0.000205	20.803336
2408.666043	-3.021500	2.812800	-8.497100	29.277796	0.000204	20.780226
2409.664649	-3.000700	2.811300	-8.434600	29.301292	0.000203	20.770240
2410.665628	-3.004200	2.807700	-8.434100	29.331332	0.000204	20.789610
2411.668148	-2.996700	2.806000	-8.407200	29.363029	0.000204	20.795951
2412.665128	-3.023200	2.803300	-8.474100	29.377935	0.000204	20.801493
2413.665681	-2.981400	2.800700	-8.348800	29.376598	0.000205	20.766953
2414.665391	-3.002800	2.798900	-8.403900	29.384076	0.000204	20.790612
2415.665227	-3.027900	2.795600	-8.463400	29.353227	0.000205	20.776115
2416.667491	-2.986400	2.794500	-8.343700	29.322348	0.000206	20.779607
2417.670350	-3.016900	2.790700	-8.418300	29.312992	0.000206	20.799101
2418.668404	-3.005300	2.788200	-8.378500	29.304920	0.000205	20.772000
2419.674314	-2.988600	2.785700	-8.324500	29.325866	0.000205	20.798800
2420.668057	-3.000400	2.783300	-8.350700	29.335058	0.000205	20.780089
2421.667328	-2.991800	2.780700	-8.318200	29.334862	0.000206	20.770408
2422.672423	-3.008200	2.778400	-8.357200	29.321390	0.000205	20.775323
2423.667927	-3.016400	2.775000	-8.369000	29.264785	0.000205	20.794615
2424.669028	-2.995500	2.773400	-8.305700	29.166795	0.000206	20.765093
2425.669579	-2.977700	2.769600	-8.244900	29.089501	0.000205	20.777298
2426.669847	-3.022800	2.766700	-8.362400	29.050099	0.000204	20.777425
2427.670906	-3.005500	2.763500	-8.304400	29.018590	0.000207	20.783610
2428.670773	-2.993900	2.759500	-8.260900	29.067135	0.000204	20.775624
2429.672689	-2.989700	2.758900	-8.247600	29.101908	0.000204	20.788851
2430.671184	-3.010500	2.754100	-8.290400	29.148837	0.000204	20.775447
2431.671596	-2.999400	2.752700	-8.255200	29.214617	0.000204	20.760178
2432.673496	-3.003400	2.749400	-8.256300	29.228753	0.000204	20.779640
2433.674237	-3.016200	2.745100	-8.278800	29.248445	0.000206	20.757284
2434.672977	-2.985900	2.742300	-8.187700	29.282496	0.000207	20.762203
2435.673720	-3.004000	2.739300	-8.227800	29.300002	0.000205	20.776052
2436.673501	-2.984300	2.736700	-8.166100	29.313274	0.000206	20.746279
2437.676035	-3.002800	2.732400	-8.204400	29.251717	0.000208	20.784290
2438.680441	-2.982800	2.730900	-8.143400	29.200035	0.000205	20.757811
2439.678821	-3.008000	2.726000	-8.199200	29.163657	0.000206	20.779949
2440.682106	-3.014100	2.722700	-8.204000	29.153427	0.000205	20.749726
2441.679009	-3.015500	2.719600	-8.200100	29.191713	0.000205	20.758908
2442.678659	-2.987200	2.717900	-8.118000	29.230369	0.000207	20.775104
2443.682527	-3.028000	2.712000	-8.209900	29.315798	0.000204	20.765419
2444.684173	-3.010800	2.708400	-8.152700	29.349794	0.000204	20.761275
2445.682007	-2.988900	2.706200	-8.087600	29.425314	0.000205	20.761527
2446.681356	-2.989500	2.703200	-8.080400	29.389586	0.000206	20.745429
2447.682273	-3.016100	2.699000	-8.139500	29.334195	0.000204	20.755511
2448.682642	-2.983000	2.695500	-8.040300	29.299405	0.000207	20.756010
2449.684330	-2.988400	2.692700	-8.045600	29.299998	0.000205	20.764194
2450.683969	-3.018300	2.688500	-8.113400	29.306286	0.000204	20.753462
2451.687833	-2.967100	2.685500	-7.967200	29.338450	0.000207	20.757902
2452.684109	-3.001200	2.680000	-8.042500	29.326021	0.000202	20.759601
2453.688529	-2.995500	2.675900	-8.013200	29.277214	0.000203	20.761147
2454.690007	-3.000900	2.672300	-8.018300	29.196431	0.000204	20.758447
2455.685287	-3.003200	2.668300	-8.013000	29.185289	0.000203	20.759548
2456.683981	-2.991900	2.663900	-7.969100	29.106061	0.000203	20.757000
2457.684306	-2.985200	2.661300	-7.942800	29.063341	0.000204	20.742877
2458.699662	-3.005600	2.656100	-7.981900	29.035724	0.000204	20.750613
2459.685474	-2.987700	2.652800	-7.924900	29.028051	0.000203	20.762797
2460.685293	-3.031300	2.647600	-8.024600	29.071468	0.000203	20.746324
2461.688529	-3.014700	2.643900	-7.969600	29.100591	0.000204	20.744848
2462.686841	-3.015200	2.639500	-7.957700	29.204883	0.000204	20.744205
2463.688201	-2.999200	2.635200	-7.902400	29.282860	0.000202	20.755932
2464.687741	-2.998200	2.631800	-7.889800	29.362668	0.000204	20.769035
2465.685443	-3.006800	2.625800	-7.894800	29.361846	0.000203	20.726005
2466.686347	-3.021800	2.618900	-7.912700	29.386833	0.000202	20.766363
2467.689191	-2.983200	2.617900	-7.808700	29.432661	0.000205	20.746172
2468.686562	-3.020000	2.610400	-7.882400	29.441280	0.000203	20.764343
2469.688251	-2.990800	2.606500	-7.794100	29.466952	0.000203	20.750390
2470.696308	-2.996900	2.600800	-7.793200	29.405597	0.000200	20.764887
2471.687970	-3.008100	2.596300	-7.808500	29.395894	0.000203	20.750839
2472.689029	-3.005700	2.589800	-7.783800	29.378238	0.000203	20.749640
2473.686774	-3.007500	2.584200	-7.771000	29.376504	0.000204	20.736985
2474.686766	-3.015500	2.578800	-7.775600	29.401707	0.000201	20.734412
2475.689808	-2.977000	2.576200	-7.667900	29.426762	0.000204	20.762038
2476.688812	-3.014000	2.567400	-7.737500	29.432432	0.000204	20.755425
2477.694087	-3.005400	2.561800	-7.698300	29.428096	0.000203	20.743467
2478.691082	-2.994100	2.556900	-7.654400	29.449314	0.000204	20.757268
2479.691008	-2.991500	2.549900	-7.627100	29.465954	0.000204	20.748436
2480.692298	-2.997800	2.546400	-7.632700	29.395960	0.000203	20.757070
2481.691386	-2.975900	2.539000	-7.554700	29.391153	0.000205	20.750803
2482.693436	-3.024500	2.531600	-7.656200	29.389271	0.000203	20.742268
2483.689651	-2.998900	2.526400	-7.575900	29.403384	0.000204	20.741793
2484.690008	-3.000200	2.520000	-7.559200	29.413460	0.000206	20.757639
2485.694146	-2.984800	2.515200	-7.506500	29.463643	0.000205	20.744210
2486.693268	-3.014900	2.507900	-7.560700	29.498297	0.000207	20.766339
2487.692122	-3.032900	2.500300	-7.581600	29.527731	0.000207	20.774673
2488.693018	-2.973200	2.496300	-7.420400	29.520925	0.000204	20.759751
