LabVIEW Measurement	
Writer_Version	2
Reader_Version	2
Separator	Tab
Decimal_Separator	.
Multi_Headings	No
X_Columns	One
Time_Pref	Absolute
Operator	admin
Description	Clolumns are: time, Current, Voltage, Power, Battery Temp, and Chamber Temp
Date	2024/08/16
Time	13:06:06.104549407958984375
***End_of_Header***	
	
Channels	6						
Samples	1	1	1	1	1	1	
Date	2024/09/01	2024/09/01	2024/09/01	2024/09/01	2024/09/01	2024/09/01	
Time	15:47:22.4863343238830566406	15:47:22.4942169189453125	15:47:22.5002655982971191406	15:47:22.4700255393981933594	15:47:22.4700255393981933594	15:47:22.4700255393981933594	
X_Dimension	Time	Time	Time	Time	Time	Time	
X0	0.0000000000000000E+0	0.0000000000000000E+0	0.0000000000000000E+0	0.0000000000000000E+0	0.0000000000000000E+0	0.0000000000000000E+0	
Delta_X	1.000000	1.000000	1.000000	1.000000	1.000000	1.000000	
***End_of_Header***							
X_Value	Untitled	Untitled 1	Untitled 2	Untitled 3	Untitled 4	Untitled 5	Comment
0.000000	0.027922	4.104500	0.114500	21.010600	0.000936	20.740351
1.001866	-3.026000	3.936900	-11.911000	21.008513	0.000935	20.783310
1.999590	-2.970400	3.931500	-11.678000	21.029502	0.000936	20.757834
3.000550	-2.996800	3.925800	-11.764000	21.020427	0.000935	20.775311
4.000600	-3.002400	3.922800	-11.776000	21.013218	0.000935	20.784222
5.004437	-2.990900	3.918900	-11.720000	21.027773	0.000933	20.767011
6.001890	-2.999400	3.915300	-11.741000	21.000302	0.000932	20.766561
7.003941	-3.009400	3.911900	-11.772000	21.022343	0.000933	20.779598
8.001828	-3.016900	3.911300	-11.799000	21.020773	0.000933	20.765700
9.002053	-3.005900	3.908900	-11.748000	21.019807	0.000929	20.770898
10.002972	-3.016700	3.907300	-11.785000	21.025773	0.000930	20.791090
11.002734	-3.006300	3.905000	-11.739000	21.044908	0.000929	20.786995
12.002067	-2.988000	3.903900	-11.664000	21.029751	0.000929	20.775154
13.004591	-2.982900	3.903800	-11.644000	21.037262	0.000927	20.781718
14.005143	-3.001700	3.901600	-11.710000	21.046546	0.000926	20.770616
15.004754	-3.010900	3.899200	-11.739000	21.035970	0.000927	20.762407
16.004194	-3.014900	3.897600	-11.750000	21.046005	0.000925	20.770074
17.004705	-3.005200	3.896900	-11.709000	21.059279	0.000925	20.755375
18.005652	-3.007500	3.896400	-11.717000	21.057592	0.000925	20.772655
19.007113	-3.016500	3.894700	-11.747000	21.085740	0.000924	20.778998
20.005882	-2.998700	3.893900	-11.676000	21.073766	0.000922	20.777927
21.003601	-2.993700	3.894800	-11.659000	21.076813	0.000922	20.778604
22.008667	-2.985700	3.892100	-11.620000	21.077793	0.000920	20.790964
23.004859	-2.981700	3.892600	-11.606000	21.102941	0.000922	20.774393
24.006351	-2.989100	3.891100	-11.630000	21.117716	0.000921	20.783482
25.009000	-2.992900	3.890700	-11.643000	21.115722	0.000921	20.784806
26.006505	-3.015000	3.888900	-11.724000	21.133692	0.000921	20.782867
27.007878	-3.002400	3.890700	-11.681000	21.107399	0.000919	20.770791
28.009833	-2.976100	3.889300	-11.574000	21.119552	0.000918	20.779154
29.006411	-2.997200	3.888600	-11.653000	21.134351	0.000919	20.785423
30.006203	-3.001500	3.886800	-11.664000	21.131440	0.000918	20.789624
31.014111	-3.011200	3.885600	-11.699000	21.148856	0.000918	20.771008
32.012985	-3.020300	3.885400	-11.734000	21.151349	0.000916	20.788201
33.008031	-3.000800	3.885100	-11.657000	21.152156	0.000918	20.783318
34.012229	-3.007400	3.884000	-11.678000	21.168851	0.000915	20.790062
35.008665	-3.003900	3.885100	-11.668000	21.172766	0.000916	20.771218
36.009077	-3.036000	3.882900	-11.787000	21.169282	0.000914	20.800925
37.009274	-2.994100	3.884900	-11.630000	21.167737	0.000915	20.797008
38.009592	-3.009000	3.883900	-11.685000	21.182955	0.000916	20.795161
39.009970	-3.003800	3.882500	-11.661000	21.187824	0.000913	20.795765
40.009402	-2.997300	3.883900	-11.641000	21.207209	0.000913	20.777698
41.010470	-2.983600	3.882300	-11.582000	21.199933	0.000914	20.805507
42.010331	-3.004300	3.880400	-11.655000	21.209062	0.000916	20.794251
43.009339	-2.986300	3.880900	-11.589000	21.215255	0.000915	20.776738
44.011842	-3.000500	3.880100	-11.641000	21.224612	0.000915	20.783727
45.011402	-2.999800	3.878900	-11.635000	21.230822	0.000915	20.792312
46.011001	-3.003100	3.879700	-11.650000	21.248391	0.000912	20.783334
47.011322	-2.992600	3.880100	-11.611000	21.256146	0.000913	20.791093
48.010542	-2.994300	3.878200	-11.611000	21.245645	0.000914	20.814726
49.011691	-3.001200	3.879000	-11.641000	21.267644	0.000915	20.797854
50.012113	-3.012600	3.877000	-11.678000	21.240105	0.000913	20.806813
51.011277	-3.003600	3.877500	-11.645000	21.273904	0.000912	20.801745
52.010732	-3.003300	3.876200	-11.640000	21.285870	0.000913	20.806603
53.012458	-2.998200	3.877000	-11.623000	21.286098	0.000912	20.787865
54.014272	-2.997300	3.876800	-11.618000	21.292185	0.000913	20.801068
55.013868	-2.998000	3.876300	-11.619000	21.292136	0.000910	20.813346
56.019818	-3.001100	3.875600	-11.629000	21.322086	0.000912	20.792576
57.014682	-2.979700	3.875900	-11.548000	21.298161	0.000910	20.817003
58.015090	-3.008800	3.875000	-11.659000	21.311628	0.000911	20.800131
59.016463	-2.987600	3.875700	-11.578000	21.315894	0.000910	20.800131
60.015461	-2.997900	3.873800	-11.613000	21.315968	0.000911	20.805894
61.014211	-2.984400	3.873800	-11.560000	21.356245	0.000911	20.819164
62.016300	-2.986200	3.874800	-11.569000	21.344422	0.000910	20.795007
63.016550	-2.994100	3.874200	-11.599000	21.341658	0.000911	20.804096
64.017988	-2.994000	3.872500	-11.593000	21.354472	0.000911	20.800795
65.017608	-2.994600	3.874300	-11.601000	21.365576	0.000911	20.812378
66.018312	-3.012000	3.873200	-11.665000	21.383536	0.000910	20.794311
67.019222	-3.000800	3.872300	-11.618000	21.370168	0.000909	20.789471
68.018999	-2.994800	3.872100	-11.595000	21.372057	0.000909	20.797525
69.018157	-2.978800	3.873400	-11.537000	21.377947	0.000910	20.786349
70.020632	-2.982400	3.872000	-11.547000	21.397623	0.000910	20.776638
71.020086	-2.988700	3.871900	-11.571000	21.387468	0.000911	20.804884
72.020995	-3.000300	3.871600	-11.615000	21.404701	0.000910	20.787038
73.019094	-2.998400	3.871400	-11.608000	21.393745	0.000912	20.789827
74.019435	-2.975400	3.871700	-11.519000	21.416788	0.000912	20.790596
75.020944	-2.987700	3.871900	-11.567000	21.433122	0.000912	20.778490
76.020994	-3.015200	3.870300	-11.669000	21.428653	0.000911	20.786821
77.021166	-3.001300	3.870500	-11.616000	21.435078	0.000911	20.786137
78.020815	-2.990400	3.871200	-11.575000	21.443404	0.000913	20.777873
79.019577	-3.002900	3.870300	-11.622000	21.446807	0.000911	20.767052
80.022274	-2.985400	3.869200	-11.550000	21.448720	0.000913	20.787933
81.021696	-3.003100	3.868500	-11.616000	21.454720	0.000912	20.793462
82.022926	-2.988400	3.868900	-11.561000	21.449501	0.000912	20.794404
83.022693	-3.005700	3.867200	-11.622000	21.455648	0.000913	20.759777
84.021985	-3.015900	3.867500	-11.662000	21.458836	0.000913	20.771976
85.024401	-2.997000	3.867800	-11.590000	21.475082	0.000914	20.770214
86.023442	-2.997700	3.867100	-11.591000	21.491562	0.000915	20.788601
87.024031	-2.996000	3.867200	-11.586000	21.479271	0.000913	20.796691
88.022245	-3.019800	3.867300	-11.678000	21.489462	0.000913	20.755678
89.023529	-3.004900	3.867100	-11.619000	21.481738	0.000915	20.791572
90.022906	-2.999900	3.866400	-11.598000	21.507615	0.000916	20.787594
91.024107	-3.017400	3.866900	-11.667000	21.493860	0.000915	20.768614
92.026429	-2.996100	3.865600	-11.581000	21.492394	0.000915	20.788485
93.030592	-2.998900	3.866100	-11.593000	21.519834	0.000916	20.785596
94.023782	-3.005900	3.865200	-11.617000	21.507722	0.000914	20.774424
95.027827	-2.990100	3.864300	-11.554000	21.525821	0.000915	20.780680
96.029058	-2.986100	3.866300	-11.544000	21.544780	0.000914	20.767883
97.026250	-2.990900	3.865600	-11.559000	21.561124	0.000914	20.787557
98.027338	-2.997800	3.865100	-11.586000	21.548914	0.000914	20.782452
99.025607	-3.030000	3.863200	-11.704000	21.570519	0.000916	20.795062
100.026771	-3.024300	3.862200	-11.678000	21.588463	0.000917	20.781250
101.029235	-2.995500	3.864100	-11.574000	21.566875	0.000917	20.790467
102.027166	-2.995400	3.864400	-11.575000	21.577238	0.000918	20.791354
103.027462	-2.983800	3.865000	-11.531000	21.567902	0.000914	20.788650
104.029018	-2.978100	3.864400	-11.508000	21.593772	0.000916	20.778975
105.028741	-2.973000	3.864800	-11.489000	21.593033	0.000918	20.778710
106.027426	-2.978300	3.865000	-11.509000	21.613542	0.000917	20.803975
107.028481	-3.000100	3.863100	-11.588000	21.620440	0.000918	20.761091
108.026662	-3.006200	3.863200	-11.611000	21.605388	0.000918	20.782539
109.027547	-2.987800	3.863300	-11.542000	21.631780	0.000918	20.797570
110.029359	-2.994000	3.862800	-11.564000	21.644111	0.000918	20.787151
111.030105	-2.997500	3.861900	-11.575000	21.660509	0.000917	20.774638
112.029070	-2.990300	3.862500	-11.547000	21.646331	0.000917	20.771829
113.030640	-2.981300	3.862700	-11.515000	21.648239	0.000918	20.779902
114.029979	-3.017700	3.860400	-11.649000	21.667947	0.000918	20.774021
115.031093	-3.007300	3.862100	-11.614000	21.633027	0.000917	20.772740
116.032459	-2.999200	3.861000	-11.579000	21.672039	0.000917	20.774322
117.029767	-2.999600	3.861200	-11.581000	21.663024	0.000918	20.771939
118.030561	-3.011500	3.860100	-11.622000	21.690818	0.000917	20.763718
119.031542	-3.006400	3.859800	-11.603000	21.677213	0.000916	20.789932
120.032129	-2.998500	3.859900	-11.572000	21.678628	0.000915	20.761950
121.030731	-3.012900	3.859600	-11.627000	21.716069	0.000916	20.766230
122.031187	-3.003100	3.859500	-11.590000	21.695641	0.000916	20.756217
123.029571	-3.023100	3.858500	-11.664000	21.701542	0.000916	20.782511
124.031090	-3.007800	3.858800	-11.606000	21.699087	0.000917	20.771519
125.031940	-2.998400	3.859700	-11.572000	21.702102	0.000918	20.778804
126.032166	-3.001400	3.858200	-11.578000	21.703535	0.000918	20.784981
127.034900	-2.993200	3.860200	-11.553000	21.705030	0.000918	20.758027
128.034723	-2.988000	3.859400	-11.531000	21.724892	0.000918	20.772689
129.034939	-3.003500	3.859100	-11.589000	21.715312	0.000917	20.784913
130.035340	-3.010700	3.857400	-11.611000	21.721994	0.000914	20.763151
131.037194	-3.005800	3.856800	-11.591000	21.733783	0.000916	20.769259
132.034595	-2.979800	3.858000	-11.493000	21.741652	0.000917	20.775239
133.035909	-3.010100	3.857000	-11.609000	21.752174	0.000917	20.786717
134.036256	-2.999300	3.856500	-11.565000	21.771524	0.000917	20.784272
135.034707	-2.980800	3.857300	-11.496000	21.765433	0.000919	20.780073
136.035521	-3.008600	3.856000	-11.600000	21.757231	0.000919	20.760010
137.035378	-3.016900	3.855600	-11.632000	21.747381	0.000916	20.769118
138.036396	-2.992400	3.855900	-11.536000	21.776249	0.000917	20.777622
139.034902	-3.001500	3.854500	-11.568000	21.780814	0.000919	20.775553
140.036420	-2.999200	3.855100	-11.561000	21.773450	0.000919	20.775768
141.036056	-3.001300	3.854800	-11.568000	21.791181	0.000919	20.785455
142.037261	-3.011700	3.854200	-11.606000	21.784241	0.000920	20.772344
143.037269	-3.006500	3.855500	-11.590000	21.778581	0.000919	20.771421
144.037031	-3.001900	3.855500	-11.573000	21.771223	0.000920	20.767375
145.037455	-3.016700	3.854600	-11.627000	21.782691	0.000920	20.754197
146.037214	-3.012500	3.853100	-11.607000	21.790246	0.000917	20.756543
147.039618	-2.996400	3.854900	-11.549000	21.810119	0.000919	20.755570
148.038682	-2.994600	3.853700	-11.538000	21.825801	0.000919	20.779328
149.038310	-2.996300	3.853600	-11.545000	21.858015	0.000920	20.748507
150.037766	-2.982900	3.853200	-11.493000	21.847820	0.000917	20.786194
151.038657	-3.005700	3.852900	-11.580000	21.871383	0.000917	20.765682
152.036778	-2.992900	3.853400	-11.532000	21.889156	0.000919	20.763083
153.039339	-2.978200	3.853000	-11.474000	21.880113	0.000919	20.736012
154.037606	-2.985700	3.853400	-11.504000	21.905318	0.000922	20.746542
155.040038	-2.979100	3.853500	-11.479000	21.902894	0.000919	20.760712
156.038047	-3.003000	3.851700	-11.565000	21.928830	0.000920	20.747792
157.038332	-2.988500	3.852600	-11.512000	21.937184	0.000922	20.743827
158.037594	-3.009800	3.851200	-11.591000	21.931949	0.000919	20.759924
159.038530	-2.994700	3.852400	-11.536000	21.931051	0.000921	20.777991
160.039613	-3.006000	3.853200	-11.581000	21.927637	0.000922	20.753710
161.039123	-2.998000	3.852300	-11.548000	21.918686	0.000922	20.764191
162.042366	-2.992300	3.850100	-11.520000	21.915019	0.000924	20.747719
163.041064	-3.013900	3.850500	-11.603000	21.932404	0.000922	20.748999
164.041369	-2.986800	3.852400	-11.505000	21.968108	0.000923	20.748230
165.046363	-2.989900	3.851200	-11.513000	21.955190	0.000922	20.746678
166.046478	-2.981600	3.851100	-11.481000	21.962923	0.000925	20.745883
167.044417	-2.999100	3.849600	-11.544000	21.970950	0.000924	20.761032
168.044613	-3.002600	3.849500	-11.557000	21.971929	0.000925	20.754425
169.046012	-2.997700	3.849400	-11.538000	21.992714	0.000926	20.758163
170.042590	-3.007000	3.849500	-11.574000	21.991743	0.000925	20.765725
171.045551	-2.993900	3.851200	-11.529000	22.010148	0.000926	20.733887
172.046614	-2.995700	3.850100	-11.532000	22.020193	0.000926	20.740624
173.042483	-3.008300	3.849200	-11.579000	22.013432	0.000928	20.750927
174.047447	-2.995900	3.848800	-11.530000	22.027347	0.000927	20.744467
175.047125	-3.005400	3.848600	-11.565000	22.040756	0.000928	20.756943
176.043455	-3.003200	3.848200	-11.556000	22.038314	0.000927	20.729367
177.044376	-2.987800	3.849400	-11.500000	22.049583	0.000930	20.720733
178.045754	-2.998600	3.848000	-11.537000	22.066283	0.000929	20.739824
179.041664	-3.014000	3.846100	-11.591000	22.052972	0.000927	20.751629
180.043811	-3.004500	3.847600	-11.559000	22.074366	0.000930	20.730845
181.042659	-2.997400	3.847800	-11.531000	22.056288	0.000931	20.747835
182.042049	-2.984800	3.848700	-11.487000	22.096872	0.000929	20.741049
183.045469	-2.988900	3.848300	-11.501000	22.100839	0.000930	20.728899
184.045364	-2.979700	3.847500	-11.463000	22.100686	0.000931	20.751032
185.044342	-3.007100	3.846000	-11.564000	22.133623	0.000930	20.741807
186.046175	-2.986900	3.846000	-11.486000	22.118966	0.000931	20.760324
187.044403	-3.004700	3.845000	-11.551000	22.136415	0.000931	20.730851
188.042972	-3.007400	3.845700	-11.564000	22.121765	0.000933	20.735624
189.045233	-2.990600	3.845600	-11.500000	22.124760	0.000930	20.749055
190.045067	-3.002700	3.845300	-11.545000	22.128549	0.000933	20.730088
191.044987	-2.971900	3.846100	-11.429000	22.141459	0.000932	20.735901
192.049734	-3.017700	3.842900	-11.594000	22.164450	0.000933	20.735211
193.046630	-3.011300	3.844400	-11.575000	22.170933	0.000934	20.724632
194.046077	-3.015100	3.842700	-11.585000	22.159117	0.000937	20.732717
195.048616	-2.995500	3.844200	-11.514000	22.146337	0.000934	20.728930
196.047772	-2.993900	3.845100	-11.509000	22.141305	0.000934	20.722470
197.049477	-2.993900	3.844000	-11.507000	22.164862	0.000938	20.735624
198.050773	-3.007900	3.843200	-11.559000	22.173940	0.000936	20.743291
199.050927	-3.028000	3.842000	-11.632000	22.145279	0.000937	20.741148
200.051871	-2.999700	3.843500	-11.529000	22.155698	0.000938	20.735458
201.052952	-3.002700	3.843400	-11.539000	22.152586	0.000939	20.723332
202.053829	-3.000900	3.842000	-11.528000	22.149849	0.000938	20.745249
203.051425	-3.016700	3.841300	-11.586000	22.171419	0.000940	20.729860
204.055480	-2.999600	3.841900	-11.523000	22.177003	0.000939	20.717433
205.053282	-2.998800	3.841700	-11.520000	22.176339	0.000940	20.730519
206.057889	-3.010600	3.841100	-11.563000	22.164198	0.000940	20.725950
207.052988	-3.007200	3.841200	-11.550000	22.185922	0.000940	20.718301
208.052762	-2.987100	3.841000	-11.473000	22.182262	0.000939	20.709421
209.052145	-3.001100	3.840800	-11.526000	22.205467	0.000940	20.693773
210.056164	-3.000400	3.841300	-11.525000	22.207792	0.000940	20.706533
211.052987	-3.006300	3.841600	-11.548000	22.196654	0.000941	20.711029
212.055339	-3.011600	3.840900	-11.566000	22.190030	0.000940	20.716725
213.054449	-2.997700	3.841400	-11.514000	22.213358	0.000941	20.710684
214.055222	-2.994000	3.841500	-11.500000	22.210523	0.000940	20.701680
215.054153	-3.007400	3.839000	-11.544000	22.202780	0.000944	20.712895
216.056379	-3.006800	3.839000	-11.540000	22.216913	0.000944	20.718985
217.055953	-2.998200	3.838900	-11.508000	22.228802	0.000944	20.690583
218.055775	-3.019900	3.839200	-11.592000	22.232246	0.000945	20.701145
219.054481	-3.014800	3.838900	-11.572000	22.268808	0.000944	20.713098
220.054260	-3.001400	3.838500	-11.519000	22.243691	0.000945	20.687473
221.056971	-2.988500	3.839700	-11.474000	22.255260	0.000945	20.694790
222.059822	-3.008600	3.839000	-11.549000	22.276594	0.000945	20.696711
223.056649	-3.002200	3.837600	-11.520000	22.282283	0.000945	20.689130
224.057389	-2.999300	3.839300	-11.514000	22.276951	0.000946	20.696120
225.059232	-2.990600	3.838000	-11.476000	22.274362	0.000946	20.706805
226.057336	-2.997200	3.836300	-11.498000	22.282658	0.000948	20.693299
227.057803	-3.024600	3.837800	-11.605000	22.290690	0.000948	20.697549
228.061735	-3.021800	3.837000	-11.594000	22.301304	0.000946	20.703436
229.060261	-3.003800	3.837200	-11.525000	22.331013	0.000949	20.679129
230.058256	-3.021100	3.836700	-11.590000	22.331714	0.000949	20.688367
231.061987	-3.002900	3.838000	-11.524000	22.331960	0.000951	20.698097
232.059741	-3.001400	3.835400	-11.510000	22.337778	0.000950	20.697758
233.060262	-2.986500	3.836500	-11.457000	22.357684	0.000951	20.715322
234.063306	-3.025400	3.834300	-11.599000	22.381783	0.000951	20.685398
235.059167	-3.013600	3.836300	-11.559000	22.384028	0.000951	20.680533
236.073147	-3.017500	3.834700	-11.570000	22.393676	0.000951	20.715328
237.064405	-3.002400	3.835900	-11.514000	22.383518	0.000952	20.698042
238.060523	-2.985400	3.835000	-11.448000	22.402009	0.000953	20.690953
239.063216	-2.991800	3.833700	-11.469000	22.409265	0.000952	20.697272
240.064549	-2.988600	3.836100	-11.464000	22.396554	0.000952	20.685491
241.060970	-3.001800	3.833900	-11.507000	22.417788	0.000955	20.673088
242.062298	-2.990000	3.835100	-11.466000	22.431672	0.000954	20.675139
243.064981	-2.987700	3.834500	-11.454000	22.426741	0.000955	20.669251
244.062397	-3.004800	3.834300	-11.521000	22.444413	0.000955	20.673673
245.062946	-2.980000	3.834200	-11.425000	22.437237	0.000954	20.689722
246.066727	-2.986100	3.834200	-11.448000	22.422738	0.000953	20.679468
247.062819	-3.004100	3.833200	-11.514000	22.433450	0.000955	20.681661
248.064928	-2.999400	3.835200	-11.503000	22.440656	0.000957	20.675127
249.065848	-3.012900	3.832500	-11.546000	22.452899	0.000958	20.681224
250.068799	-3.030100	3.831500	-11.607000	22.454916	0.000957	20.675656
251.065994	-3.003000	3.831800	-11.505000	22.442342	0.000958	20.670176
252.067618	-3.002700	3.831000	-11.501000	22.466433	0.000959	20.664430
253.066254	-2.998500	3.831800	-11.489000	22.491354	0.000960	20.673267
254.065287	-2.998400	3.832100	-11.488000	22.467761	0.000960	20.675244
255.068435	-2.988300	3.832000	-11.449000	22.466040	0.000961	20.686797
256.067733	-2.990500	3.832100	-11.459000	22.471279	0.000961	20.678293
257.068247	-2.989700	3.831500	-11.455000	22.487474	0.000960	20.679340
258.069227	-3.016400	3.829400	-11.550000	22.516533	0.000961	20.694218
259.067849	-3.006400	3.831100	-11.517000	22.505029	0.000963	20.683645
260.068514	-2.984800	3.830300	-11.431000	22.499944	0.000960	20.678077
261.070460	-2.984900	3.830800	-11.433000	22.542782	0.000963	20.664553
262.070117	-3.002700	3.829900	-11.497000	22.522627	0.000965	20.669973
263.069015	-3.000800	3.830000	-11.490000	22.538945	0.000965	20.672091
264.069745	-2.977100	3.830200	-11.402000	22.538533	0.000963	20.663618
265.068802	-3.005000	3.829300	-11.506000	22.556247	0.000966	20.670928
266.069835	-2.986900	3.830700	-11.440000	22.547455	0.000965	20.666863
267.074634	-3.009000	3.827900	-11.516000	22.544221	0.000966	20.685912
268.071668	-2.990200	3.829400	-11.450000	22.552466	0.000966	20.655759
269.072205	-3.005800	3.828500	-11.507000	22.562211	0.000966	20.675953
270.072808	-3.007500	3.827300	-11.510000	22.567001	0.000967	20.685019
271.072090	-3.002000	3.826500	-11.486000	22.589097	0.000968	20.669690
272.074983	-3.024600	3.826900	-11.574000	22.592793	0.000969	20.654898
273.074416	-3.004000	3.827100	-11.495000	22.593813	0.000969	20.656394
274.072290	-3.001700	3.826900	-11.486000	22.557164	0.000969	20.650507
275.072285	-2.999200	3.826600	-11.475000	22.572411	0.000968	20.670522
276.073606	-3.000900	3.826500	-11.481000	22.610137	0.000970	20.661838
277.072732	-3.012800	3.825500	-11.524000	22.590088	0.000971	20.655033
278.072076	-3.002100	3.825100	-11.482000	22.625390	0.000971	20.647243
279.073934	-2.973300	3.826600	-11.376000	22.616476	0.000972	20.662972
280.072204	-2.986500	3.827200	-11.429000	22.626737	0.000974	20.650962
281.072784	-3.004600	3.825900	-11.494000	22.599538	0.000973	20.647902
282.075126	-2.981400	3.827300	-11.409000	22.618499	0.000973	20.647927
283.072646	-2.986700	3.824700	-11.422000	22.625052	0.000974	20.653543
284.073867	-2.982500	3.825400	-11.407000	22.598247	0.000975	20.631908
285.074893	-2.982500	3.824900	-11.406000	22.624512	0.000975	20.653476
286.074239	-2.993000	3.825600	-11.449000	22.633039	0.000976	20.643998
287.076266	-2.988700	3.825600	-11.432000	22.622028	0.000975	20.661421
288.076698	-2.992300	3.824000	-11.442000	22.623024	0.000975	20.665263
289.075867	-2.997300	3.823700	-11.460000	22.606117	0.000975	20.644060
290.073681	-2.982800	3.824200	-11.405000	22.614060	0.000976	20.676675
291.073953	-2.995400	3.825000	-11.456000	22.589499	0.000977	20.640691
292.074273	-3.002800	3.822500	-11.476000	22.582103	0.000979	20.657941
293.075102	-2.982800	3.823500	-11.403000	22.591577	0.000979	20.642773
294.074954	-2.998200	3.823000	-11.462000	22.620406	0.000977	20.637033
295.074757	-2.992000	3.823500	-11.438000	22.631743	0.000980	20.662616
296.075835	-2.989100	3.822700	-11.425000	22.655474	0.000978	20.669317
297.075273	-2.965900	3.823500	-11.338000	22.648545	0.000978	20.658108
298.075456	-2.971900	3.823600	-11.362000	22.657743	0.000980	20.669693
299.075281	-2.995800	3.821100	-11.447000	22.672620	0.000981	20.649031
300.074085	-3.006900	3.820700	-11.486000	22.649136	0.000982	20.626454
301.074916	-3.014000	3.819600	-11.511000	22.689103	0.000982	20.656058
302.077349	-3.005800	3.820100	-11.481000	22.671619	0.000981	20.659409
303.080117	-2.992100	3.821200	-11.432000	22.665662	0.000983	20.633998
304.077201	-3.002400	3.819900	-11.468000	22.699050	0.000983	20.649900
305.079027	-2.979700	3.822300	-11.387000	22.690007	0.000984	20.650325
306.077928	-2.982700	3.821600	-11.397000	22.697938	0.000984	20.642621
307.077969	-2.987500	3.820800	-11.414000	22.689245	0.000985	20.636758
308.076760	-2.983700	3.819700	-11.396000	22.686983	0.000985	20.649192
309.076215	-2.998000	3.819600	-11.450000	22.698129	0.000987	20.651823
310.077214	-2.999200	3.818400	-11.451000	22.696887	0.000986	20.658166
311.078740	-3.022500	3.818300	-11.540000	22.713455	0.000988	20.652001
312.083529	-3.021000	3.818300	-11.533000	22.714955	0.000987	20.630742
313.083283	-3.010300	3.818000	-11.492000	22.729611	0.000987	20.634517
314.078079	-2.996600	3.818200	-11.440000	22.729544	0.000989	20.649151
315.078170	-2.982500	3.818900	-11.388000	22.744211	0.000988	20.658629
316.082833	-2.997300	3.817800	-11.442000	22.745294	0.000989	20.648332
317.081407	-3.000400	3.818200	-11.455000	22.792437	0.000989	20.631544
318.081240	-2.996500	3.818300	-11.440000	22.770068	0.000990	20.652286
319.082246	-3.009000	3.816200	-11.482000	22.803607	0.000989	20.651745
320.082867	-3.024500	3.815500	-11.539000	22.785024	0.000990	20.643086
321.081474	-3.009400	3.816400	-11.483000	22.762083	0.000991	20.663255
322.083743	-3.004200	3.816500	-11.464000	22.764056	0.000991	20.656697
323.082437	-3.000100	3.817600	-11.450000	22.747724	0.000989	20.655983
324.083165	-2.990700	3.816600	-11.414000	22.776745	0.000993	20.651863
325.085191	-3.014700	3.816200	-11.504000	22.767586	0.000991	20.665449
326.085078	-3.013100	3.814900	-11.492000	22.796385	0.000995	20.656365
327.082516	-3.004800	3.815400	-11.464000	22.790792	0.000993	20.645545
328.087183	-2.997900	3.814500	-11.434000	22.799245	0.000994	20.662549
329.086928	-2.993900	3.813500	-11.416000	22.817827	0.000993	20.636116
330.083587	-3.001200	3.814500	-11.447000	22.826476	0.000995	20.658534
331.088157	-2.999800	3.814500	-11.442000	22.809117	0.000994	20.659162
332.088010	-2.987800	3.814300	-11.396000	22.812234	0.000996	20.655646
333.081914	-3.000300	3.812600	-11.437000	22.793904	0.000998	20.638230
334.089360	-2.979200	3.813900	-11.361000	22.839920	0.000995	20.662519
335.090508	-3.001700	3.813000	-11.444000	22.835015	0.000997	20.646698
336.085134	-2.982800	3.813500	-11.374000	22.861225	0.000999	20.656835
337.089724	-3.007800	3.812100	-11.464000	22.848698	0.000998	20.652346
338.091903	-3.004700	3.812300	-11.454000	22.824184	0.000998	20.651496
339.087656	-3.004500	3.811900	-11.451000	22.831161	0.001000	20.631930
340.091431	-3.002800	3.811500	-11.444000	22.859640	0.000999	20.658092
341.091190	-3.017300	3.810800	-11.497000	22.826613	0.000999	20.654404
342.089182	-2.999600	3.810500	-11.429000	22.840020	0.001000	20.643177
343.091243	-2.969300	3.813100	-11.321000	22.854071	0.000999	20.664843
344.091923	-3.004400	3.812000	-11.452000	22.869494	0.001002	20.658007
345.088322	-3.008000	3.810300	-11.461000	22.878984	0.001000	20.648547
346.092242	-3.002900	3.811400	-11.445000	22.876950	0.001002	20.649829
347.091727	-2.987800	3.810600	-11.384000	22.903054	0.001002	20.640418
348.090370	-2.997000	3.810300	-11.418000	22.943240	0.001001	20.670725
349.091248	-2.995400	3.809600	-11.410000	22.943215	0.001003	20.649361
350.093611	-3.011300	3.808600	-11.468000	22.957045	0.001002	20.647095
351.088506	-2.998500	3.809000	-11.420000	22.976276	0.001004	20.687230
352.091338	-3.014600	3.808100	-11.479000	22.984247	0.001004	20.655859
353.094246	-2.980400	3.809100	-11.351000	22.983897	0.001004	20.674002
354.097527	-2.995200	3.808500	-11.406000	22.999453	0.001005	20.675364
355.090840	-2.990100	3.807500	-11.382000	23.008463	0.001006	20.650723
356.094642	-3.013200	3.807100	-11.471000	22.975066	0.001007	20.659936
357.089505	-2.996600	3.807100	-11.408000	22.968797	0.001009	20.671201
358.092981	-2.994300	3.807900	-11.401000	22.960230	0.001008	20.655029
359.094069	-3.014900	3.807100	-11.477000	22.956843	0.001007	20.661120
360.092344	-2.995000	3.806300	-11.399000	22.972853	0.001008	20.654400
361.094586	-3.007500	3.806700	-11.448000	22.981133	0.001009	20.654635
362.091990	-2.980700	3.806600	-11.345000	23.001574	0.001012	20.662314
363.091689	-2.996300	3.806500	-11.405000	23.027110	0.001012	20.661822
364.094668	-3.020700	3.804800	-11.491000	23.040059	0.001011	20.657252
365.097386	-3.017200	3.805000	-11.479000	23.062368	0.001011	20.671545
366.093394	-2.985800	3.804700	-11.358000	23.046450	0.001012	20.658440
367.095474	-2.981500	3.805600	-11.345000	23.040194	0.001013	20.648377
368.092172	-3.008200	3.804300	-11.443000	23.038491	0.001014	20.670381
369.092858	-2.997300	3.804200	-11.402000	23.035946	0.001013	20.673047
370.095102	-3.012300	3.804500	-11.459000	23.058605	0.001014	20.669672
371.093102	-2.997700	3.804300	-11.403000	23.039719	0.001015	20.647427
372.092937	-2.983100	3.803900	-11.345000	23.044543	0.001014	20.664116
373.097375	-3.000500	3.802500	-11.408000	23.069365	0.001016	20.659115
374.092419	-2.985500	3.803500	-11.355000	23.054394	0.001015	20.651225
375.094186	-2.975400	3.803300	-11.314000	23.046416	0.001016	20.665045
376.096565	-2.991600	3.802200	-11.374000	23.045113	0.001016	20.683655
377.095003	-3.014400	3.801000	-11.456000	23.056187	0.001015	20.692855
378.094414	-3.009300	3.802700	-11.442000	23.048756	0.001017	20.676874
379.095705	-2.986500	3.801600	-11.352000	23.058687	0.001017	20.686825
380.099716	-2.986300	3.802800	-11.356000	23.038529	0.001016	20.679429
381.093625	-2.991700	3.801800	-11.373000	23.017227	0.001017	20.676577
382.097512	-3.021600	3.799400	-11.479000	23.031123	0.001018	20.684811
383.093178	-3.000900	3.800000	-11.401000	23.040858	0.001017	20.688875
384.095206	-2.984900	3.800700	-11.344000	23.052086	0.001018	20.665510
385.095150	-2.992000	3.802000	-11.374000	23.093549	0.001017	20.692835
386.094687	-2.997000	3.801000	-11.390000	23.108218	0.001019	20.689989
387.093888	-3.001800	3.799600	-11.405000	23.131374	0.001018	20.680948
388.097974	-2.992700	3.799400	-11.369000	23.136498	0.001019	20.658581
389.095856	-3.018600	3.799400	-11.468000	23.157294	0.001019	20.679895
390.096192	-3.017000	3.798300	-11.458000	23.125314	0.001020	20.675824
391.097810	-2.988700	3.798300	-11.350000	23.148770	0.001019	20.707392
392.096869	-3.003200	3.798100	-11.404000	23.153649	0.001020	20.679088
393.100142	-3.000000	3.797800	-11.391000	23.136910	0.001021	20.687919
394.097758	-3.022100	3.795400	-11.469000	23.141193	0.001021	20.699324
395.097887	-3.014400	3.796000	-11.441000	23.158031	0.001020	20.691066
396.096309	-3.001000	3.797000	-11.393000	23.159198	0.001021	20.696030
397.097643	-3.003300	3.797200	-11.403000	23.159376	0.001023	20.709486
398.096982	-2.994600	3.796100	-11.366000	23.172373	0.001022	20.689791
399.096199	-2.994100	3.797300	-11.369000	23.156660	0.001023	20.681631
400.096901	-3.005800	3.796600	-11.411000	23.159843	0.001021	20.706160
401.097403	-3.006300	3.795100	-11.408000	23.159247	0.001023	20.686595
402.098112	-2.971500	3.797000	-11.281000	23.164557	0.001023	20.687648
403.100206	-3.007400	3.794900	-11.411000	23.189106	0.001025	20.699922
404.099284	-2.990300	3.795400	-11.348000	23.202631	0.001023	20.687870
405.098813	-2.990900	3.794300	-11.347000	23.226614	0.001024	20.710483
406.099184	-3.007500	3.794400	-11.410000	23.239438	0.001023	20.693462
407.099294	-3.000100	3.794400	-11.383000	23.234307	0.001023	20.699226
408.099396	-2.996200	3.793900	-11.366000	23.235106	0.001026	20.700026
409.099029	-2.996900	3.793100	-11.367000	23.244709	0.001027	20.699219
410.099811	-3.004700	3.793100	-11.395000	23.213439	0.001026	20.711506
411.098452	-2.989800	3.793400	-11.340000	23.215510	0.001025	20.724487
412.100476	-3.005700	3.791200	-11.394000	23.207239	0.001026	20.711930
413.097789	-3.002300	3.793300	-11.388000	23.178917	0.001026	20.700617
414.098469	-2.988000	3.792800	-11.332000	23.212640	0.001026	20.714973
415.099831	-2.984000	3.792100	-11.315000	23.223965	0.001027	20.707829
416.099153	-3.003000	3.791900	-11.385000	23.233778	0.001027	20.705335
417.099514	-3.005100	3.791200	-11.392000	23.238485	0.001029	20.723803
418.105310	-2.991000	3.791700	-11.339000	23.258952	0.001028	20.714917
419.100717	-3.010100	3.790800	-11.410000	23.287038	0.001030	20.715089
420.100384	-3.028400	3.790500	-11.478000	23.274068	0.001031	20.714892
421.100871	-2.993200	3.789800	-11.343000	23.279248	0.001030	20.700168
422.101810	-3.004000	3.789400	-11.381000	23.282928	0.001030	20.701485
423.100262	-3.027400	3.788300	-11.467000	23.297472	0.001030	20.725546
424.102840	-3.001800	3.790600	-11.378000	23.292366	0.001030	20.720903
425.103671	-2.990400	3.789500	-11.331000	23.292218	0.001032	20.726445
426.101728	-2.990000	3.788800	-11.327000	23.265871	0.001030	20.705729
427.102915	-3.014900	3.786500	-11.415000	23.286338	0.001031	20.731458
428.102217	-2.974100	3.789700	-11.269000	23.297871	0.001031	20.711721
429.103096	-2.995200	3.788200	-11.346000	23.320598	0.001033	20.723593
430.101551	-2.992500	3.788200	-11.335000	23.305287	0.001032	20.736698
431.103398	-2.991900	3.789000	-11.336000	23.298197	0.001030	20.710625
432.115218	-2.983900	3.788100	-11.302000	23.279401	0.001031	20.709332
433.103759	-2.991200	3.787000	-11.327000	23.272452	0.001033	20.748836
434.104187	-2.990400	3.786700	-11.323000	23.261496	0.001031	20.698973
435.104444	-2.985800	3.786800	-11.306000	23.272735	0.001034	20.720195
436.105041	-2.986600	3.787200	-11.310000	23.280796	0.001034	20.722584
437.107560	-3.004600	3.787300	-11.378000	23.284237	0.001030	20.730301
438.105344	-2.987500	3.787500	-11.314000	23.290769	0.001035	20.713612
439.104183	-3.001700	3.785800	-11.363000	23.311309	0.001034	20.733251
440.108892	-2.998700	3.784600	-11.348000	23.316993	0.001034	20.728515
441.106082	-3.014700	3.784900	-11.409000	23.343210	0.001035	20.737247
442.105980	-3.025400	3.784300	-11.448000	23.353176	0.001034	20.708827
443.107248	-3.003400	3.785500	-11.368000	23.368812	0.001034	20.746787
444.105877	-3.006800	3.783900	-11.376000	23.380222	0.001033	20.718866
445.105379	-3.000600	3.784600	-11.355000	23.390605	0.001034	20.751085
446.108127	-2.992000	3.784600	-11.323000	23.389388	0.001036	20.715725
447.106694	-2.984700	3.784000	-11.293000	23.399249	0.001036	20.713280
448.106621	-2.987500	3.783800	-11.303000	23.421963	0.001034	20.734625
449.108704	-3.009900	3.782700	-11.385000	23.430103	0.001035	20.725714
450.109442	-2.988600	3.783000	-11.305000	23.427222	0.001036	20.724249
451.105962	-2.988600	3.782200	-11.303000	23.427197	0.001038	20.743191
452.114566	-3.010100	3.781100	-11.381000	23.409620	0.001036	20.737427
453.109423	-3.002100	3.779500	-11.345000	23.380598	0.001037	20.713078
454.110294	-3.004400	3.779900	-11.355000	23.374325	0.001037	20.743777
455.124669	-3.002800	3.781500	-11.354000	23.389211	0.001038	20.731670
456.110917	-2.993100	3.780400	-11.314000	23.399275	0.001038	20.743180
457.111155	-2.987700	3.780200	-11.293000	23.424526	0.001037	20.735298
458.115903	-3.002600	3.780700	-11.351000	23.437372	0.001039	20.746278
459.114263	-3.006400	3.778800	-11.359000	23.461350	0.001039	20.728585
460.113788	-2.994500	3.779000	-11.315000	23.488018	0.001040	20.737773
461.114448	-3.022700	3.777700	-11.417000	23.496312	0.001039	20.738974
462.117482	-2.983800	3.778400	-11.272000	23.498751	0.001041	20.748532
463.113196	-2.996700	3.777900	-11.320000	23.517076	0.001040	20.752676
464.116776	-3.006800	3.778500	-11.360000	23.485579	0.001039	20.743864
465.115433	-2.974800	3.778900	-11.241000	23.475677	0.001039	20.732515
466.113448	-2.991200	3.778400	-11.300000	23.496896	0.001040	20.733396
467.117478	-3.005900	3.777400	-11.354000	23.484100	0.001039	20.733371
468.114439	-2.993000	3.777300	-11.305000	23.532993	0.001039	20.718844
469.115628	-3.001800	3.776500	-11.335000	23.498862	0.001040	20.727305
470.119730	-2.983400	3.777400	-11.267000	23.544874	0.001041	20.744979
471.116802	-3.022700	3.775100	-11.410000	23.532926	0.001041	20.739166
472.117505	-2.999700	3.774900	-11.323000	23.536212	0.001042	20.738667
473.121795	-2.975800	3.777600	-11.239000	23.557406	0.001040	20.752801
474.117601	-2.997600	3.776200	-11.318000	23.531384	0.001042	20.755639
475.117701	-2.994500	3.775200	-11.303000	23.524246	0.001040	20.740423
476.129739	-3.007900	3.774700	-11.352000	23.543517	0.001041	20.745990
477.119454	-2.998600	3.775500	-11.318000	23.544518	0.001042	20.743201
478.120044	-3.007500	3.773600	-11.347000	23.564114	0.001044	20.751465
479.121717	-3.006000	3.774500	-11.346000	23.554262	0.001041	20.737794
480.117566	-2.994900	3.773600	-11.300000	23.565736	0.001043	20.754514
481.118840	-3.004300	3.774000	-11.337000	23.566388	0.001043	20.751373
482.122207	-2.989300	3.774500	-11.282000	23.589736	0.001042	20.760555
483.117883	-3.010400	3.773300	-11.359000	23.576695	0.001043	20.744162
484.118275	-2.987400	3.771900	-11.266000	23.605579	0.001043	20.744668
485.120348	-2.994900	3.773000	-11.298000	23.575780	0.001042	20.728545
486.117934	-2.997800	3.772000	-11.307000	23.589700	0.001043	20.753880
487.122088	-2.993100	3.772400	-11.291000	23.596427	0.001043	20.760624
488.125708	-3.019700	3.771100	-11.387000	23.564172	0.001045	20.760532
489.119767	-2.996400	3.771400	-11.299000	23.561057	0.001043	20.766893
490.119391	-2.991400	3.770300	-11.277000	23.567563	0.001044	20.760138
491.123172	-3.005100	3.770000	-11.329000	23.571795	0.001044	20.766752
492.118864	-2.997100	3.770800	-11.300000	23.599112	0.001043	20.737237
493.118955	-3.012600	3.769700	-11.356000	23.580365	0.001044	20.764437
494.121994	-3.014900	3.768800	-11.361000	23.559037	0.001044	20.773403
495.120797	-2.986900	3.769300	-11.258000	23.536511	0.001044	20.758883
496.120007	-2.979000	3.769400	-11.228000	23.502356	0.001046	20.758784
497.122242	-2.990500	3.769100	-11.269000	23.512695	0.001045	20.741173
498.118402	-3.008100	3.767700	-11.332000	23.520141	0.001045	20.771871
499.117653	-3.016700	3.766500	-11.361000	23.511178	0.001045	20.771895
500.122298	-2.991300	3.769200	-11.273000	23.559456	0.001044	20.775246
501.121286	-3.028300	3.767000	-11.405000	23.567602	0.001044	20.775825
502.123956	-3.003800	3.765700	-11.310000	23.581816	0.001046	20.776798
503.122118	-2.971300	3.768300	-11.196000	23.580422	0.001046	20.775874
504.121115	-2.990300	3.767100	-11.262000	23.603304	0.001046	20.752819
505.122231	-2.997900	3.765100	-11.287000	23.615650	0.001046	20.794594
506.130418	-2.983200	3.766200	-11.233000	23.600711	0.001046	20.775351
507.125175	-3.005300	3.765400	-11.315000	23.609207	0.001046	20.776281
508.125547	-2.995900	3.766000	-11.282000	23.595841	0.001045	20.756243
509.126112	-2.988500	3.765600	-11.253000	23.622272	0.001046	20.786059
510.125990	-2.980100	3.766200	-11.223000	23.628931	0.001046	20.770450
511.126637	-3.008100	3.764800	-11.323000	23.631646	0.001047	20.754205
512.126591	-2.992600	3.764000	-11.262000	23.648477	0.001048	20.778191
513.127192	-2.988600	3.764500	-11.249000	23.629908	0.001046	20.774749
514.128841	-3.015200	3.764000	-11.348000	23.623409	0.001045	20.785777
515.129296	-2.987200	3.765300	-11.246000	23.616444	0.001044	20.770260
516.126948	-2.984500	3.764000	-11.233000	23.637206	0.001048	20.776375
517.128984	-3.014100	3.761600	-11.336000	23.658944	0.001047	20.793900
518.131292	-2.998900	3.761500	-11.279000	23.660142	0.001046	20.779928
519.131012	-3.009400	3.761200	-11.318000	23.671493	0.001046	20.788937
520.129691	-2.993600	3.761600	-11.260000	23.666168	0.001047	20.768425
521.132493	-3.001300	3.762500	-11.290000	23.655020	0.001049	20.777164
522.132394	-3.015800	3.760800	-11.340000	23.649264	0.001047	20.760488
523.133873	-2.980200	3.762400	-11.212000	23.655979	0.001049	20.765797
524.132607	-3.010700	3.760700	-11.322000	23.653534	0.001049	20.788951
525.131522	-2.996400	3.759400	-11.261000	23.650776	0.001049	20.774332
526.132170	-2.996000	3.760500	-11.265000	23.638234	0.001047	20.786414
527.131947	-2.995100	3.759900	-11.260000	23.675997	0.001047	20.811945
528.131307	-3.010300	3.759100	-11.315000	23.697906	0.001048	20.779382
529.131334	-3.008700	3.759000	-11.308000	23.710227	0.001047	20.779881
530.133436	-2.996500	3.759400	-11.263000	23.734500	0.001048	20.786199
531.133854	-2.998200	3.758600	-11.268000	23.746397	0.001051	20.807136
532.131688	-2.995500	3.758200	-11.256000	23.736147	0.001047	20.803023
533.133272	-3.001700	3.756900	-11.276000	23.747907	0.001048	20.797745
534.133635	-3.009700	3.757300	-11.307000	23.775343	0.001047	20.803915
535.133804	-3.001700	3.756600	-11.275000	23.771486	0.001049	20.796255
536.136839	-3.015800	3.755800	-11.325000	23.766708	0.001049	20.790042
537.137639	-3.002300	3.756900	-11.279000	23.755081	0.001048	20.812524
538.134422	-3.001000	3.757100	-11.274000	23.747718	0.001049	20.800399
539.136106	-3.016700	3.754900	-11.327000	23.756580	0.001050	20.804070
540.134575	-2.998900	3.756500	-11.264000	23.759491	0.001047	20.789919
541.134392	-2.999900	3.756200	-11.268000	23.761905	0.001048	20.779062
542.139933	-3.012100	3.754800	-11.309000	23.768477	0.001049	20.799876
543.135462	-3.009600	3.754800	-11.299000	23.794161	0.001047	20.791489
544.134985	-2.999400	3.755000	-11.262000	23.813721	0.001048	20.809205
545.137198	-3.001300	3.754400	-11.268000	23.797551	0.001048	20.786828
546.134788	-2.999500	3.754000	-11.260000	23.805615	0.001049	20.788275
547.133948	-2.968200	3.753800	-11.141000	23.787203	0.001048	20.791151
548.140711	-2.994400	3.754500	-11.242000	23.771696	0.001050	20.799310
549.137074	-3.011800	3.752000	-11.299000	23.732100	0.001049	20.795647
550.137062	-2.974800	3.753800	-11.166000	23.755224	0.001049	20.795123
551.141189	-2.999000	3.751800	-11.251000	23.767660	0.001048	20.786255
552.136570	-3.012400	3.752200	-11.301000	23.791337	0.001049	20.792925
553.138262	-3.011800	3.751500	-11.298000	23.801993	0.001048	20.793651
554.144731	-3.009400	3.750500	-11.286000	23.796391	0.001050	20.785665
555.138888	-3.009900	3.751900	-11.292000	23.847543	0.001050	20.780055
556.139595	-2.998000	3.751400	-11.246000	23.846647	0.001051	20.791958
557.143789	-2.975200	3.750800	-11.159000	23.853138	0.001049	20.783768
558.139644	-3.013300	3.749800	-11.298000	23.867281	0.001051	20.777561
559.140315	-3.001300	3.749300	-11.252000	23.879103	0.001051	20.769975
560.142459	-3.001200	3.748800	-11.248000	23.886669	0.001050	20.788941
561.138854	-3.008700	3.749800	-11.281000	23.892914	0.001051	20.758219
562.141766	-3.003300	3.749100	-11.257000	23.899601	0.001050	20.769666
563.144800	-3.008300	3.747700	-11.273000	23.932480	0.001051	20.773238
564.141372	-2.987800	3.748500	-11.199000	23.901867	0.001052	20.766723
565.141156	-3.013800	3.747000	-11.292000	23.894971	0.001052	20.765971
566.148527	-3.014700	3.748900	-11.300000	23.885255	0.001051	20.776618
567.142311	-2.987500	3.747600	-11.194000	23.890715	0.001050	20.779722
568.141852	-2.990100	3.748600	-11.208000	23.898145	0.001051	20.749713
569.146657	-3.005800	3.747100	-11.263000	23.920043	0.001052	20.768353
570.142455	-2.982100	3.747300	-11.174000	23.915210	0.001052	20.750704
571.142078	-3.005600	3.747400	-11.262000	23.899256	0.001054	20.771216
572.148135	-3.012800	3.745900	-11.285000	23.864135	0.001054	20.786734
573.145000	-2.974100	3.746600	-11.142000	23.852835	0.001054	20.759282
574.145894	-2.987100	3.746700	-11.190000	23.836155	0.001052	20.761049
575.147993	-2.999900	3.745200	-11.234000	23.821489	0.001055	20.776216
576.145772	-2.989100	3.745100	-11.193000	23.832610	0.001053	20.756547
577.143927	-3.015400	3.744000	-11.289000	23.828593	0.001054	20.770537
578.150556	-3.006300	3.744700	-11.257000	23.858697	0.001052	20.754729
579.146572	-3.008700	3.743900	-11.263000	23.889710	0.001052	20.755006
580.146912	-3.003800	3.743600	-11.244000	23.893216	0.001053	20.775118
581.149045	-3.009600	3.743700	-11.266000	23.872207	0.001050	20.764483
582.146957	-2.990000	3.742800	-11.190000	23.853261	0.001052	20.773461
583.146170	-3.032600	3.741500	-11.344000	23.864997	0.001054	20.744449
584.150363	-2.997400	3.742900	-11.218000	23.867312	0.001051	20.754358
585.148102	-2.997000	3.742400	-11.215000	23.879876	0.001052	20.764586
586.148109	-2.989500	3.741800	-11.185000	23.881270	0.001052	20.762665
587.152117	-2.991600	3.742300	-11.195000	23.923722	0.001051	20.769672
588.149970	-3.022800	3.740400	-11.305000	23.947652	0.001052	20.758107
589.149675	-3.016100	3.740700	-11.282000	23.976298	0.001050	20.763600
590.153595	-3.003900	3.741100	-11.236000	23.978067	0.001052	20.751148
591.150375	-2.985500	3.740500	-11.167000	24.003463	0.001050	20.760021
592.149913	-2.998500	3.741100	-11.215000	24.008762	0.001049	20.738782
593.154344	-2.973900	3.740700	-11.123000	24.026950	0.001050	20.760341
594.152146	-3.032600	3.737200	-11.332000	24.028196	0.001050	20.765859
595.151248	-2.998000	3.738900	-11.208000	24.020926	0.001050	20.750507
596.155726	-3.011600	3.739500	-11.261000	23.981431	0.001050	20.772540
597.152531	-3.010300	3.739200	-11.255000	24.008756	0.001049	20.766752
598.151975	-2.989800	3.739100	-11.178000	24.010598	0.001051	20.749158
599.155603	-2.984300	3.738700	-11.156000	24.021644	0.001050	20.755495
600.152038	-3.007600	3.738000	-11.241000	24.049017	0.001050	20.762558
601.151464	-3.025300	3.737600	-11.306000	24.049465	0.001051	20.753998
602.154797	-3.047600	3.736900	-11.387000	24.069187	0.001051	20.752914
603.151077	-3.013000	3.736100	-11.256000	24.042059	0.001050	20.723810
604.153516	-3.011800	3.735900	-11.250000	24.040438	0.001050	20.767231
605.156448	-2.967800	3.737500	-11.091000	24.048543	0.001050	20.755918
606.153323	-2.994500	3.736200	-11.187000	24.055235	0.001051	20.748879
607.156504	-3.002700	3.734900	-11.214000	24.055726	0.001052	20.737043
608.156251	-2.998600	3.734600	-11.198000	24.079254	0.001051	20.762537
609.155619	-3.006400	3.733700	-11.223000	24.080764	0.001051	20.761680
610.157198	-2.993300	3.735800	-11.181000	24.089642	0.001052	20.747350
611.159009	-3.017900	3.733600	-11.267000	24.103690	0.001050	20.750533
612.156182	-3.012100	3.732900	-11.243000	24.085749	0.001051	20.755774
613.156287	-3.002900	3.733400	-11.210000	24.058315	0.001050	20.762873
614.160115	-3.019200	3.734100	-11.272000	24.054691	0.001052	20.748334
615.156090	-3.007000	3.731900	-11.221000	24.026127	0.001051	20.752878
616.155803	-3.010000	3.731800	-11.232000	24.048311	0.001050	20.748573
617.158484	-3.001000	3.733100	-11.202000	24.067437	0.001049	20.740727
618.156232	-2.980200	3.733200	-11.123000	24.076763	0.001051	20.751978
619.155386	-3.006100	3.731700	-11.216000	24.090240	0.001049	20.737992
620.159196	-3.003700	3.730900	-11.205000	24.114068	0.001051	20.751934
621.157058	-2.966700	3.732500	-11.072000	24.105472	0.001051	20.738570
622.156481	-3.010200	3.730700	-11.229000	24.108407	0.001050	20.757162
623.159917	-3.001300	3.730300	-11.195000	24.124664	0.001052	20.747862
624.160378	-3.011400	3.729000	-11.229000	24.147098	0.001052	20.744284
625.161115	-3.036100	3.729300	-11.322000	24.152243	0.001051	20.759876
626.162556	-2.963200	3.730500	-11.053000	24.143021	0.001050	20.761058
627.160557	-2.962900	3.730400	-11.052000	24.148656	0.001051	20.740631
628.161739	-2.989800	3.729400	-11.149000	24.121580	0.001051	20.744769
629.162942	-2.980200	3.728300	-11.110000	24.098844	0.001049	20.759899
630.162519	-2.992500	3.729200	-11.159000	24.075991	0.001050	20.752151
631.163438	-2.986600	3.729500	-11.138000	24.047642	0.001050	20.755015
632.164983	-2.988200	3.728700	-11.140000	24.040194	0.001049	20.767460
633.164575	-3.007400	3.727600	-11.209000	24.054420	0.001051	20.762761
634.165784	-2.999500	3.728200	-11.182000	24.069217	0.001049	20.751996
635.166914	-2.974500	3.728700	-11.090000	24.049649	0.001049	20.763191
636.167406	-2.987300	3.727000	-11.133000	24.052356	0.001048	20.754527
637.166059	-3.009100	3.726300	-11.211000	24.069837	0.001046	20.750721
638.167259	-2.968500	3.728100	-11.066000	24.046338	0.001049	20.759871
639.166280	-3.000200	3.725800	-11.176000	24.046381	0.001048	20.748534
640.171577	-2.997400	3.725600	-11.166000	24.028255	0.001048	20.760228
641.171319	-3.012400	3.725900	-11.223000	24.029944	0.001048	20.733471
642.170233	-3.003500	3.725600	-11.189000	24.028642	0.001047	20.760142
643.169547	-2.999600	3.726000	-11.175000	24.057580	0.001048	20.760714
644.173549	-3.013400	3.724800	-11.222000	24.063321	0.001044	20.742289
645.168412	-3.021900	3.723500	-11.251000	24.109143	0.001046	20.761219
646.169802	-3.010700	3.723700	-11.210000	24.098276	0.001048	20.749371
647.172640	-2.998500	3.723000	-11.163000	24.110309	0.001047	20.757647
648.169043	-3.001500	3.725000	-11.180000	24.117689	0.001046	20.747505
649.170458	-2.995400	3.723700	-11.153000	24.091085	0.001045	20.745953
650.176796	-3.017500	3.723000	-11.234000	24.075011	0.001045	20.750220
651.171827	-3.002800	3.723100	-11.178000	24.039349	0.001044	20.737688
652.169673	-3.015000	3.721600	-11.219000	24.018872	0.001045	20.738963
653.173749	-2.982400	3.723500	-11.104000	23.988728	0.001047	20.763263
654.170607	-2.970100	3.722600	-11.055000	23.974992	0.001045	20.741900
655.171635	-2.973000	3.721300	-11.062000	23.983005	0.001044	20.739979
656.172956	-2.989300	3.721700	-11.124000	23.977129	0.001042	20.750208
657.170707	-2.963200	3.722100	-11.029000	24.002188	0.001045	20.742621
658.171334	-2.987800	3.721100	-11.117000	23.986407	0.001045	20.734855
659.173669	-2.978900	3.720700	-11.083000	23.964731	0.001043	20.731136
660.171995	-2.989700	3.721600	-11.126000	23.978068	0.001043	20.740244
661.171418	-3.004300	3.720900	-11.178000	23.997030	0.001044	20.745035
662.173415	-2.999300	3.719600	-11.155000	23.989182	0.001043	20.721991
663.169810	-2.998900	3.720300	-11.154000	24.041271	0.001043	20.745780
664.171426	-2.988600	3.719100	-11.113000	24.033209	0.001041	20.742436
665.173768	-3.007200	3.718100	-11.179000	24.023851	0.001043	20.743957
666.171207	-3.012100	3.717300	-11.197000	24.028751	0.001043	20.736543
667.172489	-3.003300	3.718600	-11.167000	24.008144	0.001040	20.736265
668.174639	-3.000000	3.719100	-11.156000	24.001703	0.001042	20.740712
669.173094	-2.990200	3.718000	-11.117000	24.035720	0.001043	20.751119
670.172894	-3.012800	3.717800	-11.200000	24.005412	0.001042	20.724516
671.176715	-3.002400	3.716200	-11.156000	24.048485	0.001040	20.725039
672.174486	-2.995700	3.715500	-11.129000	24.029868	0.001043	20.716325
673.179383	-2.973800	3.717100	-11.053000	24.013198	0.001040	20.755559
674.178243	-2.998200	3.716600	-11.142000	24.021763	0.001041	20.730009
675.175889	-2.989200	3.716400	-11.108000	24.006314	0.001043	20.712144
676.176038	-3.002400	3.716100	-11.157000	23.997251	0.001041	20.729134
677.176807	-2.982700	3.714900	-11.080000	23.978289	0.001040	20.741888
678.175152	-2.992900	3.715600	-11.119000	23.957663	0.001041	20.736851
679.174988	-3.002400	3.714800	-11.152000	23.954028	0.001043	20.734628
680.179492	-3.007000	3.714400	-11.168000	23.932406	0.001040	20.716738
681.174862	-3.049800	3.711700	-11.319000	23.924221	0.001039	20.701416
682.175842	-3.019900	3.712900	-11.212000	23.962699	0.001039	20.721511
683.177894	-3.004100	3.712500	-11.152000	23.985419	0.001040	20.742873
684.176744	-2.996400	3.713000	-11.125000	24.025804	0.001039	20.733113
685.175895	-3.004000	3.712400	-11.151000	24.023170	0.001040	20.720513
686.178925	-2.992500	3.712500	-11.109000	24.068263	0.001039	20.703147
687.177600	-2.996100	3.712000	-11.120000	24.037305	0.001038	20.707661
688.179788	-3.004700	3.712100	-11.153000	24.067170	0.001038	20.737140
689.182447	-2.998200	3.712200	-11.129000	24.104151	0.001040	20.711165
690.190790	-3.013400	3.710500	-11.181000	24.119101	0.001038	20.702451
691.180068	-2.983300	3.712100	-11.074000	24.140302	0.001038	20.722767
692.185163	-3.006000	3.711100	-11.153000	24.173320	0.001038	20.717003
693.179723	-2.978700	3.711000	-11.054000	24.179091	0.001037	20.723740
694.178016	-3.005300	3.710500	-11.150000	24.187281	0.001037	20.701607
695.181266	-2.997400	3.710800	-11.122000	24.163841	0.001038	20.717453
696.179034	-3.002500	3.708800	-11.134000	24.173271	0.001036	20.728334
697.177991	-3.012600	3.709900	-11.176000	24.173676	0.001036	20.718783
698.180089	-3.011200	3.708100	-11.164000	24.191186	0.001035	20.713585
699.181738	-2.988700	3.708600	-11.083000	24.190873	0.001036	20.711849
700.180839	-3.017400	3.708800	-11.190000	24.187238	0.001035	20.716264
701.183884	-3.003800	3.707900	-11.136000	24.224681	0.001034	20.706879
702.180523	-3.019200	3.708300	-11.195000	24.239446	0.001034	20.700351
703.179279	-3.007800	3.707900	-11.152000	24.253075	0.001034	20.722558
704.183592	-2.994600	3.707700	-11.102000	24.273131	0.001033	20.707113
705.179325	-3.016500	3.706800	-11.181000	24.290921	0.001033	20.726382
706.180345	-3.024600	3.706500	-11.209000	24.257213	0.001033	20.699206
707.182915	-3.024100	3.706700	-11.208000	24.260301	0.001034	20.694242
708.179355	-2.996200	3.708000	-11.109000	24.269828	0.001032	20.691471
709.180603	-2.999200	3.705400	-11.112000	24.289190	0.001032	20.706627
710.183398	-2.995100	3.706000	-11.098000	24.280706	0.001034	20.697168
711.179821	-3.008300	3.705200	-11.146000	24.252817	0.001032	20.706177
712.181223	-2.995700	3.704600	-11.096000	24.233436	0.001032	20.705703
713.182981	-2.993800	3.704700	-11.090000	24.259546	0.001031	20.696331
714.183115	-2.999900	3.707000	-11.119000	24.267035	0.001032	20.703844
715.181539	-3.007600	3.703800	-11.139000	24.268380	0.001033	20.687173
716.184406	-2.983100	3.706000	-11.055000	24.219341	0.001031	20.696306
717.182229	-2.989000	3.704300	-11.070000	24.234824	0.001031	20.687654
718.182498	-3.029700	3.703500	-11.220000	24.249005	0.001031	20.670582
719.192762	-2.994200	3.702400	-11.084000	24.276060	0.001033	20.699145
720.181727	-2.989500	3.703100	-11.069000	24.271928	0.001032	20.698320
721.183164	-3.010800	3.702200	-11.146000	24.283101	0.001030	20.700519
722.184549	-2.986300	3.703100	-11.056000	24.289025	0.001032	20.678958
723.185794	-3.035600	3.701200	-11.234000	24.278976	0.001032	20.690690
724.183641	-2.973100	3.702800	-11.007000	24.295250	0.001033	20.696110
725.187175	-3.019900	3.700800	-11.175000	24.292862	0.001032	20.722640
726.184912	-3.000200	3.702100	-11.106000	24.306895	0.001032	20.692618
727.184245	-3.012200	3.701300	-11.148000	24.312255	0.001030	20.669542
728.184690	-3.017600	3.699700	-11.163000	24.331229	0.001030	20.687155
729.187161	-2.994400	3.700800	-11.081000	24.292826	0.001029	20.692729
730.186655	-3.000900	3.699600	-11.102000	24.264471	0.001031	20.677087
731.186246	-2.977800	3.700800	-11.020000	24.230037	0.001030	20.696129
732.184122	-2.991200	3.699600	-11.065000	24.244715	0.001030	20.679556
733.185603	-3.003300	3.699900	-11.110000	24.254169	0.001030	20.687143
734.185955	-3.017200	3.698500	-11.158000	24.235188	0.001031	20.698924
735.185310	-2.972300	3.700500	-10.998000	24.288971	0.001031	20.682697
736.187327	-2.999700	3.700100	-11.098000	24.290192	0.001032	20.671593
737.188167	-3.004000	3.699400	-11.112000	24.328866	0.001031	20.680991
738.186778	-3.009600	3.698200	-11.129000	24.341873	0.001032	20.667011
739.187055	-2.988700	3.698600	-11.053000	24.358987	0.001031	20.688923
740.188573	-2.981400	3.697900	-11.023000	24.381717	0.001033	20.684224
741.187893	-3.007800	3.697300	-11.120000	24.387284	0.001032	20.667996
742.189551	-2.988300	3.697400	-11.048000	24.363670	0.001031	20.682240
743.192101	-2.969700	3.697700	-10.980000	24.327563	0.001031	20.690591
744.191086	-3.017900	3.695900	-11.152000	24.308755	0.001029	20.689741
745.192535	-3.017500	3.695200	-11.149000	24.290657	0.001030	20.680596
746.192235	-3.010100	3.695800	-11.123000	24.273487	0.001029	20.689925
747.192544	-2.999300	3.695300	-11.083000	24.273554	0.001028	20.688096
748.191448	-2.983400	3.695600	-11.025000	24.315200	0.001030	20.676290
749.195640	-2.996600	3.696100	-11.075000	24.314966	0.001028	20.680324
750.191631	-3.006900	3.694000	-11.107000	24.318440	0.001028	20.687603
751.192211	-3.000000	3.695400	-11.084000	24.371820	0.001026	20.696108
752.194381	-3.004700	3.694200	-11.098000	24.402610	0.001027	20.699969
753.192646	-3.007300	3.693800	-11.107000	24.383004	0.001026	20.691206
754.192150	-3.014400	3.694700	-11.136000	24.407029	0.001024	20.680693
755.195182	-3.012700	3.694500	-11.128000	24.401677	0.001024	20.684333
756.193752	-3.018600	3.693600	-11.148000	24.381328	0.001023	20.700431
757.191673	-3.006300	3.693300	-11.101000	24.383514	0.001026	20.695036
758.194556	-2.989900	3.692400	-11.039000	24.379573	0.001024	20.678279
759.193546	-2.985300	3.691400	-11.018000	24.356615	0.001025	20.666153
760.191212	-2.992000	3.692600	-11.047000	24.339495	0.001023	20.684542
761.195859	-2.995200	3.692000	-11.057000	24.325389	0.001023	20.686512
762.193715	-3.009500	3.692100	-11.109000	24.350587	0.001024	20.667692
763.194461	-3.009700	3.692200	-11.112000	24.333498	0.001023	20.656711
764.197507	-2.994600	3.691500	-11.053000	24.355756	0.001022	20.694216
765.195671	-3.001600	3.690300	-11.076000	24.352686	0.001022	20.679756
766.196249	-2.987600	3.691600	-11.028000	24.367867	0.001023	20.682657
767.204146	-2.992200	3.689800	-11.039000	24.345228	0.001021	20.677490
768.196720	-3.005700	3.688800	-11.086000	24.297433	0.001021	20.683125
769.197551	-2.994300	3.688100	-11.042000	24.298575	0.001021	20.682848
770.201282	-3.006900	3.688100	-11.089000	24.244516	0.001020	20.692159
771.197004	-2.999600	3.687700	-11.060000	24.211475	0.001021	20.694580
772.197790	-3.004200	3.689200	-11.080000	24.218443	0.001020	20.684498
773.201311	-3.027300	3.688000	-11.163000	24.225748	0.001020	20.698466
774.200251	-3.023800	3.687800	-11.150000	24.228941	0.001019	20.670371
775.199540	-2.988600	3.689000	-11.024000	24.257923	0.001019	20.690435
776.201654	-2.990200	3.687700	-11.026000	24.268071	0.001018	20.677379
777.199827	-3.008400	3.687100	-11.090000	24.321042	0.001017	20.678833
778.200026	-2.996100	3.688300	-11.049000	24.325075	0.001018	20.685250
779.203651	-3.005000	3.687400	-11.080000	24.330471	0.001020	20.670272
780.200259	-3.000100	3.686900	-11.059000	24.317992	0.001018	20.685256
781.201852	-3.006100	3.687400	-11.084000	24.327469	0.001021	20.689074
782.203600	-2.992100	3.687700	-11.032000	24.306948	0.001018	20.670383
783.200285	-3.002800	3.685800	-11.067000	24.295426	0.001017	20.686328
784.201202	-3.000000	3.685600	-11.056000	24.302590	0.001018	20.675021
785.205688	-3.010800	3.684300	-11.091000	24.332785	0.001018	20.685398
786.200529	-2.980000	3.686300	-10.982000	24.331773	0.001019	20.682959
787.201349	-2.997700	3.684600	-11.044000	24.329323	0.001018	20.693305
788.203221	-3.006000	3.684600	-11.074000	24.311957	0.001019	20.679676
789.201979	-2.995700	3.684000	-11.035000	24.317924	0.001020	20.669539
790.200886	-3.006800	3.683200	-11.073000	24.343172	0.001019	20.671633
791.201729	-3.011500	3.683200	-11.090000	24.351649	0.001019	20.691045
792.202474	-2.993200	3.683400	-11.024000	24.326419	0.001020	20.689443
793.201607	-2.998000	3.683500	-11.041000	24.294615	0.001018	20.690256
794.204779	-3.001700	3.682600	-11.053000	24.330133	0.001020	20.696014
795.201810	-2.987200	3.683400	-11.002000	24.308955	0.001018	20.705116
796.203302	-2.985000	3.683300	-10.993000	24.337628	0.001019	20.709698
797.204059	-2.973700	3.682900	-10.950000	24.334903	0.001017	20.680883
798.205342	-2.999000	3.681400	-11.039000	24.355049	0.001019	20.707733
799.202697	-3.002800	3.682500	-11.057000	24.331127	0.001018	20.689899
800.205471	-3.018000	3.681200	-11.108000	24.292110	0.001018	20.707659
801.204226	-3.008400	3.681300	-11.074000	24.301324	0.001018	20.695090
802.203604	-3.022500	3.679400	-11.120000	24.288949	0.001016	20.683623
803.206178	-3.007900	3.678800	-11.064000	24.316647	0.001017	20.693865
804.204628	-3.016200	3.679700	-11.097000	24.379154	0.001016	20.706311
805.205458	-3.013600	3.679500	-11.088000	24.396176	0.001014	20.704420
806.205909	-2.981600	3.680900	-10.973000	24.434201	0.001017	20.688039
807.205499	-3.004900	3.678700	-11.053000	24.452345	0.001014	20.698656
808.205186	-2.973900	3.679800	-10.942000	24.472680	0.001014	20.711472
809.207316	-3.000600	3.679000	-11.039000	24.473214	0.001014	20.705844
810.206415	-3.004200	3.678500	-11.048000	24.493131	0.001012	20.708757
811.206408	-2.999300	3.678000	-11.031000	24.492401	0.001012	20.709446
812.205449	-3.006900	3.677900	-11.058000	24.511440	0.001012	20.704840
813.204988	-3.003700	3.678400	-11.048000	24.545202	0.001008	20.694143
814.205429	-3.030700	3.676800	-11.142000	24.554875	0.001008	20.700056
815.206125	-3.001300	3.677800	-11.037000	24.534174	0.001007	20.714374
816.208434	-3.016300	3.677300	-11.090000	24.519419	0.001008	20.710002
817.204320	-3.007600	3.675300	-11.053000	24.507470	0.001008	20.723143
818.207185	-3.006500	3.675600	-11.050000	24.521046	0.001010	20.730127
819.204950	-3.008200	3.676600	-11.059000	24.520291	0.001008	20.722731
820.206866	-2.994600	3.676900	-11.010000	24.517131	0.001007	20.705334
821.209842	-3.003700	3.675500	-11.040000	24.522403	0.001007	20.729592
822.206861	-3.014400	3.675600	-11.078000	24.493691	0.001006	20.712164
823.206964	-2.999900	3.674900	-11.023000	24.514013	0.001007	20.716906
824.214089	-2.999600	3.674600	-11.021000	24.496098	0.001007	20.728329
825.208266	-3.006800	3.673400	-11.044000	24.497515	0.001004	20.727855
826.208799	-3.001800	3.673700	-11.027000	24.481693	0.001007	20.716721
827.211295	-2.982100	3.673700	-10.954000	24.493029	0.001008	20.735208
828.208907	-2.992700	3.673600	-10.993000	24.516468	0.001007	20.727430
829.208906	-3.036100	3.672700	-11.149000	24.507213	0.001005	20.711505
830.210109	-2.993300	3.674000	-10.997000	24.522827	0.001005	20.726698
831.211197	-3.006900	3.672600	-11.042000	24.541656	0.001003	20.710976
832.210347	-3.010900	3.672600	-11.057000	24.537728	0.001004	20.703241
833.213886	-3.028400	3.670600	-11.114000	24.530088	0.001003	20.706006
834.209835	-3.000100	3.671300	-11.013000	24.542976	0.001001	20.721783
835.210359	-2.975500	3.671900	-10.925000	24.587563	0.001003	20.729063
836.212722	-2.980400	3.671900	-10.942000	24.601549	0.001002	20.726026
837.211868	-3.004900	3.670800	-11.030000	24.590576	0.001003	20.702687
838.211434	-2.993600	3.671400	-10.989000	24.589987	0.001000	20.722485
839.214130	-3.010000	3.670200	-11.047000	24.570060	0.001002	20.722406
840.211070	-2.993700	3.669900	-10.986000	24.580211	0.001001	20.734488
841.209923	-3.011000	3.671200	-11.052000	24.611847	0.001002	20.711702
842.213820	-3.001800	3.669900	-11.015000	24.636229	0.001002	20.720521
843.211599	-2.998700	3.670400	-11.004000	24.638690	0.001001	20.727258
844.209834	-2.994000	3.669100	-10.984000	24.665563	0.001002	20.738103
845.217183	-2.988300	3.668100	-10.960000	24.658462	0.001000	20.705846
846.212054	-2.985600	3.670100	-10.956000	24.640727	0.000999	20.724561
847.211460	-3.006500	3.669200	-11.031000	24.622004	0.001001	20.719523
848.216491	-2.988400	3.669300	-10.963000	24.618371	0.001001	20.717300
849.214937	-3.006000	3.667400	-11.023000	24.585243	0.001000	20.732899
850.212718	-3.013400	3.666500	-11.046000	24.549052	0.000999	20.720767
851.217370	-3.016800	3.667000	-11.062000	24.524729	0.000998	20.739038
852.213355	-3.005100	3.666600	-11.017000	24.523317	0.000998	20.716758
853.213707	-2.991800	3.667100	-10.971000	24.518088	0.000998	20.728108
854.216187	-3.015000	3.666700	-11.055000	24.519107	0.000997	20.723914
855.212928	-3.017000	3.665900	-11.058000	24.518561	0.000998	20.725263
856.213511	-3.006100	3.665300	-11.016000	24.522170	0.000998	20.729832
857.215474	-2.969100	3.666700	-10.885000	24.556146	0.000999	20.729783
858.213396	-3.030900	3.664200	-11.105000	24.554999	0.000998	20.728631
859.213374	-2.996700	3.664600	-10.981000	24.562860	0.000995	20.724665
860.219283	-3.010100	3.664700	-11.029000	24.558951	0.000995	20.737813
861.214238	-2.973700	3.665400	-10.898000	24.591588	0.000995	20.736421
862.216547	-3.013200	3.666600	-11.047000	24.627349	0.000995	20.746699
863.218506	-2.978100	3.665200	-10.913000	24.651792	0.000997	20.722861
864.215791	-2.997200	3.664100	-10.981000	24.606778	0.000995	20.735067
865.216880	-3.009800	3.663300	-11.023000	24.644281	0.000993	20.746619
866.218672	-2.977100	3.663800	-10.906000	24.615628	0.000994	20.740627
867.219111	-3.017600	3.663100	-11.053000	24.587673	0.000995	20.731544
868.217160	-2.991600	3.663600	-10.958000	24.597321	0.000995	20.745967
869.221570	-3.012300	3.661800	-11.029000	24.597315	0.000994	20.742641
870.217639	-3.007000	3.662000	-11.010000	24.642550	0.000994	20.730184
871.218198	-3.006800	3.661800	-11.009000	24.650958	0.000994	20.734353
872.223022	-3.031000	3.660200	-11.092000	24.677990	0.000992	20.739667
873.220494	-3.023300	3.660400	-11.065000	24.662814	0.000993	20.745302
874.219235	-3.007100	3.661900	-11.011000	24.687232	0.000994	20.729500
875.221534	-2.986800	3.662000	-10.937000	24.696983	0.000992	20.747821
876.221162	-2.979500	3.661700	-10.908000	24.677665	0.000991	20.760204
877.219811	-2.982300	3.662100	-10.920000	24.665416	0.000992	20.728946
878.222831	-2.991600	3.659600	-10.947000	24.690110	0.000991	20.732389
879.219566	-2.971500	3.661800	-10.879000	24.659820	0.000990	20.743720
880.219418	-3.001200	3.660300	-10.985000	24.657077	0.000990	20.747132
881.222967	-3.019400	3.658300	-11.044000	24.664367	0.000992	20.745438
882.233991	-2.997700	3.659600	-10.969000	24.620894	0.000990	20.752076
883.224014	-3.014700	3.660100	-11.034000	24.608430	0.000987	20.759959
884.223697	-2.980700	3.659100	-10.905000	24.589307	0.000988	20.744089
885.221526	-2.975800	3.658900	-10.888000	24.611192	0.000989	20.729538
886.221410	-2.986000	3.659600	-10.926000	24.578162	0.000989	20.732906
887.224597	-2.987900	3.658200	-10.928000	24.589276	0.000987	20.748800
888.226403	-3.008600	3.658100	-11.005000	24.588509	0.000988	20.732857
889.223608	-3.013600	3.656400	-11.019000	24.634764	0.000989	20.749398
890.226403	-3.008400	3.656100	-10.996000	24.618673	0.000986	20.736096
891.222274	-2.987900	3.657700	-10.928000	24.628768	0.000986	20.748123
892.223424	-2.976300	3.657300	-10.884000	24.618353	0.000987	20.752372
893.226959	-3.006000	3.656400	-10.990000	24.589804	0.000986	20.748856
894.223446	-2.982400	3.656300	-10.904000	24.582887	0.000983	20.757089
895.224344	-3.005800	3.654200	-10.983000	24.570055	0.000986	20.768869
896.226166	-3.007300	3.654000	-10.987000	24.541430	0.000983	20.720707
897.227455	-3.003000	3.655300	-10.976000	24.528217	0.000983	20.748228
898.225523	-2.976300	3.656000	-10.880000	24.516825	0.000986	20.764300
899.231869	-2.991900	3.654300	-10.933000	24.522625	0.000983	20.774387
900.227755	-2.977700	3.656800	-10.887000	24.529119	0.000984	20.752452
901.225808	-3.011400	3.653300	-11.000000	24.563365	0.000982	20.737500
902.227431	-3.012900	3.653500	-11.006000	24.595554	0.000983	20.765057
903.227921	-3.021100	3.652200	-11.033000	24.637132	0.000982	20.735653
904.225579	-3.005100	3.654100	-10.980000	24.629136	0.000983	20.757501
905.228263	-2.999800	3.654000	-10.960000	24.686655	0.000980	20.772545
906.230207	-3.011900	3.653100	-11.001000	24.703340	0.000982	20.760839
907.225373	-3.001300	3.651700	-10.958000	24.713821	0.000979	20.768038
908.228637	-2.994900	3.651500	-10.935000	24.729757	0.000982	20.778340
909.227053	-2.983200	3.651500	-10.892000	24.705862	0.000979	20.768586
910.225893	-2.995000	3.651700	-10.936000	24.721479	0.000979	20.752014
911.228655	-2.990800	3.651000	-10.918000	24.723099	0.000979	20.752217
912.230256	-3.003400	3.650100	-10.962000	24.764181	0.000980	20.755038
913.227851	-2.999400	3.651100	-10.950000	24.781963	0.000979	20.752495
914.232990	-2.991600	3.652100	-10.924000	24.778681	0.000980	20.772434
915.238524	-3.006200	3.651600	-10.974000	24.802206	0.000978	20.777551
916.231929	-3.004500	3.650400	-10.967000	24.832425	0.000979	20.750031
917.232864	-3.024600	3.650200	-11.039000	24.814023	0.000979	20.764281
918.232066	-3.015700	3.649700	-11.006000	24.813305	0.000978	20.750283
919.230705	-3.005100	3.648300	-10.963000	24.819570	0.000977	20.751355
920.232997	-2.988200	3.650000	-10.906000	24.833050	0.000975	20.753978
921.233798	-2.971500	3.650200	-10.845000	24.844144	0.000975	20.753258
922.230225	-2.976800	3.648800	-10.860000	24.836511	0.000975	20.764090
923.233585	-3.006300	3.648400	-10.966000	24.869281	0.000975	20.778961
924.236128	-3.001100	3.649700	-10.952000	24.864661	0.000975	20.768160
925.231482	-2.988300	3.648300	-10.901000	24.889056	0.000977	20.782687
926.238546	-2.995200	3.648100	-10.926000	24.881724	0.000975	20.772957
927.235868	-2.994800	3.647000	-10.921000	24.829774	0.000975	20.759225
928.233006	-2.968000	3.647500	-10.825000	24.812170	0.000974	20.770007
929.235184	-3.010800	3.647000	-10.979000	24.789823	0.000975	20.792625
930.235946	-3.000300	3.646000	-10.939000	24.787952	0.000975	20.768462
931.231887	-2.989900	3.646800	-10.902000	24.796063	0.000975	20.785611
932.236801	-3.005900	3.644900	-10.954000	24.829908	0.000974	20.760782
933.235694	-2.977800	3.645500	-10.854000	24.842591	0.000974	20.779201
934.238371	-2.991000	3.645300	-10.902000	24.869293	0.000974	20.777551
935.237895	-2.994400	3.644600	-10.912000	24.857212	0.000973	20.773961
936.238094	-3.018800	3.643900	-10.999000	24.864323	0.000971	20.774459
937.236058	-3.000900	3.645400	-10.939000	24.874072	0.000973	20.794202
938.238330	-2.989200	3.644200	-10.893000	24.864354	0.000971	20.778283
939.237125	-2.992100	3.645000	-10.905000	24.831007	0.000973	20.793179
940.238711	-3.011700	3.643000	-10.971000	24.795204	0.000971	20.790439
941.242466	-2.977200	3.644200	-10.848000	24.789614	0.000972	20.777717
942.236903	-2.988400	3.644900	-10.892000	24.747085	0.000971	20.784349
943.236731	-3.003900	3.642300	-10.940000	24.770512	0.000970	20.775143
944.237563	-3.011600	3.643400	-10.972000	24.750570	0.000969	20.775992
945.237256	-2.977200	3.642600	-10.844000	24.787006	0.000967	20.779367
946.238153	-3.006300	3.643000	-10.951000	24.798965	0.000967	20.797533
947.239151	-2.993700	3.642100	-10.902000	24.772635	0.000968	20.767316
948.239390	-3.004000	3.640500	-10.935000	24.776716	0.000968	20.780894
949.238630	-2.994300	3.641700	-10.904000	24.802781	0.000967	20.786190
950.241088	-2.993900	3.641000	-10.900000	24.826478	0.000965	20.790057
951.240914	-2.994400	3.641000	-10.901000	24.838418	0.000967	20.761262
952.239360	-2.984700	3.640100	-10.865000	24.858984	0.000966	20.790912
953.240988	-2.997800	3.640700	-10.913000	24.892994	0.000968	20.787113
954.239690	-3.000900	3.640300	-10.924000	24.869979	0.000966	20.780610
955.239762	-3.018400	3.638200	-10.980000	24.880698	0.000967	20.793265
956.239919	-2.984300	3.639400	-10.860000	24.847210	0.000966	20.798536
957.242537	-2.996300	3.639000	-10.902000	24.819182	0.000965	20.777993
958.241567	-3.001400	3.637600	-10.917000	24.805069	0.000963	20.792753
959.243325	-3.011800	3.637200	-10.953000	24.794976	0.000964	20.774089
960.244079	-2.997300	3.638000	-10.903000	24.769959	0.000962	20.793554
961.242709	-2.990100	3.638100	-10.877000	24.812181	0.000964	20.795149
962.242863	-2.975700	3.637300	-10.823000	24.849934	0.000963	20.797950
963.243157	-2.976000	3.639500	-10.831000	24.860235	0.000963	20.797858
964.242358	-2.985000	3.637200	-10.856000	24.868690	0.000963	20.793067
965.243837	-2.994200	3.637900	-10.892000	24.889084	0.000962	20.775603
966.242840	-2.990500	3.636600	-10.874000	24.882415	0.000961	20.793092
967.242631	-2.997700	3.636000	-10.899000	24.888759	0.000962	20.796140
968.244143	-3.013600	3.636300	-10.957000	24.890005	0.000963	20.794545
969.242225	-3.021200	3.635700	-10.983000	24.911092	0.000960	20.810494
970.242819	-3.013200	3.635500	-10.953000	24.902073	0.000959	20.805709
971.243355	-3.000300	3.635800	-10.908000	24.916362	0.000960	20.801559
972.243907	-3.005000	3.635200	-10.923000	24.907319	0.000963	20.816664
973.243151	-3.003800	3.634700	-10.917000	24.949240	0.000961	20.799471
974.243518	-2.989100	3.635500	-10.865000	24.959044	0.000960	20.814052
975.242854	-3.000400	3.634200	-10.903000	24.945541	0.000960	20.783430
976.242467	-3.001700	3.634200	-10.908000	24.933277	0.000959	20.778707
977.242084	-2.977200	3.635200	-10.822000	24.907233	0.000959	20.808517
978.243672	-3.010100	3.633300	-10.936000	24.924884	0.000958	20.819120
979.243568	-3.004500	3.632600	-10.914000	24.925436	0.000957	20.803079
980.248487	-2.993800	3.632200	-10.873000	24.940804	0.000957	20.813763
981.247482	-3.005900	3.631600	-10.914000	24.946375	0.000955	20.800388
982.248875	-2.988900	3.632900	-10.857000	24.911024	0.000957	20.818012
983.247308	-3.019400	3.630000	-10.957000	24.891906	0.000956	20.818738
984.250822	-3.006000	3.631600	-10.916000	24.868904	0.000957	20.808455
985.246613	-3.015200	3.629100	-10.941000	24.850455	0.000955	20.800844
986.246488	-2.989600	3.631900	-10.856000	24.828403	0.000956	20.803843
987.248319	-3.013700	3.630800	-10.941000	24.803271	0.000956	20.805173
988.246473	-3.003900	3.630700	-10.905000	24.820917	0.000954	20.787321
989.249188	-2.989100	3.630900	-10.852000	24.868346	0.000955	20.806946
990.249344	-2.981900	3.629700	-10.822000	24.859247	0.000955	20.810142
991.255602	-2.979700	3.628900	-10.813000	24.867407	0.000952	20.819280
992.247914	-3.006000	3.628800	-10.908000	24.869045	0.000953	20.816183
993.252279	-3.004200	3.630100	-10.904000	24.874365	0.000953	20.807297
994.249126	-2.994100	3.629200	-10.865000	24.840926	0.000951	20.809298
995.250542	-3.009100	3.628100	-10.915000	24.837520	0.000954	20.797820
996.252826	-2.988500	3.629300	-10.844000	24.869775	0.000951	20.822131
997.248772	-3.002200	3.629200	-10.895000	24.845331	0.000951	20.815616
998.250334	-3.015100	3.626200	-10.932000	24.842276	0.000950	20.813024
999.252259	-3.024900	3.625700	-10.967000	24.868763	0.000951	20.842925
1000.249568	-2.984100	3.627000	-10.822000	24.890697	0.000951	20.819421
1001.250161	-3.005900	3.626900	-10.901000	24.881623	0.000949	20.835444
1002.254802	-3.008000	3.625700	-10.904000	24.890053	0.000949	20.815930
1003.256331	-3.017100	3.625900	-10.939000	24.893286	0.000948	20.827710
1004.253209	-2.997100	3.626600	-10.868000	24.900894	0.000947	20.826336
1005.253085	-2.989400	3.626200	-10.839000	24.931804	0.000948	20.833652
1006.251500	-2.979600	3.625800	-10.802000	24.946822	0.000948	20.831657
1007.250744	-2.981300	3.625200	-10.808000	24.977007	0.000947	20.802210
1008.258334	-2.991600	3.625700	-10.845000	24.978841	0.000946	20.832974
1009.253611	-2.998000	3.624100	-10.864000	24.988841	0.000949	20.820253
1010.252187	-3.031300	3.623100	-10.982000	24.978154	0.000944	20.831336
1011.256154	-3.002000	3.623600	-10.877000	25.015821	0.000945	20.807032
1012.257415	-3.000700	3.622700	-10.870000	25.023754	0.000944	20.834908
1013.259785	-2.983800	3.623400	-10.809000	25.024379	0.000945	20.822734
1014.258975	-2.998100	3.624600	-10.865000	25.005908	0.000945	20.833590
1015.255629	-3.011400	3.622300	-10.907000	24.998975	0.000945	20.820942
1016.252454	-3.024900	3.620900	-10.951000	24.976798	0.000945	20.838984
1017.258764	-3.014500	3.622700	-10.920000	24.941620	0.000942	20.820271
1018.255748	-3.015000	3.621700	-10.918000	24.954601	0.000943	20.819551
1019.253977	-3.007800	3.622500	-10.894000	24.950724	0.000942	20.811866
1020.256435	-3.015700	3.619700	-10.915000	24.984166	0.000942	20.814138
1021.255627	-3.005600	3.620500	-10.880000	24.992025	0.000941	20.809224
1022.253562	-2.993600	3.621400	-10.839000	25.022257	0.000943	20.820129
1023.258043	-3.002600	3.619800	-10.868000	25.065468	0.000942	20.820831
1024.256305	-3.035400	3.619200	-10.984000	25.052169	0.000941	20.788989
1025.255681	-3.014400	3.620100	-10.911000	25.040489	0.000940	20.803343
1026.257682	-3.007600	3.618700	-10.882000	24.999147	0.000940	20.793614
1027.261086	-2.996500	3.619700	-10.844000	25.002006	0.000940	20.799328
1028.256262	-2.989100	3.618700	-10.816000	25.003822	0.000938	20.810160
1029.257774	-3.009000	3.618400	-10.887000	25.036299	0.000938	20.798189
1030.258061	-2.990000	3.618300	-10.818000	25.064787	0.000938	20.799759
1031.255627	-2.995200	3.618500	-10.837000	25.056739	0.000938	20.808750
1032.256326	-3.007400	3.619000	-10.883000	25.074026	0.000936	20.787222
1033.255150	-3.002300	3.618300	-10.862000	25.086104	0.000934	20.810726
1034.257426	-2.993700	3.617900	-10.830000	25.089018	0.000936	20.782831
1035.258304	-2.998900	3.617700	-10.847000	25.103587	0.000935	20.817371
1036.254804	-2.981300	3.618100	-10.786000	25.077265	0.000935	20.808965
1037.258133	-3.003500	3.616200	-10.860000	25.064438	0.000933	20.807943
1038.258560	-3.014400	3.616100	-10.899000	25.073320	0.000936	20.794575
1039.257473	-3.023500	3.616100	-10.932000	25.076228	0.000933	20.791329
1040.257950	-2.994300	3.614700	-10.822000	25.099256	0.000935	20.803066
1041.258536	-2.992400	3.616700	-10.821000	25.073050	0.000934	20.801890
1042.258012	-3.002000	3.616100	-10.854000	25.082332	0.000933	20.797456
1043.258314	-2.985700	3.615100	-10.792000	25.063763	0.000935	20.809637
1044.261422	-3.006900	3.612800	-10.862000	25.082436	0.000934	20.795190
1045.257865	-2.983400	3.614200	-10.782000	25.117591	0.000932	20.795394
1046.258074	-3.005500	3.614100	-10.861000	25.123412	0.000930	20.780375
1047.260032	-3.004200	3.612800	-10.853000	25.117125	0.000931	20.785917
1048.258162	-2.986700	3.614500	-10.794000	25.126872	0.000931	20.779580
1049.257720	-2.991400	3.612500	-10.805000	25.133313	0.000931	20.788417
1050.261581	-3.010300	3.611900	-10.872000	25.136251	0.000930	20.768133
1051.260870	-2.993900	3.612500	-10.815000	25.122805	0.000929	20.775498
1052.261771	-3.000400	3.610800	-10.832000	25.098324	0.000929	20.769888
1053.265387	-2.995100	3.612200	-10.818000	25.116346	0.000929	20.768539
1054.264513	-2.998200	3.611100	-10.826000	25.120149	0.000928	20.765719
1055.264629	-2.990300	3.610900	-10.797000	25.103004	0.000929	20.752775
1056.266345	-3.015100	3.610100	-10.883000	25.104292	0.000929	20.767344
1057.266675	-2.992200	3.612100	-10.808000	25.087337	0.000928	20.758385
1058.264332	-3.005000	3.608600	-10.843000	25.071707	0.000927	20.774937
1059.267602	-3.012700	3.608800	-10.871000	25.033943	0.000927	20.789187
1060.265627	-2.992600	3.610000	-10.802000	25.044145	0.000929	20.791367
1061.264291	-3.010900	3.608700	-10.865000	25.028379	0.000926	20.762738
1062.266346	-2.997800	3.608700	-10.817000	25.050286	0.000925	20.778090
1063.266870	-2.985900	3.610600	-10.780000	25.019809	0.000925	20.761722
1064.264615	-2.979400	3.609400	-10.753000	25.015975	0.000924	20.769728
1065.267081	-2.984700	3.608300	-10.768000	25.006534	0.000924	20.781114
1066.266062	-2.982800	3.609200	-10.764000	25.057206	0.000922	20.761802
1067.265553	-2.992900	3.606100	-10.792000	25.053476	0.000924	20.778447
1068.265263	-2.988300	3.608200	-10.781000	25.047090	0.000923	20.766347
1069.267270	-3.002500	3.606300	-10.826000	25.071603	0.000923	20.744960
1070.266526	-2.996500	3.606800	-10.807000	25.063622	0.000921	20.734578
1071.271823	-2.997600	3.606400	-10.810000	25.093380	0.000922	20.778675
1072.269253	-2.997000	3.606900	-10.809000	25.112181	0.000922	20.749185
1073.269581	-3.016100	3.605800	-10.873000	25.080682	0.000921	20.762135
1074.274645	-2.975800	3.606600	-10.731000	25.076382	0.000922	20.765879
1075.270418	-2.996000	3.605300	-10.800000	25.067806	0.000920	20.765331
1076.267236	-3.007200	3.603600	-10.835000	25.019883	0.000920	20.757055
1077.273733	-2.997800	3.605000	-10.806000	24.996510	0.000920	20.766784
1078.271637	-2.991900	3.604000	-10.781000	24.995786	0.000921	20.768429
1079.269653	-3.015500	3.603600	-10.866000	25.030766	0.000920	20.767031
1080.273071	-3.009500	3.604400	-10.845000	25.074744	0.000919	20.749062
1081.271669	-3.006300	3.603600	-10.832000	25.079173	0.000919	20.754456
1082.270725	-2.991500	3.604400	-10.782000	25.094705	0.000918	20.764358
1083.275247	-2.988600	3.602800	-10.766000	25.121996	0.000918	20.778004
1084.273937	-3.000200	3.603800	-10.811000	25.124732	0.000918	20.726695
1085.271797	-2.993600	3.602800	-10.784000	25.113273	0.000916	20.756445
1086.273508	-2.991800	3.602300	-10.776000	25.111108	0.000915	20.752849
1087.273460	-3.013600	3.600700	-10.850000	25.114414	0.000915	20.757590
1088.272206	-2.977200	3.601800	-10.721000	25.131982	0.000913	20.770959
1089.273583	-3.013900	3.601400	-10.854000	25.149059	0.000914	20.749696
1090.271854	-2.998000	3.601500	-10.796000	25.147023	0.000913	20.749548
1091.271379	-2.991800	3.601200	-10.773000	25.153929	0.000914	20.742257
1092.275294	-3.006900	3.600000	-10.823000	25.188414	0.000915	20.748427
1093.273246	-3.011400	3.599700	-10.840000	25.180329	0.000912	20.752165
1094.272189	-3.010300	3.598000	-10.830000	25.175705	0.000913	20.745151
1095.272650	-2.987500	3.600200	-10.754000	25.171325	0.000914	20.758298
1096.271214	-3.003200	3.599000	-10.807000	25.162431	0.000912	20.747947
1097.272810	-3.011100	3.597800	-10.832000	25.166608	0.000909	20.745502
1098.270020	-3.001200	3.597400	-10.794000	25.137276	0.000910	20.756359
1099.271143	-3.008600	3.598100	-10.824000	25.135282	0.000909	20.738710
1100.272271	-2.985200	3.598100	-10.740000	25.173546	0.000910	20.742035
1101.272426	-2.981700	3.597400	-10.726000	25.185077	0.000910	20.765466
1102.274563	-2.991400	3.597000	-10.758000	25.158131	0.000911	20.743156
1103.275936	-3.004000	3.597100	-10.804000	25.158830	0.000909	20.752867
1104.273818	-2.992200	3.596500	-10.759000	25.161640	0.000906	20.729608
1105.274695	-3.006200	3.595700	-10.808000	25.130093	0.000906	20.738716
1106.275291	-3.010100	3.596300	-10.824000	25.150728	0.000907	20.749948
1107.275690	-3.001700	3.595500	-10.791000	25.158211	0.000904	20.744184
1108.274566	-3.011400	3.593800	-10.820000	25.153813	0.000907	20.731234
1109.275426	-3.014900	3.594400	-10.836000	25.177030	0.000907	20.753594
1110.275019	-3.004400	3.594200	-10.797000	25.206533	0.000904	20.739590
1111.275091	-3.009000	3.594400	-10.814000	25.239739	0.000903	20.762972
1112.275556	-3.001400	3.595300	-10.790000	25.238433	0.000905	20.742694
1113.275973	-2.974400	3.594100	-10.688000	25.206514	0.000903	20.758065
1114.276872	-2.988500	3.593500	-10.737000	25.197939	0.000904	20.738550
1115.276454	-3.000200	3.593700	-10.782000	25.172589	0.000902	20.737755
1116.277069	-3.012000	3.592000	-10.818000	25.164431	0.000903	20.732410
1117.278255	-2.977500	3.593200	-10.698000	25.171092	0.000903	20.746210
1118.277173	-2.984600	3.591900	-10.719000	25.168688	0.000903	20.744745
1119.277770	-3.011100	3.591100	-10.812000	25.161474	0.000901	20.726122
1120.277263	-2.999500	3.590800	-10.770000	25.167669	0.000899	20.760319
1121.278957	-2.988800	3.591600	-10.734000	25.157898	0.000899	20.731542
1122.279490	-2.997500	3.590900	-10.762000	25.156260	0.000898	20.732268
1123.278748	-2.987600	3.592200	-10.731000	25.148532	0.000898	20.725932
1124.278707	-3.002900	3.589900	-10.779000	25.110445	0.000899	20.742226
1125.285350	-2.992500	3.590100	-10.742000	25.102790	0.000898	20.738334
1126.281278	-2.993500	3.590100	-10.747000	25.136055	0.000895	20.723364
1127.280210	-2.989400	3.590700	-10.732000	25.166657	0.000898	20.725162
1128.283381	-2.991700	3.588500	-10.734000	25.156408	0.000895	20.743322
1129.281627	-2.991000	3.588600	-10.731000	25.162450	0.000898	20.734689
1130.283203	-2.985500	3.587900	-10.710000	25.131160	0.000896	20.753539
1131.284060	-3.002700	3.587400	-10.770000	25.183059	0.000893	20.742103
1132.283147	-2.998700	3.587800	-10.758000	25.205509	0.000895	20.738562
1133.284379	-2.986000	3.586800	-10.709000	25.211642	0.000893	20.741401
1134.292339	-3.003700	3.586100	-10.770000	25.212163	0.000895	20.726276
1135.285172	-2.995500	3.586600	-10.742000	25.225038	0.000893	20.711700
1136.285827	-3.006300	3.586500	-10.781000	25.250344	0.000894	20.743747
1137.286189	-3.015900	3.585800	-10.814000	25.278281	0.000893	20.720112
1138.286482	-2.999100	3.586000	-10.754000	25.264426	0.000892	20.726590
1139.288626	-2.993300	3.584200	-10.726000	25.235624	0.000892	20.724226
1140.286016	-2.990800	3.585000	-10.721000	25.257545	0.000890	20.735329
1141.286944	-3.015500	3.584200	-10.806000	25.219990	0.000888	20.740773
1142.289267	-3.014600	3.584200	-10.803000	25.237237	0.000891	20.728216
1143.287834	-2.990500	3.584700	-10.719000	25.284586	0.000888	20.734029
1144.287256	-2.979900	3.585200	-10.682000	25.276037	0.000889	20.708848
1145.288427	-2.999700	3.584200	-10.752000	25.258269	0.000888	20.718511
1146.291119	-2.996600	3.584500	-10.740000	25.282673	0.000887	20.735427
1147.289481	-2.993100	3.583700	-10.726000	25.306537	0.000889	20.720506
1148.290143	-2.972500	3.583000	-10.649000	25.333356	0.000887	20.733210
1149.290239	-3.005200	3.582700	-10.766000	25.322838	0.000887	20.747306
1150.290615	-2.993100	3.582300	-10.722000	25.329327	0.000888	20.713516
1151.291638	-2.995100	3.582200	-10.729000	25.336208	0.000886	20.723745
1152.295652	-3.007900	3.582100	-10.774000	25.369392	0.000884	20.730039
1153.292436	-2.986700	3.582800	-10.700000	25.355299	0.000887	20.731061
1154.291242	-3.003600	3.580800	-10.755000	25.369491	0.000884	20.717809
1155.291728	-3.013600	3.579900	-10.786000	25.353932	0.000883	20.732059
1156.292228	-2.994600	3.580500	-10.721000	25.332283	0.000882	20.744936
1157.290416	-3.005600	3.579100	-10.757000	25.279888	0.000883	20.735477
1158.292746	-3.012100	3.578800	-10.779000	25.250062	0.000880	20.727816
1159.291754	-3.018900	3.579300	-10.805000	25.248872	0.000882	20.715241
1160.293942	-3.003300	3.577300	-10.743000	25.235992	0.000883	20.720327
1161.292975	-2.989900	3.579800	-10.701000	25.268033	0.000878	20.727841
1162.293310	-2.992000	3.578000	-10.704000	25.264034	0.000880	20.724774
1163.296337	-3.016400	3.577100	-10.790000	25.295601	0.000878	20.716165
1164.294590	-2.989400	3.577200	-10.693000	25.268634	0.000879	20.730341
1165.294666	-2.999000	3.578100	-10.729000	25.267616	0.000876	20.707506
1166.295489	-2.990200	3.577200	-10.695000	25.202773	0.000877	20.712106
1167.304310	-3.035900	3.576300	-10.856000	25.196112	0.000877	20.739560
1168.296591	-3.006200	3.575700	-10.748000	25.187009	0.000877	20.720937
1169.297196	-2.984500	3.576700	-10.674000	25.198228	0.000875	20.708017
1170.295817	-2.961400	3.577700	-10.593000	25.222364	0.000876	20.720870
1171.297680	-2.982800	3.576600	-10.666000	25.271081	0.000875	20.719995
1172.297769	-3.002100	3.575100	-10.732000	25.231116	0.000875	20.735348
1173.297071	-3.005500	3.574700	-10.743000	25.251295	0.000874	20.728105
1174.296493	-2.984600	3.574900	-10.668000	25.241684	0.000874	20.701859
1175.299117	-2.991700	3.576400	-10.698000	25.211587	0.000873	20.713843
1176.297511	-2.965700	3.575000	-10.601000	25.162818	0.000872	20.702814
1177.299971	-3.015100	3.572800	-10.771000	25.194983	0.000870	20.715666
1178.298625	-2.995800	3.573700	-10.705000	25.213378	0.000871	20.709477
1179.298456	-3.007300	3.574600	-10.748000	25.244800	0.000871	20.719213
1180.298962	-3.012800	3.571400	-10.759000	25.272946	0.000874	20.711436
1181.302170	-3.011000	3.572100	-10.755000	25.298969	0.000870	20.702001
1182.300214	-2.996700	3.572400	-10.703000	25.288678	0.000870	20.685028
1183.300311	-3.004800	3.572600	-10.733000	25.274964	0.000868	20.719152
1184.300600	-3.012700	3.572300	-10.761000	25.289530	0.000868	20.705801
1185.299881	-3.011400	3.572100	-10.756000	25.251339	0.000867	20.694956
1186.300536	-2.996500	3.571000	-10.699000	25.235656	0.000866	20.689167
1187.303119	-2.975000	3.571600	-10.624000	25.226014	0.000868	20.703196
1188.301220	-3.023500	3.571700	-10.798000	25.218114	0.000866	20.698109
1189.302355	-2.985800	3.569900	-10.659000	25.197364	0.000867	20.692924
1190.303306	-2.993500	3.570000	-10.685000	25.180012	0.000864	20.703954
1191.302982	-2.998100	3.569200	-10.699000	25.196794	0.000866	20.691403
1192.303144	-3.023800	3.568800	-10.790000	25.213330	0.000867	20.700419
1193.302705	-3.021000	3.567600	-10.777000	25.219574	0.000864	20.699101
1194.303552	-3.014500	3.567600	-10.753000	25.187109	0.000863	20.695905
1195.305629	-2.993300	3.568400	-10.681000	25.165941	0.000864	20.683662
1196.304103	-2.997200	3.568400	-10.694000	25.172633	0.000861	20.690381
1197.307013	-3.001700	3.567400	-10.707000	25.154361	0.000862	20.693374
1198.308578	-2.992800	3.567400	-10.676000	25.135174	0.000861	20.685966
1199.307749	-2.999600	3.566700	-10.698000	25.159170	0.000862	20.674493
1200.309145	-3.024200	3.566300	-10.784000	25.171971	0.000861	20.688768
1201.308427	-3.025900	3.565500	-10.788000	25.177897	0.000861	20.698037
1202.309775	-3.026800	3.565100	-10.789000	25.181025	0.000861	20.688848
1203.308054	-2.994200	3.566900	-10.679000	25.216680	0.000860	20.681021
1204.309251	-3.005500	3.564700	-10.712000	25.220434	0.000858	20.687161
1205.308002	-3.011800	3.564200	-10.734000	25.214871	0.000860	20.680153
1206.309189	-2.990700	3.565100	-10.659000	25.171965	0.000858	20.696824
1207.313846	-3.010200	3.564200	-10.728000	25.181620	0.000856	20.679962
1208.309973	-2.961100	3.565100	-10.556000	25.229763	0.000856	20.658118
1209.308359	-2.990600	3.564800	-10.660000	25.243797	0.000857	20.691651
1210.310904	-2.989700	3.563200	-10.652000	25.283522	0.000856	20.666574
1211.311533	-2.996400	3.562000	-10.672000	25.300646	0.000855	20.681872
1212.311591	-2.997900	3.563400	-10.682000	25.343227	0.000854	20.679107
1213.314555	-3.017200	3.562500	-10.746000	25.361889	0.000856	20.693579
1214.315227	-2.972700	3.562900	-10.591000	25.391970	0.000855	20.688696
1215.315380	-3.006100	3.562700	-10.708000	25.387426	0.000854	20.668484
1216.314419	-2.980800	3.563100	-10.619000	25.373315	0.000852	20.679446
1217.315434	-2.990300	3.562200	-10.650000	25.378663	0.000852	20.692878
1218.314222	-2.993000	3.561200	-10.657000	25.400458	0.000852	20.675406
1219.317171	-2.990000	3.561100	-10.646000	25.411895	0.000853	20.681201
1220.315873	-3.017300	3.560500	-10.742000	25.411576	0.000851	20.666181
1221.315054	-2.996600	3.560200	-10.667000	25.419187	0.000849	20.679040
1222.314553	-3.008400	3.559000	-10.703000	25.438228	0.000850	20.667339
1223.318085	-2.995500	3.560100	-10.663000	25.414569	0.000851	20.651641
1224.316918	-2.998300	3.559500	-10.671000	25.373113	0.000851	20.654585
1225.319560	-3.000900	3.558500	-10.677000	25.361314	0.000849	20.668343
1226.317362	-3.003000	3.558800	-10.686000	25.338420	0.000849	20.669538
1227.318629	-2.984100	3.557100	-10.613000	25.316330	0.000847	20.674859
1228.318185	-2.994200	3.557700	-10.650000	25.289013	0.000847	20.673510
1229.318393	-2.995400	3.557500	-10.655000	25.253968	0.000845	20.654443
1230.319064	-2.980500	3.557800	-10.603000	25.279997	0.000846	20.684374
1231.320166	-3.000700	3.556800	-10.672000	25.273269	0.000846	20.654382
1232.319474	-2.987900	3.557100	-10.627000	25.325861	0.000845	20.662142
1233.321431	-2.998600	3.557900	-10.668000	25.341647	0.000845	20.658077
1234.326180	-2.992800	3.556400	-10.643000	25.379001	0.000844	20.649117
1235.321040	-3.014600	3.555100	-10.716000	25.358819	0.000843	20.679115
1236.321192	-3.007900	3.555300	-10.692000	25.384699	0.000842	20.664797
1237.319994	-3.008900	3.554400	-10.694000	25.375181	0.000842	20.650971
1238.320204	-3.013900	3.554900	-10.712000	25.382418	0.000844	20.664877
1239.320467	-3.001100	3.554500	-10.666000	25.386042	0.000843	20.665197
1240.320063	-3.009300	3.554200	-10.695000	25.418084	0.000842	20.656594
1241.324060	-2.967500	3.554700	-10.547000	25.410995	0.000840	20.656587
1242.322524	-3.006700	3.552900	-10.681000	25.364271	0.000841	20.654715
1243.322865	-2.979500	3.554600	-10.589000	25.299281	0.000839	20.674810
1244.322846	-2.999000	3.552600	-10.653000	25.277508	0.000840	20.668597
1245.322427	-2.982500	3.552900	-10.595000	25.316656	0.000839	20.676609
1246.322821	-3.007500	3.552300	-10.683000	25.318698	0.000838	20.663959
1247.321698	-3.001200	3.551300	-10.657000	25.342733	0.000838	20.667230
1248.323938	-3.026800	3.551700	-10.749000	25.362836	0.000838	20.663707
1249.324253	-3.006700	3.552300	-10.679000	25.369098	0.000835	20.672840
1250.326847	-3.015800	3.550600	-10.707000	25.380560	0.000836	20.666330
1251.324596	-3.023100	3.550400	-10.732000	25.344867	0.000836	20.665579
1252.324214	-3.021700	3.550100	-10.726000	25.364878	0.000835	20.678087
1253.327038	-2.987500	3.550800	-10.608000	25.357967	0.000834	20.666404
1254.331594	-3.025000	3.550000	-10.738000	25.350687	0.000833	20.666207
1255.328293	-2.994300	3.549000	-10.626000	25.371857	0.000832	20.670395
1256.329577	-3.029700	3.548100	-10.749000	25.352104	0.000834	20.660517
1257.329755	-2.996800	3.549700	-10.637000	25.376212	0.000834	20.654851
1258.331349	-3.026800	3.547100	-10.734000	25.392966	0.000833	20.644172
1259.329242	-2.980000	3.548300	-10.573000	25.375341	0.000832	20.661090
1260.332838	-3.011000	3.547600	-10.680000	25.344898	0.000831	20.646642
1261.332294	-3.017600	3.547000	-10.702000	25.331700	0.000829	20.647140
1262.331740	-3.020800	3.546600	-10.713000	25.346069	0.000829	20.642127
1263.333056	-2.980400	3.547200	-10.571000	25.382375	0.000830	20.659618
1264.332533	-3.005600	3.545500	-10.655000	25.376145	0.000829	20.645299
1265.332355	-3.038100	3.544700	-10.767000	25.370404	0.000830	20.657555
1266.340030	-2.989300	3.546600	-10.600000	25.365529	0.000827	20.657401
1267.332581	-3.021000	3.544300	-10.705000	25.388569	0.000829	20.668683
1268.332538	-3.005100	3.546000	-10.656000	25.416754	0.000828	20.670907
1269.335696	-3.023400	3.544800	-10.716000	25.393022	0.000825	20.668887
1270.333577	-2.997500	3.545400	-10.626000	25.354680	0.000826	20.660733
1271.333241	-3.004100	3.544000	-10.645000	25.314234	0.000827	20.649518
1272.333528	-3.010100	3.543600	-10.666000	25.326763	0.000824	20.672058
1273.335175	-3.014000	3.543100	-10.678000	25.329125	0.000825	20.652616
1274.334759	-2.986300	3.544200	-10.583000	25.330664	0.000825	20.659852
1275.334985	-3.011100	3.543000	-10.668000	25.297362	0.000823	20.656761
1276.333770	-3.027000	3.541800	-10.720000	25.289358	0.000822	20.654414
1277.333667	-3.014100	3.542400	-10.676000	25.261477	0.000822	20.665303
1278.334106	-2.999300	3.542300	-10.623000	25.250664	0.000822	20.648755
1279.332973	-3.006300	3.543800	-10.652000	25.247983	0.000818	20.674042
1280.334203	-2.991500	3.543400	-10.599000	25.228823	0.000820	20.661442
1281.334457	-3.008000	3.540800	-10.650000	25.267003	0.000820	20.644296
1282.335798	-2.999300	3.541200	-10.620000	25.251020	0.000818	20.656700
1283.337095	-2.992700	3.541200	-10.597000	25.288150	0.000819	20.648933
1284.337186	-3.016900	3.539700	-10.677000	25.315774	0.000819	20.646323
1285.338562	-3.003900	3.540400	-10.634000	25.341575	0.000818	20.673180
1286.337569	-3.020900	3.539200	-10.691000	25.363819	0.000818	20.640509
1287.338504	-2.993900	3.540800	-10.600000	25.373239	0.000817	20.666566
1288.337126	-3.021800	3.538400	-10.690000	25.356368	0.000816	20.682344
1289.339844	-3.000100	3.537400	-10.612000	25.367124	0.000816	20.639560
1290.339299	-2.988500	3.537500	-10.571000	25.358257	0.000816	20.658634
1291.339230	-3.001200	3.537500	-10.616000	25.366064	0.000815	20.662206
1292.340589	-2.986000	3.537800	-10.563000	25.353111	0.000814	20.644931
1293.341347	-3.024000	3.535400	-10.690000	25.370632	0.000816	20.670113
1294.340625	-2.990000	3.537200	-10.575000	25.374539	0.000813	20.671191
1295.342314	-2.994800	3.535900	-10.587000	25.378918	0.000814	20.670847
1296.341337	-2.978900	3.537900	-10.538000	25.378617	0.000813	20.680029
1297.342183	-3.009800	3.535300	-10.639000	25.383836	0.000814	20.664879
1298.341371	-3.005900	3.535700	-10.627000	25.384339	0.000811	20.688620
1299.341528	-2.997500	3.535800	-10.598000	25.403473	0.000811	20.663733
1300.342286	-2.996000	3.534000	-10.587000	25.405540	0.000810	20.665809
1301.340487	-3.015700	3.532900	-10.653000	25.392539	0.000811	20.669350
1302.340405	-2.989700	3.535400	-10.567000	25.377483	0.000809	20.675096
1303.341892	-3.004200	3.533500	-10.615000	25.381009	0.000810	20.675792
1304.341409	-3.004300	3.534200	-10.617000	25.373528	0.000808	20.672072
1305.343693	-3.052900	3.532200	-10.782000	25.347003	0.000809	20.697124
1306.345651	-3.011700	3.534200	-10.643000	25.348297	0.000807	20.669498
1307.342038	-2.982100	3.533000	-10.535000	25.339755	0.000807	20.667558
1308.341166	-2.996500	3.533200	-10.586000	25.340699	0.000807	20.661868
1309.344504	-2.997500	3.531800	-10.586000	25.345992	0.000805	20.670976
1310.343972	-2.976900	3.532200	-10.515000	25.348230	0.000805	20.682234
1311.344826	-3.008500	3.531900	-10.624000	25.373657	0.000806	20.673624
1312.343738	-3.008200	3.531700	-10.623000	25.398659	0.000806	20.683558
1313.344616	-2.995200	3.531200	-10.575000	25.416523	0.000805	20.678736
1314.345078	-2.995000	3.531800	-10.576000	25.425575	0.000804	20.662219
1315.343892	-2.997800	3.530100	-10.581000	25.477343	0.000804	20.680066
1316.345484	-3.008100	3.529300	-10.616000	25.465287	0.000804	20.690246
1317.346068	-2.992900	3.529600	-10.563000	25.476742	0.000802	20.669978
1318.345528	-3.007600	3.530600	-10.617000	25.497327	0.000801	20.687808
1319.346523	-3.014100	3.529200	-10.635000	25.500307	0.000800	20.656658
1320.350090	-3.010200	3.529800	-10.624000	25.460596	0.000803	20.699287
1321.347032	-3.005400	3.529500	-10.607000	25.402265	0.000801	20.675324
1322.346323	-3.001500	3.528600	-10.590000	25.379434	0.000798	20.690807
1323.350106	-3.000000	3.526700	-10.579000	25.395906	0.000798	20.695967
1324.348926	-2.991100	3.528300	-10.552000	25.384089	0.000797	20.671772
1325.348877	-3.029900	3.525900	-10.681000	25.430910	0.000797	20.678010
1326.353890	-3.003000	3.525900	-10.587000	25.435675	0.000797	20.689908
1327.349403	-2.989000	3.526900	-10.540000	25.433498	0.000796	20.691990
1328.348948	-3.013900	3.526700	-10.628000	25.421099	0.000797	20.689496
1329.349991	-3.006300	3.524600	-10.594000	25.446468	0.000796	20.698376
1330.348643	-2.997200	3.524400	-10.562000	25.422344	0.000795	20.683633
1331.350515	-2.986000	3.525300	-10.525000	25.450602	0.000795	20.673601
1332.352919	-2.998400	3.524300	-10.566000	25.436234	0.000794	20.691417
1333.351346	-3.000900	3.525800	-10.579000	25.426502	0.000792	20.677851
1334.352433	-3.014500	3.522600	-10.617000	25.359154	0.000794	20.692255
1335.354542	-2.977600	3.525000	-10.495000	25.363423	0.000792	20.697015
1336.351308	-3.010700	3.523800	-10.608000	25.389548	0.000792	20.681521
1337.350913	-3.008600	3.523100	-10.599000	25.417285	0.000792	20.684243
1338.353703	-3.011000	3.521900	-10.604000	25.438503	0.000792	20.705551
1339.351079	-3.020300	3.521700	-10.636000	25.465749	0.000790	20.681700
1340.350114	-3.001500	3.522300	-10.571000	25.475119	0.000789	20.683049
1341.350936	-2.999800	3.521000	-10.561000	25.471072	0.000790	20.685149
1342.350319	-2.990800	3.521700	-10.532000	25.485789	0.000789	20.684755
1343.350387	-2.980500	3.521500	-10.494000	25.487076	0.000787	20.689367
1344.350904	-3.007100	3.520600	-10.586000	25.545973	0.000786	20.694461
1345.352348	-2.992800	3.519700	-10.532000	25.528755	0.000788	20.672426
1346.351357	-2.998500	3.519700	-10.553000	25.566281	0.000786	20.680715
1347.352277	-3.016000	3.519400	-10.614000	25.540712	0.000787	20.680167
1348.355248	-2.997600	3.519600	-10.549000	25.482717	0.000787	20.725770
1349.353262	-3.010300	3.519000	-10.593000	25.444471	0.000786	20.717709
1350.355123	-3.003600	3.518500	-10.567000	25.401158	0.000784	20.688913
1351.353862	-2.998000	3.518600	-10.548000	25.365620	0.000783	20.699222
1352.357839	-3.032300	3.518400	-10.668000	25.382878	0.000785	20.698058
1353.353430	-3.009200	3.517800	-10.585000	25.404550	0.000784	20.698483
1354.353642	-3.011600	3.516800	-10.589000	25.421770	0.000784	20.690169
1355.354967	-3.010500	3.516500	-10.585000	25.432735	0.000784	20.682687
1356.356456	-3.003300	3.518200	-10.565000	25.455725	0.000781	20.695817
1357.357194	-3.004900	3.515300	-10.563000	25.419017	0.000783	20.683611
1358.357002	-2.988100	3.517100	-10.507000	25.402171	0.000781	20.707949
1359.356164	-2.999500	3.516300	-10.546000	25.421016	0.000781	20.704587
1360.356603	-2.988500	3.515600	-10.505000	25.426676	0.000780	20.701735
1361.357576	-3.005800	3.514800	-10.564000	25.444797	0.000780	20.682946
1362.357921	-3.018700	3.513600	-10.604000	25.410702	0.000780	20.706083
1363.360588	-3.009400	3.512900	-10.570000	25.436200	0.000780	20.710825
1364.358703	-2.990400	3.514100	-10.507000	25.466549	0.000779	20.685349
1365.360018	-3.010700	3.511000	-10.569000	25.499110	0.000780	20.723266
1366.362818	-2.992000	3.511500	-10.504000	25.530315	0.000778	20.716670
1367.358244	-2.995200	3.512900	-10.520000	25.576217	0.000777	20.692591
1368.359389	-2.996800	3.513500	-10.528000	25.554505	0.000776	20.695917
1369.361479	-2.987700	3.511800	-10.491000	25.585243	0.000776	20.720150
1370.359063	-2.988000	3.511400	-10.492000	25.583802	0.000775	20.711116
1371.358757	-2.989000	3.511800	-10.495000	25.573470	0.000776	20.704059
1372.362890	-2.997100	3.510700	-10.520000	25.529464	0.000775	20.696373
1373.360847	-3.007100	3.510400	-10.554000	25.541893	0.000775	20.698424
1374.359707	-3.003600	3.512000	-10.546000	25.518880	0.000772	20.701866
1375.363359	-3.005400	3.510000	-10.548000	25.497112	0.000771	20.698972
1376.361098	-3.015400	3.510200	-10.583000	25.467642	0.000774	20.722485
1377.361259	-3.013000	3.508600	-10.570000	25.432473	0.000773	20.702815
1378.366029	-3.025000	3.507200	-10.609000	25.441825	0.000772	20.719794
1379.363332	-2.981200	3.510000	-10.462000	25.434301	0.000772	20.709393
1380.364175	-3.007700	3.507000	-10.547000	25.410170	0.000772	20.703653
1381.365498	-2.991000	3.507800	-10.491000	25.443291	0.000771	20.726007
1382.365174	-3.007700	3.507800	-10.550000	25.487038	0.000768	20.721100
1383.365475	-2.985300	3.507600	-10.471000	25.513000	0.000767	20.714929
1384.366120	-2.992400	3.506800	-10.493000	25.529183	0.000769	20.717429
1385.363558	-2.986200	3.506500	-10.470000	25.580100	0.000769	20.714510
1386.365147	-2.997700	3.506100	-10.509000	25.568818	0.000767	20.702231
1387.368042	-3.000100	3.505800	-10.516000	25.580327	0.000768	20.727541
1388.365627	-2.999700	3.505000	-10.512000	25.574514	0.000765	20.706529
1389.366011	-3.004100	3.505500	-10.529000	25.564176	0.000768	20.735030
1390.374134	-2.969900	3.507300	-10.415000	25.554838	0.000767	20.712374
1391.368757	-3.009600	3.504100	-10.545000	25.570443	0.000766	20.720934
1392.369056	-2.992500	3.504700	-10.487000	25.600984	0.000764	20.715096
1393.370188	-2.999900	3.504100	-10.511000	25.579046	0.000764	20.712029
1394.369283	-3.018900	3.503700	-10.576000	25.604835	0.000764	20.740301
1395.368449	-2.997600	3.502300	-10.496000	25.587513	0.000763	20.732862
1396.370557	-2.988300	3.503300	-10.466000	25.638029	0.000763	20.721956
1397.370598	-2.995000	3.502000	-10.488000	25.646907	0.000763	20.722338
1398.368852	-2.980800	3.503100	-10.441000	25.669966	0.000761	20.732222
1399.373412	-2.980100	3.503300	-10.439000	25.667557	0.000762	20.731699
1400.370899	-3.004100	3.500800	-10.515000	25.649716	0.000763	20.729901
1401.369078	-3.007200	3.500100	-10.525000	25.636822	0.000761	20.731176
1402.372910	-3.004300	3.501400	-10.518000	25.633940	0.000760	20.723065
1403.373189	-3.030900	3.500100	-10.608000	25.607429	0.000759	20.729156
1404.370098	-3.009800	3.499600	-10.530000	25.575128	0.000761	20.729907
1405.372149	-2.995100	3.499000	-10.478000	25.570456	0.000760	20.717628
1406.369795	-3.004400	3.498400	-10.509000	25.558334	0.000757	20.730111
1407.376440	-2.983400	3.500200	-10.441000	25.543544	0.000760	20.720947
1408.371954	-2.991200	3.499600	-10.466000	25.534206	0.000758	20.744287
1409.372254	-2.994200	3.498000	-10.473000	25.541190	0.000757	20.746085
1410.371878	-2.983800	3.497700	-10.435000	25.569420	0.000756	20.725123
1411.374471	-3.009600	3.496400	-10.522000	25.553294	0.000759	20.731213
1412.374184	-3.029700	3.497300	-10.595000	25.545072	0.000755	20.736707
1413.376007	-3.024800	3.497100	-10.577000	25.533072	0.000757	20.731768
1414.376587	-2.997500	3.496500	-10.479000	25.524923	0.000754	20.723110
1415.373353	-2.997600	3.495600	-10.476000	25.503057	0.000756	20.742877
1416.371155	-3.015700	3.496100	-10.541000	25.486679	0.000755	20.734016
1417.377908	-3.004500	3.494400	-10.498000	25.475052	0.000753	20.728979
1418.373555	-3.006100	3.493500	-10.501000	25.461807	0.000754	20.752663
1419.373823	-2.995800	3.493600	-10.464000	25.486759	0.000752	20.745476
1420.376918	-3.004200	3.493600	-10.494000	25.507589	0.000754	20.740316
1421.376144	-2.995100	3.494200	-10.464000	25.527070	0.000751	20.722420
1422.373121	-2.993300	3.493500	-10.456000	25.518890	0.000753	20.750717
1423.376978	-2.994600	3.493800	-10.462000	25.522300	0.000752	20.749399
1424.375079	-2.983400	3.493800	-10.423000	25.531197	0.000751	20.755490
1425.373295	-2.994400	3.493600	-10.460000	25.530302	0.000753	20.756013
1426.376328	-2.995700	3.491500	-10.459000	25.562236	0.000751	20.732606
1427.372323	-2.980200	3.491800	-10.404000	25.559728	0.000752	20.740520
1428.372981	-2.995700	3.490900	-10.457000	25.518823	0.000751	20.724570
1429.378578	-3.009000	3.490900	-10.503000	25.509349	0.000751	20.755360
1430.373581	-3.008900	3.490400	-10.501000	25.510692	0.000748	20.761925
1431.375079	-2.992000	3.490100	-10.440000	25.534177	0.000747	20.758008
1432.381237	-2.974100	3.491400	-10.383000	25.542172	0.000747	20.747071
1433.378340	-3.018300	3.488600	-10.528000	25.560592	0.000745	20.766519
1434.377272	-2.999400	3.488200	-10.461000	25.566797	0.000745	20.769905
1435.385106	-3.004100	3.489200	-10.481000	25.574553	0.000744	20.780066
1436.381895	-2.997300	3.489700	-10.458000	25.581562	0.000744	20.757232
1437.378819	-2.992300	3.489000	-10.439000	25.596541	0.000745	20.779388
1438.382796	-3.012400	3.486700	-10.502000	25.647167	0.000745	20.734928
1439.381118	-3.012600	3.487200	-10.504000	25.648154	0.000744	20.776223
1440.379232	-3.000100	3.487400	-10.461000	25.684438	0.000744	20.765725
1441.383305	-3.024000	3.485400	-10.538000	25.697852	0.000744	20.755016
1442.381740	-3.023000	3.485300	-10.535000	25.722112	0.000740	20.755675
1443.383285	-2.999800	3.486800	-10.459000	25.727850	0.000741	20.743895
1444.383011	-3.015800	3.485500	-10.510000	25.708771	0.000742	20.764087
1445.382587	-3.025100	3.484200	-10.539000	25.726465	0.000742	20.758625
1446.384468	-3.022300	3.483200	-10.526000	25.699404	0.000740	20.758945
1447.383948	-2.984700	3.485100	-10.401000	25.694315	0.000739	20.768534
1448.383695	-2.983800	3.483600	-10.393000	25.696186	0.000740	20.769464
1449.383846	-2.995900	3.482800	-10.434000	25.665451	0.000740	20.760405
1450.383477	-2.995300	3.481700	-10.427000	25.682845	0.000739	20.761754
1451.384868	-2.985700	3.483500	-10.399000	25.700759	0.000739	20.766471
1452.385952	-3.013400	3.482500	-10.493000	25.705376	0.000738	20.771582
1453.384932	-2.989600	3.482500	-10.410000	25.698326	0.000737	20.761181
1454.385966	-2.987900	3.483000	-10.406000	25.696493	0.000737	20.777359
1455.386553	-2.998400	3.482300	-10.441000	25.638825	0.000736	20.778708
1456.385618	-2.995900	3.482300	-10.431000	25.658236	0.000736	20.752684
1457.385815	-3.016200	3.481100	-10.498000	25.614355	0.000732	20.772624
1458.385843	-3.001200	3.480400	-10.445000	25.607875	0.000737	20.760425
1459.386717	-2.969500	3.483700	-10.344000	25.622860	0.000733	20.776898
1460.386823	-2.981800	3.480400	-10.376000	25.650462	0.000734	20.774274
1461.386508	-3.022100	3.478700	-10.512000	25.698646	0.000733	20.784263
1462.386898	-3.001400	3.478800	-10.441000	25.729802	0.000733	20.770512
1463.388734	-2.995900	3.478400	-10.419000	25.736344	0.000732	20.784196
1464.387902	-2.990400	3.478800	-10.402000	25.751848	0.000731	20.765630
1465.386723	-3.016500	3.476700	-10.486000	25.718626	0.000732	20.764977
1466.396288	-2.997700	3.478100	-10.425000	25.714108	0.000731	20.765654
1467.386848	-3.005500	3.476300	-10.446000	25.719154	0.000731	20.783999
1468.388170	-3.005400	3.475900	-10.446000	25.723280	0.000729	20.793359
1469.389691	-2.997400	3.477000	-10.421000	25.757796	0.000732	20.789622
1470.387874	-3.002000	3.475700	-10.433000	25.763558	0.000728	20.770279
1471.389977	-3.023800	3.474700	-10.506000	25.768009	0.000731	20.788975
1472.391214	-3.023600	3.474200	-10.504000	25.801076	0.000730	20.782362
1473.389138	-3.011500	3.474500	-10.463000	25.802370	0.000729	20.780816
1474.390916	-2.993600	3.474700	-10.401000	25.795443	0.000729	20.796618
1475.394833	-3.000000	3.475500	-10.425000	25.825750	0.000730	20.784388
1476.391590	-2.999400	3.472400	-10.414000	25.825732	0.000727	20.785792
1477.391887	-2.998900	3.474200	-10.417000	25.805680	0.000729	20.779400
1478.393138	-2.999800	3.472400	-10.416000	25.807845	0.000727	20.795799
1479.394327	-3.006600	3.472800	-10.440000	25.791195	0.000727	20.790454
1480.392517	-3.030800	3.470600	-10.518000	25.803768	0.000727	20.790755
1481.395760	-3.026700	3.471000	-10.505000	25.773687	0.000727	20.799420
1482.395223	-2.994600	3.471100	-10.393000	25.748196	0.000725	20.798946
1483.397045	-2.992300	3.470700	-10.384000	25.720639	0.000725	20.798767
1484.398350	-2.989300	3.472000	-10.378000	25.722901	0.000726	20.795823
1485.395233	-3.013900	3.470400	-10.458000	25.750476	0.000724	20.786537
1486.397283	-3.000500	3.470900	-10.413000	25.756816	0.000723	20.785318
1487.403126	-3.007000	3.469300	-10.432000	25.783936	0.000723	20.783636
1488.402236	-2.987000	3.468400	-10.359000	25.778744	0.000723	20.812560
1489.399235	-3.020200	3.468400	-10.475000	25.769499	0.000724	20.779092
1490.404646	-3.015100	3.468200	-10.455000	25.770547	0.000723	20.801008
1491.398881	-2.989000	3.469300	-10.368000	25.754442	0.000721	20.806642
1492.399706	-3.003500	3.467400	-10.413000	25.752371	0.000721	20.787492
1493.404424	-2.991200	3.468700	-10.375000	25.718401	0.000722	20.824020
1494.400406	-2.973900	3.469600	-10.317000	25.728835	0.000720	20.820750
1495.401421	-2.983000	3.467000	-10.341000	25.746032	0.000720	20.810522
1496.404852	-3.018800	3.466700	-10.464000	25.758851	0.000719	20.788785
1497.400898	-2.986000	3.466800	-10.350000	25.777978	0.000719	20.815584
1498.401641	-3.011700	3.465400	-10.436000	25.800758	0.000718	20.814758
1499.408551	-3.018500	3.464400	-10.457000	25.812816	0.000718	20.798422
1500.401536	-3.019500	3.464200	-10.459000	25.805810	0.000717	20.791858
1501.402432	-2.994800	3.464800	-10.375000	25.791673	0.000715	20.796150
1502.406840	-3.009700	3.463900	-10.425000	25.787634	0.000716	20.788774
1503.409853	-3.013500	3.463600	-10.437000	25.840746	0.000717	20.781907
1504.403943	-2.986200	3.463800	-10.343000	25.825666	0.000716	20.812278
1505.409033	-2.994200	3.463200	-10.368000	25.815263	0.000717	20.798035
1506.407737	-3.012600	3.461900	-10.427000	25.783907	0.000716	20.786452
1507.409381	-2.973500	3.463700	-10.298000	25.776833	0.000712	20.809692
1508.413360	-3.018200	3.461300	-10.445000	25.793200	0.000717	20.776821
1509.409015	-2.976600	3.462300	-10.304000	25.800711	0.000714	20.766821
1510.408074	-3.005700	3.461400	-10.403000	25.832808	0.000715	20.779624
1511.412849	-3.014800	3.461000	-10.432000	25.828210	0.000713	20.784488
1512.410514	-2.996800	3.459800	-10.368000	25.851940	0.000713	20.767074
1513.409606	-2.992700	3.460600	-10.356000	25.811175	0.000712	20.781601
1514.412403	-3.007900	3.459100	-10.403000	25.811200	0.000711	20.793953
1515.412058	-3.003400	3.457600	-10.383000	25.809955	0.000712	20.782272
1516.408398	-2.976100	3.459700	-10.294000	25.805192	0.000711	20.790290
1517.414667	-3.020200	3.458700	-10.445000	25.758957	0.000709	20.756649
1518.411566	-2.991300	3.458600	-10.344000	25.731511	0.000711	20.770333
1519.411098	-3.015200	3.456600	-10.421000	25.660988	0.000710	20.775837
1520.412744	-3.004900	3.457400	-10.388000	25.676702	0.000708	20.759852
1521.413007	-2.998400	3.457400	-10.366000	25.680846	0.000708	20.754057
1522.410754	-3.016200	3.456100	-10.423000	25.716503	0.000708	20.769483
1523.413297	-2.999400	3.455800	-10.363000	25.722389	0.000708	20.778239
1524.414033	-2.994600	3.457600	-10.353000	25.728183	0.000707	20.752764
1525.412115	-2.993100	3.456600	-10.345000	25.720360	0.000708	20.762451
1526.418265	-3.013300	3.454200	-10.407000	25.706744	0.000706	20.773430
1527.414078	-3.020500	3.454900	-10.434000	25.707160	0.000705	20.756779
1528.410866	-2.989600	3.454400	-10.327000	25.730175	0.000706	20.762352
1529.415860	-2.992600	3.454200	-10.336000	25.752932	0.000706	20.779046
1530.414162	-3.004200	3.454600	-10.377000	25.758247	0.000704	20.757358
1531.412000	-2.981300	3.454900	-10.299000	25.773751	0.000704	20.759181
1532.415447	-2.996100	3.453800	-10.347000	25.779887	0.000701	20.770086
1533.417216	-3.001200	3.453300	-10.363000	25.809797	0.000703	20.749395
1534.412889	-3.009100	3.452000	-10.387000	25.814695	0.000704	20.758109
1535.414640	-2.996000	3.451600	-10.339000	25.809510	0.000702	20.759064
1536.413043	-2.990400	3.452500	-10.323000	25.862669	0.000701	20.756040
1537.412348	-2.987600	3.454000	-10.317000	25.893876	0.000701	20.746613
1538.416494	-3.030600	3.450500	-10.456000	25.917849	0.000702	20.767852
1539.416309	-2.997600	3.450800	-10.342000	25.882003	0.000700	20.756497
1540.417209	-2.986300	3.451900	-10.307000	25.919597	0.000701	20.765814
1541.416814	-3.009600	3.449600	-10.381000	25.905829	0.000699	20.758621
1542.416884	-3.031700	3.449200	-10.456000	25.932242	0.000700	20.769509
1543.418886	-3.010400	3.448500	-10.380000	25.906284	0.000699	20.765242
1544.417338	-2.994200	3.448200	-10.325000	25.899896	0.000700	20.734642
1545.418415	-2.971300	3.448700	-10.246000	25.881348	0.000697	20.745407
1546.418114	-2.998800	3.447800	-10.338000	25.901239	0.000697	20.755432
1547.417767	-3.001000	3.448700	-10.349000	25.877555	0.000697	20.727845
1548.419035	-3.015000	3.446000	-10.389000	25.853654	0.000698	20.750777
1549.417908	-2.996200	3.447100	-10.328000	25.861807	0.000698	20.767503
1550.417964	-2.997800	3.446000	-10.329000	25.866919	0.000696	20.756042
1551.418779	-2.996300	3.446300	-10.325000	25.869243	0.000696	20.754110
1552.417737	-3.002900	3.446000	-10.346000	25.854342	0.000695	20.733450
1553.418581	-2.986200	3.446500	-10.291000	25.874012	0.000693	20.735666
1554.420868	-2.990300	3.446500	-10.305000	25.868932	0.000694	20.750952
1555.418931	-3.038700	3.444200	-10.465000	25.859411	0.000692	20.762251
1556.422137	-3.013800	3.442700	-10.375000	25.811150	0.000693	20.737952
1557.420618	-3.005500	3.444000	-10.349000	25.821878	0.000692	20.731658
1558.418974	-3.002300	3.443200	-10.337000	25.826377	0.000692	20.745188
1559.420402	-2.981500	3.444400	-10.268000	25.826825	0.000690	20.744215
1560.418796	-2.970100	3.443800	-10.227000	25.821737	0.000691	20.750010
1561.419505	-2.990300	3.442400	-10.292000	25.792147	0.000690	20.745890
1562.420156	-2.995300	3.441500	-10.308000	25.775510	0.000690	20.722539
1563.421264	-2.990100	3.442000	-10.291000	25.750834	0.000691	20.732841
1564.420011	-2.996600	3.441000	-10.310000	25.722143	0.000689	20.741482
1565.419463	-2.993800	3.441300	-10.302000	25.699785	0.000688	20.719023
1566.422406	-2.997800	3.439600	-10.309000	25.660290	0.000685	20.730090
1567.422612	-2.978600	3.441500	-10.249000	25.627090	0.000687	20.729936
1568.421392	-3.001500	3.440300	-10.325000	25.640340	0.000688	20.713371
1569.421577	-3.021400	3.438500	-10.386000	25.635870	0.000686	20.725478
1570.424020	-2.979000	3.440400	-10.248000	25.643382	0.000686	20.749144
1571.422930	-2.992700	3.439500	-10.292000	25.653541	0.000686	20.731846
1572.423074	-2.989100	3.439100	-10.279000	25.648071	0.000686	20.714024
1573.422474	-3.001100	3.437900	-10.316000	25.625050	0.000684	20.705600
1574.423666	-2.982700	3.438000	-10.253000	25.601536	0.000682	20.733669
1575.422887	-3.011400	3.436700	-10.349000	25.544519	0.000684	20.724297
1576.423523	-3.000400	3.437400	-10.313000	25.531551	0.000682	20.714118
1577.423431	-3.006100	3.435500	-10.327000	25.529565	0.000682	20.722555
1578.424292	-2.990200	3.436500	-10.275000	25.525941	0.000683	20.720338
1579.423765	-2.994700	3.436300	-10.290000	25.485286	0.000683	20.706538
1580.424883	-3.007600	3.436000	-10.333000	25.480669	0.000681	20.733197
1581.425954	-2.994300	3.434500	-10.282000	25.522398	0.000681	20.732428
1582.425728	-2.984500	3.434900	-10.251000	25.531173	0.000680	20.710893
1583.428179	-2.995900	3.435100	-10.290000	25.537587	0.000680	20.724447
1584.427006	-2.989900	3.434800	-10.269000	25.566191	0.000679	20.728992
1585.429250	-3.022200	3.433600	-10.376000	25.612864	0.000680	20.715648
1586.427786	-3.020500	3.433600	-10.369000	25.636494	0.000678	20.728001
1587.429184	-3.007700	3.433700	-10.326000	25.650419	0.000679	20.691249
1588.427871	-3.017500	3.433000	-10.358000	25.621768	0.000678	20.711313
1589.427216	-3.016700	3.431900	-10.352000	25.609377	0.000677	20.724948
1590.427652	-2.998600	3.433300	-10.294000	25.627740	0.000678	20.699767
1591.428601	-2.996200	3.431100	-10.279000	25.668641	0.000677	20.702914
1592.429386	-2.982100	3.431000	-10.230000	25.697120	0.000674	20.732468
1593.429050	-3.014900	3.430700	-10.342000	25.720527	0.000678	20.717572
1594.429566	-3.002100	3.430200	-10.297000	25.738018	0.000676	20.706690
1595.429021	-2.999700	3.430500	-10.290000	25.774918	0.000674	20.703925
1596.432923	-2.987500	3.429800	-10.246000	25.771001	0.000673	20.718484
1597.429687	-3.007100	3.429900	-10.313000	25.758833	0.000674	20.726651
1598.431064	-3.010500	3.428500	-10.321000	25.753064	0.000674	20.722278
1599.434523	-3.014400	3.427100	-10.329000	25.728646	0.000673	20.713872
1600.430104	-2.999000	3.427200	-10.276000	25.714460	0.000673	20.694406
1601.431693	-3.009100	3.426400	-10.309000	25.715589	0.000672	20.712137
1602.432889	-2.998700	3.428300	-10.279000	25.702046	0.000670	20.724139
1603.433062	-2.995200	3.427300	-10.263000	25.676578	0.000671	20.711835
1604.431795	-2.975300	3.428500	-10.200000	25.643587	0.000673	20.701459
1605.434648	-3.006600	3.426800	-10.302000	25.656561	0.000671	20.707851
1606.432853	-2.984800	3.425600	-10.224000	25.675861	0.000668	20.708744
1607.433983	-3.017000	3.425000	-10.332000	25.696786	0.000668	20.711269
1608.435137	-3.016500	3.423800	-10.327000	25.720886	0.000669	20.692326
1609.436691	-2.983400	3.425700	-10.218000	25.748622	0.000669	20.685571
1610.435529	-3.007600	3.425000	-10.300000	25.767927	0.000669	20.710654
1611.437057	-2.994000	3.424900	-10.253000	25.768504	0.000668	20.697956
1612.436052	-3.000500	3.424600	-10.275000	25.731635	0.000669	20.704071
1613.442416	-2.989300	3.424300	-10.235000	25.685022	0.000667	20.707988
1614.438433	-3.013900	3.422000	-10.313000	25.672657	0.000665	20.693671
1615.437235	-2.989900	3.423300	-10.235000	25.686022	0.000665	20.695715
1616.438445	-3.016300	3.422500	-10.322000	25.691956	0.000665	20.675121
1617.441367	-3.003900	3.422100	-10.278000	25.728882	0.000664	20.690875
1618.439146	-3.011100	3.420600	-10.299000	25.740512	0.000665	20.714886
1619.439591	-3.002600	3.422000	-10.274000	25.724560	0.000661	20.708820
1620.440768	-3.016200	3.420000	-10.315000	25.732960	0.000661	20.697815
1621.440052	-2.990400	3.421700	-10.231000	25.721563	0.000661	20.692532
1622.444829	-2.988400	3.420500	-10.221000	25.739404	0.000662	20.710453
1623.444709	-2.998500	3.420500	-10.254000	25.724892	0.000663	20.678805
1624.440284	-3.007700	3.419500	-10.284000	25.738589	0.000663	20.700625
1625.442029	-2.998800	3.419000	-10.251000	25.763227	0.000661	20.692181
1626.447538	-2.986600	3.419500	-10.212000	25.745240	0.000661	20.705409
1627.442530	-3.022700	3.417200	-10.329000	25.809168	0.000661	20.680006
1628.441679	-3.029500	3.416900	-10.350000	25.759831	0.000660	20.709634
1629.448529	-3.001100	3.417100	-10.254000	25.737197	0.000660	20.689743
1630.443316	-3.009800	3.416800	-10.283000	25.690714	0.000662	20.706118
1631.443839	-3.005100	3.418400	-10.270000	25.659263	0.000659	20.692072
1632.447507	-3.010100	3.416900	-10.284000	25.651335	0.000658	20.684109
1633.447149	-2.998300	3.415500	-10.239000	25.667981	0.000657	20.680912
1634.444737	-2.979400	3.416700	-10.179000	25.698673	0.000657	20.694197
1635.446086	-2.977900	3.416500	-10.173000	25.675289	0.000656	20.692521
1636.449085	-3.020900	3.414800	-10.314000	25.624328	0.000657	20.671207
1637.447459	-2.992500	3.415800	-10.221000	25.607835	0.000655	20.694474
1638.449480	-3.000800	3.414200	-10.243000	25.593794	0.000656	20.677526
1639.451443	-2.995900	3.413700	-10.225000	25.558832	0.000656	20.697418
1640.449591	-2.998400	3.413900	-10.235000	25.554761	0.000652	20.687164
1641.453602	-2.990600	3.413600	-10.207000	25.591808	0.000655	20.663201
1642.458899	-2.994700	3.413000	-10.220000	25.623415	0.000654	20.663177
1643.451956	-3.013800	3.411500	-10.280000	25.644880	0.000653	20.679995
1644.457845	-3.009000	3.413200	-10.268000	25.670324	0.000654	20.686111
1645.455899	-3.005500	3.412700	-10.256000	25.700561	0.000652	20.682342
1646.462492	-2.992600	3.412800	-10.211000	25.735396	0.000652	20.703582
1647.458855	-3.008200	3.412000	-10.263000	25.750477	0.000650	20.681744
1648.456467	-3.004100	3.412200	-10.250000	25.801531	0.000651	20.680870
1649.453893	-2.995700	3.410700	-10.217000	25.840838	0.000650	20.690484
1650.458675	-2.989600	3.410900	-10.196000	25.849897	0.000650	20.688204
1651.456905	-3.014100	3.411100	-10.281000	25.886867	0.000650	20.690730
1652.455862	-3.016500	3.410300	-10.285000	25.927782	0.000649	20.677779
1653.458147	-3.016200	3.408800	-10.281000	25.914591	0.000648	20.687287
1654.456625	-2.969900	3.410500	-10.128000	25.925171	0.000649	20.658558
1655.456144	-3.016400	3.409000	-10.282000	25.934096	0.000649	20.677958
1656.459425	-3.005500	3.407900	-10.241000	25.928310	0.000647	20.667402
1657.457845	-3.000700	3.409400	-10.230000	25.931338	0.000647	20.695577
1658.458649	-3.009600	3.408700	-10.258000	25.964406	0.000647	20.653404
1659.459406	-3.021200	3.407500	-10.294000	25.986588	0.000645	20.662414
1660.459558	-3.007000	3.406500	-10.242000	25.946773	0.000645	20.671726
1661.458232	-3.002800	3.406700	-10.229000	25.912465	0.000645	20.673771
1662.462803	-3.007000	3.404600	-10.237000	25.912588	0.000645	20.666306
1663.459907	-3.013200	3.405100	-10.259000	25.936438	0.000646	20.685527
1664.460530	-3.011700	3.406000	-10.256000	25.945976	0.000643	20.669977
1665.461237	-3.001500	3.404900	-10.219000	25.906711	0.000643	20.671308
1666.459078	-2.997700	3.404800	-10.206000	25.910431	0.000642	20.682159
1667.459263	-3.014800	3.402800	-10.258000	25.844309	0.000644	20.659354
1668.462494	-2.991300	3.403300	-10.179000	25.812188	0.000644	20.682092
1669.459152	-3.021700	3.403100	-10.283000	25.777086	0.000642	20.660106
1670.459444	-2.981200	3.402300	-10.141000	25.781114	0.000641	20.656091
1671.462866	-3.000900	3.403000	-10.211000	25.755777	0.000640	20.660987
1672.459877	-2.989800	3.402400	-10.172000	25.767683	0.000640	20.664412
1673.459530	-3.000700	3.401200	-10.204000	25.734290	0.000640	20.655525
1674.471483	-3.007600	3.401000	-10.228000	25.753368	0.000640	20.680855
1675.460269	-3.005100	3.400100	-10.216000	25.763557	0.000638	20.674019
1676.461196	-3.000600	3.400100	-10.201000	25.799904	0.000637	20.668329
1677.466455	-2.999300	3.400900	-10.199000	25.814341	0.000638	20.650586
1678.462294	-3.006900	3.399800	-10.222000	25.837526	0.000640	20.664869
1679.463953	-2.982700	3.399400	-10.138000	25.799771	0.000639	20.680998
1680.467792	-2.990800	3.400900	-10.171000	25.750973	0.000638	20.665171
1681.466850	-2.990400	3.400000	-10.167000	25.714054	0.000635	20.649423
1682.465155	-3.019600	3.399100	-10.262000	25.697245	0.000637	20.651032
1683.467009	-2.988200	3.400400	-10.158000	25.651820	0.000634	20.672266
1684.466700	-3.017500	3.398900	-10.254000	25.671623	0.000635	20.649005
1685.466637	-3.010300	3.397500	-10.226000	25.719537	0.000634	20.660621
1686.468660	-2.996800	3.398300	-10.184000	25.733079	0.000633	20.663793
1687.470531	-2.995200	3.397800	-10.176000	25.714075	0.000634	20.665093
1688.469009	-3.008700	3.397900	-10.222000	25.685033	0.000634	20.666270
1689.473730	-2.986300	3.397400	-10.144000	25.686904	0.000633	20.685694
1690.472360	-2.985800	3.396800	-10.142000	25.729261	0.000632	20.652370
1691.470914	-3.000900	3.396200	-10.190000	25.761465	0.000633	20.658166
1692.472277	-2.993800	3.396700	-10.168000	25.770857	0.000632	20.665704
1693.472726	-3.007500	3.394800	-10.209000	25.763182	0.000631	20.631912
1694.473195	-2.984800	3.395100	-10.132000	25.748800	0.000631	20.649711
1695.473701	-3.016900	3.393600	-10.237000	25.745594	0.000630	20.656448
1696.474088	-3.012800	3.395300	-10.228000	25.744429	0.000627	20.652433
1697.476767	-3.008400	3.394500	-10.210000	25.725799	0.000631	20.664067
1698.475613	-2.996300	3.393600	-10.167000	25.710203	0.000628	20.681595
1699.478725	-3.005500	3.394100	-10.200000	25.671542	0.000627	20.642759
1700.472798	-3.004100	3.393200	-10.192000	25.661530	0.000626	20.656887
1701.476251	-3.004600	3.392500	-10.192000	25.625724	0.000627	20.657435
1702.474689	-3.008900	3.391600	-10.204000	25.603591	0.000625	20.650852
1703.473853	-3.009600	3.391300	-10.206000	25.628490	0.000625	20.672068
1704.475943	-3.024700	3.391100	-10.256000	25.668692	0.000625	20.661710
1705.475700	-2.994900	3.391700	-10.157000	25.696342	0.000626	20.656764
1706.478029	-3.023100	3.390000	-10.247000	25.721067	0.000624	20.650778
1707.477499	-3.012000	3.390300	-10.210000	25.694743	0.000625	20.651365
1708.476767	-3.023100	3.389400	-10.245000	25.672255	0.000624	20.665763
1709.476110	-2.976300	3.390400	-10.090000	25.656928	0.000623	20.658903
1710.478415	-2.991800	3.390500	-10.143000	25.648853	0.000625	20.664544
1711.477326	-3.010800	3.389800	-10.206000	25.645622	0.000622	20.668886
1712.476433	-2.980100	3.388800	-10.098000	25.650448	0.000624	20.660455
1713.480590	-3.023000	3.387500	-10.239000	25.677455	0.000622	20.657234
1714.477499	-3.008300	3.388500	-10.191000	25.712664	0.000622	20.667944
1715.476022	-3.022700	3.387100	-10.237000	25.757461	0.000620	20.638968
1716.479395	-3.007300	3.388500	-10.188000	25.797413	0.000618	20.672939
1717.479282	-2.984000	3.387700	-10.107000	25.851216	0.000621	20.644954
1718.478928	-2.990200	3.388200	-10.130000	25.873082	0.000619	20.638469
1719.484036	-2.992100	3.387700	-10.135000	25.874099	0.000620	20.656089
1720.483819	-3.007600	3.387500	-10.187000	25.880511	0.000620	20.647831
1721.483501	-2.992900	3.386800	-10.135000	25.838332	0.000617	20.636751
1722.483830	-3.015600	3.385100	-10.207000	25.830633	0.000617	20.649882
1723.481818	-3.002800	3.386000	-10.166000	25.837234	0.000617	20.661256
1724.481813	-3.007300	3.385500	-10.180000	25.821437	0.000616	20.654396
1725.483858	-2.992900	3.383800	-10.126000	25.785287	0.000615	20.628985
1726.483857	-2.989600	3.384600	-10.118000	25.777814	0.000616	20.651828
1727.481807	-2.975200	3.385700	-10.072000	25.789965	0.000616	20.668302
1728.489363	-3.023300	3.384000	-10.228000	25.825066	0.000616	20.656145
1729.483749	-3.011200	3.384100	-10.189000	25.841311	0.000616	20.648280
1730.483641	-3.019400	3.383200	-10.213000	25.851094	0.000615	20.654789
1731.493176	-2.994500	3.383800	-10.132000	25.860013	0.000613	20.666121
1732.488050	-2.994500	3.382400	-10.128000	25.871169	0.000613	20.663104
1733.485687	-3.004400	3.381100	-10.157000	25.877256	0.000613	20.646931
1734.497521	-3.026000	3.380100	-10.228000	25.873725	0.000613	20.664723
1735.486998	-3.013200	3.381600	-10.188000	25.860729	0.000611	20.680593
1736.487906	-3.009900	3.380500	-10.173000	25.821227	0.000610	20.660350
1737.488903	-3.022400	3.379300	-10.212000	25.809231	0.000611	20.649721
1738.489531	-2.984200	3.381900	-10.091000	25.811640	0.000612	20.652141
1739.488597	-2.986300	3.380200	-10.093000	25.800710	0.000609	20.667716
1740.491277	-2.985600	3.379700	-10.090000	25.799416	0.000610	20.637964
1741.490543	-2.990900	3.380000	-10.109000	25.755713	0.000610	20.663294
1742.489141	-2.994000	3.379800	-10.118000	25.708066	0.000607	20.693674
1743.493073	-2.979500	3.379800	-10.070000	25.710500	0.000611	20.657708
1744.491302	-3.000600	3.377800	-10.134000	25.733176	0.000608	20.657252
1745.491547	-2.989800	3.379000	-10.101000	25.754192	0.000607	20.665085
1746.492059	-2.994400	3.378900	-10.117000	25.787853	0.000606	20.658120
1747.492480	-2.994600	3.377600	-10.114000	25.839482	0.000608	20.646918
1748.490618	-2.989300	3.377600	-10.096000	25.850485	0.000607	20.638529
1749.495163	-3.017500	3.377600	-10.191000	25.910883	0.000606	20.664119
1750.492290	-3.013400	3.375600	-10.172000	25.936387	0.000605	20.687847
1751.494402	-2.981300	3.376300	-10.065000	25.923993	0.000605	20.658323
1752.495555	-3.000500	3.376900	-10.131000	25.961107	0.000601	20.664790
1753.498852	-3.004800	3.375200	-10.141000	25.980084	0.000604	20.658724
1754.496886	-2.997100	3.376200	-10.118000	25.986831	0.000603	20.668348
1755.496187	-3.043200	3.374600	-10.269000	26.015455	0.000602	20.663915
1756.496215	-3.001100	3.374700	-10.127000	26.024526	0.000601	20.675876
1757.494114	-2.998200	3.374900	-10.117000	26.039296	0.000600	20.664635
1758.499895	-2.977800	3.375900	-10.052000	26.029588	0.000601	20.664839
1759.497417	-3.036000	3.373000	-10.239000	26.032885	0.000598	20.665781
1760.497068	-2.988700	3.373600	-10.082000	25.990320	0.000600	20.647195
1761.500047	-2.995700	3.373000	-10.104000	25.996203	0.000599	20.653581
1762.501262	-2.994100	3.373600	-10.099000	25.989026	0.000600	20.670554
1763.498443	-3.000900	3.372400	-10.119000	25.998668	0.000600	20.680242
1764.500076	-2.993700	3.373500	-10.097000	26.018758	0.000597	20.693316
1765.502785	-3.007700	3.371100	-10.138000	26.023950	0.000599	20.677193
1766.498549	-3.023300	3.370800	-10.190000	26.022614	0.000597	20.674429
1767.503370	-3.009400	3.370500	-10.143000	26.047895	0.000598	20.672802
1768.503981	-2.983100	3.371200	-10.056000	26.074225	0.000594	20.689775
1769.499977	-3.013400	3.369700	-10.152000	26.069977	0.000596	20.676972
1770.503287	-2.996500	3.369900	-10.097000	26.079318	0.000594	20.689203
1771.504715	-3.030600	3.370400	-10.213000	26.099229	0.000594	20.683604
1772.499526	-3.018000	3.369700	-10.168000	26.093947	0.000594	20.681141
1773.503286	-3.045300	3.368000	-10.254000	26.075298	0.000594	20.679947
1774.503678	-2.984200	3.368900	-10.052000	26.074850	0.000593	20.692775
1775.502047	-3.004500	3.368100	-10.119000	26.061319	0.000594	20.676332
1776.502783	-2.976200	3.369000	-10.026000	26.071578	0.000592	20.682374
1777.503023	-2.986200	3.368600	-10.058000	25.996664	0.000592	20.663529
1778.499502	-2.998300	3.367100	-10.094000	25.929776	0.000592	20.680256
1779.503126	-3.000300	3.366100	-10.098000	25.910572	0.000591	20.686094
1780.506026	-2.984900	3.367500	-10.050000	25.873463	0.000589	20.685324
1781.501666	-2.989000	3.367900	-10.065000	25.846338	0.000590	20.673722
1782.506002	-3.012500	3.366300	-10.140000	25.851107	0.000589	20.668555
1783.506486	-2.994800	3.365600	-10.078000	25.899226	0.000590	20.685128
1784.501049	-3.004600	3.366300	-10.113000	25.897387	0.000588	20.679486
1785.504077	-3.000300	3.364700	-10.094000	25.925444	0.000588	20.670213
1786.505806	-2.963400	3.365700	-9.973100	25.961908	0.000588	20.682191
1787.500645	-3.013400	3.364100	-10.137000	25.977108	0.000587	20.678496
1788.507307	-2.982700	3.364400	-10.034000	25.969036	0.000585	20.692673
1789.505022	-2.995200	3.363600	-10.074000	25.986033	0.000586	20.698844
1790.500658	-3.016000	3.363500	-10.142000	25.980265	0.000583	20.684513
1791.504044	-2.986800	3.362900	-10.043000	25.979181	0.000585	20.675362
1792.504606	-2.971500	3.363200	-9.992500	25.953566	0.000584	20.683294
1793.501895	-2.989900	3.362400	-10.053000	25.951881	0.000586	20.687765
1794.503905	-2.985500	3.363000	-10.040000	25.937152	0.000583	20.696677
1795.507509	-3.006400	3.362900	-10.109000	25.956111	0.000585	20.703870
1796.503102	-2.998900	3.361900	-10.081000	25.925458	0.000584	20.684927
1797.506431	-3.009100	3.360400	-10.111000	25.930828	0.000582	20.669458
1798.503103	-2.985300	3.362500	-10.036000	25.933334	0.000582	20.697583
1799.504212	-2.999000	3.361000	-10.078000	25.909491	0.000582	20.710614
1800.508369	-3.001200	3.359700	-10.082000	25.873987	0.000580	20.696757
1801.506888	-2.997000	3.360100	-10.069000	25.870763	0.000580	20.695416
1802.503879	-3.010800	3.358500	-10.111000	25.877102	0.000580	20.696568
1803.507880	-2.990400	3.359700	-10.046000	25.897918	0.000581	20.689978
1804.517535	-2.988200	3.358800	-10.035000	25.935830	0.000579	20.707204
1805.505247	-2.999100	3.358300	-10.071000	25.928555	0.000580	20.688513
1806.507215	-3.015100	3.357400	-10.122000	25.973612	0.000578	20.718134
1807.508079	-2.968600	3.358000	-9.968000	25.975758	0.000577	20.696582
1808.506783	-3.001300	3.357200	-10.075000	26.001869	0.000578	20.696736
1809.506984	-2.997700	3.357700	-10.064000	26.038036	0.000578	20.707945
1810.507597	-2.967700	3.358600	-9.966400	26.056913	0.000576	20.692770
1811.510286	-2.998500	3.357000	-10.063000	26.085259	0.000577	20.697070
1812.509881	-2.970800	3.357000	-9.972100	26.070784	0.000576	20.701018
1813.508947	-2.987300	3.356800	-10.027000	26.049044	0.000575	20.696244
1814.508965	-3.016400	3.354700	-10.118000	26.028531	0.000575	20.696971
1815.507730	-3.016400	3.355600	-10.121000	26.031461	0.000575	20.712718
1816.508931	-3.020500	3.355200	-10.133000	26.053428	0.000575	20.710607
1817.513115	-3.029200	3.354700	-10.162000	26.050866	0.000574	20.706135
1818.511667	-3.023300	3.353000	-10.137000	26.074094	0.000572	20.721889
1819.513049	-3.019000	3.354100	-10.126000	26.076747	0.000574	20.694207
1820.512155	-3.012100	3.353700	-10.101000	26.069651	0.000573	20.705096
1821.512444	-3.001900	3.353400	-10.065000	26.086664	0.000572	20.716027
1822.513243	-2.988800	3.353300	-10.021000	26.047146	0.000572	20.696234
1823.510119	-3.000400	3.353400	-10.060000	25.990797	0.000571	20.709795
1824.510883	-3.014500	3.352100	-10.104000	25.978348	0.000569	20.708668
1825.512264	-2.990300	3.351900	-10.023000	25.957289	0.000570	20.718805
1826.512215	-3.008200	3.351300	-10.080000	25.917245	0.000567	20.715559
1827.513106	-2.984800	3.353100	-10.008000	25.861826	0.000568	20.700663
1828.520636	-2.986900	3.349900	-10.005000	25.852883	0.000568	20.693574
1829.512406	-2.991800	3.351400	-10.025000	25.843816	0.000567	20.722402
1830.514358	-2.982500	3.352600	-9.997500	25.839128	0.000565	20.728123
1831.512937	-3.001800	3.349900	-10.054000	25.871444	0.000565	20.704635
1832.514058	-2.999600	3.350000	-10.047000	25.890128	0.000567	20.712974
1833.521427	-3.008700	3.351000	-10.081000	25.940134	0.000565	20.710104
1834.516395	-2.995600	3.349800	-10.033000	25.968906	0.000565	20.722890
1835.518026	-2.975700	3.349200	-9.965200	26.016223	0.000565	20.728703
1836.520778	-2.995600	3.349000	-10.032000	26.029964	0.000564	20.707421
1837.522043	-3.000300	3.348800	-10.047000	25.988385	0.000564	20.711165
1838.518907	-3.002000	3.349600	-10.054000	25.967245	0.000563	20.723118
1839.520865	-3.003000	3.348600	-10.054000	25.972664	0.000563	20.709595
1840.520922	-3.023400	3.347600	-10.120000	25.966871	0.000561	20.727484
1841.522680	-2.995300	3.346800	-10.024000	25.992168	0.000560	20.723027
1842.518910	-2.992600	3.347800	-10.017000	26.021470	0.000562	20.724492
1843.520505	-3.020400	3.345500	-10.104000	26.060241	0.000560	20.729781
1844.521235	-3.004200	3.345400	-10.049000	26.070133	0.000562	20.707951
1845.522658	-2.989900	3.346800	-10.005000	26.052991	0.000560	20.714909
1846.522089	-3.014700	3.345300	-10.083000	26.081564	0.000559	20.721334
1847.523839	-3.018700	3.344800	-10.096000	26.068896	0.000558	20.724727
1848.521509	-3.003300	3.346000	-10.049000	26.040574	0.000559	20.706701
1849.525711	-2.981800	3.344900	-9.973000	26.023567	0.000557	20.731341
1850.521983	-2.989200	3.345800	-10.001000	25.994013	0.000558	20.738158
1851.527270	-2.997400	3.344300	-10.023000	25.984347	0.000557	20.736033
1852.525758	-2.997900	3.343400	-10.023000	25.956428	0.000556	20.716992
1853.524225	-3.013900	3.343300	-10.076000	25.958397	0.000556	20.743153
1854.527438	-3.020100	3.343100	-10.096000	25.974719	0.000556	20.724463
1855.528684	-3.008200	3.342400	-10.053000	25.974915	0.000553	20.729402
1856.524787	-2.989500	3.342100	-9.990200	25.975387	0.000553	20.745524
1857.525452	-3.014500	3.343300	-10.077000	25.946003	0.000553	20.739237
1858.525001	-3.016200	3.341200	-10.077000	25.941112	0.000552	20.734797
1859.525599	-2.982000	3.343000	-9.966400	25.937483	0.000555	20.738738
1860.529067	-3.008300	3.341000	-10.050000	25.956638	0.000553	20.748973
1861.525734	-2.998900	3.341100	-10.020000	25.985029	0.000550	20.737667
1862.531373	-3.020600	3.339900	-10.088000	26.001725	0.000551	20.737372
1863.525929	-3.005800	3.340700	-10.041000	26.035061	0.000550	20.742415
1864.526664	-2.989400	3.340200	-9.983400	26.041042	0.000552	20.732303
1865.530248	-2.980600	3.339300	-9.951800	25.992164	0.000552	20.734404
1866.525738	-2.999700	3.340500	-10.019000	25.992360	0.000550	20.737445
1867.528446	-3.025300	3.337500	-10.095000	25.969982	0.000549	20.752896
1868.527029	-2.991800	3.338600	-9.986600	25.941462	0.000549	20.751270
1869.525543	-3.016100	3.338600	-10.068000	25.953960	0.000548	20.742963
1870.528552	-3.061600	3.336200	-10.213000	25.976792	0.000547	20.735556
1871.527216	-3.026700	3.337600	-10.100000	26.006899	0.000548	20.739251
1872.528265	-2.995800	3.337700	-9.997500	26.057941	0.000547	20.757817
1873.527759	-2.981900	3.337800	-9.951300	26.078533	0.000548	20.737256
1874.528615	-3.016600	3.336600	-10.064000	26.157314	0.000547	20.745292
1875.532041	-2.983200	3.337300	-9.954800	26.167745	0.000548	20.750083
1876.533248	-2.985800	3.335600	-9.958200	26.232014	0.000546	20.754923
1877.528203	-3.020800	3.333800	-10.070000	26.220917	0.000544	20.740452
1878.531572	-3.012200	3.335300	-10.046000	26.246715	0.000545	20.741246
1879.528781	-2.994000	3.334400	-9.981700	26.250098	0.000546	20.757448
1880.530909	-2.993200	3.334200	-9.978600	26.293897	0.000546	20.767799
1881.533782	-3.013800	3.332900	-10.043000	26.315446	0.000545	20.748678
1882.530470	-2.976000	3.333800	-9.919700	26.334497	0.000544	20.762608
1883.535159	-2.987100	3.333300	-9.956200	26.354930	0.000542	20.770342
1884.531366	-2.988800	3.332600	-9.960000	26.339899	0.000542	20.736743
1885.531327	-2.999900	3.332300	-9.995400	26.326071	0.000544	20.758407
1886.535985	-2.999300	3.332800	-9.994900	26.350597	0.000541	20.755555
1887.531110	-3.000800	3.332200	-9.998200	26.355259	0.000541	20.751706
1888.534433	-2.990500	3.332300	-9.964500	26.311546	0.000543	20.750448
1889.532281	-3.008800	3.330700	-10.021000	26.280505	0.000540	20.771410
1890.533757	-3.012700	3.330700	-10.032000	26.303298	0.000540	20.752117
1891.531960	-2.994500	3.330500	-9.971100	26.331030	0.000540	20.769081
1892.533257	-3.015700	3.329600	-10.040000	26.348000	0.000539	20.765748
1893.531951	-2.990200	3.331400	-9.960800	26.329950	0.000537	20.769419
1894.532218	-3.017300	3.328300	-10.041000	26.313406	0.000539	20.781715
1895.534923	-2.998900	3.330100	-9.985700	26.310365	0.000538	20.785772
1896.534558	-2.994300	3.328300	-9.965100	26.297937	0.000538	20.754316
1897.556736	-2.989400	3.328600	-9.949400	26.277863	0.000538	20.765910
1898.534122	-2.994700	3.328800	-9.967900	26.237799	0.000536	20.783496
1899.537057	-2.978000	3.328600	-9.911500	26.200216	0.000537	20.784610
1900.534993	-3.004200	3.327600	-9.995900	26.183516	0.000535	20.757871
1901.535871	-3.020900	3.327900	-10.052000	26.148958	0.000535	20.771509
1902.537150	-3.015400	3.326600	-10.030000	26.157144	0.000534	20.774520
1903.539248	-2.991700	3.326500	-9.951000	26.129964	0.000534	20.773761
1904.535415	-3.006200	3.327000	-10.000000	26.094859	0.000533	20.786852
1905.535310	-3.004100	3.327100	-9.994200	26.115444	0.000533	20.784302
1906.535420	-2.998300	3.326900	-9.973600	26.145858	0.000531	20.775507
1907.535395	-3.006200	3.325500	-9.995100	26.164303	0.000530	20.797361
1908.537575	-2.997900	3.325600	-9.967900	26.151881	0.000531	20.786775
1909.535562	-2.988700	3.325000	-9.936300	26.131577	0.000529	20.819477
1910.538267	-2.967000	3.325900	-9.867100	26.094420	0.000529	20.786884
1911.536370	-2.992500	3.324100	-9.946600	26.076928	0.000529	20.832371
1912.535874	-2.996800	3.324100	-9.960500	26.096919	0.000530	20.782757
1913.537955	-2.983700	3.323500	-9.914600	26.102697	0.000527	20.790460
1914.537252	-3.002600	3.322800	-9.976300	26.107263	0.000527	20.778451
1915.539059	-2.999800	3.322800	-9.966700	26.126757	0.000525	20.798514
1916.537102	-2.988300	3.322300	-9.926900	26.103278	0.000524	20.794362
1917.536229	-3.002900	3.323100	-9.977400	26.091977	0.000527	20.802448
1918.539050	-3.000200	3.321800	-9.965400	26.094980	0.000524	20.792188
1919.540914	-2.994000	3.322200	-9.945500	26.095298	0.000522	20.790611
1920.537667	-2.991600	3.322000	-9.936000	26.134856	0.000523	20.795746
1921.537225	-3.007600	3.321200	-9.987500	26.196077	0.000523	20.803684
1922.539884	-3.032700	3.317900	-10.060000	26.235828	0.000522	20.799059
1923.539343	-3.006800	3.319500	-9.979300	26.234388	0.000521	20.819423
1924.544044	-2.991800	3.319300	-9.929300	26.260810	0.000521	20.826061
1925.541181	-2.988900	3.319000	-9.917700	26.303047	0.000520	20.797383
1926.541675	-2.971100	3.320200	-9.863600	26.284947	0.000520	20.800056
1927.540595	-2.975600	3.319000	-9.874800	26.295963	0.000522	20.816817
1928.540998	-2.985000	3.318800	-9.903800	26.299321	0.000520	20.807864
1929.543571	-2.993400	3.318300	-9.930800	26.322066	0.000519	20.814126
1930.540419	-2.973700	3.317900	-9.864600	26.317599	0.000519	20.817224
1931.540707	-3.007400	3.317000	-9.974100	26.309352	0.000518	20.826953
1932.539440	-3.004400	3.317100	-9.964600	26.300737	0.000517	20.827304
1933.539943	-3.014600	3.316400	-9.995200	26.333462	0.000517	20.821312
1934.540791	-3.021700	3.318100	-10.025000	26.353602	0.000516	20.816423
1935.541391	-3.014900	3.315300	-9.994100	26.365967	0.000514	20.811306
1936.539944	-3.005400	3.315900	-9.964000	26.391963	0.000513	20.822261
1937.546017	-2.997600	3.316600	-9.940200	26.402709	0.000514	20.811724
1938.540869	-3.007900	3.314700	-9.969500	26.413242	0.000514	20.830370
1939.541002	-3.014500	3.315200	-9.991600	26.408702	0.000513	20.816325
1940.543937	-3.010700	3.313400	-9.974500	26.377607	0.000514	20.826324
1941.542022	-3.008200	3.314100	-9.969200	26.345054	0.000513	20.808781
1942.540928	-3.009100	3.313200	-9.968900	26.337935	0.000512	20.810635
1943.541451	-2.997700	3.313200	-9.929900	26.349276	0.000511	20.822032
1944.542381	-2.997700	3.313800	-9.932300	26.371928	0.000512	20.809237
1945.543159	-2.987300	3.313700	-9.898400	26.418309	0.000511	20.819342
1946.546195	-2.997500	3.312300	-9.927900	26.439139	0.000511	20.831743
1947.542509	-3.028100	3.312200	-10.029000	26.417910	0.000510	20.823209
1948.541959	-3.013800	3.312200	-9.980200	26.438796	0.000510	20.823813
1949.540760	-3.022200	3.311000	-10.005000	26.440928	0.000510	20.845395
1950.541697	-2.996700	3.312500	-9.925400	26.408475	0.000507	20.825105
1951.543674	-3.001900	3.311300	-9.939200	26.408671	0.000507	20.813923
1952.543155	-3.014400	3.310500	-9.977100	26.409988	0.000509	20.821885
1953.549258	-3.010600	3.309900	-9.964000	26.362867	0.000506	20.847070
1954.545272	-2.992100	3.310600	-9.904500	26.347868	0.000506	20.818246
1955.545928	-2.994200	3.309500	-9.908700	26.360428	0.000505	20.853153
1956.547799	-2.996100	3.309400	-9.913000	26.363901	0.000505	20.809230
1957.548695	-3.023900	3.308400	-10.003000	26.355710	0.000504	20.825179
1958.545823	-2.998500	3.308100	-9.918500	26.394175	0.000504	20.829699
1959.547061	-3.012400	3.308400	-9.965000	26.368147	0.000504	20.841472
1960.546923	-2.996800	3.308400	-9.913400	26.362021	0.000502	20.813979
1961.546530	-2.984900	3.307400	-9.870400	26.386351	0.000502	20.838905
1962.548296	-2.997000	3.307500	-9.910600	26.365226	0.000502	20.833794
1963.546433	-3.014700	3.307300	-9.969200	26.365813	0.000502	20.803091
1964.547959	-3.014000	3.307300	-9.967500	26.385928	0.000499	20.826626
1965.544722	-2.983800	3.305900	-9.862900	26.404816	0.000499	20.800566
1966.546403	-2.990900	3.306700	-9.888200	26.437417	0.000500	20.807253
1967.549388	-2.981100	3.307400	-9.858200	26.486135	0.000501	20.804538
1968.547151	-2.977300	3.306000	-9.841200	26.514064	0.000500	20.812697
1969.546098	-2.980400	3.304600	-9.848300	26.552860	0.000498	20.816606
1970.545394	-3.010100	3.304000	-9.944300	26.588047	0.000499	20.805985
1971.545269	-3.001600	3.302800	-9.913200	26.595287	0.000497	20.805676
1972.545430	-2.979900	3.304800	-9.844800	26.574589	0.000497	20.814741
1973.548247	-2.996500	3.302900	-9.896500	26.587649	0.000496	20.808904
1974.546530	-2.988000	3.304100	-9.871900	26.604794	0.000497	20.832302
1975.545393	-2.999800	3.302300	-9.904200	26.617561	0.000497	20.814316
1976.547613	-2.994500	3.302500	-9.887800	26.634436	0.000496	20.799038
1977.548444	-3.007000	3.302400	-9.929000	26.646601	0.000494	20.822173
1978.551379	-2.992200	3.302900	-9.881400	26.652107	0.000494	20.792147
1979.548427	-3.005300	3.301200	-9.919500	26.694353	0.000495	20.812332
1980.551141	-2.966900	3.302100	-9.796400	26.729927	0.000494	20.792621
1981.551504	-3.006700	3.301100	-9.924500	26.729522	0.000495	20.796956
1982.549550	-2.983100	3.299800	-9.841400	26.696638	0.000494	20.795663
1983.550254	-2.983100	3.301400	-9.847400	26.666998	0.000489	20.785780
1984.550661	-2.992900	3.301200	-9.878600	26.639139	0.000491	20.799499
1985.548146	-2.997900	3.300200	-9.893300	26.646312	0.000491	20.814770
1986.549469	-2.965700	3.300200	-9.786200	26.635016	0.000491	20.798673
1987.549242	-2.973600	3.299700	-9.810800	26.589753	0.000490	20.811493
1988.550522	-3.009700	3.299100	-9.928600	26.515023	0.000489	20.808445
1989.550956	-2.999300	3.298200	-9.891200	26.481744	0.000491	20.804866
1990.550723	-3.005100	3.298700	-9.911800	26.438400	0.000488	20.807767
1991.551569	-3.013500	3.297300	-9.934900	26.457122	0.000486	20.804300
1992.551403	-3.014500	3.297800	-9.940100	26.458230	0.000485	20.813949
1993.552158	-3.003900	3.296400	-9.901600	26.507315	0.000486	20.803068
1994.554119	-2.990600	3.296700	-9.858200	26.531267	0.000487	20.812920
1995.552374	-2.988500	3.296900	-9.851500	26.565010	0.000486	20.786146
1996.555736	-2.965000	3.298300	-9.778300	26.579283	0.000485	20.781527
1997.552652	-2.984300	3.296100	-9.835300	26.584415	0.000484	20.782894
1998.554757	-3.001900	3.295300	-9.891300	26.610683	0.000482	20.782746
1999.555997	-2.980600	3.295300	-9.821400	26.632355	0.000482	20.787937
2000.552559	-3.020200	3.293500	-9.946200	26.639944	0.000480	20.795566
2001.554624	-3.007000	3.292400	-9.898400	26.574130	0.000483	20.790572
2002.554706	-2.999700	3.293000	-9.876500	26.566086	0.000481	20.786754
2003.557273	-2.995700	3.293900	-9.866700	26.564248	0.000480	20.789174
2004.560652	-2.978400	3.294800	-9.812400	26.577211	0.000480	20.810739
2005.555643	-2.998000	3.292400	-9.869700	26.570803	0.000479	20.784383
2006.560712	-2.995700	3.291700	-9.859300	26.555555	0.000479	20.779013
2007.554443	-2.987900	3.292400	-9.836000	26.560653	0.000477	20.785086
2008.556727	-3.005800	3.290900	-9.891100	26.576090	0.000477	20.793017
2009.563429	-3.019600	3.289800	-9.933400	26.552316	0.000475	20.783818
2010.559399	-2.977100	3.291900	-9.799600	26.601340	0.000476	20.787579
2011.562644	-2.996200	3.290500	-9.856900	26.639895	0.000474	20.797888
2012.559680	-2.971700	3.291000	-9.779400	26.663030	0.000475	20.776575
2013.558860	-2.991700	3.291000	-9.844800	26.660145	0.000474	20.803546
2014.558850	-2.990500	3.289800	-9.835700	26.660599	0.000474	20.781243
2015.562285	-2.972000	3.289400	-9.774800	26.601480	0.000474	20.782030
2016.560090	-2.993200	3.289300	-9.845200	26.569909	0.000473	20.774949
2017.599759	-3.007200	3.289900	-9.892100	26.511320	0.000473	20.781963
2018.560923	-3.003200	3.287700	-9.872100	26.486679	0.000473	20.796076
2019.561643	-3.000400	3.287300	-9.862100	26.466296	0.000472	20.775589
2020.566518	-2.981500	3.289700	-9.806600	26.510387	0.000470	20.753524
2021.562739	-2.978800	3.288400	-9.793900	26.520318	0.000471	20.785318
2022.562814	-3.018300	3.286400	-9.917900	26.538788	0.000471	20.780650
2023.561675	-2.979500	3.287600	-9.794000	26.532055	0.000470	20.784788
2024.562851	-2.998300	3.286600	-9.852600	26.545678	0.000468	20.764343
2025.562909	-3.007800	3.285300	-9.880600	26.546947	0.000469	20.779843
2026.566725	-3.005200	3.286100	-9.874500	26.554861	0.000467	20.784479
2027.564667	-3.009300	3.285000	-9.884800	26.563027	0.000464	20.779885
2028.565773	-3.008500	3.283000	-9.875400	26.576755	0.000468	20.783253
2029.565154	-3.018300	3.284600	-9.911500	26.576412	0.000465	20.766313
2030.565160	-2.990600	3.284800	-9.823100	26.603640	0.000464	20.771874
2031.566766	-3.007500	3.281600	-9.867400	26.585961	0.000461	20.769275
2032.564088	-2.996700	3.282100	-9.834300	26.633300	0.000461	20.783198
2033.567726	-3.008200	3.282500	-9.873200	26.594770	0.000464	20.782871
2034.563797	-2.966500	3.284100	-9.741400	26.605545	0.000462	20.784220
2035.566002	-2.994800	3.283400	-9.831900	26.599291	0.000461	20.781726
2036.570318	-3.004400	3.281100	-9.855100	26.605447	0.000459	20.763258
2037.566150	-2.979700	3.281900	-9.778100	26.648760	0.000460	20.771712
2038.569277	-3.035200	3.280800	-9.956800	26.659363	0.000460	20.760561
2039.567253	-3.018800	3.280900	-9.903400	26.674530	0.000458	20.776282
2040.568651	-2.982400	3.281600	-9.786100	26.717326	0.000456	20.780901
2041.568305	-3.006000	3.280300	-9.859400	26.703006	0.000457	20.768646
2042.569522	-2.996100	3.280200	-9.826800	26.704476	0.000456	20.784103
2043.566467	-2.985400	3.279400	-9.789200	26.712487	0.000455	20.795951
2044.567734	-2.996000	3.280400	-9.827200	26.725749	0.000455	20.781308
2045.567739	-3.014700	3.278500	-9.882600	26.746524	0.000455	20.775168
2046.568854	-2.990800	3.279100	-9.806300	26.757102	0.000455	20.774898
2047.572755	-2.998800	3.277100	-9.826600	26.778667	0.000453	20.761965
2048.569057	-3.015400	3.278300	-9.884100	26.718559	0.000454	20.760802
2049.571774	-3.001700	3.277500	-9.836600	26.653588	0.000453	20.768031
2050.568130	-2.985400	3.279400	-9.788600	26.602501	0.000453	20.763142
2051.572832	-3.006100	3.276700	-9.848900	26.579560	0.000451	20.781806
2052.571290	-2.994200	3.277300	-9.812200	26.569857	0.000452	20.751189
2053.571023	-3.014600	3.275800	-9.874400	26.585447	0.000452	20.767810
2054.569490	-3.006500	3.274800	-9.845100	26.597558	0.000451	20.766707
2055.569990	-3.007900	3.275100	-9.849900	26.643708	0.000451	20.760943
2056.570115	-3.000100	3.275200	-9.825300	26.667063	0.000454	20.758818
2057.570472	-3.018400	3.273700	-9.880400	26.710674	0.000452	20.734383
2058.573861	-2.961400	3.276100	-9.700600	26.713277	0.000450	20.775407
2059.570596	-3.005400	3.274400	-9.839100	26.735688	0.000451	20.751945
2060.573259	-3.008500	3.273700	-9.848400	26.751594	0.000450	20.749919
2061.573523	-3.012600	3.273800	-9.861300	26.774151	0.000449	20.778288
2062.571406	-2.996200	3.273100	-9.806200	26.814107	0.000448	20.757295
2063.572178	-3.001200	3.272500	-9.820400	26.808539	0.000447	20.774457
2064.570490	-3.005000	3.271600	-9.830200	26.811460	0.000448	20.766962
2065.572811	-3.002600	3.271500	-9.822100	26.787794	0.000447	20.753124
2066.571417	-3.010000	3.271600	-9.846400	26.767784	0.000444	20.767145
2067.570322	-2.989800	3.271700	-9.780900	26.776186	0.000447	20.752359
2068.572273	-3.014800	3.269800	-9.857400	26.753909	0.000449	20.756988
2069.573800	-2.992400	3.271400	-9.788500	26.721655	0.000446	20.768657
2070.571190	-2.992100	3.270800	-9.784100	26.716681	0.000446	20.748957
2071.571968	-2.997900	3.270100	-9.802900	26.747354	0.000445	20.740439
2072.571026	-3.029600	3.267900	-9.899500	26.762376	0.000443	20.757440
2073.570563	-3.012000	3.268500	-9.844200	26.780982	0.000444	20.766190
2074.575144	-3.001000	3.268500	-9.807400	26.799263	0.000442	20.752802
2075.570954	-3.001100	3.268400	-9.806700	26.819553	0.000442	20.753761
2076.573092	-3.010800	3.266900	-9.834800	26.827856	0.000441	20.757843
2077.568921	-2.993800	3.267900	-9.782300	26.838365	0.000438	20.778841
2078.571108	-2.974700	3.267600	-9.719300	26.839577	0.000437	20.741652
2079.575383	-2.995500	3.266400	-9.783200	26.831467	0.000438	20.770009
2080.571503	-2.979200	3.267900	-9.735400	26.802376	0.000436	20.775372
2081.571988	-2.993800	3.265800	-9.776500	26.801689	0.000437	20.751921
2082.572777	-3.001500	3.265700	-9.800900	26.827025	0.000435	20.757482
2083.571295	-3.000400	3.266200	-9.798300	26.848411	0.000436	20.767131
2084.571445	-2.986600	3.265700	-9.752100	26.869740	0.000434	20.778621
2085.573543	-2.990700	3.264000	-9.760300	26.884530	0.000434	20.753188
2086.572038	-3.018700	3.263100	-9.849500	26.863971	0.000429	20.772819
2087.579094	-3.004900	3.264000	-9.807100	26.825106	0.000433	20.752707
2088.573331	-3.000700	3.263900	-9.791800	26.752848	0.000430	20.732213
2089.572627	-3.007200	3.261900	-9.807800	26.722854	0.000430	20.773182
2090.574355	-3.003200	3.263900	-9.801700	26.708925	0.000428	20.757281
2091.573526	-3.001100	3.263800	-9.793600	26.745957	0.000428	20.762743
2092.575207	-3.000000	3.262000	-9.784600	26.773775	0.000428	20.769849
2093.574639	-2.990000	3.261300	-9.749900	26.812023	0.000426	20.744768
2094.575906	-3.004700	3.260600	-9.796500	26.798040	0.000424	20.752520
2095.576423	-3.003100	3.261200	-9.792200	26.820970	0.000425	20.777472
2096.574446	-2.979200	3.261200	-9.714900	26.863307	0.000423	20.752710
2097.578719	-3.005000	3.259400	-9.794100	26.866479	0.000422	20.776763
2098.579549	-2.996700	3.260400	-9.769300	26.900088	0.000424	20.779738
2099.578001	-2.996700	3.260000	-9.767800	26.939672	0.000421	20.775920
2100.578683	-3.009100	3.259100	-9.806100	26.967259	0.000421	20.740597
2101.577776	-3.018400	3.258500	-9.834300	26.981680	0.000422	20.774066
2102.579375	-3.012100	3.257000	-9.809300	26.998501	0.000420	20.757316
2103.577741	-3.013600	3.256600	-9.813500	26.975023	0.000418	20.760734
2104.578605	-3.010000	3.256700	-9.801500	26.971845	0.000418	20.754692
2105.581882	-3.005700	3.258400	-9.793500	27.007588	0.000418	20.749859
2106.581775	-2.999100	3.257100	-9.767400	27.019062	0.000417	20.758079
2107.583174	-3.010800	3.256100	-9.802200	27.011427	0.000418	20.760832
2108.584480	-3.003700	3.255400	-9.777900	26.967668	0.000417	20.761398
2109.593131	-3.017600	3.254600	-9.819900	26.916872	0.000417	20.754889
2110.586181	-3.034700	3.253200	-9.871900	26.855969	0.000415	20.769041
2111.583999	-2.999400	3.255500	-9.763800	26.793916	0.000415	20.746477
2112.581872	-3.007100	3.253400	-9.783000	26.735358	0.000414	20.737388
2113.587208	-3.004200	3.254300	-9.775000	26.688146	0.000414	20.757728
2114.582123	-3.003100	3.253400	-9.769500	26.627009	0.000412	20.765967
2115.583839	-3.010600	3.252200	-9.789000	26.656025	0.000412	20.745350
2116.584603	-3.000500	3.253400	-9.760300	26.656497	0.000411	20.756256
2117.582878	-2.990400	3.253700	-9.729500	26.701254	0.000412	20.740085
2118.588404	-2.988000	3.252200	-9.716500	26.696108	0.000408	20.742499
2119.584475	-2.979800	3.253900	-9.695300	26.704573	0.000409	20.757647
2120.585855	-2.993200	3.252500	-9.733200	26.762576	0.000407	20.740097
2121.590296	-3.004200	3.250900	-9.765300	26.775763	0.000406	20.728224
2122.584181	-2.989300	3.250900	-9.717200	26.784000	0.000406	20.749783
2123.584121	-2.984500	3.250000	-9.698300	26.821843	0.000406	20.731881
2124.583418	-2.975400	3.251000	-9.672100	26.829964	0.000405	20.740047
2125.584829	-2.975800	3.250400	-9.671800	26.837167	0.000406	20.737806
2126.584455	-3.004700	3.249200	-9.762000	26.831930	0.000407	20.748663
2127.587786	-2.979100	3.249900	-9.679800	26.815939	0.000403	20.752973
2128.585258	-2.973400	3.248900	-9.658900	26.819412	0.000402	20.733230
2129.585535	-2.999400	3.248200	-9.741300	26.821616	0.000402	20.706521
2130.587310	-3.011900	3.246500	-9.776300	26.819492	0.000401	20.749907
2131.587392	-3.000900	3.247300	-9.742300	26.825860	0.000402	20.746827
2132.588145	-3.009900	3.246200	-9.769900	26.832383	0.000401	20.721141
2133.585423	-3.011600	3.246600	-9.776600	26.904562	0.000399	20.746778
2134.589103	-3.000700	3.246900	-9.742000	26.930668	0.000397	20.736992
2135.588211	-2.998300	3.245100	-9.728800	26.905572	0.000399	20.719343
2136.590243	-3.003500	3.245100	-9.745200	26.868791	0.000397	20.745897
2137.590712	-3.030300	3.244400	-9.830100	26.819252	0.000397	20.719792
2138.588436	-2.996000	3.244000	-9.717900	26.870971	0.000395	20.719164
2139.591345	-3.002000	3.243800	-9.736700	26.884817	0.000395	20.726923
2140.589246	-3.004700	3.242500	-9.741900	26.894702	0.000395	20.726905
2141.588691	-3.026400	3.244100	-9.817400	26.892963	0.000393	20.731794
2142.589951	-3.002300	3.242800	-9.735100	26.913662	0.000394	20.733168
2143.592783	-3.010100	3.241800	-9.756700	26.936963	0.000391	20.721984
2144.593586	-2.995900	3.242200	-9.711500	26.942768	0.000390	20.722606
2145.594946	-2.976700	3.241100	-9.646000	26.908052	0.000391	20.735588
2146.592575	-2.992200	3.240500	-9.695600	26.860303	0.000391	20.716972
2147.603981	-3.004400	3.242200	-9.739600	26.850694	0.000388	20.739079
2148.601804	-3.003800	3.240800	-9.733000	26.903557	0.000390	20.697400
2149.598083	-3.016800	3.237800	-9.766700	26.880800	0.000389	20.705813
2150.599115	-3.013400	3.238700	-9.758600	26.916442	0.000388	20.726480
2151.596294	-3.004900	3.239100	-9.730900	26.948653	0.000387	20.717618
2152.594313	-3.016500	3.238400	-9.766300	26.939596	0.000386	20.703768
2153.603079	-2.991500	3.238600	-9.686700	26.917599	0.000384	20.739024
2154.598662	-3.018500	3.238600	-9.774300	26.927232	0.000383	20.705086
2155.596218	-3.005000	3.236800	-9.725200	26.945597	0.000383	20.722132
2156.594675	-3.011000	3.237300	-9.745800	26.991683	0.000383	20.712525
2157.596488	-3.006300	3.236300	-9.728400	26.992154	0.000383	20.717741
2158.595460	-2.989400	3.236500	-9.673500	27.020511	0.000382	20.726818
2159.598782	-3.010600	3.235600	-9.740600	27.014737	0.000380	20.708208
2160.596532	-3.019900	3.236500	-9.771900	26.978579	0.000382	20.701243
2161.600667	-3.003200	3.234700	-9.713700	26.995351	0.000379	20.712894
2162.597790	-2.997300	3.233300	-9.690100	27.040167	0.000378	20.714342
2163.598403	-2.992700	3.234400	-9.678500	27.036824	0.000378	20.713825
2164.601787	-2.993200	3.233900	-9.679400	27.069172	0.000376	20.718381
2165.599124	-2.969000	3.233700	-9.599300	27.094613	0.000376	20.694179
2166.605938	-3.005300	3.234100	-9.718800	27.123273	0.000375	20.705462
2167.600580	-2.991300	3.233200	-9.669400	27.168856	0.000375	20.691088
2168.600536	-3.009900	3.232600	-9.727700	27.191533	0.000375	20.700147
2169.601894	-3.030600	3.230700	-9.789900	27.140650	0.000373	20.704920
2170.602561	-2.995400	3.233000	-9.681500	27.152589	0.000374	20.694168
2171.601064	-2.995300	3.231700	-9.677500	27.162231	0.000374	20.691063
2172.600775	-3.014900	3.230200	-9.737500	27.167919	0.000374	20.688249
2173.600080	-3.012200	3.230500	-9.728300	27.207892	0.000371	20.677719
2174.601909	-2.997000	3.229900	-9.678400	27.195188	0.000374	20.675372
2175.603084	-2.991500	3.230000	-9.661600	27.124848	0.000371	20.695664
2176.602744	-2.994500	3.231400	-9.676000	27.085619	0.000371	20.686556
2177.604466	-2.979500	3.229500	-9.621100	27.093236	0.000370	20.700856
2178.603433	-3.003400	3.228800	-9.695300	27.118352	0.000371	20.709995
2179.603188	-3.013700	3.225200	-9.718500	27.175683	0.000370	20.682781
2180.607960	-2.995000	3.227500	-9.665100	27.165838	0.000367	20.708443
2181.604301	-2.998700	3.226700	-9.675100	27.159140	0.000366	20.694119
2182.603590	-3.015000	3.225200	-9.721900	27.127002	0.000367	20.694987
2183.602818	-3.003800	3.227400	-9.692900	27.118076	0.000367	20.695966
2184.603724	-2.980700	3.225900	-9.615000	27.161148	0.000365	20.698035
2185.602428	-2.979700	3.224200	-9.605900	27.175236	0.000364	20.685650
2186.604730	-2.990300	3.224200	-9.640000	27.166205	0.000364	20.700277
2187.602829	-2.966300	3.226200	-9.569200	27.082924	0.000364	20.690959
2188.607773	-3.007500	3.222700	-9.691000	27.039971	0.000364	20.697548
2189.603612	-3.006200	3.223100	-9.687800	27.007732	0.000361	20.685040
2190.602190	-2.985600	3.223100	-9.620900	27.002374	0.000359	20.678229
2191.607491	-3.017800	3.220600	-9.718400	27.008748	0.000360	20.687959
2192.603562	-2.994600	3.220900	-9.644100	27.053662	0.000360	20.678124
2193.605947	-2.986100	3.221600	-9.619200	27.054930	0.000360	20.674657
2194.609115	-3.005600	3.220400	-9.678600	27.069018	0.000357	20.713485
2195.605413	-3.009000	3.218400	-9.682500	27.119985	0.000358	20.682712
2196.607111	-3.006900	3.219300	-9.679100	27.127203	0.000358	20.686179
2197.604557	-3.015600	3.219200	-9.706800	27.112889	0.000356	20.698336
2198.611677	-2.996800	3.219900	-9.647700	27.110182	0.000356	20.688975
2199.608294	-3.001000	3.218200	-9.656500	27.130455	0.000355	20.680914
2200.608202	-3.006600	3.218100	-9.674400	27.116856	0.000353	20.703749
2201.610469	-2.992100	3.217500	-9.626600	27.152563	0.000354	20.682761
2202.611537	-2.981900	3.218000	-9.595100	27.144549	0.000353	20.686555
2203.608204	-2.985200	3.217300	-9.603200	27.192585	0.000352	20.664692
2204.609390	-2.992900	3.218400	-9.631100	27.198316	0.000351	20.686105
2205.610352	-3.008100	3.215600	-9.671800	27.202516	0.000351	20.672785
2206.609255	-3.016000	3.216000	-9.698500	27.223698	0.000349	20.677970
2207.612707	-2.999500	3.214800	-9.641600	27.208687	0.000352	20.669982
2208.609899	-2.991800	3.215300	-9.618200	27.229777	0.000350	20.691672
2209.614182	-3.014500	3.214600	-9.689600	27.266277	0.000348	20.693298
2210.609487	-3.015300	3.212900	-9.686600	27.286871	0.000348	20.676080
2211.610123	-3.029400	3.212100	-9.729100	27.295129	0.000347	20.689603
2212.620595	-2.995200	3.212700	-9.622100	27.318826	0.000348	20.693052
2213.610366	-3.004800	3.212700	-9.651900	27.267422	0.000346	20.683544
2214.609509	-2.999500	3.210900	-9.630100	27.226766	0.000346	20.692437
2215.611026	-3.020900	3.211800	-9.701100	27.183819	0.000346	20.702346
2216.611001	-3.004800	3.211500	-9.648800	27.176399	0.000343	20.697253
2217.611915	-2.994600	3.209800	-9.610700	27.196223	0.000344	20.692535
2218.614190	-2.990200	3.209500	-9.595500	27.192029	0.000343	20.681678
2219.611907	-3.010600	3.209400	-9.662000	27.212251	0.000342	20.696803
2220.610722	-3.042300	3.209600	-9.763900	27.250122	0.000341	20.696015
2221.610315	-3.005900	3.209500	-9.646600	27.238502	0.000342	20.674842
2222.609564	-2.993300	3.209000	-9.603900	27.277518	0.000340	20.680423
2223.614755	-2.972000	3.208400	-9.534300	27.262703	0.000338	20.668364
2224.611699	-3.038100	3.205100	-9.736700	27.244178	0.000338	20.679130
2225.613018	-2.991500	3.207300	-9.593000	27.241595	0.000338	20.690757
2226.613486	-3.018700	3.206700	-9.678500	27.211352	0.000336	20.666024
2227.612594	-2.977000	3.207700	-9.548300	27.230483	0.000336	20.660611
2228.616388	-2.994500	3.205400	-9.598100	27.256459	0.000336	20.672990
2229.614251	-2.971300	3.207000	-9.528600	27.257206	0.000336	20.684174
2230.620382	-3.009300	3.204000	-9.640900	27.223541	0.000335	20.666431
2231.614966	-2.997000	3.205100	-9.605000	27.191748	0.000337	20.675705
2232.616688	-2.991700	3.204100	-9.584600	27.201158	0.000335	20.699871
2233.620700	-2.998400	3.203000	-9.603300	27.205021	0.000334	20.691428
2234.617694	-3.013400	3.203600	-9.652900	27.245813	0.000335	20.689784
2235.617776	-2.985500	3.202700	-9.560800	27.236990	0.000334	20.677589
2236.617558	-2.996900	3.202600	-9.596700	27.270703	0.000334	20.676413
2237.620136	-3.023900	3.200800	-9.677700	27.271444	0.000333	20.696600
2238.618515	-2.993100	3.201900	-9.582700	27.311945	0.000333	20.685656
2239.621522	-2.998500	3.201500	-9.598600	27.302437	0.000331	20.686049
2240.619634	-3.024600	3.198600	-9.673900	27.274865	0.000331	20.694350
2241.620559	-3.026300	3.200800	-9.684500	27.274747	0.000331	20.689016
2242.619002	-3.010100	3.199200	-9.627700	27.260924	0.000330	20.698346
2243.618417	-3.006500	3.196700	-9.609800	27.260471	0.000329	20.699787
2244.623589	-2.980300	3.198000	-9.530200	27.280825	0.000328	20.685646
2245.622113	-2.991500	3.198400	-9.567000	27.315057	0.000329	20.686890
2246.622386	-2.987600	3.197800	-9.553000	27.323578	0.000325	20.699256
2247.623662	-3.014100	3.195100	-9.629000	27.381051	0.000327	20.716295
2248.621059	-2.993600	3.195400	-9.564200	27.413860	0.000328	20.678649
2249.623721	-2.977100	3.197500	-9.518400	27.436697	0.000326	20.668906
2250.622120	-3.001200	3.195300	-9.589500	27.414612	0.000324	20.690312
2251.622964	-2.989000	3.194600	-9.547600	27.421449	0.000324	20.689130
2252.621220	-3.011200	3.194100	-9.616500	27.425727	0.000326	20.682527
2253.622692	-3.005400	3.194700	-9.600300	27.439462	0.000323	20.715314
2254.623317	-3.021500	3.192900	-9.645900	27.447786	0.000323	20.723689
2255.624694	-2.994100	3.192700	-9.557600	27.459255	0.000322	20.704881
2256.623017	-3.003000	3.191800	-9.583300	27.516189	0.000322	20.717591
2257.621233	-3.009900	3.192500	-9.608900	27.536116	0.000321	20.719623
2258.622748	-3.003200	3.190800	-9.581400	27.551435	0.000321	20.713224
2259.622233	-2.993800	3.190700	-9.551100	27.548790	0.000322	20.710089
2260.624318	-3.011400	3.190400	-9.606500	27.516432	0.000321	20.713568
2261.624374	-3.007500	3.190800	-9.595700	27.502477	0.000320	20.717546
2262.624697	-3.005600	3.188900	-9.583200	27.489764	0.000318	20.723722
2263.627843	-3.003200	3.189700	-9.578800	27.431158	0.000319	20.724504
2264.625804	-3.008800	3.190200	-9.597400	27.415176	0.000320	20.722650
2265.627367	-3.000300	3.188400	-9.565700	27.360605	0.000318	20.713271
2266.626528	-3.017700	3.186600	-9.615200	27.342578	0.000317	20.717421
2267.626011	-3.007400	3.188400	-9.587200	27.360134	0.000317	20.720857
2268.626972	-3.003100	3.187700	-9.572100	27.376459	0.000316	20.712624
2269.626581	-3.017400	3.186500	-9.614000	27.342240	0.000316	20.716134
2270.628030	-2.995600	3.184600	-9.539100	27.383932	0.000317	20.713978
2271.628751	-3.005700	3.184400	-9.570200	27.367221	0.000316	20.732730
2272.629574	-3.003900	3.184200	-9.564700	27.358419	0.000315	20.728616
2273.627796	-2.983200	3.184900	-9.500600	27.366376	0.000317	20.733777
2274.628816	-2.986900	3.184100	-9.509100	27.354593	0.000319	20.742312
2275.635484	-2.986100	3.185100	-9.509500	27.364228	0.000317	20.728296
2276.629650	-3.003700	3.182900	-9.558000	27.402246	0.000316	20.727187
2277.631107	-3.003600	3.181600	-9.555300	27.458632	0.000316	20.733653
2278.628091	-2.987200	3.181300	-9.501500	27.465433	0.000316	20.727218
2279.629354	-3.000700	3.181400	-9.544500	27.436738	0.000315	20.721109
2280.633559	-2.967900	3.180700	-9.438900	27.438459	0.000316	20.747971
2281.633137	-3.008300	3.179900	-9.565400	27.445853	0.000315	20.745927
2282.629590	-3.003500	3.179100	-9.546700	27.447047	0.000313	20.733852
2283.630230	-3.005900	3.177400	-9.550300	27.491128	0.000312	20.752597
2284.632695	-2.996100	3.179300	-9.524700	27.472632	0.000311	20.754377
2285.633832	-2.997600	3.179200	-9.529000	27.476232	0.000310	20.776965
2286.635011	-3.006700	3.176500	-9.549200	27.484893	0.000309	20.741582
2287.633315	-3.000200	3.177500	-9.532500	27.494197	0.000308	20.780341
2288.638754	-3.007500	3.179100	-9.560100	27.444295	0.000307	20.760482
2289.635502	-3.006000	3.175000	-9.542700	27.405930	0.000305	20.773569
2290.633791	-2.995200	3.174400	-9.507000	27.352603	0.000304	20.743629
2291.639074	-3.000600	3.174600	-9.524400	27.304629	0.000304	20.757485
2292.633965	-2.996900	3.175500	-9.515400	27.310127	0.000304	20.763490
2293.636277	-2.992600	3.175500	-9.502500	27.355653	0.000303	20.781786
2294.635162	-3.012200	3.172000	-9.554300	27.398931	0.000302	20.755147
2295.636086	-2.991100	3.172300	-9.488000	27.389688	0.000301	20.784256
2296.638200	-2.990000	3.172500	-9.484900	27.378885	0.000301	20.769121
2297.640128	-2.995900	3.172600	-9.503300	27.356525	0.000300	20.770809
2298.637918	-3.007200	3.171100	-9.534900	27.339643	0.000300	20.753825
2299.637068	-2.999600	3.171200	-9.512000	27.347472	0.000299	20.768815
2300.636865	-3.016100	3.169000	-9.557500	27.364013	0.000297	20.768384
2301.637642	-2.998400	3.170800	-9.506700	27.403691	0.000297	20.785541
2302.642704	-3.000200	3.167400	-9.501700	27.460242	0.000295	20.771784
2303.639429	-2.993200	3.167800	-9.480600	27.523113	0.000294	20.786200
2304.641951	-3.006900	3.168000	-9.523900	27.553635	0.000295	20.781349
2305.642014	-3.025600	3.167300	-9.581600	27.583648	0.000295	20.766976
2306.641979	-2.993500	3.166900	-9.478400	27.607591	0.000292	20.782058
2307.643210	-2.994600	3.166400	-9.481300	27.607144	0.000292	20.779237
2308.641735	-3.020700	3.163500	-9.554800	27.545852	0.000292	20.753602
2309.645224	-2.990400	3.163900	-9.460100	27.521438	0.000291	20.770765
2310.641417	-3.016600	3.164100	-9.544100	27.504325	0.000288	20.777255
2311.641477	-3.027900	3.164700	-9.581700	27.487800	0.000288	20.785285
2312.647126	-3.011300	3.165500	-9.530100	27.443744	0.000287	20.787429
2313.642437	-3.028800	3.161400	-9.574000	27.398345	0.000289	20.784430
2314.643105	-3.018000	3.160300	-9.536200	27.399606	0.000289	20.775267
2315.643044	-3.015200	3.161800	-9.532200	27.399802	0.000288	20.772145
2316.641145	-3.025300	3.160100	-9.559200	27.442190	0.000287	20.776382
2317.645519	-2.996200	3.159100	-9.465000	27.462707	0.000287	20.786118
2318.646347	-2.979100	3.160700	-9.415100	27.511592	0.000285	20.781721
2319.644150	-3.000200	3.157900	-9.473900	27.554251	0.000285	20.785761
2320.644953	-3.020500	3.157600	-9.536200	27.559208	0.000284	20.770360
2321.643223	-3.002300	3.158200	-9.479800	27.609038	0.000284	20.794893
2322.643555	-3.000200	3.156700	-9.470500	27.642018	0.000283	20.802000
2323.646512	-2.975400	3.156500	-9.390800	27.634282	0.000283	20.789949
2324.645086	-3.011600	3.154400	-9.498300	27.621878	0.000281	20.774622
2325.646060	-2.996600	3.154700	-9.452200	27.557514	0.000282	20.790467
2326.645879	-2.993400	3.154800	-9.443400	27.521006	0.000281	20.782658
2327.644187	-2.989200	3.154100	-9.426600	27.460510	0.000279	20.784382
2328.647354	-3.032600	3.151900	-9.556500	27.438727	0.000282	20.783330
2329.647205	-3.023600	3.152300	-9.530000	27.435746	0.000280	20.785073
2330.648462	-3.015300	3.151200	-9.500400	27.480274	0.000280	20.776765
2331.647127	-3.015100	3.151300	-9.499500	27.512842	0.000280	20.795781
2332.644711	-2.970100	3.151200	-9.357600	27.548334	0.000279	20.791661
2333.646029	-3.016500	3.149300	-9.499100	27.504108	0.000277	20.778933
2334.646923	-2.988900	3.149600	-9.412900	27.494756	0.000276	20.800344
2335.647398	-3.001400	3.149300	-9.450900	27.454745	0.000276	20.779531
2336.648242	-3.015300	3.147700	-9.490000	27.498747	0.000277	20.780177
2337.646002	-3.033500	3.146000	-9.542700	27.503288	0.000276	20.790910
2338.648843	-2.994700	3.147400	-9.424500	27.521766	0.000277	20.791009
2339.648755	-2.985900	3.147200	-9.395300	27.538284	0.000274	20.772067
2340.645286	-2.970300	3.146900	-9.345800	27.532905	0.000275	20.784198
2341.647263	-2.986000	3.144800	-9.389600	27.520082	0.000276	20.782203
2342.645090	-3.003200	3.143100	-9.438200	27.542477	0.000274	20.809476
2343.645965	-2.995100	3.144100	-9.416200	27.538413	0.000271	20.805861
2344.646554	-2.987700	3.143400	-9.390200	27.554833	0.000274	20.819538
2345.651080	-3.014800	3.141800	-9.470900	27.590109	0.000273	20.795762
2346.649055	-3.009900	3.143600	-9.460400	27.562000	0.000270	20.779807
2347.650790	-3.015000	3.140300	-9.466200	27.572594	0.000269	20.787622
2348.650372	-3.008400	3.141700	-9.450900	27.543033	0.000271	20.803872
2349.647697	-3.019600	3.139000	-9.476300	27.531325	0.000270	20.786876
2350.652503	-3.007400	3.138200	-9.436300	27.536863	0.000269	20.796242
2351.648253	-3.011400	3.137700	-9.446500	27.571510	0.000268	20.790799
2352.648358	-2.982300	3.138800	-9.359800	27.623101	0.000270	20.800983
2353.648116	-2.995000	3.137400	-9.395700	27.658772	0.000269	20.792306
2354.647140	-2.994300	3.136700	-9.391800	27.667003	0.000269	20.783519
2355.649707	-3.011000	3.134900	-9.437600	27.675417	0.000269	20.774442
2356.649932	-2.993700	3.134900	-9.383700	27.639409	0.000268	20.791789
2357.650695	-3.003800	3.134400	-9.414100	27.631821	0.000267	20.786998
2358.649880	-2.995200	3.133400	-9.384300	27.598118	0.000266	20.783432
2359.649902	-3.023300	3.131700	-9.466200	27.607096	0.000265	20.796733
2360.656985	-2.996900	3.132100	-9.385200	27.589201	0.000264	20.807650
2361.651197	-2.976200	3.132500	-9.322300	27.606729	0.000264	20.803950
2362.650867	-2.989000	3.132200	-9.361100	27.612242	0.000264	20.783419
2363.652192	-3.010700	3.129700	-9.420900	27.616630	0.000265	20.797318
2364.650675	-3.006500	3.128500	-9.404800	27.635314	0.000264	20.810901
2365.651842	-3.018200	3.127000	-9.436900	27.659596	0.000265	20.806412
2366.655842	-3.000800	3.126800	-9.381400	27.708007	0.000264	20.815772
2367.654548	-3.012700	3.126300	-9.417800	27.701343	0.000262	20.791048
2368.655738	-3.008300	3.126400	-9.404200	27.735892	0.000262	20.800685
2369.652659	-3.000300	3.126500	-9.378100	27.735426	0.000263	20.791681
2370.656098	-2.990100	3.125300	-9.343700	27.728658	0.000263	20.798147
2371.655440	-2.994000	3.124200	-9.352500	27.751397	0.000263	20.797796
2372.656530	-3.015300	3.122200	-9.412600	27.811588	0.000262	20.791515
2373.654206	-2.980900	3.122200	-9.305400	27.818086	0.000260	20.807537
2374.655018	-2.989400	3.122700	-9.334500	27.839538	0.000261	20.800677
2375.655212	-3.010900	3.119100	-9.390600	27.850080	0.000259	20.790898
2376.654462	-2.987900	3.120200	-9.322300	27.872076	0.000259	20.805923
2377.656825	-3.027600	3.117400	-9.435900	27.885468	0.000260	20.810394
2378.655867	-3.005800	3.119000	-9.374100	27.880365	0.000259	20.807154
2379.659075	-2.996600	3.117800	-9.341800	27.858822	0.000261	20.794956
2380.657522	-3.008800	3.116900	-9.375500	27.866391	0.000259	20.811581
2381.654845	-3.005300	3.116600	-9.365400	27.861906	0.000261	20.798533
2382.660803	-2.997800	3.114200	-9.334900	27.901827	0.000261	20.807893
2383.655954	-2.996600	3.114800	-9.332500	27.931953	0.000259	20.813558
2384.655809	-2.992000	3.113600	-9.315100	27.924715	0.000260	20.815282
2385.656553	-2.992200	3.113300	-9.314900	27.933268	0.000260	20.795441
2386.656068	-2.999400	3.111400	-9.330600	27.937013	0.000259	20.799210
2387.656651	-2.985000	3.112000	-9.288300	27.857745	0.000258	20.810941
2388.659047	-3.020100	3.110700	-9.393400	27.817032	0.000259	20.806476
2389.655759	-2.979100	3.109700	-9.262700	27.790152	0.000259	20.814038
2390.657704	-2.984500	3.109000	-9.278300	27.813165	0.000257	20.807800
2391.655805	-2.960600	3.109300	-9.203100	27.829526	0.000259	20.817628
2392.659297	-3.006900	3.106400	-9.338700	27.892705	0.000259	20.823367
2393.659729	-3.013200	3.107700	-9.361900	27.847105	0.000258	20.820146
2394.660679	-2.996200	3.106000	-9.303900	27.868880	0.000256	20.806501
2395.659381	-3.016700	3.104500	-9.363600	27.908820	0.000257	20.813983
2396.657187	-2.996500	3.104000	-9.299000	27.902427	0.000254	20.817979
2397.658362	-2.950800	3.104800	-9.160600	27.874032	0.000254	20.811212
2398.664257	-2.991200	3.102500	-9.278900	27.865772	0.000254	20.809537
2399.660976	-2.998300	3.101000	-9.296300	27.852189	0.000255	20.840910
2400.657222	-2.993700	3.101600	-9.284800	27.840784	0.000253	20.831329
2401.657058	-3.009700	3.100800	-9.330700	27.816726	0.000254	20.795737
2402.657376	-3.012300	3.098500	-9.332200	27.885069	0.000253	20.830380
2403.657054	-3.009600	3.097800	-9.322000	27.927199	0.000254	20.832954
2404.664439	-2.989700	3.097100	-9.258600	27.985808	0.000251	20.838841
2405.657633	-2.974000	3.097800	-9.211000	28.014867	0.000252	20.831107
2406.660508	-2.994400	3.095100	-9.266400	28.069630	0.000252	20.845454
2407.657290	-2.974100	3.094600	-9.202700	28.076151	0.000250	20.847277
2408.658701	-3.012100	3.093700	-9.317700	28.089963	0.000249	20.835103
2409.659863	-3.001200	3.094100	-9.284500	28.107537	0.000251	20.819604
2410.660163	-2.988000	3.092000	-9.237500	28.146294	0.000251	20.819265
2411.660593	-3.020000	3.090900	-9.333700	28.151921	0.000249	20.832042
2412.660240	-2.992500	3.089800	-9.245100	28.185086	0.000249	20.830343
2413.661230	-3.000100	3.088700	-9.265500	28.178418	0.000249	20.826950
2414.660021	-2.971200	3.088300	-9.175100	28.192358	0.000249	20.826759
2415.664325	-2.970100	3.087500	-9.168900	28.193379	0.000249	20.820200
2416.662258	-2.993200	3.085000	-9.232900	28.156123	0.000248	20.857134
2417.669474	-2.980000	3.085900	-9.194800	28.156318	0.000247	20.825564
2418.662070	-3.003700	3.084200	-9.263100	28.111977	0.000248	20.834979
2419.662535	-3.016900	3.083300	-9.300600	28.094378	0.000246	20.828642
2420.666562	-3.007000	3.082000	-9.266700	28.095791	0.000246	20.845237
2421.663279	-3.004200	3.080700	-9.253900	28.111022	0.000247	20.842078
2422.664883	-3.030300	3.080600	-9.333600	28.100960	0.000248	20.847595
2423.663768	-3.020700	3.080300	-9.303800	28.041292	0.000245	20.847274
2424.664073	-3.024900	3.078900	-9.312000	27.966767	0.000246	20.841012
2425.666348	-2.994100	3.077900	-9.214500	27.917799	0.000245	20.843407
2426.668578	-2.989500	3.076700	-9.196800	27.946046	0.000248	20.846233
2427.665653	-3.003000	3.076200	-9.236100	27.943274	0.000247	20.841073
2428.664793	-2.986600	3.076000	-9.185800	27.967721	0.000247	20.841024
2429.666978	-3.017000	3.074800	-9.275800	27.956525	0.000245	20.828807
2430.666254	-2.994400	3.074000	-9.204100	27.997508	0.000246	20.865315
2431.668157	-2.998600	3.072500	-9.212000	28.004359	0.000242	20.848979
2432.666742	-3.011200	3.072000	-9.248900	28.016062	0.000246	20.849853
2433.670615	-2.988100	3.071200	-9.176200	28.067332	0.000245	20.821331
2434.667425	-3.026300	3.069200	-9.287700	28.085384	0.000243	20.839976
2435.668187	-2.989800	3.069100	-9.174900	28.132166	0.000245	20.823061
2436.673764	-2.995400	3.068000	-9.188100	28.175699	0.000244	20.854557
2437.677520	-3.013300	3.065000	-9.234600	28.196055	0.000243	20.846601
2438.669786	-2.976500	3.064600	-9.121300	28.239536	0.000246	20.828263
2439.669848	-3.011300	3.063100	-9.222900	28.258673	0.000242	20.838996
2440.668560	-2.986700	3.064800	-9.152700	28.266709	0.000244	20.865104
2441.668333	-2.986000	3.061900	-9.142400	28.238330	0.000246	20.825153
2442.673555	-2.988700	3.061500	-9.147300	28.165208	0.000243	20.856323
2443.670503	-2.994500	3.060500	-9.162800	28.174933	0.000242	20.846674
2444.671648	-2.988500	3.060500	-9.144700	28.190285	0.000242	20.834155
2445.671080	-2.981300	3.058700	-9.118400	28.210953	0.000242	20.839316
2446.671257	-3.012800	3.056200	-9.206600	28.215412	0.000240	20.835270
2447.672327	-2.970900	3.056000	-9.077500	28.258727	0.000242	20.842369
2448.670987	-3.024000	3.052800	-9.230000	28.274146	0.000241	20.831341
2449.673624	-2.989100	3.053000	-9.124900	28.238452	0.000241	20.844241
2450.670417	-2.992300	3.051900	-9.131200	28.246409	0.000242	20.835183
2451.672990	-3.002600	3.050000	-9.157100	28.184199	0.000241	20.827080
2452.676670	-3.007900	3.049200	-9.171000	28.131846	0.000243	20.832221
2453.673946	-3.005100	3.048600	-9.160700	28.107433	0.000243	20.828982
2454.671754	-2.993100	3.048900	-9.124200	28.055499	0.000241	20.855411
2455.673317	-3.012500	3.047200	-9.178100	28.060215	0.000242	20.837399
2456.674002	-3.013200	3.047000	-9.180000	28.024391	0.000239	20.819357
2457.673025	-2.997200	3.044800	-9.124800	28.046041	0.000241	20.827399
2458.677319	-3.015200	3.042400	-9.171800	28.028857	0.000239	20.811999
2459.677043	-3.019800	3.043500	-9.189600	28.030472	0.000240	20.803667
2460.681491	-3.000000	3.042900	-9.127600	28.024746	0.000240	20.787472
2461.675329	-3.001800	3.039000	-9.122100	28.053589	0.000239	20.812713
2462.676274	-3.003700	3.039800	-9.129200	28.113311	0.000239	20.796967
2463.680568	-3.009000	3.037800	-9.139400	28.150917	0.000239	20.798316
2464.678975	-2.979800	3.038400	-9.052400	28.176675	0.000241	20.812392
2465.677170	-2.979200	3.036600	-9.044400	28.179751	0.000242	20.806955
2466.679300	-2.984600	3.035800	-9.059000	28.142580	0.000241	20.811733
2467.679054	-2.986200	3.034000	-9.059400	28.144953	0.000242	20.807010
2468.676046	-2.968500	3.033200	-9.002700	28.152152	0.000240	20.789128
2469.679046	-2.982700	3.032000	-9.041500	28.133857	0.000240	20.810538
2470.677339	-2.995000	3.029800	-9.073100	28.166386	0.000238	20.815311
2471.678603	-2.968800	3.029400	-8.993000	28.181800	0.000239	20.800483
2472.677317	-3.000300	3.029100	-9.086700	28.208853	0.000240	20.796899
2473.676984	-3.010900	3.024700	-9.105700	28.198669	0.000239	20.788542
2474.679859	-2.979500	3.025100	-9.012400	28.185928	0.000239	20.788992
2475.676752	-2.987900	3.024200	-9.034400	28.164862	0.000239	20.801923
2476.679085	-2.963000	3.024000	-8.959000	28.186723	0.000240	20.807810
2477.678169	-2.994200	3.022300	-9.048200	28.181420	0.000240	20.791566
2478.686739	-2.992700	3.020400	-9.038600	28.170942	0.000240	20.776275
2479.679799	-2.990800	3.019300	-9.029200	28.155895	0.000237	20.784361
2480.678800	-2.993800	3.017400	-9.032100	28.165810	0.000239	20.796239
2481.679585	-2.976700	3.018000	-8.982000	28.170746	0.000239	20.793148
2482.677834	-3.018500	3.015900	-9.103100	28.176233	0.000238	20.788240
2483.679512	-2.981100	3.014700	-8.985400	28.197084	0.000238	20.785050
2484.679768	-2.975300	3.013100	-8.963300	28.221335	0.000238	20.785284
2485.681616	-3.003500	3.010500	-9.041000	28.245654	0.000238	20.790327
2486.679590	-3.001400	3.011000	-9.035100	28.293267	0.000239	20.806024
2487.682900	-3.021000	3.009700	-9.090500	28.280204	0.000237	20.774852
2488.680336	-2.978400	3.009000	-8.961300	28.271592	0.000237	20.773768
2489.679584	-2.986300	3.009100	-8.985200	28.226136	0.000238	20.766884
2490.684390	-3.019000	3.005000	-9.071200	28.158371	0.000237	20.796811
2491.682018	-2.998800	3.004400	-9.008700	28.134155	0.000237	20.771958
2492.684898	-2.992100	3.003900	-8.986100	28.145954	0.000237	20.763447
2493.681698	-3.004400	3.003400	-9.022500	28.160023	0.000235	20.776188
2494.682983	-3.002100	2.999900	-9.005300	28.195419	0.000237	20.763934
2495.685972	-3.002400	2.999000	-9.002800	28.229830	0.000236	20.780086
2496.683530	-3.003500	2.997900	-9.003700	28.245696	0.000237	20.763817
2497.685246	-3.019400	2.996400	-9.046700	28.262833	0.000235	20.774433
2498.682673	-2.988600	2.996100	-8.953700	28.255231	0.000237	20.764407
2499.682340	-3.024400	2.992200	-9.047900	28.264851	0.000237	20.778836
2500.689065	-2.984300	2.992800	-8.931200	28.263683	0.000235	20.793307
2501.686434	-2.991800	2.991900	-8.949900	28.225622	0.000237	20.768262
2502.683451	-2.986700	2.989500	-8.927500	28.227408	0.000237	20.753939
2503.682466	-2.989900	2.989600	-8.937800	28.179100	0.000237	20.768841
2504.683659	-3.002700	2.986700	-8.966400	28.178782	0.000233	20.763779
2505.682896	-2.984500	2.987400	-8.915000	28.188085	0.000235	20.767455
2506.689779	-3.012800	2.984200	-8.990300	28.218875	0.000237	20.768108
2507.683347	-2.991600	2.984100	-8.926200	28.236031	0.000236	20.768311
2508.685016	-3.005600	2.981100	-8.959000	28.245677	0.000239	20.762375
2509.685163	-3.001100	2.980800	-8.945100	28.265560	0.000235	20.752996
2510.683707	-2.993000	2.979600	-8.916200	28.275774	0.000236	20.765177
2511.684799	-2.989100	2.977500	-8.899100	28.311100	0.000236	20.783675
2512.686395	-3.032300	2.976200	-9.023600	28.312965	0.000236	20.770854
2513.685738	-2.999100	2.975000	-8.921300	28.343531	0.000237	20.768440
2514.685219	-2.995600	2.973400	-8.906300	28.355873	0.000235	20.747201
2515.686495	-3.009400	2.971500	-8.941200	28.408918	0.000234	20.748932
2516.690150	-2.993200	2.969400	-8.886900	28.372091	0.000236	20.756894
2517.689011	-3.027700	2.967200	-8.981600	28.351206	0.000238	20.770004
2518.687017	-3.002600	2.968100	-8.910700	28.352852	0.000236	20.732779
2519.689206	-3.000900	2.964700	-8.896000	28.359163	0.000235	20.756204
2520.685499	-3.022100	2.964200	-8.957600	28.337361	0.000236	20.750373
2521.686728	-3.006900	2.962200	-8.904500	28.348668	0.000235	20.758914
2522.687846	-2.976100	2.963200	-8.817000	28.348699	0.000237	20.742823
2523.687317	-2.994600	2.961200	-8.867300	28.330878	0.000235	20.747164
2524.688997	-3.009500	2.959000	-8.903500	28.275964	0.000235	20.750194
2525.687094	-2.969400	2.959300	-8.785100	28.243725	0.000236	20.755194
2526.688187	-3.000900	2.955500	-8.868100	28.201566	0.000235	20.735033
2527.689494	-2.969700	2.954500	-8.772700	28.159104	0.000236	20.740175
2528.689083	-2.983200	2.953200	-8.808900	28.115950	0.000235	20.739879
2529.688180	-2.992900	2.951200	-8.831500	28.101875	0.000238	20.739935
2530.689330	-2.951800	2.950900	-8.709200	28.109246	0.000236	20.741665
2531.688513	-2.987600	2.949900	-8.812100	28.106652	0.000236	20.750434
2532.688550	-3.016200	2.945900	-8.884400	28.106695	0.000237	20.737675
2533.691504	-2.961000	2.947200	-8.724100	28.170934	0.000234	20.738334
2534.689499	-2.986400	2.944300	-8.791100	28.163050	0.000234	20.730870
2535.694026	-2.999200	2.942700	-8.823800	28.212068	0.000233	20.737071
2536.688971	-3.020700	2.940300	-8.878600	28.230692	0.000235	20.731640
2537.688367	-2.997700	2.940400	-8.813400	28.272508	0.000234	20.742447
2538.692722	-2.988200	2.937900	-8.777200	28.246380	0.000236	20.752651
2539.689458	-2.986200	2.936700	-8.769200	28.248594	0.000235	20.725008
2540.689693	-2.980000	2.935800	-8.747600	28.281633	0.000234	20.731246
2541.689861	-3.011600	2.933900	-8.834700	28.329374	0.000235	20.740908
2542.689893	-2.982300	2.932400	-8.744900	28.355726	0.000235	20.727138
2543.690103	-3.014900	2.928400	-8.827600	28.378458	0.000236	20.718258
2544.692765	-2.998300	2.927900	-8.778500	28.377614	0.000235	20.711718
2545.690372	-2.994200	2.926400	-8.761000	28.379877	0.000237	20.714471
2546.688632	-2.993800	2.924900	-8.755900	28.406515	0.000233	20.728019
2547.689634	-3.022100	2.922700	-8.830600	28.411236	0.000238	20.715703
2548.689294	-2.969000	2.922600	-8.676400	28.424598	0.000236	20.726314
2549.692315	-2.987100	2.920700	-8.723700	28.465716	0.000233	20.720777
2550.689301	-3.011400	2.917800	-8.785600	28.452159	0.000234	20.722773
2551.690594	-2.999900	2.916100	-8.747500	28.426585	0.000233	20.722625
2552.690491	-2.999600	2.915500	-8.744800	28.450165	0.000233	20.736413
2553.692382	-3.005900	2.913300	-8.756300	28.462450	0.000234	20.729818
2554.691920	-3.008200	2.911600	-8.757600	28.441886	0.000232	20.724282
2555.695176	-3.031900	2.909900	-8.820900	28.405311	0.000234	20.729177
2556.692863	-3.006900	2.908900	-8.745600	28.379828	0.000235	20.723906
2557.695035	-3.017900	2.907000	-8.771100	28.399238	0.000234	20.735865
2558.690986	-2.987000	2.905800	-8.678700	28.391240	0.000234	20.724491
2559.691955	-2.958500	2.905300	-8.593400	28.392726	0.000236	20.716030
2560.690955	-3.006700	2.902600	-8.726500	28.406161	0.000233	20.705376
2561.692914	-2.993600	2.902000	-8.686000	28.389038	0.000234	20.707574
2562.692274	-2.998200	2.898700	-8.689800	28.334439	0.000235	20.713763
2563.692243	-2.971600	2.896600	-8.606600	28.261690	0.000235	20.703103
2564.696002	-3.010600	2.894500	-8.712600	28.249085	0.000232	20.714595
2565.693974	-3.000500	2.891900	-8.676100	28.196931	0.000234	20.720883
2566.693470	-2.985400	2.892300	-8.633900	28.163919	0.000233	20.710407
2567.694160	-2.979600	2.888900	-8.607100	28.111296	0.000234	20.727607
2568.693861	-2.984100	2.887500	-8.615900	28.088884	0.000232	20.696508
2569.693194	-3.010600	2.884500	-8.682800	28.119028	0.000234	20.706940
2570.698435	-3.005500	2.884600	-8.668400	28.137728	0.000233	20.712963
2571.694304	-3.011700	2.881800	-8.677700	28.181823	0.000233	20.726536
2572.696157	-3.003100	2.878300	-8.642300	28.229641	0.000233	20.722995
2573.696448	-3.016100	2.877900	-8.678500	28.264669	0.000232	20.720329
2574.696970	-3.022900	2.875600	-8.691100	28.327296	0.000235	20.713210
2575.701968	-2.995400	2.874500	-8.608500	28.337962	0.000234	20.713992
2576.699762	-3.005500	2.871500	-8.629600	28.291861	0.000233	20.714989
2577.696843	-3.006900	2.869900	-8.628200	28.271146	0.000233	20.688915
2578.696783	-3.028500	2.867900	-8.684700	28.207219	0.000233	20.693306
2579.698113	-3.000700	2.866400	-8.600100	28.151894	0.000232	20.707784
2580.697967	-2.987400	2.863600	-8.553400	28.113052	0.000232	20.697131
2581.707947	-3.019300	2.860800	-8.636900	28.089753	0.000232	20.707341
2582.704860	-2.999300	2.861800	-8.582700	28.062929	0.000233	20.704046
2583.700235	-3.013700	2.858800	-8.615200	28.064990	0.000232	20.702328
2584.700435	-2.987000	2.858400	-8.537300	28.094885	0.000233	20.696385
2585.699080	-3.005800	2.855300	-8.582000	28.148708	0.000233	20.681341
2586.700868	-2.997000	2.852500	-8.548200	28.197115	0.000234	20.696410
2587.704045	-2.991400	2.850200	-8.525100	28.197941	0.000231	20.708148
2588.698990	-2.991000	2.848000	-8.517000	28.205134	0.000234	20.705907
2589.699416	-3.010400	2.847300	-8.570200	28.260333	0.000231	20.706953
2590.699616	-2.990900	2.845000	-8.508600	28.270351	0.000232	20.697599
2591.700042	-3.002700	2.841900	-8.532700	28.284033	0.000231	20.705685
2592.705122	-3.016800	2.839500	-8.565300	28.294027	0.000232	20.701522
2593.699889	-3.002400	2.837800	-8.519400	28.282651	0.000233	20.691490
2594.703042	-3.002900	2.835300	-8.513400	28.335003	0.000233	20.709590
2595.699229	-3.025900	2.832500	-8.568900	28.351533	0.000233	20.719597
2596.699898	-2.980400	2.831900	-8.439400	28.443379	0.000233	20.674099
2597.700847	-3.019400	2.829400	-8.541400	28.490562	0.000232	20.709288
2598.700701	-3.050200	2.825700	-8.618000	28.536587	0.000232	20.699213
2599.699571	-2.992300	2.825400	-8.453500	28.558893	0.000231	20.685640
2600.701400	-3.000500	2.823100	-8.469800	28.584420	0.000233	20.713248
2601.701446	-2.979000	2.821200	-8.402500	28.636238	0.000233	20.700002
2602.701581	-2.951800	2.819400	-8.320200	28.636653	0.000234	20.696152
2603.704575	-3.001700	2.816200	-8.452200	28.627611	0.000231	20.709806
2604.701221	-3.011600	2.814300	-8.474900	28.670604	0.000233	20.693363
2605.701331	-2.975500	2.812300	-8.366400	28.674639	0.000231	20.706911
2606.702244	-3.026200	2.808400	-8.498100	28.691121	0.000231	20.689847
2607.701674	-3.022300	2.804800	-8.476600	28.680123	0.000234	20.693942
2608.708459	-3.003200	2.803400	-8.418100	28.672468	0.000231	20.685283
2609.702569	-3.021200	2.800700	-8.460200	28.646803	0.000232	20.686460
2610.703377	-3.026200	2.798500	-8.467100	28.609862	0.000231	20.673435
2611.703157	-2.988100	2.796700	-8.355400	28.571086	0.000234	20.693653
2612.704063	-2.998900	2.793700	-8.376400	28.511683	0.000232	20.678872
2613.706493	-2.996700	2.791500	-8.364400	28.502028	0.000231	20.702342
2614.707121	-3.016400	2.789200	-8.412100	28.496849	0.000230	20.683849
2615.703399	-2.999200	2.785900	-8.353200	28.520122	0.000232	20.663661
2616.702784	-2.985800	2.784400	-8.312600	28.499259	0.000230	20.691966
2617.703026	-2.984000	2.782100	-8.300200	28.496189	0.000231	20.689823
2618.704158	-3.004400	2.777600	-8.344300	28.529820	0.000232	20.691923
2619.705538	-2.978400	2.776300	-8.267500	28.548848	0.000232	20.663193
2620.704470	-3.005000	2.774200	-8.335400	28.559555	0.000230	20.671606
2621.708123	-2.995900	2.769800	-8.296900	28.600771	0.000231	20.698894
2622.706897	-3.023900	2.765400	-8.361500	28.574034	0.000232	20.667221
2623.705061	-3.017700	2.762700	-8.336000	28.560038	0.000233	20.683000
2624.710669	-2.993900	2.761400	-8.266400	28.580778	0.000233	20.673066
2625.705070	-3.006900	2.758600	-8.293900	28.614999	0.000232	20.690938
2626.704766	-3.018700	2.754800	-8.314000	28.624268	0.000232	20.693635
2627.705441	-2.999600	2.752000	-8.253300	28.633194	0.000230	20.669907
2628.707781	-2.987500	2.748500	-8.210100	28.650313	0.000231	20.671976
2629.706375	-2.976400	2.746900	-8.174800	28.683548	0.000234	20.692650
2630.708974	-3.005600	2.741800	-8.238500	28.684912	0.000233	20.660355
2631.706138	-3.010100	2.739600	-8.245700	28.675851	0.000233	20.671145
2632.706486	-3.015700	2.734800	-8.246400	28.672061	0.000232	20.665905
2633.707239	-2.994100	2.733000	-8.182100	28.628805	0.000231	20.672125
2634.708225	-2.999300	2.728200	-8.181700	28.567658	0.000231	20.672655
2635.712320	-2.980700	2.726300	-8.125500	28.553185	0.000232	20.677994
2636.707778	-3.031200	2.722800	-8.252200	28.517476	0.000233	20.675223
2637.711177	-2.996900	2.719600	-8.149500	28.508959	0.000233	20.678025
2638.709428	-3.026500	2.716500	-8.220200	28.517984	0.000231	20.670044
2639.710139	-3.044900	2.710900	-8.253600	28.539544	0.000231	20.651925
2640.712896	-2.987000	2.710500	-8.095000	28.548758	0.000234	20.666897
2641.712051	-2.996800	2.705300	-8.106200	28.597679	0.000232	20.672070
2642.710687	-2.977500	2.703500	-8.048300	28.574091	0.000231	20.643094
2643.712368	-2.996800	2.699400	-8.088600	28.588521	0.000232	20.668536
2644.712451	-2.945500	2.696800	-7.942100	28.601660	0.000233	20.670864
2645.713180	-2.971800	2.693000	-8.002100	28.591254	0.000230	20.665598
2646.716916	-3.030300	2.686700	-8.139800	28.540927	0.000233	20.667544
2647.717570	-2.987900	2.685400	-8.022500	28.564694	0.000232	20.663504
2648.719457	-2.986200	2.681200	-8.005600	28.554807	0.000232	20.662082
2649.714449	-3.041400	2.674900	-8.134600	28.609279	0.000231	20.668579
2650.715317	-2.974800	2.672500	-7.948600	28.692360	0.000231	20.668333
2651.718579	-2.996900	2.670200	-8.001500	28.739117	0.000233	20.678446
2652.715555	-3.003700	2.664300	-8.001100	28.797216	0.000232	20.668216
2653.718007	-3.012200	2.659900	-8.011200	28.847330	0.000232	20.671283
2654.717160	-3.026200	2.655800	-8.035600	28.852110	0.000231	20.669935
2655.716699	-2.985500	2.652300	-7.917300	28.902600	0.000234	20.679074
2656.717265	-3.014200	2.647300	-7.977300	28.923235	0.000231	20.676155
2657.716015	-2.986400	2.643000	-7.891800	28.883034	0.000234	20.677855
2658.717543	-2.973000	2.639100	-7.844000	28.838418	0.000232	20.688860
2659.717886	-2.992900	2.634200	-7.882800	28.855839	0.000232	20.654249
2660.718607	-2.997100	2.630100	-7.882300	28.856456	0.000233	20.662933
2661.720799	-2.989200	2.626000	-7.849200	28.859507	0.000231	20.683552
2662.722323	-3.045700	2.619100	-7.976700	28.873987	0.000233	20.684389
2663.721087	-3.006800	2.615600	-7.863300	28.829450	0.000234	20.665599
2664.721922	-3.009000	2.610300	-7.853500	28.828833	0.000232	20.672090
2665.721437	-3.004400	2.605700	-7.826600	28.863535	0.000233	20.681919
2666.721149	-2.996200	2.598500	-7.784600	28.920711	0.000234	20.666024
2667.724261	-2.977300	2.595000	-7.725000	28.945759	0.000231	20.688891
2668.721866	-2.975900	2.590400	-7.707800	28.933443	0.000233	20.661781
2669.721982	-3.010400	2.583200	-7.775100	28.867868	0.000233	20.662101
2670.721658	-3.015200	2.578400	-7.773300	28.835838	0.000233	20.673932
2671.727440	-3.063400	2.571900	-7.876000	28.813844	0.000234	20.662206
2672.725556	-2.999100	2.568700	-7.703300	28.778492	0.000233	20.650301
2673.725449	-2.993400	2.562500	-7.668700	28.826675	0.000233	20.674184
2674.724094	-3.017400	2.555200	-7.708600	28.850380	0.000233	20.679573
2675.724518	-2.989500	2.552100	-7.628400	28.870754	0.000234	20.682080
2676.725937	-2.968900	2.547100	-7.561000	28.948381	0.000233	20.668771
2677.724329	-3.015500	2.539800	-7.656900	29.001959	0.000235	20.679604
2678.726646	-3.009500	2.533000	-7.622600	29.016077	0.000234	20.676284
2679.725039	-2.973600	2.529600	-7.520500	29.039809	0.000232	20.679333
2680.727691	-3.008900	2.520900	-7.584200	29.056927	0.000233	20.670976
2681.723874	-2.955800	2.517600	-7.440600	29.041997	0.000234	20.673477
2682.725101	-3.002300	2.508600	-7.530500	29.082791	0.000234	20.691349
2683.725923	-3.005000	2.503200	-7.521200	29.105128	0.000233	20.683509
2684.724538	-3.014400	2.495600	-7.521400	29.157286	0.000232	20.681064
