LabVIEW Measurement	
Writer_Version	2
Reader_Version	2
Separator	Tab
Decimal_Separator	.
Multi_Headings	No
X_Columns	One
Time_Pref	Absolute
Operator	admin
Description	Clolumns are: time, Current, Voltage, Power, Battery Temp, and Chamber Temp
Date	2024/08/16
Time	13:06:06.104549407958984375
***End_of_Header***	
	
Channels	6						
Samples	1	1	1	1	1	1	
Date	2024/09/15	2024/09/15	2024/09/15	2024/09/15	2024/09/15	2024/09/15	
Time	03:44:00.5829982757568359375	03:44:00.5887122154235839844	03:44:00.5947318077087402344	03:44:00.5658745765686035156	03:44:00.5658745765686035156	03:44:00.5658745765686035156	
X_Dimension	Time	Time	Time	Time	Time	Time	
X0	0.0000000000000000E+0	0.0000000000000000E+0	0.0000000000000000E+0	0.0000000000000000E+0	0.0000000000000000E+0	0.0000000000000000E+0	
Delta_X	1.000000	1.000000	1.000000	1.000000	1.000000	1.000000	
***End_of_Header***							
X_Value	Untitled	Untitled 1	Untitled 2	Untitled 3	Untitled 4	Untitled 5	Comment
0.000000	0.019428	4.091600	0.079468	21.024402	0.000937	20.737560
0.999766	-2.986400	3.912200	-11.683000	21.018864	0.000937	20.757152
2.000724	-2.992500	3.904600	-11.684000	21.013351	0.000934	20.756380
3.002745	-3.002800	3.898500	-11.705000	21.011926	0.000935	20.749738
4.005267	-2.975900	3.896400	-11.595000	21.003888	0.000935	20.745966
5.008856	-2.993400	3.892000	-11.649000	21.018893	0.000935	20.746275
6.006441	-3.007800	3.888400	-11.695000	21.016867	0.000933	20.742826
7.008730	-2.987800	3.887400	-11.612000	21.000103	0.000932	20.752137
8.004750	-2.959300	3.886500	-11.500000	20.998181	0.000932	20.744525
9.009535	-2.988400	3.883100	-11.603000	21.016271	0.000930	20.759300
10.002415	-2.993800	3.880900	-11.617000	21.014278	0.000929	20.750668
11.009345	-2.988800	3.879200	-11.593000	21.060387	0.000930	20.768338
12.008201	-2.987300	3.877800	-11.583000	21.047836	0.000928	20.758628
13.006535	-2.999900	3.875300	-11.624000	21.033295	0.000928	20.732703
14.007286	-3.012100	3.873800	-11.667000	21.035762	0.000929	20.741810
15.008430	-3.003800	3.872500	-11.631000	21.042804	0.000927	20.757864
16.004487	-2.984600	3.872800	-11.557000	21.050364	0.000927	20.757838
17.010361	-3.011000	3.870300	-11.651000	21.070026	0.000927	20.745262
18.005066	-3.007100	3.868500	-11.632000	21.031951	0.000927	20.755069
19.003436	-2.993900	3.867600	-11.577000	21.062618	0.000926	20.746861
20.007823	-2.980500	3.868900	-11.529000	21.057080	0.000925	20.744167
21.012034	-2.998900	3.866100	-11.593000	21.053539	0.000926	20.752953
22.003882	-3.015200	3.866500	-11.657000	21.072005	0.000924	20.734913
23.005137	-2.996900	3.865700	-11.585000	21.086252	0.000926	20.748215
24.013935	-3.020600	3.863200	-11.667000	21.089221	0.000924	20.741702
25.003933	-2.991400	3.865100	-11.561000	21.077324	0.000923	20.751613
26.004644	-2.984400	3.862600	-11.527000	21.089624	0.000920	20.738786
27.010914	-3.004300	3.862400	-11.603000	21.096982	0.000922	20.751362
28.005841	-3.005200	3.861000	-11.602000	21.092791	0.000920	20.759972
29.007936	-3.012200	3.860700	-11.627000	21.129417	0.000921	20.724535
30.002199	-2.992500	3.860200	-11.551000	21.102548	0.000921	20.743653
31.019410	-2.994100	3.860100	-11.557000	21.110833	0.000922	20.745776
32.005855	-2.983500	3.859600	-11.514000	21.130641	0.000921	20.734295
33.003219	-2.972400	3.859300	-11.471000	21.145763	0.000918	20.752267
34.003223	-3.006500	3.856600	-11.593000	21.152823	0.000919	20.733250
35.005266	-3.009200	3.856400	-11.603000	21.156091	0.000921	20.727510
36.003788	-2.988600	3.856600	-11.524000	21.152252	0.000919	20.740740
37.004252	-3.015600	3.854900	-11.623000	21.167991	0.000919	20.728034
38.004869	-2.975800	3.856100	-11.474000	21.179996	0.000918	20.719653
39.004901	-2.982400	3.856400	-11.500000	21.191691	0.000918	20.744156
40.024495	-2.990600	3.855200	-11.528000	21.199002	0.000919	20.737719
41.005375	-2.996900	3.854100	-11.549000	21.187278	0.000919	20.751121
42.013295	-2.991700	3.854200	-11.528000	21.199753	0.000918	20.744160
43.016631	-2.979600	3.853400	-11.481000	21.213821	0.000918	20.754915
44.009610	-2.986800	3.852700	-11.507000	21.218288	0.000917	20.760332
45.007612	-2.991700	3.852600	-11.524000	21.217814	0.000917	20.738520
46.009343	-2.993700	3.852300	-11.530000	21.262070	0.000917	20.736799
47.007897	-2.998800	3.852100	-11.550000	21.238468	0.000916	20.743061
48.008705	-3.011200	3.851600	-11.595000	21.241761	0.000917	20.757735
49.010592	-3.000500	3.849500	-11.549000	21.251861	0.000917	20.746028
50.006975	-3.007600	3.850900	-11.580000	21.255757	0.000916	20.752296
51.012682	-2.996300	3.849200	-11.530000	21.260896	0.000917	20.731831
52.009482	-2.988100	3.849400	-11.502000	21.286062	0.000917	20.758432
53.009778	-3.003900	3.848100	-11.557000	21.283046	0.000917	20.746879
54.009586	-2.989200	3.848200	-11.501000	21.268299	0.000918	20.733548
55.018523	-3.011700	3.848300	-11.589000	21.290378	0.000916	20.725290
56.009511	-2.993700	3.848400	-11.520000	21.269046	0.000917	20.756107
57.011423	-2.991600	3.847700	-11.509000	21.294866	0.000918	20.757756
58.016650	-2.979100	3.847900	-11.461000	21.307440	0.000917	20.757059
59.012266	-3.002400	3.845900	-11.546000	21.311454	0.000918	20.760127
60.013663	-2.985800	3.847400	-11.485000	21.317641	0.000916	20.744979
61.011139	-3.011500	3.846100	-11.582000	21.330961	0.000918	20.762099
62.015110	-3.013400	3.845200	-11.586000	21.341262	0.000917	20.770034
63.015428	-2.994100	3.845600	-11.513000	21.353609	0.000916	20.748722
64.022099	-2.990300	3.846000	-11.499000	21.363612	0.000917	20.747824
65.016671	-2.987300	3.846100	-11.488000	21.344554	0.000918	20.756732
66.011895	-3.015700	3.843800	-11.591000	21.373065	0.000917	20.739263
67.010420	-2.997400	3.845200	-11.524000	21.367252	0.000920	20.749095
68.026717	-2.986100	3.845700	-11.482000	21.388180	0.000916	20.741110
69.015839	-3.002600	3.843500	-11.539000	21.408131	0.000917	20.750166
70.010399	-2.991500	3.844700	-11.500000	21.401554	0.000917	20.758284
71.010271	-2.992600	3.844000	-11.502000	21.386708	0.000917	20.747698
72.012145	-2.993000	3.843100	-11.501000	21.412525	0.000918	20.758356
73.020518	-3.001800	3.841800	-11.531000	21.404566	0.000918	20.768885
74.020738	-3.007400	3.843500	-11.558000	21.452928	0.000916	20.755159
75.012736	-3.009800	3.841400	-11.561000	21.453650	0.000918	20.753036
76.014829	-2.993600	3.842000	-11.501000	21.463680	0.000918	20.758805
77.017739	-3.008100	3.839600	-11.549000	21.455125	0.000918	20.732700
78.017347	-3.013400	3.841200	-11.574000	21.459017	0.000920	20.743707
79.014788	-3.004600	3.839700	-11.536000	21.477599	0.000917	20.746179
80.015890	-3.002200	3.839700	-11.527000	21.459520	0.000919	20.749900
81.021017	-3.007200	3.839300	-11.544000	21.498499	0.000919	20.779421
82.016640	-3.001100	3.840600	-11.525000	21.504161	0.000918	20.736246
83.021091	-3.020700	3.839800	-11.596000	21.502667	0.000918	20.755141
84.016941	-3.000200	3.839200	-11.518000	21.516610	0.000918	20.768145
85.017257	-3.001600	3.838700	-11.520000	21.508903	0.000919	20.759484
86.015283	-2.980300	3.839800	-11.443000	21.517910	0.000920	20.757117
87.020074	-3.004100	3.838900	-11.531000	21.511972	0.000919	20.762081
88.015278	-2.998400	3.838500	-11.509000	21.520703	0.000919	20.764179
89.016074	-3.010800	3.838200	-11.555000	21.526192	0.000921	20.752128
90.024244	-2.988600	3.838900	-11.472000	21.536394	0.000919	20.763285
91.019824	-2.994300	3.837400	-11.489000	21.563877	0.000920	20.767552
92.024829	-2.991700	3.837800	-11.480000	21.555897	0.000919	20.758145
93.021461	-3.015000	3.836900	-11.566000	21.561784	0.000920	20.761191
94.032363	-3.005800	3.836600	-11.531000	21.580964	0.000920	20.762366
95.021360	-2.988200	3.837100	-11.465000	21.595376	0.000920	20.768253
96.024639	-3.014200	3.835500	-11.560000	21.603535	0.000920	20.759822
97.019863	-3.014900	3.835500	-11.563000	21.612563	0.000920	20.766486
98.025665	-2.987100	3.836500	-11.458000	21.598198	0.000921	20.761593
99.018492	-2.993300	3.834700	-11.478000	21.610068	0.000922	20.761618
100.022050	-3.008500	3.834400	-11.535000	21.617427	0.000921	20.755232
101.018907	-3.014400	3.834600	-11.558000	21.643235	0.000920	20.772524
102.021355	-3.003000	3.834600	-11.513000	21.667722	0.000921	20.770002
103.018635	-2.988800	3.834700	-11.459000	21.659424	0.000922	20.745102
104.031138	-2.997200	3.833100	-11.488000	21.685705	0.000921	20.769981
105.032351	-2.994400	3.834900	-11.482000	21.685730	0.000921	20.779015
106.019739	-2.993100	3.833700	-11.473000	21.696627	0.000923	20.785179
107.022257	-3.005800	3.833600	-11.522000	21.676326	0.000923	20.754430
108.026867	-2.980500	3.834200	-11.426000	21.704035	0.000922	20.773627
109.032861	-3.011500	3.832200	-11.540000	21.699721	0.000921	20.765516
110.019135	-2.975500	3.833300	-11.406000	21.718195	0.000923	20.783531
111.023687	-2.999600	3.833400	-11.498000	21.714103	0.000925	20.782280
112.022643	-3.005500	3.832100	-11.517000	21.743204	0.000922	20.791016
113.029727	-2.966100	3.833400	-11.369000	21.755949	0.000924	20.767262
114.030455	-2.994400	3.831100	-11.471000	21.753006	0.000923	20.767635
115.023870	-2.983000	3.832100	-11.429000	21.758214	0.000925	20.793710
116.034698	-3.012100	3.831200	-11.539000	21.781675	0.000924	20.788743
117.028192	-3.000400	3.830000	-11.490000	21.796713	0.000926	20.798104
118.024334	-2.996500	3.831400	-11.479000	21.812397	0.000926	20.776817
119.021954	-3.017400	3.829900	-11.556000	21.827879	0.000926	20.770028
120.027826	-3.000100	3.829700	-11.488000	21.816707	0.000925	20.791088
121.019917	-3.011800	3.829000	-11.531000	21.840343	0.000926	20.788193
122.025618	-2.974800	3.830300	-11.393000	21.839668	0.000927	20.782776
123.029430	-3.002700	3.830500	-11.500000	21.834432	0.000925	20.789863
124.020482	-3.020100	3.829100	-11.563000	21.839819	0.000927	20.792884
125.025213	-2.992300	3.829600	-11.459000	21.862378	0.000927	20.775635
126.026381	-2.995500	3.829500	-11.470000	21.867019	0.000927	20.781228
127.032680	-2.967200	3.830400	-11.365000	21.882726	0.000929	20.780355
128.023942	-2.992100	3.829000	-11.455000	21.881305	0.000927	20.783200
129.031118	-3.017800	3.827000	-11.548000	21.889430	0.000928	20.778056
130.025228	-3.000600	3.827100	-11.483000	21.891124	0.000929	20.793028
131.023425	-3.000700	3.826600	-11.481000	21.910567	0.000930	20.775505
132.030210	-3.015100	3.826300	-11.534000	21.910567	0.000929	20.782143
133.025142	-2.990000	3.826600	-11.441000	21.912487	0.000930	20.787859
134.027460	-3.003600	3.826700	-11.492000	21.927598	0.000929	20.781648
135.036579	-2.995600	3.827700	-11.465000	21.917924	0.000932	20.790930
136.030558	-2.998200	3.826600	-11.472000	21.944852	0.000930	20.792281
137.027048	-3.018400	3.824900	-11.542000	21.934201	0.000932	20.816232
138.042025	-3.008700	3.825200	-11.508000	21.956590	0.000933	20.805927
139.027141	-3.001500	3.824400	-11.478000	21.945544	0.000932	20.769266
140.026519	-2.986200	3.826200	-11.425000	21.939537	0.000932	20.773684
141.034146	-3.013000	3.824700	-11.522000	21.954046	0.000934	20.777301
142.035992	-3.001700	3.824500	-11.479000	21.985685	0.000934	20.790481
143.028417	-3.008400	3.824200	-11.503000	21.995753	0.000935	20.794396
144.031006	-2.993100	3.823400	-11.442000	22.004326	0.000933	20.784011
145.032789	-3.005200	3.824400	-11.492000	22.024894	0.000935	20.794644
146.027535	-2.997900	3.823300	-11.460000	22.025020	0.000934	20.806149
147.029969	-3.004500	3.822600	-11.483000	22.036857	0.000933	20.812310
148.026933	-3.006300	3.823700	-11.494000	22.028130	0.000935	20.808315
149.030152	-2.994200	3.822200	-11.443000	22.042595	0.000936	20.800036
150.031262	-2.986900	3.822200	-11.416000	22.048526	0.000936	20.792697
151.034958	-2.996200	3.821400	-11.448000	22.072807	0.000936	20.793771
152.032211	-3.014400	3.820700	-11.516000	22.070837	0.000939	20.808868
153.033528	-2.985800	3.823100	-11.412000	22.089933	0.000938	20.810442
154.034070	-3.001400	3.821500	-11.469000	22.101077	0.000936	20.821125
155.029898	-2.995100	3.821300	-11.445000	22.074001	0.000939	20.824364
156.042249	-2.985800	3.823300	-11.415000	22.093273	0.000939	20.803829
157.031896	-2.989400	3.821100	-11.421000	22.076323	0.000941	20.814835
158.032208	-2.981800	3.820600	-11.392000	22.088935	0.000939	20.810391
159.043416	-2.982900	3.820800	-11.396000	22.085695	0.000940	20.804303
160.033232	-2.994400	3.820600	-11.438000	22.089061	0.000940	20.821897
161.039723	-3.005600	3.821100	-11.483000	22.098139	0.000940	20.826243
162.037206	-2.994700	3.819700	-11.438000	22.120567	0.000942	20.806024
163.033347	-3.023500	3.819800	-11.548000	22.116207	0.000943	20.818729
164.035811	-2.998400	3.821200	-11.457000	22.163245	0.000942	20.810345
165.036050	-3.012600	3.820400	-11.508000	22.142955	0.000943	20.801886
166.042515	-3.005900	3.819900	-11.481000	22.167754	0.000941	20.812963
167.032692	-2.997700	3.819000	-11.447000	22.185428	0.000944	20.809321
168.039950	-3.005500	3.818000	-11.474000	22.187171	0.000943	20.811067
169.036309	-2.991400	3.820400	-11.427000	22.172989	0.000943	20.822471
170.036022	-3.031400	3.816200	-11.568000	22.193173	0.000944	20.830352
171.035990	-2.990800	3.817700	-11.416000	22.198663	0.000944	20.817831
172.037881	-2.993100	3.819800	-11.431000	22.219349	0.000948	20.797291
173.036174	-3.012000	3.817500	-11.498000	22.220921	0.000945	20.824469
174.038543	-3.023700	3.815500	-11.535000	22.212770	0.000947	20.817256
175.039881	-2.988400	3.816800	-11.405000	22.240638	0.000946	20.829038
176.034278	-3.000700	3.817200	-11.453000	22.245747	0.000948	20.821825
177.037907	-3.009000	3.816900	-11.484000	22.256161	0.000947	20.826563
178.039811	-2.988400	3.816600	-11.404000	22.246070	0.000947	20.824993
179.038593	-2.994300	3.814600	-11.422000	22.266185	0.000948	20.818107
180.055187	-2.994500	3.816200	-11.427000	22.261421	0.000949	20.829458
181.040766	-2.984900	3.816300	-11.390000	22.273661	0.000949	20.820377
182.040158	-3.000300	3.816100	-11.448000	22.274386	0.000950	20.821103
183.038777	-3.011800	3.815900	-11.491000	22.274784	0.000951	20.816760
184.037467	-3.036800	3.813100	-11.578000	22.282314	0.000950	20.814817
185.036479	-2.989400	3.815000	-11.403000	22.290913	0.000952	20.838600
186.037890	-3.002700	3.813500	-11.450000	22.288122	0.000953	20.836753
187.037397	-3.002800	3.815300	-11.455000	22.287175	0.000953	20.821581
188.036783	-2.990500	3.815500	-11.408000	22.290867	0.000954	20.813898
189.043732	-3.007000	3.814300	-11.468000	22.317058	0.000955	20.819735
190.043399	-3.013600	3.811900	-11.486000	22.335999	0.000954	20.832062
191.050351	-2.995800	3.813400	-11.423000	22.320301	0.000954	20.831991
192.047455	-3.021900	3.812200	-11.519000	22.325657	0.000955	20.832612
193.040164	-2.989900	3.812100	-11.396000	22.331066	0.000954	20.846563
194.051535	-2.992100	3.813100	-11.408000	22.348038	0.000955	20.831789
195.042388	-3.005100	3.811100	-11.451000	22.366651	0.000954	20.832411
196.045675	-2.990700	3.812300	-11.399000	22.337767	0.000957	20.835730
197.037536	-3.004500	3.813400	-11.456000	22.353070	0.000955	20.843467
198.038478	-3.019700	3.811300	-11.506000	22.339192	0.000955	20.854225
199.039163	-2.985100	3.813200	-11.382000	22.355987	0.000958	20.845913
200.041554	-2.997000	3.811300	-11.421000	22.367674	0.000958	20.837702
201.039248	-2.981800	3.811200	-11.363000	22.399725	0.000958	20.866002
202.053458	-3.033500	3.808000	-11.550000	22.405105	0.000958	20.845787
203.040528	-3.009900	3.811400	-11.469000	22.400295	0.000959	20.832436
204.042332	-2.997500	3.811900	-11.425000	22.416666	0.000961	20.837924
205.043398	-3.027000	3.809700	-11.530000	22.407221	0.000962	20.842217
206.044494	-3.012200	3.809900	-11.474000	22.431168	0.000963	20.838222
207.039346	-2.992000	3.810500	-11.399000	22.436703	0.000961	20.841868
208.039880	-3.006800	3.808700	-11.451000	22.420379	0.000961	20.853021
209.042387	-3.003900	3.808600	-11.440000	22.436703	0.000962	20.848506
210.043931	-3.000900	3.809300	-11.430000	22.467131	0.000963	20.855744
211.052982	-2.992000	3.811100	-11.402000	22.450782	0.000965	20.870190
212.045595	-3.015000	3.807800	-11.480000	22.472339	0.000965	20.853847
213.052247	-2.978800	3.811000	-11.350000	22.499745	0.000964	20.847156
214.048160	-2.994300	3.809100	-11.405000	22.486861	0.000965	20.838520
215.044478	-3.000100	3.808200	-11.423000	22.515918	0.000964	20.852921
216.044927	-2.987600	3.808000	-11.375000	22.536673	0.000966	20.864698
217.041794	-2.983900	3.807400	-11.360000	22.539213	0.000967	20.844483
218.045418	-2.986500	3.809700	-11.376000	22.543553	0.000967	20.867320
219.050445	-2.988700	3.808700	-11.382000	22.542254	0.000969	20.863649
220.047876	-3.007000	3.807000	-11.446000	22.565226	0.000967	20.839242
221.048244	-3.018600	3.805800	-11.487000	22.564179	0.000969	20.863323
222.049491	-3.023400	3.804900	-11.502000	22.565075	0.000969	20.862798
223.045208	-3.007400	3.804700	-11.441000	22.588495	0.000969	20.849271
224.052159	-2.976000	3.805000	-11.323000	22.606359	0.000971	20.851990
225.047260	-3.002600	3.805800	-11.425000	22.585282	0.000971	20.865492
226.050853	-3.011700	3.803700	-11.454000	22.624201	0.000973	20.878868
227.046056	-3.006400	3.804700	-11.436000	22.636459	0.000972	20.871232
228.048030	-3.000600	3.804300	-11.415000	22.644704	0.000972	20.858628
229.047845	-2.992800	3.803900	-11.383000	22.657733	0.000974	20.864565
230.047678	-2.981700	3.804900	-11.343000	22.653770	0.000975	20.872923
231.047987	-3.014800	3.803200	-11.464000	22.670963	0.000975	20.882083
232.048872	-3.005400	3.804000	-11.432000	22.672060	0.000973	20.846674
233.056043	-2.995200	3.803200	-11.389000	22.678511	0.000975	20.854558
234.052619	-3.008800	3.803300	-11.441000	22.691942	0.000976	20.851889
235.057880	-3.023300	3.802400	-11.494000	22.690794	0.000977	20.868757
236.047116	-2.994500	3.802300	-11.385000	22.688904	0.000976	20.871131
237.050768	-3.012400	3.802800	-11.454000	22.673806	0.000978	20.868811
238.050398	-3.018800	3.801100	-11.475000	22.680954	0.000978	20.883555
239.051098	-2.996900	3.802700	-11.395000	22.683073	0.000978	20.881411
240.051005	-3.000600	3.802600	-11.409000	22.664913	0.000980	20.874601
241.051764	-2.985900	3.801600	-11.350000	22.694757	0.000978	20.871303
242.055259	-3.025500	3.800400	-11.497000	22.708015	0.000977	20.875100
243.055490	-3.003500	3.801100	-11.415000	22.728021	0.000981	20.866218
244.053297	-2.982100	3.801000	-11.334000	22.731360	0.000980	20.885208
245.050183	-3.007000	3.799700	-11.425000	22.747801	0.000980	20.855686
246.050343	-3.002000	3.799800	-11.405000	22.737890	0.000982	20.866146
247.050107	-2.999700	3.800700	-11.400000	22.742050	0.000981	20.891648
248.049591	-2.988600	3.801000	-11.359000	22.738213	0.000981	20.884486
249.058691	-2.998000	3.799600	-11.391000	22.735121	0.000981	20.900828
250.053308	-2.986700	3.799100	-11.346000	22.732482	0.000984	20.866893
251.061603	-2.986100	3.799400	-11.345000	22.766165	0.000985	20.892571
252.055120	-3.013900	3.797900	-11.446000	22.766039	0.000983	20.904772
253.055975	-2.994800	3.798200	-11.374000	22.773839	0.000983	20.886982
254.053869	-3.005200	3.799100	-11.416000	22.792944	0.000986	20.890473
255.058831	-2.994000	3.799400	-11.373000	22.790326	0.000985	20.886429
256.059047	-2.995000	3.799200	-11.378000	22.817385	0.000986	20.893146
257.053486	-3.013300	3.797100	-11.441000	22.794117	0.000986	20.873631
258.054390	-2.986700	3.797700	-11.340000	22.832183	0.000986	20.904650
259.061739	-3.011000	3.795500	-11.427000	22.810859	0.000988	20.891350
260.070990	-3.022400	3.796600	-11.474000	22.839555	0.000988	20.910612
261.056975	-3.018400	3.797200	-11.460000	22.828543	0.000989	20.896263
262.051979	-3.006400	3.796900	-11.412000	22.845084	0.000990	20.914254
263.054193	-3.012100	3.795600	-11.432000	22.837382	0.000991	20.896109
264.056924	-3.019100	3.795500	-11.458000	22.856665	0.000989	20.895038
265.055094	-3.010000	3.795300	-11.422000	22.851811	0.000991	20.888753
266.058078	-3.015000	3.793300	-11.435000	22.866751	0.000990	20.911305
267.058720	-3.036200	3.793800	-11.518000	22.872904	0.000992	20.902771
268.062043	-3.018500	3.794300	-11.451000	22.875619	0.000992	20.906438
269.058904	-2.979600	3.795600	-11.308000	22.915052	0.000991	20.901374
270.064632	-2.997200	3.793600	-11.369000	22.923822	0.000991	20.918219
271.066400	-2.975700	3.794500	-11.291000	22.921254	0.000993	20.913277
272.057186	-3.014000	3.792500	-11.429000	22.902969	0.000993	20.924828
273.062604	-2.994700	3.793800	-11.361000	22.896067	0.000994	20.923603
274.061110	-2.992200	3.792800	-11.348000	22.897239	0.000994	20.907236
275.065289	-2.974800	3.793500	-11.283000	22.925456	0.000994	20.912745
276.063621	-2.986900	3.792700	-11.328000	22.940353	0.000994	20.930513
277.064354	-3.003000	3.793700	-11.392000	22.939755	0.000994	20.898148
278.067531	-3.014400	3.790800	-11.425000	22.947499	0.000997	20.911122
279.062390	-3.012600	3.790900	-11.420000	22.941547	0.000996	20.911797
280.063306	-2.994100	3.792400	-11.354000	22.927898	0.000995	20.885796
281.060179	-2.990500	3.791400	-11.337000	22.951457	0.000996	20.900864
282.070431	-3.015300	3.790200	-11.428000	22.960625	0.000997	20.890135
283.071642	-3.008500	3.790600	-11.403000	22.946796	0.001000	20.909944
284.068291	-3.012100	3.790500	-11.417000	22.969139	0.000999	20.899140
285.065570	-3.016700	3.788600	-11.428000	23.003611	0.001000	20.905702
286.070832	-3.005300	3.790200	-11.390000	23.012825	0.000999	20.890753
287.070096	-3.007000	3.789800	-11.395000	23.010881	0.001001	20.917253
288.068687	-3.028900	3.787700	-11.472000	23.032202	0.001002	20.902580
289.067482	-2.987600	3.790000	-11.322000	23.004403	0.001000	20.888479
290.064989	-2.992900	3.790200	-11.343000	23.002808	0.001003	20.891622
291.073816	-3.000300	3.787500	-11.362000	22.986621	0.001001	20.922816
292.065485	-2.985300	3.788800	-11.310000	23.004496	0.001003	20.891891
293.071259	-2.992600	3.787700	-11.333000	23.020690	0.001002	20.876350
294.066540	-2.991900	3.788200	-11.332000	23.052916	0.001002	20.883982
295.067983	-3.011100	3.787000	-11.402000	23.039239	0.001005	20.892089
296.064413	-3.017200	3.785700	-11.420000	23.043276	0.001003	20.875746
297.066490	-2.996400	3.786800	-11.346000	23.015305	0.001003	20.886600
298.069641	-2.983100	3.787800	-11.299000	23.019833	0.001005	20.885447
299.069361	-3.013000	3.785600	-11.406000	23.019335	0.001005	20.876888
300.070394	-2.995900	3.786800	-11.343000	23.022350	0.001007	20.885598
301.068961	-2.994300	3.785900	-11.334000	23.039755	0.001005	20.872219
302.066651	-2.989100	3.786500	-11.318000	23.054601	0.001008	20.867653
303.071098	-2.982300	3.786500	-11.292000	23.048373	0.001006	20.883224
304.074327	-3.011900	3.784900	-11.399000	23.074472	0.001008	20.865279
305.073668	-3.014800	3.784900	-11.410000	23.072030	0.001008	20.882272
306.073816	-2.998800	3.785000	-11.349000	23.099100	0.001008	20.882369
307.068308	-2.988900	3.785200	-11.313000	23.119648	0.001010	20.881148
308.069809	-3.012800	3.783200	-11.397000	23.102688	0.001011	20.865103
309.072531	-3.002000	3.784300	-11.359000	23.114242	0.001009	20.871938
310.069610	-2.994500	3.783400	-11.328000	23.130180	0.001011	20.862779
311.068184	-2.999800	3.783300	-11.348000	23.142307	0.001010	20.871137
312.071661	-2.993300	3.783200	-11.323000	23.175952	0.001011	20.870714
313.088115	-3.010200	3.784600	-11.390000	23.165689	0.001012	20.876550
314.068269	-2.996200	3.782700	-11.333000	23.181178	0.001010	20.860304
315.074452	-3.012000	3.782700	-11.393000	23.189971	0.001013	20.853469
316.072630	-3.004800	3.783900	-11.368000	23.203492	0.001011	20.852794
317.070775	-2.993200	3.781200	-11.317000	23.185784	0.001013	20.865394
318.077559	-2.985500	3.782400	-11.291000	23.217959	0.001014	20.875351
319.071038	-2.988700	3.780700	-11.298000	23.205230	0.001016	20.875871
320.073858	-3.002900	3.781500	-11.354000	23.146633	0.001013	20.869309
321.081149	-2.989200	3.781100	-11.300000	23.149569	0.001014	20.858027
322.072221	-2.967900	3.780700	-11.220000	23.167227	0.001016	20.845376
323.074047	-3.003100	3.780300	-11.351000	23.183960	0.001015	20.849342
324.075255	-2.987100	3.778800	-11.286000	23.183985	0.001016	20.869280
325.085091	-2.993500	3.779500	-11.313000	23.188939	0.001015	20.852909
326.068989	-2.962500	3.782100	-11.203000	23.188688	0.001014	20.840330
327.074757	-2.995900	3.779900	-11.322000	23.170389	0.001015	20.860398
328.072344	-3.002500	3.778700	-11.345000	23.196133	0.001018	20.857273
329.072126	-2.997400	3.778600	-11.324000	23.182934	0.001018	20.857797
330.080894	-3.002800	3.778200	-11.344000	23.189534	0.001019	20.848289
331.078126	-2.989800	3.778600	-11.296000	23.195409	0.001019	20.833314
332.073736	-3.015800	3.777000	-11.390000	23.214636	0.001017	20.837883
333.078532	-3.026200	3.777200	-11.428000	23.231092	0.001019	20.861960
334.075312	-2.991600	3.778700	-11.303000	23.243042	0.001019	20.839324
335.072907	-3.007600	3.775500	-11.354000	23.265129	0.001018	20.835380
336.077786	-2.992900	3.775300	-11.298000	23.269484	0.001019	20.845434
337.078038	-3.006000	3.776400	-11.351000	23.263810	0.001021	20.844489
338.076735	-3.018800	3.774400	-11.393000	23.275756	0.001021	20.827539
339.077555	-3.016400	3.776000	-11.389000	23.293390	0.001019	20.851849
340.078856	-3.004700	3.776200	-11.345000	23.285043	0.001022	20.827363
341.080166	-3.007000	3.773700	-11.347000	23.280362	0.001022	20.842111
342.087842	-2.995300	3.774900	-11.304000	23.277398	0.001023	20.856209
343.083657	-3.007300	3.773800	-11.347000	23.303892	0.001022	20.830606
344.077815	-2.991100	3.775000	-11.290000	23.292186	0.001022	20.835470
345.083896	-2.996700	3.774300	-11.309000	23.326597	0.001023	20.828232
346.079960	-3.000900	3.774900	-11.328000	23.287204	0.001024	20.829529
347.080749	-3.001700	3.773000	-11.325000	23.293928	0.001024	20.841957
348.078968	-3.014500	3.772100	-11.370000	23.304408	0.001024	20.830175
349.082634	-2.998500	3.774100	-11.316000	23.310684	0.001026	20.826508
350.081686	-2.994600	3.773100	-11.298000	23.344446	0.001024	20.833792
351.079706	-3.024000	3.771500	-11.405000	23.355775	0.001026	20.836138
352.084706	-2.988200	3.773200	-11.274000	23.363918	0.001026	20.825333
353.085391	-2.989200	3.771500	-11.273000	23.373577	0.001029	20.840229
354.088015	-2.988600	3.772600	-11.274000	23.377659	0.001029	20.834363
355.096653	-2.985900	3.771600	-11.260000	23.369993	0.001027	20.827154
356.091844	-2.992000	3.770700	-11.280000	23.381773	0.001028	20.851763
357.090438	-2.993400	3.771800	-11.289000	23.355252	0.001029	20.837984
358.087966	-3.022400	3.769000	-11.390000	23.349077	0.001029	20.825157
359.082294	-2.995700	3.769700	-11.292000	23.326694	0.001028	20.826906
360.082806	-2.976400	3.771000	-11.222000	23.339593	0.001029	20.838411
361.086632	-2.986200	3.769600	-11.255000	23.313795	0.001030	20.834841
362.087706	-2.962300	3.770600	-11.168000	23.312806	0.001028	20.816306
363.083706	-3.012100	3.768700	-11.351000	23.303616	0.001031	20.823692
364.086327	-2.999900	3.769700	-11.308000	23.303197	0.001029	20.824694
365.080422	-2.982500	3.769000	-11.239000	23.282079	0.001030	20.834349
366.094240	-2.997200	3.767400	-11.290000	23.299211	0.001029	20.835872
367.086507	-2.993900	3.768100	-11.279000	23.290251	0.001030	20.816935
368.081422	-3.002500	3.767800	-11.312000	23.288132	0.001031	20.826666
369.094542	-3.003500	3.767900	-11.315000	23.281308	0.001029	20.814611
370.089994	-3.010000	3.766100	-11.335000	23.302175	0.001032	20.838842
371.094874	-3.000300	3.766800	-11.301000	23.333873	0.001033	20.808971
372.100007	-3.001300	3.765900	-11.302000	23.339027	0.001032	20.807973
373.096303	-3.007600	3.765000	-11.321000	23.327203	0.001032	20.816511
374.090381	-3.013600	3.764300	-11.344000	23.360244	0.001033	20.822600
375.096971	-3.008600	3.765200	-11.327000	23.375856	0.001034	20.810746
376.089398	-3.004200	3.764900	-11.310000	23.389475	0.001032	20.827240
377.093686	-3.008200	3.763600	-11.321000	23.361337	0.001034	20.839342
378.093280	-2.991000	3.764600	-11.259000	23.374860	0.001034	20.820179
379.093844	-3.014400	3.763500	-11.344000	23.361789	0.001035	20.834579
380.093626	-3.018900	3.763500	-11.361000	23.380737	0.001034	20.825121
381.095578	-2.996800	3.763200	-11.277000	23.389647	0.001034	20.824094
382.094513	-2.979000	3.764500	-11.212000	23.436233	0.001034	20.814363
383.089524	-3.024300	3.761400	-11.374000	23.435885	0.001035	20.835825
384.093735	-3.015800	3.762300	-11.346000	23.482093	0.001037	20.813864
385.091368	-3.039600	3.759900	-11.428000	23.470292	0.001037	20.798716
386.097963	-2.976700	3.763300	-11.201000	23.455280	0.001037	20.817808
387.093125	-2.970100	3.762200	-11.173000	23.465787	0.001036	20.833555
388.093399	-2.979500	3.762300	-11.208000	23.451471	0.001037	20.824895
389.102746	-2.995300	3.760800	-11.263000	23.451818	0.001037	20.823821
390.098727	-2.992900	3.761700	-11.258000	23.448579	0.001038	20.800659
391.101021	-2.993300	3.761700	-11.259000	23.463992	0.001038	20.786237
392.092080	-3.017300	3.759900	-11.344000	23.442777	0.001040	20.829931
393.096659	-3.003500	3.759700	-11.290000	23.466257	0.001039	20.812215
394.093252	-3.003900	3.760100	-11.292000	23.478230	0.001039	20.809517
395.095880	-3.021500	3.758500	-11.356000	23.502182	0.001039	20.834949
396.094462	-3.022500	3.759200	-11.361000	23.489532	0.001040	20.810415
397.096462	-3.011200	3.760000	-11.320000	23.489482	0.001040	20.835495
398.103703	-3.010800	3.757500	-11.312000	23.495757	0.001040	20.800534
399.109519	-2.972200	3.760400	-11.176000	23.511413	0.001040	20.808641
400.097682	-2.989100	3.758200	-11.231000	23.525905	0.001042	20.794718
401.099260	-2.979300	3.757800	-11.195000	23.481415	0.001039	20.814133
402.103000	-3.029800	3.757200	-11.383000	23.498541	0.001041	20.800006
403.094649	-3.004000	3.757600	-11.287000	23.498147	0.001041	20.808619
404.097845	-3.011200	3.757200	-11.311000	23.517985	0.001042	20.815703
405.096027	-2.996400	3.757200	-11.257000	23.504092	0.001043	20.815053
406.098858	-3.012500	3.755600	-11.313000	23.505712	0.001042	20.794391
407.101134	-3.017800	3.753600	-11.326000	23.533889	0.001044	20.804144
408.101300	-2.989600	3.756100	-11.228000	23.561549	0.001043	20.807689
409.103719	-3.001100	3.754200	-11.266000	23.589058	0.001043	20.809661
410.102743	-2.993500	3.755200	-11.240000	23.589857	0.001043	20.829902
411.101351	-3.011600	3.754700	-11.306000	23.623485	0.001043	20.810983
412.109959	-3.009200	3.755400	-11.300000	23.631403	0.001040	20.820344
413.103267	-2.995800	3.753500	-11.244000	23.655621	0.001043	20.810958
414.102842	-3.003400	3.754600	-11.274000	23.678771	0.001043	20.792441
415.104158	-3.002100	3.752400	-11.264000	23.701795	0.001044	20.812678
416.100534	-3.014300	3.752900	-11.311000	23.692931	0.001043	20.788619
417.110561	-3.013200	3.751400	-11.302000	23.723102	0.001042	20.816971
418.101588	-3.006200	3.753200	-11.282000	23.718917	0.001041	20.790016
419.106330	-3.006600	3.752600	-11.281000	23.721533	0.001045	20.792638
420.105842	-3.010800	3.752800	-11.298000	23.726957	0.001043	20.805663
421.103351	-3.012800	3.751800	-11.303000	23.719888	0.001044	20.805214
422.106257	-3.001100	3.751400	-11.257000	23.687155	0.001044	20.818864
423.110549	-2.983500	3.751200	-11.190000	23.659498	0.001043	20.793034
424.114093	-2.985000	3.750300	-11.193000	23.620840	0.001046	20.791737
425.105934	-3.009400	3.750300	-11.285000	23.633188	0.001047	20.789416
426.110392	-2.973800	3.750800	-11.153000	23.606257	0.001045	20.797031
427.109064	-2.997000	3.749000	-11.234000	23.583324	0.001046	20.807233
428.109338	-2.989100	3.750800	-11.211000	23.595601	0.001045	20.790142
429.109443	-3.000100	3.748200	-11.244000	23.614939	0.001045	20.790562
430.108606	-2.967000	3.748800	-11.121000	23.619117	0.001046	20.786216
431.111142	-2.998000	3.747500	-11.234000	23.632511	0.001045	20.789686
432.113447	-2.958600	3.748200	-11.089000	23.640229	0.001044	20.804061
433.117239	-2.982100	3.747900	-11.176000	23.650035	0.001046	20.794927
434.113325	-2.997800	3.747500	-11.233000	23.680652	0.001047	20.785792
435.115849	-2.987000	3.748100	-11.194000	23.695636	0.001046	20.779477
436.109947	-2.973200	3.746900	-11.140000	23.726276	0.001047	20.803084
437.111605	-3.022100	3.746600	-11.322000	23.737824	0.001046	20.787161
438.115821	-2.990200	3.747200	-11.204000	23.742904	0.001048	20.780400
439.115471	-2.994400	3.748000	-11.221000	23.722715	0.001049	20.779599
440.116434	-3.002600	3.745300	-11.245000	23.715969	0.001048	20.777577
441.110902	-3.011200	3.744600	-11.274000	23.732768	0.001049	20.803429
442.115733	-2.999900	3.745400	-11.234000	23.737971	0.001050	20.766919
443.110803	-3.008500	3.744100	-11.264000	23.741306	0.001050	20.780221
444.118338	-2.984800	3.746000	-11.179000	23.778491	0.001048	20.784312
445.114900	-3.011800	3.742800	-11.272000	23.792649	0.001050	20.790921
446.125403	-3.009100	3.743700	-11.264000	23.823291	0.001049	20.805049
447.120977	-3.008200	3.741900	-11.255000	23.831974	0.001048	20.777246
448.120686	-3.001800	3.742200	-11.231000	23.834439	0.001049	20.783511
449.113332	-3.003100	3.742900	-11.240000	23.830606	0.001050	20.770184
450.116973	-3.015600	3.742600	-11.284000	23.835682	0.001049	20.778593
451.121738	-3.009100	3.741300	-11.257000	23.821345	0.001049	20.778917
452.114644	-3.025200	3.740500	-11.313000	23.790485	0.001052	20.780691
453.119417	-2.992400	3.742500	-11.198000	23.766937	0.001051	20.777469
454.123011	-2.991700	3.741600	-11.193000	23.739185	0.001048	20.785681
455.116565	-2.994400	3.742200	-11.205000	23.763849	0.001049	20.790020
456.113335	-3.021600	3.740400	-11.301000	23.759940	0.001051	20.786575
457.117933	-3.006100	3.741000	-11.244000	23.794487	0.001052	20.774272
458.119491	-3.017400	3.738900	-11.281000	23.799270	0.001050	20.792344
459.126646	-2.991300	3.740300	-11.188000	23.798768	0.001051	20.791841
460.121189	-2.998200	3.739800	-11.212000	23.826071	0.001049	20.785077
461.121699	-2.999400	3.739400	-11.215000	23.853996	0.001050	20.757127
462.118583	-3.009000	3.737500	-11.245000	23.849690	0.001049	20.763241
463.120485	-2.982000	3.739900	-11.151000	23.861135	0.001048	20.770924
464.122907	-3.013600	3.738500	-11.265000	23.830825	0.001053	20.769455
465.118866	-3.009300	3.737700	-11.247000	23.841500	0.001049	20.770676
466.121173	-2.995100	3.738200	-11.194000	23.856059	0.001050	20.769153
467.122158	-3.010400	3.736600	-11.248000	23.832361	0.001051	20.782376
468.116194	-2.997800	3.737000	-11.202000	23.844212	0.001050	20.787146
469.123398	-2.993000	3.738400	-11.189000	23.825218	0.001051	20.773317
470.122116	-2.995400	3.735100	-11.187000	23.830620	0.001051	20.776837
471.119540	-3.005900	3.734600	-11.225000	23.819816	0.001052	20.751778
472.120105	-2.998300	3.735600	-11.200000	23.828700	0.001053	20.759264
473.121666	-3.001000	3.734700	-11.207000	23.835969	0.001052	20.765130
474.120661	-3.012700	3.734700	-11.250000	23.818573	0.001052	20.764282
475.130031	-3.005400	3.734200	-11.222000	23.839401	0.001053	20.766201
476.121882	-3.003300	3.734400	-11.215000	23.827579	0.001053	20.751027
477.125356	-3.005000	3.732900	-11.217000	23.862149	0.001052	20.750603
478.127338	-3.002400	3.734100	-11.210000	23.843678	0.001053	20.761006
479.123685	-3.010700	3.733700	-11.239000	23.843729	0.001053	20.740667
480.121001	-2.990700	3.734800	-11.169000	23.840791	0.001054	20.773284
481.124819	-2.998500	3.732900	-11.191000	23.818841	0.001055	20.774983
482.131437	-3.003700	3.731200	-11.206000	23.835464	0.001053	20.761305
483.126454	-3.001600	3.732000	-11.201000	23.824985	0.001054	20.772135
484.127525	-2.990800	3.732400	-11.161000	23.857094	0.001054	20.749328
485.122360	-2.988700	3.732700	-11.155000	23.862221	0.001053	20.755417
486.121679	-2.999700	3.730400	-11.189000	23.851592	0.001055	20.745707
487.129066	-3.006700	3.729700	-11.213000	23.841984	0.001052	20.763575
488.121168	-2.998500	3.730000	-11.184000	23.837753	0.001053	20.737521
489.123243	-3.002700	3.731600	-11.203000	23.851345	0.001053	20.764426
490.125326	-2.991500	3.730100	-11.157000	23.854207	0.001054	20.753545
491.127667	-2.997600	3.728100	-11.174000	23.877700	0.001052	20.760507
492.126124	-3.024600	3.728200	-11.276000	23.905771	0.001054	20.752619
493.126488	-3.009300	3.728100	-11.217000	23.895443	0.001055	20.752694
494.135506	-3.011100	3.728700	-11.226000	23.917746	0.001052	20.757041
495.125196	-2.975700	3.729000	-11.094000	23.938626	0.001053	20.749055
496.129591	-3.004200	3.726300	-11.193000	23.941886	0.001053	20.746160
497.136770	-2.985400	3.726900	-11.124000	23.947983	0.001054	20.734255
498.127350	-3.008600	3.727400	-11.213000	23.973641	0.001052	20.745761
499.126250	-2.995300	3.726700	-11.161000	23.976556	0.001054	20.743469
500.129326	-2.991400	3.726700	-11.147000	24.006043	0.001054	20.764031
501.125362	-2.974800	3.726200	-11.084000	24.009850	0.001053	20.746986
502.133390	-3.010700	3.724100	-11.210000	24.033469	0.001054	20.730842
503.125936	-2.979300	3.726600	-11.102000	24.038519	0.001053	20.726424
504.127434	-2.987400	3.726700	-11.132000	24.070296	0.001053	20.732689
505.129689	-2.997100	3.724100	-11.161000	24.078881	0.001055	20.762163
506.127566	-2.994200	3.725000	-11.151000	24.097620	0.001054	20.743972
507.130510	-2.997600	3.724300	-11.163000	24.101227	0.001054	20.729571
508.129565	-2.996300	3.723000	-11.153000	24.090851	0.001052	20.718215
509.126159	-2.990000	3.723300	-11.131000	24.075576	0.001052	20.737984
510.133434	-3.023900	3.722400	-11.255000	24.093068	0.001053	20.752683
511.129350	-2.998500	3.723400	-11.164000	24.083018	0.001053	20.739284
512.126180	-3.000800	3.722000	-11.168000	24.064555	0.001053	20.734043
513.131779	-3.010100	3.721500	-11.201000	24.023694	0.001053	20.755654
514.140742	-3.019800	3.721500	-11.236000	24.010334	0.001053	20.741307
515.132355	-3.006700	3.720400	-11.185000	24.005778	0.001054	20.746221
516.130561	-3.006400	3.721200	-11.186000	23.984902	0.001052	20.738088
517.139207	-3.003300	3.720400	-11.173000	23.977985	0.001053	20.729729
518.133550	-2.974700	3.721900	-11.071000	23.971266	0.001052	20.755234
519.129881	-2.998300	3.721500	-11.157000	23.963081	0.001053	20.734697
520.137275	-3.009000	3.721000	-11.195000	23.945632	0.001053	20.722889
521.134742	-2.975100	3.720700	-11.068000	23.958277	0.001053	20.718499
522.139327	-2.978600	3.719700	-11.078000	23.951482	0.001053	20.739187
523.131648	-3.004400	3.718900	-11.171000	23.984881	0.001053	20.732376
524.139355	-2.990400	3.718400	-11.118000	24.000731	0.001052	20.752065
525.132537	-2.991500	3.718100	-11.121000	24.007400	0.001057	20.741209
526.135130	-2.991300	3.718700	-11.123000	24.016237	0.001053	20.718302
527.136392	-3.011300	3.718500	-11.196000	23.989111	0.001053	20.710064
528.136014	-2.984800	3.718200	-11.097000	24.002894	0.001053	20.735742
529.138323	-3.006200	3.716300	-11.171000	24.029074	0.001054	20.723115
530.142248	-2.998000	3.716700	-11.141000	24.055303	0.001053	20.735196
531.140616	-2.996700	3.717200	-11.138000	24.087051	0.001054	20.743329
532.138114	-2.991200	3.716700	-11.117000	24.111685	0.001051	20.720144
533.140634	-2.982700	3.717500	-11.087000	24.128579	0.001054	20.723812
534.139138	-2.985700	3.715700	-11.092000	24.126119	0.001053	20.743631
535.139340	-2.995500	3.714700	-11.127000	24.162345	0.001054	20.738713
536.142603	-3.018500	3.714800	-11.211000	24.179610	0.001053	20.730900
537.142575	-2.970100	3.714900	-11.033000	24.143084	0.001054	20.720816
538.145096	-2.994400	3.715100	-11.124000	24.118948	0.001052	20.733594
539.138733	-2.987600	3.714500	-11.097000	24.065400	0.001054	20.735839
540.142259	-2.992700	3.713700	-11.113000	24.053233	0.001055	20.714152
541.143927	-2.985200	3.714200	-11.087000	24.047735	0.001052	20.728080
542.143567	-2.998400	3.714400	-11.136000	24.043179	0.001054	20.745797
543.143264	-3.000800	3.713800	-11.143000	24.062613	0.001053	20.721664
544.140801	-3.004800	3.712000	-11.154000	24.103469	0.001053	20.734664
545.143770	-2.990700	3.712800	-11.102000	24.135391	0.001051	20.724006
546.141381	-2.987600	3.711500	-11.087000	24.159379	0.001052	20.747593
547.144660	-3.001300	3.711800	-11.140000	24.190011	0.001050	20.733745
548.142126	-3.006300	3.710800	-11.155000	24.180903	0.001052	20.732671
549.145296	-2.999300	3.711400	-11.130000	24.200482	0.001053	20.742352
550.142713	-3.005400	3.710000	-11.149000	24.228967	0.001052	20.743422
551.142055	-3.025300	3.708700	-11.218000	24.222750	0.001053	20.731970
552.144497	-2.997100	3.710100	-11.118000	24.239220	0.001052	20.743275
553.156739	-2.997400	3.710300	-11.120000	24.221533	0.001053	20.723636
554.147989	-3.003000	3.710400	-11.140000	24.188811	0.001053	20.747715
555.143535	-2.992700	3.708400	-11.097000	24.179632	0.001051	20.737086
556.144790	-3.020800	3.707700	-11.198000	24.187443	0.001053	20.751559
557.146544	-3.014100	3.706400	-11.171000	24.193040	0.001052	20.738681
558.148682	-3.005300	3.708300	-11.143000	24.203888	0.001052	20.726801
559.152075	-2.986400	3.709300	-11.076000	24.166868	0.001052	20.758423
560.149546	-2.991700	3.707600	-11.091000	24.156640	0.001052	20.737732
561.150358	-2.996200	3.706600	-11.105000	24.146888	0.001051	20.744547
562.146288	-2.987100	3.708300	-11.075000	24.137160	0.001049	20.739058
563.151317	-2.999200	3.706300	-11.115000	24.117154	0.001052	20.755977
564.154248	-2.981400	3.707600	-11.052000	24.169529	0.001052	20.728849
565.150808	-2.992400	3.707600	-11.094000	24.192421	0.001051	20.739482
566.152289	-2.995300	3.706300	-11.100000	24.211824	0.001053	20.750409
567.150488	-3.006100	3.705300	-11.138000	24.191869	0.001050	20.752680
568.151000	-2.987600	3.703900	-11.064000	24.177566	0.001053	20.727900
569.151568	-2.990700	3.705100	-11.079000	24.177315	0.001051	20.741400
570.152336	-2.996800	3.704200	-11.100000	24.182264	0.001051	20.739252
571.150615	-2.985800	3.703100	-11.056000	24.215953	0.001053	20.742697
572.155897	-3.001200	3.703900	-11.114000	24.242250	0.001051	20.733511
573.151474	-3.011200	3.702900	-11.149000	24.258622	0.001053	20.750883
574.154775	-3.007600	3.702600	-11.135000	24.263424	0.001052	20.735785
575.156262	-3.002100	3.702500	-11.115000	24.275689	0.001051	20.745718
576.152756	-2.985300	3.702900	-11.053000	24.283202	0.001052	20.745193
577.154574	-2.989600	3.702000	-11.065000	24.280717	0.001050	20.759771
578.156843	-3.011100	3.700500	-11.141000	24.276015	0.001051	20.743674
579.159896	-2.996100	3.701900	-11.090000	24.254371	0.001051	20.732868
580.155285	-2.995200	3.701500	-11.086000	24.271088	0.001052	20.742999
581.164374	-2.991600	3.701600	-11.073000	24.268771	0.001048	20.735933
582.156832	-3.005600	3.701100	-11.123000	24.269373	0.001050	20.763090
583.154947	-2.993400	3.701700	-11.080000	24.237974	0.001050	20.723532
584.157560	-3.007800	3.700300	-11.129000	24.289175	0.001050	20.732218
585.159806	-3.013700	3.699000	-11.146000	24.276015	0.001050	20.754580
586.155253	-2.988600	3.699900	-11.056000	24.285491	0.001048	20.747015
587.158490	-2.978100	3.699800	-11.017000	24.319699	0.001051	20.757622
588.155581	-2.994700	3.699300	-11.077000	24.286737	0.001047	20.748265
589.154304	-3.005200	3.698600	-11.114000	24.318406	0.001048	20.729298
590.159484	-3.003200	3.699000	-11.109000	24.337689	0.001050	20.747219
591.160060	-3.030200	3.697700	-11.203000	24.348883	0.001051	20.756078
592.156668	-2.985300	3.698300	-11.040000	24.322216	0.001049	20.752561
593.157484	-2.995700	3.697400	-11.075000	24.331269	0.001049	20.759745
594.156946	-2.984000	3.697200	-11.029000	24.315327	0.001050	20.762246
595.157359	-3.003500	3.696900	-11.102000	24.292366	0.001050	20.740161
596.156600	-2.989800	3.698200	-11.056000	24.299750	0.001050	20.743774
597.157634	-3.002300	3.697100	-11.099000	24.315552	0.001050	20.750618
598.163151	-3.009200	3.695800	-11.120000	24.312566	0.001049	20.759950
599.158975	-2.997600	3.695800	-11.078000	24.304878	0.001048	20.760773
600.160669	-2.993700	3.695400	-11.062000	24.269602	0.001049	20.742930
601.161364	-2.977300	3.695700	-11.002000	24.283883	0.001049	20.747773
602.159889	-3.000600	3.694900	-11.085000	24.311653	0.001048	20.773259
603.159821	-2.998900	3.695000	-11.080000	24.327971	0.001048	20.750747
604.158262	-2.994300	3.693400	-11.058000	24.344890	0.001047	20.748279
605.159422	-2.990600	3.693300	-11.044000	24.377152	0.001046	20.758833
606.162294	-2.997800	3.693300	-11.070000	24.395661	0.001046	20.760805
607.161311	-2.986700	3.692400	-11.027000	24.417327	0.001047	20.757410
608.163821	-2.990000	3.691900	-11.038000	24.414323	0.001046	20.761035
609.167893	-3.006200	3.692700	-11.100000	24.434048	0.001046	20.759961
610.164381	-2.988200	3.692100	-11.032000	24.433976	0.001048	20.766527
611.160966	-3.002800	3.692500	-11.087000	24.438828	0.001046	20.744841
612.167088	-3.007600	3.692100	-11.104000	24.431813	0.001045	20.740175
613.164550	-2.995700	3.690500	-11.054000	24.396337	0.001046	20.759587
614.164011	-2.993800	3.690900	-11.049000	24.409353	0.001045	20.760791
615.165230	-2.986800	3.690000	-11.020000	24.398804	0.001044	20.755898
616.165903	-2.983000	3.690800	-11.008000	24.421541	0.001046	20.778234
617.169433	-3.013100	3.690000	-11.117000	24.433507	0.001046	20.754677
618.167828	-3.000700	3.688700	-11.067000	24.460174	0.001045	20.785224
619.167301	-3.000400	3.690200	-11.071000	24.460274	0.001045	20.766833
620.166698	-2.986300	3.690100	-11.018000	24.489178	0.001044	20.757425
621.166186	-3.012600	3.689600	-11.115000	24.464879	0.001044	20.760072
622.165438	-3.003300	3.689200	-11.078000	24.443905	0.001044	20.769850
623.167391	-3.014300	3.687200	-11.113000	24.429629	0.001044	20.761218
624.166268	-2.981000	3.689600	-10.997000	24.440227	0.001045	20.771851
625.168356	-2.998300	3.687200	-11.054000	24.460475	0.001044	20.774146
626.168882	-2.988300	3.688100	-11.021000	24.470253	0.001043	20.771154
627.170969	-2.977500	3.687900	-10.980000	24.520273	0.001043	20.792890
628.171302	-2.997700	3.686900	-11.051000	24.477567	0.001042	20.767587
629.166621	-3.000500	3.685800	-11.057000	24.454904	0.001044	20.775669
630.170452	-2.990300	3.686200	-11.021000	24.447367	0.001043	20.790867
631.167427	-2.995500	3.685900	-11.040000	24.460027	0.001044	20.803095
632.169087	-3.001100	3.685500	-11.060000	24.465577	0.001044	20.792067
633.170555	-3.006100	3.682800	-11.070000	24.472491	0.001044	20.798055
634.169338	-2.986800	3.685400	-11.006000	24.489357	0.001042	20.777519
635.174192	-3.003900	3.684300	-11.066000	24.513983	0.001042	20.774250
636.173774	-3.007300	3.683700	-11.077000	24.529649	0.001043	20.789021
637.169775	-3.003500	3.684400	-11.065000	24.534479	0.001043	20.787703
638.166480	-3.012100	3.683000	-11.093000	24.563256	0.001043	20.798084
639.170864	-3.011100	3.681400	-11.083000	24.515501	0.001042	20.786205
640.167603	-2.994300	3.682900	-11.027000	24.502719	0.001042	20.797089
641.167385	-3.004500	3.682000	-11.061000	24.503038	0.001043	20.788400
642.171687	-3.003500	3.682900	-11.060000	24.536817	0.001042	20.773453
643.169705	-2.996200	3.681600	-11.031000	24.530476	0.001043	20.810239
644.169619	-3.002600	3.680300	-11.049000	24.526621	0.001042	20.787879
645.171787	-3.002000	3.680900	-11.049000	24.536821	0.001041	20.783888
646.180316	-2.962900	3.682500	-10.910000	24.536570	0.001042	20.775576
647.173907	-2.970600	3.680200	-10.932000	24.538682	0.001039	20.777221
648.173786	-2.985300	3.679600	-10.984000	24.520226	0.001040	20.798533
649.170899	-3.000500	3.679000	-11.037000	24.506346	0.001039	20.785555
650.172094	-2.978300	3.678900	-10.955000	24.525350	0.001040	20.783285
651.172492	-2.987800	3.678100	-10.988000	24.544729	0.001040	20.796090
652.177083	-2.999900	3.679300	-11.036000	24.563632	0.001040	20.782340
653.177382	-3.008500	3.678800	-11.066000	24.602529	0.001039	20.772530
654.177301	-2.982100	3.679900	-10.973000	24.592483	0.001040	20.785684
655.183944	-3.005500	3.678700	-11.056000	24.595813	0.001040	20.798034
656.181183	-2.974300	3.679000	-10.942000	24.611135	0.001039	20.810563
657.177396	-3.018400	3.675800	-11.093000	24.606384	0.001038	20.799158
658.178015	-2.988900	3.677500	-10.990000	24.623618	0.001038	20.794165
659.177855	-2.991400	3.676800	-10.997000	24.646325	0.001039	20.798458
660.178825	-2.992900	3.676500	-11.003000	24.631476	0.001038	20.795886
661.177132	-3.006700	3.675300	-11.050000	24.616880	0.001036	20.805897
662.181719	-3.026700	3.673800	-11.118000	24.620059	0.001037	20.794862
663.180627	-2.996400	3.676200	-11.014000	24.636477	0.001037	20.799481
664.180004	-2.991900	3.675700	-10.996000	24.644012	0.001037	20.795663
665.180358	-3.002700	3.674500	-11.032000	24.616179	0.001036	20.798080
666.178514	-3.020800	3.675100	-11.100000	24.663035	0.001037	20.806691
667.180553	-3.001800	3.674900	-11.029000	24.671988	0.001034	20.806665
668.178792	-3.025400	3.674300	-11.115000	24.674551	0.001035	20.795013
669.187762	-2.998100	3.673500	-11.013000	24.686786	0.001038	20.801126
670.178284	-2.998200	3.674700	-11.016000	24.684073	0.001036	20.807887
671.182850	-3.018200	3.672300	-11.084000	24.707004	0.001036	20.805293
672.179229	-2.996800	3.672800	-11.004000	24.730579	0.001036	20.810933
673.184525	-3.011300	3.673400	-11.061000	24.747861	0.001035	20.812154
674.179748	-2.984100	3.673600	-10.961000	24.755123	0.001036	20.818020
675.182186	-3.014500	3.671200	-11.065000	24.764301	0.001035	20.800677
676.181786	-3.029300	3.669700	-11.116000	24.758481	0.001036	20.810010
677.182555	-2.990300	3.672100	-10.980000	24.733911	0.001032	20.811906
678.182398	-3.012400	3.670200	-11.054000	24.757461	0.001034	20.795235
679.184601	-3.001800	3.670100	-11.016000	24.753308	0.001034	20.806716
680.184480	-2.999400	3.669900	-11.007000	24.766763	0.001035	20.814054
681.183743	-3.015000	3.669400	-11.063000	24.781686	0.001033	20.802003
682.186145	-3.000100	3.670900	-11.012000	24.787055	0.001035	20.816874
683.186179	-2.963300	3.669600	-10.873000	24.819830	0.001034	20.831274
684.185719	-3.001700	3.669500	-11.013000	24.799908	0.001034	20.824083
685.185862	-3.025000	3.668700	-11.095000	24.783751	0.001032	20.823990
686.185819	-3.006100	3.667800	-11.025000	24.772659	0.001032	20.818548
687.188005	-3.019800	3.667100	-11.073000	24.729713	0.001035	20.822391
688.187052	-3.020900	3.668500	-11.081000	24.708575	0.001032	20.819672
689.187491	-3.014900	3.667400	-11.056000	24.730486	0.001034	20.829805
690.187656	-3.010100	3.668000	-11.040000	24.721358	0.001031	20.814007
691.186377	-2.993100	3.667600	-10.977000	24.713773	0.001031	20.820620
692.185099	-2.984800	3.666300	-10.942000	24.720116	0.001031	20.824141
693.188337	-3.024800	3.665600	-11.086000	24.736030	0.001032	20.837740
694.190687	-2.993900	3.666700	-10.977000	24.766520	0.001032	20.825664
695.185812	-2.997000	3.664700	-10.982000	24.763639	0.001030	20.826565
696.190736	-3.003300	3.665100	-11.007000	24.734169	0.001031	20.838717
697.190076	-2.995700	3.664700	-10.976000	24.707834	0.001031	20.832205
698.186924	-2.989700	3.664200	-10.954000	24.724895	0.001031	20.829884
699.191304	-3.009300	3.664800	-11.027000	24.712835	0.001029	20.833429
700.190719	-3.006400	3.663700	-11.014000	24.720094	0.001030	20.840240
701.190569	-3.014400	3.663000	-11.040000	24.683167	0.001031	20.829737
702.191718	-3.000400	3.663200	-10.990000	24.645813	0.001029	20.855315
703.196877	-3.009800	3.663800	-11.027000	24.624624	0.001027	20.823623
704.189895	-3.004000	3.663200	-11.004000	24.678714	0.001028	20.832381
705.192963	-3.003000	3.661600	-10.995000	24.678517	0.001026	20.850674
706.190859	-2.994800	3.662800	-10.969000	24.694085	0.001031	20.819830
707.190433	-2.995000	3.661000	-10.962000	24.720968	0.001028	20.840642
708.193319	-2.995900	3.662400	-10.972000	24.735021	0.001027	20.845735
709.196028	-3.001100	3.662000	-10.989000	24.763073	0.001028	20.830265
710.193308	-2.994200	3.661600	-10.961000	24.795620	0.001028	20.838271
711.194627	-2.988700	3.662100	-10.944000	24.807306	0.001028	20.841939
712.196189	-2.995500	3.660200	-10.963000	24.828742	0.001027	20.846382
713.190694	-2.996300	3.661100	-10.969000	24.845350	0.001026	20.847402
714.193120	-2.994600	3.659800	-10.958000	24.865790	0.001026	20.822873
715.196247	-2.980900	3.661000	-10.911000	24.875088	0.001025	20.833627
716.190587	-2.985700	3.659200	-10.923000	24.867182	0.001027	20.857459
717.194693	-2.994900	3.658700	-10.956000	24.846466	0.001025	20.830980
718.196118	-2.978500	3.659000	-10.897000	24.825210	0.001025	20.833354
719.189242	-2.992200	3.659100	-10.948000	24.808173	0.001024	20.851342
720.194172	-2.998400	3.658800	-10.969000	24.803273	0.001024	20.863020
721.194981	-3.003900	3.657700	-10.987000	24.792531	0.001024	20.841335
722.191024	-3.006000	3.657600	-10.994000	24.798799	0.001023	20.833401
723.193461	-2.976700	3.658400	-10.888000	24.784478	0.001024	20.858857
724.192397	-2.986200	3.657300	-10.920000	24.783382	0.001023	20.833103
725.192752	-2.976700	3.657500	-10.885000	24.797750	0.001024	20.872649
726.196739	-3.018500	3.654400	-11.029000	24.830826	0.001023	20.854162
727.191807	-3.001000	3.655600	-10.969000	24.836796	0.001024	20.842136
728.193244	-3.005600	3.655700	-10.986000	24.808992	0.001023	20.865440
729.196517	-2.980900	3.656100	-10.897000	24.836223	0.001022	20.864794
730.196886	-2.995600	3.655100	-10.948000	24.864247	0.001022	20.849299
731.193394	-3.005200	3.653800	-10.979000	24.892464	0.001021	20.860548
732.195868	-3.012600	3.653900	-11.005000	24.907807	0.001022	20.865990
733.192723	-3.012100	3.653600	-11.004000	24.941921	0.001021	20.857082
734.198459	-2.989500	3.655500	-10.927000	24.929091	0.001021	20.860326
735.194890	-2.994800	3.655300	-10.946000	24.941621	0.001019	20.854410
736.193643	-2.994900	3.655000	-10.944000	24.944058	0.001020	20.857804
737.193499	-3.011300	3.652300	-10.997000	24.916139	0.001020	20.857283
738.196114	-3.004100	3.652600	-10.971000	24.938246	0.001020	20.870936
739.194338	-3.045000	3.651400	-11.117000	24.885951	0.001020	20.843106
740.193885	-3.012500	3.650800	-10.997000	24.865192	0.001020	20.864945
741.195800	-2.990300	3.652600	-10.921000	24.907163	0.001020	20.862499
742.194903	-2.994200	3.653000	-10.935000	24.913054	0.001019	20.865566
743.193808	-3.007700	3.650600	-10.979000	24.921486	0.001018	20.865494
744.197699	-3.005600	3.650300	-10.970000	24.955972	0.001021	20.869287
745.195991	-2.997700	3.650200	-10.941000	24.943714	0.001018	20.880217
746.199231	-2.986600	3.650600	-10.902000	24.903459	0.001019	20.866841
747.197388	-3.002200	3.651300	-10.961000	24.893288	0.001017	20.871331
748.199189	-2.998300	3.649700	-10.941000	24.914106	0.001016	20.872786
749.198301	-2.998600	3.650600	-10.946000	24.890929	0.001017	20.861378
750.202538	-2.998000	3.649900	-10.942000	24.901644	0.001018	20.877347
751.201761	-3.014600	3.648900	-10.999000	24.891477	0.001014	20.862876
752.200963	-3.025800	3.647700	-11.036000	24.904178	0.001015	20.881313
753.200985	-3.040600	3.648100	-11.090000	24.911862	0.001016	20.862948
754.201579	-3.012000	3.648700	-10.989000	24.948016	0.001015	20.861303
755.200373	-3.012700	3.648900	-10.992000	24.927005	0.001015	20.894739
756.201823	-3.004000	3.649000	-10.961000	24.928075	0.001015	20.881589
757.203334	-2.994100	3.649500	-10.926000	24.965742	0.001015	20.889998
758.201718	-3.015900	3.647900	-11.000000	24.956741	0.001015	20.875275
759.203474	-2.987000	3.648500	-10.897000	24.936997	0.001013	20.849769
760.203219	-2.997200	3.648500	-10.934000	24.931825	0.001015	20.892939
761.203204	-2.994300	3.645100	-10.913000	24.954651	0.001014	20.894039
762.203930	-3.003600	3.646100	-10.950000	24.951323	0.001015	20.903025
763.205139	-2.998300	3.645700	-10.930000	24.943363	0.001015	20.879391
764.203419	-3.016800	3.645100	-10.995000	24.965341	0.001015	20.886277
765.204360	-2.987400	3.645900	-10.891000	24.969467	0.001012	20.879513
766.205976	-2.982200	3.645200	-10.870000	24.968572	0.001014	20.895209
767.204475	-2.994300	3.643600	-10.909000	24.966210	0.001012	20.889520
768.204684	-2.996500	3.644600	-10.919000	24.976900	0.001012	20.895033
769.206314	-3.009300	3.645500	-10.967000	24.979112	0.001013	20.880185
770.204846	-3.008500	3.643900	-10.961000	24.969814	0.001012	20.881284
771.204834	-3.022100	3.642800	-11.008000	24.956236	0.001011	20.876665
772.206863	-2.988000	3.645100	-10.891000	24.968197	0.001011	20.900048
773.205797	-3.001200	3.644900	-10.936000	24.997982	0.001010	20.897702
774.206126	-2.998100	3.641800	-10.916000	24.993555	0.001009	20.918861
775.211583	-3.019000	3.642600	-10.996000	25.006113	0.001009	20.893536
776.204359	-2.992500	3.644700	-10.905000	25.003328	0.001013	20.902120
777.205390	-3.013700	3.641500	-10.973000	24.998826	0.001010	20.867732
778.207147	-3.002600	3.642700	-10.937000	25.008746	0.001009	20.890964
779.205449	-2.990400	3.642400	-10.891000	25.029459	0.001009	20.916494
780.206303	-2.979300	3.643000	-10.853000	25.050415	0.001008	20.886323
781.205856	-3.003600	3.641200	-10.936000	25.035847	0.001009	20.878813
782.205740	-2.997600	3.640600	-10.912000	25.000916	0.001008	20.879786
783.207938	-2.996600	3.639300	-10.905000	24.983614	0.001007	20.892289
784.206147	-3.010100	3.640000	-10.956000	24.979441	0.001010	20.872455
785.208976	-2.987300	3.639500	-10.872000	24.931926	0.001007	20.894462
786.208488	-2.993600	3.639400	-10.894000	24.902135	0.001009	20.868357
787.214073	-2.998700	3.639000	-10.910000	24.894755	0.001005	20.857158
788.206696	-2.989600	3.639000	-10.878000	24.881924	0.001005	20.869884
789.208726	-2.990800	3.639500	-10.884000	24.867726	0.001006	20.854686
790.210837	-3.005600	3.637700	-10.933000	24.875310	0.001005	20.859927
791.207015	-2.992200	3.636600	-10.881000	24.895972	0.001005	20.871180
792.208103	-3.010600	3.637100	-10.949000	24.943066	0.001005	20.881938
793.209568	-2.998200	3.636800	-10.904000	24.973722	0.001004	20.876198
794.205978	-2.979000	3.637800	-10.836000	24.992592	0.001004	20.856260
795.208876	-2.999200	3.637400	-10.908000	25.005368	0.001006	20.861022
796.208826	-2.992100	3.635800	-10.878000	25.009301	0.001003	20.864496
797.212871	-2.992500	3.635800	-10.878000	25.035478	0.001003	20.866590
798.207769	-3.000600	3.635700	-10.909000	25.069588	0.001003	20.850570
799.209722	-3.010400	3.634900	-10.941000	25.087312	0.001004	20.850344
800.208227	-2.998000	3.635700	-10.899000	25.066503	0.001004	20.860749
801.212272	-2.989100	3.633900	-10.861000	25.070851	0.001003	20.850416
802.208483	-2.996400	3.634400	-10.888000	25.074408	0.001002	20.852564
803.209014	-2.991700	3.634700	-10.872000	25.092010	0.001003	20.861698
804.207010	-2.979700	3.635200	-10.830000	25.108066	0.001002	20.843677
805.208663	-2.976200	3.634700	-10.816000	25.129224	0.001001	20.857330
806.208782	-2.983800	3.635400	-10.846000	25.136606	0.000999	20.856680
807.208215	-3.004000	3.632600	-10.911000	25.135439	0.001000	20.844130
808.211551	-3.009800	3.632100	-10.931000	25.146846	0.000999	20.843727
809.209171	-3.007500	3.632300	-10.923000	25.128523	0.000997	20.835764
810.211635	-3.011100	3.632200	-10.935000	25.108363	0.000999	20.834018
811.210363	-2.999400	3.633100	-10.896000	25.095560	0.000999	20.839658
812.210155	-3.014000	3.631700	-10.945000	25.115469	0.000999	20.855376
813.217086	-3.002100	3.632000	-10.902000	25.119004	0.000998	20.832373
814.209803	-3.026800	3.630700	-10.988000	25.132895	0.001000	20.835886
815.210600	-2.990100	3.630600	-10.854000	25.129664	0.000998	20.830272
816.212481	-3.020700	3.630000	-10.964000	25.164665	0.000996	20.818943
817.210936	-2.987800	3.630100	-10.845000	25.166261	0.000995	20.845200
818.209575	-2.981100	3.630700	-10.822000	25.176126	0.000998	20.837560
819.215157	-3.011400	3.630400	-10.932000	25.160490	0.000996	20.829449
820.208346	-3.039700	3.628800	-11.029000	25.119047	0.000996	20.820563
821.208540	-3.014500	3.629900	-10.941000	25.115841	0.000994	20.820189
822.209542	-3.007200	3.628900	-10.912000	25.109576	0.000994	20.835236
823.209543	-3.001400	3.628000	-10.888000	25.104555	0.000996	20.824507
824.210541	-2.978500	3.628300	-10.806000	25.100380	0.000994	20.819367
825.210720	-3.016100	3.627900	-10.940000	25.068879	0.000995	20.831368
826.210685	-2.993700	3.628400	-10.861000	25.103335	0.000993	20.828498
827.210310	-3.000500	3.626800	-10.881000	25.102838	0.000994	20.828472
828.210763	-3.010600	3.627100	-10.919000	25.094586	0.000994	20.828724
829.213629	-2.990400	3.626500	-10.844000	25.115720	0.000992	20.838085
830.210255	-2.995000	3.625800	-10.858000	25.118453	0.000992	20.821863
831.215038	-3.005500	3.626600	-10.899000	25.083472	0.000992	20.817567
832.242040	-2.984000	3.626500	-10.820000	25.097793	0.000992	20.829572
833.214040	-2.988600	3.626100	-10.836000	25.115269	0.000989	20.842373
834.214040	-3.005500	3.624700	-10.892000	25.129861	0.000989	20.822883
835.216039	-3.003600	3.624800	-10.886000	25.142417	0.000989	20.827901
836.214039	-3.018900	3.624500	-10.940000	25.142889	0.000992	20.818893
837.215039	-3.002800	3.625000	-10.884000	25.157255	0.000988	20.808659
838.217041	-3.003600	3.622700	-10.880000	25.173113	0.000990	20.809406
839.215040	-3.029200	3.623000	-10.974000	25.209630	0.000989	20.822359
840.215038	-3.028000	3.623300	-10.970000	25.225416	0.000989	20.828250
841.218040	-3.022200	3.621400	-10.944000	25.180123	0.000988	20.826400
842.216059	-2.967700	3.623900	-10.753000	25.167918	0.000988	20.837855
843.216737	-2.995000	3.622300	-10.847000	25.159091	0.000986	20.820459
844.219840	-2.996400	3.624200	-10.858000	25.109426	0.000987	20.811852
845.218006	-2.996000	3.621500	-10.849000	25.111462	0.000987	20.819112
846.217887	-3.010800	3.621700	-10.903000	25.131596	0.000987	20.817987
847.219104	-3.001600	3.621600	-10.869000	25.159116	0.000988	20.820010
848.218418	-3.024200	3.620800	-10.950000	25.185962	0.000986	20.821357
849.219308	-2.989900	3.621400	-10.826000	25.199880	0.000986	20.793605
850.219890	-2.987500	3.622500	-10.821000	25.203684	0.000984	20.818760
851.219999	-2.993800	3.621400	-10.841000	25.218149	0.000985	20.813842
852.219938	-3.004000	3.619600	-10.872000	25.257670	0.000985	20.838821
853.219624	-3.000600	3.620000	-10.861000	25.259262	0.000984	20.802014
854.220336	-2.994100	3.618900	-10.834000	25.245488	0.000984	20.801461
855.220338	-3.017400	3.619900	-10.921000	25.229108	0.000985	20.819155
856.223984	-3.002800	3.618100	-10.863000	25.234328	0.000983	20.820128
857.222498	-3.004400	3.617800	-10.869000	25.241488	0.000982	20.806454
858.222010	-2.998000	3.617500	-10.844000	25.238303	0.000980	20.807050
859.221815	-2.984300	3.616700	-10.792000	25.204750	0.000981	20.797545
860.222678	-2.989600	3.618400	-10.816000	25.190552	0.000982	20.820750
861.238673	-2.978700	3.617300	-10.774000	25.190159	0.000980	20.815613
862.222208	-2.985100	3.616800	-10.795000	25.204224	0.000981	20.806026
863.224306	-2.993100	3.617100	-10.824000	25.187193	0.000982	20.802678
864.222360	-2.990400	3.615900	-10.813000	25.176534	0.000981	20.810469
865.222947	-3.009200	3.616800	-10.883000	25.158336	0.000980	20.822546
866.223872	-3.024700	3.614900	-10.933000	25.157391	0.000981	20.801683
867.223221	-2.997900	3.614900	-10.836000	25.187121	0.000983	20.811141
868.225368	-3.008400	3.614000	-10.871000	25.193036	0.000979	20.797164
869.224080	-2.985500	3.615300	-10.792000	25.234425	0.000980	20.803630
870.226521	-3.013200	3.614200	-10.888000	25.246579	0.000980	20.811091
871.223486	-3.017000	3.614100	-10.903000	25.252572	0.000979	20.817107
872.223490	-2.988500	3.615200	-10.802000	25.236214	0.000979	20.807797
873.227003	-2.994500	3.614200	-10.822000	25.221774	0.000978	20.800886
874.226519	-3.012400	3.613300	-10.884000	25.232786	0.000978	20.792976
875.223736	-2.988000	3.613300	-10.795000	25.234375	0.000978	20.810218
876.224763	-3.006200	3.613000	-10.861000	25.263484	0.000977	20.800088
877.224776	-2.991600	3.614200	-10.812000	25.281330	0.000976	20.796669
878.226194	-2.990200	3.612400	-10.801000	25.325227	0.000975	20.800915
879.226784	-2.985600	3.612700	-10.785000	25.312999	0.000976	20.802387
880.224163	-2.995000	3.611900	-10.816000	25.318963	0.000976	20.788935
881.223257	-2.987600	3.612000	-10.791000	25.287798	0.000974	20.808853
882.225415	-3.004200	3.611500	-10.848000	25.242983	0.000975	20.822179
883.226871	-2.978400	3.612900	-10.760000	25.207040	0.000973	20.787516
884.226614	-3.006200	3.610500	-10.853000	25.166998	0.000974	20.784775
885.225319	-3.015900	3.610400	-10.888000	25.161928	0.000974	20.790591
886.226420	-2.997300	3.610900	-10.822000	25.183829	0.000973	20.794560
887.227683	-3.006400	3.609900	-10.852000	25.191136	0.000970	20.804266
888.226630	-3.003300	3.608600	-10.837000	25.191837	0.000972	20.770356
889.229053	-2.978800	3.609400	-10.751000	25.219205	0.000971	20.799729
890.227503	-2.999500	3.609600	-10.825000	25.205011	0.000971	20.794014
891.226867	-2.994800	3.608600	-10.806000	25.242074	0.000972	20.811784
892.228201	-3.024600	3.607500	-10.910000	25.213319	0.000972	20.792398
893.227391	-2.996800	3.608900	-10.815000	25.207008	0.000971	20.783216
894.229113	-3.002600	3.606900	-10.829000	25.207008	0.000970	20.805027
895.233199	-3.011100	3.606500	-10.858000	25.210986	0.000970	20.794323
896.229128	-3.005400	3.606400	-10.838000	25.243176	0.000970	20.803882
897.232929	-3.012400	3.605200	-10.859000	25.273451	0.000969	20.798716
898.233624	-2.983200	3.606500	-10.756000	25.294456	0.000969	20.791356
899.230543	-2.976700	3.607100	-10.736000	25.324833	0.000966	20.785821
900.232538	-2.988200	3.605800	-10.773000	25.304030	0.000968	20.779157
901.233206	-3.002500	3.604000	-10.820000	25.308305	0.000966	20.791036
902.231648	-2.994900	3.604800	-10.795000	25.340743	0.000966	20.779035
903.230287	-2.979600	3.605300	-10.741000	25.349243	0.000966	20.798001
904.231499	-2.997500	3.604200	-10.803000	25.346510	0.000964	20.796680
905.230501	-2.997700	3.602600	-10.798000	25.313679	0.000964	20.779836
906.233545	-3.010200	3.603800	-10.847000	25.334182	0.000965	20.795681
907.230194	-3.000100	3.602600	-10.807000	25.267251	0.000964	20.769732
908.234444	-2.996300	3.603700	-10.796000	25.250150	0.000966	20.803770
909.231253	-3.008000	3.602400	-10.834000	25.252661	0.000962	20.795861
910.230967	-3.016600	3.601500	-10.863000	25.263423	0.000962	20.796708
911.234650	-2.995800	3.601700	-10.788000	25.260611	0.000964	20.807161
912.231650	-3.020100	3.602800	-10.880000	25.264740	0.000962	20.789495
913.231246	-3.027400	3.602500	-10.903000	25.294542	0.000963	20.798080
914.230155	-2.996600	3.601300	-10.790000	25.304609	0.000961	20.783058
915.230178	-2.981400	3.601700	-10.737000	25.334979	0.000962	20.772300
916.230178	-2.996200	3.601000	-10.788000	25.313185	0.000962	20.779341
917.233112	-3.008700	3.599300	-10.828000	25.277841	0.000961	20.779890
918.232147	-3.004800	3.600800	-10.819000	25.254747	0.000960	20.779937
919.232141	-3.012500	3.598700	-10.841000	25.255269	0.000961	20.777142
920.231917	-3.013100	3.599000	-10.842000	25.226364	0.000962	20.787002
921.232934	-3.040300	3.597500	-10.935000	25.222983	0.000958	20.791669
922.232913	-3.026600	3.597500	-10.888000	25.229917	0.000959	20.773974
923.232914	-3.029000	3.597800	-10.897000	25.234071	0.000959	20.786205
924.232365	-3.007800	3.597900	-10.821000	25.261960	0.000959	20.787179
925.232329	-3.007800	3.597500	-10.820000	25.274314	0.000958	20.780616
926.232328	-3.001500	3.598000	-10.798000	25.272847	0.000957	20.758280
927.234331	-3.016200	3.597400	-10.849000	25.235044	0.000957	20.767267
928.233818	-3.021400	3.596400	-10.865000	25.240511	0.000955	20.778446
929.232784	-3.002800	3.595600	-10.795000	25.210782	0.000956	20.776575
930.234684	-3.017000	3.595000	-10.845000	25.248937	0.000954	20.771732
931.233683	-3.003900	3.595200	-10.799000	25.277673	0.000954	20.782566
932.233727	-2.990200	3.595000	-10.748000	25.325470	0.000952	20.781244
933.239730	-2.974900	3.596500	-10.698000	25.318065	0.000951	20.780921
934.234727	-3.011800	3.594700	-10.825000	25.273598	0.000953	20.785587
935.239411	-3.026500	3.594200	-10.877000	25.304270	0.000952	20.774656
936.235411	-3.015200	3.594200	-10.836000	25.318365	0.000952	20.770791
937.235410	-3.016600	3.594400	-10.842000	25.298209	0.000952	20.774736
938.240410	-2.966700	3.593500	-10.659000	25.256869	0.000952	20.780170
939.235410	-2.995500	3.594300	-10.765000	25.256400	0.000949	20.760259
940.236780	-3.000400	3.592500	-10.778000	25.271834	0.000950	20.771962
941.237781	-2.990800	3.592900	-10.744000	25.315231	0.000949	20.751523
942.238119	-3.012700	3.592300	-10.822000	25.350824	0.000948	20.779201
943.241204	-3.023000	3.590400	-10.853000	25.365409	0.000950	20.766818
944.238173	-3.004000	3.592300	-10.790000	25.371498	0.000949	20.757285
945.237175	-2.989400	3.592900	-10.738000	25.354924	0.000949	20.754867
946.239541	-3.014900	3.590400	-10.823000	25.391535	0.000949	20.759860
947.239282	-3.031800	3.589700	-10.882000	25.370307	0.000949	20.767469
948.240314	-3.005600	3.589900	-10.788000	25.373115	0.000947	20.767443
949.239279	-3.011800	3.590900	-10.814000	25.398815	0.000947	20.765748
950.239316	-2.999800	3.590200	-10.769000	25.389743	0.000948	20.759957
951.240889	-2.996200	3.590000	-10.755000	25.390387	0.000946	20.766294
952.241868	-3.034600	3.589500	-10.892000	25.441709	0.000945	20.758086
953.241858	-3.024900	3.587500	-10.851000	25.420511	0.000944	20.773309
954.241850	-3.019100	3.587600	-10.831000	25.447401	0.000944	20.773758
955.241851	-2.987500	3.587300	-10.716000	25.416140	0.000942	20.760385
956.246204	-2.980900	3.590400	-10.702000	25.402024	0.000943	20.773712
957.243206	-2.987700	3.589000	-10.721000	25.364046	0.000943	20.754544
958.244561	-2.977200	3.587800	-10.681000	25.402421	0.000941	20.751350
959.247438	-2.977700	3.588700	-10.685000	25.398396	0.000942	20.764854
960.245440	-2.987200	3.586100	-10.712000	25.412437	0.000944	20.771840
961.247294	-2.992000	3.587700	-10.734000	25.420021	0.000939	20.755273
962.244294	-2.999900	3.586100	-10.756000	25.432470	0.000941	20.761610
963.244327	-3.019500	3.585000	-10.823000	25.412788	0.000940	20.752751
964.248324	-2.980800	3.585900	-10.688000	25.411743	0.000940	20.745064
965.248482	-2.992500	3.585500	-10.728000	25.434956	0.000937	20.763158
966.246539	-2.989500	3.585400	-10.717000	25.426707	0.000938	20.764358
967.248538	-2.985100	3.585700	-10.703000	25.397606	0.000938	20.757421
968.247539	-2.987100	3.584300	-10.705000	25.409783	0.000938	20.756847
969.248787	-3.002600	3.582700	-10.756000	25.411940	0.000937	20.751900
970.253789	-3.004000	3.585800	-10.769000	25.399616	0.000936	20.754224
971.249451	-3.006600	3.583900	-10.774000	25.425018	0.000935	20.765507
972.249451	-2.974800	3.584300	-10.661000	25.402077	0.000936	20.769972
973.250453	-3.004500	3.583000	-10.763000	25.396307	0.000935	20.749953
974.251152	-2.987400	3.582700	-10.702000	25.380281	0.000933	20.742395
975.251132	-2.985500	3.582800	-10.695000	25.370611	0.000933	20.754023
976.251835	-3.008800	3.582000	-10.776000	25.390172	0.000933	20.766553
977.254835	-2.988100	3.581100	-10.698000	25.415617	0.000933	20.744213
978.251837	-2.980900	3.581100	-10.673000	25.410302	0.000932	20.740297
979.252358	-3.000600	3.581300	-10.745000	25.457420	0.000932	20.743042
980.254362	-3.011200	3.578500	-10.774000	25.440769	0.000932	20.765202
981.252244	-3.022700	3.578700	-10.817000	25.411718	0.000930	20.764954
982.254247	-2.997600	3.581800	-10.734000	25.407515	0.000930	20.743663
983.252245	-3.022800	3.578300	-10.816000	25.383980	0.000931	20.744213
984.252244	-3.025000	3.578700	-10.824000	25.420615	0.000930	20.733583
985.252243	-2.987100	3.579900	-10.692000	25.398074	0.000929	20.743193
986.258244	-3.013900	3.579000	-10.786000	25.422006	0.000928	20.732610
987.253243	-3.021900	3.576300	-10.806000	25.414154	0.000928	20.750330
988.254244	-2.985700	3.577800	-10.681000	25.440397	0.000928	20.752026
989.253553	-3.009700	3.577100	-10.764000	25.425362	0.000928	20.752575
990.254425	-2.990900	3.578100	-10.701000	25.419001	0.000928	20.748559
991.257423	-3.016900	3.577100	-10.791000	25.379061	0.000926	20.748283
992.254423	-3.004600	3.576600	-10.745000	25.357443	0.000927	20.733213
993.254446	-2.985400	3.576000	-10.674000	25.354037	0.000926	20.739277
994.254478	-3.019000	3.574600	-10.790000	25.348220	0.000927	20.767102
995.254054	-2.991500	3.575100	-10.694000	25.362787	0.000925	20.745693
996.253052	-3.008000	3.575800	-10.755000	25.381154	0.000924	20.745643
997.254417	-3.016800	3.573800	-10.780000	25.430388	0.000924	20.748613
998.255414	-2.979600	3.574500	-10.649000	25.405737	0.000922	20.751361
999.255415	-2.976200	3.574900	-10.639000	25.445648	0.000922	20.744022
1000.255980	-3.006500	3.572900	-10.741000	25.410931	0.000923	20.748516
1001.257044	-2.999400	3.574200	-10.719000	25.452438	0.000922	20.755108
1002.257555	-2.994600	3.573100	-10.699000	25.483798	0.000922	20.761470
1003.257436	-2.980700	3.573500	-10.651000	25.483923	0.000922	20.740258
1004.257720	-2.999400	3.573400	-10.717000	25.450499	0.000921	20.733720
1005.261352	-3.029600	3.571700	-10.820000	25.445530	0.000920	20.754336
1006.259531	-3.018000	3.570300	-10.774000	25.434645	0.000919	20.741982
1007.261228	-3.011300	3.572000	-10.755000	25.458501	0.000917	20.746972
1008.261368	-3.014700	3.572600	-10.768000	25.490859	0.000919	20.765242
1009.262166	-3.023000	3.571300	-10.795000	25.485765	0.000917	20.720296
1010.260118	-3.014700	3.570300	-10.762000	25.516881	0.000919	20.744432
1011.260291	-2.996500	3.569900	-10.696000	25.535839	0.000916	20.747823
1012.263080	-3.015000	3.569000	-10.759000	25.562007	0.000916	20.764146
1013.262455	-3.004200	3.568800	-10.719000	25.512160	0.000919	20.747277
1014.262126	-2.989400	3.569400	-10.669000	25.519414	0.000916	20.749346
1015.261864	-3.009800	3.568900	-10.740000	25.515665	0.000915	20.739892
1016.261669	-3.012200	3.569800	-10.752000	25.520065	0.000914	20.742888
1017.261396	-2.979100	3.569400	-10.632000	25.538675	0.000914	20.744982
1018.262568	-3.014300	3.568500	-10.756000	25.570859	0.000913	20.751699
1019.261490	-3.023600	3.566900	-10.784000	25.563506	0.000913	20.750004
1020.263858	-3.005600	3.567500	-10.721000	25.602470	0.000913	20.747884
1021.261415	-2.989900	3.566900	-10.664000	25.573224	0.000913	20.735107
1022.263497	-3.003400	3.566300	-10.710000	25.549864	0.000911	20.780875
1023.266068	-2.972000	3.569500	-10.607000	25.520244	0.000909	20.758241
1024.264069	-3.011300	3.566100	-10.737000	25.469948	0.000909	20.741871
1025.263909	-3.000300	3.564900	-10.696000	25.454788	0.000909	20.752253
1026.265971	-3.001400	3.566100	-10.702000	25.426482	0.000909	20.751804
1027.266087	-2.998200	3.565000	-10.687000	25.407369	0.000909	20.754896
1028.265924	-2.989000	3.566700	-10.660000	25.342779	0.000907	20.732714
1029.269595	-3.012900	3.564300	-10.738000	25.325528	0.000906	20.758068
1030.267443	-2.997700	3.564800	-10.684000	25.301941	0.000906	20.745291
1031.266290	-3.003400	3.565400	-10.706000	25.303233	0.000908	20.741372
1032.266949	-3.003200	3.563800	-10.702000	25.313472	0.000908	20.750704
1033.266578	-3.012900	3.564400	-10.738000	25.368150	0.000907	20.752500
1034.269065	-2.985700	3.563400	-10.638000	25.430510	0.000904	20.770548
1035.266146	-2.999800	3.562400	-10.684000	25.443305	0.000905	20.746412
1036.267503	-2.994700	3.563400	-10.670000	25.495098	0.000902	20.741997
1037.266073	-2.986700	3.561400	-10.635000	25.500764	0.000904	20.735358
1038.267410	-2.987400	3.563100	-10.641000	25.514757	0.000901	20.761266
1039.268482	-3.021800	3.560100	-10.756000	25.505561	0.000902	20.756772
1040.268002	-3.014200	3.561000	-10.733000	25.496167	0.000901	20.753503
1041.268521	-2.997400	3.560900	-10.673000	25.506204	0.000900	20.761686
1042.267859	-2.994800	3.561600	-10.665000	25.547854	0.000901	20.753251
1043.268375	-2.992600	3.559100	-10.650000	25.543955	0.000898	20.756448
1044.269135	-3.020200	3.559800	-10.750000	25.589601	0.000898	20.764358
1045.267890	-3.003800	3.559400	-10.691000	25.615321	0.000899	20.755101
1046.268294	-3.017600	3.557400	-10.733000	25.639445	0.000898	20.757519
1047.268080	-2.980100	3.560000	-10.607000	25.647746	0.000898	20.749735
1048.268930	-3.017500	3.558500	-10.737000	25.687201	0.000898	20.760913
1049.269019	-3.003300	3.557800	-10.684000	25.704371	0.000897	20.754925
1050.268994	-3.013000	3.557200	-10.717000	25.700097	0.000896	20.751107
1051.268428	-3.015500	3.557100	-10.726000	25.742633	0.000896	20.760640
1052.270680	-3.005600	3.556000	-10.686000	25.738138	0.000897	20.760393
1053.268386	-3.014900	3.557500	-10.724000	25.708097	0.000898	20.758194
1054.268580	-3.006100	3.556800	-10.692000	25.708791	0.000894	20.756520
1055.270692	-3.032700	3.554900	-10.779000	25.685860	0.000892	20.760989
1056.268898	-3.026200	3.555700	-10.758000	25.669662	0.000894	20.764161
1057.268874	-2.995700	3.556000	-10.652000	25.681786	0.000893	20.764010
1058.268545	-3.008200	3.555800	-10.696000	25.697415	0.000893	20.788717
1059.268706	-3.010600	3.554200	-10.699000	25.692322	0.000894	20.767480
1060.270315	-3.021500	3.554200	-10.738000	25.730088	0.000891	20.752781
1061.269604	-3.023600	3.553400	-10.743000	25.711030	0.000892	20.756398
1062.273390	-2.997800	3.553200	-10.651000	25.745122	0.000892	20.765512
1063.271016	-2.984900	3.553600	-10.606000	25.733718	0.000893	20.765436
1064.270481	-3.002100	3.553900	-10.668000	25.727087	0.000888	20.767785
1065.274279	-2.985600	3.554700	-10.612000	25.747829	0.000890	20.769179
1066.270533	-2.992500	3.552200	-10.629000	25.738517	0.000887	20.775947
1067.270958	-3.029900	3.553600	-10.766000	25.735091	0.000890	20.777721
1068.272480	-2.982700	3.552200	-10.594000	25.705769	0.000887	20.780512
1069.271715	-2.998400	3.551000	-10.646000	25.697050	0.000888	20.771755
1070.272008	-3.007400	3.550900	-10.678000	25.691586	0.000886	20.787603
1071.275720	-3.007700	3.549500	-10.675000	25.672878	0.000887	20.802004
1072.272530	-2.996700	3.549700	-10.636000	25.649724	0.000885	20.775430
1073.275442	-2.979800	3.550300	-10.578000	25.658193	0.000884	20.780143
1074.272076	-3.006700	3.548500	-10.668000	25.674248	0.000884	20.781095
1075.276290	-2.986900	3.550200	-10.602000	25.700237	0.000884	20.783965
1076.277153	-2.981600	3.549600	-10.581000	25.701904	0.000885	20.754818
1077.274154	-2.996300	3.549400	-10.634000	25.720536	0.000882	20.776852
1078.274836	-2.996200	3.548600	-10.630000	25.744239	0.000885	20.785488
1079.274754	-2.999700	3.548700	-10.644000	25.762177	0.000884	20.787384
1080.274608	-2.986800	3.549200	-10.600000	25.779421	0.000881	20.783368
1081.275550	-2.994900	3.547700	-10.624000	25.800641	0.000881	20.796623
1082.277349	-2.992800	3.547400	-10.615000	25.801406	0.000880	20.779848
1083.276336	-3.015000	3.546000	-10.691000	25.824489	0.000879	20.786440
1084.276891	-2.991600	3.545300	-10.606000	25.825687	0.000878	20.760616
1085.276605	-3.002200	3.547600	-10.649000	25.775523	0.000877	20.785617
1086.276606	-2.994800	3.546200	-10.619000	25.711946	0.000878	20.802364
1087.280734	-3.020000	3.545500	-10.707000	25.670478	0.000878	20.800542
1088.278321	-2.990000	3.545200	-10.598000	25.645161	0.000876	20.788865
1089.280884	-2.983900	3.544100	-10.574000	25.627789	0.000875	20.794651
1090.278884	-2.995700	3.544600	-10.618000	25.608286	0.000877	20.785969
1091.278883	-3.013400	3.542900	-10.675000	25.614399	0.000875	20.792582
1092.279920	-3.010200	3.542200	-10.663000	25.621802	0.000876	20.796699
1093.280608	-3.016700	3.542500	-10.686000	25.593254	0.000875	20.786045
1094.280646	-3.010600	3.541600	-10.661000	25.556453	0.000874	20.795553
1095.280962	-2.995000	3.542900	-10.610000	25.567981	0.000873	20.800018
1096.280963	-3.013100	3.541300	-10.669000	25.555555	0.000873	20.799393
1097.280964	-2.981200	3.543900	-10.563000	25.559833	0.000874	20.767653
1098.282021	-3.031600	3.541200	-10.734000	25.540572	0.000872	20.792406
1099.282027	-3.037900	3.540100	-10.752000	25.526407	0.000872	20.785294
1100.283022	-3.003800	3.541500	-10.637000	25.500164	0.000870	20.799242
1101.281021	-2.995200	3.542100	-10.608000	25.521987	0.000869	20.795553
1102.282022	-3.005600	3.540300	-10.640000	25.558964	0.000870	20.801868
1103.284022	-3.013300	3.540000	-10.666000	25.606573	0.000869	20.795154
1104.283581	-3.015400	3.538500	-10.669000	25.661033	0.000868	20.813815
1105.285582	-2.995300	3.539700	-10.601000	25.703703	0.000868	20.782230
1106.283738	-3.011300	3.537100	-10.650000	25.675575	0.000867	20.803290
1107.284502	-3.007500	3.537900	-10.638000	25.663276	0.000866	20.796153
1108.286504	-3.011400	3.537200	-10.650000	25.664538	0.000866	20.809275
1109.286502	-3.022200	3.537800	-10.691000	25.670579	0.000867	20.821505
1110.284504	-3.013300	3.536700	-10.656000	25.698481	0.000867	20.809702
1111.283821	-2.997700	3.538300	-10.606000	25.667796	0.000864	20.811599
1112.284248	-2.986200	3.536700	-10.560000	25.671026	0.000864	20.791135
1113.283195	-3.002300	3.535400	-10.613000	25.649334	0.000864	20.791160
1114.291192	-2.986400	3.536500	-10.560000	25.688371	0.000863	20.806186
1115.284420	-2.984700	3.537200	-10.556000	25.678332	0.000863	20.820758
1116.289645	-2.984000	3.536000	-10.551000	25.709790	0.000862	20.831491
1117.284695	-2.993600	3.535300	-10.581000	25.700445	0.000862	20.808829
1118.284915	-2.988700	3.534800	-10.563000	25.737691	0.000862	20.814472
1119.286604	-3.004900	3.535100	-10.621000	25.732424	0.000860	20.808233
1120.285822	-3.004800	3.534300	-10.619000	25.724002	0.000860	20.829645
1121.285822	-3.004500	3.534200	-10.617000	25.722961	0.000860	20.819117
1122.286885	-2.997800	3.533400	-10.591000	25.727954	0.000859	20.815597
1123.285484	-2.980900	3.533200	-10.530000	25.730464	0.000858	20.810532
1124.285100	-2.998700	3.532900	-10.593000	25.763830	0.000857	20.819864
1125.287500	-3.017300	3.532300	-10.657000	25.781996	0.000859	20.812982
1126.287871	-3.004600	3.531300	-10.610000	25.815335	0.000857	20.811858
1127.289742	-3.002500	3.532100	-10.604000	25.781202	0.000856	20.803176
1128.290062	-3.007100	3.532400	-10.621000	25.748155	0.000855	20.823560
1129.290060	-3.003700	3.532300	-10.609000	25.770124	0.000856	20.814333
1130.291272	-3.025100	3.529000	-10.674000	25.756878	0.000855	20.822838
1131.291926	-2.981200	3.531300	-10.527000	25.755386	0.000855	20.813280
1132.293935	-3.020100	3.528900	-10.656000	25.739362	0.000853	20.820417
1133.290938	-3.013600	3.529200	-10.635000	25.733726	0.000854	20.826610
1134.292124	-3.012400	3.528700	-10.629000	25.719814	0.000852	20.813586
1135.293913	-3.009200	3.529700	-10.621000	25.722049	0.000853	20.831003
1136.293836	-2.982800	3.528200	-10.523000	25.748517	0.000853	20.826769
1137.290106	-3.016800	3.526900	-10.639000	25.754997	0.000850	20.836596
1138.291331	-3.011600	3.526900	-10.621000	25.776142	0.000852	20.836499
1139.292382	-3.011500	3.527600	-10.622000	25.806077	0.000849	20.837171
1140.291901	-3.008700	3.525400	-10.606000	25.798550	0.000848	20.840041
1141.298022	-3.012600	3.525900	-10.621000	25.792288	0.000849	20.829010
1142.292245	-3.006300	3.526600	-10.601000	25.790228	0.000847	20.833579
1143.295248	-2.981500	3.526800	-10.514000	25.781188	0.000847	20.842042
1144.291758	-3.001300	3.527200	-10.585000	25.780963	0.000847	20.834703
1145.292790	-3.018900	3.523800	-10.636000	25.777562	0.000847	20.835080
1146.292520	-3.001700	3.526100	-10.583000	25.772195	0.000848	20.835853
1147.292504	-2.991300	3.527400	-10.550000	25.766083	0.000846	20.833033
1148.291506	-3.000900	3.524400	-10.576000	25.799355	0.000843	20.861237
1149.292718	-2.988700	3.524100	-10.532000	25.831845	0.000845	20.852623
1150.301434	-3.019600	3.522600	-10.635000	25.827401	0.000845	20.848159
1151.291427	-3.011700	3.523600	-10.611000	25.827301	0.000843	20.839050
1152.296428	-2.998400	3.523100	-10.563000	25.838929	0.000843	20.825601
1153.295427	-3.012800	3.521400	-10.609000	25.881481	0.000842	20.844639
1154.294476	-2.990900	3.522700	-10.535000	25.890628	0.000843	20.852405
1155.298477	-3.006900	3.522800	-10.592000	25.885904	0.000841	20.841496
1156.296586	-3.019200	3.521100	-10.629000	25.899842	0.000840	20.864031
1157.296319	-2.977900	3.522600	-10.489000	25.899445	0.000840	20.843719
1158.295530	-3.006300	3.520100	-10.581000	25.874551	0.000838	20.855220
1159.297532	-2.997000	3.521000	-10.551000	25.867300	0.000842	20.846514
1160.304223	-2.991600	3.521100	-10.533000	25.859226	0.000840	20.855946
1161.295223	-2.989000	3.520600	-10.522000	25.888565	0.000837	20.858866
1162.298528	-3.011100	3.517900	-10.592000	25.901362	0.000838	20.843748
1163.297952	-2.991900	3.521400	-10.535000	25.887721	0.000836	20.855174
1164.297956	-2.988900	3.520100	-10.519000	25.888043	0.000837	20.855971
1165.297976	-3.023800	3.519100	-10.640000	25.877738	0.000837	20.866007
1166.297482	-3.002400	3.518500	-10.563000	25.886283	0.000837	20.879807
1167.297483	-2.997700	3.517300	-10.543000	25.871280	0.000837	20.863787
1168.300973	-3.013400	3.516900	-10.596000	25.852500	0.000835	20.870052
1169.301033	-3.001600	3.518400	-10.560000	25.849417	0.000834	20.878334
1170.303036	-2.989100	3.517300	-10.512000	25.863628	0.000833	20.850885
1171.301133	-3.001400	3.516500	-10.553000	25.835804	0.000832	20.867505
1172.300134	-2.976500	3.518500	-10.473000	25.866760	0.000831	20.871100
1173.304645	-2.983100	3.515600	-10.486000	25.835833	0.000832	20.873223
1174.301682	-3.005300	3.516600	-10.567000	25.828181	0.000831	20.867907
1175.301649	-2.992800	3.515700	-10.521000	25.858218	0.000830	20.871528
1176.301643	-3.007600	3.514600	-10.569000	25.828753	0.000833	20.858051
1177.302645	-3.050800	3.511600	-10.711000	25.832057	0.000828	20.854258
1178.306644	-3.017600	3.514200	-10.604000	25.851957	0.000828	20.860972
1179.301651	-2.995000	3.514000	-10.523000	25.806371	0.000830	20.872078
1180.303659	-3.004200	3.512800	-10.553000	25.816187	0.000829	20.853490
1181.302659	-3.008900	3.513500	-10.571000	25.831639	0.000827	20.853838
1182.304663	-3.002300	3.511600	-10.542000	25.871859	0.000828	20.880490
1183.306664	-3.001100	3.513000	-10.542000	25.900672	0.000827	20.882408
1184.306661	-2.991200	3.512100	-10.505000	25.931008	0.000827	20.894390
1185.305663	-2.994400	3.510200	-10.510000	25.960942	0.000825	20.852394
1186.305659	-3.038200	3.510300	-10.664000	25.941541	0.000826	20.878421
1187.307662	-3.013500	3.508000	-10.571000	25.955700	0.000825	20.876525
1188.306659	-2.987300	3.510100	-10.484000	25.955529	0.000824	20.880619
1189.307661	-2.997700	3.510300	-10.520000	25.962336	0.000825	20.897415
1190.306664	-3.010700	3.509200	-10.564000	25.925820	0.000823	20.869740
1191.307697	-3.001400	3.509100	-10.531000	25.959780	0.000821	20.877778
1192.306659	-3.000500	3.508700	-10.527000	25.978215	0.000822	20.883497
1193.307659	-2.993500	3.509400	-10.504000	25.981290	0.000821	20.892749
1194.312664	-3.013000	3.507400	-10.566000	25.996746	0.000821	20.879830
1195.306664	-3.004100	3.506900	-10.534000	26.023200	0.000821	20.871795
1196.307661	-3.036800	3.506400	-10.647000	26.065898	0.000820	20.893831
1197.306703	-3.000400	3.506700	-10.519000	26.070442	0.000820	20.896973
1198.307011	-2.997100	3.506100	-10.506000	26.069995	0.000820	20.883723
1199.310073	-3.001200	3.507800	-10.526000	26.015874	0.000817	20.901416
1200.307073	-3.016500	3.505700	-10.573000	25.991955	0.000818	20.897774
1201.309074	-2.998000	3.504300	-10.505000	25.969456	0.000817	20.893188
1202.309133	-2.994900	3.504800	-10.496000	25.970099	0.000816	20.893360
1203.308131	-2.982700	3.505700	-10.455000	25.946652	0.000817	20.898252
1204.312135	-2.982100	3.504500	-10.450000	25.938850	0.000817	20.877614
1205.308135	-2.992300	3.505600	-10.487000	25.939797	0.000814	20.896108
1206.308134	-2.994600	3.504100	-10.492000	25.957310	0.000816	20.899477
1207.308134	-2.990100	3.502800	-10.473000	25.959992	0.000815	20.885577
1208.310134	-3.009000	3.502900	-10.539000	25.956466	0.000814	20.890095
1209.309133	-2.991500	3.502500	-10.477000	25.954629	0.000813	20.894413
1210.310133	-2.986600	3.503000	-10.459000	25.947403	0.000812	20.876249
1211.311134	-3.026100	3.502600	-10.598000	25.928324	0.000814	20.904969
1212.312131	-3.008100	3.500800	-10.530000	25.890966	0.000810	20.913905
1213.310132	-3.007500	3.500100	-10.526000	25.886518	0.000811	20.900903
1214.310134	-2.991300	3.500400	-10.470000	25.887412	0.000811	20.905120
1215.314828	-2.992400	3.500200	-10.473000	25.908254	0.000811	20.903773
1216.311826	-2.983100	3.500400	-10.439000	25.949391	0.000811	20.886780
1217.313825	-2.980700	3.500300	-10.432000	25.980765	0.000809	20.918298
1218.311828	-2.985200	3.499000	-10.445000	26.022643	0.000807	20.905846
1219.310830	-3.004200	3.498100	-10.508000	25.990204	0.000807	20.923987
1220.313829	-3.013700	3.498100	-10.540000	26.012911	0.000809	20.912663
1221.314409	-3.012700	3.498600	-10.540000	26.002303	0.000808	20.936142
1222.311410	-3.001000	3.497700	-10.495000	26.041624	0.000806	20.921121
1223.311167	-3.020600	3.496600	-10.559000	26.075727	0.000806	20.921247
1224.311162	-3.009100	3.495700	-10.517000	26.078859	0.000806	20.924394
1225.311164	-3.014400	3.494700	-10.533000	26.102504	0.000804	20.920177
1226.315166	-3.009600	3.496700	-10.521000	26.068481	0.000803	20.914915
1227.311166	-3.016900	3.494200	-10.541000	26.062471	0.000803	20.914567
1228.314649	-2.994800	3.495000	-10.465000	26.043866	0.000805	20.896350
1229.313014	-2.988900	3.493400	-10.440000	26.037209	0.000804	20.911945
1230.313020	-2.975800	3.493700	-10.395000	26.018678	0.000802	20.928887
1231.312107	-2.995900	3.495900	-10.472000	25.972875	0.000801	20.902312
1232.311375	-2.984400	3.494500	-10.428000	25.995357	0.000802	20.910199
1233.311422	-2.999500	3.493000	-10.476000	25.967065	0.000801	20.936300
1234.311423	-2.981900	3.492600	-10.414000	25.993966	0.000801	20.940093
1235.311941	-2.989500	3.492100	-10.439000	26.012247	0.000799	20.910099
1236.311240	-2.993600	3.491800	-10.452000	25.968306	0.000798	20.912419
1237.314239	-3.020200	3.491300	-10.543000	25.973576	0.000801	20.911076
1238.312757	-3.004500	3.491500	-10.489000	25.956435	0.000798	20.904288
1239.312990	-2.996600	3.491200	-10.461000	25.940760	0.000798	20.897075
1240.312869	-2.996800	3.491300	-10.462000	25.939173	0.000798	20.900222
1241.311206	-3.020000	3.490200	-10.538000	25.950550	0.000796	20.903591
1242.312563	-3.005700	3.490600	-10.489000	25.971538	0.000796	20.878211
1243.313895	-2.993700	3.489800	-10.447000	25.942352	0.000797	20.899148
1244.316642	-3.003300	3.488600	-10.476000	25.941061	0.000793	20.892162
1245.313640	-2.992500	3.489100	-10.441000	25.907204	0.000793	20.903666
1246.314464	-3.015700	3.487300	-10.515000	25.897171	0.000796	20.896907
1247.317672	-3.003500	3.488300	-10.476000	25.928422	0.000794	20.881836
1248.315691	-3.014400	3.488000	-10.514000	25.958681	0.000794	20.897062
1249.314691	-2.988600	3.487200	-10.421000	25.991096	0.000790	20.901178
1250.316334	-2.986700	3.486900	-10.414000	25.959007	0.000791	20.889803
1251.315379	-3.011300	3.486000	-10.495000	25.983001	0.000790	20.894943
1252.315055	-2.991500	3.485000	-10.424000	25.973884	0.000792	20.890051
1253.316141	-2.997000	3.486000	-10.447000	25.976845	0.000789	20.914360
1254.317785	-3.009000	3.484900	-10.485000	26.002301	0.000789	20.895366
1255.317306	-3.042400	3.482800	-10.594000	25.995894	0.000789	20.895094
1256.317669	-3.011300	3.485000	-10.493000	26.005533	0.000788	20.905251
1257.318842	-2.995200	3.484200	-10.435000	26.027689	0.000787	20.890529
1258.318139	-3.002000	3.485000	-10.460000	26.057474	0.000788	20.886790
1259.319115	-3.025700	3.483100	-10.538000	26.055061	0.000787	20.873934
1260.319170	-3.019500	3.482700	-10.515000	26.048304	0.000787	20.889903
1261.319171	-3.018600	3.481000	-10.507000	26.009062	0.000787	20.894573
1262.319607	-2.984500	3.482900	-10.394000	25.964399	0.000786	20.887634
1263.322825	-3.007000	3.479700	-10.462000	25.950687	0.000785	20.881919
1264.320128	-2.978300	3.482700	-10.371000	25.896285	0.000785	20.856190
1265.322632	-2.979800	3.480300	-10.369000	25.894672	0.000784	20.884915
1266.320083	-3.001700	3.481400	-10.449000	25.898519	0.000784	20.895891
1267.320499	-3.003400	3.480700	-10.453000	25.932355	0.000782	20.880572
1268.320081	-2.995400	3.480200	-10.423000	25.943632	0.000783	20.869617
1269.320169	-3.000600	3.478000	-10.435000	25.992616	0.000782	20.878999
1270.320320	-3.001200	3.478300	-10.437000	26.024261	0.000781	20.876653
1271.322120	-2.995300	3.480700	-10.425000	26.044775	0.000780	20.870238
1272.322119	-3.024600	3.478200	-10.519000	26.031707	0.000781	20.880342
1273.322590	-3.005600	3.477700	-10.451000	26.001086	0.000780	20.878974
1274.321639	-3.000800	3.478000	-10.436000	25.977856	0.000779	20.878395
1275.324219	-3.016900	3.477000	-10.488000	25.932669	0.000778	20.878517
1276.322340	-3.019800	3.477000	-10.499000	25.889623	0.000779	20.874627
1277.325626	-3.010400	3.476200	-10.464000	25.905098	0.000779	20.880216
1278.329667	-2.975000	3.478800	-10.347000	25.920527	0.000777	20.858259
1279.324667	-2.975500	3.474600	-10.337000	25.947000	0.000776	20.838388
1280.325931	-2.983300	3.474600	-10.366000	26.008679	0.000774	20.863370
1281.325782	-2.995100	3.474700	-10.406000	26.028446	0.000775	20.861420
1282.325999	-3.000600	3.473900	-10.423000	26.019008	0.000775	20.877066
1283.329000	-2.980600	3.473700	-10.353000	26.006612	0.000773	20.869354
1284.331197	-3.011200	3.473500	-10.458000	25.988603	0.000773	20.854580
1285.328754	-3.003700	3.473100	-10.430000	25.988010	0.000774	20.862993
1286.328682	-3.000400	3.471600	-10.415000	25.933756	0.000775	20.857799
1287.328645	-2.970100	3.473100	-10.315000	25.887652	0.000772	20.865536
1288.329238	-3.007000	3.471500	-10.438000	25.850757	0.000771	20.870672
1289.331236	-2.996000	3.472300	-10.402000	25.826592	0.000772	20.874372
1290.328236	-2.986900	3.469900	-10.363000	25.853364	0.000772	20.853851
1291.329271	-3.002000	3.470300	-10.417000	25.886579	0.000769	20.848337
1292.329238	-2.997000	3.470500	-10.399000	25.938822	0.000770	20.858621
1293.330240	-3.000100	3.469500	-10.407000	25.992504	0.000770	20.861344
1294.330237	-2.981000	3.468600	-10.339000	26.062646	0.000770	20.858323
1295.329238	-2.997500	3.470200	-10.400000	26.079631	0.000770	20.865431
1296.330237	-2.997300	3.467500	-10.392000	26.097217	0.000766	20.852281
1297.329239	-3.000100	3.467000	-10.401000	26.081469	0.000769	20.856373
1298.329237	-3.008000	3.466900	-10.427000	26.082638	0.000768	20.861340
1299.330237	-2.998600	3.468400	-10.400000	26.097760	0.000767	20.855198
1300.332236	-2.991300	3.467400	-10.371000	26.090288	0.000767	20.857174
1301.330238	-3.018000	3.466000	-10.459000	26.104345	0.000766	20.846168
1302.333237	-2.995900	3.467300	-10.387000	26.100173	0.000764	20.859045
1303.331237	-3.015000	3.466500	-10.451000	26.117111	0.000765	20.833392
1304.330236	-3.018400	3.465000	-10.457000	26.105014	0.000765	20.835460
1305.335238	-2.976500	3.466500	-10.317000	26.114251	0.000764	20.847587
1306.332236	-2.987900	3.464300	-10.350000	26.111817	0.000764	20.858890
1307.335238	-2.994100	3.465200	-10.375000	26.134096	0.000765	20.852353
1308.331244	-2.968600	3.465300	-10.285000	26.135636	0.000762	20.842996
1309.334240	-2.972200	3.464000	-10.295000	26.105360	0.000761	20.865205
1310.336238	-2.989300	3.463800	-10.353000	26.110948	0.000762	20.841423
1311.335236	-3.002700	3.463700	-10.400000	26.124933	0.000762	20.843621
1312.335237	-2.979900	3.463300	-10.319000	26.132755	0.000761	20.829670
1313.335236	-3.002700	3.461700	-10.392000	26.151952	0.000760	20.844217
1314.334237	-3.003700	3.461400	-10.396000	26.146043	0.000760	20.839228
1315.334237	-3.006200	3.459800	-10.400000	26.165536	0.000759	20.852177
1316.335237	-3.006500	3.459800	-10.401000	26.151083	0.000759	20.854724
1317.334239	-3.003600	3.460600	-10.393000	26.157961	0.000759	20.859264
1318.337237	-2.994900	3.461200	-10.365000	26.161665	0.000758	20.839279
1319.337237	-3.000600	3.459500	-10.379000	26.179374	0.000757	20.841901
1320.336236	-3.001400	3.458600	-10.380000	26.192657	0.000756	20.843869
1321.338236	-3.012400	3.456700	-10.413000	26.236142	0.000757	20.857694
1322.338237	-3.011200	3.458300	-10.413000	26.210909	0.000756	20.832813
1323.337235	-3.030800	3.457300	-10.476000	26.184239	0.000754	20.840626
1324.337235	-3.018300	3.458200	-10.437000	26.167206	0.000753	20.851958
1325.337236	-2.992600	3.459400	-10.352000	26.130024	0.000754	20.852055
1326.337241	-2.993900	3.457300	-10.350000	26.133206	0.000754	20.841976
1327.343235	-3.024900	3.455000	-10.450000	26.122603	0.000751	20.843650
1328.340236	-3.002200	3.456100	-10.375000	26.128412	0.000751	20.836685
1329.338236	-3.011200	3.455600	-10.405000	26.138643	0.000753	20.824207
1330.338236	-3.008600	3.453500	-10.389000	26.154937	0.000750	20.842001
1331.339236	-3.008800	3.454300	-10.392000	26.172818	0.000751	20.841477
1332.339288	-3.026600	3.453200	-10.450000	26.167552	0.000751	20.834764
1333.338618	-3.004100	3.454500	-10.376000	26.160453	0.000749	20.843277
1334.340416	-2.982900	3.454000	-10.300000	26.140012	0.000747	20.837436
1335.340406	-2.995700	3.454600	-10.347000	26.131251	0.000750	20.831003
1336.341861	-2.988200	3.452600	-10.316000	26.103155	0.000746	20.850662
1337.343484	-2.979500	3.451900	-10.284000	26.078023	0.000748	20.833945
1338.346281	-2.979700	3.451400	-10.282000	26.074640	0.000748	20.820116
1339.342511	-2.981500	3.450700	-10.287000	26.066025	0.000747	20.826632
1340.342368	-3.001800	3.451100	-10.357000	26.063143	0.000747	20.855504
1341.344370	-2.988000	3.451200	-10.311000	26.068981	0.000744	20.849042
1342.345820	-3.015800	3.450000	-10.403000	26.090314	0.000745	20.827328
1343.347823	-3.003700	3.449600	-10.361000	26.112489	0.000744	20.824480
1344.345920	-3.010400	3.449100	-10.381000	26.133181	0.000745	20.848115
1345.345972	-2.990000	3.450100	-10.313000	26.151409	0.000742	20.812852
1346.344970	-2.988300	3.448500	-10.304000	26.165890	0.000744	20.834042
1347.345266	-3.002700	3.448400	-10.352000	26.156674	0.000743	20.816247
1348.351891	-3.000700	3.448000	-10.344000	26.157071	0.000743	20.846516
1349.346935	-3.000400	3.447200	-10.341000	26.149914	0.000741	20.812773
1350.346902	-2.998100	3.446100	-10.330000	26.184314	0.000743	20.834063
1351.346708	-2.990500	3.446600	-10.306000	26.140030	0.000740	20.854997
1352.347099	-3.024700	3.445400	-10.420000	26.124583	0.000739	20.822881
1353.346493	-2.988900	3.446000	-10.299000	26.133002	0.000741	20.821383
1354.348178	-2.999300	3.445700	-10.332000	26.172835	0.000740	20.837227
1355.350315	-3.011300	3.444300	-10.369000	26.183563	0.000739	20.820032
1356.347347	-3.003300	3.443600	-10.340000	26.214405	0.000736	20.816412
1357.348361	-2.993700	3.443200	-10.306000	26.230376	0.000738	20.794529
1358.351068	-2.994900	3.444300	-10.315000	26.230970	0.000737	20.813617
1359.351945	-3.035100	3.440600	-10.441000	26.225754	0.000738	20.835877
1360.349278	-3.009100	3.443200	-10.359000	26.188846	0.000736	20.817755
1361.349493	-2.987000	3.444500	-10.288000	26.183209	0.000735	20.824418
1362.349491	-3.001300	3.441900	-10.329000	26.166351	0.000734	20.787564
1363.349546	-3.029400	3.440300	-10.420000	26.186069	0.000733	20.848154
1364.352299	-2.980800	3.441400	-10.257000	26.209783	0.000733	20.829784
1365.350358	-3.004900	3.440400	-10.337000	26.204296	0.000734	20.836598
1366.353357	-3.001000	3.439600	-10.321000	26.188449	0.000734	20.808347
1367.349571	-3.018300	3.439300	-10.380000	26.179137	0.000732	20.806102
1368.349571	-3.005700	3.438800	-10.334000	26.172953	0.000733	20.797991
1369.350620	-3.006700	3.438900	-10.339000	26.145459	0.000732	20.816358
1370.350322	-3.025000	3.437200	-10.397000	26.186758	0.000732	20.806174
1371.350760	-3.012400	3.437700	-10.355000	26.206526	0.000732	20.788580
1372.350946	-2.977700	3.439400	-10.241000	26.197064	0.000731	20.818426
1373.352950	-3.014000	3.437300	-10.358000	26.166122	0.000729	20.814834
1374.351920	-3.002900	3.438300	-10.324000	26.123599	0.000731	20.803401
1375.353222	-3.002400	3.436200	-10.316000	26.083985	0.000731	20.803900
1376.351383	-3.003500	3.436500	-10.321000	26.089451	0.000728	20.812711
1377.351351	-3.020400	3.435800	-10.376000	26.108820	0.000730	20.813681
1378.351676	-3.012700	3.434400	-10.345000	26.155565	0.000731	20.804227
1379.351841	-2.974500	3.437400	-10.223000	26.176699	0.000728	20.813609
1380.353282	-2.978100	3.435500	-10.231000	26.201686	0.000726	20.813588
1381.352483	-3.000400	3.434500	-10.303000	26.213976	0.000728	20.812187
1382.354046	-2.996400	3.433200	-10.286000	26.184796	0.000728	20.790451
1383.351731	-2.985300	3.433100	-10.248000	26.187477	0.000725	20.815431
1384.352659	-3.004900	3.432900	-10.315000	26.166468	0.000728	20.810441
1385.355659	-3.005300	3.432500	-10.315000	26.196667	0.000726	20.807596
1386.356789	-3.014800	3.432600	-10.348000	26.194680	0.000724	20.820298
1387.355478	-2.995800	3.431200	-10.278000	26.226369	0.000725	20.817528
1388.355478	-2.987700	3.432900	-10.256000	26.265931	0.000725	20.807974
1389.354530	-3.004700	3.430500	-10.307000	26.260048	0.000724	20.800165
1390.356583	-2.988600	3.430500	-10.251000	26.252324	0.000724	20.812791
1391.356587	-3.002400	3.429700	-10.297000	26.236532	0.000721	20.791705
1392.356553	-2.988400	3.430500	-10.251000	26.235609	0.000722	20.807848
1393.360590	-3.030800	3.429400	-10.393000	26.236828	0.000723	20.804332
1394.356605	-2.988700	3.430200	-10.250000	26.224210	0.000722	20.797815
1395.356702	-3.000200	3.429300	-10.287000	26.211220	0.000721	20.804676
1396.363710	-2.995400	3.428600	-10.268000	26.168806	0.000719	20.807575
1397.357758	-3.003100	3.428300	-10.294000	26.158822	0.000719	20.796594
1398.358802	-3.009700	3.427200	-10.314000	26.163144	0.000719	20.811842
1399.357909	-3.014500	3.426200	-10.326000	26.184081	0.000718	20.784044
1400.357908	-3.010000	3.426300	-10.312000	26.146975	0.000717	20.787061
1401.370529	-3.012300	3.425500	-10.318000	26.114494	0.000717	20.792356
1402.362525	-2.990500	3.426700	-10.247000	26.078229	0.000717	20.802385
1403.357707	-3.013700	3.424300	-10.319000	26.081808	0.000715	20.779902
1404.357904	-3.000300	3.426000	-10.279000	26.085007	0.000717	20.794496
1405.358904	-3.025400	3.424100	-10.358000	26.122116	0.000714	20.793376
1406.357906	-2.991400	3.425500	-10.246000	26.152366	0.000715	20.783943
1407.359123	-2.998700	3.424300	-10.267000	26.146428	0.000713	20.786985
1408.359233	-3.032600	3.423000	-10.379000	26.171741	0.000714	20.814318
1409.359752	-2.997500	3.423800	-10.261000	26.176953	0.000713	20.778303
1410.359802	-2.995700	3.424300	-10.256000	26.195903	0.000713	20.801612
1411.360007	-3.003800	3.422800	-10.281000	26.192349	0.000711	20.782869
1412.362028	-3.008100	3.423100	-10.295000	26.212639	0.000710	20.786662
1413.364120	-3.017900	3.420800	-10.323000	26.208417	0.000712	20.799964
1414.359499	-2.979100	3.423800	-10.199000	26.227938	0.000710	20.779751
1415.359909	-3.000000	3.419900	-10.259000	26.186658	0.000710	20.789004
1416.360909	-2.997700	3.421800	-10.256000	26.138928	0.000708	20.794622
1417.360037	-3.006300	3.419500	-10.279000	26.088811	0.000708	20.782197
1418.368038	-2.993500	3.419700	-10.235000	26.038317	0.000708	20.780301
1419.361644	-2.994400	3.420400	-10.241000	26.016658	0.000707	20.780825
1420.362816	-2.994000	3.418700	-10.235000	25.999893	0.000707	20.802388
1421.361829	-2.995800	3.418600	-10.240000	25.983075	0.000708	20.797819
1422.361211	-2.997500	3.417100	-10.241000	25.978384	0.000706	20.776985
1423.365762	-3.011200	3.417600	-10.289000	26.021206	0.000706	20.781127
1424.362806	-2.995400	3.417400	-10.235000	26.014549	0.000704	20.794353
1425.363034	-3.017700	3.416100	-10.307000	26.062760	0.000704	20.795851
1426.362563	-3.019800	3.415500	-10.312000	26.083023	0.000704	20.771166
1427.362487	-2.996700	3.416900	-10.238000	26.095050	0.000702	20.786569
1428.366772	-3.017100	3.415600	-10.304000	26.097827	0.000703	20.779403
1429.363811	-2.985700	3.416000	-10.198000	26.064147	0.000702	20.795822
1430.366811	-3.018000	3.415700	-10.308000	26.058638	0.000702	20.779381
1431.364811	-3.009000	3.415400	-10.277000	26.062957	0.000702	20.784194
1432.366038	-2.997800	3.414600	-10.236000	26.093927	0.000702	20.773113
1433.365227	-3.012300	3.413000	-10.279000	26.115016	0.000700	20.768224
1434.364203	-3.031200	3.412600	-10.343000	26.149860	0.000701	20.767200
1435.364486	-3.028700	3.412100	-10.332000	26.168435	0.000700	20.790606
1436.365242	-3.015600	3.412400	-10.290000	26.219420	0.000698	20.781148
1437.365976	-2.983000	3.412700	-10.179000	26.240060	0.000698	20.769646
1438.365974	-3.005400	3.410500	-10.249000	26.252102	0.000697	20.793128
1439.367021	-2.996300	3.411600	-10.222000	26.261392	0.000698	20.762160
1440.365110	-3.011900	3.410800	-10.271000	26.246866	0.000696	20.770322
1441.366578	-2.991600	3.411000	-10.202000	26.260348	0.000698	20.759215
1442.365162	-3.003100	3.411000	-10.243000	26.231220	0.000695	20.785419
1443.366210	-2.982000	3.411000	-10.171000	26.261693	0.000695	20.772894
1444.369211	-3.003600	3.408800	-10.238000	26.225633	0.000696	20.757993
1445.366992	-2.999200	3.409400	-10.224000	26.222008	0.000694	20.771895
1446.369747	-2.987400	3.409400	-10.185000	26.206638	0.000692	20.751707
1447.367096	-2.993000	3.408700	-10.201000	26.178973	0.000694	20.740503
1448.367309	-3.017100	3.407600	-10.280000	26.127189	0.000694	20.758170
1449.371196	-2.986800	3.407500	-10.176000	26.101828	0.000694	20.779629
1450.372231	-3.004500	3.407200	-10.236000	26.057794	0.000693	20.765731
1451.368968	-2.992400	3.407300	-10.195000	26.040279	0.000692	20.758090
1452.369591	-2.991600	3.407700	-10.193000	25.983747	0.000691	20.767200
1453.370643	-3.013900	3.404800	-10.259000	25.972249	0.000688	20.770347
1454.369859	-3.023500	3.404500	-10.292000	25.939162	0.000689	20.767452
1455.372527	-2.974400	3.406000	-10.129000	25.948873	0.000689	20.764880
1456.370492	-3.003300	3.405000	-10.224000	25.986904	0.000689	20.764682
1457.374496	-3.005900	3.403800	-10.230000	26.025382	0.000690	20.774891
1458.370604	-3.026200	3.403700	-10.300000	26.045871	0.000690	20.774614
1459.370663	-3.003700	3.404100	-10.223000	26.033129	0.000686	20.759915
1460.375981	-3.015400	3.402500	-10.259000	26.016687	0.000688	20.758094
1461.370962	-3.012300	3.403200	-10.250000	26.024731	0.000689	20.752425
1462.370172	-3.034600	3.401400	-10.320000	26.060004	0.000688	20.754674
1463.371173	-3.020700	3.402300	-10.276000	26.080392	0.000686	20.741968
1464.372615	-2.989700	3.402600	-10.171000	26.110969	0.000685	20.750881
1465.372698	-2.989900	3.401100	-10.169000	26.139704	0.000686	20.748934
1466.376925	-2.984200	3.401100	-10.148000	26.139951	0.000683	20.758191
1467.375988	-3.007600	3.400200	-10.224000	26.180703	0.000684	20.753621
1468.374279	-2.986900	3.400500	-10.157000	26.196475	0.000685	20.741494
1469.375828	-2.995900	3.398900	-10.182000	26.173329	0.000683	20.728666
1470.377052	-3.006000	3.399700	-10.219000	26.148495	0.000682	20.747335
1471.380262	-3.021000	3.398300	-10.266000	26.126137	0.000680	20.742888
1472.376298	-3.014400	3.397700	-10.241000	26.107608	0.000681	20.757461
1473.378115	-2.995800	3.398800	-10.181000	26.082702	0.000681	20.731960
1474.377162	-3.001100	3.398400	-10.198000	26.090645	0.000680	20.720975
1475.377400	-2.994500	3.397700	-10.173000	26.111609	0.000679	20.759584
1476.378995	-2.997200	3.398000	-10.184000	26.156634	0.000680	20.726590
1477.380216	-3.006600	3.396100	-10.210000	26.165975	0.000679	20.754943
1478.378214	-3.005900	3.396000	-10.207000	26.183109	0.000678	20.747030
1479.381003	-2.981800	3.397900	-10.129000	26.194083	0.000678	20.739565
1480.379967	-3.012700	3.394200	-10.225000	26.185046	0.000677	20.738071
1481.380979	-2.993500	3.394900	-10.160000	26.184992	0.000674	20.734697
1482.381980	-2.990500	3.395400	-10.153000	26.178712	0.000677	20.737869
1483.379983	-3.010300	3.393600	-10.214000	26.146028	0.000676	20.739166
1484.379106	-3.008300	3.394600	-10.211000	26.140933	0.000676	20.725512
1485.380459	-2.996300	3.394600	-10.171000	26.146128	0.000673	20.723619
1486.379469	-2.980400	3.393100	-10.112000	26.166393	0.000674	20.724542
1487.382607	-3.000200	3.391900	-10.175000	26.191323	0.000674	20.725411
1488.380132	-2.996000	3.393500	-10.166000	26.240374	0.000673	20.736296
1489.385130	-3.002800	3.391400	-10.182000	26.263293	0.000672	20.728508
1490.385699	-3.000600	3.392000	-10.176000	26.273323	0.000672	20.733371
1491.381675	-2.994800	3.391300	-10.155000	26.289268	0.000672	20.729955
1492.384360	-3.011800	3.389700	-10.208000	26.318917	0.000672	20.709490
1493.383931	-2.993000	3.391300	-10.149000	26.325472	0.000669	20.739313
1494.387150	-3.008000	3.390300	-10.197000	26.282934	0.000671	20.729754
1495.384197	-3.017500	3.389500	-10.226000	26.280404	0.000670	20.726263
1496.384760	-3.003400	3.389000	-10.177000	26.277648	0.000667	20.740089
1497.388060	-2.994300	3.388800	-10.146000	26.291402	0.000669	20.723090
1498.386130	-2.985000	3.389100	-10.115000	26.322767	0.000667	20.734697
1499.392352	-2.980000	3.388400	-10.097000	26.320232	0.000668	20.737840
1500.387700	-2.989200	3.387800	-10.126000	26.348369	0.000667	20.716330
1501.387665	-3.008200	3.387800	-10.190000	26.384002	0.000666	20.726065
1502.388665	-2.989300	3.387500	-10.126000	26.407140	0.000667	20.720870
1503.390104	-2.992200	3.386900	-10.133000	26.427276	0.000665	20.717874
1504.388333	-3.002000	3.386100	-10.164000	26.425764	0.000666	20.742435
1505.394333	-3.003600	3.385100	-10.166000	26.438648	0.000664	20.718399
1506.390197	-3.022100	3.384600	-10.227000	26.432912	0.000665	20.705995
1507.390329	-2.966600	3.387400	-10.048000	26.423627	0.000663	20.703300
1508.395459	-3.000700	3.384700	-10.155000	26.389831	0.000662	20.722914
1509.392279	-3.027200	3.383800	-10.242000	26.319239	0.000661	20.728781
1510.391279	-3.017700	3.383000	-10.208000	26.289368	0.000660	20.721995
1511.392705	-3.007600	3.382700	-10.172000	26.272454	0.000662	20.719222
1512.391705	-3.009800	3.382300	-10.179000	26.292617	0.000662	20.703922
1513.392938	-2.963500	3.385300	-10.032000	26.320550	0.000661	20.710183
1514.394937	-3.000900	3.382800	-10.150000	26.376050	0.000660	20.698630
1515.391503	-2.978100	3.382800	-10.073000	26.400582	0.000660	20.710959
1516.392728	-2.993200	3.381400	-10.121000	26.391247	0.000659	20.716276
1517.391459	-2.979500	3.382000	-10.075000	26.389881	0.000659	20.715852
1518.392840	-2.987900	3.381600	-10.103000	26.360452	0.000657	20.706188
1519.396842	-3.016200	3.379200	-10.191000	26.335601	0.000660	20.700653
1520.393011	-2.992200	3.381200	-10.116000	26.308112	0.000657	20.703372
1521.392962	-2.997600	3.381200	-10.134000	26.320450	0.000657	20.703918
1522.392962	-3.014300	3.379100	-10.183000	26.295173	0.000655	20.720716
1523.393020	-3.012800	3.378300	-10.177000	26.272100	0.000654	20.727875
1524.395022	-2.996300	3.379200	-10.125000	26.248981	0.000654	20.716495
1525.393023	-2.997400	3.377500	-10.121000	26.219083	0.000655	20.724383
1526.396404	-3.007100	3.378400	-10.157000	26.195391	0.000656	20.714325
1527.394405	-3.008500	3.377300	-10.160000	26.220474	0.000652	20.699700
1528.394406	-2.973100	3.377500	-10.039000	26.231451	0.000652	20.729700
1529.398005	-2.988700	3.376900	-10.092000	26.213292	0.000652	20.710028
1530.396250	-3.002900	3.375700	-10.135000	26.252258	0.000651	20.715047
1531.400654	-3.021400	3.375900	-10.199000	26.276350	0.000650	20.708911
1532.398784	-3.002800	3.375200	-10.134000	26.316450	0.000651	20.709382
1533.399870	-3.015300	3.374500	-10.174000	26.295891	0.000650	20.710531
1534.403606	-3.008600	3.374900	-10.152000	26.300163	0.000650	20.711031
1535.404575	-2.994800	3.374800	-10.106000	26.320868	0.000650	20.712399
1536.400767	-3.003300	3.374400	-10.133000	26.324371	0.000648	20.705962
1537.400798	-3.004300	3.373100	-10.133000	26.335097	0.000646	20.724329
1538.400760	-2.978000	3.374200	-10.048000	26.334358	0.000647	20.725009
1539.400759	-2.987300	3.373900	-10.078000	26.310517	0.000646	20.725705
1540.403266	-2.988000	3.372900	-10.077000	26.294301	0.000644	20.722684
1541.400265	-2.995200	3.373200	-10.103000	26.266764	0.000647	20.724883
1542.405298	-3.008200	3.373300	-10.146000	26.249924	0.000646	20.723133
1543.400407	-2.998500	3.371900	-10.109000	26.233389	0.000644	20.732121
1544.400165	-3.004600	3.372100	-10.131000	26.170954	0.000644	20.708261
1545.404380	-2.994800	3.371100	-10.095000	26.149323	0.000645	20.699801
1546.400665	-2.996900	3.370000	-10.097000	26.133254	0.000642	20.726330
1547.400471	-3.019800	3.369700	-10.175000	26.119670	0.000642	20.715999
1548.400191	-2.997200	3.371000	-10.102000	26.131345	0.000642	20.722516
1549.402911	-3.014600	3.367900	-10.150000	26.134023	0.000641	20.729474
1550.403043	-3.007300	3.368700	-10.130000	26.136114	0.000641	20.721143
1551.405059	-2.974400	3.369700	-10.022000	26.186604	0.000640	20.695063
1552.404229	-2.999400	3.368800	-10.103000	26.237443	0.000640	20.722444
1553.403542	-2.977200	3.368300	-10.027000	26.255297	0.000641	20.728059
1554.403769	-2.987000	3.367400	-10.057000	26.239005	0.000641	20.725436
1555.403122	-3.005900	3.366900	-10.120000	26.222494	0.000639	20.740140
1556.407435	-3.018100	3.366500	-10.159000	26.182687	0.000640	20.730958
1557.408438	-3.002300	3.365400	-10.103000	26.138031	0.000637	20.704576
1558.405998	-3.021700	3.364500	-10.166000	26.139375	0.000636	20.717781
1559.404727	-3.014800	3.366000	-10.147000	26.152016	0.000638	20.741864
1560.406003	-3.002400	3.364200	-10.100000	26.159469	0.000637	20.715213
1561.405038	-3.009500	3.364800	-10.126000	26.227567	0.000635	20.738125
1562.404836	-2.984600	3.365600	-10.043000	26.266353	0.000635	20.720677
1563.404514	-3.009200	3.363900	-10.122000	26.259180	0.000635	20.749031
1564.404351	-3.019300	3.362500	-10.151000	26.244907	0.000632	20.722833
1565.404351	-2.999500	3.364100	-10.090000	26.213215	0.000634	20.721331
1566.407387	-3.012700	3.363700	-10.132000	26.245103	0.000632	20.722556
1567.405351	-3.003700	3.362800	-10.099000	26.273935	0.000633	20.712174
1568.409904	-3.008300	3.362300	-10.114000	26.272623	0.000632	20.719866
1569.406201	-3.023000	3.361200	-10.160000	26.284791	0.000631	20.734939
1570.406817	-3.024000	3.360200	-10.161000	26.329737	0.000631	20.747867
1571.413251	-2.995000	3.362000	-10.068000	26.343444	0.000632	20.728451
1572.409345	-2.986800	3.362100	-10.041000	26.352559	0.000631	20.743776
1573.409347	-3.013100	3.360300	-10.124000	26.386455	0.000630	20.744653
1574.407694	-3.012200	3.358900	-10.116000	26.432116	0.000629	20.755458
1575.408883	-3.002600	3.359900	-10.087000	26.450764	0.000630	20.744329
1576.408431	-2.980500	3.360100	-10.014000	26.472393	0.000627	20.723868
1577.409675	-2.999900	3.360500	-10.079000	26.475424	0.000628	20.720750
1578.410984	-2.983700	3.360900	-10.027000	26.518722	0.000628	20.752893
1579.411599	-3.019500	3.357200	-10.135000	26.518626	0.000626	20.738571
1580.410657	-3.000400	3.357000	-10.070000	26.507751	0.000626	20.746133
1581.413707	-3.002400	3.358300	-10.081000	26.497524	0.000626	20.747232
1582.414754	-3.010100	3.355800	-10.099000	26.514906	0.000626	20.753325
1583.411922	-3.026800	3.357300	-10.160000	26.538617	0.000626	20.731165
1584.412141	-2.980900	3.356900	-10.006000	26.575313	0.000623	20.742448
1585.411726	-3.018300	3.355200	-10.126000	26.583206	0.000625	20.733313
1586.412770	-3.008200	3.355600	-10.093000	26.569803	0.000621	20.754927
1587.415770	-3.026200	3.354400	-10.150000	26.512033	0.000622	20.741428
1588.421658	-2.991700	3.354700	-10.036000	26.484724	0.000623	20.755704
1589.416502	-2.995900	3.353800	-10.045000	26.446738	0.000623	20.748343
1590.413720	-2.988400	3.354000	-10.022000	26.428093	0.000620	20.753311
1591.414719	-2.986100	3.354900	-10.017000	26.441077	0.000619	20.749766
1592.415720	-2.985400	3.353500	-10.011000	26.478570	0.000622	20.758527
1593.415962	-2.981000	3.353900	-9.997100	26.496942	0.000619	20.751864
1594.415699	-2.992300	3.353400	-10.033000	26.473978	0.000619	20.758179
1595.415606	-2.995900	3.353200	-10.045000	26.495631	0.000619	20.753865
1596.416940	-2.992500	3.351700	-10.028000	26.511051	0.000618	20.773633
1597.420879	-2.975600	3.353800	-9.978900	26.531735	0.000616	20.775458
1598.418636	-2.991700	3.351800	-10.027000	26.534044	0.000617	20.758338
1599.418755	-3.010400	3.350500	-10.085000	26.483996	0.000616	20.751653
1600.422019	-2.998900	3.350700	-10.047000	26.459315	0.000616	20.763356
1601.421154	-2.985900	3.350300	-10.003000	26.432873	0.000614	20.764753
1602.423152	-2.992300	3.349900	-10.023000	26.419271	0.000616	20.745866
1603.421504	-2.997800	3.349600	-10.039000	26.438366	0.000614	20.766008
1604.423483	-3.009500	3.348100	-10.076000	26.479879	0.000612	20.763163
1605.423914	-2.995600	3.349700	-10.034000	26.445868	0.000614	20.763116
1606.424341	-3.002300	3.349600	-10.056000	26.488153	0.000613	20.763892
1607.422411	-2.987500	3.347400	-9.999100	26.503248	0.000612	20.777643
1608.423410	-3.004600	3.346800	-10.054000	26.512018	0.000611	20.772234
1609.422216	-3.007300	3.347300	-10.065000	26.506307	0.000610	20.776451
1610.421212	-2.980400	3.348000	-9.976500	26.478300	0.000611	20.762050
1611.421354	-2.981900	3.347800	-9.981200	26.462462	0.000609	20.781692
1612.420855	-3.003400	3.345700	-10.046000	26.400737	0.000608	20.769439
1613.423927	-2.990700	3.346100	-10.006000	26.348595	0.000606	20.809020
1614.423122	-2.979300	3.346700	-9.968900	26.334342	0.000608	20.768142
1615.424753	-2.990400	3.346600	-10.007000	26.332730	0.000607	20.764626
1616.422956	-3.016000	3.344100	-10.085000	26.379512	0.000605	20.761856
1617.423374	-2.989700	3.343900	-9.995100	26.394487	0.000606	20.763157
1618.426354	-3.008400	3.343400	-10.056000	26.402954	0.000606	20.765028
1619.430540	-2.994300	3.343900	-10.011000	26.445537	0.000608	20.769896
1620.424587	-2.987900	3.343300	-9.988200	26.433964	0.000606	20.775334
1621.425966	-2.996000	3.343600	-10.016000	26.469696	0.000604	20.779480
1622.424126	-2.997900	3.344300	-10.024000	26.461326	0.000603	20.777705
1623.426046	-2.987800	3.343000	-9.987000	26.468777	0.000603	20.786143
1624.430161	-2.977600	3.343200	-9.953900	26.472776	0.000603	20.758394
1625.426577	-3.000100	3.340700	-10.022000	26.526102	0.000602	20.775485
1626.427341	-3.004000	3.341100	-10.036000	26.549666	0.000602	20.781154
1627.426555	-3.007600	3.341400	-10.049000	26.531220	0.000600	20.771620
1628.427554	-2.996100	3.340900	-10.008000	26.515900	0.000601	20.791308
1629.431982	-2.999300	3.340100	-10.017000	26.517519	0.000601	20.784401
1630.429170	-2.995700	3.341500	-10.009000	26.547057	0.000599	20.781850
1631.430170	-3.013900	3.339500	-10.063000	26.557288	0.000600	20.758944
1632.429402	-2.999500	3.339700	-10.016000	26.566150	0.000598	20.789663
1633.429402	-3.013900	3.338000	-10.059000	26.556641	0.000599	20.781527
1634.430403	-3.022900	3.337400	-10.088000	26.541668	0.000598	20.783072
1635.430402	-3.035100	3.335600	-10.123000	26.500007	0.000597	20.786240
1636.429403	-2.989700	3.339400	-9.982500	26.451344	0.000594	20.789958
1637.429402	-3.008600	3.337500	-10.040000	26.451123	0.000596	20.783571
1638.429402	-2.997800	3.336500	-10.001000	26.421277	0.000595	20.797196
1639.429404	-3.023700	3.335600	-10.085000	26.469792	0.000595	20.804707
1640.430402	-2.991000	3.336800	-9.979500	26.490694	0.000595	20.795371
1641.429404	-3.015100	3.334900	-10.054000	26.531834	0.000592	20.791204
1642.430403	-3.017200	3.333500	-10.056000	26.553185	0.000592	20.788485
1643.429402	-2.991200	3.335400	-9.975500	26.540796	0.000593	20.795471
1644.429406	-2.991100	3.335600	-9.976500	26.591935	0.000590	20.791401
1645.432403	-2.980700	3.336400	-9.942700	26.619364	0.000591	20.800008
1646.430402	-2.998000	3.333800	-9.993400	26.609734	0.000591	20.803603
1647.432403	-3.008500	3.333300	-10.027000	26.594912	0.000591	20.810514
1648.431403	-2.986700	3.332900	-9.952200	26.626338	0.000591	20.806071
1649.436405	-2.998900	3.333500	-9.996200	26.612756	0.000589	20.814702
1650.433403	-2.993100	3.332400	-9.973200	26.629218	0.000588	20.815604
1651.435402	-2.998200	3.331700	-9.987900	26.667987	0.000589	20.792464
1652.432406	-3.003600	3.331200	-10.005000	26.647609	0.000589	20.797109
1653.431914	-2.995600	3.331200	-9.978200	26.610073	0.000589	20.783081
1654.431916	-2.981000	3.332200	-9.932100	26.574321	0.000587	20.808782
1655.432320	-2.947800	3.330800	-9.817500	26.531451	0.000587	20.806940
1656.432899	-2.996500	3.329800	-9.976800	26.545376	0.000587	20.789644
1657.432905	-3.001400	3.328400	-9.988800	26.540655	0.000588	20.780631
1658.433115	-2.985200	3.330000	-9.940300	26.510516	0.000584	20.797751
1659.432541	-3.009300	3.329800	-10.019000	26.529585	0.000584	20.776141
1660.433026	-3.007700	3.328400	-10.010000	26.534824	0.000583	20.799899
1661.434828	-3.026200	3.327400	-10.067000	26.566474	0.000582	20.813222
1662.433621	-3.013900	3.328500	-10.031000	26.576629	0.000583	20.810154
1663.433452	-2.997700	3.327700	-9.973100	26.576479	0.000583	20.789615
1664.434499	-2.989400	3.328300	-9.947000	26.544007	0.000582	20.801070
1665.433557	-3.001800	3.328000	-9.987600	26.514590	0.000580	20.817019
1666.436978	-2.976300	3.326300	-9.898800	26.489239	0.000579	20.824253
1667.435322	-3.018100	3.326400	-10.038000	26.449659	0.000580	20.806756
1668.436550	-2.993200	3.325700	-9.953900	26.482484	0.000579	20.803240
1669.435609	-3.005800	3.325900	-9.995300	26.487823	0.000578	20.809080
1670.436890	-2.967500	3.326200	-9.868700	26.489435	0.000578	20.801217
1671.440798	-2.985000	3.325100	-9.924800	26.507410	0.000579	20.809328
1672.439015	-3.015000	3.322100	-10.016000	26.511109	0.000579	20.816839
1673.441228	-3.006400	3.323400	-9.989500	26.490232	0.000576	20.803915
1674.438446	-2.990700	3.323000	-9.937800	26.519028	0.000580	20.806781
1675.439064	-3.004500	3.324300	-9.986500	26.515905	0.000576	20.830194
1676.442868	-3.003000	3.322600	-9.976500	26.535788	0.000574	20.807981
1677.439874	-2.995800	3.322500	-9.952100	26.549121	0.000574	20.815693
1678.439875	-2.996400	3.323700	-9.958200	26.557140	0.000573	20.803365
1679.442885	-3.011200	3.322200	-10.002000	26.574421	0.000574	20.825478
1680.439892	-3.014800	3.321000	-10.010000	26.622428	0.000572	20.821106
1681.440192	-2.999100	3.321200	-9.958400	26.653783	0.000572	20.824178
1682.440198	-2.987900	3.321400	-9.921800	26.679152	0.000571	20.835930
1683.440454	-3.008500	3.319700	-9.987100	26.699754	0.000571	20.830564
1684.440807	-2.992400	3.319100	-9.931300	26.731903	0.000571	20.835859
1685.441405	-2.988700	3.317800	-9.915400	26.727334	0.000570	20.833161
1686.441796	-2.989200	3.320300	-9.924200	26.734287	0.000569	20.827824
1687.442459	-2.991400	3.318500	-9.925200	26.727509	0.000571	20.826225
1688.440524	-3.008300	3.317700	-9.979700	26.724383	0.000567	20.827349
1689.442869	-2.998300	3.317600	-9.945300	26.721699	0.000567	20.827022
1690.443904	-3.002500	3.317200	-9.958000	26.722317	0.000567	20.836652
1691.442670	-3.005400	3.317600	-9.969900	26.653687	0.000567	20.848736
1692.444215	-2.977600	3.317900	-9.878900	26.622657	0.000566	20.827026
1693.443167	-2.984400	3.317300	-9.899500	26.645494	0.000566	20.828646
1694.442382	-3.012700	3.315600	-9.986300	26.684344	0.000564	20.808908
1695.442519	-3.030500	3.314600	-10.043000	26.694988	0.000565	20.839996
1696.443067	-3.008200	3.314400	-9.969800	26.713732	0.000563	20.848883
1697.443534	-3.021600	3.314600	-10.015000	26.725151	0.000562	20.839501
1698.446037	-3.002900	3.314500	-9.952000	26.697717	0.000564	20.830887
1699.444036	-3.003900	3.313500	-9.950900	26.667733	0.000562	20.850054
1700.447033	-3.009700	3.313300	-9.971400	26.620220	0.000562	20.862981
1701.443124	-2.996100	3.313100	-9.925400	26.580424	0.000559	20.829616
1702.444205	-2.998800	3.314600	-9.937900	26.606091	0.000561	20.831710
1703.451510	-3.019100	3.311700	-9.997300	26.667532	0.000560	20.829465
1704.446525	-2.999700	3.311500	-9.932100	26.682178	0.000559	20.845610
1705.446494	-2.982200	3.313300	-9.879600	26.650181	0.000558	20.829091
1706.447747	-2.985900	3.311800	-9.886900	26.618033	0.000558	20.842292
1707.448973	-2.996800	3.311500	-9.922600	26.595193	0.000557	20.854892
1708.448095	-2.992400	3.309700	-9.903200	26.571091	0.000558	20.841570
1709.453063	-2.994700	3.309300	-9.908600	26.573048	0.000557	20.847331
1710.450259	-3.013100	3.310500	-9.973900	26.604255	0.000555	20.847881
1711.453282	-3.006000	3.309600	-9.947200	26.609222	0.000554	20.841968
1712.452564	-2.996300	3.308600	-9.911100	26.589833	0.000555	20.847134
1713.451600	-2.992800	3.308400	-9.900000	26.627216	0.000555	20.854842
1714.456614	-2.983400	3.309100	-9.871200	26.616493	0.000555	20.857812
1715.454615	-2.982300	3.308300	-9.865800	26.641742	0.000553	20.856641
1716.454827	-2.993600	3.308100	-9.902600	26.679298	0.000552	20.856465
1717.453078	-2.974900	3.308500	-9.840200	26.703648	0.000552	20.865772
1718.453681	-2.976600	3.308200	-9.846000	26.751657	0.000552	20.846710
1719.455680	-3.000800	3.305700	-9.918900	26.788914	0.000552	20.863778
1720.454893	-2.981400	3.306500	-9.857700	26.783080	0.000551	20.859809
1721.455114	-2.970500	3.306100	-9.819100	26.773923	0.000553	20.846336
1722.455323	-3.011900	3.305600	-9.954900	26.760718	0.000550	20.857715
1723.455326	-2.988500	3.304400	-9.873800	26.746770	0.000549	20.853175
1724.456973	-2.981200	3.305200	-9.852300	26.724007	0.000551	20.893824
1725.459997	-2.997800	3.304400	-9.905100	26.735773	0.000549	20.862033
1726.456101	-2.956500	3.304400	-9.768500	26.752354	0.000546	20.869220
1727.456511	-2.999400	3.304700	-9.911400	26.757788	0.000545	20.859511
1728.462494	-3.008600	3.302500	-9.934400	26.798842	0.000544	20.869967
1729.457564	-3.008800	3.302100	-9.934900	26.835304	0.000546	20.875333
1730.461564	-2.991500	3.303100	-9.880100	26.871164	0.000544	20.858286
1731.458615	-3.004200	3.303500	-9.923700	26.898393	0.000545	20.887086
1732.458616	-3.016200	3.304300	-9.964100	26.924403	0.000544	20.873886
1733.458616	-2.988300	3.303500	-9.870200	26.958474	0.000543	20.872111
1734.458835	-3.022400	3.302100	-9.979100	26.983890	0.000543	20.871591
1735.459787	-3.008400	3.301000	-9.929100	27.009201	0.000541	20.875233
1736.464824	-2.995900	3.300200	-9.886500	27.037811	0.000541	20.860384
1737.460443	-3.024000	3.299800	-9.977900	27.047591	0.000540	20.865477
1738.461449	-2.986100	3.301600	-9.856900	27.035279	0.000538	20.880595
1739.461442	-2.983600	3.300200	-9.845200	27.028682	0.000542	20.897193
1740.460923	-3.002500	3.299000	-9.904300	27.042301	0.000539	20.878648
1741.466011	-2.987800	3.298000	-9.852500	27.044241	0.000537	20.872539
1742.461488	-2.995400	3.298000	-9.878100	27.052974	0.000538	20.893174
1743.464745	-3.001400	3.297300	-9.895800	26.995006	0.000536	20.864752
1744.461259	-3.002900	3.298300	-9.903100	26.955795	0.000535	20.886960
1745.462256	-3.009000	3.297300	-9.920200	26.956588	0.000535	20.870215
1746.464900	-2.984200	3.297000	-9.837000	26.945271	0.000535	20.869741
1747.470902	-2.971400	3.297400	-9.796900	26.947086	0.000535	20.872514
1748.463902	-2.993500	3.295300	-9.863800	26.991605	0.000535	20.893098
1749.464900	-2.986100	3.296500	-9.843400	26.985254	0.000534	20.897143
1750.465900	-2.991600	3.295600	-9.858400	27.003764	0.000536	20.895842
1751.465932	-3.003600	3.294700	-9.895000	26.993837	0.000533	20.905774
1752.467160	-2.975200	3.296600	-9.807500	26.993141	0.000531	20.888005
1753.466124	-3.004700	3.294900	-9.899100	26.984086	0.000531	20.882219
1754.465353	-2.974000	3.294800	-9.798100	26.996120	0.000531	20.885785
1755.466026	-2.982800	3.293900	-9.824000	27.004382	0.000530	20.897412
1756.468263	-3.021100	3.293500	-9.949300	27.016591	0.000528	20.882190
1757.470263	-2.997000	3.292400	-9.866900	27.052127	0.000528	20.873832
1758.467005	-3.003700	3.292200	-9.887700	27.046669	0.000530	20.883515
1759.467213	-3.008900	3.291500	-9.903400	27.087116	0.000528	20.880570
1760.466213	-3.031300	3.289400	-9.970000	27.063417	0.000528	20.894194
1761.468427	-3.004100	3.290600	-9.883800	27.034361	0.000527	20.907645
1762.470020	-2.999600	3.290400	-9.868700	26.962125	0.000525	20.906600
1763.469536	-3.001700	3.289900	-9.873800	26.881138	0.000525	20.901503
1764.471535	-2.978600	3.290000	-9.798800	26.847386	0.000524	20.916401
1765.468916	-2.987400	3.288800	-9.824100	26.862827	0.000526	20.898737
1766.469674	-2.985700	3.289800	-9.821400	26.897596	0.000524	20.905249
1767.473890	-3.018100	3.287500	-9.920200	26.916508	0.000525	20.918574
1768.469892	-3.022100	3.288600	-9.937700	26.969891	0.000522	20.898763
1769.471089	-2.982400	3.289900	-9.810600	26.974556	0.000524	20.911987
1770.471295	-3.009800	3.286300	-9.890600	26.938649	0.000522	20.916657
1771.471652	-2.989400	3.288200	-9.829100	26.891616	0.000523	20.902081
1772.472875	-2.999300	3.288000	-9.861400	26.858461	0.000522	20.901934
1773.475899	-2.998300	3.286400	-9.852100	26.803583	0.000522	20.913611
1774.473124	-2.990700	3.286000	-9.826800	26.776531	0.000521	20.890207
1775.473134	-2.977700	3.285100	-9.780000	26.810511	0.000520	20.894974
1776.473340	-2.999500	3.284800	-9.851800	26.820343	0.000518	20.922400
1777.474341	-2.999700	3.284300	-9.850800	26.832629	0.000518	20.920055
1778.476754	-2.998500	3.284900	-9.848500	26.839185	0.000517	20.901044
1779.474716	-2.995800	3.284300	-9.837900	26.860159	0.000516	20.917864
1780.474715	-2.993900	3.285100	-9.833400	26.866360	0.000516	20.922677
1781.474715	-3.018500	3.284000	-9.911800	26.906943	0.000516	20.917491
1782.475755	-3.007300	3.283700	-9.874200	26.929230	0.000516	20.920935
1783.476586	-2.976400	3.284900	-9.774500	26.961047	0.000515	20.931592
1784.476635	-2.987600	3.283300	-9.807800	27.001025	0.000516	20.908260
1785.479089	-2.999300	3.281900	-9.841900	27.010827	0.000516	20.894885
1786.478090	-2.989100	3.281500	-9.807200	27.058847	0.000515	20.907140
1787.477501	-3.011200	3.280000	-9.876000	27.073909	0.000513	20.918019
1788.480518	-3.005900	3.280500	-9.858600	27.031159	0.000512	20.886883
1789.478127	-3.004200	3.280400	-9.853600	26.973611	0.000512	20.885909
1790.480618	-3.029100	3.279900	-9.934400	26.919757	0.000510	20.889602
1791.478264	-2.990300	3.279600	-9.806100	26.866226	0.000508	20.891725
1792.479264	-2.978100	3.280500	-9.768300	26.862028	0.000509	20.869961
1793.481480	-3.009500	3.278800	-9.866700	26.865283	0.000507	20.895992
1794.482052	-3.011700	3.278200	-9.872400	26.888042	0.000507	20.902281
1795.482908	-3.007900	3.278100	-9.859000	26.874789	0.000509	20.888007
1796.479130	-2.986000	3.277900	-9.787600	26.871217	0.000506	20.894372
1797.479187	-2.994700	3.277900	-9.815000	26.882534	0.000508	20.906699
1798.483222	-2.993500	3.278000	-9.811200	26.883448	0.000506	20.883912
1799.484239	-3.007400	3.275700	-9.849800	26.908619	0.000505	20.909694
1800.481439	-2.999100	3.275600	-9.823200	26.884741	0.000505	20.887109
1801.481892	-3.001900	3.276900	-9.836000	26.900457	0.000505	20.885842
1802.482114	-3.006000	3.275700	-9.845600	26.952075	0.000504	20.913563
1803.484169	-3.031100	3.273700	-9.921100	26.961852	0.000504	20.873611
1804.483167	-3.009300	3.274200	-9.852700	26.937829	0.000504	20.883593
1805.485172	-2.991800	3.275100	-9.796700	26.877297	0.000503	20.881046
1806.484659	-2.978100	3.274600	-9.750300	26.864243	0.000500	20.893998
1807.485868	-2.989400	3.276000	-9.792200	26.863229	0.000502	20.872591
1808.484483	-2.988800	3.273000	-9.780000	26.899242	0.000502	20.862337
1809.487482	-2.979900	3.273300	-9.753600	26.918083	0.000500	20.884599
1810.484613	-3.003900	3.273500	-9.832300	26.907730	0.000500	20.899318
1811.485614	-2.996900	3.273800	-9.810400	26.896267	0.000500	20.876888
1812.485718	-3.002900	3.272400	-9.825000	26.878944	0.000497	20.870850
1813.485719	-3.021500	3.270800	-9.881100	26.876637	0.000499	20.876116
1814.487832	-2.997300	3.272300	-9.806100	26.856981	0.000497	20.868681
1815.486214	-3.006500	3.271500	-9.835400	26.840376	0.000495	20.880907
1816.489479	-2.988000	3.271200	-9.773100	26.821513	0.000494	20.859571
1817.493538	-2.998400	3.271200	-9.806300	26.860608	0.000496	20.875171
1818.487534	-3.001000	3.269000	-9.809200	26.885821	0.000497	20.878238
1819.490697	-3.012100	3.269700	-9.847800	26.875447	0.000494	20.874920
1820.491665	-2.979800	3.271100	-9.746300	26.883960	0.000494	20.882531
1821.490025	-3.006300	3.267800	-9.823000	26.908956	0.000492	20.878742
1822.490155	-2.984600	3.268400	-9.754100	26.942781	0.000492	20.839263
1823.490949	-2.998500	3.268200	-9.798600	26.972812	0.000492	20.854288
1824.491982	-3.013900	3.268100	-9.847700	27.009390	0.000490	20.887750
1825.495134	-3.002800	3.267200	-9.810000	27.053338	0.000490	20.873627
1826.492646	-3.012700	3.266900	-9.840300	27.038304	0.000488	20.871311
1827.496875	-2.996100	3.266700	-9.786600	27.042452	0.000490	20.855568
1828.493332	-2.992400	3.266700	-9.774000	27.060418	0.000488	20.871738
1829.494557	-3.009100	3.265900	-9.825500	27.031215	0.000489	20.867026
1830.499591	-3.015700	3.265500	-9.846500	27.042627	0.000488	20.860485
1831.495835	-2.997600	3.266500	-9.790600	27.083970	0.000484	20.853700
1832.494834	-2.995800	3.264300	-9.778300	27.122333	0.000486	20.870471
1833.505691	-2.999800	3.265300	-9.794600	27.156556	0.000484	20.887346
1834.494692	-2.979700	3.264700	-9.726100	27.189284	0.000485	20.859100
1835.496991	-3.021900	3.262000	-9.856600	27.180824	0.000484	20.869082
1836.498318	-3.012300	3.263300	-9.829300	27.134995	0.000482	20.872300
1837.496831	-3.001500	3.261900	-9.789800	27.122195	0.000482	20.860849
1838.497229	-2.995900	3.263400	-9.773900	27.047754	0.000480	20.862796
1839.496820	-2.997300	3.261400	-9.774000	27.052644	0.000481	20.854912
1840.496873	-3.027300	3.260100	-9.867700	27.062377	0.000480	20.863752
1841.498927	-2.984500	3.261100	-9.732200	27.038653	0.000479	20.864075
1842.497157	-3.024600	3.259300	-9.857300	27.039893	0.000479	20.850624
1843.499254	-3.027300	3.260300	-9.869000	27.055501	0.000477	20.844036
1844.498467	-3.013200	3.259800	-9.821900	27.124860	0.000477	20.863530
1845.498658	-2.993900	3.260400	-9.760700	27.157911	0.000475	20.862158
1846.498880	-3.005800	3.258700	-9.793900	27.228819	0.000475	20.857614
1847.500349	-2.994400	3.257500	-9.752500	27.244154	0.000472	20.859762
1848.499696	-2.994200	3.258600	-9.755100	27.273088	0.000474	20.858520
1849.499625	-2.976200	3.257300	-9.693200	27.278840	0.000475	20.850556
1850.499294	-3.012200	3.255800	-9.805700	27.275023	0.000474	20.840553
1851.499728	-2.974500	3.257400	-9.688100	27.248104	0.000474	20.866580
1852.501710	-3.002300	3.256600	-9.775700	27.211335	0.000473	20.852830
1853.500655	-2.990300	3.257700	-9.740000	27.171565	0.000472	20.837486
1854.502827	-3.009900	3.255900	-9.798400	27.132111	0.000474	20.841900
1855.500790	-2.997300	3.254300	-9.753500	27.072904	0.000470	20.841623
1856.503846	-3.002500	3.256500	-9.776000	27.066307	0.000470	20.862963
1857.504912	-3.021000	3.253400	-9.827400	27.056110	0.000469	20.867406
1858.501878	-3.026600	3.252300	-9.841500	27.067325	0.000468	20.855452
1859.506874	-3.004600	3.255000	-9.777800	27.088566	0.000467	20.836038
1860.502026	-2.982800	3.255500	-9.709400	27.125811	0.000465	20.849314
1861.505025	-2.963000	3.253400	-9.638500	27.150109	0.000466	20.841509
1862.506154	-2.992200	3.252900	-9.732100	27.198790	0.000465	20.845902
1863.504133	-2.981600	3.253700	-9.700900	27.223875	0.000466	20.854537
1864.503978	-2.976400	3.254200	-9.684200	27.215836	0.000464	20.862098
1865.504387	-3.006000	3.251700	-9.774200	27.221614	0.000464	20.847996
1866.504783	-3.016000	3.250800	-9.804100	27.197526	0.000464	20.847950
1867.505842	-2.984100	3.252000	-9.703800	27.199091	0.000462	20.847153
1868.505885	-2.993900	3.251700	-9.733900	27.204101	0.000463	20.846502
1869.504930	-3.006200	3.250200	-9.769900	27.231918	0.000460	20.823273
1870.505984	-2.991100	3.251800	-9.725300	27.295404	0.000461	20.849674
1871.504035	-2.986100	3.249000	-9.700600	27.290248	0.000461	20.845436
1872.506067	-3.005700	3.250000	-9.766400	27.334456	0.000459	20.843439
1873.506270	-3.005100	3.248100	-9.759600	27.340288	0.000457	20.849305
1874.504447	-3.003200	3.248100	-9.753300	27.360309	0.000458	20.840523
1875.509023	-3.002200	3.249000	-9.752900	27.390550	0.000458	20.829219
1876.505587	-3.015600	3.247400	-9.791500	27.413223	0.000456	20.846338
1877.505587	-2.999200	3.248000	-9.740400	27.410842	0.000455	20.851528
1878.509703	-2.991700	3.247900	-9.715600	27.450307	0.000457	20.858514
1879.505636	-2.996700	3.246500	-9.727200	27.458694	0.000455	20.837556
1880.505637	-2.999400	3.247300	-9.738600	27.451103	0.000454	20.845092
1881.506725	-2.989200	3.246400	-9.703100	27.418487	0.000454	20.848788
1882.506771	-3.001900	3.246100	-9.743900	27.353740	0.000451	20.841500
1883.508886	-2.995000	3.246200	-9.720000	27.282864	0.000454	20.848914
1884.506776	-2.993700	3.244100	-9.710400	27.251332	0.000452	20.856076
1885.509457	-2.994000	3.245300	-9.715200	27.228012	0.000451	20.853009
1886.508057	-2.997200	3.244100	-9.721800	27.228338	0.000450	20.834845
1887.507493	-2.999200	3.243900	-9.727200	27.272098	0.000449	20.844722
1888.511743	-2.990500	3.243400	-9.698000	27.262749	0.000447	20.833897
1889.511864	-2.986900	3.242600	-9.684600	27.290736	0.000447	20.843082
1890.509862	-3.010700	3.241400	-9.757700	27.291925	0.000449	20.835743
1891.509157	-3.001200	3.241800	-9.727700	27.332237	0.000446	20.844999
1892.508160	-2.981300	3.242500	-9.665500	27.335740	0.000445	20.835248
1893.508202	-2.975500	3.240900	-9.642600	27.321900	0.000443	20.833653
1894.511418	-2.963600	3.241200	-9.604400	27.274141	0.000443	20.834925
1895.510418	-3.004300	3.239600	-9.731700	27.270370	0.000443	20.840140
1896.511445	-2.981700	3.240300	-9.660400	27.264543	0.000440	20.844709
1897.510827	-3.014600	3.239800	-9.765200	27.236084	0.000442	20.830783
1898.515829	-3.011200	3.239600	-9.754100	27.236184	0.000438	20.844160
1899.513319	-3.017600	3.237800	-9.769400	27.243852	0.000441	20.851872
1900.511770	-3.002200	3.237600	-9.719500	27.254272	0.000439	20.847655
1901.511150	-3.006600	3.237200	-9.731300	27.212168	0.000438	20.823797
1902.512309	-3.013500	3.236600	-9.752500	27.200683	0.000438	20.819832
1903.513138	-3.018800	3.238300	-9.775100	27.215347	0.000435	20.835529
1904.512910	-2.995600	3.237000	-9.696100	27.257472	0.000436	20.836175
1905.516254	-3.011300	3.236500	-9.744900	27.268289	0.000434	20.832831
1906.512243	-3.011600	3.236500	-9.746300	27.288558	0.000432	20.818606
1907.512385	-3.006500	3.235100	-9.724600	27.308159	0.000433	20.816513
1908.512600	-3.004600	3.233500	-9.714700	27.310712	0.000433	20.835201
1909.513091	-3.007200	3.233600	-9.722700	27.350852	0.000432	20.829113
1910.517124	-2.965100	3.236100	-9.593900	27.345964	0.000432	20.821825
1911.514526	-2.992200	3.234400	-9.676900	27.357551	0.000431	20.822576
1912.514516	-3.004700	3.232900	-9.713000	27.349388	0.000429	20.832856
1913.514513	-3.001300	3.232200	-9.700600	27.378511	0.000429	20.833703
1914.520486	-2.995700	3.232600	-9.683200	27.400292	0.000428	20.825744
1915.517987	-2.996800	3.234200	-9.691800	27.394482	0.000428	20.835072
1916.515248	-2.980300	3.232900	-9.634300	27.383892	0.000426	20.826789
1917.516415	-3.022900	3.230800	-9.764100	27.365535	0.000427	20.837245
1918.517416	-3.017100	3.231500	-9.749000	27.392301	0.000424	20.824342
1919.525758	-2.979800	3.232800	-9.632100	27.394612	0.000424	20.809598
1920.518341	-3.020100	3.230200	-9.753700	27.470292	0.000426	20.834052
1921.520269	-3.008900	3.229200	-9.715700	27.474134	0.000423	20.822744
1922.519554	-3.022200	3.228200	-9.754800	27.493181	0.000423	20.814881
1923.519550	-2.986700	3.229700	-9.645900	27.506106	0.000423	20.834048
1924.519602	-2.999500	3.228700	-9.684600	27.500529	0.000423	20.829386
1925.520212	-2.996000	3.229500	-9.674700	27.452608	0.000423	20.816735
1926.523226	-2.990600	3.227000	-9.649400	27.407262	0.000419	20.800987
1927.521278	-3.002600	3.227600	-9.689300	27.368609	0.000420	20.836070
1928.524858	-3.013500	3.227400	-9.724600	27.367892	0.000419	20.814960
1929.521492	-2.995900	3.226500	-9.665100	27.361418	0.000418	20.819353
1930.523568	-3.001500	3.226700	-9.683000	27.370198	0.000419	20.812539
1931.526203	-2.993900	3.225900	-9.656300	27.404463	0.000416	20.834681
1932.525674	-3.015100	3.225200	-9.722900	27.445192	0.000416	20.812119
1933.523675	-3.019600	3.223200	-9.732100	27.469153	0.000415	20.817260
1934.523972	-3.010800	3.224200	-9.706400	27.539995	0.000415	20.820255
1935.523208	-3.005400	3.224100	-9.688500	27.558970	0.000414	20.824174
1936.524525	-3.008200	3.222900	-9.693400	27.563087	0.000413	20.835902
1937.528524	-3.019500	3.222400	-9.729300	27.567082	0.000413	20.798197
1938.525525	-3.032200	3.221900	-9.768400	27.532676	0.000411	20.804831
1939.530723	-3.018500	3.221000	-9.721800	27.527771	0.000411	20.812224
1940.526731	-2.991100	3.222400	-9.637600	27.522508	0.000411	20.805506
1941.526765	-2.995700	3.220900	-9.648100	27.500262	0.000410	20.808255
1942.530950	-2.984700	3.221700	-9.614200	27.502665	0.000409	20.817784
1943.528419	-3.004100	3.219500	-9.671100	27.454718	0.000409	20.808427
1944.529981	-2.979100	3.220800	-9.593700	27.459256	0.000407	20.824846
1945.528909	-2.987600	3.219500	-9.617100	27.437330	0.000407	20.826969
1946.527122	-2.980000	3.220200	-9.594500	27.452116	0.000403	20.793481
1947.528123	-3.006400	3.218400	-9.674700	27.464265	0.000403	20.830833
1948.527122	-2.994600	3.217900	-9.634400	27.463398	0.000403	20.815736
1949.528122	-2.982700	3.217800	-9.596600	27.498573	0.000402	20.830737
1950.529356	-2.996000	3.215900	-9.633200	27.496192	0.000402	20.807004
1951.529507	-3.002200	3.219100	-9.662800	27.489169	0.000401	20.811318
1952.532110	-3.020500	3.214800	-9.709400	27.475676	0.000401	20.813865
1953.529214	-2.976800	3.217400	-9.576400	27.514021	0.000401	20.809296
1954.532638	-3.013700	3.215600	-9.689200	27.554750	0.000401	20.808549
1955.534048	-3.004300	3.215600	-9.659500	27.547035	0.000399	20.806950
1956.530044	-3.002700	3.214700	-9.651600	27.593567	0.000399	20.818682
1957.535003	-3.008300	3.213300	-9.665100	27.635999	0.000400	20.819651
1958.531225	-3.000700	3.215000	-9.645800	27.658200	0.000397	20.796472
1959.531442	-2.996700	3.213700	-9.628400	27.692519	0.000397	20.780746
1960.531183	-2.980600	3.214300	-9.579100	27.712980	0.000395	20.798491
1961.532182	-3.014900	3.210800	-9.680100	27.734283	0.000396	20.786263
1962.532373	-2.995500	3.211900	-9.620200	27.747522	0.000394	20.798164
1963.536407	-2.986300	3.211200	-9.588000	27.706258	0.000393	20.803107
1964.539789	-2.993100	3.212200	-9.613000	27.685280	0.000393	20.791479
1965.533789	-2.990300	3.213800	-9.607600	27.722429	0.000392	20.798990
1966.533786	-3.001900	3.209000	-9.631500	27.684809	0.000390	20.797169
1967.533787	-2.988000	3.210500	-9.592000	27.620520	0.000389	20.791748
1968.537748	-2.999700	3.208800	-9.624100	27.591357	0.000388	20.791802
1969.534744	-3.008400	3.208500	-9.649800	27.609489	0.000387	20.789658
1970.534730	-3.006100	3.209200	-9.646000	27.623522	0.000386	20.809942
1971.535142	-3.005900	3.208500	-9.643000	27.691476	0.000386	20.801034
1972.534374	-2.993800	3.208100	-9.603300	27.685622	0.000384	20.788504
1973.535376	-3.011500	3.205900	-9.653500	27.631633	0.000385	20.807198
1974.535423	-3.008900	3.205800	-9.645200	27.616679	0.000384	20.820126
1975.537423	-3.008400	3.205400	-9.641800	27.538377	0.000382	20.777850
1976.537442	-2.993400	3.206200	-9.596700	27.529098	0.000385	20.804550
1977.539208	-3.003400	3.204600	-9.623900	27.524535	0.000381	20.792847
1978.541789	-2.984500	3.208900	-9.576500	27.550405	0.000381	20.786159
1979.545435	-2.992500	3.206100	-9.593400	27.554796	0.000379	20.773507
1980.538726	-3.003500	3.203000	-9.618800	27.586666	0.000380	20.778073
1981.539543	-3.000800	3.205400	-9.616800	27.623643	0.000380	20.787779
1982.539543	-2.969700	3.205800	-9.519500	27.604173	0.000376	20.785257
1983.539425	-2.993800	3.203300	-9.588700	27.551940	0.000377	20.793867
1984.545374	-2.996300	3.204900	-9.601300	27.494249	0.000377	20.778971
1985.541903	-3.011200	3.201000	-9.638300	27.458352	0.000376	20.764666
1986.541932	-3.004200	3.202200	-9.619000	27.396589	0.000375	20.773654
1987.541904	-3.013500	3.202900	-9.651600	27.386712	0.000373	20.771779
1988.541905	-2.991200	3.202200	-9.577200	27.396014	0.000373	20.779714
1989.543903	-2.997500	3.200400	-9.592400	27.434115	0.000372	20.786751
1990.540142	-3.023200	3.202000	-9.679500	27.469488	0.000374	20.776819
1991.542077	-3.006900	3.201200	-9.625100	27.512249	0.000371	20.783805
1992.541233	-2.990600	3.199300	-9.566300	27.493523	0.000370	20.791043
1993.541236	-3.014400	3.200000	-9.644900	27.491759	0.000368	20.775992
1994.543324	-2.984200	3.198800	-9.544400	27.481095	0.000370	20.775694
1995.542790	-3.002300	3.199300	-9.604700	27.478784	0.000369	20.779534
1996.542397	-2.998200	3.198300	-9.588300	27.471719	0.000366	20.791866
1997.542520	-3.007700	3.197900	-9.616900	27.460579	0.000366	20.764062
1998.543769	-3.003600	3.197000	-9.601000	27.511824	0.000366	20.776265
1999.543992	-2.998600	3.196500	-9.583100	27.495158	0.000367	20.777515
2000.544482	-2.984900	3.197100	-9.542500	27.480227	0.000363	20.779563
2001.544578	-3.008900	3.195500	-9.613700	27.497014	0.000365	20.766580
2002.545527	-3.013500	3.195700	-9.630200	27.503316	0.000362	20.777188
2003.546792	-2.998700	3.194700	-9.579000	27.524102	0.000362	20.772497
2004.546820	-2.995100	3.193600	-9.563300	27.526676	0.000360	20.759913
2005.550689	-3.001700	3.193800	-9.585600	27.531889	0.000360	20.787443
2006.549781	-2.983700	3.195600	-9.533700	27.525145	0.000361	20.788719
2007.552995	-3.008700	3.192600	-9.605300	27.552028	0.000358	20.767877
2008.550632	-2.998000	3.192800	-9.571000	27.629461	0.000358	20.770399
2009.551830	-2.992400	3.191300	-9.549400	27.608281	0.000359	20.769001
2010.558745	-2.988700	3.192000	-9.538300	27.671370	0.000358	20.768473
2011.553967	-3.004900	3.190400	-9.585400	27.667108	0.000357	20.759443
2012.551647	-2.990200	3.191500	-9.542400	27.721787	0.000357	20.786491
2013.552734	-3.001600	3.188500	-9.569100	27.762283	0.000354	20.764180
2014.552963	-2.992900	3.189600	-9.544600	27.789860	0.000353	20.776760
2015.555006	-2.991800	3.188000	-9.537300	27.790707	0.000351	20.750584
2016.555007	-3.004500	3.187400	-9.575800	27.827948	0.000351	20.761986
2017.555006	-3.012100	3.186600	-9.597400	27.851850	0.000352	20.759015
2018.553206	-3.017500	3.187900	-9.619000	27.873030	0.000351	20.740501
2019.555206	-3.020900	3.185400	-9.621500	27.898444	0.000349	20.749485
2020.554662	-3.024500	3.186600	-9.637800	27.864800	0.000348	20.756400
2021.565378	-3.015100	3.185700	-9.604500	27.809206	0.000347	20.755452
2022.555599	-3.039400	3.183800	-9.676400	27.759685	0.000348	20.754453
2023.556936	-2.982900	3.185100	-9.499500	27.723080	0.000346	20.758394
2024.555206	-3.013800	3.184300	-9.595900	27.734363	0.000346	20.751256
2025.555478	-2.992800	3.184900	-9.530200	27.722763	0.000345	20.752384
2026.560480	-3.007100	3.183600	-9.572600	27.757926	0.000343	20.782081
2027.556481	-3.001700	3.183300	-9.553400	27.786270	0.000345	20.760819
2028.555649	-3.014800	3.183300	-9.596200	27.843824	0.000344	20.768955
2029.556861	-2.988600	3.181500	-9.507300	27.843328	0.000341	20.752334
2030.556756	-3.011900	3.179600	-9.575700	27.850491	0.000340	20.754802
2031.557726	-3.001200	3.182000	-9.548600	27.781313	0.000340	20.737811
2032.560727	-2.977700	3.180700	-9.470700	27.745750	0.000341	20.740429
2033.557314	-2.970200	3.183700	-9.455300	27.726628	0.000339	20.739678
2034.556706	-3.023700	3.177000	-9.605900	27.748356	0.000338	20.733568
2035.556976	-3.018200	3.178300	-9.591200	27.777068	0.000337	20.747290
2036.557209	-3.014600	3.178900	-9.581800	27.823144	0.000336	20.744349
2037.560264	-3.046400	3.175800	-9.673600	27.834698	0.000335	20.766408
2038.558391	-3.014000	3.177400	-9.574000	27.872388	0.000337	20.739855
2039.560946	-3.008200	3.176100	-9.553400	27.862669	0.000335	20.739557
2040.558906	-3.005900	3.177400	-9.550100	27.840205	0.000333	20.756304
2041.560131	-3.009400	3.177100	-9.559800	27.831054	0.000334	20.772224
2042.560727	-2.981400	3.176600	-9.469600	27.795126	0.000332	20.758825
2043.559426	-3.015300	3.173200	-9.566400	27.816427	0.000331	20.752762
2044.559481	-2.957500	3.177200	-9.395400	27.835369	0.000330	20.763290
2045.559531	-3.012200	3.174300	-9.559800	27.796986	0.000331	20.756429
2046.559528	-3.003100	3.173200	-9.528600	27.793638	0.000328	20.771078
2047.561672	-2.992200	3.174000	-9.496400	27.840505	0.000329	20.747122
2048.561600	-2.999400	3.173100	-9.516300	27.848535	0.000327	20.752359
2049.561278	-3.009800	3.171400	-9.544900	27.801501	0.000328	20.779466
2050.562677	-3.034800	3.169900	-9.618100	27.796218	0.000327	20.776521
2051.560677	-3.015200	3.171300	-9.560600	27.794159	0.000326	20.749317
2052.560679	-3.000100	3.170100	-9.509200	27.843999	0.000324	20.775770
2053.566022	-3.012000	3.168300	-9.541500	27.908346	0.000325	20.761821
2054.560652	-2.996500	3.169400	-9.495000	27.935719	0.000323	20.752388
2055.563935	-2.990400	3.170800	-9.480800	27.962917	0.000322	20.770281
2056.560953	-3.005900	3.168100	-9.522300	27.927614	0.000322	20.742808
2057.560953	-2.994300	3.169100	-9.488300	27.903292	0.000321	20.767641
2058.562171	-2.990700	3.167500	-9.472100	27.905248	0.000320	20.753962
2059.564463	-2.993200	3.166900	-9.477900	27.924738	0.000318	20.748448
2060.560604	-3.016300	3.165500	-9.547400	27.946083	0.000318	20.764717
2061.560791	-3.015400	3.164900	-9.541700	27.933192	0.000318	20.751742
2062.561921	-3.014000	3.166100	-9.541400	27.967877	0.000316	20.747773
2063.562130	-3.004100	3.164500	-9.504200	27.967531	0.000316	20.783935
2064.567935	-3.024000	3.164500	-9.568600	27.979708	0.000316	20.769639
2065.564935	-3.016500	3.162200	-9.536300	27.913382	0.000317	20.752665
2066.566988	-3.001100	3.162300	-9.489500	27.872299	0.000315	20.760630
2067.564988	-2.995800	3.164700	-9.479900	27.829027	0.000315	20.769236
2068.564833	-3.027600	3.161200	-9.570500	27.828135	0.000315	20.775925
2069.565685	-2.982300	3.161400	-9.427200	27.832475	0.000312	20.770809
2070.566427	-2.978700	3.162100	-9.417500	27.839442	0.000312	20.758380
2071.565791	-2.996900	3.163200	-9.478100	27.825208	0.000309	20.754961
2072.567584	-2.998000	3.160200	-9.472800	27.797490	0.000311	20.773533
2073.572595	-2.992000	3.161100	-9.457100	27.793070	0.000308	20.753437
2074.567507	-3.007800	3.158700	-9.500200	27.786136	0.000307	20.763529
2075.569403	-3.019100	3.157900	-9.533100	27.792657	0.000308	20.752547
2076.567810	-3.005300	3.157700	-9.488500	27.780011	0.000305	20.764477
2077.567745	-2.994100	3.158300	-9.455000	27.842352	0.000306	20.777905
2078.567745	-2.990700	3.157600	-9.441700	27.899778	0.000306	20.776906
2079.567387	-3.009900	3.155400	-9.496700	27.894992	0.000304	20.775882
2080.569386	-2.994500	3.156500	-9.450100	27.886637	0.000305	20.772689
2081.568653	-3.006500	3.155300	-9.485100	27.865241	0.000305	20.785768
2082.572815	-2.993600	3.154600	-9.442000	27.857061	0.000304	20.763785
2083.570815	-2.974400	3.154300	-9.381000	27.900057	0.000303	20.764859
2084.571712	-3.002500	3.155100	-9.472900	27.938411	0.000302	20.786868
2085.572920	-3.003600	3.152700	-9.467800	27.990408	0.000301	20.784203
2086.572440	-3.021500	3.152000	-9.522600	28.040882	0.000302	20.772894
2087.573222	-2.988500	3.151800	-9.417700	28.053358	0.000300	20.780712
2088.570366	-2.994100	3.151800	-9.436200	27.979203	0.000301	20.781459
2089.572584	-3.000200	3.152000	-9.455400	27.931945	0.000298	20.774669
2090.571340	-3.028900	3.149400	-9.538300	27.952302	0.000297	20.766709
2091.572342	-3.010900	3.150500	-9.483200	27.979574	0.000297	20.774245
2092.571589	-3.000200	3.147600	-9.443000	27.995419	0.000297	20.765064
2093.577571	-3.038700	3.147700	-9.564300	28.001989	0.000294	20.773574
2094.573199	-2.998400	3.148800	-9.439800	28.014015	0.000294	20.773826
2095.572199	-2.995300	3.147400	-9.425100	28.071232	0.000293	20.767410
2096.576241	-3.032000	3.146900	-9.539400	28.079639	0.000294	20.787253
2097.572883	-2.998700	3.147000	-9.435300	28.078647	0.000291	20.765391
2098.573095	-2.994600	3.147000	-9.423700	28.083208	0.000291	20.789897
2099.572319	-3.022700	3.143700	-9.500900	28.105474	0.000291	20.772009
2100.573102	-3.006700	3.144800	-9.454000	28.061244	0.000291	20.764468
2101.572256	-2.987600	3.143700	-9.391400	28.035612	0.000291	20.776599
2102.574305	-3.002700	3.142500	-9.434400	28.010176	0.000290	20.777547
2103.574413	-3.006000	3.142000	-9.443900	27.979978	0.000290	20.785558
2104.575694	-2.996800	3.142000	-9.414000	27.948516	0.000287	20.788029
2105.575038	-2.976700	3.143100	-9.354600	27.883109	0.000286	20.772932
2106.574729	-2.983800	3.141300	-9.371500	27.853975	0.000286	20.777749
2107.576743	-2.997900	3.140500	-9.413600	27.857444	0.000285	20.794516
2108.575962	-2.996300	3.140400	-9.407800	27.881200	0.000284	20.781916
2109.575962	-2.984800	3.139500	-9.368400	27.929598	0.000284	20.813084
2110.574962	-2.983300	3.137600	-9.358100	27.981712	0.000284	20.779243
2111.575194	-2.994000	3.137800	-9.393100	28.016821	0.000284	20.798461
2112.576484	-3.000300	3.137800	-9.412300	28.054254	0.000281	20.789200
2113.576956	-3.002700	3.136100	-9.416100	28.007225	0.000282	20.798759
2114.576959	-2.993100	3.135100	-9.382000	27.984143	0.000279	20.796388
2115.577301	-3.002900	3.135000	-9.413100	27.940454	0.000282	20.787027
2116.576309	-3.031600	3.133000	-9.496700	27.886728	0.000280	20.806446
2117.579482	-3.006000	3.132900	-9.417200	27.862701	0.000278	20.799334
2118.579480	-3.022300	3.132200	-9.465100	27.837953	0.000279	20.802875
2119.576698	-2.999900	3.133200	-9.397900	27.847404	0.000279	20.778722
2120.578878	-3.031700	3.131700	-9.493300	27.890372	0.000277	20.772181
2121.577935	-2.999400	3.131600	-9.392100	27.945244	0.000277	20.779520
2122.578054	-2.994500	3.132000	-9.376300	27.963716	0.000278	20.799061
2123.581474	-3.001200	3.131700	-9.398200	27.986327	0.000274	20.792897
2124.579905	-3.003000	3.129100	-9.395200	28.005044	0.000275	20.809840
2125.585906	-2.990600	3.129900	-9.359500	28.039952	0.000275	20.783338
2126.580119	-3.014500	3.126500	-9.423000	28.055150	0.000275	20.792947
2127.581050	-2.985700	3.128800	-9.339700	28.072553	0.000274	20.805250
2128.584671	-2.993500	3.129800	-9.367600	28.110684	0.000272	20.789108
2129.581249	-3.012600	3.125500	-9.415500	28.152503	0.000273	20.795171
2130.582249	-2.985800	3.126200	-9.332800	28.178924	0.000273	20.804700
2131.582044	-2.985800	3.126600	-9.334400	28.182450	0.000272	20.818681
2132.583046	-3.012500	3.123600	-9.409400	28.182946	0.000269	20.822499
2133.582950	-2.982200	3.124100	-9.315700	28.194921	0.000269	20.800890
2134.585638	-2.980800	3.123200	-9.308600	28.166241	0.000269	20.798095
2135.582603	-2.992400	3.122500	-9.342100	28.162002	0.000267	20.822277
2136.582606	-2.995900	3.122200	-9.352500	28.177519	0.000268	20.808502
2137.583171	-3.007800	3.119500	-9.381800	28.220507	0.000267	20.816218
2138.582173	-2.994300	3.118700	-9.336700	28.228563	0.000265	20.812001
2139.585347	-2.996900	3.120400	-9.350300	28.190540	0.000265	20.807385
2140.583358	-3.013200	3.118700	-9.396200	28.143913	0.000266	20.825403
2141.585820	-3.035100	3.117400	-9.460500	28.118654	0.000265	20.807561
2142.583411	-3.030000	3.117400	-9.443600	28.118979	0.000263	20.814527
2143.583467	-3.022700	3.115400	-9.416100	28.099296	0.000265	20.828377
2144.585467	-2.969500	3.116600	-9.253700	28.161272	0.000262	20.806844
2145.585472	-2.991700	3.116600	-9.323000	28.205819	0.000262	20.834147
2146.588941	-3.016300	3.114500	-9.392200	28.266697	0.000260	20.830479
2147.587162	-2.989200	3.115300	-9.311100	28.279387	0.000260	20.806273
2148.588036	-2.994600	3.114200	-9.324800	28.274157	0.000259	20.810016
2149.595259	-2.997500	3.111700	-9.326300	28.291189	0.000259	20.812940
2150.589475	-2.981900	3.112500	-9.280400	28.309430	0.000258	20.822771
2151.595473	-3.008200	3.110900	-9.357100	28.277732	0.000258	20.825944
2152.590472	-3.006200	3.110600	-9.349000	28.242658	0.000257	20.820501
2153.591747	-3.010300	3.107900	-9.354200	28.170183	0.000255	20.832884
2154.590950	-3.028000	3.107000	-9.406600	28.190114	0.000255	20.842991
2155.592953	-3.006100	3.108000	-9.341500	28.222436	0.000255	20.820057
2156.590950	-2.968800	3.109200	-9.228500	28.244175	0.000255	20.813968
2157.591643	-3.012900	3.105600	-9.356200	28.290277	0.000253	20.831461
2158.591639	-2.999500	3.107000	-9.317800	28.297091	0.000253	20.837847
2159.591702	-3.042300	3.105200	-9.445200	28.324479	0.000253	20.829862
2160.596717	-3.003300	3.105600	-9.326100	28.364014	0.000251	20.833635
2161.593717	-3.040400	3.101100	-9.427400	28.334835	0.000251	20.829858
2162.597966	-3.001100	3.103900	-9.313800	28.320537	0.000250	20.816884
2163.593540	-3.038700	3.101900	-9.424100	28.338502	0.000251	20.841611
2164.593985	-3.019700	3.100200	-9.359600	28.357171	0.000250	20.832435
2165.595322	-2.986800	3.100500	-9.259700	28.381925	0.000250	20.830333
2166.594025	-2.965900	3.101100	-9.197000	28.378803	0.000250	20.819129
2167.594013	-2.952900	3.101100	-9.155100	28.410844	0.000249	20.836219
2168.593580	-3.001600	3.098300	-9.298700	28.391242	0.000250	20.843508
2169.595122	-3.009000	3.098500	-9.322500	28.324671	0.000248	20.840487
2170.594831	-3.000900	3.097400	-9.293800	28.338006	0.000247	20.830207
2171.595767	-2.982800	3.096500	-9.234900	28.312973	0.000248	20.838192
2172.594914	-2.994600	3.096200	-9.270600	28.322416	0.000247	20.817354
2173.594954	-3.002400	3.096000	-9.295200	28.344003	0.000247	20.842883
2174.595460	-2.964400	3.095400	-9.174900	28.322541	0.000245	20.838817
2175.598546	-2.972300	3.094700	-9.197500	28.291389	0.000245	20.841116
2176.598587	-3.024000	3.091300	-9.346700	28.266255	0.000246	20.842362
2177.596025	-2.976500	3.093300	-9.205600	28.228975	0.000243	20.848450
2178.597311	-2.997700	3.092400	-9.269300	28.234623	0.000243	20.830903
2179.597311	-2.977100	3.091300	-9.201500	28.264546	0.000242	20.844909
2180.597466	-2.985100	3.089100	-9.219400	28.293069	0.000244	20.846126
2181.603438	-2.998200	3.088400	-9.257900	28.324725	0.000241	20.828214
2182.598986	-3.011400	3.087100	-9.295400	28.381133	0.000243	20.847078
2183.600169	-3.003700	3.088300	-9.275100	28.425837	0.000244	20.855109
2184.599544	-3.018600	3.086500	-9.315800	28.476194	0.000240	20.850343
2185.599883	-3.017300	3.085900	-9.310100	28.447426	0.000240	20.859305
2186.602106	-2.997900	3.086100	-9.250600	28.437513	0.000241	20.850746
2187.599872	-3.018000	3.083100	-9.304000	28.448734	0.000240	20.858726
2188.600290	-3.003500	3.083000	-9.258700	28.472031	0.000238	20.842358
2189.600290	-3.000800	3.084100	-9.254200	28.488561	0.000238	20.857581
2190.600129	-2.982200	3.082700	-9.191400	28.460906	0.000236	20.854388
2191.600340	-3.023600	3.079000	-9.308800	28.455401	0.000236	20.858802
2192.603000	-3.033700	3.079600	-9.340800	28.434363	0.000237	20.849944
2193.601405	-2.990300	3.079900	-9.208300	28.374140	0.000239	20.864218
2194.602093	-2.990100	3.077700	-9.201700	28.325067	0.000237	20.847997
2195.602767	-2.995400	3.077300	-9.216600	28.317607	0.000237	20.872253
2196.603767	-2.988400	3.075300	-9.188600	28.325733	0.000237	20.858151
2197.607767	-2.997200	3.076100	-9.219400	28.362735	0.000236	20.857002
2198.605815	-2.982100	3.075400	-9.170000	28.363131	0.000235	20.870676
2199.610931	-3.013200	3.073000	-9.257600	28.339115	0.000237	20.857874
2200.606007	-3.008000	3.072000	-9.239800	28.290610	0.000235	20.842228
2201.605008	-3.024500	3.070800	-9.286800	28.303100	0.000234	20.850536
2202.608039	-3.003600	3.071600	-9.225300	28.317853	0.000235	20.858751
2203.607185	-2.995800	3.071400	-9.200400	28.356192	0.000234	20.860845
2204.604186	-2.995500	3.069500	-9.193300	28.382812	0.000234	20.857778
2205.604211	-2.983800	3.070100	-9.158600	28.458743	0.000233	20.874494
2206.605801	-3.002900	3.068500	-9.213500	28.496044	0.000233	20.859427
2207.605834	-2.992300	3.067000	-9.176400	28.531231	0.000232	20.878740
2208.607246	-2.983700	3.065500	-9.145700	28.524740	0.000231	20.879315
2209.605476	-3.004400	3.065400	-9.208700	28.537006	0.000232	20.862272
2210.610279	-2.990200	3.064300	-9.162100	28.552689	0.000232	20.863367
2211.607797	-3.005400	3.062500	-9.203400	28.593970	0.000232	20.884551
2212.606316	-3.005600	3.062400	-9.203300	28.610326	0.000228	20.883007
2213.611721	-3.021000	3.061000	-9.246500	28.619050	0.000230	20.872354
2214.607722	-2.993100	3.060800	-9.160400	28.615159	0.000229	20.881711
2215.607940	-3.019100	3.058600	-9.232900	28.597594	0.000228	20.871133
2216.608025	-3.013200	3.057900	-9.213800	28.598336	0.000229	20.879940
2217.608888	-2.984100	3.058200	-9.124900	28.548014	0.000228	20.875253
2218.608070	-2.996300	3.057300	-9.158400	28.497111	0.000229	20.897482
2219.611072	-3.005600	3.057000	-9.187800	28.457093	0.000227	20.879470
2220.609502	-3.002600	3.054200	-9.170100	28.450651	0.000228	20.892896
2221.609931	-3.016400	3.054000	-9.211100	28.447776	0.000228	20.882889
2222.610931	-3.025300	3.051200	-9.229200	28.490377	0.000227	20.873634
2223.610648	-3.019200	3.050500	-9.209300	28.526631	0.000228	20.888331
2224.614863	-3.013000	3.050500	-9.190600	28.551855	0.000227	20.896664
2225.610858	-2.980900	3.050200	-9.091300	28.585674	0.000227	20.888050
2226.613235	-3.004000	3.048900	-9.158100	28.644501	0.000225	20.871435
2227.611301	-2.982500	3.048000	-9.089000	28.631520	0.000227	20.895342
2228.611746	-3.015900	3.045100	-9.182600	28.589641	0.000225	20.885407
2229.613963	-3.004800	3.046100	-9.152100	28.555843	0.000225	20.893093
2230.611995	-2.990500	3.045000	-9.104300	28.577725	0.000226	20.878148
2231.611168	-2.990800	3.043300	-9.100800	28.601264	0.000226	20.888579
2232.612403	-3.008200	3.042600	-9.151800	28.634244	0.000225	20.895716
2233.612620	-2.983000	3.042600	-9.075300	28.631565	0.000225	20.880217
2234.613007	-2.992100	3.038800	-9.091100	28.613005	0.000225	20.890920
2235.614974	-3.002600	3.039600	-9.125900	28.626837	0.000227	20.892049
2236.612291	-3.016900	3.036700	-9.159700	28.635282	0.000224	20.896286
2237.614058	-2.987200	3.036900	-9.071100	28.639669	0.000224	20.901653
2238.612871	-2.992800	3.035900	-9.085700	28.650175	0.000225	20.883787
2239.614903	-3.022600	3.035000	-9.173500	28.666032	0.000222	20.891222
2240.617080	-2.993500	3.032800	-9.078100	28.642889	0.000224	20.907741
2241.614080	-2.992800	3.033100	-9.076200	28.566425	0.000223	20.900906
2242.614134	-2.988000	3.031900	-9.058100	28.509406	0.000221	20.923138
2243.614318	-2.984400	3.030400	-9.043000	28.450376	0.000222	20.897835
2244.615942	-2.989100	3.029100	-9.053300	28.396797	0.000220	20.900780
2245.615240	-3.005300	3.028700	-9.100500	28.396747	0.000223	20.921590
2246.618571	-3.008100	3.026800	-9.103700	28.344578	0.000223	20.891822
2247.614951	-3.009100	3.026500	-9.106700	28.326012	0.000224	20.909163
2248.616541	-2.983500	3.024700	-9.023400	28.305488	0.000222	20.900826
2249.617110	-3.007900	3.021600	-9.087800	28.302171	0.000224	20.906494
2250.616962	-2.993900	3.022300	-9.047200	28.342669	0.000223	20.896064
2251.621584	-3.006600	3.021600	-9.084200	28.318328	0.000220	20.918968
2252.617583	-2.996900	3.021300	-9.053900	28.286155	0.000221	20.917395
2253.619461	-2.990000	3.019000	-9.026200	28.326258	0.000222	20.916048
2254.618519	-2.969200	3.018600	-8.961300	28.374440	0.000222	20.930896
2255.620519	-2.983100	3.017600	-9.000900	28.422966	0.000219	20.922862
2256.620450	-2.985400	3.015900	-9.003100	28.452184	0.000223	20.895863
2257.620868	-2.978400	3.015700	-8.980800	28.457214	0.000221	20.917521
2258.621827	-2.984000	3.013200	-8.990400	28.506806	0.000221	20.916728
2259.625123	-3.048300	3.010100	-9.173000	28.566842	0.000220	20.925031
2260.622125	-3.021100	3.009500	-9.090800	28.560843	0.000221	20.922308
2261.624186	-2.988300	3.010600	-8.995600	28.546302	0.000220	20.935637
2262.623232	-3.001900	3.006800	-9.024400	28.519786	0.000220	20.929797
2263.622148	-3.003100	3.006300	-9.027400	28.445322	0.000220	20.910287
2264.622220	-3.035100	3.004600	-9.118000	28.408015	0.000220	20.922031
2265.624730	-3.022000	3.004200	-9.077900	28.356567	0.000220	20.921909
2266.624734	-2.978100	3.005200	-8.948700	28.324867	0.000219	20.894260
2267.625222	-3.008900	3.002000	-9.031800	28.347916	0.000218	20.930267
2268.624525	-3.012600	3.000900	-9.039800	28.398476	0.000218	20.914798
2269.627228	-2.999700	3.000400	-8.999500	28.450222	0.000219	20.918066
2270.625997	-2.994000	2.998900	-8.976900	28.541635	0.000218	20.936153
2271.625983	-3.011800	2.996900	-9.025400	28.573229	0.000219	20.946634
2272.629715	-2.976200	2.995700	-8.914700	28.596203	0.000218	20.928996
2273.630418	-3.042700	2.992500	-9.103900	28.628362	0.000218	20.937202
2274.626089	-3.025700	2.991900	-9.051900	28.660078	0.000218	20.930267
2275.627092	-3.013800	2.990400	-9.010600	28.699276	0.000219	20.932289
2276.628361	-2.993200	2.989700	-8.947100	28.740997	0.000218	20.916468
2277.627326	-2.986600	2.988600	-8.924900	28.798228	0.000217	20.928597
2278.630547	-2.972000	2.988200	-8.880400	28.807292	0.000218	20.930141
2279.628545	-3.019100	2.986300	-9.014600	28.857389	0.000218	20.966852
2280.634215	-3.032400	2.983600	-9.046600	28.820872	0.000216	20.934811
2281.630211	-2.971100	2.984800	-8.867600	28.804497	0.000216	20.933015
2282.630808	-2.966500	2.983200	-8.848100	28.760621	0.000216	20.939078
2283.635619	-2.989400	2.982000	-8.913300	28.732948	0.000217	20.918792
2284.631948	-2.979000	2.981100	-8.879800	28.741492	0.000214	20.918389
2285.633963	-3.001100	2.978500	-8.938000	28.804097	0.000218	20.909855
2286.633988	-2.982200	2.976100	-8.874300	28.759926	0.000216	20.922732
2287.634004	-2.993200	2.975600	-8.905000	28.702696	0.000216	20.916770
2288.639003	-2.992800	2.973900	-8.899900	28.680617	0.000217	20.904015
2289.637003	-2.975800	2.972900	-8.845200	28.714686	0.000216	20.913199
2290.634003	-2.990900	2.970000	-8.881900	28.747162	0.000216	20.901342
2291.633529	-2.984300	2.970300	-8.862900	28.787473	0.000216	20.906860
2292.634957	-2.991900	2.967800	-8.878800	28.828973	0.000216	20.879441
2293.636922	-2.979600	2.966800	-8.839000	28.808750	0.000215	20.895578
2294.639669	-3.020100	2.964600	-8.952000	28.804122	0.000215	20.919363
2295.636052	-2.992200	2.965000	-8.869400	28.816952	0.000216	20.888667
2296.636274	-3.011600	2.962400	-8.920100	28.847422	0.000216	20.916514
2297.636274	-2.966700	2.962300	-8.786900	28.893793	0.000217	20.908702
2298.636853	-3.005400	2.959700	-8.892800	28.890453	0.000216	20.886846
2299.638570	-2.994100	2.956900	-8.851200	28.880644	0.000216	20.900671
2300.638377	-2.981800	2.955600	-8.812000	28.853865	0.000217	20.903092
2301.640440	-3.002300	2.954400	-8.867600	28.776742	0.000216	20.886569
2302.638159	-2.994300	2.953600	-8.843400	28.791359	0.000216	20.898922
2303.639243	-3.010600	2.950500	-8.881900	28.770727	0.000216	20.892838
2304.645243	-2.999300	2.949500	-8.844600	28.760517	0.000215	20.896303
2305.640903	-2.997300	2.948800	-8.837600	28.731407	0.000216	20.885000
2306.641622	-3.020900	2.946600	-8.900100	28.682921	0.000215	20.895431
2307.642215	-3.025400	2.944900	-8.908500	28.597811	0.000216	20.886523
2308.641675	-3.002200	2.944300	-8.838000	28.581083	0.000215	20.872522
2309.642925	-2.997100	2.941700	-8.813900	28.624621	0.000216	20.907833
2310.643147	-3.038600	2.939200	-8.930400	28.659654	0.000214	20.882902
2311.642325	-3.024100	2.938900	-8.886500	28.685649	0.000215	20.882533
2312.646780	-3.030000	2.936800	-8.897200	28.693923	0.000215	20.881383
2313.643790	-2.988900	2.935500	-8.771800	28.681633	0.000214	20.880859
2314.643842	-2.987900	2.935600	-8.769700	28.661020	0.000213	20.907036
2315.647624	-2.990100	2.933800	-8.770800	28.684608	0.000214	20.893337
2316.645592	-2.981300	2.932100	-8.740700	28.731332	0.000216	20.883028
2317.645812	-3.027500	2.928400	-8.862600	28.769586	0.000213	20.889792
2318.645781	-3.019300	2.927500	-8.838000	28.789406	0.000214	20.892213
2319.645990	-2.986500	2.927100	-8.741000	28.773023	0.000214	20.879030
2320.645380	-2.995200	2.924900	-8.759800	28.801023	0.000214	20.879260
2321.648139	-3.015500	2.922100	-8.810600	28.815365	0.000214	20.873319
2322.645234	-2.994000	2.921800	-8.747100	28.823071	0.000213	20.888667
2323.645236	-3.012100	2.919300	-8.791900	28.856835	0.000213	20.875266
2324.646785	-3.034700	2.916200	-8.848400	28.879153	0.000214	20.871196
2325.646305	-3.000800	2.917300	-8.753500	28.895722	0.000212	20.867500
2326.651419	-2.997200	2.915800	-8.738500	28.917697	0.000213	20.871146
2327.648455	-3.007800	2.913400	-8.762200	28.897975	0.000215	20.871666
2328.650876	-3.021500	2.910000	-8.791400	28.922399	0.000211	20.880150
2329.648083	-2.995800	2.909800	-8.715400	28.966464	0.000212	20.867173
2330.649061	-2.994400	2.908900	-8.709100	28.922174	0.000214	20.857640
2331.650283	-3.001700	2.906700	-8.723900	28.942857	0.000215	20.887959
2332.650475	-3.004200	2.905500	-8.727600	28.982811	0.000214	20.874159
2333.649827	-3.006400	2.903500	-8.728400	28.977930	0.000213	20.858811
2334.650874	-3.001800	2.901000	-8.707100	28.993140	0.000212	20.877452
2335.651926	-3.001500	2.900500	-8.704600	28.991399	0.000212	20.895612
2336.650926	-3.014800	2.895100	-8.727300	28.978571	0.000211	20.871784
2337.652978	-3.007700	2.895100	-8.706600	28.979042	0.000212	20.863250
2338.651990	-3.020600	2.892200	-8.734500	28.954195	0.000214	20.865243
2339.654979	-3.010900	2.892500	-8.708300	28.984265	0.000214	20.869460
2340.650175	-2.987600	2.888900	-8.628500	29.021072	0.000213	20.872405
2341.650905	-3.023300	2.886400	-8.725600	29.025229	0.000214	20.880386
2342.654372	-3.015000	2.885800	-8.699800	29.036873	0.000214	20.874100
2343.652883	-2.973900	2.885500	-8.580900	29.036231	0.000213	20.869661
2344.653040	-2.966900	2.882700	-8.551000	29.062560	0.000214	20.885282
2345.653181	-2.999800	2.881900	-8.643800	29.039176	0.000212	20.859826
2346.652306	-3.027300	2.877100	-8.707700	29.037614	0.000213	20.851141
2347.652978	-3.022000	2.877200	-8.693700	29.003856	0.000210	20.859801
2348.655023	-2.998800	2.876000	-8.622700	29.041379	0.000210	20.868209
2349.653741	-3.007800	2.871900	-8.637600	29.013685	0.000213	20.872074
2350.653746	-2.992000	2.871000	-8.587400	28.972050	0.000214	20.861895
2351.654847	-3.005400	2.868200	-8.618400	28.910546	0.000214	20.839762
2352.653767	-2.980900	2.867300	-8.546300	28.923824	0.000213	20.860250
2353.655765	-3.006100	2.865200	-8.612500	28.979505	0.000212	20.854707
2354.653764	-2.987400	2.863700	-8.553400	28.998308	0.000210	20.875074
2355.656765	-3.015900	2.860700	-8.626000	28.979038	0.000212	20.856134
2356.656765	-2.989800	2.858700	-8.546400	28.950575	0.000212	20.850218
2357.655766	-3.021100	2.856200	-8.627900	28.938114	0.000211	20.849517
2358.659868	-2.987300	2.856100	-8.531600	28.961996	0.000211	20.853662
2359.658248	-3.024000	2.852700	-8.623900	28.999420	0.000212	20.849169
2360.656867	-3.018100	2.849600	-8.599100	28.944132	0.000211	20.859847
2361.658672	-3.006400	2.848500	-8.562300	28.930209	0.000210	20.848191
2362.657755	-2.983700	2.847100	-8.494300	28.917930	0.000210	20.848149
2363.657670	-2.996500	2.844200	-8.522200	28.909996	0.000213	20.855328
2364.659348	-2.983500	2.843100	-8.481300	28.886317	0.000211	20.851863
2365.659402	-3.009700	2.841500	-8.551400	28.930188	0.000209	20.848644
2366.661638	-2.987200	2.839500	-8.481500	28.984827	0.000211	20.839682
2367.659684	-2.992000	2.836300	-8.485100	29.024458	0.000210	20.870601
2368.658545	-3.009700	2.834200	-8.529200	29.022526	0.000211	20.850637
2369.663235	-2.970800	2.832600	-8.413800	29.026616	0.000210	20.857602
2370.658280	-3.000600	2.829700	-8.490000	29.036994	0.000210	20.842930
2371.660240	-2.995500	2.828700	-8.471900	29.071047	0.000211	20.850214
2372.660239	-2.989900	2.824400	-8.443600	29.086893	0.000210	20.839154
2373.661252	-2.996900	2.823300	-8.460500	29.139891	0.000210	20.853676
2374.660747	-3.003800	2.821100	-8.472800	29.192225	0.000211	20.849513
2375.663449	-2.972100	2.819000	-8.377400	29.196260	0.000210	20.845045
2376.660447	-2.999400	2.815100	-8.443000	29.151213	0.000212	20.861291
2377.662021	-2.995300	2.813500	-8.425200	29.126299	0.000209	20.851359
2378.661954	-3.015200	2.811400	-8.476300	29.132833	0.000210	20.841348
2379.661971	-3.011600	2.808700	-8.457300	29.113540	0.000209	20.839452
2380.665610	-2.998800	2.806900	-8.416900	29.133653	0.000211	20.846916
2381.662778	-3.018200	2.803300	-8.460000	29.146800	0.000209	20.845938
2382.663006	-3.032500	2.801200	-8.493700	29.110792	0.000210	20.845217
2383.664005	-3.005100	2.798300	-8.408400	29.041912	0.000209	20.826549
2384.662031	-2.992000	2.796800	-8.366400	29.013797	0.000210	20.833309
2385.663451	-3.007400	2.793000	-8.399200	29.032472	0.000209	20.838848
2386.669724	-2.978900	2.791300	-8.314000	29.070639	0.000214	20.815191
2387.662770	-2.977700	2.788000	-8.301300	29.111900	0.000211	20.844911
2388.663771	-3.011600	2.785500	-8.388300	29.163165	0.000211	20.837299
2389.664402	-3.051700	2.783400	-8.492300	29.152192	0.000211	20.851372
2390.664408	-3.017500	2.781200	-8.391100	29.122893	0.000208	20.857410
2391.664615	-3.011300	2.779200	-8.368200	29.106545	0.000208	20.850420
2392.664587	-3.012300	2.774800	-8.357700	29.126533	0.000210	20.835474
2393.665443	-3.027600	2.771000	-8.388800	29.178589	0.000211	20.828660
2394.665738	-2.997200	2.769700	-8.299900	29.183714	0.000210	20.835248
2395.666702	-3.001300	2.766700	-8.302000	29.179626	0.000208	20.850567
2396.668912	-3.017000	2.764500	-8.339300	29.132963	0.000210	20.841953
2397.668081	-3.017000	2.760000	-8.326500	29.122144	0.000211	20.831052
2398.671112	-3.002600	2.759400	-8.284200	29.108819	0.000208	20.835168
2399.668070	-3.008100	2.754200	-8.283300	29.127220	0.000209	20.810563
2400.669932	-2.987500	2.752200	-8.220600	29.102177	0.000209	20.823260
2401.671504	-2.995600	2.750100	-8.238200	29.052766	0.000210	20.816622
2402.672501	-3.005300	2.746100	-8.251300	29.015593	0.000208	20.851238
2403.670818	-2.997900	2.744000	-8.225600	29.039219	0.000210	20.821464
2404.670865	-2.988200	2.740000	-8.186400	29.051925	0.000209	20.817671
2405.670918	-2.996500	2.736600	-8.197700	29.027425	0.000209	20.809582
2406.671853	-3.017800	2.733000	-8.246500	29.040256	0.000209	20.843846
2407.673631	-2.981700	2.732200	-8.145300	29.060737	0.000211	20.836507
2408.670340	-2.991000	2.727600	-8.157200	29.024651	0.000210	20.814373
2409.676280	-2.997200	2.725000	-8.166000	29.027200	0.000210	20.831640
2410.674787	-3.010500	2.721400	-8.192300	29.061678	0.000210	20.848835
2411.672734	-3.007300	2.716800	-8.168600	29.053995	0.000210	20.832085
2412.677863	-3.019900	2.713000	-8.190900	29.101178	0.000210	20.817038
2413.672420	-3.012500	2.710100	-8.162800	29.096589	0.000208	20.824268
2414.672418	-3.012600	2.705700	-8.149500	29.138598	0.000211	20.823450
2415.674591	-3.025300	2.703200	-8.176300	29.201250	0.000210	20.814512
2416.673803	-3.001500	2.699500	-8.101400	29.225963	0.000209	20.828984
2417.674085	-2.968400	2.697900	-8.006600	29.289451	0.000208	20.815205
2418.678087	-2.966000	2.693100	-7.987400	29.293290	0.000207	20.816703
2419.679317	-3.000700	2.688800	-8.067400	29.356132	0.000208	20.806545
2420.675149	-3.004800	2.685600	-8.068600	29.382428	0.000207	20.824512
2421.675150	-2.972900	2.682200	-7.972400	29.419442	0.000208	20.829576
2422.675495	-2.975000	2.677600	-7.964500	29.436548	0.000209	20.817421
2423.677703	-2.979500	2.674300	-7.966900	29.456206	0.000207	20.817320
2424.676481	-2.999400	2.668900	-8.004200	29.457784	0.000209	20.816540
2425.677655	-3.006700	2.664300	-8.010200	29.468137	0.000208	20.834087
2426.676638	-3.012800	2.662300	-8.020300	29.491407	0.000211	20.792585
2427.676640	-3.028200	2.655700	-8.041100	29.474768	0.000209	20.787667
2428.678759	-3.033800	2.652600	-8.046400	29.489971	0.000209	20.798724
2429.678972	-2.999800	2.649900	-7.947600	29.520692	0.000209	20.810724
2430.677814	-3.000600	2.645000	-7.935700	29.518935	0.000208	20.790462
2431.682061	-3.006300	2.640900	-7.937900	29.487194	0.000209	20.815365
2432.677293	-2.990900	2.636300	-7.883800	29.487515	0.000208	20.809524
2433.678162	-2.989000	2.631700	-7.864600	29.453921	0.000208	20.821655
2434.679163	-2.995900	2.626800	-7.868800	29.383698	0.000209	20.806352
2435.679459	-2.983400	2.623000	-7.824000	29.311668	0.000209	20.818156
2436.680845	-2.963200	2.619300	-7.760100	29.231610	0.000207	20.812865
2437.679189	-3.016000	2.611700	-7.875300	29.168785	0.000208	20.782745
2438.678288	-3.018000	2.606000	-7.864600	29.155335	0.000206	20.806650
2439.681715	-2.987600	2.603800	-7.778000	29.159124	0.000208	20.809521
2440.680717	-3.021000	2.596300	-7.842200	29.146986	0.000207	20.803927
2441.681003	-2.997500	2.593200	-7.771900	29.124895	0.000209	20.796840
2442.680048	-3.010400	2.586500	-7.785800	29.183288	0.000209	20.805896
2443.681307	-2.973500	2.581800	-7.675000	29.252354	0.000209	20.794415
2444.685487	-2.996900	2.576300	-7.719600	29.325129	0.000209	20.819394
2445.681491	-2.981500	2.570500	-7.662600	29.368141	0.000211	20.784508
2446.680489	-3.006200	2.564100	-7.706700	29.422537	0.000210	20.794289
2447.680442	-2.998200	2.558800	-7.670800	29.497011	0.000210	20.816251
2448.681661	-3.009000	2.553100	-7.680400	29.480518	0.000209	20.804843
2449.682071	-2.975300	2.547200	-7.577900	29.500350	0.000210	20.810608
2450.683818	-2.983200	2.542500	-7.584000	29.520401	0.000209	20.786250
2451.683819	-3.023700	2.535000	-7.664500	29.526587	0.000211	20.818564
2452.684079	-3.003200	2.528700	-7.593400	29.525155	0.000209	20.809534
2453.682669	-2.983800	2.522700	-7.525900	29.546093	0.000207	20.790811
2454.683235	-3.041500	2.514400	-7.647100	29.492595	0.000211	20.791886
2455.686234	-3.026900	2.508300	-7.591500	29.450130	0.000209	20.800765
2456.683272	-3.007100	2.504500	-7.530700	29.394178	0.000208	20.806484
2457.683327	-3.006500	2.498700	-7.511300	29.341163	0.000208	20.774862
