LabVIEW Measurement	
Writer_Version	2
Reader_Version	2
Separator	Tab
Decimal_Separator	.
Multi_Headings	No
X_Columns	One
Time_Pref	Absolute
Operator	admin
Description	Clolumns are: time, Current, Voltage, Power, Battery Temp, and Chamber Temp
Date	2024/08/16
Time	13:06:06.104549407958984375
***End_of_Header***	
	
Channels	6						
Samples	1	1	1	1	1	1	
Date	2024/09/13	2024/09/13	2024/09/13	2024/09/13	2024/09/13	2024/09/13	
Time	10:19:32.1273670196533203125	10:19:32.1332302093505859375	10:19:32.1382350921630859375	10:19:32.1110758781433105469	10:19:32.1110758781433105469	10:19:32.1110758781433105469	
X_Dimension	Time	Time	Time	Time	Time	Time	
X0	0.0000000000000000E+0	0.0000000000000000E+0	0.0000000000000000E+0	0.0000000000000000E+0	0.0000000000000000E+0	0.0000000000000000E+0	
Delta_X	1.000000	1.000000	1.000000	1.000000	1.000000	1.000000	
***End_of_Header***							
X_Value	Untitled	Untitled 1	Untitled 2	Untitled 3	Untitled 4	Untitled 5	Comment
0.000000	0.018915	4.091400	0.077377	21.073132	0.000920	20.860742
0.999426	-2.998400	3.914400	-11.736000	21.083210	0.000922	20.853279
2.000364	-2.984700	3.907700	-11.663000	21.079763	0.000920	20.859788
3.002780	-2.998500	3.900800	-11.696000	21.078464	0.000918	20.878877
4.000572	-3.001000	3.898100	-11.697000	21.085407	0.000917	20.863063
4.999593	-2.999300	3.895200	-11.681000	21.079437	0.000917	20.885065
5.999234	-2.988200	3.893100	-11.632000	21.103420	0.000916	20.877761
6.999659	-2.997500	3.889200	-11.657000	21.108309	0.000915	20.861789
8.003510	-3.007100	3.887700	-11.690000	21.111153	0.000915	20.858470
9.002865	-2.994200	3.884700	-11.631000	21.117967	0.000913	20.875242
10.003226	-3.015900	3.882500	-11.708000	21.097559	0.000913	20.883278
11.004085	-3.014800	3.880100	-11.696000	21.107637	0.000912	20.868703
12.003777	-2.990900	3.879600	-11.602000	21.132785	0.000909	20.871573
13.007013	-3.016400	3.878700	-11.698000	21.118491	0.000910	20.866283
14.007028	-2.978700	3.877400	-11.549000	21.125606	0.000909	20.900425
15.004483	-3.015000	3.875300	-11.682000	21.128974	0.000909	20.876295
16.005139	-3.029700	3.874500	-11.738000	21.136158	0.000907	20.873524
17.005431	-2.984300	3.874100	-11.560000	21.143969	0.000907	20.864269
18.005048	-2.980500	3.873300	-11.543000	21.151406	0.000907	20.877870
19.007796	-2.990500	3.872000	-11.578000	21.155400	0.000905	20.872384
20.005932	-3.033000	3.869600	-11.734000	21.140103	0.000908	20.885056
21.004148	-2.976100	3.871300	-11.520000	21.157272	0.000905	20.873307
22.005019	-3.009200	3.869200	-11.642000	21.173191	0.000906	20.875954
23.009571	-2.995600	3.868500	-11.586000	21.164031	0.000902	20.889076
24.004908	-2.976700	3.868000	-11.511000	21.173462	0.000906	20.869588
25.004044	-3.005400	3.866500	-11.619000	21.179002	0.000903	20.871811
26.003992	-2.983500	3.866600	-11.534000	21.170919	0.000903	20.872734
27.004663	-2.986500	3.866200	-11.544000	21.201299	0.000903	20.872304
28.003805	-2.999700	3.865200	-11.593000	21.188408	0.000904	20.872211
29.006529	-2.997000	3.863800	-11.579000	21.182172	0.000905	20.861706
30.004811	-3.011900	3.865400	-11.641000	21.199606	0.000902	20.864447
31.005424	-3.008000	3.864300	-11.622000	21.230538	0.000904	20.868837
32.007102	-2.984800	3.863300	-11.530000	21.194896	0.000904	20.854520
33.007964	-2.985500	3.862000	-11.530000	21.206622	0.000903	20.850130
34.011015	-3.001000	3.861900	-11.588000	21.215178	0.000905	20.870542
35.008406	-3.001900	3.862200	-11.593000	21.238729	0.000902	20.855222
36.011683	-3.008900	3.859900	-11.613000	21.232938	0.000901	20.853221
37.010352	-2.992400	3.858800	-11.544000	21.235061	0.000903	20.854397
38.009654	-3.005300	3.859400	-11.596000	21.241543	0.000904	20.871312
39.010926	-2.997700	3.859400	-11.568000	21.257554	0.000903	20.842286
40.010940	-2.970500	3.859600	-11.464000	21.247507	0.000902	20.853572
41.010143	-3.002200	3.856900	-11.578000	21.265162	0.000902	20.876922
42.015115	-3.005100	3.857700	-11.590000	21.265735	0.000904	20.853789
43.012423	-3.005900	3.856100	-11.590000	21.288257	0.000901	20.842656
44.012729	-2.984900	3.858500	-11.516000	21.272543	0.000902	20.836893
45.013753	-2.994600	3.856600	-11.549000	21.289131	0.000901	20.844953
46.012570	-3.028200	3.853500	-11.668000	21.300205	0.000902	20.842755
47.013031	-3.016700	3.854900	-11.628000	21.308933	0.000902	20.845323
48.013094	-3.018700	3.853900	-11.632000	21.289175	0.000902	20.834092
49.013126	-2.990500	3.855100	-11.527000	21.316560	0.000903	20.851057
50.016439	-2.994100	3.855000	-11.541000	21.318752	0.000902	20.837603
51.014073	-2.980000	3.854000	-11.484000	21.308098	0.000901	20.846384
52.015318	-2.995800	3.854600	-11.546000	21.329198	0.000902	20.846157
53.012945	-3.010000	3.852900	-11.595000	21.339471	0.000902	20.832727
54.014849	-2.987000	3.853200	-11.508000	21.340784	0.000901	20.842101
55.017467	-3.005500	3.853800	-11.582000	21.347444	0.000901	20.861565
56.019516	-3.015000	3.851900	-11.612000	21.344027	0.000902	20.831596
57.014643	-3.009400	3.852900	-11.593000	21.383382	0.000902	20.839201
58.015785	-3.015200	3.851900	-11.611000	21.379566	0.000903	20.823530
59.015776	-3.006800	3.850500	-11.577000	21.398715	0.000901	20.828464
60.014474	-3.031400	3.851100	-11.673000	21.409787	0.000902	20.830533
61.018538	-3.003500	3.850500	-11.564000	21.417942	0.000902	20.838218
62.016366	-2.991600	3.851100	-11.520000	21.424947	0.000902	20.823416
63.021601	-3.003100	3.848600	-11.556000	21.424591	0.000900	20.837284
64.017448	-2.999100	3.849100	-11.543000	21.426585	0.000902	20.829796
65.018494	-2.989400	3.848700	-11.504000	21.426709	0.000901	20.848885
66.017523	-3.006500	3.847700	-11.566000	21.426303	0.000900	20.827144
67.017013	-3.004600	3.848300	-11.561000	21.443186	0.000901	20.822224
68.020198	-3.010500	3.847900	-11.582000	21.438515	0.000901	20.834621
69.016251	-3.003500	3.848300	-11.558000	21.436220	0.000903	20.816203
70.017122	-3.010200	3.847900	-11.583000	21.466543	0.000902	20.829000
71.016314	-3.011000	3.846900	-11.582000	21.473217	0.000904	20.851797
72.019728	-3.043700	3.845400	-11.701000	21.458181	0.000903	20.825848
73.017801	-2.988500	3.845900	-11.492000	21.493292	0.000903	20.838694
74.018006	-3.002000	3.845400	-11.543000	21.505533	0.000902	20.831029
75.017664	-2.991300	3.845700	-11.502000	21.493435	0.000902	20.833147
76.017764	-2.993900	3.844600	-11.508000	21.516274	0.000904	20.820913
77.022823	-2.990100	3.845300	-11.496000	21.514970	0.000902	20.818661
78.019391	-3.001100	3.844900	-11.538000	21.539536	0.000903	20.829018
79.020116	-3.014700	3.843200	-11.585000	21.525242	0.000902	20.799067
80.018396	-3.012900	3.843600	-11.579000	21.562142	0.000903	20.821292
81.018905	-3.022700	3.843700	-11.617000	21.562389	0.000905	20.816798
82.023320	-3.001900	3.843700	-11.537000	21.545977	0.000903	20.823134
83.023319	-2.979500	3.844300	-11.453000	21.568993	0.000903	20.809656
84.021163	-2.995700	3.844900	-11.517000	21.567946	0.000904	20.825678
85.023470	-2.986200	3.844600	-11.480000	21.589086	0.000903	20.817908
86.022542	-2.994800	3.844100	-11.511000	21.587037	0.000904	20.826290
87.021939	-3.019700	3.843400	-11.605000	21.583543	0.000903	20.827534
88.028715	-3.006700	3.843800	-11.556000	21.603863	0.000904	20.826057
89.022639	-2.998900	3.843700	-11.525000	21.615155	0.000904	20.824556
90.027817	-2.986200	3.842500	-11.473000	21.607895	0.000904	20.814919
91.023761	-2.992500	3.842000	-11.496000	21.638318	0.000905	20.807906
92.023615	-3.006400	3.841900	-11.550000	21.642434	0.000904	20.825775
93.027355	-3.003300	3.840600	-11.534000	21.654318	0.000906	20.831504
94.023788	-2.994600	3.841700	-11.503000	21.651297	0.000905	20.797188
95.024215	-3.001300	3.840600	-11.526000	21.671468	0.000904	20.795088
96.024446	-3.006000	3.838000	-11.536000	21.659722	0.000905	20.804196
97.023178	-2.998400	3.839000	-11.511000	21.669385	0.000906	20.807702
98.024225	-2.993900	3.839700	-11.494000	21.687068	0.000907	20.803588
99.025622	-2.998400	3.839100	-11.510000	21.686535	0.000905	20.822020
100.025061	-3.003600	3.839400	-11.531000	21.704090	0.000905	20.805924
101.025094	-2.973800	3.840200	-11.418000	21.708255	0.000906	20.820524
102.025410	-3.019600	3.838100	-11.588000	21.695058	0.000907	20.819644
103.027402	-3.006000	3.837800	-11.536000	21.695083	0.000907	20.816350
104.035666	-3.004000	3.838400	-11.529000	21.728464	0.000908	20.804239
105.028507	-3.012200	3.836900	-11.556000	21.723874	0.000905	20.813396
106.029584	-3.019300	3.837000	-11.584000	21.745687	0.000906	20.839968
107.030116	-3.000100	3.838300	-11.513000	21.735072	0.000906	20.806585
108.029535	-3.016500	3.836100	-11.571000	21.749581	0.000907	20.806407
109.031604	-2.970000	3.838200	-11.399000	21.754018	0.000906	20.820805
110.031774	-3.005700	3.836700	-11.531000	21.750701	0.000907	20.813218
111.030071	-2.976600	3.837200	-11.421000	21.762792	0.000908	20.816310
112.030060	-2.990400	3.837300	-11.474000	21.774562	0.000907	20.837098
113.030379	-3.012500	3.835900	-11.554000	21.781392	0.000909	20.822123
114.032059	-2.995100	3.836900	-11.491000	21.776610	0.000908	20.822079
115.030508	-2.995100	3.837300	-11.492000	21.783415	0.000908	20.836002
116.031199	-2.993900	3.836000	-11.483000	21.779975	0.000908	20.799843
117.036170	-3.018000	3.835700	-11.574000	21.815383	0.000909	20.806358
118.030490	-3.017400	3.834500	-11.569000	21.816646	0.000910	20.794346
119.031282	-3.019800	3.833600	-11.576000	21.824428	0.000910	20.796445
120.034288	-3.009700	3.833500	-11.537000	21.838166	0.000910	20.802135
121.030711	-2.996100	3.834600	-11.487000	21.839138	0.000910	20.798366
122.033115	-3.005100	3.834300	-11.521000	21.825523	0.000911	20.784739
123.030715	-3.001300	3.834000	-11.506000	21.849511	0.000911	20.802584
124.030503	-3.035600	3.831400	-11.630000	21.874914	0.000912	20.804777
125.034868	-2.988200	3.834200	-11.455000	21.869831	0.000912	20.814389
126.031620	-2.993000	3.833800	-11.474000	21.880425	0.000912	20.788957
127.033616	-2.982900	3.833900	-11.435000	21.876729	0.000914	20.810862
128.032380	-2.997400	3.833000	-11.489000	21.891789	0.000914	20.807444
129.032543	-2.982900	3.832400	-11.431000	21.859350	0.000914	20.809114
130.033112	-2.999700	3.833600	-11.499000	21.871519	0.000915	20.790473
131.036551	-3.020100	3.831200	-11.570000	21.866579	0.000916	20.782684
132.033249	-2.992800	3.830800	-11.464000	21.891202	0.000917	20.800692
133.033936	-3.000700	3.830400	-11.493000	21.881481	0.000915	20.778634
134.033872	-3.004000	3.831100	-11.507000	21.881875	0.000916	20.798944
135.034043	-3.014100	3.832300	-11.550000	21.905635	0.000917	20.799018
136.036358	-3.003500	3.830400	-11.503000	21.913110	0.000916	20.794646
137.034291	-3.000900	3.830400	-11.494000	21.943002	0.000917	20.795644
138.038286	-2.983000	3.830800	-11.426000	21.953620	0.000916	20.796316
139.035100	-2.993600	3.830800	-11.465000	21.927942	0.000917	20.782941
140.035600	-3.009000	3.829700	-11.523000	21.952993	0.000917	20.799956
141.034906	-2.981200	3.830200	-11.417000	21.931500	0.000917	20.805942
142.035617	-2.976900	3.830800	-11.403000	21.915616	0.000919	20.784827
143.036377	-3.007100	3.827000	-11.507000	21.936330	0.000918	20.790863
144.037405	-2.996500	3.829400	-11.473000	21.940569	0.000918	20.758121
145.038391	-3.031600	3.827000	-11.601000	21.951083	0.000918	20.783345
146.037533	-3.007400	3.827800	-11.511000	21.968703	0.000918	20.796241
147.040611	-3.030600	3.828400	-11.602000	21.948285	0.000918	20.789553
148.055744	-3.002700	3.829600	-11.497000	21.985104	0.000919	20.796063
149.039000	-3.025200	3.827700	-11.578000	21.994897	0.000921	20.789746
150.038286	-2.991000	3.827300	-11.445000	21.992628	0.000921	20.796009
151.038143	-3.003100	3.827900	-11.494000	21.999205	0.000920	20.808282
152.041407	-3.006500	3.826600	-11.504000	22.032834	0.000920	20.781255
153.039091	-3.006400	3.827200	-11.506000	22.022414	0.000921	20.793583
154.041644	-3.027500	3.825800	-11.582000	22.024974	0.000924	20.780499
155.040174	-2.975300	3.826200	-11.383000	22.022108	0.000923	20.810347
156.040675	-3.023900	3.825100	-11.565000	22.020534	0.000923	20.806874
157.042212	-2.995900	3.825600	-11.459000	22.052445	0.000923	20.785241
158.041368	-3.032900	3.824300	-11.598000	22.049697	0.000922	20.790076
159.040051	-3.022000	3.825200	-11.559000	22.053605	0.000922	20.797781
160.040623	-2.998100	3.825900	-11.469000	22.102186	0.000923	20.794734
161.041996	-2.999800	3.825000	-11.472000	22.100543	0.000923	20.794512
162.043676	-3.020200	3.823400	-11.546000	22.081450	0.000925	20.771604
163.044510	-2.994200	3.823500	-11.447000	22.092319	0.000926	20.795761
164.045453	-3.011700	3.822800	-11.513000	22.112102	0.000926	20.766729
165.048016	-2.977100	3.824700	-11.385000	22.140425	0.000926	20.787024
166.045963	-3.001800	3.822800	-11.475000	22.143133	0.000927	20.793054
167.045288	-2.992700	3.822500	-11.438000	22.153932	0.000927	20.792961
168.049778	-2.981800	3.823500	-11.399000	22.141668	0.000927	20.768828
169.046715	-2.984700	3.823800	-11.411000	22.145851	0.000926	20.782025
170.047647	-2.987100	3.822600	-11.418000	22.171297	0.000926	20.768146
171.044685	-2.990200	3.823000	-11.431000	22.161904	0.000927	20.762535
172.045950	-2.994800	3.822300	-11.446000	22.180246	0.000930	20.784218
173.045610	-3.017500	3.821700	-11.531000	22.188824	0.000929	20.749659
174.048885	-3.011900	3.821700	-11.510000	22.184735	0.000930	20.778756
175.045420	-3.015100	3.822400	-11.524000	22.188819	0.000928	20.767198
176.045420	-3.017400	3.821500	-11.530000	22.202430	0.000932	20.763281
177.046208	-3.015300	3.820500	-11.519000	22.216287	0.000930	20.778578
178.046571	-3.016400	3.820800	-11.523000	22.205044	0.000932	20.776330
179.050828	-2.979300	3.821600	-11.383000	22.211699	0.000933	20.785364
180.049588	-2.992400	3.820300	-11.431000	22.256416	0.000934	20.766600
181.053207	-2.992900	3.820900	-11.434000	22.255789	0.000933	20.781620
182.051406	-3.018200	3.818500	-11.523000	22.249929	0.000933	20.765795
183.051530	-2.980400	3.821200	-11.388000	22.278692	0.000935	20.790328
184.051959	-2.987700	3.820600	-11.415000	22.263563	0.000935	20.768067
185.051357	-3.002900	3.820000	-11.469000	22.260470	0.000935	20.775402
186.050855	-2.982400	3.819900	-11.392000	22.253042	0.000936	20.774127
187.051173	-3.011600	3.817000	-11.494000	22.269290	0.000936	20.782336
188.053082	-2.986300	3.818700	-11.403000	22.306601	0.000938	20.759003
189.053367	-2.980300	3.819400	-11.382000	22.286811	0.000939	20.769534
190.056324	-2.979900	3.819200	-11.380000	22.299094	0.000938	20.760495
191.053936	-3.010000	3.817200	-11.489000	22.322918	0.000938	20.760643
192.056306	-3.002900	3.818000	-11.464000	22.317379	0.000938	20.767899
193.055558	-3.003300	3.818100	-11.465000	22.321793	0.000940	20.767104
194.055770	-2.998200	3.818500	-11.448000	22.337015	0.000941	20.754844
195.058672	-2.998400	3.816600	-11.443000	22.340236	0.000940	20.749060
196.055021	-3.003100	3.816900	-11.461000	22.347427	0.000940	20.761952
197.059022	-2.984200	3.817900	-11.391000	22.351896	0.000941	20.761211
198.055149	-2.997000	3.815700	-11.435000	22.355008	0.000942	20.766224
199.056419	-2.991200	3.815700	-11.411000	22.362259	0.000942	20.765424
200.056306	-2.969000	3.816100	-11.329000	22.375734	0.000942	20.782711
201.059860	-3.006200	3.815000	-11.466000	22.368360	0.000943	20.761102
202.057241	-2.992400	3.814300	-11.413000	22.371374	0.000946	20.759853
203.057260	-2.986600	3.816500	-11.398000	22.364967	0.000944	20.762920
204.056260	-3.013500	3.812300	-11.487000	22.373465	0.000944	20.774749
205.056875	-2.996400	3.815600	-11.431000	22.406630	0.000944	20.777614
206.058566	-2.997200	3.814500	-11.432000	22.435216	0.000945	20.755506
207.056706	-3.028500	3.812000	-11.543000	22.413461	0.000947	20.763117
208.057452	-2.979200	3.814600	-11.363000	22.441869	0.000947	20.778765
209.057354	-3.007300	3.813900	-11.468000	22.440321	0.000948	20.756351
210.057656	-3.012200	3.812300	-11.482000	22.436281	0.000946	20.746141
211.060208	-3.003700	3.814500	-11.457000	22.429081	0.000947	20.737507
212.059539	-3.014900	3.811000	-11.488000	22.449287	0.000948	20.730715
213.057764	-2.993300	3.813700	-11.413000	22.456389	0.000947	20.755373
214.058945	-3.003900	3.811500	-11.448000	22.467723	0.000948	20.747756
215.060799	-3.002000	3.812000	-11.443000	22.460270	0.000949	20.735551
216.060695	-2.974700	3.812400	-11.339000	22.449336	0.000949	20.739300
217.061591	-2.993800	3.811300	-11.409000	22.494813	0.000950	20.745015
218.058766	-3.008600	3.810000	-11.462000	22.467649	0.000951	20.749579
219.058975	-2.977700	3.812100	-11.350000	22.501511	0.000952	20.754093
220.058996	-2.982600	3.810600	-11.364000	22.485260	0.000951	20.762001
221.058995	-2.985700	3.810700	-11.376000	22.493161	0.000953	20.756637
222.063005	-2.988400	3.812100	-11.390000	22.496697	0.000952	20.726038
223.059872	-2.975900	3.810200	-11.338000	22.473098	0.000955	20.748872
224.061194	-2.996400	3.810600	-11.417000	22.456798	0.000956	20.737290
225.060642	-2.980100	3.809300	-11.351000	22.489995	0.000954	20.763423
226.060646	-2.983700	3.809500	-11.365000	22.476482	0.000954	20.763167
227.062583	-2.991400	3.808500	-11.391000	22.487169	0.000954	20.774818
228.064178	-2.976100	3.809900	-11.338000	22.499607	0.000954	20.750764
229.061939	-2.991800	3.808700	-11.393000	22.530331	0.000957	20.753560
230.063394	-3.001200	3.808400	-11.428000	22.531998	0.000955	20.747168
231.062722	-2.985800	3.807700	-11.368000	22.555172	0.000955	20.749040
232.061743	-2.999900	3.807700	-11.422000	22.547473	0.000957	20.756504
233.064905	-2.991100	3.808300	-11.390000	22.558283	0.000957	20.753105
234.061669	-2.984000	3.808300	-11.362000	22.543410	0.000958	20.754330
235.067162	-3.003100	3.807400	-11.434000	22.573359	0.000959	20.745919
236.061524	-2.996600	3.807500	-11.409000	22.577526	0.000959	20.751041
237.063970	-3.009300	3.805800	-11.451000	22.572885	0.000956	20.746867
238.061676	-3.014500	3.806400	-11.474000	22.581338	0.000958	20.744901
239.060949	-2.994100	3.807600	-11.399000	22.603662	0.000960	20.748769
240.063583	-3.009100	3.804500	-11.447000	22.582137	0.000959	20.749021
241.059953	-3.038100	3.804100	-11.555000	22.605038	0.000961	20.748250
242.061199	-3.003700	3.805700	-11.430000	22.573818	0.000962	20.753491
243.061481	-3.000300	3.805200	-11.416000	22.596467	0.000962	20.726388
244.062473	-3.002200	3.805200	-11.423000	22.599061	0.000962	20.721400
245.061856	-2.986200	3.806300	-11.365000	22.595649	0.000964	20.743113
246.062127	-3.002100	3.803900	-11.418000	22.614738	0.000964	20.750379
247.061570	-2.990100	3.803100	-11.371000	22.615936	0.000963	20.731190
248.062594	-3.007100	3.805000	-11.441000	22.654030	0.000965	20.729989
249.065608	-2.990100	3.803600	-11.372000	22.647747	0.000966	20.751199
250.063467	-2.979200	3.804900	-11.333000	22.661204	0.000965	20.748082
251.063652	-2.988900	3.803000	-11.365000	22.689341	0.000966	20.748764
252.062054	-2.992000	3.803200	-11.379000	22.673118	0.000967	20.726823
253.062639	-2.976200	3.802600	-11.315000	22.706850	0.000967	20.753026
254.065519	-2.979900	3.804000	-11.335000	22.723240	0.000965	20.738623
255.067089	-2.993700	3.802000	-11.381000	22.708995	0.000966	20.749011
256.067286	-3.033500	3.800500	-11.526000	22.726356	0.000968	20.730365
257.065097	-3.013600	3.801800	-11.455000	22.727806	0.000967	20.738455
258.066064	-3.026200	3.800400	-11.499000	22.722801	0.000968	20.752883
259.067380	-3.009300	3.800000	-11.435000	22.757277	0.000970	20.758494
260.067191	-2.996800	3.800500	-11.388000	22.722673	0.000971	20.747065
261.067468	-3.004100	3.798900	-11.411000	22.762508	0.000971	20.725801
262.068015	-3.001800	3.800000	-11.406000	22.733536	0.000970	20.755101
263.068015	-2.972200	3.801300	-11.297000	22.735429	0.000972	20.728547
264.070073	-3.023800	3.799500	-11.488000	22.748106	0.000971	20.746936
265.071662	-3.000700	3.799200	-11.399000	22.771472	0.000972	20.757541
266.068718	-3.016100	3.799600	-11.458000	22.791998	0.000974	20.754395
267.068934	-3.001700	3.799200	-11.404000	22.782285	0.000973	20.752251
268.071560	-3.003700	3.798700	-11.408000	22.789528	0.000974	20.755239
269.071235	-2.995400	3.798500	-11.376000	22.792614	0.000976	20.742683
270.071998	-2.997500	3.799700	-11.389000	22.797249	0.000975	20.765819
271.071460	-2.992400	3.798000	-11.362000	22.808806	0.000976	20.746101
272.071929	-3.004300	3.798100	-11.410000	22.792387	0.000977	20.742930
273.071282	-2.997700	3.796500	-11.380000	22.777463	0.000976	20.760697
274.070974	-2.996400	3.796800	-11.375000	22.790864	0.000977	20.739033
275.072263	-2.992200	3.796100	-11.357000	22.809747	0.000977	20.757002
276.074921	-3.018900	3.795300	-11.457000	22.851625	0.000978	20.736840
277.071529	-3.005200	3.795500	-11.405000	22.836376	0.000976	20.766135
278.070838	-3.001900	3.796600	-11.397000	22.853962	0.000979	20.763364
279.069862	-2.998700	3.797100	-11.384000	22.857749	0.000979	20.753881
280.071705	-3.002400	3.796500	-11.397000	22.883011	0.000977	20.750739
281.075082	-2.998600	3.795700	-11.380000	22.869803	0.000979	20.762638
282.071786	-3.012800	3.795800	-11.435000	22.876606	0.000980	20.765187
283.077068	-2.991100	3.796800	-11.355000	22.924211	0.000980	20.767834
284.072288	-3.021500	3.793800	-11.462000	22.932453	0.000980	20.776093
285.073978	-3.004500	3.793300	-11.395000	22.941677	0.000981	20.764945
286.075839	-2.999700	3.793600	-11.379000	22.912482	0.000981	20.745178
287.072507	-3.009600	3.793500	-11.416000	22.933104	0.000983	20.770106
288.072414	-3.017500	3.793200	-11.446000	22.939409	0.000983	20.763147
289.074554	-3.001100	3.793300	-11.383000	22.939932	0.000983	20.748971
290.073595	-3.001800	3.794000	-11.388000	22.974509	0.000982	20.785037
291.073477	-3.001600	3.793800	-11.386000	22.968835	0.000985	20.749480
292.077914	-2.986900	3.793600	-11.330000	22.952291	0.000985	20.763725
293.074116	-3.013300	3.791900	-11.424000	22.977152	0.000984	20.752122
294.076143	-3.000400	3.792500	-11.377000	22.955308	0.000987	20.752523
295.076296	-3.001700	3.791300	-11.380000	22.954608	0.000988	20.767943
296.078011	-2.989400	3.790700	-11.331000	22.941130	0.000988	20.772931
297.077525	-2.985200	3.792600	-11.321000	22.929629	0.000988	20.773262
298.078156	-3.005500	3.790700	-11.392000	22.916170	0.000987	20.770210
299.080941	-3.029100	3.789900	-11.479000	22.900705	0.000988	20.763725
300.078424	-2.977100	3.791200	-11.286000	22.917343	0.000989	20.768541
301.076426	-2.997500	3.791000	-11.362000	22.918438	0.000986	20.763947
302.079081	-2.999000	3.790600	-11.367000	22.928150	0.000989	20.761823
303.078799	-2.977800	3.790500	-11.287000	22.934455	0.000989	20.745854
304.078079	-2.998500	3.789300	-11.362000	22.944290	0.000991	20.757605
305.077372	-2.991800	3.789200	-11.334000	22.941726	0.000991	20.757882
306.077968	-3.013600	3.788900	-11.417000	22.951093	0.000991	20.773430
307.079370	-2.995500	3.789000	-11.349000	22.951088	0.000989	20.772951
308.080307	-3.014800	3.788500	-11.420000	22.951537	0.000991	20.765340
309.079958	-3.010700	3.788500	-11.405000	22.957314	0.000993	20.755007
310.080042	-3.011900	3.788400	-11.408000	22.959059	0.000993	20.757704
311.080451	-3.000000	3.788100	-11.362000	22.996052	0.000993	20.762525
312.078760	-3.001400	3.787800	-11.368000	22.993735	0.000992	20.790549
313.083310	-3.011200	3.786400	-11.400000	23.021680	0.000995	20.781091
314.079325	-3.002700	3.785700	-11.366000	22.991171	0.000995	20.781343
315.083771	-2.984700	3.786900	-11.300000	23.018570	0.000994	20.768965
316.079926	-3.007300	3.786500	-11.386000	23.020339	0.000995	20.774532
317.080170	-2.998000	3.786600	-11.350000	23.027117	0.000994	20.778004
318.081644	-2.978100	3.786500	-11.275000	23.043133	0.000994	20.757067
319.085815	-2.989700	3.785600	-11.317000	23.048511	0.000995	20.761981
320.081789	-2.995300	3.785800	-11.337000	23.061687	0.000998	20.777080
321.082036	-3.006600	3.786600	-11.384000	23.065951	0.000997	20.773292
322.083353	-3.004300	3.785100	-11.371000	23.075065	0.000996	20.771045
323.082640	-3.001300	3.785000	-11.358000	23.078304	0.000998	20.792782
324.087358	-3.005800	3.782700	-11.368000	23.078161	0.000996	20.753758
325.085177	-2.997300	3.784200	-11.341000	23.084258	0.000996	20.766980
326.088314	-2.997200	3.784000	-11.341000	23.090784	0.000999	20.777787
327.086452	-3.008800	3.782900	-11.381000	23.094777	0.000999	20.799331
328.085601	-3.002700	3.784500	-11.363000	23.096093	0.001000	20.788322
329.093931	-3.010900	3.781600	-11.385000	23.083548	0.000999	20.760105
330.086541	-2.998700	3.782300	-11.340000	23.126787	0.001000	20.764076
331.086514	-2.978600	3.783100	-11.267000	23.139286	0.001000	20.780869
332.086100	-2.987000	3.783500	-11.301000	23.136876	0.001001	20.788885
333.087655	-2.979000	3.781400	-11.263000	23.145246	0.001002	20.779728
334.087157	-3.012900	3.780200	-11.388000	23.162487	0.001001	20.761443
335.087724	-2.988300	3.782100	-11.301000	23.170058	0.001003	20.784677
336.088568	-3.005800	3.779900	-11.361000	23.168618	0.001002	20.794615
337.087906	-2.990100	3.781900	-11.306000	23.183760	0.001003	20.775174
338.090539	-3.001600	3.780900	-11.348000	23.189487	0.001004	20.787552
339.093067	-2.995700	3.779700	-11.322000	23.177244	0.001004	20.772912
340.093699	-3.009100	3.780900	-11.375000	23.164094	0.001004	20.779649
341.093357	-2.999400	3.779200	-11.334000	23.181379	0.001005	20.813092
342.092631	-2.995300	3.780700	-11.323000	23.181434	0.001005	20.787542
343.089532	-3.011000	3.777600	-11.373000	23.201730	0.001006	20.803614
344.089327	-3.003800	3.777900	-11.347000	23.230720	0.001006	20.785251
345.092386	-3.004200	3.778800	-11.351000	23.216526	0.001005	20.789992
346.092819	-3.018200	3.777300	-11.400000	23.265160	0.001007	20.787049
347.089011	-3.007100	3.777200	-11.357000	23.256895	0.001006	20.796784
348.090725	-2.999400	3.777600	-11.329000	23.269527	0.001006	20.789054
349.089851	-2.987400	3.777400	-11.283000	23.259044	0.001007	20.787083
350.090414	-3.005200	3.776600	-11.348000	23.269034	0.001008	20.785715
351.093251	-3.005600	3.776700	-11.349000	23.286914	0.001007	20.793677
352.089611	-2.995200	3.775600	-11.308000	23.284529	0.001009	20.778959
353.094020	-2.982100	3.777100	-11.262000	23.292799	0.001009	20.796256
354.090326	-3.005100	3.774600	-11.342000	23.288270	0.001007	20.787923
355.090655	-3.012800	3.776500	-11.376000	23.275299	0.001009	20.795786
356.091360	-3.013600	3.774100	-11.373000	23.265516	0.001009	20.788827
357.090055	-3.005500	3.773900	-11.342000	23.281848	0.001008	20.784807
358.090832	-3.007400	3.775600	-11.354000	23.304188	0.001011	20.801980
359.090617	-3.001100	3.774400	-11.326000	23.323985	0.001010	20.781043
360.093276	-3.010700	3.774200	-11.361000	23.311930	0.001011	20.789351
361.092639	-3.022100	3.772900	-11.401000	23.307574	0.001011	20.805847
362.092256	-3.025500	3.773700	-11.416000	23.307402	0.001013	20.790976
363.090994	-3.008200	3.774000	-11.352000	23.328248	0.001012	20.783893
364.092360	-3.008700	3.772400	-11.349000	23.336591	0.001012	20.809325
365.093369	-3.004300	3.772600	-11.332000	23.345831	0.001012	20.792033
366.092968	-2.975100	3.773000	-11.224000	23.362887	0.001012	20.802489
367.094137	-2.981100	3.772900	-11.246000	23.386787	0.001015	20.805581
368.093043	-2.998400	3.772100	-11.310000	23.404665	0.001014	20.809275
369.093919	-2.983700	3.771800	-11.252000	23.366967	0.001013	20.798992
370.094462	-3.005900	3.771700	-11.337000	23.355490	0.001013	20.803136
371.093818	-2.993500	3.771100	-11.287000	23.348147	0.001015	20.786294
372.097989	-2.996800	3.770100	-11.297000	23.359097	0.001014	20.786363
373.094833	-3.002500	3.769200	-11.316000	23.366218	0.001015	20.787810
374.096314	-3.015500	3.770100	-11.367000	23.368416	0.001015	20.804712
375.094593	-2.980500	3.770100	-11.235000	23.348744	0.001015	20.805383
376.095515	-2.976300	3.769700	-11.219000	23.381036	0.001016	20.810248
377.096521	-2.999400	3.770500	-11.308000	23.381510	0.001017	20.807403
378.097493	-3.007500	3.767700	-11.331000	23.418138	0.001016	20.805235
379.096997	-3.018800	3.768700	-11.376000	23.431507	0.001016	20.797298
380.097846	-2.996400	3.768300	-11.291000	23.454558	0.001018	20.812817
381.097832	-2.989300	3.768500	-11.264000	23.462797	0.001017	20.792151
382.098538	-2.969200	3.768400	-11.186000	23.475992	0.001020	20.802059
383.104786	-2.981200	3.769000	-11.235000	23.482295	0.001020	20.826394
384.098936	-3.000500	3.766700	-11.301000	23.491780	0.001020	20.816936
385.098462	-2.987500	3.766200	-11.251000	23.515401	0.001021	20.816432
386.098621	-3.036900	3.765900	-11.434000	23.492948	0.001019	20.818106
387.099152	-2.976700	3.767300	-11.213000	23.518392	0.001021	20.820378
388.099102	-3.000700	3.766200	-11.300000	23.518043	0.001021	20.824295
389.099296	-2.999300	3.764700	-11.290000	23.520408	0.001020	20.811493
390.101574	-3.000200	3.766100	-11.297000	23.534573	0.001020	20.800563
391.098244	-2.994800	3.765600	-11.276000	23.527424	0.001020	20.812362
392.098638	-3.018400	3.764800	-11.361000	23.521846	0.001019	20.824314
393.099110	-3.013800	3.764000	-11.343000	23.516520	0.001024	20.807596
394.103634	-2.993700	3.763400	-11.265000	23.507232	0.001020	20.809665
395.099261	-3.013500	3.763100	-11.338000	23.502349	0.001021	20.817098
396.100067	-2.997700	3.763200	-11.279000	23.522773	0.001023	20.829985
397.100501	-2.991400	3.763100	-11.256000	23.526503	0.001022	20.830878
398.100395	-2.975800	3.764500	-11.200000	23.513327	0.001022	20.836163
399.101742	-2.999700	3.762900	-11.286000	23.535189	0.001021	20.818249
400.100663	-2.975800	3.763200	-11.197000	23.526458	0.001025	20.822300
401.101854	-2.989300	3.762400	-11.246000	23.546694	0.001023	20.826463
402.101300	-2.996400	3.761900	-11.271000	23.570940	0.001026	20.813785
403.101021	-2.992900	3.762100	-11.259000	23.571216	0.001025	20.832553
404.101807	-3.017100	3.759800	-11.343000	23.580750	0.001022	20.817454
405.101073	-2.988200	3.762200	-11.241000	23.587131	0.001022	20.830963
406.101469	-3.022100	3.759400	-11.359000	23.599852	0.001024	20.824275
407.102195	-3.016100	3.758900	-11.336000	23.587924	0.001023	20.820378
408.101299	-3.010900	3.757900	-11.313000	23.606203	0.001026	20.840124
409.102023	-2.996900	3.759700	-11.267000	23.641646	0.001025	20.840095
410.103838	-3.016700	3.757600	-11.334000	23.640508	0.001027	20.831842
411.101986	-2.992200	3.759300	-11.247000	23.643720	0.001026	20.836010
412.102377	-2.979800	3.760300	-11.202000	23.684665	0.001026	20.818739
413.104362	-3.008000	3.758800	-11.306000	23.679118	0.001027	20.830721
414.103582	-3.000700	3.757800	-11.275000	23.679315	0.001025	20.844668
415.105831	-3.004800	3.757500	-11.289000	23.657683	0.001028	20.829145
416.104282	-3.011700	3.756100	-11.311000	23.638922	0.001028	20.821243
417.104088	-3.009600	3.757100	-11.306000	23.644849	0.001027	20.830504
418.104200	-2.998600	3.755400	-11.259000	23.654199	0.001027	20.830869
419.103595	-2.982000	3.757300	-11.204000	23.679675	0.001029	20.834598
420.105904	-2.986000	3.756200	-11.215000	23.636513	0.001027	20.829733
421.106075	-2.979100	3.757000	-11.191000	23.636685	0.001029	20.841285
422.105000	-3.006900	3.755500	-11.290000	23.650406	0.001029	20.846980
423.104723	-2.996200	3.756800	-11.256000	23.642662	0.001028	20.838742
424.104650	-3.027400	3.753500	-11.362000	23.652944	0.001028	20.816808
425.106071	-3.021000	3.754600	-11.342000	23.679183	0.001027	20.832208
426.108918	-2.995100	3.754800	-11.245000	23.682045	0.001028	20.820853
427.107313	-3.019000	3.754000	-11.332000	23.677488	0.001030	20.841414
428.109945	-3.022900	3.753800	-11.346000	23.687548	0.001029	20.848654
429.107174	-2.999400	3.752600	-11.254000	23.710249	0.001031	20.836801
430.116477	-2.998200	3.752500	-11.249000	23.713412	0.001028	20.844239
431.113138	-2.986700	3.753300	-11.209000	23.711471	0.001030	20.842767
432.107495	-2.995400	3.753200	-11.242000	23.732053	0.001031	20.861031
433.110039	-2.997600	3.753400	-11.250000	23.740024	0.001030	20.850057
434.107997	-2.989400	3.752800	-11.218000	23.731512	0.001032	20.831092
435.107578	-2.999500	3.752400	-11.254000	23.757798	0.001031	20.852230
436.116004	-3.000300	3.751800	-11.256000	23.763069	0.001030	20.848980
437.111413	-2.987000	3.750800	-11.203000	23.769394	0.001031	20.864331
438.109087	-3.012400	3.750400	-11.297000	23.767976	0.001031	20.852951
439.109510	-3.008000	3.749900	-11.278000	23.767779	0.001032	20.846116
440.109986	-3.000700	3.750000	-11.252000	23.763793	0.001032	20.866301
441.109509	-2.998300	3.750600	-11.244000	23.730994	0.001031	20.845746
442.113354	-3.010900	3.749400	-11.288000	23.708171	0.001031	20.873596
443.111642	-2.988200	3.748800	-11.201000	23.725147	0.001033	20.876865
444.115115	-2.986400	3.749500	-11.197000	23.739936	0.001032	20.881735
445.114167	-3.010000	3.748300	-11.281000	23.783769	0.001032	20.845079
446.113806	-3.007800	3.749100	-11.275000	23.786429	0.001033	20.852962
447.115983	-3.008700	3.747200	-11.273000	23.821699	0.001032	20.848971
448.114497	-2.996600	3.747200	-11.228000	23.821423	0.001031	20.884254
449.114436	-2.997600	3.747500	-11.232000	23.790666	0.001030	20.870011
450.115134	-2.985700	3.747100	-11.187000	23.816306	0.001032	20.867744
451.115447	-3.006300	3.746200	-11.262000	23.812695	0.001031	20.866494
452.118663	-2.987400	3.746500	-11.191000	23.792341	0.001034	20.866475
453.117270	-3.015200	3.746700	-11.296000	23.808094	0.001034	20.887010
454.119777	-3.021200	3.744100	-11.309000	23.815660	0.001034	20.868993
455.117926	-2.996900	3.745700	-11.225000	23.808715	0.001035	20.873883
456.117653	-3.024400	3.744200	-11.322000	23.837541	0.001033	20.875286
457.117293	-3.015300	3.744100	-11.289000	23.832936	0.001034	20.859763
458.121320	-2.976300	3.744200	-11.143000	23.827438	0.001035	20.859941
459.119392	-2.987000	3.743300	-11.179000	23.852151	0.001034	20.873340
460.119574	-3.007700	3.742800	-11.256000	23.841177	0.001032	20.871819
461.120268	-3.008700	3.742000	-11.257000	23.857806	0.001034	20.866682
462.121173	-3.003100	3.744300	-11.242000	23.870697	0.001035	20.868228
463.124927	-2.995200	3.742300	-11.208000	23.852954	0.001033	20.873197
464.123674	-3.015300	3.742300	-11.283000	23.880933	0.001033	20.860475
465.125121	-2.988800	3.743200	-11.186000	23.890685	0.001034	20.888744
466.124494	-3.005600	3.742800	-11.247000	23.906890	0.001035	20.885080
467.123555	-2.990200	3.741100	-11.184000	23.909654	0.001037	20.887850
468.125443	-2.989600	3.743300	-11.189000	23.935212	0.001035	20.861324
469.125152	-3.002800	3.741200	-11.233000	23.933670	0.001036	20.886329
470.124557	-2.985200	3.741700	-11.169000	23.901867	0.001035	20.878620
471.125703	-2.980800	3.740300	-11.148000	23.910230	0.001035	20.877998
472.126196	-2.980000	3.741000	-11.147000	23.911851	0.001035	20.901432
473.126134	-2.990300	3.740800	-11.184000	23.917505	0.001034	20.872965
474.126787	-3.009400	3.738700	-11.250000	23.899108	0.001036	20.863053
475.126867	-3.017600	3.738300	-11.280000	23.906398	0.001037	20.883164
476.129248	-3.001500	3.739000	-11.222000	23.912999	0.001037	20.873662
477.127452	-2.999200	3.738200	-11.210000	23.900226	0.001037	20.901629
478.128241	-2.984700	3.738600	-11.158000	23.888134	0.001039	20.882393
479.129837	-3.027700	3.736800	-11.313000	23.907674	0.001037	20.911467
480.127857	-3.004600	3.737200	-11.228000	23.904906	0.001037	20.880245
481.128856	-2.996700	3.737200	-11.198000	23.916062	0.001037	20.883845
482.127984	-2.999400	3.736200	-11.205000	23.920840	0.001034	20.878680
483.127275	-2.999800	3.737200	-11.210000	23.926012	0.001037	20.880546
484.132343	-3.000300	3.736700	-11.210000	23.901749	0.001037	20.885613
485.130930	-2.995700	3.737500	-11.195000	23.905561	0.001037	20.897022
486.127752	-2.995800	3.736400	-11.193000	23.924130	0.001036	20.886720
487.129697	-2.986500	3.736100	-11.156000	23.946802	0.001037	20.884325
488.128802	-3.002200	3.735800	-11.215000	23.921594	0.001037	20.878487
489.128209	-2.999100	3.735100	-11.201000	23.923215	0.001037	20.883431
490.131851	-3.001600	3.733700	-11.206000	23.920230	0.001038	20.884705
491.128994	-2.974900	3.735100	-11.110000	23.894893	0.001037	20.884429
492.134809	-3.005700	3.733800	-11.222000	23.897612	0.001038	20.874354
493.129991	-2.992100	3.733400	-11.170000	23.921432	0.001037	20.882592
494.130789	-3.003000	3.733500	-11.210000	23.928530	0.001036	20.891605
495.133167	-3.006900	3.733400	-11.224000	23.937705	0.001037	20.868092
496.131233	-2.988700	3.733200	-11.156000	23.979620	0.001037	20.875510
497.133767	-2.998400	3.732900	-11.192000	24.010082	0.001036	20.860541
498.136624	-2.990400	3.732400	-11.160000	24.004408	0.001034	20.856747
499.135424	-2.999800	3.731300	-11.192000	23.993558	0.001038	20.878582
500.134103	-2.987100	3.732900	-11.149000	24.007442	0.001038	20.861686
501.138070	-3.001900	3.730000	-11.196000	24.001227	0.001039	20.867307
502.134328	-3.022500	3.730000	-11.273000	24.020016	0.001036	20.861968
503.135412	-2.991400	3.730100	-11.156000	24.019341	0.001037	20.874093
504.135184	-3.013000	3.728900	-11.234000	24.067847	0.001038	20.896184
505.133400	-3.017000	3.728200	-11.247000	24.046424	0.001038	20.871856
506.136103	-3.006200	3.729200	-11.210000	24.053265	0.001038	20.864018
507.134929	-3.005800	3.730000	-11.211000	24.043716	0.001037	20.865821
508.138092	-3.013400	3.728200	-11.234000	24.048266	0.001038	20.858057
509.133772	-2.993100	3.729100	-11.160000	24.034555	0.001036	20.867065
510.135274	-2.997600	3.728200	-11.174000	24.074717	0.001038	20.853291
511.138689	-2.996100	3.729100	-11.172000	24.063445	0.001037	20.860477
512.140170	-3.011700	3.728300	-11.227000	24.066907	0.001037	20.827915
513.136953	-3.001700	3.726000	-11.184000	24.093978	0.001037	20.883511
514.136069	-2.995300	3.726800	-11.161000	24.126353	0.001036	20.876153
515.137214	-3.005100	3.726700	-11.198000	24.123565	0.001038	20.846332
516.136674	-3.003200	3.725900	-11.188000	24.104980	0.001039	20.858037
517.140756	-2.991100	3.726300	-11.145000	24.113140	0.001038	20.861954
518.137416	-2.997800	3.726600	-11.170000	24.139792	0.001037	20.868769
519.139043	-2.990200	3.725500	-11.138000	24.168181	0.001037	20.858838
520.135834	-3.009200	3.724400	-11.207000	24.167339	0.001038	20.851829
521.136848	-2.986500	3.725300	-11.125000	24.166665	0.001037	20.846886
522.137655	-3.007700	3.724800	-11.201000	24.169703	0.001037	20.866527
523.136339	-3.009900	3.723200	-11.205000	24.158333	0.001039	20.835684
524.136819	-3.026500	3.722900	-11.267000	24.163981	0.001037	20.869323
525.137712	-2.987300	3.724100	-11.124000	24.170550	0.001036	20.852679
526.136138	-3.000100	3.724400	-11.172000	24.139925	0.001039	20.839033
527.138134	-2.998100	3.723700	-11.163000	24.100164	0.001037	20.853208
528.138875	-2.992800	3.722500	-11.139000	24.109423	0.001037	20.844002
529.137198	-2.998700	3.722700	-11.162000	24.108256	0.001038	20.868908
530.138040	-3.000400	3.721800	-11.166000	24.107685	0.001038	20.864543
531.137680	-2.988900	3.722200	-11.125000	24.112964	0.001038	20.840441
532.138526	-2.974900	3.721500	-11.070000	24.124212	0.001037	20.855041
533.141368	-3.005000	3.721200	-11.181000	24.136104	0.001036	20.860804
534.138688	-2.984700	3.721300	-11.104000	24.145442	0.001039	20.843617
535.141569	-3.015000	3.719700	-11.213000	24.174954	0.001037	20.846665
536.138567	-2.963100	3.722400	-11.028000	24.204337	0.001038	20.844368
537.137348	-2.988000	3.720700	-11.116000	24.219843	0.001038	20.835740
538.142634	-3.000500	3.719500	-11.159000	24.231814	0.001037	20.841109
539.143708	-3.002000	3.719800	-11.166000	24.227357	0.001037	20.832846
540.139847	-2.997600	3.719000	-11.146000	24.227387	0.001037	20.841410
541.141367	-3.001700	3.719100	-11.163000	24.248359	0.001036	20.855333
542.141036	-2.982200	3.720000	-11.092000	24.257744	0.001035	20.839618
543.142667	-3.010700	3.717800	-11.193000	24.258370	0.001038	20.841668
544.149556	-3.002400	3.717100	-11.160000	24.269793	0.001036	20.832738
545.142039	-3.001500	3.717400	-11.157000	24.267484	0.001036	20.832793
546.143587	-2.998000	3.717800	-11.145000	24.266736	0.001036	20.833939
547.141668	-3.019800	3.715500	-11.220000	24.271665	0.001037	20.839357
548.146274	-2.981700	3.718100	-11.085000	24.290824	0.001035	20.841979
549.141616	-2.985200	3.715900	-11.092000	24.313217	0.001039	20.841683
550.141864	-3.004200	3.715100	-11.160000	24.322272	0.001036	20.838438
551.142764	-2.998500	3.717200	-11.145000	24.306846	0.001038	20.829603
552.143684	-3.016000	3.714600	-11.203000	24.323143	0.001036	20.833149
553.142973	-2.995300	3.716300	-11.130000	24.307949	0.001035	20.831184
554.143070	-2.980900	3.715300	-11.074000	24.329919	0.001036	20.830463
555.146519	-3.005700	3.713700	-11.161000	24.356363	0.001037	20.838972
556.143183	-3.009900	3.713500	-11.175000	24.368633	0.001036	20.825203
557.143091	-3.007800	3.713500	-11.168000	24.380695	0.001037	20.838726
558.143343	-3.010400	3.713500	-11.177000	24.360868	0.001035	20.846336
559.143355	-3.000800	3.713300	-11.142000	24.376294	0.001035	20.826724
560.145488	-2.997900	3.714000	-11.134000	24.372887	0.001036	20.819513
561.143198	-3.011700	3.711600	-11.177000	24.377791	0.001035	20.843872
562.145870	-2.997500	3.713400	-11.130000	24.347940	0.001036	20.813453
563.144367	-3.020400	3.712300	-11.211000	24.322465	0.001036	20.827727
564.144216	-2.995600	3.711900	-11.118000	24.311318	0.001038	20.829821
565.146453	-2.997600	3.710500	-11.121000	24.333085	0.001038	20.844544
566.146268	-3.001000	3.712900	-11.142000	24.315867	0.001036	20.818738
567.144388	-3.002800	3.710400	-11.141000	24.339377	0.001037	20.843744
568.144717	-3.028900	3.709400	-11.235000	24.324976	0.001037	20.830246
569.145355	-3.011800	3.709600	-11.171000	24.323858	0.001035	20.815375
570.146241	-2.991100	3.709900	-11.096000	24.325522	0.001036	20.836009
571.147316	-3.003000	3.708500	-11.135000	24.352317	0.001036	20.832068
572.145686	-2.993000	3.709300	-11.101000	24.335320	0.001035	20.827346
573.148029	-3.009500	3.709400	-11.162000	24.341839	0.001036	20.829144
574.146374	-2.981500	3.709300	-11.058000	24.368283	0.001034	20.809680
575.150263	-2.994600	3.707600	-11.101000	24.380173	0.001035	20.808331
576.146800	-2.983200	3.708900	-11.063000	24.366663	0.001036	20.838874
577.148678	-2.987500	3.707900	-11.076000	24.388755	0.001035	20.816466
578.147286	-3.019400	3.706100	-11.189000	24.374324	0.001035	20.832809
579.147966	-3.023000	3.705400	-11.201000	24.381113	0.001039	20.830137
580.150178	-2.991700	3.706300	-11.087000	24.401614	0.001037	20.816090
581.153455	-3.021200	3.705400	-11.194000	24.383427	0.001035	20.822975
582.149143	-3.001900	3.706000	-11.123000	24.371887	0.001037	20.828467
583.151204	-3.014600	3.705800	-11.169000	24.368598	0.001035	20.810469
584.149336	-2.981100	3.705400	-11.045000	24.388149	0.001035	20.830082
585.151107	-3.012300	3.704200	-11.157000	24.371385	0.001035	20.826067
586.154388	-3.014800	3.704200	-11.166000	24.396336	0.001036	20.813166
587.151432	-3.028800	3.704600	-11.218000	24.377903	0.001034	20.826916
588.154402	-3.021100	3.704000	-11.190000	24.370513	0.001036	20.826141
589.151439	-3.013600	3.704500	-11.163000	24.403396	0.001034	20.801757
590.150904	-3.008400	3.703200	-11.140000	24.414794	0.001035	20.812242
591.153325	-3.023900	3.701100	-11.191000	24.397350	0.001033	20.825088
592.151787	-3.009600	3.701200	-11.138000	24.376160	0.001035	20.808573
593.151652	-2.992900	3.702300	-11.080000	24.374018	0.001035	20.823967
594.153286	-2.985200	3.703900	-11.057000	24.385337	0.001033	20.829632
595.152310	-3.003600	3.702700	-11.120000	24.394367	0.001035	20.807871
596.151640	-2.995400	3.702500	-11.089000	24.421154	0.001032	20.822891
597.154576	-2.985300	3.702400	-11.051000	24.410830	0.001033	20.829128
598.152938	-2.976900	3.701300	-11.017000	24.393067	0.001033	20.812257
599.152727	-3.004500	3.701000	-11.118000	24.409314	0.001034	20.829504
600.153452	-2.979300	3.701900	-11.028000	24.428219	0.001035	20.829504
601.151886	-2.993000	3.699700	-11.072000	24.441078	0.001034	20.816801
602.155895	-3.000200	3.699500	-11.099000	24.436204	0.001033	20.810489
603.153706	-2.983900	3.700300	-11.040000	24.440600	0.001034	20.819640
604.155555	-2.987700	3.699300	-11.052000	24.436770	0.001033	20.820065
605.152043	-2.983000	3.700200	-11.037000	24.451298	0.001031	20.811881
606.153386	-3.007200	3.697400	-11.117000	24.460150	0.001032	20.810804
607.156529	-2.985000	3.698200	-11.037000	24.474377	0.001033	20.817492
608.158129	-2.996700	3.698400	-11.082000	24.494546	0.001031	20.809278
609.154686	-3.014200	3.696700	-11.141000	24.454124	0.001032	20.825147
610.152805	-2.969900	3.698500	-10.982000	24.459972	0.001034	20.800669
611.154414	-2.983800	3.697100	-11.030000	24.491932	0.001032	20.813767
612.154835	-3.005000	3.696500	-11.107000	24.492159	0.001031	20.796925
613.158654	-2.995000	3.696800	-11.070000	24.508148	0.001032	20.825295
614.154954	-2.990800	3.697000	-11.054000	24.496309	0.001033	20.816261
615.157320	-2.995400	3.696200	-11.070000	24.509856	0.001030	20.827956
616.155704	-3.000900	3.696200	-11.092000	24.534381	0.001031	20.810364
617.156269	-2.985700	3.696900	-11.038000	24.531718	0.001029	20.818597
618.156569	-2.992700	3.697000	-11.062000	24.505602	0.001031	20.819422
619.156411	-3.012800	3.694500	-11.129000	24.464904	0.001031	20.820316
620.161070	-2.993200	3.695400	-11.060000	24.487215	0.001030	20.826578
621.156100	-2.989900	3.693300	-11.040000	24.469502	0.001029	20.808333
622.158103	-3.004700	3.693900	-11.097000	24.483508	0.001031	20.797729
623.156657	-3.023100	3.692800	-11.163000	24.456491	0.001029	20.806659
624.158855	-3.021800	3.692400	-11.157000	24.453231	0.001030	20.814295
625.157963	-3.011100	3.692800	-11.119000	24.446615	0.001030	20.805286
626.157759	-2.992300	3.693000	-11.050000	24.443129	0.001027	20.803685
627.158315	-3.022400	3.691600	-11.157000	24.426238	0.001030	20.801912
628.158107	-2.994200	3.692500	-11.055000	24.413152	0.001028	20.803957
629.159519	-2.992800	3.690900	-11.044000	24.398874	0.001027	20.823298
630.158691	-3.018900	3.691400	-11.142000	24.395639	0.001027	20.822424
631.159764	-2.976700	3.691600	-10.987000	24.439397	0.001026	20.822701
632.159498	-3.016200	3.690700	-11.131000	24.448623	0.001029	20.805404
633.158715	-2.962100	3.692300	-10.936000	24.436414	0.001026	20.811173
634.160433	-2.988000	3.690900	-11.027000	24.445965	0.001026	20.810323
635.160075	-2.989000	3.690500	-11.029000	24.426385	0.001027	20.813440
636.159991	-2.983000	3.688800	-11.003000	24.386615	0.001026	20.803414
637.160743	-2.987400	3.690900	-11.025000	24.383361	0.001027	20.802046
638.158903	-3.008300	3.687900	-11.092000	24.407736	0.001025	20.817016
639.160180	-2.995900	3.688400	-11.049000	24.396620	0.001026	20.780260
640.161877	-2.984200	3.688900	-11.007000	24.440826	0.001024	20.810857
641.159584	-2.999500	3.687500	-11.059000	24.458681	0.001027	20.807434
642.160007	-2.992000	3.687900	-11.033000	24.478383	0.001026	20.816769
643.159440	-3.019200	3.685400	-11.126000	24.485379	0.001026	20.804822
644.159149	-2.974600	3.689400	-10.973000	24.515123	0.001024	20.799577
645.162627	-3.015200	3.686500	-11.114000	24.520204	0.001023	20.796613
646.162025	-2.984800	3.686400	-11.002000	24.520701	0.001024	20.811811
647.161364	-3.018500	3.686000	-11.126000	24.516374	0.001024	20.794667
648.162866	-2.979800	3.686100	-10.982000	24.542740	0.001024	20.812586
649.161267	-3.006500	3.685700	-11.080000	24.548834	0.001024	20.792149
650.163473	-3.018200	3.684800	-11.120000	24.552920	0.001024	20.798145
651.161703	-3.025700	3.685000	-11.148000	24.518520	0.001023	20.805830
652.163478	-3.015700	3.683300	-11.105000	24.527524	0.001023	20.789260
653.162486	-3.018500	3.684100	-11.120000	24.519141	0.001024	20.804082
654.161186	-2.986400	3.684000	-11.001000	24.495112	0.001022	20.795621
655.166819	-3.004900	3.683400	-11.067000	24.490864	0.001023	20.781876
656.165499	-3.007000	3.684400	-11.077000	24.501384	0.001022	20.794327
657.162567	-3.029100	3.681800	-11.152000	24.470837	0.001022	20.797819
658.163246	-3.012700	3.682100	-11.091000	24.491214	0.001023	20.771321
659.163392	-2.985400	3.683600	-10.996000	24.471714	0.001024	20.796802
660.164767	-3.020900	3.681200	-11.119000	24.482092	0.001022	20.780661
661.166934	-2.993700	3.682400	-11.023000	24.489973	0.001022	20.793310
662.163849	-2.978100	3.682000	-10.964000	24.484523	0.001020	20.782627
663.167875	-3.015400	3.681100	-11.099000	24.476716	0.001020	20.794234
664.165849	-3.008400	3.681400	-11.074000	24.495945	0.001022	20.787922
665.166768	-2.977700	3.681800	-10.962000	24.519023	0.001021	20.770773
666.170004	-2.987500	3.680600	-10.995000	24.526486	0.001022	20.798649
667.166091	-2.996200	3.679400	-11.023000	24.515622	0.001021	20.783481
668.166894	-2.972700	3.680500	-10.940000	24.538827	0.001021	20.789221
669.165598	-2.994600	3.680100	-11.019000	24.528696	0.001021	20.777159
670.166672	-2.975700	3.680000	-10.950000	24.516291	0.001021	20.782731
671.166057	-2.977500	3.679700	-10.955000	24.475721	0.001020	20.781856
672.171072	-2.975900	3.678900	-10.947000	24.508626	0.001022	20.771247
673.169734	-2.993000	3.680100	-11.013000	24.557651	0.001021	20.768278
674.170081	-2.994300	3.679200	-11.016000	24.557597	0.001019	20.766801
675.169791	-3.009300	3.678200	-11.068000	24.582146	0.001020	20.771992
676.171238	-2.992100	3.677300	-11.001000	24.612310	0.001019	20.787086
677.177516	-3.008800	3.676200	-11.060000	24.654740	0.001020	20.775608
678.172590	-2.992800	3.677100	-11.003000	24.688885	0.001018	20.757239
679.172609	-2.990600	3.677100	-10.995000	24.705644	0.001020	20.784014
680.172212	-2.965300	3.678400	-10.907000	24.723894	0.001021	20.774353
681.171628	-2.993600	3.675900	-11.003000	24.719568	0.001019	20.794667
682.174764	-3.014100	3.675400	-11.077000	24.721802	0.001018	20.753761
683.172659	-3.005400	3.675500	-11.044000	24.715605	0.001018	20.770302
684.174142	-2.983000	3.675300	-10.962000	24.739973	0.001017	20.761564
685.174475	-3.016000	3.673400	-11.078000	24.720595	0.001017	20.780052
686.173716	-3.018500	3.673800	-11.088000	24.712667	0.001017	20.773517
687.174678	-3.013700	3.674200	-11.072000	24.708606	0.001019	20.759010
688.176928	-2.956000	3.675700	-10.864000	24.698235	0.001019	20.779898
689.174047	-2.996100	3.673700	-11.005000	24.699377	0.001017	20.783889
690.175306	-2.996100	3.672400	-11.002000	24.717179	0.001016	20.760976
691.174828	-3.015400	3.671700	-11.070000	24.756342	0.001015	20.767086
692.174807	-2.996300	3.672800	-11.004000	24.762361	0.001017	20.782135
693.192677	-3.001000	3.672100	-11.018000	24.756519	0.001015	20.775798
694.176019	-2.996500	3.672600	-11.004000	24.770240	0.001016	20.773447
695.180035	-3.007400	3.671200	-11.039000	24.710933	0.001014	20.769407
696.177419	-3.004700	3.671200	-11.029000	24.718242	0.001015	20.771526
697.177278	-2.992000	3.671900	-10.984000	24.726373	0.001014	20.759296
698.177039	-2.997200	3.670800	-11.001000	24.725324	0.001014	20.760141
699.180112	-3.015400	3.670400	-11.067000	24.725329	0.001013	20.761568
700.177182	-3.020200	3.669600	-11.082000	24.729907	0.001012	20.733918
701.177501	-3.017000	3.669200	-11.068000	24.742812	0.001014	20.745921
702.177020	-3.019100	3.669600	-11.078000	24.762828	0.001012	20.759844
703.177681	-3.010200	3.668600	-11.043000	24.763650	0.001013	20.759721
704.183126	-3.005100	3.669700	-11.026000	24.773277	0.001013	20.759425
705.179380	-2.980900	3.669400	-10.937000	24.779867	0.001013	20.756555
706.181527	-3.013500	3.668400	-11.054000	24.789139	0.001013	20.750213
707.179894	-3.007400	3.667900	-11.031000	24.772357	0.001014	20.779839
708.180897	-2.988000	3.668300	-10.960000	24.759447	0.001013	20.750287
709.182382	-2.995700	3.667500	-10.985000	24.710608	0.001012	20.753433
710.183027	-2.994500	3.667900	-10.983000	24.681392	0.001012	20.755409
711.181406	-2.989900	3.668700	-10.968000	24.643087	0.001012	20.756328
712.181397	-2.989700	3.666000	-10.960000	24.623393	0.001012	20.760749
713.182706	-2.977200	3.666700	-10.915000	24.611654	0.001011	20.762245
714.181721	-3.001800	3.665300	-11.001000	24.630757	0.001011	20.768612
715.182185	-2.997200	3.666000	-10.987000	24.652316	0.001011	20.748519
716.181980	-2.989400	3.665700	-10.957000	24.679275	0.001010	20.758027
717.183565	-3.028200	3.663600	-11.093000	24.704618	0.001008	20.756432
718.183240	-2.993800	3.664300	-10.969000	24.701232	0.001008	20.745921
719.184497	-2.990300	3.665200	-10.959000	24.717100	0.001011	20.758052
720.188981	-3.009700	3.663300	-11.025000	24.725600	0.001009	20.758521
721.182965	-3.009700	3.663300	-11.024000	24.756416	0.001007	20.753883
722.185164	-3.004600	3.663100	-11.005000	24.762951	0.001010	20.734837
723.183448	-3.000800	3.663900	-10.993000	24.737363	0.001008	20.768429
724.183091	-2.982100	3.662200	-10.919000	24.748851	0.001010	20.761939
725.183570	-2.986000	3.663200	-10.937000	24.759890	0.001006	20.753102
726.186618	-2.993300	3.662500	-10.961000	24.800872	0.001008	20.752979
727.183046	-2.998900	3.662500	-10.982000	24.793436	0.001007	20.745041
728.183953	-2.999600	3.662700	-10.986000	24.799154	0.001006	20.747461
729.184358	-3.003800	3.660900	-10.994000	24.807107	0.001006	20.760659
730.184216	-3.011500	3.662700	-11.029000	24.810917	0.001006	20.730342
731.186861	-3.024200	3.660600	-11.069000	24.793706	0.001007	20.741519
732.183551	-2.995200	3.661000	-10.965000	24.822423	0.001004	20.767969
733.188572	-3.009100	3.660500	-11.015000	24.811881	0.001005	20.754070
734.184391	-3.019300	3.658700	-11.044000	24.843929	0.001006	20.735972
735.189421	-2.997600	3.659400	-10.968000	24.808028	0.001006	20.734555
736.186606	-2.988300	3.659200	-10.933000	24.762862	0.001004	20.761775
737.186059	-2.983200	3.660800	-10.919000	24.748944	0.001004	20.743539
738.186154	-2.985200	3.659300	-10.923000	24.717454	0.001003	20.743707
739.185665	-2.974100	3.659700	-10.883000	24.753737	0.001005	20.733176
740.187126	-3.005100	3.659000	-10.995000	24.754726	0.001004	20.723263
741.187130	-3.012000	3.657700	-11.016000	24.723498	0.001002	20.747876
742.186684	-2.994400	3.659600	-10.957000	24.743416	0.001003	20.749372
743.186119	-3.004700	3.658000	-10.990000	24.753284	0.001003	20.748370
744.187429	-2.972700	3.659800	-10.879000	24.771435	0.001003	20.739558
745.185432	-2.987100	3.658300	-10.926000	24.772828	0.001003	20.721988
746.187522	-3.026200	3.656300	-11.063000	24.762311	0.001002	20.744151
747.189519	-3.019800	3.656000	-11.038000	24.785432	0.001003	20.745544
748.188735	-3.004900	3.656200	-10.984000	24.799252	0.001004	20.740920
749.187770	-3.012700	3.655100	-11.011000	24.825936	0.001002	20.749683
750.187922	-2.989900	3.655500	-10.928000	24.834563	0.001002	20.753126
751.187586	-2.999900	3.656400	-10.968000	24.856438	0.001000	20.735250
752.187574	-3.009600	3.655700	-11.001000	24.851443	0.001000	20.752997
753.192719	-3.000500	3.654700	-10.964000	24.870335	0.000999	20.751569
754.188056	-2.984200	3.654800	-10.905000	24.845444	0.000999	20.735121
755.188089	-2.998100	3.653700	-10.954000	24.829804	0.000999	20.741236
756.188955	-3.017700	3.652600	-11.021000	24.848726	0.000998	20.728932
757.189163	-3.008600	3.652700	-10.987000	24.843780	0.000999	20.722072
758.189304	-2.990600	3.653300	-10.925000	24.886417	0.001000	20.726932
759.189498	-3.016700	3.652500	-11.018000	24.888332	0.000999	20.740233
760.190465	-2.990300	3.653400	-10.924000	24.883209	0.000997	20.731772
761.188139	-3.021000	3.651800	-11.030000	24.851659	0.000998	20.752740
762.189591	-2.999500	3.650600	-10.948000	24.839769	0.000996	20.749816
763.193129	-2.988000	3.652900	-10.913000	24.802027	0.000998	20.711936
764.191628	-2.996600	3.652700	-10.945000	24.814306	0.000997	20.714776
765.190210	-2.996000	3.651000	-10.937000	24.796928	0.000997	20.726260
766.189847	-2.978100	3.651700	-10.874000	24.831044	0.000995	20.744852
767.190216	-2.994400	3.651300	-10.932000	24.858839	0.000995	20.738608
768.191649	-2.983600	3.652300	-10.896000	24.855458	0.000995	20.733792
769.191979	-3.003200	3.649300	-10.958000	24.852451	0.000993	20.752587
770.191195	-2.994300	3.651800	-10.933000	24.866797	0.000996	20.745647
771.192570	-3.012100	3.647300	-10.985000	24.865232	0.000997	20.754034
772.193716	-3.008400	3.649100	-10.976000	24.865478	0.000996	20.735314
773.192692	-2.986900	3.649900	-10.901000	24.891363	0.000994	20.725731
774.195836	-2.992200	3.648800	-10.916000	24.893528	0.000993	20.728379
775.192447	-2.981600	3.648400	-10.877000	24.903149	0.000993	20.738984
776.193511	-2.982200	3.650200	-10.885000	24.909241	0.000992	20.736089
777.192812	-3.014600	3.647300	-10.994000	24.918985	0.000993	20.755352
778.191611	-3.006100	3.646900	-10.963000	24.927862	0.000992	20.731545
779.194518	-2.998000	3.648400	-10.936000	24.927168	0.000991	20.736065
780.193615	-2.980000	3.645900	-10.863000	24.905787	0.000991	20.720767
781.195631	-3.011400	3.645900	-10.977000	24.907996	0.000991	20.750961
782.194542	-2.980900	3.647100	-10.871000	24.889124	0.000992	20.738658
783.195836	-3.000200	3.647400	-10.942000	24.895467	0.000991	20.759250
784.199369	-2.992600	3.647300	-10.912000	24.904296	0.000991	20.723538
785.196217	-2.996100	3.646400	-10.924000	24.924334	0.000991	20.737487
786.195562	-3.002800	3.644000	-10.940000	24.943929	0.000990	20.765216
787.195552	-2.982100	3.645400	-10.870000	24.953855	0.000989	20.757635
788.194153	-2.963700	3.645900	-10.805000	24.969512	0.000989	20.751539
789.196898	-3.008200	3.646200	-10.967000	24.977573	0.000989	20.746828
790.198694	-3.026800	3.644000	-11.028000	24.987419	0.000988	20.748650
791.197270	-2.987800	3.643400	-10.885000	24.985136	0.000987	20.750626
792.198166	-3.038200	3.641400	-11.062000	24.998638	0.000987	20.757067
793.198150	-2.975400	3.644000	-10.839000	24.972490	0.000986	20.747890
794.197914	-2.998500	3.643000	-10.923000	24.985436	0.000987	20.753773
795.202401	-3.003600	3.642600	-10.940000	24.976073	0.000986	20.734416
796.198683	-2.997500	3.642600	-10.918000	24.965257	0.000986	20.758174
797.200050	-3.000800	3.643200	-10.932000	24.934231	0.000987	20.753585
798.198017	-2.988700	3.642400	-10.885000	24.953944	0.000984	20.738283
799.198509	-2.994000	3.642700	-10.905000	24.952286	0.000987	20.768863
800.199467	-3.021200	3.641100	-10.999000	24.972195	0.000985	20.743326
801.202667	-2.999000	3.642100	-10.921000	24.969937	0.000984	20.759552
802.199654	-3.027600	3.640200	-11.020000	24.960587	0.000983	20.759651
803.200216	-2.989400	3.640400	-10.881000	24.930064	0.000984	20.747506
804.201278	-2.980500	3.641000	-10.851000	24.888392	0.000984	20.751200
805.202202	-2.999000	3.641700	-10.919000	24.890626	0.000983	20.759607
806.203878	-3.005500	3.639900	-10.939000	24.915970	0.000984	20.750430
807.202748	-3.014700	3.640900	-10.974000	24.922387	0.000982	20.765880
808.203331	-3.020400	3.638800	-10.989000	24.932633	0.000982	20.761464
809.202866	-3.019800	3.637600	-10.984000	24.967118	0.000983	20.768577
810.203759	-3.016400	3.639000	-10.975000	24.975705	0.000984	20.758704
811.206628	-2.998600	3.638800	-10.909000	25.031992	0.000981	20.746924
812.205395	-3.006100	3.638200	-10.935000	25.065460	0.000984	20.762502
813.204137	-3.003300	3.637100	-10.922000	25.038935	0.000981	20.758635
814.204954	-3.004500	3.636700	-10.924000	25.050026	0.000981	20.755543
815.204887	-3.000600	3.635700	-10.908000	25.074268	0.000981	20.732936
816.205470	-3.000800	3.636100	-10.910000	25.058558	0.000982	20.773591
817.205702	-3.003400	3.636300	-10.920000	25.096823	0.000980	20.767432
818.206565	-3.001200	3.636700	-10.913000	25.080217	0.000979	20.755504
819.206573	-3.005300	3.635800	-10.925000	25.098019	0.000980	20.727854
820.207956	-2.989600	3.636400	-10.871000	25.073836	0.000981	20.761427
821.208055	-3.008600	3.635300	-10.936000	25.066554	0.000978	20.761229
822.209483	-3.009000	3.635600	-10.938000	25.066062	0.000978	20.773538
823.208622	-3.012500	3.636000	-10.952000	25.065320	0.000977	20.747187
824.209364	-2.985100	3.635500	-10.851000	25.094684	0.000978	20.766234
825.208755	-3.013900	3.633700	-10.949000	25.127796	0.000978	20.769602
826.209792	-3.011200	3.633900	-10.942000	25.117331	0.000978	20.743923
827.210858	-3.003300	3.634300	-10.914000	25.120599	0.000976	20.755738
828.212415	-2.981400	3.632500	-10.829000	25.114704	0.000978	20.775900
829.208962	-3.012900	3.632200	-10.942000	25.134375	0.000976	20.738273
830.207899	-2.997700	3.633400	-10.890000	25.103182	0.000975	20.757221
831.213016	-2.991500	3.631900	-10.865000	25.110518	0.000976	20.749886
832.208223	-3.028500	3.630700	-10.994000	25.083000	0.000976	20.772048
833.212004	-2.985900	3.632100	-10.843000	25.045089	0.000973	20.752958
834.210346	-3.018500	3.630500	-10.958000	25.026967	0.000975	20.757053
835.210138	-3.011100	3.631600	-10.934000	25.025732	0.000974	20.755340
836.211449	-2.997900	3.630500	-10.883000	25.041946	0.000975	20.762131
837.210029	-3.003400	3.629100	-10.898000	25.040283	0.000973	20.765678
838.211632	-2.991100	3.631500	-10.862000	25.075709	0.000973	20.775161
839.211932	-2.975100	3.630900	-10.801000	25.077672	0.000973	20.774287
840.211307	-3.001900	3.628700	-10.891000	25.099976	0.000970	20.773917
841.212380	-2.991200	3.628800	-10.853000	25.107833	0.000972	20.746717
842.211499	-3.004900	3.629800	-10.905000	25.142338	0.000971	20.766182
843.211272	-3.005800	3.630000	-10.909000	25.118058	0.000970	20.735643
844.213202	-2.999600	3.627000	-10.879000	25.105286	0.000971	20.783515
845.211082	-2.998400	3.627700	-10.876000	25.118511	0.000970	20.760281
846.213633	-3.015300	3.627700	-10.937000	25.150358	0.000970	20.758587
847.212133	-2.978200	3.628300	-10.805000	25.129773	0.000970	20.768742
848.212055	-2.983500	3.628900	-10.825000	25.130600	0.000969	20.752976
849.214479	-2.998000	3.628000	-10.875000	25.124066	0.000969	20.764910
850.211602	-2.980000	3.626800	-10.807000	25.091303	0.000968	20.748615
851.214392	-3.010900	3.626800	-10.919000	25.086261	0.000971	20.748294
852.213662	-2.998100	3.627000	-10.873000	25.077158	0.000969	20.755278
853.213352	-2.996300	3.627100	-10.866000	25.081887	0.000969	20.777095
854.216923	-3.000800	3.624900	-10.875000	25.074654	0.000970	20.774576
855.218303	-3.019600	3.625700	-10.947000	25.059293	0.000969	20.781442
856.214887	-3.019400	3.624200	-10.942000	25.072489	0.000968	20.777144
857.215029	-3.003000	3.624200	-10.882000	25.073059	0.000967	20.773450
858.215558	-3.021500	3.623500	-10.947000	25.056489	0.000970	20.780049
859.214609	-3.001500	3.625200	-10.879000	25.051061	0.000968	20.751841
860.217889	-3.000900	3.624200	-10.875000	25.058687	0.000965	20.793636
861.214199	-3.016900	3.623000	-10.929000	25.068336	0.000965	20.777243
862.219354	-2.999500	3.624200	-10.869000	25.054122	0.000967	20.775302
863.215570	-3.030700	3.621200	-10.973000	25.036412	0.000965	20.796881
864.214550	-3.010600	3.622200	-10.904000	25.062840	0.000962	20.762717
865.216638	-3.005800	3.622100	-10.886000	25.052399	0.000963	20.766935
866.214619	-3.020500	3.622800	-10.942000	25.001738	0.000962	20.770610
867.216651	-2.985200	3.623600	-10.816000	24.985199	0.000965	20.761121
868.217437	-2.990500	3.621400	-10.828000	24.984230	0.000964	20.777693
869.216755	-3.005700	3.620000	-10.880000	25.012568	0.000965	20.775316
870.218656	-3.005200	3.620500	-10.879000	25.035842	0.000962	20.763117
871.221684	-2.996600	3.621900	-10.852000	25.072336	0.000961	20.766559
872.218876	-2.978500	3.621200	-10.784000	25.073256	0.000962	20.772699
873.218868	-2.997700	3.620100	-10.851000	25.116042	0.000962	20.778191
874.218204	-2.999900	3.620800	-10.861000	25.142866	0.000960	20.794688
875.217661	-2.985100	3.619900	-10.805000	25.144583	0.000959	20.780765
876.220346	-3.007300	3.619500	-10.884000	25.115428	0.000959	20.777100
877.219036	-2.981300	3.620100	-10.792000	25.100234	0.000958	20.801203
878.220143	-3.007300	3.617800	-10.879000	25.118434	0.000961	20.785334
879.219460	-3.005600	3.618000	-10.873000	25.148416	0.000956	20.773233
880.219990	-3.017900	3.616900	-10.915000	25.150527	0.000958	20.791947
881.223817	-2.989700	3.617800	-10.813000	25.180607	0.000958	20.797015
882.221008	-2.978800	3.619800	-10.782000	25.184582	0.000958	20.791048
883.220231	-3.000800	3.617500	-10.854000	25.136166	0.000956	20.795074
884.219717	-2.990200	3.617000	-10.814000	25.139644	0.000957	20.764901
885.221672	-2.993100	3.619100	-10.830000	25.155629	0.000957	20.782845
886.219887	-3.008500	3.616500	-10.879000	25.160101	0.000955	20.804878
887.222568	-3.013000	3.615300	-10.892000	25.148776	0.000955	20.778336
888.223742	-2.995700	3.617100	-10.835000	25.145943	0.000955	20.797302
889.221561	-2.989300	3.616600	-10.809000	25.122277	0.000955	20.784925
890.220594	-3.004400	3.614900	-10.858000	25.075044	0.000956	20.786822
891.221632	-3.011000	3.614700	-10.882000	25.073179	0.000955	20.786846
892.222393	-3.006900	3.615400	-10.870000	25.082134	0.000956	20.787775
893.221470	-3.038200	3.612900	-10.974000	25.100403	0.000955	20.806114
894.225697	-3.013500	3.614500	-10.890000	25.134317	0.000954	20.793693
895.222569	-3.019800	3.613000	-10.909000	25.166282	0.000952	20.803496
896.223178	-3.007800	3.615400	-10.873000	25.190798	0.000954	20.793021
897.225363	-3.015500	3.613500	-10.895000	25.211032	0.000952	20.791050
898.225820	-3.025200	3.612600	-10.928000	25.222318	0.000951	20.795743
899.222794	-2.994500	3.614300	-10.822000	25.258019	0.000952	20.804085
900.223072	-3.015700	3.611700	-10.891000	25.245091	0.000951	20.818132
901.225015	-2.995800	3.611000	-10.816000	25.212607	0.000950	20.809227
902.229576	-2.987200	3.613200	-10.792000	25.187355	0.000952	20.789565
903.225174	-2.996300	3.611800	-10.821000	25.187005	0.000951	20.815766
904.225788	-3.010000	3.610700	-10.865000	25.219279	0.000948	20.793166
905.224413	-2.994100	3.611700	-10.813000	25.253381	0.000949	20.790419
906.225743	-3.008400	3.610500	-10.860000	25.296510	0.000949	20.811436
907.228043	-3.019100	3.610000	-10.897000	25.285623	0.000948	20.811411
908.227771	-2.984200	3.609700	-10.771000	25.288487	0.000947	20.783940
909.228004	-2.994500	3.609600	-10.807000	25.295570	0.000947	20.801958
910.227802	-3.002300	3.608600	-10.834000	25.284315	0.000946	20.817684
911.228850	-3.011100	3.608400	-10.864000	25.268583	0.000946	20.784346
912.229146	-2.977100	3.608000	-10.740000	25.297244	0.000947	20.791310
913.229111	-2.978300	3.609300	-10.749000	25.307363	0.000948	20.790090
914.228647	-2.990300	3.607500	-10.786000	25.298218	0.000946	20.801771
915.228698	-2.999000	3.608100	-10.820000	25.284823	0.000945	20.806814
916.230663	-2.995100	3.608200	-10.805000	25.258952	0.000944	20.796013
917.230325	-2.970800	3.607800	-10.717000	25.292605	0.000944	20.813680
918.231348	-3.003700	3.606700	-10.831000	25.286619	0.000946	20.819049
919.229977	-2.987700	3.606300	-10.773000	25.275585	0.000946	20.812712
920.232206	-2.993200	3.606000	-10.792000	25.284037	0.000945	20.807921
921.228679	-2.963500	3.607500	-10.689000	25.283810	0.000944	20.798211
922.231289	-2.988600	3.606000	-10.776000	25.250462	0.000944	20.815938
923.233415	-3.018500	3.604900	-10.881000	25.271930	0.000944	20.816629
924.235077	-2.991800	3.603900	-10.781000	25.276707	0.000943	20.813839
925.231963	-2.992100	3.604700	-10.785000	25.296689	0.000943	20.812564
926.233953	-3.002500	3.603800	-10.819000	25.278596	0.000943	20.816683
927.234017	-3.010800	3.602600	-10.845000	25.315603	0.000944	20.804054
928.236765	-3.011400	3.604400	-10.853000	25.357632	0.000942	20.819701
929.237691	-2.989800	3.605300	-10.777000	25.363097	0.000943	20.813808
930.236547	-2.985600	3.603500	-10.758000	25.425128	0.000941	20.821567
931.240980	-3.015100	3.601900	-10.859000	25.395759	0.000940	20.820052
932.238272	-3.011300	3.601000	-10.843000	25.400058	0.000940	20.825317
933.238874	-3.001200	3.602200	-10.810000	25.425103	0.000940	20.824862
934.240815	-2.980200	3.603500	-10.737000	25.403721	0.000937	20.814297
935.238036	-3.016200	3.599700	-10.857000	25.423283	0.000939	20.833465
936.237419	-3.000600	3.601800	-10.806000	25.402998	0.000939	20.828269
937.238618	-3.005400	3.601500	-10.822000	25.391321	0.000937	20.830294
938.237082	-3.017200	3.600500	-10.862000	25.403991	0.000938	20.812671
939.238735	-2.993900	3.601100	-10.781000	25.403342	0.000936	20.833356
940.242362	-2.985200	3.599800	-10.745000	25.420016	0.000935	20.841090
941.238865	-2.968700	3.602600	-10.694000	25.450457	0.000933	20.810018
942.239365	-2.984800	3.599300	-10.742000	25.458828	0.000935	20.833123
943.239067	-2.992200	3.598000	-10.764000	25.473146	0.000935	20.843233
944.239790	-2.998900	3.599500	-10.794000	25.484006	0.000934	20.831380
945.241429	-3.015800	3.598000	-10.849000	25.481168	0.000934	20.829004
946.240810	-3.024300	3.598300	-10.881000	25.493188	0.000933	20.819263
947.242681	-3.002300	3.598200	-10.802000	25.519757	0.000932	20.839306
948.241850	-2.998900	3.597300	-10.787000	25.527488	0.000933	20.815303
949.243899	-3.002500	3.598000	-10.802000	25.530046	0.000931	20.833043
950.244390	-3.003300	3.595000	-10.796000	25.522418	0.000931	20.826806
951.245154	-3.009500	3.596700	-10.823000	25.482800	0.000929	20.836806
952.241890	-3.014500	3.596000	-10.839000	25.493390	0.000931	20.848388
953.243604	-3.003600	3.595600	-10.798000	25.483597	0.000930	20.816270
954.244462	-2.985900	3.595400	-10.734000	25.501637	0.000930	20.839602
955.243680	-2.986900	3.595900	-10.739000	25.487276	0.000930	20.837034
956.244206	-2.986000	3.595900	-10.736000	25.512050	0.000928	20.825877
957.243992	-2.987500	3.593600	-10.735000	25.513338	0.000928	20.848981
958.245264	-2.995000	3.593900	-10.763000	25.445326	0.000928	20.858918
959.247054	-3.019000	3.594400	-10.851000	25.407797	0.000928	20.853475
960.245191	-3.011100	3.592600	-10.816000	25.412745	0.000927	20.838056
961.247649	-3.007800	3.593000	-10.806000	25.426223	0.000927	20.840210
962.247529	-3.007400	3.593700	-10.805000	25.406169	0.000925	20.830505
963.249874	-3.001300	3.593100	-10.781000	25.384344	0.000925	20.848893
964.247397	-2.977600	3.593200	-10.698000	25.355072	0.000927	20.867863
965.248127	-3.007900	3.593500	-10.807000	25.337600	0.000924	20.855536
966.249055	-2.995300	3.591900	-10.757000	25.348412	0.000924	20.846004
967.251319	-2.996300	3.591900	-10.761000	25.333281	0.000924	20.841243
968.249235	-3.014800	3.590300	-10.823000	25.378516	0.000923	20.855843
969.248469	-2.995500	3.591800	-10.758000	25.428919	0.000922	20.860461
970.249566	-2.989500	3.592400	-10.738000	25.433371	0.000922	20.858293
971.249983	-2.993000	3.591300	-10.746000	25.498580	0.000923	20.859290
972.252373	-3.014800	3.590300	-10.822000	25.524038	0.000923	20.845028
973.251932	-2.982700	3.590100	-10.707000	25.531593	0.000921	20.865415
974.255156	-2.985900	3.591500	-10.723000	25.555898	0.000922	20.880340
975.251854	-2.984500	3.587900	-10.707000	25.549908	0.000918	20.852515
976.251991	-2.985100	3.588700	-10.711000	25.562986	0.000921	20.841942
977.252560	-3.013100	3.588300	-10.811000	25.568558	0.000917	20.838055
978.251949	-3.015300	3.586200	-10.813000	25.581600	0.000918	20.857317
979.251650	-2.985300	3.587500	-10.708000	25.564688	0.000918	20.850764
980.253457	-3.026700	3.585900	-10.853000	25.512010	0.000917	20.849544
981.254508	-3.011000	3.586300	-10.798000	25.530301	0.000917	20.858903
982.255087	-2.993300	3.586900	-10.736000	25.531374	0.000916	20.873730
983.257915	-2.995000	3.587500	-10.744000	25.576508	0.000917	20.861211
984.255636	-3.012300	3.586400	-10.802000	25.562840	0.000914	20.856020
985.256283	-3.004900	3.586200	-10.774000	25.572908	0.000916	20.882250
986.256339	-2.999700	3.585500	-10.754000	25.570203	0.000915	20.863414
987.257415	-2.970800	3.586300	-10.653000	25.586207	0.000915	20.860520
988.263140	-2.990100	3.584400	-10.716000	25.560938	0.000913	20.860747
989.258470	-2.972200	3.585800	-10.656000	25.530721	0.000911	20.878290
990.262764	-2.983600	3.584400	-10.693000	25.495591	0.000913	20.859607
991.258734	-3.007100	3.582900	-10.773000	25.485337	0.000912	20.879655
992.259705	-2.983700	3.584000	-10.692000	25.497116	0.000913	20.856872
993.263392	-3.006700	3.583700	-10.773000	25.526139	0.000911	20.866102
994.262534	-3.006500	3.582100	-10.768000	25.544238	0.000910	20.863416
995.262927	-2.993100	3.583100	-10.721000	25.575773	0.000913	20.867111
996.261219	-2.996900	3.582800	-10.736000	25.595529	0.000910	20.876045
997.260355	-3.001300	3.581800	-10.749000	25.607834	0.000910	20.878920
998.261440	-2.988300	3.582100	-10.704000	25.579531	0.000909	20.883686
999.262410	-3.016500	3.581200	-10.801000	25.612560	0.000909	20.866598
1000.262388	-2.988900	3.582300	-10.705000	25.614724	0.000909	20.871142
1001.263030	-3.011100	3.580800	-10.780000	25.581130	0.000909	20.874387
1002.262713	-3.018200	3.580300	-10.805000	25.607795	0.000907	20.866080
1003.261391	-3.027300	3.580200	-10.837000	25.597341	0.000906	20.872175
1004.262948	-3.007100	3.579000	-10.761000	25.581460	0.000907	20.851012
1005.261534	-3.007100	3.578000	-10.758000	25.561986	0.000907	20.875075
1006.261666	-3.007800	3.579500	-10.765000	25.546160	0.000906	20.853967
1007.261316	-3.016800	3.578200	-10.793000	25.507763	0.000906	20.869933
1008.261294	-3.012400	3.578600	-10.780000	25.518180	0.000905	20.865696
1009.262859	-2.986700	3.579000	-10.688000	25.522135	0.000907	20.855444
1010.264722	-2.998900	3.577100	-10.726000	25.545270	0.000904	20.853547
1011.263507	-3.005100	3.576400	-10.746000	25.551831	0.000903	20.872463
1012.263279	-3.006400	3.577500	-10.754000	25.540254	0.000903	20.864156
1013.263294	-3.001900	3.578000	-10.739000	25.559036	0.000904	20.876379
1014.264709	-2.991500	3.577100	-10.699000	25.585928	0.000901	20.848861
1015.267475	-2.996500	3.577400	-10.718000	25.553253	0.000899	20.871994
1016.264840	-2.997600	3.574600	-10.713000	25.546594	0.000900	20.849187
1017.265174	-2.986400	3.575400	-10.676000	25.523538	0.000900	20.868232
1018.266590	-2.998200	3.575400	-10.719000	25.552265	0.000899	20.842555
1019.264507	-2.984200	3.574700	-10.666000	25.564270	0.000901	20.851292
1020.269849	-2.980500	3.576500	-10.658000	25.556495	0.000899	20.858182
1021.269142	-2.979200	3.573900	-10.646000	25.548616	0.000897	20.855485
1022.271332	-2.995600	3.574000	-10.705000	25.545316	0.000899	20.855016
1023.266383	-2.994100	3.573900	-10.699000	25.530440	0.000896	20.848137
1024.267417	-2.990100	3.572600	-10.682000	25.522413	0.000898	20.832491
1025.268169	-2.984100	3.573500	-10.663000	25.489338	0.000895	20.852854
1026.270488	-2.993900	3.572700	-10.695000	25.497223	0.000895	20.826634
1027.269212	-2.996400	3.571600	-10.701000	25.511761	0.000896	20.833647
1028.272994	-3.006400	3.572300	-10.737000	25.489428	0.000894	20.860056
1029.270704	-3.019400	3.571100	-10.781000	25.502250	0.000893	20.842588
1030.271575	-2.987000	3.571200	-10.666000	25.540077	0.000895	20.848806
1031.275505	-2.999500	3.570600	-10.708000	25.548379	0.000893	20.845764
1032.270482	-2.976300	3.570300	-10.626000	25.543731	0.000891	20.849631
1033.271359	-3.018200	3.570000	-10.774000	25.559906	0.000890	20.834108
1034.276858	-2.978500	3.571100	-10.635000	25.575094	0.000890	20.837506
1035.271114	-3.008100	3.569100	-10.735000	25.600294	0.000891	20.841004
1036.271561	-2.987000	3.570600	-10.663000	25.597663	0.000891	20.828405
1037.276468	-3.010100	3.569400	-10.742000	25.607577	0.000890	20.841680
1038.271159	-3.006700	3.567800	-10.726000	25.561959	0.000889	20.834272
1039.272385	-3.005000	3.569000	-10.724000	25.518019	0.000888	20.807216
1040.274784	-2.996000	3.568700	-10.691000	25.517326	0.000891	20.815529
1041.271394	-3.008000	3.568300	-10.732000	25.531245	0.000887	20.832825
1042.275682	-2.997500	3.567500	-10.692000	25.545808	0.000890	20.821372
1043.273758	-3.002400	3.568900	-10.714000	25.545164	0.000887	20.806975
1044.272676	-3.033100	3.566200	-10.816000	25.553067	0.000886	20.816809
1045.273798	-2.986900	3.567600	-10.656000	25.574362	0.000885	20.813539
1046.273508	-3.007000	3.565600	-10.721000	25.580653	0.000885	20.822227
1047.274260	-3.003300	3.564600	-10.705000	25.582045	0.000886	20.817935
1048.274071	-3.026700	3.565500	-10.790000	25.545243	0.000886	20.819856
1049.273287	-3.007500	3.564900	-10.720000	25.526933	0.000885	20.819961
1050.273960	-3.007100	3.565000	-10.719000	25.513939	0.000884	20.816395
1051.274498	-3.002700	3.564800	-10.702000	25.504472	0.000882	20.794085
1052.279703	-3.004600	3.565200	-10.711000	25.539515	0.000884	20.806043
1053.282187	-3.015800	3.562900	-10.743000	25.568211	0.000883	20.812577
1054.276074	-3.027000	3.562700	-10.783000	25.584018	0.000881	20.798106
1055.276092	-3.017900	3.563500	-10.753000	25.601093	0.000882	20.796289
1056.276191	-3.006700	3.561200	-10.706000	25.616373	0.000881	20.815428
1057.276537	-3.002300	3.563300	-10.697000	25.637899	0.000881	20.820926
1058.279110	-3.039500	3.561100	-10.823000	25.644238	0.000879	20.792679
1059.278174	-2.976400	3.563800	-10.605000	25.672190	0.000879	20.791830
1060.280116	-2.990400	3.561500	-10.648000	25.658106	0.000878	20.814669
1061.277211	-2.990500	3.560200	-10.645000	25.675077	0.000878	20.782876
1062.277781	-2.986000	3.561500	-10.633000	25.669786	0.000877	20.814071
1063.280325	-2.986400	3.560300	-10.632000	25.657861	0.000876	20.794034
1064.281363	-2.993700	3.561400	-10.661000	25.670711	0.000877	20.803621
1065.278612	-3.013100	3.558200	-10.720000	25.699513	0.000875	20.805997
1066.278685	-2.979900	3.559800	-10.607000	25.726170	0.000876	20.804797
1067.279291	-2.994500	3.558800	-10.656000	25.708011	0.000876	20.802204
1068.278775	-3.011100	3.559400	-10.716000	25.680065	0.000877	20.781248
1069.279200	-3.000500	3.560700	-10.681000	25.679569	0.000874	20.815836
1070.279311	-2.997800	3.557800	-10.665000	25.644487	0.000875	20.807154
1071.279180	-3.004900	3.558200	-10.690000	25.639288	0.000873	20.790553
1072.278525	-3.007000	3.558500	-10.699000	25.643444	0.000874	20.784770
1073.282597	-3.026600	3.556500	-10.762000	25.645142	0.000874	20.787897
1074.279254	-3.008900	3.556300	-10.699000	25.681635	0.000874	20.795626
1075.279851	-3.016800	3.556000	-10.727000	25.721594	0.000871	20.793088
1076.280662	-2.990100	3.557900	-10.637000	25.702889	0.000872	20.814129
1077.282198	-2.953700	3.558400	-10.509000	25.655430	0.000871	20.772151
1078.283233	-3.001400	3.554600	-10.668000	25.638587	0.000870	20.805022
1079.286476	-3.016300	3.556300	-10.724000	25.637422	0.000870	20.795317
1080.285537	-3.006700	3.555900	-10.691000	25.596305	0.000869	20.786738
1081.283398	-3.000500	3.555200	-10.666000	25.592553	0.000868	20.774435
1082.285969	-2.997600	3.554000	-10.652000	25.560656	0.000867	20.792661
1083.284466	-2.999600	3.553900	-10.659000	25.591595	0.000870	20.788172
1084.287632	-2.976300	3.554600	-10.579000	25.612111	0.000866	20.794078
1085.285283	-2.990900	3.553800	-10.628000	25.634115	0.000864	20.789625
1086.285914	-3.015100	3.552300	-10.710000	25.626630	0.000866	20.777365
1087.286882	-3.001300	3.553000	-10.662000	25.656672	0.000863	20.789995
1088.286663	-2.997900	3.553100	-10.651000	25.664433	0.000864	20.792574
1089.288054	-3.020400	3.551200	-10.725000	25.656880	0.000864	20.774082
1090.286044	-2.992100	3.552900	-10.629000	25.720635	0.000864	20.801607
1091.287238	-3.040000	3.550000	-10.790000	25.738499	0.000864	20.791576
1092.287593	-2.990100	3.551000	-10.618000	25.716741	0.000861	20.798171
1093.287391	-2.962700	3.551800	-10.521000	25.749018	0.000862	20.786969
1094.288412	-2.980900	3.550700	-10.583000	25.760476	0.000860	20.789469
1095.290880	-3.025600	3.549200	-10.738000	25.748601	0.000861	20.789395
1096.289676	-3.002800	3.550000	-10.659000	25.733354	0.000862	20.774554
1097.296641	-2.982000	3.550000	-10.585000	25.712362	0.000861	20.793298
1098.290921	-2.974000	3.550600	-10.559000	25.712834	0.000859	20.778599
1099.291321	-2.975700	3.549300	-10.561000	25.730778	0.000860	20.778131
1100.293612	-3.013000	3.548500	-10.691000	25.711773	0.000859	20.775162
1101.292606	-2.992200	3.549800	-10.620000	25.735076	0.000857	20.772964
1102.293182	-3.009400	3.548600	-10.677000	25.734683	0.000857	20.761190
1103.292033	-3.021100	3.547300	-10.716000	25.745300	0.000857	20.782760
1104.292999	-2.999700	3.549300	-10.646000	25.737895	0.000856	20.782908
1105.297866	-3.009200	3.546900	-10.672000	25.719883	0.000854	20.776196
1106.295254	-2.984500	3.546500	-10.583000	25.715891	0.000856	20.780247
1107.293704	-2.983500	3.545900	-10.577000	25.700141	0.000858	20.776281
1108.295231	-2.996100	3.545400	-10.621000	25.727368	0.000855	20.775179
1109.295385	-3.010500	3.544800	-10.671000	25.716038	0.000853	20.761903
1110.294902	-3.002300	3.545700	-10.644000	25.732959	0.000854	20.766570
1111.298796	-3.019100	3.545000	-10.701000	25.724811	0.000853	20.771189
1112.295872	-3.002900	3.544300	-10.643000	25.714701	0.000851	20.778578
1113.297368	-2.992100	3.543500	-10.601000	25.713580	0.000853	20.752321
1114.305607	-2.991000	3.544100	-10.600000	25.674207	0.000849	20.765880
1115.298474	-3.001800	3.543200	-10.633000	25.682104	0.000850	20.768596
1116.298331	-3.021400	3.543100	-10.704000	25.693403	0.000847	20.776627
1117.297707	-3.019000	3.542700	-10.695000	25.676561	0.000849	20.778677
1118.300116	-3.014300	3.543700	-10.680000	25.665532	0.000848	20.759063
1119.298691	-3.031300	3.540700	-10.732000	25.652913	0.000848	20.777211
1120.299096	-3.025700	3.540500	-10.712000	25.652441	0.000848	20.772469
1121.300370	-3.001200	3.541600	-10.628000	25.658229	0.000845	20.745565
1122.299240	-2.997100	3.542100	-10.615000	25.678535	0.000846	20.759795
1123.299048	-2.976900	3.542400	-10.544000	25.697914	0.000845	20.758398
1124.299056	-2.993600	3.540000	-10.596000	25.753342	0.000845	20.759069
1125.299898	-2.985000	3.540300	-10.566000	25.733944	0.000844	20.777992
1126.298959	-3.001100	3.539200	-10.620000	25.753078	0.000842	20.772554
1127.303946	-3.002300	3.539400	-10.625000	25.758093	0.000843	20.759099
1128.300523	-2.990600	3.539900	-10.585000	25.732411	0.000844	20.779771
1129.302120	-2.999300	3.538600	-10.612000	25.760366	0.000842	20.751900
1130.302775	-2.978200	3.539500	-10.540000	25.699642	0.000841	20.749701
1131.301446	-3.015200	3.537000	-10.662000	25.706827	0.000843	20.747435
1132.306713	-3.001600	3.539100	-10.621000	25.718629	0.000843	20.750280
1133.302638	-2.997400	3.538200	-10.604000	25.675302	0.000839	20.759868
1134.301888	-3.019300	3.537000	-10.678000	25.658852	0.000842	20.764209
1135.302412	-3.005100	3.536900	-10.628000	25.670035	0.000840	20.736559
1136.301501	-3.010200	3.536700	-10.645000	25.700027	0.000841	20.773797
1137.304113	-2.998800	3.536300	-10.604000	25.701872	0.000839	20.759054
1138.303425	-2.985300	3.536200	-10.556000	25.706593	0.000839	20.750045
1139.302780	-2.980900	3.535800	-10.538000	25.714686	0.000838	20.766709
1140.303176	-2.985200	3.536200	-10.556000	25.731563	0.000838	20.764220
1141.301969	-2.986200	3.535500	-10.557000	25.722196	0.000836	20.736318
1142.302979	-2.998100	3.534600	-10.595000	25.698267	0.000834	20.758278
1143.304339	-2.991800	3.535500	-10.577000	25.698690	0.000836	20.742107
1144.302947	-3.000800	3.533800	-10.602000	25.710792	0.000836	20.759953
1145.308127	-3.023200	3.532000	-10.675000	25.719688	0.000835	20.761301
1146.303601	-3.001000	3.532800	-10.601000	25.718310	0.000833	20.757546
1147.304905	-3.015600	3.531200	-10.647000	25.759654	0.000835	20.757823
1148.307434	-2.982100	3.533100	-10.536000	25.800972	0.000834	20.744798
1149.305819	-2.988700	3.532800	-10.558000	25.808096	0.000833	20.741997
1150.308824	-3.005500	3.531000	-10.611000	25.817414	0.000833	20.754676
1151.305834	-2.987600	3.533600	-10.555000	25.837367	0.000831	20.749115
1152.305732	-3.019400	3.530500	-10.658000	25.842308	0.000830	20.740802
1153.307684	-2.999700	3.530600	-10.590000	25.881558	0.000832	20.739453
1154.309317	-3.012800	3.529300	-10.632000	25.901633	0.000830	20.725006
1155.305596	-3.002000	3.530700	-10.598000	25.910417	0.000829	20.762282
1156.307856	-2.985800	3.531300	-10.543000	25.947138	0.000827	20.742748
1157.306574	-2.997200	3.529500	-10.578000	25.944582	0.000828	20.750612
1158.307016	-2.990700	3.530500	-10.558000	25.910496	0.000828	20.742921
1159.308911	-3.013900	3.527600	-10.628000	25.907419	0.000826	20.735561
1160.307110	-3.017200	3.527600	-10.642000	25.907094	0.000827	20.769376
1161.307537	-3.010500	3.528900	-10.623000	25.882428	0.000827	20.754553
1162.307508	-2.992800	3.528300	-10.557000	25.875477	0.000825	20.731447
1163.309878	-3.006400	3.528400	-10.607000	25.844772	0.000825	20.738061
1164.309876	-3.009400	3.528800	-10.617000	25.841345	0.000822	20.747896
1165.307932	-2.985000	3.528700	-10.531000	25.815630	0.000824	20.725382
1166.308695	-3.028500	3.525500	-10.676000	25.805772	0.000823	20.735869
1167.309048	-3.021600	3.525400	-10.651000	25.777125	0.000823	20.738387
1168.308715	-2.997800	3.525300	-10.567000	25.730398	0.000823	20.721323
1169.312215	-2.989700	3.525500	-10.539000	25.686343	0.000822	20.752465
1170.310271	-2.973900	3.525100	-10.482000	25.667159	0.000822	20.740783
1171.312149	-3.014000	3.523300	-10.618000	25.670469	0.000819	20.745530
1172.309375	-2.979600	3.525500	-10.503000	25.708236	0.000820	20.749324
1173.309168	-3.009500	3.523300	-10.603000	25.735223	0.000820	20.752249
1174.315254	-2.989900	3.524300	-10.534000	25.715819	0.000820	20.742242
1175.313488	-2.988400	3.524000	-10.530000	25.750181	0.000819	20.744040
1176.310314	-3.002600	3.524200	-10.580000	25.784842	0.000817	20.734759
1177.310542	-3.009100	3.521300	-10.595000	25.816321	0.000816	20.732240
1178.310913	-2.998700	3.521300	-10.559000	25.829862	0.000816	20.735886
1179.311886	-2.986200	3.522100	-10.516000	25.793522	0.000817	20.733521
1180.314269	-3.017900	3.520900	-10.625000	25.789047	0.000815	20.718593
1181.310834	-2.996100	3.521900	-10.551000	25.797923	0.000815	20.720397
1182.314607	-2.992400	3.520400	-10.533000	25.798886	0.000815	20.738435
1183.312410	-2.997300	3.520300	-10.549000	25.784523	0.000814	20.723058
1184.311718	-2.990400	3.519600	-10.523000	25.817699	0.000814	20.717503
1185.315916	-2.993600	3.519200	-10.534000	25.829543	0.000815	20.735565
1186.313498	-3.020600	3.517600	-10.625000	25.863883	0.000812	20.733077
1187.313324	-2.984300	3.519400	-10.501000	25.820586	0.000812	20.730361
1188.312961	-2.979400	3.519700	-10.486000	25.815492	0.000811	20.729037
1189.315450	-2.994300	3.518000	-10.532000	25.807419	0.000810	20.714288
1190.315768	-3.006700	3.517200	-10.574000	25.799271	0.000811	20.749728
1191.318768	-3.001100	3.518200	-10.558000	25.765610	0.000810	20.724449
1192.315584	-3.005500	3.517800	-10.572000	25.748021	0.000809	20.720058
1193.315283	-2.997500	3.516700	-10.541000	25.730408	0.000808	20.717539
1194.315831	-3.009000	3.517800	-10.581000	25.733136	0.000809	20.724073
1195.315659	-3.004000	3.516200	-10.562000	25.736618	0.000810	20.722829
1196.319657	-3.006100	3.515800	-10.568000	25.751601	0.000809	20.709428
1197.317483	-3.027500	3.513600	-10.636000	25.756125	0.000808	20.722508
1198.320433	-2.995300	3.515500	-10.529000	25.765915	0.000804	20.732817
1199.318276	-3.008500	3.515300	-10.575000	25.774933	0.000806	20.726702
1200.316888	-2.998300	3.513700	-10.534000	25.791779	0.000805	20.718493
1201.321863	-2.992200	3.514100	-10.514000	25.804549	0.000805	20.718992
1202.319871	-3.002700	3.514600	-10.551000	25.802985	0.000805	20.731173
1203.322318	-2.976700	3.513700	-10.459000	25.749547	0.000804	20.723961
1204.319508	-2.996800	3.512300	-10.523000	25.754739	0.000802	20.723487
1205.319695	-3.001800	3.513200	-10.545000	25.807135	0.000801	20.712581
1206.322702	-2.990600	3.512300	-10.502000	25.814614	0.000802	20.720094
1207.318612	-3.001900	3.512300	-10.543000	25.831858	0.000801	20.723665
1208.319240	-2.985900	3.512100	-10.486000	25.815736	0.000800	20.722169
1209.320761	-2.999100	3.510700	-10.527000	25.849751	0.000800	20.714612
1210.321291	-3.004400	3.510800	-10.546000	25.820683	0.000798	20.729509
1211.320551	-3.003000	3.510400	-10.540000	25.827689	0.000800	20.739867
1212.325505	-3.030200	3.510000	-10.635000	25.766503	0.000797	20.727717
1213.323263	-3.000300	3.510700	-10.532000	25.755597	0.000798	20.722452
1214.322035	-3.035700	3.509100	-10.652000	25.717066	0.000798	20.713620
1215.322106	-3.015200	3.509000	-10.580000	25.692223	0.000796	20.723282
1216.322316	-3.017600	3.506600	-10.581000	25.680992	0.000795	20.724329
1217.324339	-2.985500	3.510200	-10.478000	25.648614	0.000796	20.709353
1218.323629	-2.989100	3.508700	-10.487000	25.674505	0.000792	20.727298
1219.325247	-2.993900	3.507400	-10.500000	25.698955	0.000796	20.716293
1220.324046	-3.006900	3.508200	-10.548000	25.683499	0.000794	20.730167
1221.324668	-3.002700	3.505400	-10.524000	25.697018	0.000794	20.729995
1222.326376	-3.012900	3.506100	-10.563000	25.678754	0.000793	20.717340
1223.326180	-2.991700	3.506000	-10.489000	25.691899	0.000792	20.718688
1224.324382	-2.977500	3.506700	-10.440000	25.695179	0.000792	20.709180
1225.325738	-2.992700	3.504700	-10.487000	25.702229	0.000791	20.714840
1226.324748	-3.002400	3.505400	-10.523000	25.712738	0.000790	20.725869
1227.323979	-3.016000	3.502800	-10.563000	25.715742	0.000793	20.717507
1228.327369	-2.973000	3.506200	-10.422000	25.723246	0.000790	20.713664
1229.324347	-3.004500	3.503600	-10.526000	25.745727	0.000790	20.725340
1230.329303	-2.972000	3.504900	-10.416000	25.792809	0.000790	20.725691
1231.325723	-3.002600	3.503900	-10.520000	25.818120	0.000790	20.712710
1232.324869	-2.998100	3.502900	-10.502000	25.812598	0.000788	20.723758
1233.327382	-2.988900	3.502600	-10.468000	25.832845	0.000786	20.731296
1234.328267	-2.983800	3.503900	-10.454000	25.840938	0.000787	20.713819
1235.328486	-3.005700	3.502200	-10.525000	25.841385	0.000786	20.723278
1236.326582	-2.993000	3.501400	-10.479000	25.880905	0.000785	20.721253
1237.325981	-3.005200	3.502100	-10.522000	25.906269	0.000784	20.720655
1238.327486	-2.994500	3.500300	-10.481000	25.892699	0.000786	20.723144
1239.328801	-2.983100	3.501000	-10.442000	25.885944	0.000784	20.711141
1240.327669	-3.016300	3.500200	-10.556000	25.872569	0.000784	20.732794
1241.326939	-3.011900	3.499600	-10.539000	25.891468	0.000781	20.717639
1242.326913	-3.009000	3.499500	-10.529000	25.886233	0.000782	20.712380
1243.326590	-3.015600	3.497800	-10.547000	25.916808	0.000783	20.744045
1244.328122	-3.010000	3.498500	-10.529000	25.848988	0.000781	20.718588
1245.327555	-2.990800	3.499400	-10.463000	25.858005	0.000781	20.730017
1246.328734	-2.970900	3.499400	-10.394000	25.784168	0.000781	20.728392
1247.329151	-2.983700	3.497600	-10.435000	25.789109	0.000778	20.728614
1248.328619	-3.000500	3.495800	-10.488000	25.815720	0.000781	20.718834
1249.330585	-2.966000	3.498100	-10.374000	25.845053	0.000779	20.726964
1250.328832	-3.008700	3.495500	-10.517000	25.861647	0.000780	20.730831
1251.329021	-2.999400	3.496200	-10.486000	25.877984	0.000779	20.726379
1252.329270	-2.982600	3.496100	-10.426000	25.890065	0.000778	20.721920
1253.330108	-2.969500	3.494000	-10.375000	25.911231	0.000777	20.734649
1254.329000	-2.988500	3.495200	-10.444000	25.910434	0.000776	20.734323
1255.331012	-3.009500	3.493200	-10.512000	25.894706	0.000777	20.746024
1256.329298	-3.005900	3.493200	-10.498000	25.849088	0.000776	20.728172
1257.331095	-2.993700	3.492800	-10.455000	25.854728	0.000775	20.721034
1258.329543	-2.999800	3.492600	-10.476000	25.885598	0.000774	20.743038
1259.329742	-3.007600	3.492300	-10.502000	25.849328	0.000775	20.741215
1260.337624	-2.972500	3.494100	-10.386000	25.838294	0.000773	20.726338
1261.330338	-3.013200	3.492600	-10.523000	25.852258	0.000774	20.729460
1262.334619	-2.995700	3.490600	-10.456000	25.856004	0.000771	20.734171
1263.331099	-2.994600	3.492300	-10.457000	25.848918	0.000773	20.700498
1264.331133	-2.991300	3.489700	-10.438000	25.879102	0.000771	20.751685
1265.331034	-3.001700	3.489500	-10.473000	25.861804	0.000771	20.739050
1266.334464	-3.011800	3.489900	-10.510000	25.857777	0.000771	20.720304
1267.332478	-3.006800	3.489400	-10.491000	25.879489	0.000771	20.740220
1268.331704	-3.022700	3.487100	-10.540000	25.880629	0.000771	20.748004
1269.332336	-2.995100	3.489400	-10.451000	25.890535	0.000770	20.741834
1270.332202	-3.013100	3.488200	-10.510000	25.891547	0.000771	20.739531
1271.334390	-2.991600	3.487000	-10.431000	25.881611	0.000768	20.729549
1272.333502	-2.997200	3.487500	-10.452000	25.882604	0.000770	20.728176
1273.334670	-2.985900	3.487300	-10.411000	25.887668	0.000767	20.753178
1274.332967	-3.002100	3.487100	-10.468000	25.924403	0.000766	20.757366
1275.336679	-3.022700	3.485400	-10.534000	25.934560	0.000768	20.734852
1276.336807	-3.013400	3.486000	-10.504000	25.898163	0.000765	20.757558
1277.339153	-3.016500	3.484100	-10.509000	25.859140	0.000767	20.735899
1278.336927	-3.015500	3.482900	-10.501000	25.813595	0.000766	20.747995
1279.336199	-3.017600	3.483200	-10.510000	25.832023	0.000767	20.755600
1280.337329	-3.043600	3.483800	-10.600000	25.836816	0.000767	20.775115
1281.337884	-2.994900	3.483900	-10.431000	25.881957	0.000763	20.738432
1282.338948	-3.014800	3.482200	-10.496000	25.894095	0.000763	20.755841
1283.338928	-3.002600	3.482000	-10.454000	25.913844	0.000764	20.748655
1284.340931	-3.000500	3.482100	-10.447000	25.932251	0.000763	20.753397
1285.338895	-3.017100	3.481000	-10.501000	25.937634	0.000763	20.755485
1286.338677	-3.021200	3.480000	-10.512000	25.920465	0.000761	20.736814
1287.342516	-2.982100	3.481000	-10.380000	25.911449	0.000761	20.745300
1288.340289	-2.987200	3.482500	-10.402000	25.886924	0.000764	20.751957
1289.341925	-3.018700	3.480900	-10.507000	25.872985	0.000758	20.757869
1290.339289	-3.049200	3.479100	-10.607000	25.900533	0.000757	20.750455
1291.340349	-3.014100	3.479100	-10.484000	25.905345	0.000758	20.767618
1292.342466	-3.002500	3.479100	-10.445000	25.942956	0.000760	20.750874
1293.340687	-2.992700	3.479700	-10.411000	25.961780	0.000759	20.754613
1294.342032	-3.014400	3.477200	-10.481000	25.938525	0.000756	20.751165
1295.341578	-2.997100	3.479400	-10.428000	25.926279	0.000755	20.765414
1296.342059	-2.992200	3.478000	-10.405000	25.917109	0.000756	20.762367
1297.344748	-2.970100	3.477600	-10.327000	25.874679	0.000755	20.760993
1298.344895	-2.964700	3.477300	-10.307000	25.856413	0.000755	20.755920
1299.343909	-3.002200	3.476900	-10.438000	25.805490	0.000754	20.763087
1300.344850	-2.995400	3.476600	-10.412000	25.800390	0.000754	20.746110
1301.345238	-2.988700	3.476200	-10.388000	25.833383	0.000753	20.754596
1302.345028	-2.985400	3.476400	-10.377000	25.807539	0.000753	20.741911
1303.347503	-3.006400	3.476500	-10.450000	25.787621	0.000754	20.753672
1304.344268	-2.987600	3.474500	-10.379000	25.820087	0.000753	20.786286
1305.348907	-3.015200	3.472800	-10.469000	25.854637	0.000755	20.754135
1306.346969	-2.996700	3.474700	-10.412000	25.879151	0.000752	20.765485
1307.347382	-3.015700	3.471400	-10.467000	25.917706	0.000752	20.780510
1308.350467	-3.017000	3.473700	-10.479000	25.931565	0.000753	20.760294
1309.347224	-2.999300	3.472900	-10.415000	25.939864	0.000749	20.771003
1310.347659	-2.997600	3.472500	-10.408000	25.975005	0.000750	20.777383
1311.351987	-2.996000	3.472500	-10.402000	25.970040	0.000749	20.744419
1312.348206	-3.008100	3.471900	-10.441000	25.967429	0.000749	20.763608
1313.348870	-3.009200	3.471400	-10.445000	25.974484	0.000747	20.779230
1314.351496	-2.975100	3.471000	-10.326000	25.971027	0.000750	20.771016
1315.349821	-2.988800	3.471600	-10.375000	26.037472	0.000747	20.769495
1316.349595	-2.989400	3.470600	-10.374000	26.038263	0.000748	20.775980
1317.350787	-2.994800	3.469700	-10.390000	26.060193	0.000745	20.785211
1318.351744	-2.985900	3.469000	-10.358000	26.045140	0.000747	20.772458
1319.353757	-3.002700	3.467900	-10.412000	26.041169	0.000745	20.779373
1320.353610	-3.006800	3.468300	-10.427000	26.037167	0.000746	20.771559
1321.354622	-3.010000	3.466700	-10.434000	26.040672	0.000745	20.767494
1322.353422	-3.006000	3.467900	-10.424000	26.065757	0.000743	20.800285
1323.353250	-3.018200	3.466500	-10.462000	26.090591	0.000744	20.766442
1324.355515	-3.017900	3.465400	-10.457000	26.103240	0.000743	20.770142
1325.355075	-3.004400	3.466700	-10.414000	26.109227	0.000744	20.768097
1326.354550	-3.011200	3.465400	-10.434000	26.164658	0.000741	20.779225
1327.356071	-3.003200	3.465400	-10.405000	26.186639	0.000745	20.779502
1328.355284	-3.000200	3.464600	-10.392000	26.159945	0.000741	20.797723
1329.357388	-2.998500	3.465000	-10.389000	26.133593	0.000741	20.764131
1330.357998	-3.023800	3.462500	-10.467000	26.090425	0.000741	20.789983
1331.357038	-3.011600	3.464200	-10.432000	26.112781	0.000737	20.770720
1332.358348	-3.029200	3.461900	-10.486000	26.111862	0.000739	20.783547
1333.355943	-2.979600	3.462800	-10.317000	26.093562	0.000739	20.782229
1334.356553	-3.006100	3.462700	-10.408000	26.093832	0.000738	20.771120
1335.360714	-3.013600	3.462600	-10.434000	26.044802	0.000738	20.785394
1336.357527	-2.997600	3.462500	-10.378000	26.091920	0.000737	20.782001
1337.361504	-3.001400	3.461800	-10.389000	26.087299	0.000735	20.796325
1338.358470	-3.017400	3.461400	-10.444000	26.121256	0.000735	20.782555
1339.358298	-3.007000	3.461000	-10.406000	26.132533	0.000736	20.805265
1340.358279	-3.013100	3.460300	-10.425000	26.119860	0.000735	20.789687
1341.361042	-3.005500	3.459500	-10.397000	26.086666	0.000736	20.797112
1342.359392	-3.005300	3.460000	-10.397000	26.030380	0.000735	20.773275
1343.358152	-2.991100	3.460600	-10.350000	26.006213	0.000734	20.790720
1344.358894	-3.015200	3.458300	-10.427000	26.013071	0.000731	20.804248
1345.358006	-3.000200	3.459200	-10.378000	26.014089	0.000733	20.791520
1346.364223	-2.990000	3.458700	-10.341000	26.044770	0.000733	20.797216
1347.359540	-2.998100	3.457600	-10.365000	26.077785	0.000731	20.781075
1348.362898	-2.979600	3.457800	-10.302000	26.057419	0.000732	20.792855
1349.363694	-2.990900	3.456100	-10.336000	26.102747	0.000730	20.784819
1350.361203	-3.000200	3.456800	-10.370000	26.115065	0.000730	20.788188
1351.363670	-3.007200	3.456200	-10.392000	26.096140	0.000731	20.816113
1352.360123	-2.993800	3.456500	-10.347000	26.128951	0.000730	20.785072
1353.360980	-3.005900	3.454000	-10.381000	26.163748	0.000729	20.777836
1354.361226	-2.997100	3.454900	-10.354000	26.147538	0.000729	20.799006
1355.361063	-2.980600	3.455200	-10.297000	26.098535	0.000727	20.790545
1356.360023	-2.986900	3.455300	-10.320000	26.080903	0.000728	20.800330
1357.363278	-3.017800	3.452900	-10.419000	26.033809	0.000727	20.801851
1358.362034	-3.020400	3.452600	-10.427000	26.043199	0.000726	20.788999
1359.362573	-2.986900	3.453900	-10.315000	26.026823	0.000726	20.799573
1360.362722	-2.997500	3.451800	-10.346000	26.023353	0.000725	20.792294
1361.363347	-2.989000	3.452000	-10.317000	25.984030	0.000724	20.792140
1362.367683	-2.966700	3.453000	-10.243000	25.977502	0.000724	20.807867
1363.364330	-3.009400	3.452700	-10.389000	25.962074	0.000723	20.793316
1364.365177	-3.001200	3.451800	-10.357000	25.974375	0.000725	20.782441
1365.364842	-2.984300	3.449200	-10.292000	25.989060	0.000723	20.802884
1366.364710	-2.989100	3.452000	-10.317000	25.996041	0.000724	20.799941
1367.370266	-2.995000	3.449900	-10.331000	26.031235	0.000722	20.809695
1368.367027	-3.007400	3.448200	-10.369000	26.014098	0.000722	20.804805
1369.367186	-3.017200	3.449800	-10.408000	26.058704	0.000720	20.792250
1370.369255	-3.012000	3.447700	-10.383000	26.099195	0.000721	20.802588
1371.367316	-3.041200	3.447500	-10.483000	26.088066	0.000720	20.807053
1372.369801	-2.988200	3.448400	-10.304000	26.095800	0.000720	20.822409
1373.370983	-3.005600	3.446300	-10.357000	26.075453	0.000718	20.817139
1374.367760	-3.013300	3.445600	-10.381000	26.063410	0.000717	20.807409
1375.367567	-3.010100	3.444800	-10.368000	26.076599	0.000717	20.807859
1376.367746	-2.996000	3.445800	-10.322000	26.076072	0.000718	20.816813
1377.367147	-3.003800	3.444900	-10.347000	26.099422	0.000715	20.809454
1378.368756	-3.014900	3.444800	-10.385000	26.089744	0.000717	20.811110
1379.367970	-2.998800	3.444900	-10.330000	26.131295	0.000715	20.804970
1380.368788	-3.002100	3.445300	-10.342000	26.077426	0.000715	20.817698
1381.368689	-3.023700	3.444200	-10.413000	26.032293	0.000714	20.823561
1382.370106	-2.998000	3.442700	-10.320000	26.004572	0.000714	20.817046
1383.374216	-2.986200	3.443800	-10.284000	26.020476	0.000714	20.812636
1384.373982	-2.985100	3.443700	-10.279000	26.028818	0.000713	20.810112
1385.371994	-3.016900	3.441200	-10.380000	26.053205	0.000714	20.826553
1386.370571	-3.004100	3.441600	-10.338000	26.061951	0.000714	20.826806
1387.370668	-3.009300	3.441400	-10.355000	26.082543	0.000714	20.821892
1388.372898	-2.991800	3.440100	-10.291000	26.127373	0.000712	20.819995
1389.373479	-2.979800	3.441500	-10.254000	26.134476	0.000713	20.810537
1390.370185	-2.999100	3.441100	-10.319000	26.129579	0.000711	20.810358
1391.370699	-3.004000	3.440700	-10.335000	26.153847	0.000710	20.813406
1392.370723	-3.000300	3.440400	-10.321000	26.139691	0.000708	20.811984
1393.371011	-3.019100	3.439700	-10.383000	26.165619	0.000709	20.819071
1394.374111	-2.987100	3.439700	-10.274000	26.169040	0.000709	20.809706
1395.371784	-3.014800	3.438000	-10.364000	26.177337	0.000709	20.835587
1396.374904	-2.960000	3.439300	-10.178000	26.186848	0.000707	20.821436
1397.372406	-2.984300	3.438500	-10.261000	26.170608	0.000707	20.829300
1398.371867	-3.005600	3.436900	-10.329000	26.185959	0.000706	20.831448
1399.374937	-2.969500	3.438200	-10.209000	26.196162	0.000707	20.843124
1400.374799	-3.005700	3.436000	-10.326000	26.212739	0.000708	20.815686
1401.375721	-3.011500	3.437400	-10.351000	26.204901	0.000703	20.827724
1402.376700	-2.995400	3.434600	-10.287000	26.213315	0.000703	20.826696
1403.374128	-3.003600	3.435300	-10.317000	26.192927	0.000702	20.831813
1404.375749	-2.994800	3.434800	-10.285000	26.190985	0.000704	20.839818
1405.379653	-3.005200	3.434300	-10.320000	26.188050	0.000704	20.838766
1406.377620	-3.005300	3.434100	-10.320000	26.193590	0.000702	20.844806
1407.377851	-3.002700	3.432500	-10.306000	26.181990	0.000703	20.832676
1408.379138	-3.004000	3.433300	-10.312000	26.180072	0.000702	20.827430
1409.379004	-2.995900	3.434000	-10.286000	26.186457	0.000702	20.824363
1410.381976	-3.018900	3.431900	-10.360000	26.163208	0.000702	20.833717
1411.378776	-3.026700	3.431300	-10.384000	26.145988	0.000700	20.849130
1412.381518	-2.992600	3.431300	-10.266000	26.153446	0.000699	20.849986
1413.379604	-3.007200	3.430500	-10.315000	26.147679	0.000700	20.851778
1414.380094	-3.008900	3.430900	-10.322000	26.151002	0.000701	20.850375
1415.383863	-2.998200	3.429000	-10.278000	26.166096	0.000699	20.849895
1416.383098	-2.990500	3.430900	-10.260000	26.180154	0.000696	20.847900
1417.385640	-2.992800	3.429900	-10.264000	26.198998	0.000700	20.852137
1418.381014	-3.004800	3.429200	-10.303000	26.191075	0.000696	20.838960
1419.383016	-3.001400	3.427600	-10.286000	26.205574	0.000697	20.852106
1420.381910	-2.987100	3.429000	-10.242000	26.217493	0.000697	20.842273
1421.381027	-2.995600	3.429000	-10.271000	26.231176	0.000695	20.874988
1422.382216	-3.007900	3.426700	-10.307000	26.261221	0.000696	20.851602
1423.383695	-2.990600	3.427200	-10.248000	26.287937	0.000695	20.855691
1424.382425	-3.008800	3.427400	-10.311000	26.263672	0.000695	20.855014
1425.382792	-3.004000	3.426400	-10.292000	26.257416	0.000693	20.864847
1426.388051	-3.015100	3.424700	-10.325000	26.256014	0.000692	20.855378
1427.384234	-2.983700	3.427100	-10.224000	26.254102	0.000695	20.839233
1428.383008	-3.005000	3.424900	-10.291000	26.282461	0.000692	20.855877
1429.385118	-2.994200	3.425000	-10.255000	26.280170	0.000693	20.863532
1430.384490	-3.014200	3.423700	-10.318000	26.317369	0.000693	20.865354
1431.387292	-2.988200	3.425900	-10.236000	26.325837	0.000691	20.854899
1432.386548	-3.015900	3.423900	-10.325000	26.355781	0.000691	20.869819
1433.387134	-2.983400	3.423400	-10.212000	26.334716	0.000689	20.856236
1434.386150	-3.019400	3.422200	-10.331000	26.382552	0.000691	20.889137
1435.386111	-3.014500	3.421900	-10.313000	26.375033	0.000689	20.854082
1436.388344	-3.022700	3.421600	-10.341000	26.365151	0.000688	20.869753
1437.387168	-3.042000	3.420100	-10.403000	26.358147	0.000687	20.840905
1438.384109	-3.009200	3.419800	-10.290000	26.333211	0.000687	20.847611
1439.385848	-3.014600	3.419100	-10.307000	26.308254	0.000687	20.858091
1440.385314	-3.021200	3.418800	-10.328000	26.310166	0.000686	20.870443
1441.384570	-2.999900	3.419800	-10.258000	26.316968	0.000687	20.874908
1442.388049	-3.001200	3.418700	-10.259000	26.306913	0.000686	20.878079
1443.384468	-2.989700	3.419900	-10.223000	26.316496	0.000685	20.892924
1444.391622	-3.005100	3.419300	-10.274000	26.329725	0.000684	20.870186
1445.386813	-2.990600	3.419900	-10.226000	26.351281	0.000684	20.871460
1446.386243	-2.993700	3.419000	-10.235000	26.381125	0.000683	20.870161
1447.392948	-3.013000	3.418300	-10.298000	26.393244	0.000683	20.868117
1448.388407	-3.009700	3.418200	-10.287000	26.388325	0.000681	20.883086
1449.389379	-2.993800	3.416700	-10.228000	26.343855	0.000683	20.887703
1450.389844	-2.999900	3.416600	-10.249000	26.346361	0.000682	20.869835
1451.389596	-2.996800	3.415900	-10.236000	26.350258	0.000682	20.883708
1452.389087	-2.993500	3.416000	-10.225000	26.362132	0.000681	20.875253
1453.393064	-2.993900	3.416800	-10.229000	26.361183	0.000678	20.863394
1454.390116	-3.003200	3.414200	-10.252000	26.343323	0.000680	20.870575
1455.390591	-2.983700	3.414800	-10.188000	26.342355	0.000680	20.875765
1456.389983	-2.986500	3.415200	-10.198000	26.346110	0.000680	20.875272
1457.391758	-2.986700	3.414100	-10.195000	26.371630	0.000679	20.872471
1458.392654	-3.006600	3.412600	-10.260000	26.368627	0.000680	20.889367
1459.391386	-2.996900	3.412300	-10.225000	26.399145	0.000678	20.879262
1460.391646	-3.014500	3.411600	-10.283000	26.359137	0.000678	20.886467
1461.392924	-3.010400	3.411200	-10.268000	26.371256	0.000678	20.866880
1462.392426	-3.001500	3.410800	-10.237000	26.306075	0.000678	20.869651
1463.395070	-2.998600	3.411700	-10.229000	26.286033	0.000677	20.868950
1464.393322	-2.980700	3.411900	-10.168000	26.233900	0.000676	20.859708
1465.397311	-2.969200	3.411700	-10.129000	26.187561	0.000676	20.871463
1466.394039	-3.000200	3.411000	-10.231000	26.137065	0.000676	20.849173
1467.394337	-2.981900	3.411100	-10.171000	26.099172	0.000675	20.853772
1468.396061	-3.009600	3.409700	-10.261000	26.110566	0.000675	20.864271
1469.394249	-3.006800	3.409800	-10.252000	26.099810	0.000674	20.849672
1470.393914	-3.006600	3.408300	-10.245000	26.148685	0.000674	20.862745
1471.396342	-3.011800	3.406900	-10.260000	26.175355	0.000674	20.844500
1472.395559	-3.009600	3.407800	-10.255000	26.212332	0.000673	20.838509
1473.397891	-2.967400	3.408600	-10.114000	26.260606	0.000673	20.853830
1474.400864	-2.985400	3.408700	-10.173000	26.290006	0.000671	20.852555
1475.397983	-2.990800	3.408500	-10.194000	26.301404	0.000673	20.864957
1476.397073	-3.009700	3.405900	-10.250000	26.316403	0.000670	20.849686
1477.396382	-3.008300	3.406000	-10.245000	26.317519	0.000669	20.848910
1478.398639	-3.006600	3.407600	-10.244000	26.332041	0.000671	20.855444
1479.402325	-3.021100	3.406000	-10.289000	26.289603	0.000668	20.837926
1480.398255	-2.998400	3.406300	-10.212000	26.284118	0.000670	20.841423
1481.398064	-2.993000	3.404500	-10.189000	26.283169	0.000671	20.869391
1482.400378	-3.008500	3.404400	-10.242000	26.261932	0.000668	20.842360
1483.399396	-3.006300	3.404900	-10.235000	26.258482	0.000667	20.843634
1484.402581	-2.995200	3.403500	-10.192000	26.247856	0.000666	20.846233
1485.404719	-3.006100	3.403200	-10.228000	26.254811	0.000668	20.857962
1486.400023	-2.994500	3.402900	-10.189000	26.228909	0.000667	20.845210
1487.402012	-3.000500	3.402400	-10.209000	26.218327	0.000666	20.835999
1488.403378	-2.997600	3.402200	-10.197000	26.217486	0.000665	20.839422
1489.402046	-2.994300	3.401900	-10.185000	26.261362	0.000664	20.830882
1490.406221	-2.993600	3.401500	-10.182000	26.247758	0.000664	20.858461
1491.402251	-2.988800	3.401000	-10.164000	26.225636	0.000662	20.810154
1492.403153	-3.001300	3.401500	-10.208000	26.180756	0.000662	20.856565
1493.402811	-3.010500	3.400800	-10.237000	26.127287	0.000662	20.851675
1494.402215	-2.999700	3.399500	-10.195000	26.126441	0.000663	20.838498
1495.402643	-3.009400	3.398900	-10.228000	26.117622	0.000661	20.842439
1496.402412	-3.009300	3.398200	-10.225000	26.128948	0.000662	20.845758
1497.400811	-3.003000	3.398500	-10.205000	26.153584	0.000659	20.827840
1498.401104	-3.000400	3.397100	-10.192000	26.148938	0.000660	20.823647
1499.401422	-3.000900	3.396600	-10.192000	26.159276	0.000659	20.849680
1500.403357	-3.002400	3.397100	-10.198000	26.171858	0.000659	20.827711
1501.407547	-3.013500	3.395700	-10.231000	26.159069	0.000656	20.855162
1502.404253	-3.006600	3.395800	-10.209000	26.153480	0.000656	20.817305
1503.406460	-3.011600	3.396100	-10.226000	26.115675	0.000658	20.840008
1504.406144	-3.013000	3.395000	-10.227000	26.116815	0.000655	20.825033
1505.406593	-2.999500	3.394800	-10.181000	26.096941	0.000655	20.827349
1506.410335	-2.983800	3.395500	-10.130000	26.107898	0.000655	20.828402
1507.406540	-2.983500	3.395300	-10.128000	26.148199	0.000655	20.825749
1508.410150	-2.998300	3.395600	-10.180000	26.193258	0.000654	20.830249
1509.408186	-2.972200	3.393800	-10.086000	26.184730	0.000653	20.823101
1510.407935	-2.985100	3.393800	-10.131000	26.234028	0.000652	20.820958
1511.409480	-2.982900	3.393400	-10.121000	26.298319	0.000653	20.844314
1512.411690	-3.005500	3.393700	-10.199000	26.308055	0.000653	20.818064
1513.408664	-3.002800	3.391600	-10.183000	26.319624	0.000653	20.819733
1514.409322	-2.980700	3.393500	-10.114000	26.349224	0.000650	20.805385
1515.409169	-2.985100	3.391400	-10.122000	26.375895	0.000651	20.822232
1516.408098	-2.991300	3.391800	-10.145000	26.364346	0.000650	20.795927
1517.409131	-3.014100	3.390600	-10.219000	26.380962	0.000651	20.826376
1518.408034	-2.993100	3.391200	-10.150000	26.356056	0.000649	20.827897
1519.411082	-2.982600	3.391500	-10.115000	26.325836	0.000648	20.800372
1520.408696	-3.000200	3.389800	-10.169000	26.350094	0.000649	20.835656
1521.409926	-3.011100	3.390100	-10.207000	26.371104	0.000647	20.816943
1522.413719	-3.001900	3.388900	-10.173000	26.383694	0.000648	20.828174
1523.410301	-2.995900	3.390000	-10.155000	26.341932	0.000647	20.814177
1524.411200	-2.979500	3.388900	-10.096000	26.331719	0.000647	20.818612
1525.411070	-2.990300	3.388600	-10.131000	26.314440	0.000646	20.804091
1526.410772	-3.005800	3.387100	-10.180000	26.276302	0.000645	20.811757
1527.411541	-3.006000	3.386700	-10.178000	26.217047	0.000645	20.814325
1528.412724	-2.966700	3.388200	-10.051000	26.183319	0.000645	20.824529
1529.411601	-2.986000	3.387700	-10.116000	26.165590	0.000646	20.822361
1530.411998	-2.990700	3.386700	-10.128000	26.164622	0.000645	20.815699
1531.411267	-2.999300	3.386600	-10.156000	26.175549	0.000643	20.809134
1532.411621	-2.985100	3.384800	-10.103000	26.175598	0.000643	20.795908
1533.414854	-2.986200	3.385000	-10.108000	26.170928	0.000641	20.816819
1534.411791	-2.992200	3.385100	-10.129000	26.201997	0.000643	20.811530
1535.412456	-3.017700	3.383100	-10.207000	26.252288	0.000642	20.812755
1536.412117	-3.008000	3.383000	-10.175000	26.273196	0.000643	20.795834
1537.411534	-3.003500	3.383400	-10.160000	26.331075	0.000642	20.807060
1538.413113	-3.001500	3.383200	-10.154000	26.320647	0.000641	20.802743
1539.413124	-3.023100	3.381700	-10.222000	26.331596	0.000640	20.807583
1540.411782	-3.035200	3.380100	-10.258000	26.368597	0.000640	20.791191
1541.412595	-3.003600	3.382300	-10.157000	26.381679	0.000640	20.799597
1542.411984	-2.987200	3.381800	-10.100000	26.399882	0.000639	20.795606
1543.417505	-2.985900	3.381200	-10.095000	26.396255	0.000637	20.795280
1544.411042	-2.982000	3.380900	-10.081000	26.396874	0.000636	20.787841
1545.411699	-2.979500	3.380700	-10.071000	26.405581	0.000637	20.811291
1546.412067	-2.987500	3.379200	-10.095000	26.389737	0.000636	20.817179
1547.412632	-2.994000	3.379600	-10.117000	26.362723	0.000634	20.805202
1548.413480	-2.975800	3.378700	-10.053000	26.343429	0.000634	20.798139
1549.414837	-3.009200	3.378000	-10.164000	26.347002	0.000635	20.790349
1550.413739	-3.000900	3.377500	-10.135000	26.362020	0.000635	20.790270
1551.414299	-2.978200	3.378700	-10.062000	26.356388	0.000632	20.808792
1552.413478	-2.990700	3.378400	-10.102000	26.384316	0.000632	20.810782
1553.414732	-2.986000	3.379100	-10.088000	26.408750	0.000633	20.813054
1554.417186	-3.004000	3.377900	-10.146000	26.415472	0.000631	20.819810
1555.415092	-2.981600	3.377200	-10.069000	26.433895	0.000631	20.809877
1556.416852	-3.003400	3.375500	-10.137000	26.456814	0.000629	20.783602
1557.415166	-2.989300	3.375300	-10.088000	26.459044	0.000630	20.786318
1558.416409	-3.010900	3.373900	-10.156000	26.475280	0.000629	20.788886
1559.419778	-2.993100	3.375400	-10.102000	26.492262	0.000629	20.801688
1560.418988	-3.014600	3.374300	-10.170000	26.461128	0.000628	20.796947
1561.414671	-3.010700	3.373700	-10.156000	26.446155	0.000628	20.788061
1562.415949	-3.003900	3.373100	-10.130000	26.413604	0.000628	20.796596
1563.415695	-3.015500	3.374500	-10.175000	26.364068	0.000626	20.789009
1564.416838	-2.987200	3.372800	-10.074000	26.310136	0.000627	20.776533
1565.418928	-3.002100	3.373200	-10.126000	26.283360	0.000627	20.792772
1566.419600	-2.980500	3.373100	-10.053000	26.243457	0.000628	20.788234
1567.421983	-3.003900	3.372800	-10.131000	26.290866	0.000627	20.785616
1568.420014	-3.005700	3.371900	-10.133000	26.314849	0.000624	20.792649
1569.421400	-3.017100	3.372000	-10.173000	26.328624	0.000624	20.811708
1570.425386	-3.000900	3.371100	-10.115000	26.370864	0.000624	20.801529
1571.421975	-3.006800	3.371200	-10.135000	26.361674	0.000622	20.786603
1572.422075	-3.020500	3.370600	-10.180000	26.389042	0.000623	20.784238
1573.422685	-3.033500	3.370000	-10.222000	26.411736	0.000623	20.808469
1574.422282	-3.013900	3.370100	-10.156000	26.437726	0.000620	20.792392
1575.422312	-3.004800	3.370300	-10.126000	26.436856	0.000620	20.793888
1576.426196	-2.996900	3.369500	-10.097000	26.403288	0.000622	20.798556
1577.422844	-2.992400	3.368500	-10.078000	26.406462	0.000620	20.795582
1578.422778	-3.004600	3.369000	-10.121000	26.392579	0.000620	20.788741
1579.423519	-3.027800	3.367700	-10.194000	26.419170	0.000619	20.781327
1580.424317	-3.016100	3.365900	-10.151000	26.414354	0.000619	20.789763
1581.424092	-2.997800	3.367900	-10.095000	26.452634	0.000619	20.793151
1582.422031	-3.016000	3.368000	-10.156000	26.453185	0.000619	20.775686
1583.423882	-2.999400	3.365800	-10.094000	26.413503	0.000619	20.778951
1584.423553	-2.995500	3.366800	-10.084000	26.411592	0.000618	20.786513
1585.423882	-3.013700	3.366100	-10.143000	26.432191	0.000616	20.783035
1586.424243	-2.975500	3.366700	-10.016000	26.449455	0.000616	20.791378
1587.423810	-3.015600	3.364500	-10.145000	26.449596	0.000614	20.784882
1588.424268	-3.004400	3.364400	-10.107000	26.440481	0.000616	20.769555
1589.425415	-2.987600	3.364600	-10.051000	26.432038	0.000614	20.783355
1590.424768	-2.974400	3.364600	-10.007000	26.405620	0.000613	20.796158
1591.428175	-3.012600	3.363200	-10.131000	26.406337	0.000614	20.784076
1592.424954	-3.010800	3.363900	-10.128000	26.406774	0.000612	20.767445
1593.426579	-2.999500	3.363200	-10.087000	26.411191	0.000612	20.799387
1594.427422	-2.987700	3.363300	-10.048000	26.429516	0.000614	20.780820
1595.426816	-3.007800	3.362800	-10.114000	26.436342	0.000612	20.781043
1596.430894	-3.013600	3.362800	-10.133000	26.472641	0.000612	20.773905
1597.431371	-3.017000	3.362300	-10.144000	26.509455	0.000610	20.811383
1598.428866	-2.979200	3.362600	-10.017000	26.523612	0.000609	20.763498
1599.428530	-3.011800	3.361600	-10.122000	26.481402	0.000610	20.770384
1600.432752	-3.004700	3.361800	-10.100000	26.461756	0.000607	20.780034
1601.428752	-3.008600	3.361200	-10.111000	26.440945	0.000606	20.775238
1602.431746	-2.993600	3.361400	-10.062000	26.396643	0.000606	20.799938
1603.428284	-3.022300	3.359900	-10.154000	26.401361	0.000607	20.774808
1604.430212	-3.004500	3.359600	-10.093000	26.387110	0.000606	20.786563
1605.430258	-2.993600	3.360100	-10.056000	26.374470	0.000605	20.786662
1606.430178	-3.004400	3.358100	-10.088000	26.370415	0.000605	20.785431
1607.433640	-3.006300	3.357300	-10.093000	26.369801	0.000604	20.753519
1608.431944	-3.019300	3.357200	-10.134000	26.356660	0.000603	20.776822
1609.431294	-3.007200	3.357600	-10.096000	26.353328	0.000604	20.774421
1610.431962	-3.007800	3.355500	-10.090000	26.355864	0.000602	20.756581
1611.432802	-2.971700	3.357400	-9.975600	26.354497	0.000603	20.764691
1612.431810	-2.995700	3.357000	-10.056000	26.386450	0.000601	20.786848
1613.436037	-2.998800	3.355100	-10.060000	26.429056	0.000603	20.777513
1614.438564	-3.020200	3.354000	-10.128000	26.456924	0.000600	20.775652
1615.434343	-3.037500	3.354600	-10.189000	26.452875	0.000599	20.758779
1616.433781	-2.994200	3.356100	-10.048000	26.493812	0.000600	20.771004
1617.434300	-2.969900	3.354800	-9.962100	26.485935	0.000597	20.773991
1618.437235	-2.974100	3.355000	-9.976700	26.498775	0.000596	20.772199
1619.434744	-2.992400	3.354400	-10.037000	26.459867	0.000598	20.766755
1620.438483	-2.967400	3.355600	-9.955800	26.437769	0.000594	20.769674
1621.434180	-2.960100	3.354800	-9.929100	26.440973	0.000595	20.770524
1622.435039	-3.005200	3.351900	-10.072000	26.458727	0.000594	20.759920
1623.437418	-2.984000	3.352200	-10.001000	26.465430	0.000594	20.769976
1624.434811	-2.990500	3.351000	-10.020000	26.455130	0.000594	20.752985
1625.434771	-3.003700	3.350600	-10.063000	26.478215	0.000594	20.770499
1626.436075	-2.989900	3.352100	-10.021000	26.462953	0.000593	20.755159
1627.436004	-2.975700	3.351000	-9.969800	26.420270	0.000591	20.744025
1628.435342	-2.996700	3.350500	-10.038000	26.384961	0.000591	20.756902
1629.435557	-2.994100	3.349600	-10.027000	26.376887	0.000592	20.756847
1630.435295	-2.997600	3.350700	-10.043000	26.352458	0.000591	20.772125
1631.440159	-2.982200	3.350300	-9.990200	26.316999	0.000591	20.764938
1632.435598	-2.989300	3.348200	-10.008000	26.300835	0.000589	20.752961
1633.436860	-2.987500	3.348600	-10.003000	26.317073	0.000590	20.735139
1634.442969	-3.029700	3.346400	-10.138000	26.324082	0.000589	20.760202
1635.437807	-3.017800	3.348500	-10.103000	26.344344	0.000588	20.740736
1636.437958	-2.999100	3.349800	-10.045000	26.373570	0.000587	20.741186
1637.437942	-2.980100	3.347500	-9.975200	26.390382	0.000588	20.747177
1638.438266	-3.012500	3.346700	-10.081000	26.404609	0.000589	20.747725
1639.438137	-2.998700	3.345700	-10.032000	26.441681	0.000585	20.757960
1640.440982	-3.024400	3.345100	-10.116000	26.477209	0.000587	20.758108
1641.438524	-3.017600	3.344900	-10.093000	26.484604	0.000587	20.741358
1642.438816	-2.995700	3.346700	-10.025000	26.495135	0.000585	20.748624
1643.439643	-3.023700	3.345200	-10.114000	26.513974	0.000586	20.754759
1644.440070	-3.034500	3.343700	-10.146000	26.480506	0.000587	20.763792
1645.442075	-3.028900	3.343100	-10.125000	26.516602	0.000584	20.749814
1646.439682	-3.000600	3.345000	-10.036000	26.518538	0.000584	20.754605
1647.441462	-2.996500	3.344800	-10.022000	26.562505	0.000584	20.739056
1648.440574	-3.003900	3.344000	-10.045000	26.578763	0.000584	20.751607
1649.440484	-2.995300	3.342100	-10.010000	26.595847	0.000581	20.755504
1650.441979	-3.012800	3.342800	-10.070000	26.539656	0.000582	20.731261
1651.439316	-2.991200	3.343000	-9.998500	26.512346	0.000581	20.758813
1652.439510	-3.019500	3.342400	-10.091000	26.530296	0.000581	20.738922
1653.439032	-3.017100	3.340600	-10.076000	26.563138	0.000582	20.754392
1654.439143	-3.015500	3.339200	-10.068000	26.602214	0.000578	20.751473
1655.439389	-3.002500	3.342000	-10.033000	26.638404	0.000580	20.743283
1656.443071	-2.999300	3.340000	-10.017000	26.683633	0.000578	20.737544
1657.439352	-3.009200	3.340000	-10.050000	26.702352	0.000578	20.752569
1658.444659	-3.028800	3.338600	-10.111000	26.681845	0.000579	20.749497
1659.440079	-2.986600	3.340000	-9.974000	26.621296	0.000576	20.745999
1660.440826	-3.011400	3.338900	-10.054000	26.599997	0.000574	20.746874
1661.441780	-3.020300	3.336900	-10.077000	26.548504	0.000575	20.751536
1662.441071	-3.006300	3.337000	-10.031000	26.568689	0.000573	20.736264
1663.440590	-2.997800	3.337100	-10.003000	26.538549	0.000573	20.732520
1664.440772	-2.976100	3.338400	-9.934900	26.528423	0.000572	20.739410
1665.441881	-3.016000	3.336700	-10.062000	26.556769	0.000573	20.748938
1666.441757	-2.999800	3.337100	-10.009000	26.531370	0.000573	20.733364
1667.443023	-2.986200	3.336600	-9.963100	26.518634	0.000573	20.753279
1668.442598	-2.996700	3.336500	-9.997300	26.494424	0.000569	20.735581
1669.443018	-3.012200	3.336300	-10.048000	26.455796	0.000570	20.727101
1670.442664	-3.005600	3.334500	-10.021000	26.440946	0.000572	20.735883
1671.441623	-3.002300	3.336600	-10.016000	26.423565	0.000570	20.736905
1672.445584	-3.014600	3.334100	-10.050000	26.414602	0.000568	20.730741
1673.443914	-3.010300	3.336000	-10.041000	26.462641	0.000569	20.750577
1674.445058	-3.010000	3.333100	-10.032000	26.417279	0.000567	20.753348
1675.443188	-2.994000	3.335000	-9.983000	26.412218	0.000568	20.750158
1676.443371	-3.012100	3.332000	-10.035000	26.359503	0.000568	20.751703
1677.444325	-3.005000	3.332700	-10.013000	26.382001	0.000567	20.745391
1678.444619	-2.969300	3.332500	-9.894400	26.407427	0.000568	20.747713
1679.443748	-2.993900	3.331300	-9.971900	26.460116	0.000565	20.726701
1680.443326	-2.986800	3.331800	-9.951200	26.485982	0.000565	20.734682
1681.443289	-2.992600	3.332300	-9.971300	26.539807	0.000566	20.729990
1682.460919	-3.005300	3.330100	-10.007000	26.522054	0.000565	20.741543
1683.448630	-2.990100	3.331800	-9.961600	26.549314	0.000565	20.733857
1684.444202	-2.969200	3.332800	-9.894100	26.517686	0.000563	20.741894
1685.449388	-2.997200	3.328700	-9.976400	26.530471	0.000564	20.740521
1686.444683	-3.007800	3.328900	-10.011000	26.518727	0.000564	20.731086
1687.444513	-2.994900	3.329800	-9.971200	26.553982	0.000562	20.734282
1688.448379	-3.016100	3.327400	-10.034000	26.565450	0.000562	20.733956
1689.444307	-3.003800	3.327400	-9.993600	26.568305	0.000563	20.720230
1690.445302	-3.013700	3.327400	-10.027000	26.560483	0.000562	20.739394
1691.444314	-3.004000	3.327000	-9.993900	26.568600	0.000559	20.743761
1692.447078	-2.985100	3.327400	-9.930300	26.610255	0.000560	20.731106
1693.447387	-3.010600	3.326700	-10.014000	26.586750	0.000559	20.720279
1694.451932	-2.994700	3.326100	-9.959800	26.581463	0.000559	20.735828
1695.446395	-3.012400	3.325500	-10.016000	26.601721	0.000558	20.759986
1696.446276	-3.017700	3.325400	-10.034000	26.591737	0.000555	20.733353
1697.446077	-3.012200	3.324900	-10.015000	26.595736	0.000557	20.750177
1698.446727	-3.040100	3.323400	-10.102000	26.632576	0.000555	20.739794
1699.450324	-2.991700	3.325500	-9.946700	26.638614	0.000556	20.722156
1700.447586	-3.015700	3.324600	-10.024000	26.636384	0.000557	20.740304
1701.454928	-3.005900	3.323300	-9.988900	26.602994	0.000554	20.738980
1702.448030	-2.979700	3.323600	-9.902500	26.577867	0.000554	20.739326
1703.447137	-3.033700	3.322500	-10.078000	26.541950	0.000553	20.747792
1704.448444	-2.987100	3.323800	-9.927700	26.533631	0.000553	20.756974
1705.448523	-2.996300	3.321800	-9.952000	26.512006	0.000553	20.751358
1706.449236	-2.969600	3.323300	-9.867100	26.516625	0.000553	20.733715
1707.450059	-3.011400	3.321900	-10.003000	26.531818	0.000551	20.738555
1708.450329	-2.989100	3.323100	-9.932200	26.546342	0.000550	20.731344
1709.448937	-3.014200	3.321500	-10.011000	26.557712	0.000549	20.726651
1710.450797	-3.010200	3.320300	-9.993200	26.558901	0.000548	20.739227
1711.449115	-2.981200	3.321300	-9.899000	26.561707	0.000548	20.729719
1712.454328	-2.993100	3.321300	-9.939600	26.589585	0.000547	20.730716
1713.451714	-3.002800	3.318700	-9.963700	26.602640	0.000548	20.737676
1714.452026	-2.990700	3.321200	-9.931800	26.620637	0.000548	20.732534
1715.454259	-3.008500	3.318200	-9.981600	26.615694	0.000547	20.738945
1716.451705	-2.969600	3.321200	-9.861500	26.611498	0.000547	20.727140
1717.454423	-2.997500	3.317700	-9.943800	26.665336	0.000545	20.733847
1718.451675	-2.995400	3.317400	-9.936400	26.690711	0.000545	20.716209
1719.454244	-2.990700	3.317700	-9.921800	26.678517	0.000545	20.732400
1720.454519	-3.002900	3.317000	-9.959700	26.690480	0.000541	20.734469
1721.452087	-2.980900	3.317700	-9.888800	26.712769	0.000544	20.749766
1722.452200	-3.000100	3.316300	-9.948400	26.753770	0.000542	20.749262
1723.452548	-3.001100	3.315400	-9.949000	26.777724	0.000543	20.736835
1724.452593	-3.015600	3.314900	-9.995100	26.780676	0.000541	20.738381
1725.456971	-3.002100	3.316600	-9.955400	26.797894	0.000541	20.732458
1726.452746	-2.980100	3.316100	-9.881000	26.816212	0.000541	20.752299
1727.456748	-2.996500	3.313900	-9.929400	26.785406	0.000540	20.743136
1728.454298	-3.007200	3.313700	-9.963800	26.757783	0.000539	20.754245
1729.453397	-3.004300	3.314400	-9.956400	26.730773	0.000538	20.757436
1730.458188	-3.012700	3.313100	-9.980600	26.729408	0.000538	20.748950
1731.454511	-3.008100	3.312400	-9.961700	26.677297	0.000536	20.748243
1732.454312	-2.988300	3.311800	-9.895200	26.696138	0.000536	20.762918
1733.454620	-3.007400	3.311300	-9.957100	26.708975	0.000537	20.751167
1734.456556	-2.955000	3.313700	-9.790600	26.674786	0.000536	20.738132
1735.459292	-2.966000	3.312200	-9.823300	26.586934	0.000537	20.735638
1736.455872	-2.994300	3.312200	-9.916100	26.584698	0.000536	20.752831
1737.456230	-2.998500	3.310400	-9.925300	26.579461	0.000536	20.759895
1738.455732	-3.001500	3.310600	-9.934700	26.592221	0.000536	20.735736
1739.457246	-2.995100	3.311100	-9.915100	26.620914	0.000534	20.760788
1740.458890	-3.011000	3.308200	-9.960100	26.632106	0.000536	20.744538
1741.457600	-3.005100	3.308400	-9.941400	26.682253	0.000532	20.748485
1742.457101	-3.014300	3.307200	-9.966200	26.680563	0.000532	20.743940
1743.458318	-2.988500	3.309400	-9.889200	26.737036	0.000531	20.745714
1744.457658	-3.010100	3.306800	-9.953000	26.754952	0.000529	20.753295
1745.458055	-3.005900	3.307400	-9.940500	26.763416	0.000531	20.763228
1746.460471	-2.985500	3.307900	-9.874900	26.768869	0.000532	20.746424
1747.458485	-2.983500	3.307900	-9.867300	26.796374	0.000531	20.768863
1748.459980	-3.005300	3.306500	-9.936800	26.794758	0.000530	20.770557
1749.457649	-3.012600	3.306100	-9.959800	26.775171	0.000527	20.762719
1750.458642	-2.997400	3.305500	-9.906600	26.813646	0.000528	20.768685
1751.467268	-2.995900	3.305700	-9.902700	26.816151	0.000526	20.772627
1752.460255	-3.024800	3.304300	-9.994100	26.840899	0.000526	20.767638
1753.461316	-2.983100	3.307000	-9.863700	26.812967	0.000525	20.751881
1754.461436	-3.015200	3.304500	-9.962200	26.806512	0.000523	20.777634
1755.463900	-3.002100	3.304300	-9.917700	26.823764	0.000525	20.776963
1756.462155	-2.995100	3.303700	-9.894500	26.829939	0.000525	20.764205
1757.466066	-3.012900	3.302900	-9.949300	26.845629	0.000521	20.761014
1758.463421	-3.026100	3.302100	-9.990700	26.748260	0.000521	20.758421
1759.465422	-2.993900	3.302700	-9.887000	26.721942	0.000522	20.766575
1760.465349	-3.006100	3.300300	-9.919200	26.647276	0.000522	20.773066
1761.465925	-2.976700	3.301300	-9.825500	26.604104	0.000522	20.760959
1762.470372	-2.997100	3.301600	-9.893800	26.560807	0.000523	20.759636
1763.465690	-3.013300	3.300800	-9.945100	26.545236	0.000516	20.757260
1764.468616	-2.995900	3.300900	-9.888200	26.551270	0.000519	20.778972
1765.467403	-3.008100	3.299800	-9.923600	26.538258	0.000517	20.776325
1766.466862	-3.014400	3.300300	-9.946800	26.538185	0.000517	20.771983
1767.468040	-3.014800	3.298700	-9.944300	26.578652	0.000517	20.769040
1768.468218	-3.003700	3.299800	-9.910000	26.596650	0.000517	20.762001
1769.469860	-3.008900	3.298700	-9.923300	26.669286	0.000518	20.765320
1770.469440	-2.984700	3.299800	-9.848100	26.716744	0.000514	20.766565
1771.475687	-2.997100	3.297400	-9.881200	26.746928	0.000514	20.767513
1772.468545	-2.966700	3.297600	-9.782100	26.763680	0.000512	20.771553
1773.468251	-3.006700	3.297000	-9.912000	26.758718	0.000512	20.743331
1774.468823	-2.988300	3.297400	-9.852300	26.725700	0.000514	20.769879
1775.470700	-2.996100	3.297300	-9.877800	26.703072	0.000512	20.763725
1776.470452	-2.973900	3.298200	-9.807700	26.654640	0.000511	20.771934
1777.471772	-2.995400	3.295500	-9.870500	26.605489	0.000512	20.768042
1778.475434	-3.007700	3.294800	-9.908100	26.609164	0.000510	20.777427
1779.475819	-2.992200	3.296100	-9.860600	26.595780	0.000509	20.772507
1780.471509	-2.993000	3.296300	-9.864900	26.577812	0.000508	20.769618
1781.472678	-2.996000	3.295400	-9.872200	26.563258	0.000506	20.787705
1782.473315	-2.992100	3.295100	-9.857300	26.553609	0.000507	20.777530
1783.475798	-3.012200	3.293500	-9.920200	26.583448	0.000509	20.781447
1784.478027	-2.990900	3.295000	-9.854200	26.616043	0.000505	20.780074
1785.475119	-2.970000	3.295000	-9.785000	26.647797	0.000508	20.752252
1786.475137	-3.005100	3.292100	-9.891900	26.679348	0.000508	20.785394
1787.475743	-3.008000	3.291700	-9.900500	26.718646	0.000503	20.783650
1788.475978	-3.010400	3.291800	-9.908900	26.707695	0.000505	20.763157
1789.479663	-3.002400	3.291300	-9.880800	26.681486	0.000504	20.783275
1790.476443	-2.992100	3.291500	-9.847900	26.664359	0.000503	20.778860
1791.480697	-2.981500	3.290400	-9.809300	26.710953	0.000503	20.792037
1792.477132	-2.993300	3.290400	-9.847600	26.709912	0.000501	20.765385
1793.482111	-3.003300	3.290600	-9.881900	26.738779	0.000503	20.788244
1794.478338	-3.008700	3.289700	-9.896900	26.762659	0.000500	20.795184
1795.477517	-3.009400	3.289400	-9.898400	26.795818	0.000502	20.761666
1796.479203	-3.010800	3.287600	-9.897500	26.847196	0.000499	20.791988
1797.478878	-2.990600	3.289500	-9.835600	26.839179	0.000500	20.787720
1798.479544	-2.986800	3.288900	-9.822400	26.857851	0.000500	20.790847
1799.484110	-2.996200	3.287400	-9.848800	26.896090	0.000498	20.794211
1800.480050	-3.010700	3.287500	-9.896000	26.891626	0.000497	20.792092
1801.483917	-2.986500	3.287900	-9.818100	26.913666	0.000496	20.807615
1802.481715	-2.994900	3.286700	-9.842800	26.912845	0.000499	20.789247
1803.480906	-3.005400	3.285000	-9.872300	26.902049	0.000496	20.778391
1804.480204	-3.009700	3.287400	-9.891800	26.924805	0.000498	20.795584
1805.482213	-3.012900	3.286100	-9.899800	26.929196	0.000495	20.811379
1806.484180	-3.016900	3.285000	-9.909900	26.965032	0.000494	20.778188
1807.480662	-3.005800	3.285600	-9.874900	27.020969	0.000491	20.803620
1808.480829	-2.994800	3.284800	-9.836500	26.983097	0.000492	20.790190
1809.486064	-2.994300	3.285300	-9.835900	26.984836	0.000494	20.791464
1810.486369	-2.983200	3.284000	-9.795600	26.939742	0.000492	20.802543
1811.483300	-2.983100	3.284300	-9.796600	26.934923	0.000492	20.802913
1812.484063	-3.002400	3.284200	-9.860000	26.963809	0.000492	20.782173
1813.483918	-3.021400	3.281800	-9.914700	26.965278	0.000491	20.810677
1814.484924	-2.994600	3.282500	-9.829200	26.991854	0.000490	20.787142
1815.488712	-2.995400	3.282500	-9.830400	27.002197	0.000489	20.789009
1816.484639	-2.991700	3.281200	-9.815600	26.977635	0.000488	20.796077
1817.485245	-2.998100	3.280500	-9.834900	26.947777	0.000487	20.798295
1818.485735	-3.023300	3.279500	-9.914000	26.911297	0.000490	20.789113
1819.485492	-3.001800	3.280200	-9.845700	26.914102	0.000486	20.789088
1820.488801	-2.977700	3.279700	-9.764400	26.932369	0.000487	20.795129
1821.485645	-3.011400	3.279400	-9.874400	26.970135	0.000486	20.797070
1822.487834	-3.015600	3.279100	-9.887800	26.991756	0.000486	20.806484
1823.485744	-2.996100	3.279900	-9.825600	26.979271	0.000483	20.787290
1824.485805	-2.987700	3.279300	-9.796500	26.984383	0.000487	20.804286
1825.490324	-2.987300	3.277700	-9.791000	26.967851	0.000482	20.817058
1826.486918	-3.009900	3.277700	-9.864000	26.943528	0.000481	20.800660
1827.485390	-3.009200	3.277600	-9.862100	26.910668	0.000481	20.791325
1828.485425	-2.998600	3.277600	-9.827600	26.893447	0.000479	20.800087
1829.496480	-3.010700	3.276400	-9.863700	26.905702	0.000481	20.806720
1830.485425	-3.007400	3.276200	-9.852400	26.927643	0.000480	20.807446
1831.488199	-3.006100	3.275200	-9.845100	26.932329	0.000482	20.811210
1832.486275	-2.981200	3.277100	-9.768800	26.950277	0.000481	20.820722
1833.491706	-2.990800	3.276100	-9.796900	26.957821	0.000479	20.801757
1834.487057	-2.999500	3.274800	-9.821800	26.960124	0.000480	20.809763
1835.486335	-2.992200	3.275200	-9.799500	26.941632	0.000478	20.808236
1836.492878	-3.002500	3.273600	-9.827700	26.938950	0.000479	20.806013
1837.486967	-2.975000	3.274500	-9.739500	26.960812	0.000477	20.797177
1838.487404	-3.009600	3.274700	-9.854500	26.969770	0.000477	20.811402
1839.487835	-2.999500	3.274200	-9.819700	26.980443	0.000474	20.825928
1840.487704	-3.020000	3.272500	-9.881900	27.026223	0.000477	20.819334
1841.488795	-3.009900	3.270000	-9.841400	27.030392	0.000475	20.805984
1842.491020	-2.993400	3.272100	-9.793400	27.017063	0.000475	20.824821
1843.489931	-3.024300	3.270800	-9.890800	27.011503	0.000472	20.805954
1844.489033	-2.993200	3.271500	-9.791400	27.017480	0.000472	20.821921
1845.490232	-2.988400	3.271400	-9.775400	27.034129	0.000472	20.802629
1846.489338	-3.009700	3.270000	-9.840700	27.062320	0.000471	20.821971
1847.493464	-3.021300	3.270800	-9.881400	27.100651	0.000471	20.815475
1848.489403	-2.988900	3.269600	-9.771100	27.087425	0.000469	20.829675
1849.488501	-3.020000	3.268100	-9.867700	27.082735	0.000470	20.801725
1850.490294	-3.013200	3.268700	-9.848400	27.094492	0.000469	20.809756
1851.490555	-3.014000	3.268800	-9.851100	27.061018	0.000470	20.819239
1852.492198	-2.983300	3.267900	-9.747800	27.050021	0.000468	20.826198
1853.491436	-2.998300	3.268400	-9.799300	26.995947	0.000468	20.837725
1854.490535	-3.008300	3.267700	-9.828400	26.951099	0.000467	20.827239
1855.491524	-2.995400	3.268000	-9.787800	26.914841	0.000466	20.817806
1856.491955	-3.007600	3.265800	-9.821300	26.921952	0.000467	20.811207
1857.492742	-2.996200	3.266300	-9.785200	26.938633	0.000464	20.809962
1858.495111	-2.992000	3.266300	-9.770400	26.991266	0.000466	20.826854
1859.494735	-2.993400	3.266000	-9.775500	26.995013	0.000464	20.835363
1860.494976	-2.993000	3.264500	-9.769400	27.035655	0.000464	20.811276
1861.494067	-2.994100	3.266700	-9.779300	27.046445	0.000461	20.835876
1862.495296	-2.997300	3.264500	-9.783300	27.065603	0.000461	20.838549
1863.498064	-3.007200	3.263400	-9.812400	27.078701	0.000461	20.827065
1864.495711	-3.005300	3.264700	-9.810500	27.080165	0.000463	20.828063
1865.496419	-2.976100	3.263200	-9.710500	27.044529	0.000461	20.833476
1866.496286	-3.003100	3.262100	-9.794600	26.975140	0.000460	20.828181
1867.495049	-2.999800	3.263500	-9.789100	26.928155	0.000460	20.823607
1868.499960	-2.982700	3.262600	-9.730400	26.904878	0.000458	20.847141
1869.495030	-2.988500	3.263000	-9.750900	26.914254	0.000459	20.842820
1870.497823	-2.984000	3.261500	-9.731300	26.946490	0.000456	20.825449
1871.496162	-2.989400	3.261900	-9.750500	26.976078	0.000456	20.832443
1872.497145	-2.990200	3.261700	-9.752000	26.975921	0.000456	20.835604
1873.507902	-2.999500	3.259200	-9.775600	26.980233	0.000454	20.829983
1874.497644	-3.003700	3.259700	-9.790500	26.999387	0.000453	20.868684
1875.497064	-3.001500	3.259700	-9.783600	26.994343	0.000453	20.831370
1876.498530	-2.997100	3.258400	-9.764000	27.011641	0.000452	20.859196
1877.498475	-3.020800	3.258200	-9.841200	27.011012	0.000452	20.850978
1878.498654	-3.010700	3.258300	-9.808300	27.030638	0.000451	20.837524
1879.500222	-3.012100	3.257300	-9.810400	27.002049	0.000450	20.830585
1880.498369	-3.028000	3.255900	-9.857400	27.017107	0.000449	20.857106
1881.502667	-3.013800	3.257200	-9.815700	27.036811	0.000449	20.856059
1882.500464	-2.974300	3.257500	-9.687900	27.063582	0.000451	20.857378
1883.500273	-2.967100	3.256800	-9.662300	27.041049	0.000450	20.849416
1884.501297	-2.976200	3.256600	-9.691600	27.059187	0.000447	20.838259
1885.499884	-2.978800	3.256800	-9.700400	27.074519	0.000446	20.861264
1886.506039	-2.989200	3.257100	-9.734700	27.079504	0.000448	20.845890
1887.499322	-2.997200	3.255400	-9.755500	27.100935	0.000444	20.845158
1888.500368	-2.993000	3.254300	-9.739000	27.123216	0.000444	20.863773
1889.503830	-2.997600	3.254500	-9.754400	27.141327	0.000444	20.859703
1890.504834	-3.001100	3.252700	-9.759400	27.132169	0.000443	20.860923
1891.500831	-2.997000	3.252700	-9.747500	27.108694	0.000444	20.850117
1892.501879	-3.002900	3.251200	-9.761800	27.082587	0.000442	20.863689
1893.501625	-3.001300	3.252500	-9.760600	27.051573	0.000442	20.873275
1894.502805	-2.993100	3.252100	-9.732500	27.036206	0.000442	20.863037
1895.508416	-2.983600	3.251800	-9.699700	27.027714	0.000441	20.845015
1896.503669	-2.987100	3.252200	-9.714300	27.017587	0.000440	20.863278
1897.508114	-2.993100	3.251900	-9.732300	26.979719	0.000440	20.865975
1898.504500	-2.980000	3.249800	-9.683300	26.937248	0.000439	20.878742
1899.504560	-2.992600	3.251400	-9.729400	26.926629	0.000438	20.852418
1900.504218	-2.976000	3.250200	-9.671900	26.934915	0.000437	20.877818
1901.503469	-2.990200	3.249500	-9.715800	26.986079	0.000438	20.883275
1902.508451	-3.006800	3.248200	-9.765600	27.005607	0.000437	20.870197
1903.504515	-3.011100	3.247500	-9.777500	27.013839	0.000435	20.867095
1904.505135	-3.006300	3.248200	-9.763600	27.035778	0.000436	20.882045
1905.506447	-2.987600	3.248500	-9.704300	27.048503	0.000434	20.866868
1906.507094	-3.000800	3.248400	-9.747100	27.076639	0.000433	20.879990
1907.505439	-3.007300	3.247500	-9.764900	27.110883	0.000431	20.864646
1908.506000	-3.011800	3.246900	-9.777000	27.116708	0.000431	20.882356
1909.506239	-3.006400	3.245100	-9.754500	27.131421	0.000431	20.897152
1910.505503	-3.010100	3.245900	-9.768900	27.195530	0.000429	20.868700
1911.510025	-2.999100	3.245100	-9.731300	27.234308	0.000429	20.878306
1912.507126	-3.002200	3.245800	-9.743100	27.274724	0.000428	20.864433
1913.509505	-3.005900	3.245400	-9.754600	27.257946	0.000429	20.895917
1914.507510	-3.003200	3.244100	-9.740400	27.274572	0.000432	20.874236
1915.506989	-2.981900	3.244100	-9.672100	27.293422	0.000427	20.891300
1916.510989	-3.012500	3.241400	-9.763400	27.327409	0.000428	20.872858
1917.510428	-3.000900	3.242300	-9.728500	27.309095	0.000427	20.894737
1918.508834	-2.999100	3.242700	-9.724200	27.290088	0.000425	20.885101
1919.509085	-3.021000	3.240400	-9.787300	27.299491	0.000427	20.891714
1920.508964	-2.998300	3.241300	-9.717600	27.345188	0.000425	20.907809
1921.507386	-2.990400	3.242100	-9.692900	27.361631	0.000423	20.885946
1922.516686	-3.006700	3.241300	-9.745300	27.362647	0.000421	20.896924
1923.509304	-2.994000	3.240800	-9.701700	27.338579	0.000422	20.890257
1924.514372	-2.981900	3.241100	-9.663100	27.317908	0.000420	20.894593
1925.509144	-2.989400	3.242200	-9.691000	27.334209	0.000420	20.892025
1926.509105	-2.999800	3.240100	-9.719000	27.376055	0.000419	20.881017
1927.513149	-3.034700	3.238000	-9.825300	27.392473	0.000419	20.897532
1928.509700	-2.993400	3.238000	-9.691000	27.405818	0.000420	20.905265
1929.511862	-2.995400	3.239500	-9.702900	27.409883	0.000417	20.904139
1930.508464	-3.009400	3.238500	-9.744300	27.434857	0.000417	20.884222
1931.513940	-2.990300	3.238800	-9.683900	27.398046	0.000417	20.890810
1932.510107	-2.988100	3.238200	-9.675300	27.387598	0.000416	20.879352
1933.513241	-3.002600	3.236400	-9.716400	27.367527	0.000414	20.884765
1934.510465	-3.003600	3.236800	-9.721600	27.377322	0.000415	20.895566
1935.510234	-3.019100	3.235300	-9.766800	27.333801	0.000412	20.875495
1936.510391	-3.005300	3.235900	-9.722800	27.359283	0.000413	20.883584
1937.510549	-3.012700	3.234500	-9.742800	27.380091	0.000412	20.886498
1938.512675	-2.992800	3.235300	-9.682200	27.392321	0.000413	20.868457
1939.510410	-2.973600	3.234400	-9.616500	27.466960	0.000411	20.876690
1940.510943	-2.991800	3.234800	-9.676700	27.457902	0.000412	20.883224
1941.510840	-2.997800	3.233400	-9.691700	27.488933	0.000408	20.869874
1942.511131	-2.992800	3.232100	-9.671500	27.499920	0.000409	20.867652
1943.511300	-2.974500	3.231900	-9.611300	27.468707	0.000408	20.863276
1944.512851	-3.022800	3.233000	-9.771000	27.437253	0.000408	20.857236
1945.509449	-2.985300	3.232100	-9.647900	27.441819	0.000404	20.876053
1946.514638	-2.986700	3.232200	-9.652100	27.447793	0.000405	20.863572
1947.510553	-2.995100	3.231400	-9.677100	27.472551	0.000402	20.852919
1948.511936	-2.949100	3.232300	-9.531100	27.467804	0.000403	20.882280
1949.511072	-2.978600	3.230100	-9.620500	27.458849	0.000404	20.866160
1950.511848	-2.970900	3.230700	-9.596800	27.450415	0.000402	20.859572
1951.512913	-2.972600	3.231700	-9.604800	27.439948	0.000402	20.855206
1952.513072	-3.023700	3.227100	-9.756900	27.426619	0.000400	20.847960
1953.512944	-2.982800	3.230000	-9.633800	27.453655	0.000400	20.863780
1954.514838	-2.992600	3.228800	-9.661500	27.443679	0.000400	20.854218
1955.513233	-2.974500	3.229500	-9.604100	27.438244	0.000399	20.878621
1956.515174	-3.018600	3.228100	-9.743800	27.410835	0.000397	20.844883
1957.514375	-2.997400	3.225900	-9.667300	27.397535	0.000398	20.843831
1958.513356	-3.008700	3.225600	-9.704500	27.444735	0.000398	20.849116
1959.516089	-2.995300	3.227000	-9.665000	27.486159	0.000396	20.855704
1960.514705	-2.975900	3.226600	-9.601500	27.507711	0.000397	20.856998
1961.517560	-2.999900	3.225400	-9.673200	27.525889	0.000395	20.850632
1962.513389	-3.014500	3.225000	-9.720800	27.545034	0.000393	20.863730
1963.513270	-2.985400	3.225100	-9.626700	27.542477	0.000394	20.866372
1964.516914	-2.965700	3.225400	-9.564100	27.508987	0.000393	20.838843
1965.516594	-2.987100	3.223900	-9.629400	27.506827	0.000393	20.840937
1966.515649	-3.015600	3.222800	-9.718000	27.468030	0.000390	20.843155
1967.513540	-3.033900	3.221300	-9.771900	27.453493	0.000391	20.861246
1968.514579	-2.987200	3.222100	-9.623700	27.469664	0.000390	20.859498
1969.515591	-2.988300	3.222800	-9.628400	27.481987	0.000391	20.846291
1970.515794	-2.968800	3.222300	-9.564800	27.465388	0.000390	20.831489
1971.516321	-2.971500	3.221600	-9.571200	27.446811	0.000388	20.852153
1972.519244	-3.009000	3.221800	-9.693700	27.447450	0.000385	20.835253
1973.516873	-2.982300	3.219900	-9.601300	27.477981	0.000387	20.839890
1974.516445	-2.991700	3.220200	-9.633200	27.515261	0.000386	20.842784
1975.520041	-3.000500	3.220700	-9.662300	27.502488	0.000386	20.844632
1976.517219	-2.994800	3.218500	-9.636000	27.486336	0.000385	20.846400
1977.518091	-3.000200	3.219300	-9.657600	27.487205	0.000383	20.833998
1978.518977	-2.999600	3.217700	-9.651300	27.491118	0.000384	20.827978
1979.520218	-3.008000	3.219800	-9.684100	27.504510	0.000383	20.860890
1980.518550	-3.022000	3.216400	-9.717900	27.498403	0.000383	20.847635
1981.522131	-2.992900	3.218600	-9.631200	27.511648	0.000380	20.851951
1982.523659	-3.002000	3.217000	-9.656400	27.496341	0.000380	20.825172
1983.520300	-3.001100	3.217900	-9.655200	27.530494	0.000378	20.836774
1984.524892	-2.998600	3.217400	-9.646200	27.535275	0.000379	20.841110
1985.519135	-2.982200	3.216200	-9.590400	27.558956	0.000380	20.851660
1986.522956	-2.971600	3.216600	-9.556700	27.544072	0.000375	20.855177
1987.520494	-3.006800	3.216500	-9.670000	27.534971	0.000377	20.834641
1988.521239	-3.000600	3.214000	-9.642100	27.533405	0.000377	20.823108
1989.519984	-2.994800	3.214200	-9.624800	27.549968	0.000374	20.832186
1990.521773	-3.012400	3.213100	-9.678700	27.573977	0.000373	20.824101
1991.522917	-3.012000	3.211500	-9.672500	27.591782	0.000373	20.838221
1992.522867	-2.999000	3.212500	-9.633600	27.563728	0.000371	20.823271
1993.520785	-3.008400	3.211800	-9.661900	27.562530	0.000372	20.828704
1994.525206	-3.011700	3.209800	-9.665600	27.560444	0.000372	20.840355
1995.521283	-2.999600	3.211400	-9.631000	27.578381	0.000368	20.828057
1996.522436	-3.010400	3.209800	-9.661600	27.618480	0.000368	20.831421
1997.524006	-2.991100	3.208700	-9.597000	27.601634	0.000368	20.812100
1998.521549	-3.036600	3.209000	-9.744000	27.621224	0.000367	20.833708
1999.526860	-3.004200	3.208900	-9.639200	27.607038	0.000368	20.850727
2000.525069	-3.009800	3.208500	-9.655400	27.604083	0.000363	20.845857
2001.523726	-2.997700	3.208200	-9.616400	27.589667	0.000367	20.857429
2002.529115	-2.986800	3.206400	-9.575600	27.600014	0.000365	20.832755
2003.522984	-3.008100	3.206900	-9.645500	27.536661	0.000364	20.831599
2004.523896	-2.988700	3.206200	-9.581500	27.540554	0.000363	20.841679
2005.525094	-3.006500	3.208000	-9.644200	27.523883	0.000362	20.829174
2006.524575	-3.007900	3.204200	-9.637900	27.560592	0.000361	20.823435
2007.525201	-3.007300	3.204700	-9.636700	27.546228	0.000362	20.833639
2008.528891	-3.012700	3.204600	-9.653700	27.604216	0.000358	20.809482
2009.526074	-2.989200	3.204500	-9.577000	27.607756	0.000358	20.819682
2010.527520	-2.991600	3.204100	-9.584100	27.585465	0.000357	20.815745
2011.526779	-3.016600	3.203400	-9.661900	27.591243	0.000357	20.827248
2012.527792	-3.000800	3.202300	-9.607600	27.609150	0.000355	20.809705
2013.531674	-3.004900	3.202600	-9.622400	27.671252	0.000354	20.828572
2014.529876	-3.026600	3.202200	-9.690900	27.673804	0.000355	20.800320
2015.531044	-2.986500	3.204300	-9.568300	27.736050	0.000353	20.842569
2016.530979	-2.991800	3.203000	-9.580900	27.717655	0.000353	20.828325
2017.530676	-2.997700	3.201000	-9.595000	27.681741	0.000350	20.823480
2018.531695	-2.988600	3.199300	-9.560900	27.637128	0.000351	20.831219
2019.531478	-3.000400	3.201000	-9.603700	27.618211	0.000352	20.805072
2020.531444	-3.004900	3.199700	-9.614200	27.590059	0.000348	20.832221
2021.537125	-2.980800	3.200200	-9.537500	27.557052	0.000347	20.826512
2022.531933	-2.983400	3.198800	-9.541400	27.556385	0.000348	20.800236
2023.534018	-3.007800	3.198000	-9.618400	27.529724	0.000346	20.819405
2024.534958	-3.005100	3.198500	-9.609200	27.503657	0.000347	20.821153
2025.531903	-2.987500	3.196800	-9.549400	27.547608	0.000347	20.826492
2026.532173	-2.987000	3.197000	-9.548700	27.577777	0.000345	20.833140
2027.532516	-3.017800	3.196000	-9.643900	27.563046	0.000344	20.821163
2028.533816	-2.995000	3.196800	-9.573200	27.583658	0.000346	20.830996
2029.537231	-3.004200	3.196100	-9.600400	27.532517	0.000342	20.833594
2030.532642	-3.007200	3.195400	-9.608100	27.479788	0.000341	20.812312
2031.534912	-2.993500	3.195200	-9.563300	27.439433	0.000342	20.809645
2032.538536	-2.991700	3.197400	-9.565100	27.462110	0.000341	20.813018
2033.533871	-2.995600	3.193900	-9.566500	27.489827	0.000341	20.822886
2034.536197	-2.994700	3.194600	-9.566600	27.545530	0.000340	20.819187
2035.535729	-3.009700	3.192100	-9.606900	27.596037	0.000338	20.820693
2036.537914	-3.003500	3.191400	-9.584300	27.594697	0.000339	20.826457
2037.537195	-2.991000	3.192700	-9.548300	27.556654	0.000337	20.787705
2038.536638	-2.967100	3.191900	-9.469000	27.540062	0.000336	20.821745
2039.543685	-2.997700	3.191400	-9.566000	27.569603	0.000338	20.794570
2040.537846	-3.035000	3.189200	-9.677400	27.595129	0.000339	20.792278
2041.537039	-3.021200	3.190300	-9.637700	27.648849	0.000335	20.798442
2042.540994	-3.010400	3.191600	-9.607000	27.661527	0.000337	20.805036
2043.537795	-2.992500	3.190000	-9.544000	27.703218	0.000334	20.803367
2044.541730	-2.972300	3.190200	-9.481100	27.715302	0.000335	20.803673
2045.548718	-2.994700	3.189200	-9.549700	27.744785	0.000331	20.800151
2046.541750	-3.002700	3.187500	-9.569000	27.768569	0.000330	20.801327
2047.539118	-3.033200	3.187000	-9.665100	27.786993	0.000332	20.800428
2048.539119	-3.001300	3.186600	-9.563500	27.772049	0.000328	20.801509
2049.539346	-3.013300	3.185200	-9.597000	27.756329	0.000329	20.805130
2050.543111	-3.005900	3.185600	-9.574700	27.737830	0.000327	20.779876
2051.539718	-2.996900	3.186600	-9.548400	27.745698	0.000328	20.784000
2052.543847	-3.009900	3.185000	-9.584500	27.740437	0.000326	20.787240
2053.541253	-3.008500	3.183000	-9.575300	27.746763	0.000326	20.778908
2054.541452	-2.968300	3.185000	-9.453000	27.736947	0.000323	20.807436
2055.542912	-3.005300	3.182600	-9.563200	27.736206	0.000323	20.777293
2056.544438	-3.001000	3.184800	-9.556000	27.755696	0.000321	20.807337
2057.541879	-2.984900	3.182200	-9.498000	27.759867	0.000322	20.781664
2058.542194	-2.993000	3.184100	-9.529300	27.800833	0.000321	20.789226
2059.543759	-3.005100	3.181200	-9.557700	27.815743	0.000319	20.798067
2060.544084	-3.006300	3.179900	-9.558600	27.819988	0.000318	20.794278
2061.547338	-3.006700	3.181600	-9.564800	27.822864	0.000318	20.796224
2062.553410	-3.002700	3.179900	-9.547400	27.817058	0.000319	20.786588
2063.547431	-3.014000	3.178700	-9.579600	27.788893	0.000318	20.799968
2064.543813	-3.003200	3.179100	-9.546400	27.800652	0.000317	20.783827
2065.544132	-3.018100	3.177200	-9.587600	27.793908	0.000314	20.777515
2066.547447	-2.994300	3.178400	-9.516000	27.743273	0.000316	20.789621
2067.542286	-3.012300	3.177200	-9.569700	27.688616	0.000315	20.773025
2068.542286	-3.003200	3.177500	-9.539300	27.654272	0.000315	20.773554
2069.543716	-3.013700	3.174900	-9.566900	27.628458	0.000313	20.793572
2070.544026	-3.009100	3.175300	-9.553500	27.648289	0.000314	20.758049
2071.543124	-2.972500	3.177200	-9.442600	27.680537	0.000313	20.772008
2072.546479	-2.994900	3.176000	-9.511000	27.738763	0.000312	20.777021
2073.543862	-2.996200	3.174400	-9.509800	27.776436	0.000311	20.762776
2074.545233	-2.994700	3.173500	-9.502300	27.841876	0.000311	20.772684
2075.546175	-2.976800	3.173400	-9.445400	27.871233	0.000311	20.776626
2076.545696	-3.024300	3.171800	-9.591200	27.851819	0.000310	20.778424
2077.547028	-3.014100	3.172100	-9.559600	27.856874	0.000309	20.782563
2078.545127	-3.001900	3.173500	-9.525600	27.837459	0.000308	20.778197
2079.546072	-3.010900	3.170900	-9.546000	27.820651	0.000308	20.780720
2080.545599	-3.007900	3.171800	-9.538600	27.793845	0.000307	20.760855
2081.546618	-3.014000	3.170500	-9.554600	27.779631	0.000306	20.771682
2082.549160	-3.033000	3.168400	-9.608300	27.811517	0.000304	20.780538
2083.546377	-3.023100	3.169700	-9.581300	27.804995	0.000303	20.749317
2084.549922	-2.997300	3.168600	-9.496500	27.830392	0.000301	20.780093
2085.548691	-2.994000	3.168200	-9.484600	27.781388	0.000302	20.762070
2086.547512	-3.005300	3.168400	-9.520300	27.789104	0.000301	20.777421
2087.550053	-2.965600	3.170700	-9.401600	27.804504	0.000302	20.748823
2088.548448	-2.990400	3.167000	-9.470000	27.823644	0.000301	20.779466
2089.546938	-2.986000	3.166800	-9.454800	27.852187	0.000299	20.762198
2090.548374	-3.003300	3.164600	-9.503800	27.853649	0.000299	20.768886
2091.547774	-2.978100	3.167500	-9.432400	27.896575	0.000300	20.780320
2092.549767	-2.967100	3.164700	-9.388900	27.911375	0.000297	20.771035
2093.548713	-2.985700	3.165000	-9.448700	27.918991	0.000296	20.772536
2094.548131	-2.999300	3.163500	-9.486800	27.877063	0.000295	20.764001
2095.548626	-2.994500	3.161800	-9.467100	27.873770	0.000296	20.751678
2096.548038	-3.008500	3.161900	-9.511800	27.823953	0.000294	20.764604
2097.553742	-3.019200	3.160600	-9.540200	27.806423	0.000296	20.756918
2098.553996	-2.981200	3.161400	-9.423100	27.809000	0.000293	20.746709
2099.552580	-2.990400	3.161300	-9.452700	27.854253	0.000292	20.763804
2100.553080	-2.992100	3.161100	-9.456100	27.894047	0.000291	20.736050
2101.564661	-3.024900	3.160300	-9.558000	27.929600	0.000292	20.768042
2102.560319	-3.002700	3.159700	-9.487400	27.921047	0.000291	20.757536
2103.554030	-2.980300	3.158200	-9.411200	27.920326	0.000290	20.747326
2104.554028	-2.997800	3.159700	-9.471200	27.922259	0.000290	20.766817
2105.553591	-2.980400	3.158700	-9.413400	27.939513	0.000289	20.760475
2106.553191	-3.011700	3.158200	-9.509900	27.912018	0.000287	20.769311
2107.554329	-2.988300	3.156100	-9.430500	27.864112	0.000288	20.761872
2108.556681	-2.999100	3.156600	-9.465400	27.870060	0.000286	20.756005
2109.554966	-3.009400	3.155800	-9.496200	27.849483	0.000285	20.744778
2110.555945	-3.017500	3.154300	-9.517200	27.860687	0.000284	20.747045
2111.554486	-2.992400	3.154600	-9.438200	27.864083	0.000283	20.748566
2112.558532	-3.010800	3.153000	-9.492000	27.896933	0.000282	20.738006
2113.559287	-2.983300	3.155200	-9.412000	27.924335	0.000284	20.735714
2114.555729	-2.982400	3.153000	-9.403300	27.957973	0.000282	20.741597
2115.559060	-2.985800	3.151800	-9.409600	27.933477	0.000282	20.760564
2116.555413	-3.003500	3.152700	-9.468000	27.938261	0.000281	20.761112
2117.556182	-2.983100	3.152700	-9.404100	27.919442	0.000279	20.749282
2118.560102	-2.984900	3.150600	-9.403300	27.895313	0.000278	20.751549
2119.558543	-3.017600	3.149300	-9.502600	27.895436	0.000279	20.728438
2120.556947	-2.997900	3.148300	-9.436800	27.840738	0.000277	20.749253
2121.561261	-3.000400	3.148900	-9.447100	27.861241	0.000277	20.737645
2122.564721	-2.982800	3.148500	-9.390800	27.864490	0.000275	20.738544
2123.557911	-2.990500	3.149600	-9.417200	27.846710	0.000276	20.744358
2124.559457	-2.987000	3.146700	-9.398400	27.897507	0.000275	20.746171
2125.559805	-2.979700	3.146400	-9.374100	27.955353	0.000276	20.735166
2126.563931	-2.982100	3.147000	-9.382700	27.973867	0.000277	20.731516
2127.559682	-3.005200	3.145200	-9.450100	27.978970	0.000275	20.735704
2128.558327	-3.004600	3.146000	-9.451000	27.968239	0.000274	20.767577
2129.563668	-2.996400	3.144500	-9.421300	27.968729	0.000273	20.755743
2130.559353	-3.006000	3.142400	-9.444200	27.984594	0.000271	20.753219
2131.559720	-3.012400	3.142500	-9.465400	28.007131	0.000273	20.734178
2132.561291	-2.968600	3.142000	-9.326700	28.019795	0.000271	20.732701
2133.562552	-3.007900	3.142100	-9.448900	27.996758	0.000272	20.731323
2134.563125	-3.011400	3.140700	-9.455600	27.971546	0.000269	20.749095
2135.568683	-2.994900	3.138900	-9.399500	27.955328	0.000270	20.742254
2136.562358	-3.010500	3.138300	-9.446700	27.936083	0.000268	20.757497
2137.562944	-2.982300	3.137900	-9.357100	27.884110	0.000267	20.730790
2138.563951	-3.012000	3.138300	-9.452000	27.813019	0.000268	20.739848
2139.563729	-3.025300	3.136600	-9.488200	27.795558	0.000268	20.718481
2140.567697	-3.010400	3.136500	-9.441500	27.781350	0.000265	20.739271
2141.564272	-3.015500	3.134800	-9.452100	27.790645	0.000265	20.737245
2142.565763	-2.987400	3.136300	-9.368600	27.816087	0.000263	20.743410
2143.564545	-3.005500	3.134700	-9.419600	27.846038	0.000262	20.734198
2144.565233	-3.014500	3.132600	-9.442000	27.852609	0.000263	20.741286
2145.566530	-3.017900	3.132800	-9.453300	27.889896	0.000263	20.727130
2146.565687	-3.005200	3.132600	-9.412600	27.885975	0.000260	20.748789
2147.565135	-2.983500	3.133100	-9.346200	27.908838	0.000262	20.765637
2148.565505	-2.986200	3.132200	-9.350900	27.928997	0.000261	20.738510
2149.565423	-2.989800	3.130400	-9.357800	27.957508	0.000260	20.748241
2150.566638	-2.993200	3.129200	-9.365500	27.995532	0.000259	20.751901
2151.569529	-3.014100	3.129900	-9.432200	27.991317	0.000257	20.749080
2152.567730	-2.992700	3.129200	-9.363700	27.933051	0.000255	20.738323
2153.569276	-3.002800	3.128600	-9.393900	27.924252	0.000255	20.718560
2154.567055	-3.006200	3.127100	-9.398700	27.946163	0.000256	20.729708
2155.568835	-3.015300	3.128400	-9.431900	27.967366	0.000254	20.742990
2156.572967	-3.017300	3.125000	-9.428800	27.954073	0.000253	20.722023
2157.569292	-2.997700	3.125900	-9.368600	27.966983	0.000254	20.738338
2158.571987	-3.009100	3.124400	-9.399700	27.941570	0.000253	20.738362
2159.569520	-3.000300	3.123500	-9.370000	27.910924	0.000255	20.726957
2160.570022	-2.982400	3.124900	-9.317900	27.888238	0.000253	20.730202
2161.572172	-3.017800	3.121600	-9.418900	27.911837	0.000253	20.749214
2162.572518	-2.984100	3.123600	-9.319700	27.966777	0.000251	20.721060
2163.570307	-2.995900	3.120400	-9.347500	27.983167	0.000251	20.762688
2164.569816	-3.014800	3.119200	-9.403400	28.014453	0.000252	20.725426
2165.573249	-3.001900	3.120700	-9.366500	28.028854	0.000249	20.732336
2166.569763	-2.999200	3.119100	-9.353000	28.067847	0.000251	20.734604
2167.572762	-3.012500	3.118200	-9.392500	28.111426	0.000248	20.729161
2168.572742	-3.013100	3.117200	-9.391200	28.144519	0.000247	20.749674
2169.572023	-3.006500	3.117100	-9.370100	28.183807	0.000247	20.753665
2170.571464	-2.995000	3.117000	-9.334600	28.213375	0.000248	20.750242
2171.571118	-3.029000	3.116800	-9.439800	28.213473	0.000245	20.753660
2172.574676	-3.000300	3.115300	-9.345600	28.222220	0.000244	20.730223
2173.571538	-2.993100	3.113500	-9.318000	28.179387	0.000244	20.743999
2174.571213	-3.045300	3.111300	-9.473700	28.135413	0.000242	20.740981
2175.571890	-3.000500	3.113900	-9.341200	28.082709	0.000241	20.734392
2176.571822	-2.984600	3.114000	-9.293200	28.083529	0.000242	20.760348
2177.573562	-3.015800	3.111100	-9.381700	28.091835	0.000243	20.726508
2178.574998	-2.976700	3.111500	-9.261100	28.071007	0.000239	20.743475
2179.572814	-2.982400	3.111900	-9.279700	28.113399	0.000242	20.734466
2180.572310	-2.965300	3.110700	-9.222500	28.158516	0.000241	20.742902
2181.573782	-3.003600	3.109300	-9.337900	28.207669	0.000240	20.740704
2182.575262	-3.010500	3.108900	-9.358600	28.223609	0.000240	20.751536
2183.577025	-2.996500	3.108000	-9.312200	28.225590	0.000239	20.753532
2184.575239	-3.005100	3.105500	-9.331700	28.192750	0.000239	20.748918
2185.577143	-3.004000	3.105100	-9.326000	28.188335	0.000239	20.753482
2186.575065	-2.993600	3.105600	-9.294800	28.157128	0.000238	20.734866
2187.576191	-2.985900	3.105700	-9.272100	28.160008	0.000238	20.747723
2188.578446	-2.989700	3.104500	-9.280800	28.186059	0.000238	20.735542
2189.576043	-2.982500	3.104000	-9.256800	28.235711	0.000237	20.741435
2190.576368	-3.010200	3.102500	-9.337600	28.292096	0.000236	20.723762
2191.577633	-2.980300	3.102600	-9.245200	28.306773	0.000236	20.725738
2192.579046	-3.010400	3.100700	-9.332300	28.317109	0.000234	20.756060
2193.581181	-2.998500	3.100500	-9.296400	28.316967	0.000233	20.753546
2194.580926	-2.974200	3.099200	-9.216300	28.313567	0.000233	20.756287
2195.583582	-2.979000	3.099900	-9.233200	28.321278	0.000232	20.750301
2196.582594	-3.013400	3.097900	-9.333500	28.364307	0.000232	20.735305
2197.585089	-2.997000	3.097100	-9.280800	28.316873	0.000232	20.752030
2198.584317	-3.008600	3.095700	-9.312900	28.296074	0.000231	20.725397
2199.583916	-3.000100	3.095900	-9.286100	28.269977	0.000232	20.735157
2200.582592	-3.020100	3.092200	-9.337900	28.290825	0.000233	20.770374
2201.582742	-3.005100	3.093000	-9.294300	28.293180	0.000232	20.752830
2202.582966	-3.019800	3.091800	-9.335300	28.285081	0.000229	20.742304
2203.583200	-3.019500	3.090800	-9.330900	28.289790	0.000232	20.746571
2204.587248	-2.994300	3.090500	-9.252100	28.310060	0.000231	20.728573
2205.585129	-2.985100	3.090300	-9.223800	28.336377	0.000230	20.766926
2206.583524	-3.006400	3.089400	-9.286000	28.321190	0.000231	20.760644
2207.583587	-2.990600	3.088500	-9.235400	28.319807	0.000231	20.734594
2208.585181	-3.011300	3.087800	-9.297200	28.271193	0.000229	20.739701
2209.587416	-2.995100	3.086700	-9.244100	28.238625	0.000231	20.751955
2210.584079	-3.010000	3.085900	-9.287500	28.242785	0.000230	20.751402
2211.585630	-2.972400	3.085800	-9.171000	28.266008	0.000228	20.752025
2212.584511	-3.019900	3.083600	-9.311100	28.279984	0.000228	20.729111
2213.585894	-3.006000	3.083400	-9.267200	28.259611	0.000228	20.735152
2214.589004	-3.013000	3.081200	-9.282800	28.256536	0.000226	20.778050
2215.593201	-3.009200	3.082300	-9.273000	28.305959	0.000227	20.745781
2216.586598	-3.039600	3.080000	-9.360700	28.295025	0.000227	20.738091
2217.587459	-2.983000	3.080200	-9.186700	28.264041	0.000225	20.751941
2218.587264	-3.022600	3.078500	-9.302300	28.271552	0.000226	20.764719
2219.588724	-2.989400	3.079000	-9.202500	28.318492	0.000225	20.759824
2220.588130	-3.003100	3.077400	-9.240500	28.338614	0.000224	20.752109
2221.588589	-3.003600	3.077300	-9.241200	28.392198	0.000223	20.776667
2222.588062	-3.035600	3.074500	-9.331500	28.405804	0.000224	20.759073
2223.587524	-3.011800	3.075300	-9.260600	28.441718	0.000226	20.767263
2224.589137	-3.000700	3.073400	-9.220600	28.469469	0.000223	20.751585
2225.597478	-2.992600	3.072700	-9.194000	28.480892	0.000224	20.764388
2226.588703	-3.027500	3.070100	-9.293300	28.516847	0.000222	20.767055
2227.588792	-2.991200	3.071400	-9.186000	28.550050	0.000222	20.763035
2228.590288	-2.954900	3.071500	-9.074700	28.577386	0.000224	20.748839
2229.592564	-3.000500	3.070300	-9.211200	28.587219	0.000223	20.758743
2230.592703	-2.988500	3.068200	-9.168500	28.590539	0.000223	20.754026
2231.588447	-2.997300	3.067500	-9.193000	28.622503	0.000225	20.749709
2232.591731	-2.989800	3.066900	-9.168100	28.618414	0.000224	20.749383
2233.598283	-3.001900	3.065000	-9.200000	28.620517	0.000223	20.761933
2234.592186	-3.001900	3.064600	-9.197800	28.619900	0.000220	20.751353
2235.593601	-3.006100	3.064000	-9.209900	28.600229	0.000221	20.756673
2236.589292	-3.016500	3.060600	-9.230100	28.608478	0.000221	20.744592
2237.592349	-3.004500	3.061900	-9.198500	28.626265	0.000220	20.751126
2238.589545	-2.991800	3.059900	-9.152700	28.636377	0.000219	20.767001
2239.589254	-3.002000	3.058700	-9.181200	28.588136	0.000221	20.766779
2240.591421	-3.000600	3.058000	-9.175200	28.580603	0.000220	20.757770
2241.594478	-2.968800	3.058700	-9.080300	28.544454	0.000219	20.763563
2242.590804	-2.992300	3.056800	-9.146000	28.525175	0.000221	20.772123
2243.590239	-3.012500	3.055100	-9.202000	28.498239	0.000218	20.784826
2244.590448	-2.995500	3.055000	-9.150200	28.476929	0.000219	20.782806
2245.591468	-2.992000	3.053500	-9.134500	28.483251	0.000219	20.771155
2246.592574	-2.983400	3.052300	-9.105600	28.502408	0.000218	20.756307
2247.590783	-3.028100	3.051500	-9.238600	28.498862	0.000218	20.774548
2248.592350	-3.002100	3.051200	-9.158900	28.491010	0.000218	20.778020
2249.590699	-2.986800	3.049300	-9.106900	28.489200	0.000217	20.778568
2250.591788	-3.006500	3.048900	-9.164400	28.507538	0.000216	20.765741
2251.591630	-3.001600	3.047700	-9.145800	28.476639	0.000215	20.765445
2252.591240	-2.993500	3.047200	-9.119200	28.459645	0.000218	20.757339
2253.592487	-3.011800	3.046300	-9.173600	28.495792	0.000216	20.777146
2254.593690	-3.009400	3.043500	-9.158000	28.537848	0.000215	20.748375
2255.593008	-2.988300	3.044900	-9.096500	28.534802	0.000216	20.772809
2256.592599	-3.002600	3.041600	-9.131400	28.556239	0.000215	20.774958
2257.603805	-3.001900	3.041700	-9.128200	28.551580	0.000215	20.769317
2258.593820	-3.004600	3.041300	-9.136700	28.561045	0.000217	20.763202
2259.596564	-3.006100	3.039500	-9.136200	28.574571	0.000216	20.779196
2260.599854	-2.993400	3.039100	-9.095800	28.583962	0.000216	20.777274
2261.592495	-2.984500	3.037400	-9.064400	28.602397	0.000216	20.775926
2262.605482	-2.975000	3.037200	-9.034800	28.618031	0.000215	20.784559
2263.604853	-3.012100	3.033900	-9.137700	28.637784	0.000215	20.790704
2264.604835	-3.031200	3.032400	-9.191300	28.673685	0.000215	20.764274
2265.598473	-3.004900	3.031100	-9.107100	28.695486	0.000213	20.781966
2266.603316	-2.990900	3.031500	-9.066000	28.699748	0.000214	20.756860
2267.599998	-3.002700	3.029300	-9.095000	28.760251	0.000213	20.780820
2268.604791	-2.979400	3.029100	-9.023900	28.770190	0.000215	20.778504
2269.597682	-2.996700	3.027200	-9.071000	28.739990	0.000213	20.787913
2270.603732	-2.988400	3.027500	-9.046100	28.734989	0.000211	20.779082
2271.598177	-3.007300	3.025100	-9.096400	28.742123	0.000213	20.788165
2272.604307	-2.977200	3.025900	-9.007800	28.704862	0.000214	20.748735
2273.602806	-3.034100	3.022100	-9.168100	28.680383	0.000213	20.788565
2274.598185	-2.999400	3.022500	-9.065000	28.685566	0.000212	20.774819
2275.601018	-3.023900	3.019600	-9.129200	28.624592	0.000212	20.801599
2276.598937	-2.999300	3.020100	-9.057300	28.574114	0.000211	20.781107
2277.603649	-2.973200	3.019700	-8.977500	28.566189	0.000210	20.793040
2278.601433	-2.999500	3.016700	-9.047700	28.538038	0.000213	20.796932
2279.600827	-3.015300	3.015600	-9.092200	28.521359	0.000212	20.784875
2280.604563	-2.985600	3.016500	-9.004200	28.499602	0.000211	20.777190
2281.605640	-3.010300	3.014200	-9.072500	28.441668	0.000210	20.782860
2282.602960	-3.011400	3.010800	-9.064500	28.405387	0.000209	20.816500
2283.603530	-2.982100	3.011700	-8.978800	28.404622	0.000210	20.770211
2284.604011	-3.004100	3.011100	-9.044900	28.399118	0.000210	20.778420
2285.604078	-2.987600	3.010800	-8.994100	28.429210	0.000210	20.780272
2286.605803	-3.009400	3.008100	-9.052100	28.473995	0.000211	20.813991
2287.602060	-2.979000	3.007000	-8.957200	28.526410	0.000212	20.771944
2288.603225	-2.987700	3.005600	-8.978000	28.592740	0.000210	20.791805
2289.605199	-3.017300	3.004100	-9.062800	28.588336	0.000211	20.794956
2290.601223	-2.962100	3.003500	-8.896000	28.604985	0.000209	20.792758
2291.603170	-2.997300	3.000900	-8.994200	28.615220	0.000209	20.784099
2292.610562	-2.998300	2.999500	-8.992700	28.632193	0.000212	20.792659
2293.605089	-3.007100	2.997200	-9.012000	28.648473	0.000211	20.787720
2294.608679	-3.006500	2.997500	-9.010600	28.666961	0.000210	20.806340
2295.604607	-2.980700	2.996600	-8.929500	28.652990	0.000209	20.815976
2296.605129	-3.021400	2.994900	-9.047900	28.648704	0.000211	20.789374
2297.609228	-3.016300	2.993000	-9.027400	28.666250	0.000210	20.790925
2298.604689	-3.037900	2.990600	-9.084700	28.702051	0.000210	20.815132
2299.606005	-2.967400	2.992200	-8.878700	28.709039	0.000206	20.801307
2300.607198	-3.012300	2.989900	-9.004900	28.718086	0.000208	20.788609
2301.619709	-3.009500	2.989200	-8.995300	28.732899	0.000208	20.785986
2302.617316	-2.996600	2.986100	-8.947000	28.763526	0.000209	20.795973
2303.605084	-2.998700	2.986000	-8.953100	28.790557	0.000207	20.818460
2304.619732	-2.989400	2.986000	-8.925900	28.758176	0.000207	20.814292
2305.608639	-3.026000	2.982400	-9.023500	28.729908	0.000209	20.807155
2306.607273	-2.985000	2.981500	-8.898900	28.665911	0.000207	20.806231
2307.612230	-3.000400	2.980300	-8.941200	28.623767	0.000209	20.799820
2308.609708	-2.995900	2.980200	-8.927600	28.558180	0.000207	20.804888
2309.608706	-3.013000	2.977900	-8.971500	28.556395	0.000208	20.807831
2310.615609	-3.017400	2.976200	-8.977600	28.574609	0.000206	20.805313
2311.608922	-2.986300	2.975300	-8.884100	28.591930	0.000205	20.819912
2312.617999	-3.028900	2.971500	-8.999600	28.605113	0.000207	20.810904
2313.608319	-3.002900	2.971800	-8.923200	28.611826	0.000207	20.817191
2314.608466	-3.013300	2.970300	-8.949900	28.580661	0.000205	20.817571
2315.608337	-3.000400	2.969100	-8.907400	28.618795	0.000207	20.802873
2316.611320	-3.049500	2.964100	-9.036500	28.597040	0.000207	20.809412
2317.608788	-3.019700	2.965100	-8.952800	28.543516	0.000205	20.818569
2318.614862	-2.995100	2.964000	-8.875900	28.522525	0.000205	20.808335
2319.611853	-3.038400	2.960800	-8.994900	28.505507	0.000206	20.802102
2320.623496	-2.990600	2.961400	-8.855500	28.537891	0.000204	20.802473
2321.619506	-2.975900	2.960600	-8.809000	28.513805	0.000204	20.813778
2322.610699	-3.020500	2.957700	-8.932500	28.584030	0.000206	20.826180
2323.613611	-3.015900	2.956200	-8.914500	28.623331	0.000207	20.822140
2324.611498	-3.015400	2.956500	-8.913500	28.636983	0.000206	20.810286
2325.612052	-3.007300	2.952400	-8.877700	28.624469	0.000208	20.821863
2326.612700	-2.970100	2.953200	-8.770400	28.594392	0.000207	20.820021
2327.613239	-2.978500	2.951700	-8.789400	28.589140	0.000206	20.823266
2328.623503	-2.992900	2.950100	-8.828400	28.567356	0.000206	20.826456
2329.617530	-3.012700	2.948400	-8.880900	28.577890	0.000205	20.809565
2330.615844	-3.005400	2.945200	-8.850200	28.552834	0.000204	20.829849
2331.628725	-2.985000	2.945300	-8.790000	28.508729	0.000205	20.819097
2332.615441	-2.991800	2.943600	-8.806100	28.514703	0.000206	20.821320
2333.620139	-2.999400	2.942000	-8.823100	28.536238	0.000202	20.829731
2334.615932	-2.993200	2.941000	-8.801600	28.483225	0.000207	20.825182
2335.615336	-2.982700	2.938000	-8.761700	28.471312	0.000207	20.821720
2336.621770	-3.017300	2.936800	-8.860100	28.464058	0.000206	20.844760
2337.620572	-3.014800	2.936500	-8.850900	28.500803	0.000206	20.833401
2338.631169	-3.014300	2.933800	-8.841300	28.555222	0.000205	20.828936
2339.627935	-3.012900	2.931700	-8.831600	28.598487	0.000204	20.819403
2340.617071	-3.027400	2.929700	-8.868100	28.624630	0.000205	20.814914
2341.634224	-3.018200	2.927900	-8.836200	28.673041	0.000203	20.857507
2342.641508	-3.010800	2.926500	-8.810500	28.756097	0.000204	20.812672
2343.618610	-2.998500	2.924800	-8.768700	28.801609	0.000204	20.838127
2344.619023	-2.994000	2.922800	-8.749700	28.816127	0.000203	20.829993
2345.636370	-2.978300	2.922700	-8.702700	28.830596	0.000206	20.848835
2346.617812	-2.976900	2.920600	-8.692700	28.841373	0.000205	20.824130
2347.622302	-3.033200	2.918300	-8.850200	28.818637	0.000203	20.842952
2348.620299	-3.010000	2.916600	-8.777700	28.797230	0.000204	20.833717
2349.620018	-3.017500	2.913900	-8.791700	28.754199	0.000204	20.830674
2350.625045	-3.018700	2.912300	-8.790600	28.762751	0.000206	20.831701
2351.628073	-3.006200	2.911800	-8.752000	28.722616	0.000204	20.846750
2352.624426	-3.019200	2.908500	-8.780400	28.726784	0.000204	20.839569
2353.621376	-3.016600	2.906200	-8.766000	28.744545	0.000202	20.853665
2354.628994	-2.983000	2.908000	-8.673500	28.762040	0.000204	20.828615
2355.623558	-2.993900	2.906200	-8.699700	28.775494	0.000203	20.852124
2356.623431	-2.982700	2.902700	-8.655500	28.825933	0.000204	20.849353
2357.626124	-2.983500	2.901800	-8.656100	28.834307	0.000205	20.832660
2358.627372	-2.995000	2.900400	-8.685900	28.839137	0.000204	20.840369
2359.623424	-3.015700	2.898000	-8.738000	28.857591	0.000203	20.839046
2360.626274	-3.002500	2.895800	-8.693300	28.884645	0.000205	20.854919
2361.623370	-3.025400	2.893300	-8.752100	28.904785	0.000204	20.861458
2362.624310	-2.979700	2.892600	-8.617100	28.959380	0.000203	20.837277
2363.633238	-2.997900	2.889200	-8.660100	28.967503	0.000205	20.859211
2364.626969	-2.991600	2.888600	-8.640800	28.988755	0.000203	20.845535
2365.626101	-2.996300	2.887800	-8.650700	28.980259	0.000202	20.840769
2366.635515	-2.998100	2.884200	-8.646500	28.897475	0.000202	20.832284
2367.627742	-3.003700	2.881500	-8.653700	28.868892	0.000204	20.855645
2368.626934	-3.019600	2.881700	-8.699800	28.831630	0.000203	20.867419
2369.635127	-2.977000	2.878700	-8.568800	28.847884	0.000206	20.854870
2370.628128	-2.979900	2.876700	-8.570500	28.847957	0.000204	20.864426
2371.631384	-2.986800	2.874300	-8.584200	28.817093	0.000203	20.862258
2372.636406	-2.981600	2.873800	-8.566800	28.821574	0.000202	20.857764
2373.628590	-3.028900	2.870000	-8.691400	28.822913	0.000203	20.865750
2374.630324	-3.016400	2.868400	-8.651100	28.857792	0.000203	20.869118
2375.635659	-3.014700	2.866700	-8.641700	28.771234	0.000202	20.866323
2376.641070	-3.012700	2.865000	-8.629500	28.808988	0.000204	20.857887
2377.633158	-3.017500	2.863600	-8.640200	28.846624	0.000202	20.853601
2378.631663	-3.006600	2.861200	-8.602100	28.870299	0.000204	20.849002
2379.628999	-3.029700	2.858100	-8.658600	28.893436	0.000201	20.835801
2380.631616	-3.031900	2.856100	-8.657100	28.871839	0.000201	20.872837
2381.634522	-3.010800	2.856100	-8.598100	28.822118	0.000203	20.848355
2382.631638	-2.976700	2.852900	-8.490900	28.753121	0.000202	20.865148
2383.637067	-3.017500	2.852100	-8.605200	28.712643	0.000201	20.849032
2384.632556	-3.010400	2.848000	-8.573000	28.766453	0.000201	20.871464
2385.630872	-3.013200	2.847900	-8.580300	28.811391	0.000202	20.882591
2386.631227	-2.985900	2.844400	-8.492200	28.870971	0.000201	20.870541
2387.632612	-3.013400	2.842600	-8.564500	28.906197	0.000203	20.862881
2388.631235	-3.014300	2.839600	-8.558300	28.919974	0.000202	20.855423
2389.636570	-3.028300	2.838200	-8.593300	28.964802	0.000203	20.872610
2390.634003	-2.989400	2.837500	-8.481000	28.988637	0.000202	20.861063
2391.637953	-2.989500	2.836300	-8.477800	29.007408	0.000203	20.853423
2392.635245	-3.016400	2.831100	-8.538900	29.018281	0.000202	20.852998
2393.633145	-3.004000	2.829400	-8.498600	28.976847	0.000205	20.866254
2394.633727	-2.992000	2.827200	-8.457600	28.971204	0.000202	20.865310
2395.634945	-2.979600	2.826800	-8.421400	28.973582	0.000203	20.868654
2396.633710	-3.045400	2.822000	-8.593300	28.997804	0.000203	20.875040
2397.634908	-2.987400	2.820800	-8.425400	29.072850	0.000202	20.858194
2398.633996	-3.001400	2.817300	-8.454700	29.096280	0.000204	20.887965
2399.631650	-2.992300	2.815500	-8.423900	29.148767	0.000201	20.864515
2400.637327	-2.999800	2.814100	-8.440900	29.146316	0.000202	20.857305
2401.638989	-3.001600	2.812900	-8.442100	29.116078	0.000203	20.874724
2402.635299	-2.999900	2.810200	-8.429900	29.076948	0.000200	20.870857
2403.636758	-2.990900	2.805900	-8.390800	29.048546	0.000203	20.853620
2404.638924	-3.012200	2.803200	-8.442000	28.991554	0.000202	20.853097
2405.635223	-2.990700	2.803300	-8.383400	29.032967	0.000202	20.845985
2406.638155	-2.969700	2.800000	-8.314000	29.040575	0.000204	20.842745
2407.637871	-2.990200	2.797100	-8.362600	29.067747	0.000201	20.852578
2408.635816	-2.991900	2.796000	-8.364100	29.102795	0.000202	20.841900
2409.640054	-3.007300	2.792000	-8.395100	29.087045	0.000200	20.844049
2410.636337	-2.979600	2.789300	-8.310100	29.090442	0.000202	20.832773
2411.640993	-2.991800	2.788100	-8.340400	29.098393	0.000201	20.848845
2412.638064	-2.999400	2.784900	-8.352100	29.112118	0.000201	20.837544
2413.642352	-2.979300	2.780600	-8.282700	29.149145	0.000203	20.850198
2414.638769	-3.002400	2.778600	-8.341500	29.160291	0.000201	20.823498
2415.639659	-2.996900	2.775600	-8.317300	29.196899	0.000200	20.847585
2416.645012	-2.969400	2.774100	-8.236600	29.204996	0.000202	20.822555
2417.639307	-2.989800	2.771400	-8.285100	29.247641	0.000199	20.849408
2418.639991	-3.014900	2.768300	-8.345000	29.277880	0.000201	20.847640
2419.642859	-3.004900	2.764500	-8.304900	29.305595	0.000201	20.848543
2420.645831	-3.009800	2.761000	-8.308200	29.314357	0.000201	20.819917
2421.647723	-3.019600	2.757900	-8.326600	29.321841	0.000201	20.854011
2422.643801	-3.002700	2.757100	-8.276400	29.343458	0.000201	20.842607
2423.642028	-3.022300	2.752400	-8.317800	29.353533	0.000199	20.828580
2424.641803	-3.019800	2.749000	-8.300400	29.358659	0.000202	20.810988
2425.644860	-3.007000	2.746900	-8.259000	29.389689	0.000201	20.858382
2426.643726	-3.021100	2.742100	-8.283200	29.398485	0.000201	20.839747
2427.643903	-3.017400	2.739800	-8.266100	29.383583	0.000200	20.833737
2428.649374	-3.026100	2.735900	-8.277200	29.388337	0.000198	20.831890
2429.642188	-3.006200	2.734200	-8.217800	29.389057	0.000201	20.835461
2430.643064	-3.000000	2.729600	-8.188100	29.409859	0.000200	20.814702
2431.648750	-3.027500	2.726000	-8.251500	29.397157	0.000199	20.829400
2432.642824	-2.970600	2.724400	-8.092000	29.383593	0.000199	20.832799
2433.645483	-2.999200	2.719800	-8.156400	29.394810	0.000199	20.826087
2434.647511	-2.996200	2.717200	-8.140400	29.427373	0.000201	20.823820
2435.651263	-3.003500	2.713900	-8.150000	29.467657	0.000199	20.813690
2436.647132	-3.012400	2.709800	-8.161700	29.486502	0.000201	20.821780
2437.653624	-2.986000	2.708300	-8.086200	29.507773	0.000200	20.819987
2438.655468	-3.021500	2.703700	-8.167800	29.486757	0.000201	20.831520
2439.651682	-2.985100	2.700500	-8.060300	29.452717	0.000200	20.817123
2440.657406	-2.994200	2.696400	-8.072700	29.460488	0.000200	20.835387
2441.653211	-3.008500	2.692800	-8.100000	29.435346	0.000200	20.820002
2442.650913	-3.032300	2.687800	-8.149700	29.405587	0.000200	20.809922
2443.656958	-3.001200	2.684800	-8.055700	29.379517	0.000201	20.816362
2444.653827	-3.008800	2.682500	-8.070400	29.328463	0.000201	20.814693
2445.651473	-2.992800	2.678000	-8.014000	29.303234	0.000201	20.817716
2446.656285	-2.972800	2.674800	-7.950700	29.263889	0.000202	20.793712
2447.658465	-2.974500	2.670400	-7.941500	29.257234	0.000199	20.805971
2448.653626	-3.015600	2.666200	-8.038800	29.237723	0.000200	20.797214
2449.656886	-2.992800	2.663500	-7.970400	29.241443	0.000200	20.808549
2450.656202	-2.998600	2.658100	-7.969700	29.197759	0.000199	20.806727
2451.654720	-3.019200	2.653700	-8.011100	29.159258	0.000199	20.798750
2452.655738	-2.973600	2.649500	-7.877000	29.108591	0.000201	20.806490
2453.658137	-2.993300	2.643600	-7.911100	29.099925	0.000203	20.797758
2454.653127	-3.004000	2.640900	-7.932100	29.123698	0.000200	20.828350
2455.660432	-3.028700	2.635200	-7.979200	29.142481	0.000201	20.797017
2456.658120	-3.004600	2.632200	-7.906600	29.194466	0.000203	20.791555
2457.657856	-3.012300	2.627400	-7.913400	29.204719	0.000201	20.803784
2458.661574	-3.005500	2.622900	-7.882100	29.191721	0.000203	20.807281
2459.658718	-2.993700	2.617000	-7.833000	29.198284	0.000201	20.793980
2460.655900	-2.988600	2.613100	-7.808000	29.207577	0.000201	20.794336
2461.657926	-2.991700	2.607000	-7.798600	29.260872	0.000202	20.790671
2462.659343	-2.994200	2.602400	-7.790900	29.291130	0.000203	20.781810
2463.657130	-3.005800	2.596100	-7.801600	29.395450	0.000204	20.803024
2464.662050	-3.033200	2.591200	-7.858800	29.419398	0.000204	20.788281
2465.664071	-2.992100	2.587300	-7.740600	29.406049	0.000203	20.806595
2466.659909	-3.005000	2.580500	-7.753300	29.390446	0.000203	20.803196
2467.663987	-3.035100	2.574400	-7.812200	29.382326	0.000203	20.801176
2468.663699	-2.965200	2.571900	-7.625800	29.341740	0.000201	20.788720
2469.659458	-2.992400	2.563600	-7.670300	29.367596	0.000203	20.806244
2470.664131	-3.005800	2.558200	-7.689100	29.432589	0.000201	20.784033
2471.664166	-3.020700	2.552100	-7.708100	29.468492	0.000203	20.782764
2472.658312	-2.982500	2.548300	-7.599800	29.425930	0.000204	20.801977
2473.663484	-3.037700	2.540700	-7.716800	29.403888	0.000202	20.806787
2474.662272	-3.005400	2.534600	-7.615400	29.448431	0.000204	20.794785
2475.663851	-3.025500	2.527700	-7.646600	29.455541	0.000203	20.797210
2476.668744	-2.964400	2.525000	-7.484400	29.403471	0.000202	20.802100
2477.664798	-3.004000	2.515400	-7.555000	29.312008	0.000202	20.807592
2478.665620	-2.994200	2.509600	-7.513400	29.249805	0.000202	20.788053
2479.663950	-2.988000	2.503600	-7.479400	29.215439	0.000202	20.791827
2480.664636	-3.003700	2.496100	-7.496600	29.219105	0.000201	20.790780
