LabVIEW Measurement	
Writer_Version	2
Reader_Version	2
Separator	Tab
Decimal_Separator	.
Multi_Headings	No
X_Columns	One
Time_Pref	Absolute
Operator	admin
Description	Clolumns are: time, Current, Voltage, Power, Battery Temp, and Chamber Temp
Date	2024/08/16
Time	13:06:06.104549407958984375
***End_of_Header***	
	
Channels	6						
Samples	1	1	1	1	1	1	
Date	2024/08/27	2024/08/27	2024/08/27	2024/08/27	2024/08/27	2024/08/27	
Time	19:25:26.0516510009765625	19:25:26.0576529502868652344	19:25:26.0626864433288574219	19:25:26.0366296768188476563	19:25:26.0366296768188476563	19:25:26.0366296768188476563	
X_Dimension	Time	Time	Time	Time	Time	Time	
X0	0.0000000000000000E+0	0.0000000000000000E+0	0.0000000000000000E+0	0.0000000000000000E+0	0.0000000000000000E+0	0.0000000000000000E+0	
Delta_X	1.000000	1.000000	1.000000	1.000000	1.000000	1.000000	
***End_of_Header***							
X_Value	Untitled	Untitled 1	Untitled 2	Untitled 3	Untitled 4	Untitled 5	Comment
0.000000	0.072114	4.109000	0.295630	21.055448	0.000955	20.747276
1.009753	-2.999100	3.947000	-11.836000	21.056102	0.000956	20.758362
2.003550	-3.006100	3.940700	-11.846000	21.039854	0.000953	20.760602
3.007524	-3.013600	3.935000	-11.858000	21.054255	0.000954	20.746557
4.009840	-3.014500	3.932200	-11.853000	21.053977	0.000952	20.767142
5.000498	-2.992600	3.928300	-11.753000	21.059069	0.000952	20.739992
6.003201	-3.002000	3.926200	-11.786000	21.074336	0.000950	20.746254
7.014693	-3.011700	3.922600	-11.813000	21.067152	0.000953	20.748552
8.004251	-3.001400	3.919300	-11.763000	21.064807	0.000947	20.753792
9.000556	-2.997200	3.919300	-11.746000	21.077075	0.000949	20.760373
10.007338	-2.992000	3.916700	-11.718000	21.075162	0.000949	20.758934
11.009254	-2.996600	3.915000	-11.731000	21.094688	0.000947	20.770404
12.005622	-3.026100	3.911500	-11.835000	21.073217	0.000948	20.740867
13.004768	-3.021600	3.911100	-11.816000	21.084790	0.000946	20.757185
14.012537	-2.994500	3.909500	-11.706000	21.095693	0.000944	20.753391
15.007427	-3.006100	3.909400	-11.750000	21.082272	0.000944	20.748502
16.008410	-3.007600	3.907900	-11.753000	21.090773	0.000944	20.771704
17.007427	-2.994800	3.906300	-11.697000	21.113959	0.000945	20.774982
18.007179	-3.011300	3.905300	-11.758000	21.094172	0.000943	20.757561
19.007362	-3.011200	3.904600	-11.756000	21.106293	0.000941	20.766366
20.006380	-3.002100	3.903500	-11.718000	21.100833	0.000942	20.763749
21.006902	-3.005000	3.902800	-11.726000	21.113027	0.000943	20.757929
22.006175	-3.011300	3.902500	-11.750000	21.125352	0.000943	20.775947
23.008952	-2.999700	3.901300	-11.702000	21.123734	0.000939	20.760103
24.009384	-2.991000	3.902000	-11.669000	21.138853	0.000938	20.759580
25.012412	-3.020100	3.898500	-11.771000	21.137080	0.000936	20.750694
26.016532	-3.009900	3.897500	-11.730000	21.139752	0.000939	20.756212
27.012256	-3.006000	3.898600	-11.718000	21.152150	0.000937	20.776675
28.013851	-3.014700	3.897300	-11.748000	21.180517	0.000937	20.752419
29.008313	-2.991300	3.897700	-11.657000	21.145432	0.000938	20.786550
30.008242	-3.002200	3.898000	-11.701000	21.184505	0.000937	20.780591
31.013821	-3.010900	3.895300	-11.727000	21.163698	0.000938	20.778269
32.007906	-3.018000	3.894400	-11.752000	21.145457	0.000935	20.778514
33.006903	-2.993400	3.895100	-11.658000	21.177763	0.000937	20.786174
34.011539	-2.997100	3.893000	-11.667000	21.192285	0.000936	20.777942
35.014586	-2.986700	3.895300	-11.634000	21.181849	0.000934	20.793581
36.008948	-3.018200	3.892700	-11.749000	21.198619	0.000935	20.808934
37.009271	-2.998400	3.892000	-11.669000	21.226134	0.000934	20.775767
38.012805	-2.988500	3.890800	-11.627000	21.226927	0.000932	20.777035
39.022356	-2.984100	3.891300	-11.611000	21.226224	0.000933	20.796246
40.011888	-2.987100	3.891400	-11.623000	21.213844	0.000933	20.788603
41.011592	-3.039800	3.887600	-11.816000	21.229191	0.000932	20.785938
42.014857	-3.016000	3.889700	-11.730000	21.241906	0.000932	20.779692
43.010398	-2.980800	3.891100	-11.598000	21.241008	0.000932	20.767413
44.014651	-3.009700	3.888300	-11.701000	21.235671	0.000932	20.781515
45.011424	-3.008900	3.888500	-11.699000	21.259370	0.000929	20.794317
46.013247	-3.000000	3.889400	-11.668000	21.277724	0.000930	20.796557
47.011552	-2.981100	3.889300	-11.593000	21.274177	0.000927	20.782578
48.017055	-3.011200	3.886700	-11.703000	21.279701	0.000930	20.769612
49.012069	-2.999000	3.887000	-11.655000	21.303840	0.000930	20.792813
50.012360	-2.995700	3.887400	-11.644000	21.290520	0.000930	20.796557
51.011898	-3.000500	3.886500	-11.661000	21.310050	0.000931	20.799026
52.014312	-3.018400	3.886500	-11.730000	21.311897	0.000930	20.797555
53.017131	-2.996600	3.885600	-11.642000	21.310966	0.000927	20.776708
54.012711	-2.986300	3.886200	-11.604000	21.336763	0.000930	20.788292
55.015199	-3.014200	3.885700	-11.710000	21.309748	0.000928	20.811526
56.034640	-3.018100	3.883600	-11.719000	21.319194	0.000928	20.819554
57.019354	-3.012700	3.884200	-11.700000	21.335063	0.000929	20.802239
58.016476	-3.016100	3.883700	-11.712000	21.370632	0.000927	20.796100
59.020092	-3.000500	3.883300	-11.650000	21.393502	0.000929	20.795748
60.022482	-3.008100	3.882600	-11.678000	21.371065	0.000927	20.793214
61.016756	-2.993600	3.882200	-11.621000	21.361276	0.000926	20.792903
62.014970	-3.007100	3.882700	-11.673000	21.377659	0.000926	20.794596
63.014115	-2.998700	3.880200	-11.635000	21.381557	0.000928	20.801814
64.016186	-3.002700	3.881300	-11.654000	21.379367	0.000927	20.794882
65.019124	-2.986100	3.881900	-11.591000	21.387693	0.000926	20.793729
66.025014	-3.007500	3.880800	-11.670000	21.392203	0.000928	20.811044
67.024734	-2.982200	3.881300	-11.572000	21.390733	0.000924	20.798193
68.019564	-3.000600	3.880500	-11.642000	21.429070	0.000924	20.820429
69.028932	-2.983400	3.880400	-11.575000	21.418759	0.000926	20.803948
70.021043	-3.010800	3.879700	-11.680000	21.411707	0.000926	20.805902
71.024015	-3.014300	3.879300	-11.693000	21.434830	0.000927	20.804381
72.020161	-2.995100	3.880400	-11.621000	21.438548	0.000925	20.810471
73.022538	-3.013900	3.878800	-11.689000	21.433376	0.000924	20.834220
74.022921	-3.000100	3.879100	-11.636000	21.462757	0.000925	20.815728
75.027544	-2.990300	3.879000	-11.598000	21.472488	0.000926	20.828309
76.024637	-3.002200	3.879000	-11.645000	21.464979	0.000925	20.832650
77.022431	-3.018500	3.877000	-11.701000	21.484506	0.000924	20.829429
78.019232	-3.020100	3.876800	-11.707000	21.482660	0.000925	20.829004
79.030870	-3.004000	3.877500	-11.646000	21.496475	0.000924	20.826233
80.019469	-3.003800	3.876400	-11.644000	21.477292	0.000927	20.821737
81.025028	-2.999200	3.876300	-11.625000	21.503159	0.000923	20.829601
82.022143	-2.983700	3.877200	-11.567000	21.527072	0.000925	20.815598
83.027477	-2.978000	3.877800	-11.546000	21.505806	0.000923	20.807594
84.021264	-3.003400	3.876400	-11.642000	21.549645	0.000924	20.807839
85.034788	-2.998800	3.877300	-11.626000	21.519441	0.000923	20.830721
86.030375	-2.986300	3.877300	-11.578000	21.551467	0.000923	20.838585
87.025394	-2.995400	3.875900	-11.608000	21.548028	0.000925	20.835143
88.021567	-2.986600	3.876900	-11.578000	21.558452	0.000924	20.838462
89.019765	-2.968700	3.877000	-11.508000	21.560568	0.000925	20.826830
90.019989	-2.989600	3.875100	-11.583000	21.588974	0.000924	20.833443
91.024932	-3.002000	3.875000	-11.632000	21.571826	0.000923	20.799689
92.022989	-2.981300	3.876500	-11.556000	21.582716	0.000923	20.837612
93.021618	-2.996700	3.873100	-11.605000	21.577831	0.000924	20.834620
94.044890	-3.022200	3.873000	-11.704000	21.579734	0.000925	20.820404
95.019990	-2.975000	3.874700	-11.526000	21.602600	0.000924	20.839966
96.025232	-3.019500	3.872600	-11.692000	21.588957	0.000926	20.804504
97.025423	-3.016400	3.872900	-11.681000	21.586441	0.000926	20.804831
98.024310	-3.005100	3.874200	-11.640000	21.612796	0.000925	20.812712
99.024348	-2.999700	3.873000	-11.616000	21.596391	0.000924	20.809098
100.034298	-3.008500	3.873400	-11.652000	21.604177	0.000923	20.797449
101.027413	-3.018400	3.872300	-11.687000	21.617713	0.000924	20.803408
102.034930	-3.010500	3.871700	-11.655000	21.616619	0.000922	20.808477
103.038320	-3.002300	3.870800	-11.620000	21.631486	0.000924	20.802018
104.027219	-3.009300	3.871800	-11.650000	21.625474	0.000925	20.808804
105.028679	-3.033800	3.871000	-11.741000	21.637376	0.000924	20.813128
106.032843	-3.012900	3.872600	-11.666000	21.623375	0.000924	20.808125
107.026082	-3.032000	3.870600	-11.734000	21.649115	0.000923	20.807332
108.026701	-3.010800	3.871400	-11.655000	21.645374	0.000924	20.789838
109.027166	-3.010600	3.870500	-11.652000	21.658542	0.000925	20.801119
110.037889	-2.978400	3.871800	-11.531000	21.671662	0.000925	20.801446
111.031246	-2.998800	3.871000	-11.608000	21.684552	0.000925	20.796329
112.030044	-2.990500	3.870000	-11.571000	21.697769	0.000926	20.813349
113.029068	-2.982900	3.871300	-11.546000	21.697565	0.000924	20.807929
114.034899	-2.987200	3.870500	-11.560000	21.694755	0.000924	20.799901
115.039578	-3.004100	3.869700	-11.624000	21.722806	0.000927	20.799525
116.037402	-2.991100	3.869200	-11.572000	21.699493	0.000927	20.806065
117.034068	-3.005100	3.869000	-11.626000	21.722062	0.000924	20.782185
118.030684	-3.001300	3.870100	-11.614000	21.727748	0.000927	20.804471
119.036922	-2.979200	3.869800	-11.529000	21.720086	0.000925	20.816717
120.030930	-2.987500	3.869700	-11.559000	21.719587	0.000927	20.780657
121.028979	-3.023400	3.867600	-11.692000	21.725779	0.000926	20.807716
122.035792	-2.992200	3.867900	-11.573000	21.730264	0.000925	20.793238
123.028427	-3.002300	3.868300	-11.611000	21.701559	0.000925	20.799599
124.036024	-3.009600	3.867100	-11.637000	21.727617	0.000927	20.802918
125.030362	-3.001300	3.867000	-11.606000	21.712930	0.000925	20.791064
126.033027	-3.001400	3.869000	-11.612000	21.732436	0.000927	20.789723
127.031284	-2.996900	3.867000	-11.588000	21.711639	0.000925	20.805419
128.032644	-2.996500	3.867900	-11.589000	21.720159	0.000927	20.776487
129.047020	-2.995600	3.867400	-11.584000	21.743856	0.000927	20.774599
130.034938	-2.992500	3.868000	-11.573000	21.753601	0.000924	20.776291
131.042224	-2.998100	3.867900	-11.596000	21.747662	0.000927	20.768925
132.032248	-2.979300	3.867800	-11.522000	21.753421	0.000929	20.792707
133.044683	-3.007700	3.866400	-11.628000	21.781062	0.000929	20.795241
134.035781	-2.995600	3.866200	-11.580000	21.769708	0.000929	20.757325
135.032058	-2.991400	3.865200	-11.562000	21.767274	0.000928	20.777174
136.037744	-3.004100	3.864900	-11.609000	21.804913	0.000929	20.790189
137.034104	-3.012700	3.864200	-11.640000	21.787270	0.000929	20.766366
138.044434	-2.998400	3.865800	-11.590000	21.792073	0.000928	20.758845
139.037512	-2.984600	3.865400	-11.535000	21.806162	0.000929	20.805664
140.038855	-3.013200	3.864600	-11.643000	21.806718	0.000929	20.800530
141.036240	-2.984700	3.864800	-11.534000	21.798811	0.000928	20.780763
142.042721	-2.994900	3.864300	-11.572000	21.819827	0.000928	20.769555
143.033570	-2.986800	3.864400	-11.542000	21.829024	0.000928	20.794882
144.037049	-3.014600	3.863400	-11.645000	21.849950	0.000930	20.785480
145.048379	-2.987900	3.864400	-11.546000	21.860543	0.000930	20.766685
146.034519	-2.983200	3.863600	-11.525000	21.851959	0.000928	20.785595
147.040834	-2.994900	3.863000	-11.568000	21.875277	0.000931	20.749190
148.040611	-2.993000	3.862700	-11.559000	21.846528	0.000929	20.785374
149.038536	-2.990800	3.864600	-11.557000	21.848766	0.000930	20.780502
150.040987	-3.012800	3.862300	-11.635000	21.857391	0.000931	20.764952
151.050220	-3.010000	3.861700	-11.623000	21.861262	0.000931	20.767879
152.041172	-2.996400	3.862400	-11.572000	21.883600	0.000930	20.777910
153.043048	-2.996900	3.862600	-11.574000	21.897011	0.000931	20.776161
154.039711	-3.006000	3.862400	-11.608000	21.882056	0.000932	20.761666
155.046467	-3.012400	3.862300	-11.634000	21.896308	0.000932	20.773087
156.044995	-2.982000	3.863800	-11.520000	21.901323	0.000931	20.770994
157.041011	-2.993400	3.863100	-11.562000	21.913345	0.000934	20.756000
158.057989	-3.004400	3.863100	-11.605000	21.921667	0.000931	20.762434
159.040958	-3.008800	3.860100	-11.613000	21.937225	0.000932	20.770896
160.044355	-3.003500	3.861000	-11.596000	21.915509	0.000932	20.764331
161.057611	-3.020900	3.859800	-11.658000	21.929589	0.000933	20.769890
162.042474	-2.995900	3.861300	-11.567000	21.963327	0.000932	20.745814
163.045840	-2.994500	3.861300	-11.562000	21.953576	0.000934	20.748855
164.044056	-3.018600	3.860900	-11.653000	21.972727	0.000932	20.744318
165.049907	-2.998500	3.861900	-11.579000	21.985565	0.000935	20.772817
166.048336	-3.015200	3.858100	-11.632000	21.990146	0.000932	20.767446
167.048359	-3.006700	3.859000	-11.603000	21.994238	0.000934	20.746885
168.057222	-3.029100	3.858800	-11.688000	22.000918	0.000935	20.773013
169.045218	-2.989900	3.860100	-11.541000	22.006357	0.000935	20.750008
170.044285	-3.017500	3.859500	-11.644000	22.012286	0.000936	20.760211
171.052966	-2.988800	3.860800	-11.538000	22.001016	0.000936	20.760309
172.053347	-3.007900	3.856600	-11.599000	22.011420	0.000934	20.773569
173.054723	-3.000100	3.858700	-11.575000	22.022412	0.000935	20.771770
174.052574	-2.997900	3.858500	-11.566000	22.014981	0.000936	20.762908
175.053478	-3.003400	3.857600	-11.585000	22.036687	0.000937	20.746705
176.051330	-3.003300	3.857700	-11.585000	22.045441	0.000938	20.764952
177.053641	-2.985400	3.858000	-11.516000	22.038312	0.000938	20.748806
178.051511	-2.989400	3.856700	-11.528000	22.054269	0.000939	20.730640
179.055508	-3.013900	3.857200	-11.624000	22.055591	0.000939	20.751880
180.054141	-3.012300	3.856700	-11.615000	22.064117	0.000940	20.777011
181.051138	-3.000200	3.858000	-11.574000	22.069874	0.000940	20.753850
182.049256	-3.011900	3.856600	-11.615000	22.065709	0.000939	20.743991
183.049956	-3.007800	3.857200	-11.601000	22.056065	0.000940	20.755673
184.054041	-2.981600	3.856900	-11.499000	22.039969	0.000940	20.726756
185.057335	-2.996400	3.856000	-11.554000	22.076937	0.000941	20.736739
186.051168	-3.010700	3.854400	-11.603000	22.067636	0.000941	20.754455
187.061275	-2.998500	3.856900	-11.564000	22.110385	0.000942	20.751259
188.050536	-2.999400	3.853900	-11.558000	22.100920	0.000944	20.743206
189.054519	-2.995900	3.854400	-11.545000	22.105526	0.000942	20.731695
190.053384	-3.003400	3.855100	-11.578000	22.115978	0.000943	20.737891
191.054175	-3.001400	3.855300	-11.569000	22.107551	0.000943	20.737041
192.051630	-2.969600	3.855700	-11.449000	22.130717	0.000942	20.758338
193.055219	-2.996700	3.854100	-11.548000	22.132783	0.000942	20.726740
194.051831	-3.012600	3.853400	-11.608000	22.145994	0.000944	20.726217
195.051565	-2.997800	3.854200	-11.553000	22.157981	0.000944	20.773781
196.052641	-3.011100	3.854300	-11.604000	22.175953	0.000944	20.757635
197.053793	-3.007300	3.852500	-11.584000	22.166906	0.000946	20.741938
198.055752	-3.007500	3.853800	-11.590000	22.177929	0.000945	20.734482
199.056615	-2.996600	3.854200	-11.547000	22.181367	0.000946	20.733182
200.062785	-2.998100	3.852700	-11.550000	22.171127	0.000945	20.742371
201.060538	-2.994600	3.854100	-11.540000	22.170556	0.000946	20.748912
202.050485	-3.009700	3.851900	-11.591000	22.203796	0.000946	20.739518
203.070813	-2.979100	3.852200	-11.475000	22.179301	0.000947	20.749132
204.063174	-3.003000	3.851300	-11.564000	22.205919	0.000946	20.739273
205.061444	-3.006000	3.852200	-11.578000	22.205176	0.000947	20.743745
206.053688	-2.992000	3.851300	-11.522000	22.207797	0.000949	20.749688
207.056469	-3.004100	3.850900	-11.566000	22.225000	0.000947	20.742257
208.062541	-3.003200	3.850700	-11.564000	22.237305	0.000949	20.734662
209.061751	-3.000100	3.850700	-11.551000	22.253169	0.000949	20.730157
210.059901	-2.999900	3.852100	-11.555000	22.247633	0.000948	20.731252
211.060909	-2.991800	3.851200	-11.520000	22.262354	0.000950	20.737932
212.064957	-3.013400	3.850600	-11.602000	22.267049	0.000952	20.740736
213.064849	-2.997300	3.849700	-11.537000	22.273409	0.000952	20.751372
214.075266	-3.009700	3.850500	-11.588000	22.265530	0.000952	20.741112
215.070116	-2.999100	3.850600	-11.548000	22.296727	0.000952	20.718294
216.070938	-2.998200	3.850900	-11.545000	22.271139	0.000953	20.734874
217.059758	-3.000500	3.849600	-11.549000	22.300670	0.000953	20.737417
218.068515	-2.985700	3.849900	-11.494000	22.287166	0.000952	20.741913
219.061788	-3.015700	3.848800	-11.606000	22.309079	0.000954	20.715964
220.071622	-2.973200	3.849700	-11.444000	22.298335	0.000955	20.740294
221.070584	-3.002400	3.849100	-11.554000	22.324281	0.000956	20.740670
222.059673	-3.001900	3.848700	-11.553000	22.316607	0.000955	20.735830
223.065973	-3.003200	3.847600	-11.553000	22.327751	0.000954	20.742722
224.063951	-3.004000	3.847900	-11.557000	22.323334	0.000956	20.722651
225.067050	-3.017800	3.848400	-11.612000	22.313814	0.000956	20.737302
226.061031	-3.014800	3.847900	-11.600000	22.329277	0.000956	20.724810
227.060726	-3.019500	3.847500	-11.617000	22.348806	0.000956	20.728244
228.061502	-3.001200	3.847500	-11.546000	22.376620	0.000957	20.746140
229.064680	-2.988400	3.848100	-11.499000	22.349059	0.000956	20.724703
230.063344	-3.001300	3.846500	-11.544000	22.361721	0.000957	20.716520
231.068566	-3.005700	3.845500	-11.557000	22.394368	0.000958	20.718866
232.063289	-3.002000	3.846600	-11.546000	22.392327	0.000960	20.726780
233.068052	-3.004100	3.846600	-11.554000	22.393323	0.000961	20.730622
234.067348	-2.973500	3.846900	-11.438000	22.384474	0.000959	20.713699
235.067815	-2.993800	3.846500	-11.515000	22.419618	0.000959	20.728979
236.070068	-2.987500	3.846900	-11.489000	22.400679	0.000960	20.710012
237.065734	-3.015400	3.846500	-11.597000	22.415512	0.000963	20.734824
238.067868	-2.980200	3.846400	-11.462000	22.400107	0.000961	20.722717
239.076500	-2.993800	3.845200	-11.510000	22.425373	0.000961	20.720043
240.068166	-2.968800	3.846700	-11.418000	22.438231	0.000963	20.729126
241.066882	-2.993800	3.845400	-11.512000	22.430565	0.000962	20.708646
242.069907	-2.975400	3.846300	-11.443000	22.440982	0.000962	20.719078
243.072647	-2.976200	3.845800	-11.445000	22.451496	0.000964	20.704951
244.066230	-3.026200	3.843500	-11.630000	22.431610	0.000965	20.699735
245.081177	-2.989800	3.844500	-11.493000	22.435896	0.000964	20.713511
246.066175	-2.992300	3.844600	-11.503000	22.454084	0.000965	20.708491
247.072396	-2.995300	3.844700	-11.515000	22.461684	0.000966	20.729380
248.067092	-2.981300	3.842700	-11.455000	22.432810	0.000966	20.717059
249.068062	-3.017900	3.841300	-11.592000	22.448084	0.000968	20.685411
250.069071	-3.003400	3.843400	-11.543000	22.450696	0.000967	20.712211
251.067191	-3.004400	3.842800	-11.544000	22.469022	0.000967	20.698794
252.078280	-3.005200	3.843100	-11.547000	22.435251	0.000967	20.702907
253.067311	-2.998700	3.842300	-11.520000	22.481324	0.000969	20.715857
254.070774	-3.014500	3.841600	-11.579000	22.477096	0.000969	20.710199
255.074982	-3.016700	3.840300	-11.584000	22.475577	0.000969	20.695876
256.067387	-3.014800	3.841600	-11.580000	22.460671	0.000971	20.717934
257.069036	-2.987300	3.841900	-11.475000	22.465789	0.000970	20.714524
258.075006	-3.013600	3.841600	-11.576000	22.486067	0.000971	20.708752
259.073992	-2.990500	3.841800	-11.487000	22.509821	0.000971	20.723534
260.071045	-2.992800	3.840600	-11.492000	22.478793	0.000970	20.703839
261.073287	-3.007600	3.840600	-11.548000	22.505494	0.000971	20.689801
262.073662	-2.982300	3.840000	-11.451000	22.519469	0.000971	20.683881
263.068741	-3.005800	3.839500	-11.539000	22.526873	0.000973	20.701729
264.076668	-2.989600	3.840200	-11.480000	22.512522	0.000974	20.688779
265.073648	-2.990800	3.839400	-11.482000	22.521518	0.000973	20.680717
266.084998	-2.982100	3.840200	-11.452000	22.536464	0.000973	20.708965
267.074482	-2.992600	3.840800	-11.493000	22.528627	0.000974	20.685467
268.073539	-3.007800	3.839400	-11.547000	22.554144	0.000976	20.689686
269.081162	-2.988100	3.838800	-11.470000	22.579480	0.000974	20.701786
270.074847	-3.008900	3.839500	-11.552000	22.564078	0.000974	20.689204
271.077216	-3.005100	3.838600	-11.534000	22.573113	0.000976	20.692090
272.080869	-2.998900	3.838900	-11.511000	22.579088	0.000977	20.696652
273.075205	-2.989000	3.839000	-11.474000	22.601101	0.000977	20.710640
274.079505	-3.006900	3.837200	-11.537000	22.586687	0.000979	20.704737
275.073455	-2.995900	3.839100	-11.500000	22.593894	0.000978	20.706266
276.080408	-3.005800	3.838300	-11.537000	22.604440	0.000981	20.694068
277.072588	-3.012800	3.837100	-11.559000	22.615867	0.000977	20.687021
278.076904	-2.990100	3.837900	-11.474000	22.619066	0.000980	20.703029
279.076998	-3.007500	3.837000	-11.539000	22.603648	0.000980	20.687584
280.076334	-2.978500	3.838000	-11.431000	22.587854	0.000981	20.689309
281.081286	-3.021000	3.835800	-11.587000	22.607313	0.000982	20.695049
282.075783	-3.022600	3.834700	-11.589000	22.610725	0.000982	20.702734
283.078126	-2.983000	3.836700	-11.444000	22.633342	0.000983	20.692196
284.080175	-2.995600	3.835900	-11.489000	22.626918	0.000984	20.669638
285.077819	-2.984200	3.836300	-11.447000	22.615034	0.000984	20.680022
286.082128	-3.022200	3.834000	-11.586000	22.647951	0.000984	20.692130
287.079986	-2.986400	3.835200	-11.451000	22.646531	0.000984	20.665101
288.091596	-3.011100	3.834600	-11.545000	22.627693	0.000985	20.690806
289.082043	-3.004800	3.834200	-11.520000	22.658815	0.000985	20.691631
290.077075	-2.996800	3.834600	-11.490000	22.661426	0.000986	20.683341
291.083169	-2.997800	3.835300	-11.495000	22.654979	0.000985	20.697747
292.083880	-3.013000	3.833800	-11.551000	22.676754	0.000988	20.685892
293.084702	-2.990800	3.833800	-11.465000	22.679627	0.000986	20.690667
294.083622	-3.021800	3.832700	-11.580000	22.685805	0.000987	20.692588
295.080760	-2.992500	3.833100	-11.470000	22.662977	0.000990	20.688214
296.087661	-2.995300	3.832200	-11.477000	22.667392	0.000989	20.682205
297.081425	-3.004700	3.833700	-11.518000	22.679545	0.000991	20.678730
298.083806	-2.992500	3.834600	-11.474000	22.682818	0.000988	20.689595
299.080904	-2.994400	3.832500	-11.476000	22.680990	0.000992	20.688713
300.084946	-3.001100	3.832100	-11.498000	22.670159	0.000993	20.686399
301.093086	-2.986200	3.833300	-11.446000	22.684638	0.000992	20.682883
302.088774	-3.008000	3.832600	-11.527000	22.706560	0.000991	20.676391
303.086064	-3.011000	3.833300	-11.540000	22.693558	0.000994	20.685180
304.084864	-3.003100	3.830800	-11.503000	22.682622	0.000995	20.678018
305.086399	-2.978900	3.832700	-11.415000	22.693085	0.000994	20.680438
306.080789	-3.001000	3.832400	-11.499000	22.677137	0.000993	20.677740
307.090591	-3.011900	3.829900	-11.534000	22.673375	0.000994	20.673023
308.096247	-3.010000	3.830100	-11.528000	22.682271	0.000994	20.671976
309.082652	-3.006600	3.831000	-11.517000	22.684140	0.000993	20.647293
310.086650	-2.985700	3.831400	-11.438000	22.697966	0.000995	20.674421
311.089087	-2.986800	3.830900	-11.442000	22.719642	0.000995	20.687126
312.088783	-2.990800	3.830900	-11.456000	22.749390	0.000997	20.698433
313.087996	-2.981400	3.830500	-11.419000	22.758832	0.000997	20.671380
314.086239	-2.987900	3.829800	-11.442000	22.745032	0.000997	20.672254
315.091403	-2.995500	3.829400	-11.469000	22.773408	0.000999	20.682662
316.087312	-3.011300	3.827400	-11.525000	22.765312	0.000997	20.677397
317.088336	-2.997100	3.828300	-11.473000	22.771588	0.001000	20.682262
318.097522	-2.980100	3.828500	-11.409000	22.786857	0.001000	20.663416
319.088080	-2.984400	3.827400	-11.422000	22.756115	0.001000	20.658224
320.097511	-2.985800	3.827800	-11.428000	22.756865	0.000999	20.652812
321.087171	-2.980100	3.827500	-11.405000	22.724286	0.001000	20.689881
322.085116	-3.024900	3.825400	-11.569000	22.731754	0.001000	20.665117
323.100946	-3.002000	3.826000	-11.485000	22.761501	0.001001	20.668363
324.088696	-2.981600	3.827300	-11.410000	22.761003	0.001001	20.665493
325.088784	-3.008600	3.827200	-11.513000	22.779635	0.001002	20.669932
326.098761	-3.012500	3.826700	-11.527000	22.788554	0.001002	20.655633
327.104104	-3.013100	3.827900	-11.532000	22.781773	0.001003	20.671600
328.105818	-3.005400	3.825000	-11.494000	22.810180	0.001004	20.669712
329.091259	-3.005500	3.826100	-11.499000	22.818202	0.001003	20.689603
330.090988	-2.992200	3.826000	-11.447000	22.813763	0.001006	20.660023
331.091788	-3.005200	3.824700	-11.493000	22.827717	0.001005	20.685385
332.090382	-3.018200	3.824100	-11.541000	22.847743	0.001006	20.684584
333.094718	-2.982600	3.825200	-11.408000	22.870437	0.001006	20.667962
334.090600	-3.012500	3.824200	-11.519000	22.861216	0.001006	20.685279
335.095675	-3.003400	3.824300	-11.485000	22.874468	0.001008	20.679114
336.091346	-3.008900	3.822500	-11.500000	22.861020	0.001007	20.671805
337.100507	-3.007400	3.824400	-11.499000	22.847670	0.001007	20.683087
338.096981	-3.005400	3.823800	-11.491000	22.863533	0.001008	20.679065
339.097080	-2.985100	3.822900	-11.411000	22.879878	0.001005	20.658927
340.097728	-3.022100	3.822800	-11.551000	22.907133	0.001008	20.659680
341.096860	-3.014800	3.822600	-11.522000	22.886978	0.001008	20.676947
342.099312	-2.989100	3.822400	-11.424000	22.887051	0.001011	20.665640
343.095602	-3.031000	3.821900	-11.581000	22.870135	0.001010	20.652959
344.098967	-3.018800	3.822600	-11.538000	22.910168	0.001009	20.680267
345.100599	-3.031600	3.820000	-11.579000	22.916142	0.001013	20.683406
346.106124	-2.983700	3.822900	-11.405000	22.914975	0.001013	20.669434
347.106482	-3.002100	3.821000	-11.469000	22.867638	0.001012	20.668477
348.099010	-2.983200	3.821300	-11.398000	22.866145	0.001014	20.667929
349.102525	-3.010500	3.821000	-11.502000	22.867891	0.001013	20.703347
350.097339	-3.018800	3.820900	-11.534000	22.850820	0.001014	20.679130
351.098564	-3.000900	3.821100	-11.466000	22.855577	0.001014	20.675361
352.099421	-2.993000	3.819700	-11.431000	22.890054	0.001014	20.682401
353.097108	-3.004900	3.820000	-11.477000	22.873563	0.001015	20.671568
354.096547	-2.999500	3.820200	-11.458000	22.871637	0.001017	20.663474
355.114008	-3.007500	3.819700	-11.487000	22.903494	0.001015	20.685434
356.101633	-3.008000	3.818600	-11.485000	22.884391	0.001015	20.699963
357.098920	-2.992800	3.817900	-11.424000	22.894771	0.001017	20.674798
358.101237	-3.011300	3.818200	-11.497000	22.930438	0.001017	20.691092
359.097332	-3.003900	3.817800	-11.466000	22.927329	0.001017	20.697461
360.104461	-2.986100	3.819300	-11.404000	22.931058	0.001017	20.696455
361.114276	-3.021500	3.817100	-11.533000	22.962865	0.001018	20.688966
362.111166	-3.007100	3.817900	-11.480000	22.976638	0.001018	20.697077
363.105035	-2.982900	3.818700	-11.390000	22.976255	0.001019	20.679622
364.101430	-2.991300	3.818000	-11.420000	22.967083	0.001020	20.663793
365.103329	-3.009600	3.817000	-11.486000	22.987735	0.001019	20.700135
366.103898	-3.004300	3.816600	-11.465000	23.004649	0.001019	20.702383
367.108714	-2.998700	3.816600	-11.444000	23.018960	0.001020	20.699653
368.109431	-2.998600	3.816000	-11.442000	22.996498	0.001021	20.698483
369.099859	-2.972400	3.816600	-11.342000	23.014530	0.001022	20.703274
370.097914	-2.989500	3.817100	-11.410000	23.050087	0.001021	20.702392
371.102189	-3.010500	3.815000	-11.484000	23.043217	0.001021	20.673220
372.109643	-3.015600	3.813900	-11.500000	23.051458	0.001023	20.690013
373.106313	-2.991500	3.814500	-11.410000	23.045429	0.001023	20.692033
374.106350	-2.998200	3.814400	-11.436000	23.056582	0.001023	20.698942
375.105270	-3.001100	3.814800	-11.447000	23.042393	0.001021	20.691837
376.098593	-3.011900	3.813400	-11.484000	23.033794	0.001025	20.695549
377.106604	-3.016900	3.813300	-11.502000	23.043650	0.001025	20.702106
378.104153	-3.000600	3.813300	-11.441000	23.049859	0.001022	20.689834
379.107462	-3.010400	3.812800	-11.478000	23.059919	0.001025	20.690431
380.108928	-2.999600	3.814500	-11.441000	23.060360	0.001025	20.690872
381.107938	-3.009100	3.811800	-11.469000	23.055856	0.001027	20.702007
382.107369	-2.976900	3.812700	-11.348000	23.050601	0.001027	20.708597
383.104952	-2.994900	3.811800	-11.414000	23.077142	0.001026	20.706267
384.106470	-2.998300	3.813200	-11.432000	23.082176	0.001028	20.697560
385.102601	-2.995700	3.811200	-11.415000	23.075894	0.001028	20.692687
386.118659	-2.997100	3.811000	-11.419000	23.092807	0.001029	20.718645
387.114996	-3.011700	3.811500	-11.478000	23.082658	0.001030	20.689507
388.110109	-3.009000	3.811900	-11.469000	23.114492	0.001029	20.706235
389.113648	-2.984900	3.810800	-11.375000	23.119714	0.001029	20.703406
390.107993	-2.993900	3.812000	-11.412000	23.124699	0.001030	20.717411
391.107777	-3.001400	3.811800	-11.439000	23.129830	0.001032	20.720657
392.118930	-2.988700	3.810000	-11.386000	23.139163	0.001030	20.709145
393.111511	-2.981400	3.811900	-11.363000	23.144572	0.001032	20.712669
394.113637	-3.008400	3.809700	-11.460000	23.159608	0.001031	20.719201
395.112573	-2.990500	3.811100	-11.395000	23.176870	0.001034	20.712792
396.114911	-2.991000	3.809800	-11.394000	23.141750	0.001033	20.707944
397.109521	-2.995000	3.809700	-11.408000	23.175149	0.001031	20.709644
398.114592	-2.981100	3.808300	-11.352000	23.188292	0.001033	20.699106
399.117836	-2.986800	3.808900	-11.376000	23.183682	0.001033	20.696383
400.126802	-3.010300	3.808200	-11.462000	23.202413	0.001035	20.711361
401.113048	-3.007100	3.806700	-11.446000	23.227261	0.001033	20.714926
402.115804	-3.009900	3.805800	-11.453000	23.205023	0.001033	20.698803
403.110636	-2.994100	3.807500	-11.398000	23.198489	0.001035	20.734932
404.112147	-3.020900	3.806800	-11.498000	23.167367	0.001035	20.710380
405.110968	-2.989700	3.806700	-11.380000	23.178225	0.001036	20.721262
406.118701	-3.010500	3.805700	-11.455000	23.191090	0.001036	20.726568
407.116523	-3.021000	3.805100	-11.494000	23.185910	0.001036	20.713790
408.122089	-2.996300	3.806800	-11.404000	23.207291	0.001037	20.731424
409.118624	-3.018400	3.806300	-11.488000	23.212839	0.001036	20.719439
410.112627	-3.017900	3.804800	-11.481000	23.209673	0.001038	20.723380
411.119068	-2.989400	3.806200	-11.377000	23.217440	0.001037	20.705083
412.110311	-2.975700	3.806700	-11.326000	23.221176	0.001037	20.726372
413.122472	-3.006400	3.806300	-11.442000	23.251758	0.001041	20.718613
414.135211	-2.981600	3.805100	-11.344000	23.258978	0.001039	20.708304
415.113924	-3.002900	3.804800	-11.424000	23.255266	0.001037	20.740148
416.115312	-3.008200	3.804000	-11.441000	23.264802	0.001040	20.726470
417.112380	-2.996900	3.804500	-11.401000	23.247370	0.001039	20.723224
418.113123	-2.987400	3.802400	-11.359000	23.268171	0.001041	20.722259
419.113979	-2.995200	3.802100	-11.387000	23.258350	0.001040	20.711468
420.121784	-2.991700	3.804200	-11.381000	23.255421	0.001040	20.731768
421.114616	-3.001500	3.802500	-11.413000	23.268783	0.001041	20.733779
422.114187	-3.004900	3.803400	-11.428000	23.270521	0.001041	20.764919
423.119004	-3.011400	3.802200	-11.448000	23.284225	0.001041	20.708950
424.119375	-3.003500	3.801200	-11.416000	23.274583	0.001041	20.717780
425.115294	-3.001600	3.801400	-11.409000	23.275774	0.001041	20.751692
426.121950	-2.991700	3.801500	-11.373000	23.280309	0.001041	20.729683
427.121110	-2.995000	3.800700	-11.383000	23.258864	0.001041	20.723364
428.116508	-3.002600	3.801700	-11.413000	23.276997	0.001041	20.732528
429.121300	-3.015200	3.800200	-11.457000	23.276794	0.001043	20.719521
430.119957	-3.027700	3.798500	-11.498000	23.290840	0.001043	20.733125
431.123019	-3.007800	3.800300	-11.429000	23.307889	0.001045	20.768230
432.122834	-3.004800	3.799600	-11.416000	23.302293	0.001044	20.737965
433.124045	-3.027400	3.798900	-11.499000	23.317106	0.001045	20.739061
434.116921	-2.999800	3.797700	-11.390000	23.325271	0.001046	20.727803
435.123051	-3.001500	3.797600	-11.397000	23.339244	0.001045	20.747023
436.122450	-3.005500	3.797800	-11.413000	23.339839	0.001042	20.733395
437.125653	-2.993300	3.800000	-11.373000	23.328289	0.001046	20.738415
438.121902	-2.996900	3.797900	-11.380000	23.325418	0.001047	20.735063
439.122041	-2.999600	3.797900	-11.391000	23.331071	0.001045	20.745470
440.123296	-2.994600	3.797800	-11.372000	23.315402	0.001048	20.727869
441.132653	-2.992000	3.798200	-11.363000	23.339831	0.001046	20.732439
442.139042	-3.005100	3.797900	-11.412000	23.309480	0.001046	20.751332
443.124481	-2.989900	3.797600	-11.353000	23.320981	0.001044	20.751954
444.128803	-3.000600	3.797100	-11.392000	23.293541	0.001048	20.752902
445.129014	-2.991600	3.797100	-11.358000	23.310026	0.001049	20.734810
446.128896	-3.019400	3.795400	-11.458000	23.314953	0.001048	20.751128
447.129163	-2.983700	3.796500	-11.327000	23.293361	0.001048	20.723797
448.129219	-2.999400	3.796100	-11.385000	23.305434	0.001049	20.755338
449.128292	-2.990400	3.795200	-11.347000	23.295409	0.001049	20.764257
450.123491	-2.998700	3.795500	-11.381000	23.303052	0.001049	20.740622
451.130302	-3.010600	3.794100	-11.421000	23.292366	0.001049	20.762156
452.124804	-3.005500	3.793900	-11.402000	23.282104	0.001050	20.758036
453.127232	-3.004100	3.793000	-11.393000	23.282276	0.001051	20.761053
454.123930	-3.015800	3.793500	-11.439000	23.292097	0.001049	20.745765
455.132177	-3.017300	3.792700	-11.443000	23.295327	0.001051	20.753744
456.127797	-3.009400	3.792600	-11.413000	23.308517	0.001049	20.735668
457.131819	-3.001600	3.793600	-11.386000	23.290066	0.001051	20.743729
458.128599	-2.983500	3.793700	-11.317000	23.294642	0.001051	20.745945
459.130339	-3.008000	3.791500	-11.404000	23.335574	0.001052	20.748087
460.136091	-3.005600	3.791900	-11.396000	23.341553	0.001053	20.751709
461.132360	-2.992500	3.792200	-11.347000	23.391773	0.001051	20.748937
462.133693	-3.024000	3.791300	-11.463000	23.397744	0.001051	20.757293
463.129744	-2.994500	3.791800	-11.354000	23.401455	0.001051	20.767177
464.134633	-3.000000	3.790200	-11.370000	23.423623	0.001052	20.752886
465.128170	-2.967300	3.792100	-11.252000	23.445123	0.001053	20.745512
466.134020	-2.996300	3.791300	-11.358000	23.480430	0.001053	20.779480
467.127842	-3.000700	3.790400	-11.372000	23.481253	0.001052	20.780306
468.136368	-3.001100	3.789100	-11.369000	23.486180	0.001053	20.763907
469.146583	-2.994500	3.789200	-11.345000	23.488749	0.001054	20.776439
470.131306	-2.994400	3.789600	-11.347000	23.449005	0.001053	20.748929
471.128927	-3.016600	3.789400	-11.429000	23.450425	0.001055	20.770741
472.136250	-2.990100	3.789800	-11.331000	23.435042	0.001052	20.765754
473.143636	-2.990900	3.787100	-11.326000	23.467479	0.001054	20.769343
474.132440	-2.999000	3.788600	-11.361000	23.474223	0.001055	20.782742
475.133028	-3.012200	3.789100	-11.412000	23.469672	0.001057	20.779603
476.133030	-2.989000	3.788100	-11.322000	23.495037	0.001055	20.782742
477.138053	-2.998300	3.787300	-11.353000	23.509725	0.001056	20.762852
478.147959	-2.993900	3.787400	-11.339000	23.518908	0.001054	20.770635
479.149776	-2.999200	3.786900	-11.357000	23.524014	0.001056	20.759631
480.144370	-2.995700	3.785800	-11.340000	23.512066	0.001058	20.773733
481.137151	-2.995900	3.786300	-11.342000	23.514586	0.001056	20.780527
482.134553	-2.988800	3.786700	-11.316000	23.527896	0.001057	20.763048
483.141956	-2.975700	3.784700	-11.260000	23.523769	0.001056	20.779775
484.136642	-3.014500	3.784400	-11.407000	23.514561	0.001055	20.780502
485.147973	-2.991400	3.784300	-11.320000	23.518239	0.001057	20.765223
486.147282	-2.995300	3.784100	-11.333000	23.545250	0.001058	20.785187
487.135612	-3.011700	3.784800	-11.398000	23.525677	0.001058	20.775050
488.143005	-3.012400	3.784200	-11.399000	23.528695	0.001058	20.766695
489.135758	-3.008700	3.784100	-11.382000	23.536434	0.001060	20.782514
490.144545	-3.018400	3.783300	-11.418000	23.543570	0.001058	20.780184
491.149662	-3.001800	3.783500	-11.356000	23.553977	0.001058	20.792038
492.145099	-2.989900	3.783100	-11.309000	23.547583	0.001058	20.792741
493.144131	-3.009000	3.783500	-11.384000	23.540610	0.001057	20.778165
494.145307	-2.985700	3.782300	-11.292000	23.552133	0.001058	20.791139
495.145781	-2.983400	3.782200	-11.283000	23.560729	0.001059	20.773676
496.139766	-2.999300	3.782500	-11.344000	23.560925	0.001057	20.786675
497.152890	-3.002100	3.781200	-11.349000	23.560150	0.001058	20.794433
498.143265	-2.982800	3.781900	-11.279000	23.557940	0.001059	20.779890
499.147743	-2.995400	3.780600	-11.324000	23.565329	0.001058	20.796779
500.143779	-2.996100	3.782100	-11.331000	23.542225	0.001059	20.793060
501.148668	-3.024400	3.779700	-11.430000	23.538090	0.001058	20.782277
502.150312	-3.026800	3.779700	-11.440000	23.545952	0.001058	20.809598
503.150622	-2.988600	3.778900	-11.292000	23.554564	0.001058	20.781247
504.157339	-3.037900	3.778000	-11.476000	23.539624	0.001060	20.792823
505.158718	-3.000300	3.778700	-11.335000	23.563102	0.001062	20.805928
506.151580	-2.997800	3.780000	-11.330000	23.567286	0.001061	20.792104
507.154128	-2.989900	3.779600	-11.300000	23.581158	0.001060	20.778034
508.150197	-3.010200	3.776800	-11.368000	23.592355	0.001059	20.805854
509.150208	-3.010000	3.777100	-11.367000	23.621059	0.001060	20.800965
510.151499	-3.011800	3.777200	-11.375000	23.621027	0.001058	20.776751
511.158731	-3.012400	3.777000	-11.376000	23.611845	0.001061	20.801211
512.157626	-3.000100	3.777900	-11.333000	23.627991	0.001061	20.803647
513.159212	-3.016500	3.774700	-11.386000	23.626752	0.001061	20.791973
514.151035	-3.001600	3.776900	-11.335000	23.636097	0.001060	20.811299
515.155064	-2.998000	3.775600	-11.317000	23.635510	0.001062	20.800279
516.152987	-3.006800	3.776000	-11.352000	23.644293	0.001064	20.810506
517.157019	-3.017700	3.775200	-11.391000	23.645907	0.001063	20.802642
518.145441	-3.011700	3.776100	-11.371000	23.642841	0.001063	20.808103
519.149549	-3.012500	3.775200	-11.372000	23.655293	0.001063	20.822008
520.150720	-3.001400	3.774800	-11.329000	23.647375	0.001062	20.825924
521.152035	-3.044800	3.773000	-11.486000	23.660047	0.001062	20.815395
522.151040	-2.988600	3.775400	-11.282000	23.672638	0.001065	20.803835
523.148947	-3.005200	3.773800	-11.340000	23.688473	0.001063	20.820659
524.150671	-2.983100	3.775100	-11.259000	23.663831	0.001064	20.800696
525.150175	-3.017100	3.772800	-11.381000	23.638682	0.001063	20.809149
526.151534	-3.023600	3.772300	-11.405000	23.637541	0.001063	20.820807
527.161315	-2.990100	3.775500	-11.287000	23.645165	0.001063	20.804743
528.150444	-3.021700	3.772900	-11.399000	23.680808	0.001063	20.804440
529.149899	-3.006700	3.772500	-11.342000	23.692501	0.001063	20.811422
530.159273	-2.991700	3.772500	-11.284000	23.689696	0.001062	20.832791
531.157355	-3.001700	3.773000	-11.324000	23.724498	0.001063	20.825008
532.162145	-3.017300	3.770700	-11.376000	23.742730	0.001064	20.826218
533.167467	-3.003200	3.770800	-11.324000	23.753118	0.001065	20.816245
534.155781	-3.000300	3.768500	-11.306000	23.771936	0.001065	20.800500
535.156321	-2.984600	3.769600	-11.249000	23.729015	0.001065	20.837598
536.155294	-2.992000	3.769700	-11.277000	23.719165	0.001063	20.843843
537.162731	-2.997200	3.769900	-11.298000	23.709780	0.001067	20.824951
538.157341	-3.005800	3.769600	-11.330000	23.662061	0.001065	20.827845
539.153507	-2.998700	3.768700	-11.300000	23.675638	0.001063	20.831025
540.157574	-2.997800	3.767800	-11.294000	23.678117	0.001064	20.839200
541.155722	-2.982100	3.767900	-11.235000	23.659101	0.001066	20.829619
542.166135	-2.998700	3.768600	-11.299000	23.680066	0.001065	20.838783
543.153733	-2.990600	3.769000	-11.269000	23.654372	0.001064	20.812076
544.176027	-3.015300	3.767500	-11.359000	23.647652	0.001063	20.827624
545.151420	-3.013800	3.768100	-11.355000	23.653181	0.001064	20.845020
546.159648	-3.001600	3.767100	-11.307000	23.666619	0.001066	20.832415
547.157810	-2.981600	3.766800	-11.230000	23.700753	0.001066	20.851462
548.158591	-3.016600	3.765700	-11.358000	23.714264	0.001063	20.830396
549.162471	-3.002100	3.764900	-11.300000	23.730523	0.001065	20.817299
550.157895	-3.003400	3.766500	-11.311000	23.748438	0.001066	20.834311
551.168715	-2.991900	3.765600	-11.265000	23.768577	0.001066	20.831744
552.162474	-3.007200	3.765700	-11.323000	23.758874	0.001066	20.836240
553.162608	-2.994700	3.764400	-11.272000	23.734975	0.001066	20.838832
554.159062	-2.993300	3.765100	-11.269000	23.736247	0.001067	20.835840
555.162484	-3.009800	3.764300	-11.330000	23.722859	0.001068	20.830003
556.156964	-2.998300	3.763600	-11.284000	23.703664	0.001065	20.815501
557.165407	-3.005100	3.763900	-11.309000	23.741572	0.001065	20.834540
558.158032	-3.003500	3.763400	-11.302000	23.758923	0.001066	20.839608
559.155779	-3.032000	3.762800	-11.408000	23.781867	0.001069	20.818517
560.158617	-2.997900	3.762400	-11.278000	23.789442	0.001066	20.831327
561.160903	-2.983800	3.762900	-11.225000	23.809768	0.001068	20.822785
562.158394	-3.007800	3.761100	-11.311000	23.796707	0.001065	20.817275
563.165295	-3.004000	3.762700	-11.301000	23.826067	0.001067	20.814471
564.166673	-3.008400	3.761600	-11.315000	23.823727	0.001066	20.824453
565.169672	-3.006400	3.761800	-11.308000	23.821468	0.001066	20.819817
566.167367	-2.956900	3.761700	-11.122000	23.857432	0.001067	20.820790
567.158871	-2.986400	3.759600	-11.226000	23.867933	0.001067	20.826578
568.184013	-3.012600	3.760100	-11.327000	23.860416	0.001065	20.813351
569.159407	-2.998300	3.759700	-11.271000	23.871292	0.001068	20.803394
570.159919	-2.992900	3.761600	-11.256000	23.868308	0.001067	20.816523
571.165600	-2.972200	3.762100	-11.179000	23.892098	0.001067	20.805290
572.159644	-2.997400	3.759000	-11.266000	23.930896	0.001067	20.810056
573.166927	-3.026700	3.758300	-11.374000	23.923428	0.001068	20.801620
574.162828	-2.965200	3.759600	-11.147000	23.922605	0.001067	20.808855
575.164159	-3.004800	3.757800	-11.290000	23.929673	0.001065	20.812623
576.165282	-3.031700	3.756800	-11.388000	23.920990	0.001066	20.808184
577.165010	-3.015900	3.757100	-11.330000	23.904742	0.001065	20.797581
578.168950	-2.987600	3.757200	-11.224000	23.925915	0.001066	20.799846
579.165571	-3.003900	3.757200	-11.285000	23.933798	0.001066	20.797794
580.163751	-3.006500	3.755800	-11.291000	23.949385	0.001064	20.813425
581.169863	-2.986000	3.756700	-11.217000	23.941869	0.001064	20.803991
582.180453	-3.005800	3.756800	-11.290000	23.912830	0.001066	20.794785
583.167171	-2.983000	3.754700	-11.199000	23.903772	0.001066	20.790444
584.172910	-2.981200	3.755100	-11.193000	23.937817	0.001067	20.782858
585.180748	-3.020200	3.753600	-11.336000	23.940703	0.001065	20.783381
586.172348	-3.000600	3.754300	-11.265000	23.930374	0.001066	20.795783
587.169379	-2.997500	3.754900	-11.255000	23.955581	0.001065	20.794982
588.167844	-3.010900	3.754300	-11.302000	23.918952	0.001066	20.779588
589.179534	-2.993500	3.753900	-11.236000	23.911631	0.001065	20.813024
590.177724	-2.987600	3.753900	-11.214000	23.891706	0.001065	20.778345
591.169514	-3.011300	3.753700	-11.302000	23.924928	0.001065	20.786528
592.171276	-3.005200	3.753600	-11.279000	23.889163	0.001067	20.788597
593.173885	-2.994900	3.753100	-11.238000	23.905541	0.001066	20.797908
594.179690	-2.970000	3.753500	-11.147000	23.893247	0.001066	20.792488
595.174737	-2.998700	3.752100	-11.250000	23.906414	0.001066	20.781836
596.172215	-2.995300	3.751600	-11.236000	23.895464	0.001067	20.808666
597.172967	-2.986700	3.751300	-11.203000	23.930301	0.001065	20.765363
598.179344	-3.017200	3.751300	-11.317000	23.949295	0.001065	20.780144
599.171772	-2.991700	3.751200	-11.221000	23.960537	0.001064	20.777193
600.177090	-3.011200	3.750700	-11.293000	23.973312	0.001065	20.755389
601.175632	-3.004600	3.750000	-11.266000	23.989241	0.001064	20.757138
602.174808	-2.985500	3.749400	-11.193000	24.004420	0.001066	20.790379
603.177748	-2.990500	3.750600	-11.215000	23.977722	0.001065	20.771191
604.191513	-3.013800	3.750600	-11.303000	23.980901	0.001065	20.779122
605.177896	-3.003800	3.748000	-11.258000	23.966056	0.001066	20.766131
606.179284	-3.017700	3.748300	-11.310000	23.968763	0.001066	20.758414
607.175706	-2.999800	3.749400	-11.247000	24.001811	0.001067	20.785392
608.178715	-3.003300	3.748300	-11.256000	23.998485	0.001064	20.797229
609.183906	-3.008700	3.749000	-11.278000	24.019264	0.001064	20.783454
610.178688	-2.992300	3.748600	-11.214000	24.009482	0.001066	20.766057
611.183071	-2.998200	3.748200	-11.237000	24.026005	0.001064	20.775516
612.179971	-3.004500	3.747100	-11.257000	24.040270	0.001064	20.768011
613.180026	-3.016200	3.747100	-11.301000	24.031613	0.001066	20.792994
614.174822	-3.001300	3.747200	-11.245000	24.048161	0.001064	20.763122
615.181118	-3.010500	3.746600	-11.278000	24.062002	0.001065	20.758037
616.188798	-3.025000	3.745500	-11.329000	24.036023	0.001064	20.757587
617.188968	-2.988400	3.746300	-11.194000	24.046596	0.001065	20.760130
618.182107	-2.991800	3.745800	-11.205000	24.043841	0.001063	20.753573
619.179012	-2.992800	3.744400	-11.205000	24.041004	0.001063	20.754047
620.188790	-3.000200	3.745700	-11.237000	24.023217	0.001065	20.760391
621.184799	-2.985300	3.744700	-11.177000	24.029363	0.001062	20.753279
622.182561	-3.013200	3.744700	-11.283000	24.016345	0.001064	20.746861
623.185740	-3.006900	3.743500	-11.255000	24.012888	0.001061	20.772793
624.184505	-3.005300	3.744500	-11.251000	24.013663	0.001063	20.755551
625.185641	-3.004300	3.742900	-11.243000	24.011625	0.001065	20.757775
626.196328	-2.992700	3.742600	-11.200000	24.044020	0.001064	20.751382
627.187316	-2.997900	3.742400	-11.218000	24.030635	0.001065	20.736535
628.179464	-2.995400	3.743100	-11.211000	24.023021	0.001061	20.767781
629.199382	-3.002800	3.742700	-11.238000	24.025059	0.001063	20.767454
630.184594	-3.006600	3.741200	-11.246000	24.040563	0.001065	20.743648
631.199905	-3.010900	3.741400	-11.264000	24.039870	0.001063	20.758126
632.187607	-3.010200	3.741300	-11.261000	24.003717	0.001062	20.738464
633.184650	-3.008900	3.740100	-11.253000	24.005234	0.001063	20.740459
634.190986	-3.010200	3.739400	-11.255000	24.016500	0.001063	20.745119
635.186766	-2.994700	3.740600	-11.202000	24.004663	0.001064	20.732774
636.189961	-3.026200	3.739100	-11.314000	24.013296	0.001063	20.748071
637.191918	-2.987600	3.740300	-11.173000	23.994090	0.001063	20.746828
638.198414	-2.998800	3.739000	-11.211000	23.970001	0.001065	20.743533
639.197669	-2.976400	3.738700	-11.127000	23.971321	0.001066	20.737745
640.200487	-2.991200	3.740100	-11.186000	23.980272	0.001065	20.752412
641.196752	-2.977600	3.740200	-11.136000	23.980248	0.001063	20.750016
642.188426	-3.001800	3.739100	-11.222000	23.976245	0.001064	20.762124
643.202831	-3.017500	3.737700	-11.277000	23.945087	0.001063	20.750793
644.193277	-3.012700	3.737700	-11.259000	23.949547	0.001061	20.723495
645.188773	-3.006800	3.736900	-11.234000	23.927739	0.001062	20.734818
646.187760	-2.992300	3.736800	-11.181000	23.949889	0.001063	20.732374
647.198012	-3.006000	3.735600	-11.227000	23.957707	0.001063	20.744481
648.189995	-2.992200	3.736300	-11.178000	23.967433	0.001063	20.735742
649.194496	-2.985200	3.736400	-11.153000	23.954316	0.001062	20.742029
650.190624	-3.016200	3.735100	-11.265000	23.943318	0.001064	20.749019
651.194530	-3.000500	3.736300	-11.209000	23.959672	0.001064	20.737442
652.197732	-2.978200	3.735300	-11.124000	23.955359	0.001063	20.744972
653.193120	-3.016000	3.735200	-11.264000	23.982865	0.001062	20.734148
654.196768	-2.998100	3.734200	-11.195000	23.984805	0.001061	20.747474
655.193724	-2.981900	3.734700	-11.135000	24.013972	0.001063	20.735946
656.190335	-2.986500	3.734300	-11.150000	24.046017	0.001062	20.751488
657.198329	-2.990800	3.733500	-11.165000	24.067178	0.001061	20.742364
658.191691	-3.001700	3.733700	-11.207000	24.077897	0.001062	20.730828
659.192821	-3.001400	3.734000	-11.205000	24.090515	0.001061	20.745381
660.195910	-3.009900	3.733200	-11.236000	24.121970	0.001062	20.737573
661.192179	-3.003800	3.732000	-11.209000	24.114325	0.001060	20.740811
662.195426	-2.999400	3.733000	-11.195000	24.136976	0.001062	20.740770
663.205572	-2.994600	3.732900	-11.177000	24.158225	0.001060	20.720830
664.195384	-2.968200	3.733600	-11.080000	24.166686	0.001060	20.743541
665.200078	-2.992200	3.732500	-11.167000	24.165732	0.001061	20.726937
666.200668	-3.013000	3.730000	-11.237000	24.148990	0.001062	20.721999
667.200428	-3.003700	3.731500	-11.206000	24.172856	0.001062	20.723176
668.208289	-3.016400	3.730400	-11.251000	24.194406	0.001061	20.728670
669.199667	-2.998000	3.731400	-11.186000	24.191488	0.001061	20.726691
670.205246	-3.015100	3.728300	-11.240000	24.183957	0.001061	20.734785
671.201068	-3.015100	3.729300	-11.244000	24.198155	0.001062	20.725792
672.206683	-3.011200	3.729500	-11.229000	24.187461	0.001059	20.726446
673.202279	-3.011300	3.728200	-11.226000	24.166759	0.001062	20.731286
674.214566	-3.004400	3.727800	-11.198000	24.169970	0.001061	20.724549
675.201496	-2.998500	3.728600	-11.179000	24.187356	0.001059	20.718753
676.201537	-3.010600	3.727800	-11.222000	24.191276	0.001059	20.742601
677.203100	-2.993200	3.727400	-11.156000	24.165170	0.001058	20.713095
678.211926	-3.005800	3.728200	-11.205000	24.134164	0.001059	20.715188
679.203757	-2.987100	3.728200	-11.136000	24.113730	0.001061	20.750172
680.215984	-2.973300	3.728600	-11.085000	24.111700	0.001059	20.729643
681.213933	-3.008200	3.726600	-11.209000	24.126918	0.001061	20.730681
682.206371	-3.012100	3.727000	-11.226000	24.123788	0.001059	20.720429
683.214803	-2.993200	3.726500	-11.153000	24.139217	0.001058	20.731163
684.208738	-2.997500	3.726900	-11.170000	24.130953	0.001059	20.727615
685.214339	-2.993200	3.726300	-11.151000	24.170712	0.001057	20.712016
686.218571	-2.992500	3.725500	-11.147000	24.194153	0.001059	20.712294
687.206522	-3.007600	3.724800	-11.201000	24.175765	0.001059	20.703808
688.208211	-3.018900	3.724900	-11.244000	24.201945	0.001059	20.715368
689.211515	-3.003100	3.724000	-11.182000	24.199875	0.001057	20.710446
690.204650	-2.972400	3.725300	-11.072000	24.210470	0.001057	20.738620
691.205770	-2.983400	3.725400	-11.114000	24.208058	0.001056	20.704903
692.205800	-2.999400	3.723900	-11.168000	24.230773	0.001056	20.723421
693.209860	-3.001800	3.723400	-11.177000	24.232402	0.001058	20.726953
694.219227	-3.005000	3.723300	-11.187000	24.232044	0.001056	20.728964
695.207176	-2.995900	3.723100	-11.153000	24.249216	0.001056	20.730542
696.206898	-2.999200	3.723700	-11.167000	24.249559	0.001055	20.721402
697.205949	-2.997000	3.722500	-11.155000	24.242240	0.001056	20.712164
698.211045	-3.005100	3.722000	-11.184000	24.277619	0.001055	20.727264
699.211090	-2.981600	3.722900	-11.099000	24.269118	0.001055	20.713995
700.220152	-2.999900	3.720900	-11.161000	24.270944	0.001054	20.715826
701.208677	-3.006100	3.721200	-11.185000	24.303022	0.001056	20.711493
702.218968	-2.989000	3.722300	-11.124000	24.259958	0.001056	20.709547
703.209920	-2.966800	3.722900	-11.045000	24.215923	0.001053	20.718957
704.215248	-2.995900	3.721100	-11.147000	24.212043	0.001055	20.731188
705.210173	-3.008100	3.719100	-11.186000	24.203461	0.001052	20.691757
706.224683	-2.978000	3.721900	-11.083000	24.176907	0.001054	20.712065
707.211226	-3.002400	3.719400	-11.166000	24.215793	0.001053	20.700333
708.216181	-3.009500	3.719700	-11.194000	24.189198	0.001053	20.717756
709.231617	-3.005200	3.718900	-11.175000	24.220373	0.001049	20.688805
710.214990	-3.010700	3.718000	-11.192000	24.199052	0.001053	20.697766
711.214542	-2.994900	3.718500	-11.135000	24.188000	0.001054	20.699483
712.216026	-2.998700	3.717900	-11.148000	24.163523	0.001052	20.699589
713.212960	-2.989500	3.716900	-11.110000	24.188855	0.001051	20.699867
714.211879	-2.985300	3.718800	-11.101000	24.200714	0.001052	20.699434
715.212293	-2.996500	3.716600	-11.136000	24.207789	0.001051	20.709850
716.218264	-3.002300	3.716800	-11.158000	24.206322	0.001051	20.704110
717.222391	-3.001800	3.717600	-11.158000	24.216118	0.001050	20.694022
718.210521	-2.973700	3.718300	-11.055000	24.243511	0.001052	20.706800
719.215409	-2.987400	3.717800	-11.104000	24.243365	0.001051	20.706653
720.226686	-3.000000	3.716700	-11.149000	24.264163	0.001052	20.723250
721.223992	-3.005300	3.715500	-11.165000	24.248841	0.001050	20.689860
722.211994	-2.986700	3.715700	-11.097000	24.239012	0.001049	20.684742
723.211949	-3.007800	3.715200	-11.174000	24.239477	0.001050	20.696115
724.211458	-3.003800	3.714500	-11.157000	24.268222	0.001048	20.678479
725.213488	-3.015700	3.714200	-11.199000	24.256877	0.001051	20.674211
726.214123	-3.016700	3.714900	-11.205000	24.242272	0.001050	20.697970
727.211889	-3.006200	3.714800	-11.166000	24.241498	0.001052	20.702410
728.213352	-3.007100	3.713600	-11.166000	24.233617	0.001050	20.701142
729.213919	-3.006700	3.713900	-11.165000	24.229737	0.001048	20.682076
730.215327	-2.982500	3.714500	-11.077000	24.255883	0.001048	20.691233
731.227221	-3.002500	3.713800	-11.150000	24.257741	0.001049	20.681243
732.215912	-2.995200	3.712400	-11.119000	24.273674	0.001049	20.692958
733.218217	-3.018600	3.712300	-11.203000	24.298922	0.001048	20.668971
734.222216	-2.983000	3.712800	-11.074000	24.280887	0.001047	20.698297
735.220115	-2.984300	3.712000	-11.076000	24.309223	0.001048	20.693531
736.217920	-3.004300	3.712900	-11.153000	24.292378	0.001044	20.673312
737.218007	-2.999800	3.712200	-11.135000	24.266437	0.001048	20.660091
738.217906	-3.002800	3.712200	-11.146000	24.253772	0.001046	20.690538
739.223243	-3.011700	3.709700	-11.170000	24.257977	0.001047	20.691912
740.232167	-2.999300	3.710300	-11.126000	24.256633	0.001044	20.696727
741.223719	-3.011700	3.709700	-11.171000	24.278955	0.001045	20.689721
742.216080	-2.987600	3.711000	-11.087000	24.280072	0.001045	20.690367
743.217474	-3.007800	3.710400	-11.159000	24.291441	0.001045	20.697504
744.228549	-3.007200	3.709200	-11.154000	24.255141	0.001046	20.668202
745.221639	-3.009300	3.709500	-11.162000	24.254204	0.001046	20.664416
746.224742	-2.993000	3.708700	-11.099000	24.251612	0.001047	20.681733
747.238546	-2.998400	3.708600	-11.118000	24.252264	0.001046	20.669583
748.219547	-2.997700	3.707900	-11.114000	24.251775	0.001045	20.679525
749.226239	-3.021200	3.707300	-11.199000	24.273935	0.001046	20.689426
750.217054	-2.999300	3.706100	-11.114000	24.258490	0.001045	20.662078
751.227379	-2.993000	3.708000	-11.097000	24.299688	0.001044	20.660729
752.233890	-2.979000	3.708100	-11.045000	24.296558	0.001044	20.661857
753.231790	-3.009900	3.705900	-11.154000	24.326712	0.001045	20.694953
754.221571	-2.985200	3.706700	-11.065000	24.330037	0.001043	20.678847
755.219304	-3.021200	3.706900	-11.199000	24.344771	0.001043	20.682722
756.219003	-2.992500	3.707000	-11.091000	24.311008	0.001043	20.688682
757.223310	-2.996800	3.706900	-11.108000	24.314047	0.001043	20.686990
758.228916	-3.014800	3.706900	-11.175000	24.321561	0.001044	20.700218
759.226114	-2.995900	3.705800	-11.101000	24.309736	0.001044	20.697839
760.224308	-2.999600	3.705700	-11.115000	24.284440	0.001041	20.665822
761.222584	-3.004000	3.703900	-11.125000	24.304985	0.001043	20.671734
762.232854	-3.003800	3.705100	-11.127000	24.305580	0.001041	20.682289
763.225661	-2.989000	3.703800	-11.068000	24.294488	0.001040	20.668316
764.221073	-3.011900	3.704000	-11.154000	24.300038	0.001041	20.680523
765.229254	-2.991600	3.704000	-11.080000	24.314219	0.001040	20.653493
766.223694	-2.991300	3.704600	-11.081000	24.299492	0.001040	20.647254
767.223812	-2.997200	3.703300	-11.099000	24.294146	0.001039	20.654695
768.226531	-3.014200	3.702200	-11.158000	24.311929	0.001040	20.660680
769.233535	-3.026900	3.701900	-11.203000	24.300511	0.001040	20.678626
770.227215	-3.015300	3.701500	-11.161000	24.281025	0.001040	20.659551
771.231337	-2.998700	3.702500	-11.102000	24.275711	0.001039	20.675085
772.233190	-2.995700	3.701400	-11.087000	24.263568	0.001040	20.650100
773.232180	-3.009000	3.701000	-11.136000	24.251978	0.001041	20.650803
774.240488	-2.985600	3.703000	-11.054000	24.251897	0.001037	20.652618
775.226537	-3.004600	3.701800	-11.121000	24.265353	0.001039	20.669910
776.226490	-2.996300	3.700100	-11.085000	24.284040	0.001039	20.653092
777.232924	-3.007900	3.699700	-11.127000	24.283967	0.001038	20.668667
778.234933	-2.988600	3.700400	-11.059000	24.259876	0.001037	20.659674
779.230335	-3.014900	3.700100	-11.154000	24.255238	0.001037	20.664032
780.227044	-2.996900	3.700000	-11.087000	24.267773	0.001040	20.684668
781.233266	-3.006700	3.698200	-11.119000	24.275165	0.001038	20.648456
782.226979	-3.019500	3.697700	-11.164000	24.290935	0.001038	20.651947
783.235972	-3.031500	3.697200	-11.207000	24.256461	0.001037	20.655299
784.229919	-2.995100	3.699600	-11.079000	24.287178	0.001037	20.667621
785.235746	-2.997000	3.697400	-11.080000	24.270039	0.001036	20.660385
786.229844	-2.985200	3.699400	-11.042000	24.257529	0.001036	20.661113
787.233396	-2.993400	3.697800	-11.067000	24.245923	0.001035	20.658006
788.232856	-3.004800	3.698200	-11.110000	24.243918	0.001037	20.671643
789.237730	-3.009000	3.696500	-11.121000	24.237968	0.001035	20.653346
790.232525	-3.004300	3.696900	-11.106000	24.266877	0.001035	20.658635
791.231253	-3.013300	3.696300	-11.136000	24.287577	0.001038	20.665650
792.231255	-3.018000	3.694800	-11.150000	24.278898	0.001034	20.652675
793.232502	-2.986500	3.698500	-11.044000	24.258637	0.001035	20.670286
794.240868	-3.011200	3.695500	-11.127000	24.253543	0.001035	20.635775
795.235551	-2.992800	3.696200	-11.060000	24.256649	0.001035	20.629880
796.233883	-2.993500	3.696300	-11.063000	24.247341	0.001033	20.644728
797.232097	-2.983600	3.696200	-11.026000	24.253617	0.001034	20.661456
798.245367	-2.998800	3.694700	-11.078000	24.303119	0.001035	20.658006
799.234163	-2.997000	3.693700	-11.069000	24.339067	0.001033	20.671783
800.234386	-3.015600	3.694600	-11.140000	24.341878	0.001034	20.649944
801.239896	-3.003400	3.693900	-11.093000	24.366456	0.001032	20.652316
802.235034	-3.005500	3.693500	-11.100000	24.332302	0.001032	20.656461
803.230659	-3.003300	3.693900	-11.093000	24.347721	0.001031	20.656755
804.240632	-3.030700	3.691000	-11.186000	24.352277	0.001032	20.663697
805.244231	-2.995200	3.693700	-11.062000	24.359595	0.001034	20.669616
806.240758	-2.992400	3.691400	-11.045000	24.337828	0.001032	20.658210
807.249623	-3.004700	3.693300	-11.096000	24.355113	0.001030	20.639038
808.236130	-2.987500	3.692200	-11.029000	24.388720	0.001033	20.669910
809.247324	-3.005400	3.692400	-11.097000	24.417274	0.001030	20.641180
810.244771	-2.990200	3.692400	-11.040000	24.401530	0.001030	20.645300
811.238353	-2.993800	3.691000	-11.050000	24.405588	0.001031	20.663124
812.238315	-2.990100	3.690900	-11.036000	24.413101	0.001031	20.666395
813.235390	-3.005800	3.690300	-11.092000	24.419963	0.001030	20.649094
814.241013	-2.970500	3.690500	-10.960000	24.427044	0.001029	20.648612
815.238807	-2.983300	3.690600	-11.009000	24.415758	0.001028	20.658628
816.237865	-2.981400	3.690800	-11.002000	24.394864	0.001030	20.663746
817.240860	-3.005900	3.690000	-11.091000	24.381329	0.001028	20.655382
818.239900	-3.001100	3.689400	-11.071000	24.391604	0.001029	20.664269
819.246587	-2.990300	3.689700	-11.032000	24.380432	0.001028	20.635039
820.254602	-3.007400	3.688800	-11.092000	24.398368	0.001028	20.662994
821.243865	-3.003700	3.689200	-11.081000	24.404863	0.001028	20.654809
822.246592	-3.014100	3.687400	-11.113000	24.380978	0.001027	20.649814
823.242656	-2.995200	3.688100	-11.046000	24.421307	0.001027	20.658979
824.243329	-2.983000	3.689300	-11.005000	24.401726	0.001027	20.646919
825.246193	-2.983800	3.688800	-11.006000	24.429586	0.001026	20.664441
826.242394	-3.000000	3.686600	-11.059000	24.422497	0.001026	20.638359
827.245215	-3.002900	3.686800	-11.070000	24.415701	0.001024	20.671374
828.246878	-2.987700	3.687700	-11.017000	24.407894	0.001026	20.682510
829.241152	-2.999900	3.686300	-11.057000	24.395076	0.001025	20.662536
830.263272	-3.024800	3.684300	-11.144000	24.348903	0.001025	20.685445
831.250077	-3.020400	3.685000	-11.129000	24.345049	0.001024	20.675413
832.246724	-3.016500	3.685300	-11.115000	24.365471	0.001025	20.647059
833.251958	-3.010500	3.685300	-11.093000	24.399175	0.001023	20.663803
834.244566	-2.992300	3.686200	-11.029000	24.429081	0.001025	20.662037
835.250447	-2.996500	3.684300	-11.039000	24.462833	0.001022	20.659862
836.250807	-3.017600	3.683900	-11.116000	24.450871	0.001021	20.654973
837.261526	-3.017800	3.684200	-11.117000	24.446837	0.001023	20.671317
838.250629	-2.984100	3.683900	-10.993000	24.468081	0.001021	20.679828
839.243471	-3.010300	3.682500	-11.084000	24.478674	0.001021	20.671963
840.246853	-3.025600	3.683200	-11.143000	24.469173	0.001022	20.662430
841.243232	-3.008100	3.682900	-11.076000	24.479871	0.001020	20.678855
842.252048	-2.990100	3.683200	-11.012000	24.470664	0.001022	20.668194
843.250729	-2.994100	3.683800	-11.028000	24.494123	0.001022	20.684145
844.256119	-2.999200	3.682900	-11.044000	24.461986	0.001021	20.651899
845.249818	-2.999900	3.681200	-11.042000	24.445990	0.001021	20.690383
846.252936	-2.992400	3.682300	-11.018000	24.412132	0.001020	20.670639
847.254604	-3.006900	3.682300	-11.071000	24.397708	0.001019	20.652373
848.248844	-3.011900	3.681100	-11.085000	24.400023	0.001021	20.666076
849.253067	-3.024500	3.679500	-11.128000	24.407365	0.001018	20.688143
850.245570	-2.989100	3.681700	-11.005000	24.410274	0.001020	20.685845
851.254655	-2.978000	3.680300	-10.959000	24.442193	0.001018	20.660018
852.251429	-3.011000	3.679800	-11.079000	24.454383	0.001017	20.669404
853.252268	-2.998500	3.680900	-11.036000	24.440946	0.001017	20.686745
854.247178	-2.997300	3.680300	-11.029000	24.484125	0.001017	20.673165
855.248154	-3.007300	3.679200	-11.064000	24.488687	0.001020	20.660672
856.249565	-3.025300	3.678300	-11.126000	24.520204	0.001016	20.678544
857.260981	-2.981600	3.679900	-10.971000	24.542342	0.001015	20.681790
858.252587	-3.027900	3.678000	-11.136000	24.532785	0.001018	20.673622
859.250203	-3.000400	3.679500	-11.039000	24.545105	0.001018	20.695942
860.252254	-3.008900	3.678600	-11.068000	24.541845	0.001016	20.673704
861.245458	-2.999900	3.677800	-11.032000	24.584083	0.001018	20.684790
862.251926	-2.997000	3.678600	-11.024000	24.564985	0.001016	20.681749
863.251375	-3.021800	3.676700	-11.109000	24.552079	0.001014	20.667850
864.249584	-2.976400	3.678000	-10.946000	24.557872	0.001016	20.684095
865.253412	-3.009800	3.676500	-11.065000	24.576726	0.001012	20.714395
866.248406	-2.992700	3.676300	-11.002000	24.563372	0.001014	20.677285
867.265197	-2.998200	3.676600	-11.022000	24.559550	0.001012	20.669656
868.252612	-2.987300	3.677000	-10.982000	24.522755	0.001013	20.674464
869.250634	-2.985900	3.675700	-10.974000	24.487489	0.001013	20.675118
870.248835	-2.994900	3.675900	-11.008000	24.463859	0.001013	20.671799
871.259906	-3.008500	3.675700	-11.057000	24.452590	0.001011	20.703169
872.252115	-3.017100	3.675300	-11.087000	24.482665	0.001012	20.692091
873.259476	-2.988900	3.676500	-10.988000	24.505798	0.001013	20.686850
874.261184	-3.009500	3.675300	-11.060000	24.556169	0.001012	20.703251
875.250118	-2.993600	3.675400	-11.002000	24.570444	0.001011	20.686278
876.255341	-2.980100	3.675900	-10.953000	24.589460	0.001014	20.685918
877.250572	-3.003200	3.674300	-11.034000	24.564178	0.001012	20.687104
878.268807	-3.005700	3.673800	-11.041000	24.579618	0.001010	20.717771
879.258216	-2.974100	3.673900	-10.925000	24.586234	0.001012	20.692165
880.251330	-2.984000	3.673200	-10.960000	24.572285	0.001009	20.694764
881.255818	-2.999300	3.672500	-11.013000	24.578632	0.001012	20.695917
882.257194	-2.995200	3.674200	-11.004000	24.593876	0.001010	20.680865
883.255516	-2.983400	3.673200	-10.957000	24.598219	0.001008	20.705140
884.257421	-3.004200	3.671800	-11.030000	24.602309	0.001009	20.694544
885.268114	-3.007600	3.671900	-11.042000	24.649986	0.001007	20.704927
886.254540	-3.023500	3.670000	-11.096000	24.623467	0.001009	20.688273
887.261541	-2.992500	3.671500	-10.986000	24.594674	0.001010	20.688305
888.255879	-3.024000	3.669700	-11.095000	24.592809	0.001007	20.694020
889.257324	-2.981100	3.672100	-10.945000	24.604549	0.001011	20.694895
890.255727	-2.979300	3.672200	-10.940000	24.611189	0.001007	20.695868
891.260238	-3.027500	3.669400	-11.108000	24.632282	0.001007	20.693325
892.258914	-2.990600	3.670300	-10.975000	24.621585	0.001007	20.703455
893.261493	-3.025700	3.669000	-11.101000	24.607784	0.001009	20.709047
894.278344	-2.998000	3.669300	-10.998000	24.608004	0.001008	20.697888
895.261373	-2.997600	3.670400	-11.002000	24.619426	0.001006	20.718833
896.261381	-3.002500	3.668900	-11.014000	24.625358	0.001007	20.693015
897.261403	-2.997400	3.669300	-10.997000	24.634222	0.001005	20.723248
898.265887	-2.988500	3.669900	-10.966000	24.646507	0.001005	20.726093
899.263668	-2.998600	3.667700	-10.997000	24.634784	0.001005	20.711958
900.267263	-3.027100	3.667000	-11.098000	24.627557	0.001005	20.710396
901.274440	-3.013400	3.667000	-11.049000	24.626759	0.001004	20.700585
902.266216	-3.004100	3.667000	-11.015000	24.614896	0.001006	20.721401
903.263349	-2.994500	3.667500	-10.981000	24.623622	0.001002	20.703128
904.267982	-3.013400	3.667100	-11.050000	24.601868	0.001004	20.711647
905.270974	-3.012700	3.664700	-11.040000	24.622734	0.001004	20.707927
906.266734	-2.964700	3.667300	-10.872000	24.633171	0.001003	20.706546
907.276919	-2.993800	3.666700	-10.977000	24.636886	0.001000	20.708851
908.263106	-3.000800	3.666600	-11.002000	24.651933	0.001001	20.714942
909.262850	-2.985200	3.666800	-10.945000	24.621618	0.000999	20.709178
910.265624	-2.994900	3.666000	-10.979000	24.618628	0.001001	20.709023
911.268752	-3.011500	3.664600	-11.035000	24.599155	0.001001	20.730263
912.271896	-3.007700	3.663900	-11.018000	24.601885	0.001000	20.739166
913.268133	-3.026200	3.664200	-11.087000	24.618188	0.000999	20.715220
914.272134	-2.991400	3.664600	-10.962000	24.614179	0.001000	20.706455
915.266272	-3.011800	3.663400	-11.031000	24.599530	0.000999	20.727794
916.276369	-2.992700	3.663400	-10.963000	24.622188	0.000997	20.725398
917.266787	-2.998600	3.664300	-10.987000	24.623206	0.000999	20.725946
918.270540	-2.986300	3.664300	-10.941000	24.663168	0.000998	20.688755
919.268635	-2.989400	3.664200	-10.951000	24.652210	0.000998	20.703365
920.267910	-3.000100	3.663500	-10.990000	24.664520	0.000998	20.715244
921.282391	-2.984900	3.663300	-10.933000	24.683161	0.000997	20.735847
922.269200	-2.987700	3.661600	-10.939000	24.684513	0.000997	20.713495
923.268588	-2.977600	3.661800	-10.902000	24.730297	0.000999	20.735258
924.269653	-2.986500	3.661500	-10.934000	24.700081	0.000997	20.721057
925.278842	-3.014000	3.661400	-11.034000	24.680863	0.000998	20.706987
926.274781	-3.035900	3.660300	-11.111000	24.670207	0.000996	20.714312
927.279659	-3.023200	3.660800	-11.066000	24.679274	0.000995	20.703496
928.272827	-3.018200	3.660400	-11.046000	24.710313	0.000994	20.726109
929.273715	-2.993100	3.660600	-10.955000	24.711910	0.000995	20.739566
930.272789	-3.010600	3.660300	-11.018000	24.687234	0.000995	20.733770
931.284622	-3.005300	3.659700	-10.998000	24.658988	0.000994	20.730083
932.272690	-2.997100	3.658200	-10.962000	24.667445	0.000995	20.730982
933.273912	-2.986500	3.659900	-10.929000	24.669506	0.000996	20.716454
934.275114	-2.990600	3.659800	-10.944000	24.650108	0.000995	20.735397
935.275624	-3.034500	3.656000	-11.092000	24.640560	0.000994	20.731031
936.277631	-3.024700	3.656300	-11.058000	24.675975	0.000992	20.726739
937.276122	-2.978600	3.656900	-10.890000	24.668471	0.000994	20.728693
938.276077	-2.999000	3.657800	-10.969000	24.683510	0.000993	20.741414
939.274875	-3.005500	3.656800	-10.989000	24.661530	0.000993	20.731685
940.284286	-3.021400	3.656900	-11.048000	24.655737	0.000989	20.723975
941.280401	-3.009900	3.657600	-11.008000	24.697523	0.000993	20.708057
942.283978	-3.019300	3.654800	-11.034000	24.690810	0.000992	20.737833
943.283550	-2.976500	3.657300	-10.885000	24.675665	0.000992	20.725954
944.278458	-2.976000	3.656700	-10.881000	24.648902	0.000989	20.734187
945.285106	-2.982500	3.657100	-10.907000	24.656911	0.000991	20.728946
946.276663	-3.008700	3.654300	-10.993000	24.652976	0.000990	20.729265
947.283076	-3.004700	3.653700	-10.978000	24.655550	0.000989	20.728529
948.281267	-3.003400	3.654700	-10.975000	24.686305	0.000988	20.739002
949.274803	-3.001700	3.654500	-10.969000	24.705238	0.000988	20.726706
950.274288	-2.983600	3.655100	-10.904000	24.703959	0.000989	20.737751
951.279992	-2.992800	3.654200	-10.935000	24.735429	0.000988	20.746098
952.281938	-2.995300	3.653300	-10.941000	24.742630	0.000988	20.750006
953.276598	-3.008400	3.654000	-10.992000	24.727462	0.000988	20.754225
954.276632	-2.993700	3.653700	-10.936000	24.761383	0.000987	20.743220
955.289577	-3.025400	3.652900	-11.050000	24.743404	0.000987	20.748412
956.290544	-3.008100	3.652400	-10.986000	24.750972	0.000984	20.741781
957.294051	-3.027500	3.652600	-11.054000	24.734973	0.000985	20.754175
958.286245	-3.003100	3.651300	-10.962000	24.748235	0.000984	20.761321
959.288533	-3.018700	3.651600	-11.022000	24.733139	0.000987	20.749965
960.289478	-2.988800	3.652400	-10.915000	24.745270	0.000984	20.748387
961.284206	-3.010500	3.650800	-10.989000	24.699714	0.000983	20.745820
962.286503	-2.988200	3.652600	-10.914000	24.680040	0.000984	20.762588
963.287188	-3.016800	3.651400	-11.014000	24.675388	0.000982	20.748910
964.286619	-2.992300	3.650800	-10.924000	24.685938	0.000983	20.759972
965.285827	-3.000500	3.651000	-10.954000	24.676911	0.000982	20.747594
966.291167	-2.993100	3.649200	-10.921000	24.707551	0.000981	20.757952
967.282179	-2.994900	3.650100	-10.930000	24.739624	0.000983	20.746515
968.283681	-2.993600	3.649700	-10.924000	24.769024	0.000981	20.760846
969.289573	-2.987800	3.650600	-10.906000	24.791108	0.000981	20.743179
970.286652	-3.017700	3.648300	-11.007000	24.828547	0.000983	20.764632
971.283377	-3.001200	3.648000	-10.947000	24.842028	0.000981	20.754928
972.281600	-2.986800	3.650200	-10.901000	24.863687	0.000980	20.738258
973.284973	-3.012500	3.648000	-10.987000	24.887707	0.000980	20.755729
974.285976	-2.992500	3.648600	-10.917000	24.885386	0.000980	20.780900
975.284020	-3.008600	3.648600	-10.976000	24.882853	0.000982	20.764133
976.288790	-2.997900	3.649300	-10.938000	24.884572	0.000979	20.762539
977.283668	-2.992000	3.648000	-10.914000	24.907362	0.000979	20.779723
978.287692	-3.011800	3.646700	-10.981000	24.907012	0.000979	20.764673
979.290683	-3.018100	3.645700	-11.002000	24.932099	0.000979	20.779421
980.290075	-3.004900	3.645800	-10.955000	24.935007	0.000979	20.782814
981.284258	-3.014200	3.646700	-10.991000	24.897564	0.000976	20.773682
982.286576	-2.995500	3.646800	-10.923000	24.885248	0.000978	20.774124
983.287136	-3.001700	3.645600	-10.941000	24.904316	0.000978	20.778089
984.288404	-3.001800	3.646500	-10.945000	24.944895	0.000975	20.780410
985.286774	-3.000100	3.645800	-10.937000	24.940887	0.000976	20.754102
986.284137	-2.998100	3.645800	-10.930000	24.961103	0.000975	20.781980
987.284454	-2.987500	3.644800	-10.888000	24.937613	0.000975	20.770257
988.283674	-3.024800	3.644300	-11.022000	24.935341	0.000976	20.777459
989.285435	-2.997300	3.643300	-10.918000	24.900179	0.000975	20.774884
990.287244	-2.983500	3.644700	-10.873000	24.885159	0.000975	20.769292
991.288822	-2.996000	3.645500	-10.921000	24.852284	0.000974	20.781817
992.288995	-2.992000	3.644200	-10.901000	24.895674	0.000976	20.760880
993.287661	-2.996200	3.643900	-10.917000	24.895454	0.000974	20.779152
994.287643	-2.992200	3.643900	-10.902000	24.917455	0.000972	20.783215
995.287908	-2.996600	3.642900	-10.915000	24.903380	0.000972	20.774304
996.294250	-2.994800	3.644000	-10.912000	24.906638	0.000972	20.793221
997.294197	-2.988200	3.643400	-10.886000	24.934828	0.000972	20.761297
998.287548	-3.010400	3.642700	-10.965000	24.923441	0.000973	20.801552
999.289098	-2.994800	3.641300	-10.904000	24.928638	0.000970	20.794913
1000.291118	-2.986300	3.642900	-10.876000	24.892139	0.000971	20.788627
1001.300523	-3.005300	3.641400	-10.943000	24.887635	0.000971	20.778890
1002.294278	-3.011900	3.641400	-10.966000	24.883726	0.000972	20.786346
1003.297894	-3.013400	3.640200	-10.968000	24.866954	0.000970	20.794644
1004.292472	-2.998300	3.639900	-10.912000	24.838461	0.000969	20.792126
1005.291941	-3.003500	3.641400	-10.935000	24.818585	0.000971	20.773601
1006.299926	-2.991500	3.639600	-10.887000	24.812248	0.000969	20.796164
1007.292365	-3.003000	3.639500	-10.929000	24.839675	0.000971	20.780541
1008.294208	-3.010200	3.638200	-10.951000	24.851885	0.000969	20.794693
1009.292229	-3.000700	3.638800	-10.918000	24.888857	0.000969	20.783910
1010.297954	-2.997200	3.639100	-10.905000	24.896636	0.000968	20.796933
1011.298495	-3.015300	3.639300	-10.972000	24.889647	0.000969	20.779013
1012.306525	-2.973200	3.639200	-10.819000	24.875034	0.000968	20.807021
1013.296720	-3.003200	3.638200	-10.925000	24.870733	0.000966	20.817403
1014.292786	-3.006400	3.638300	-10.936000	24.851787	0.000965	20.813560
1015.298207	-2.983100	3.637900	-10.851000	24.874391	0.000964	20.809694
1016.296675	-2.993100	3.637700	-10.887000	24.880907	0.000966	20.797742
1017.303937	-3.000700	3.637400	-10.914000	24.879946	0.000966	20.799148
1018.300611	-2.996400	3.638700	-10.901000	24.883302	0.000965	20.782127
1019.300559	-2.980900	3.637700	-10.843000	24.892595	0.000964	20.804731
1020.314133	-3.028300	3.634900	-11.007000	24.873706	0.000965	20.802843
1021.300567	-3.005700	3.634400	-10.923000	24.918635	0.000961	20.813323
1022.299564	-3.004500	3.636000	-10.924000	24.942557	0.000964	20.798453
1023.306044	-2.994900	3.635600	-10.887000	24.942036	0.000962	20.827801
1024.304070	-3.007700	3.634200	-10.929000	24.936294	0.000962	20.801175
1025.304781	-3.011400	3.633900	-10.941000	24.937010	0.000962	20.813274
1026.310095	-3.005800	3.634300	-10.922000	24.963196	0.000963	20.801625
1027.302544	-3.015400	3.634300	-10.957000	24.983338	0.000962	20.795289
1028.311629	-2.996100	3.634800	-10.888000	25.010385	0.000961	20.817697
1029.304886	-3.000300	3.634000	-10.901000	24.987662	0.000961	20.827130
1030.304392	-2.996900	3.634400	-10.891000	24.992736	0.000962	20.805197
1031.304018	-3.000800	3.634600	-10.906000	24.932099	0.000963	20.806922
1032.299944	-2.979900	3.633400	-10.826000	24.944512	0.000961	20.788086
1033.304235	-3.005500	3.632700	-10.917000	24.945904	0.000960	20.791381
1034.311000	-3.020000	3.633000	-10.970000	24.936383	0.000960	20.829713
1035.307042	-2.990800	3.632200	-10.863000	24.941547	0.000956	20.809767
1036.310355	-3.008600	3.632800	-10.929000	24.942793	0.000959	20.814811
1037.314897	-2.975800	3.631700	-10.806000	24.962691	0.000958	20.819609
1038.303022	-2.986900	3.632700	-10.850000	24.956574	0.000957	20.834806
1039.310254	-2.996100	3.629800	-10.874000	24.957519	0.000959	20.838125
1040.303631	-2.986000	3.631200	-10.841000	24.954318	0.000957	20.816895
1041.316293	-2.985600	3.630800	-10.839000	24.970803	0.000957	20.836760
1042.321147	-3.011400	3.630100	-10.930000	24.952029	0.000957	20.821710
1043.309159	-2.993200	3.629300	-10.862000	24.956248	0.000955	20.815039
1044.314488	-2.986000	3.630800	-10.840000	24.986139	0.000954	20.810429
1045.304163	-3.008200	3.629400	-10.917000	24.950416	0.000954	20.831471
1046.310071	-2.996600	3.628400	-10.872000	24.980226	0.000954	20.822985
1047.304735	-2.983100	3.629500	-10.826000	24.942980	0.000953	20.833964
1048.314619	-2.993300	3.628500	-10.860000	24.916476	0.000955	20.812579
1049.312893	-2.976400	3.628300	-10.799000	24.919954	0.000954	20.837880
1050.324926	-2.994200	3.628200	-10.861000	24.925029	0.000952	20.824955
1051.306922	-3.014200	3.625600	-10.927000	24.930649	0.000953	20.837708
1052.308187	-2.983400	3.628600	-10.825000	24.898899	0.000953	20.821963
1053.323803	-2.983400	3.626200	-10.818000	24.909716	0.000949	20.813380
1054.313170	-2.992500	3.627900	-10.855000	24.935071	0.000951	20.831242
1055.312801	-2.990700	3.626200	-10.844000	24.949740	0.000951	20.834585
1056.307965	-3.004500	3.626300	-10.894000	24.935348	0.000951	20.824882
1057.320299	-2.989600	3.627000	-10.841000	24.931422	0.000949	20.818097
1058.318832	-2.987900	3.626200	-10.834000	24.923839	0.000948	20.822339
1059.308866	-3.008700	3.624500	-10.903000	24.954090	0.000949	20.828046
1060.314488	-2.995500	3.625400	-10.860000	24.984176	0.000947	20.817467
1061.318532	-3.022000	3.623200	-10.948000	25.014042	0.000950	20.827530
1062.311658	-3.035900	3.622800	-10.997000	25.012307	0.000948	20.803030
1063.311140	-3.007300	3.623900	-10.897000	25.025428	0.000949	20.814778
1064.315547	-3.011500	3.623300	-10.910000	25.015809	0.000947	20.805597
1065.311766	-3.005200	3.623300	-10.887000	25.019010	0.000948	20.805491
1066.312502	-2.974900	3.623700	-10.780000	25.018912	0.000946	20.827203
1067.314472	-2.993600	3.622900	-10.845000	25.025582	0.000948	20.806872
1068.312423	-3.009500	3.623100	-10.903000	25.071368	0.000948	20.820116
1069.312716	-3.033900	3.621000	-10.985000	25.036813	0.000945	20.833792
1070.314237	-3.018400	3.620700	-10.929000	25.065554	0.000945	20.817124
1071.312021	-3.026900	3.620400	-10.957000	25.082045	0.000945	20.800013
1072.329663	-2.965900	3.622600	-10.743000	25.072671	0.000944	20.826639
1073.321122	-3.000500	3.622200	-10.867000	25.029337	0.000942	20.795942
1074.319371	-2.989000	3.620800	-10.821000	25.027594	0.000943	20.809840
1075.317202	-2.996700	3.619400	-10.846000	25.029866	0.000942	20.805482
1076.318305	-2.973200	3.621800	-10.767000	25.006817	0.000942	20.797046
1077.316440	-2.990000	3.620300	-10.823000	25.012674	0.000942	20.822364
1078.318502	-2.983400	3.621000	-10.803000	25.014319	0.000942	20.804101
1079.320167	-2.995900	3.619300	-10.841000	25.019319	0.000940	20.810543
1080.317409	-3.021600	3.618200	-10.932000	25.016811	0.000942	20.804706
1081.321202	-2.985100	3.618800	-10.802000	25.014172	0.000939	20.805850
1082.322834	-2.987300	3.619100	-10.810000	25.015125	0.000939	20.796850
1083.326409	-2.979800	3.618600	-10.781000	25.021005	0.000939	20.799907
1084.319293	-3.021900	3.616600	-10.928000	25.014050	0.000938	20.802883
1085.319777	-3.013000	3.618800	-10.903000	25.006834	0.000938	20.789476
1086.318192	-3.004800	3.617300	-10.868000	24.995301	0.000940	20.798289
1087.319544	-3.011400	3.617600	-10.893000	24.957258	0.000937	20.795190
1088.325106	-2.979200	3.618600	-10.779000	24.925957	0.000937	20.778472
1089.329099	-2.994200	3.616700	-10.828000	24.943680	0.000936	20.783933
1090.324514	-2.976000	3.616300	-10.761000	24.962943	0.000937	20.789991
1091.321019	-3.008300	3.615900	-10.877000	24.993550	0.000936	20.796057
1092.327888	-2.975500	3.616500	-10.760000	24.987182	0.000935	20.783500
1093.331370	-2.990000	3.616700	-10.813000	24.977628	0.000932	20.789084
1094.324776	-2.966200	3.617000	-10.728000	24.990505	0.000936	20.793000
1095.323641	-3.028600	3.614200	-10.944000	25.038491	0.000934	20.787588
1096.326582	-3.004000	3.614500	-10.857000	25.003959	0.000935	20.770469
1097.322140	-2.999300	3.615000	-10.841000	24.994064	0.000934	20.783296
1098.328325	-2.995200	3.613900	-10.823000	24.945627	0.000934	20.777353
1099.330698	-2.987400	3.615000	-10.798000	24.990334	0.000932	20.783345
1100.324107	-2.978500	3.615000	-10.766000	24.985260	0.000932	20.788683
1101.334165	-3.020600	3.611000	-10.906000	25.011558	0.000931	20.800382
1102.323117	-2.983900	3.613000	-10.780000	25.022748	0.000932	20.785536
1103.330126	-3.005100	3.612500	-10.854000	25.010621	0.000932	20.768621
1104.329648	-3.003400	3.612200	-10.848000	25.031723	0.000928	20.788381
1105.328928	-2.995400	3.611800	-10.818000	25.053647	0.000928	20.752066
1106.328007	-2.990900	3.613400	-10.806000	25.054502	0.000927	20.772366
1107.326381	-2.983800	3.611600	-10.775000	25.074488	0.000928	20.760184
1108.327354	-3.001400	3.610500	-10.835000	25.079773	0.000927	20.760275
1109.328131	-2.995500	3.611000	-10.816000	25.087567	0.000928	20.768572
1110.335039	-2.991500	3.611500	-10.802000	25.082339	0.000928	20.793196
1111.332368	-3.007600	3.610400	-10.858000	25.049168	0.000927	20.755631
1112.328767	-3.012900	3.610800	-10.877000	25.056514	0.000927	20.760160
1113.342813	-2.981500	3.610000	-10.763000	25.070481	0.000927	20.769439
1114.331176	-3.000400	3.610400	-10.831000	25.043182	0.000924	20.769063
1115.328794	-3.001700	3.609100	-10.830000	24.994553	0.000924	20.781416
1116.331891	-2.997900	3.608200	-10.816000	24.999032	0.000924	20.782119
1117.330251	-3.004200	3.607800	-10.838000	25.001541	0.000923	20.768515
1118.330644	-2.997500	3.607600	-10.813000	24.978695	0.000925	20.765498
1119.329150	-2.984800	3.609100	-10.771000	24.986123	0.000925	20.756833
1120.330742	-3.007100	3.607400	-10.847000	24.942761	0.000925	20.767837
1121.331771	-2.996300	3.607300	-10.808000	24.912795	0.000923	20.774745
1122.340869	-3.031600	3.607100	-10.934000	24.937043	0.000922	20.781538
1123.329042	-2.994900	3.607700	-10.803000	24.955214	0.000921	20.776543
1124.330594	-2.989600	3.606000	-10.779000	24.928816	0.000922	20.765221
1125.342249	-3.001700	3.606900	-10.827000	24.938533	0.000919	20.767861
1126.345870	-2.998100	3.606200	-10.810000	24.975706	0.000919	20.763921
1127.331656	-3.005400	3.604300	-10.832000	25.028482	0.000920	20.756677
1128.332451	-3.012800	3.604800	-10.860000	25.006932	0.000917	20.773927
1129.330018	-3.001300	3.604900	-10.818000	25.059918	0.000919	20.730385
1130.336555	-2.992300	3.604200	-10.784000	25.055904	0.000918	20.756702
1131.331706	-2.990100	3.604100	-10.775000	25.085018	0.000918	20.763169
1132.329662	-2.994900	3.603500	-10.792000	25.094636	0.000918	20.769505
1133.349086	-3.018400	3.603200	-10.875000	25.104905	0.000917	20.763692
1134.331172	-2.978000	3.603900	-10.731000	25.104026	0.000917	20.752852
1135.350492	-3.006500	3.603100	-10.831000	25.102307	0.000917	20.745437
1136.334748	-2.969300	3.602900	-10.697000	25.089106	0.000916	20.763005
1137.335223	-2.995600	3.603200	-10.793000	25.077428	0.000916	20.751282
1138.337442	-3.014400	3.601500	-10.856000	25.043411	0.000917	20.762654
1139.331623	-3.009800	3.601400	-10.837000	25.047540	0.000915	20.763480
1140.336494	-3.021000	3.601700	-10.880000	25.078544	0.000917	20.754299
1141.335689	-3.001100	3.600500	-10.804000	25.112723	0.000913	20.758264
1142.333237	-3.017700	3.600300	-10.864000	25.093977	0.000913	20.762678
1143.346581	-2.963900	3.601000	-10.672000	25.103790	0.000913	20.754037
1144.355595	-2.994400	3.599900	-10.779000	25.125639	0.000912	20.762695
1145.341498	-2.997000	3.600500	-10.789000	25.141478	0.000913	20.756310
1146.338170	-2.995400	3.601200	-10.785000	25.140330	0.000910	20.761322
1147.343263	-3.003100	3.599000	-10.807000	25.135558	0.000911	20.753212
1148.352505	-2.992900	3.599600	-10.772000	25.144776	0.000910	20.749664
1149.337327	-2.981700	3.599900	-10.732000	25.124743	0.000910	20.760847
1150.342539	-3.002600	3.597900	-10.802000	25.143604	0.000910	20.750383
1151.349886	-2.983900	3.599600	-10.740000	25.161828	0.000908	20.753032
1152.339926	-3.012300	3.598900	-10.839000	25.185541	0.000907	20.752656
1153.346699	-3.012000	3.596000	-10.829000	25.156258	0.000908	20.759768
1154.340361	-2.990000	3.598300	-10.757000	25.162122	0.000908	20.739101
1155.341243	-3.001700	3.596200	-10.794000	25.135672	0.000907	20.747162
1156.341459	-3.001600	3.596500	-10.793000	25.115761	0.000907	20.770323
1157.341834	-2.992100	3.597300	-10.762000	25.051165	0.000906	20.746729
1158.341675	-2.974100	3.598100	-10.700000	25.072526	0.000904	20.742568
1159.354803	-2.998600	3.596000	-10.782000	25.088113	0.000905	20.735929
1160.338911	-2.990000	3.596600	-10.753000	25.114239	0.000906	20.741292
1161.348993	-3.016200	3.595000	-10.841000	25.077152	0.000907	20.751953
1162.347223	-3.016500	3.595100	-10.843000	25.078121	0.000904	20.738226
1163.340675	-2.987800	3.595400	-10.740000	25.115468	0.000904	20.755329
1164.347028	-3.014000	3.593200	-10.829000	25.139052	0.000902	20.730640
1165.343461	-2.993300	3.593700	-10.756000	25.128612	0.000904	20.749083
1166.346176	-2.997900	3.594000	-10.772000	25.094433	0.000904	20.740376
1167.352029	-3.001600	3.594400	-10.788000	25.109246	0.000903	20.752877
1168.347321	-2.990300	3.593400	-10.744000	25.087649	0.000901	20.745421
1169.342653	-2.991100	3.592700	-10.745000	25.088138	0.000900	20.729789
1170.345582	-3.011500	3.592500	-10.818000	25.087747	0.000900	20.750260
1171.351414	-3.001300	3.592000	-10.779000	25.047573	0.000899	20.730795
1172.348387	-3.004500	3.591100	-10.788000	25.018262	0.000900	20.743573
1173.344431	-3.007200	3.591600	-10.799000	25.010264	0.000898	20.735544
1174.341288	-2.999600	3.591000	-10.770000	25.006184	0.000897	20.748993
1175.349759	-2.984400	3.591200	-10.715000	25.043900	0.000898	20.729952
1176.340564	-2.990700	3.591200	-10.739000	25.047630	0.000898	20.762147
1177.345480	-3.010800	3.590400	-10.809000	25.058567	0.000897	20.735667
1178.341977	-2.979400	3.591200	-10.698000	25.024508	0.000896	20.737041
1179.341486	-3.018100	3.590300	-10.834000	25.065530	0.000896	20.743606
1180.341898	-2.991000	3.589600	-10.735000	25.104123	0.000897	20.734457
1181.343032	-3.018100	3.587400	-10.825000	25.112031	0.000894	20.740973
1182.343391	-2.985000	3.588800	-10.711000	25.106233	0.000894	20.743213
1183.352565	-2.996400	3.588600	-10.752000	25.120337	0.000893	20.733664
1184.349861	-3.000000	3.588400	-10.764000	25.091769	0.000893	20.735332
1185.346223	-3.027500	3.586800	-10.858000	25.079041	0.000895	20.724924
1186.346376	-3.034100	3.586300	-10.880000	25.120989	0.000892	20.725782
1187.345577	-3.025800	3.585300	-10.847000	25.128497	0.000892	20.736640
1188.347599	-2.993900	3.586800	-10.738000	25.133269	0.000892	20.734792
1189.344810	-2.982700	3.586500	-10.696000	25.157781	0.000892	20.733794
1190.350926	-3.003200	3.587300	-10.772000	25.165134	0.000892	20.722210
1191.354155	-2.987700	3.587200	-10.716000	25.139605	0.000891	20.736411
1192.349375	-2.980900	3.586800	-10.692000	25.179979	0.000892	20.749442
1193.352183	-3.033300	3.584500	-10.871000	25.170240	0.000889	20.727336
1194.355020	-3.009700	3.585500	-10.790000	25.180231	0.000889	20.724564
1195.354811	-3.006000	3.585400	-10.777000	25.189604	0.000888	20.690823
1196.349291	-3.018800	3.583200	-10.816000	25.198757	0.000886	20.724196
1197.346451	-2.997000	3.584900	-10.743000	25.202185	0.000887	20.730957
1198.349095	-2.969000	3.584800	-10.642000	25.196069	0.000887	20.737146
1199.353903	-3.010700	3.583100	-10.785000	25.183325	0.000887	20.716764
1200.358121	-3.021200	3.584100	-10.828000	25.185084	0.000886	20.744136
1201.357737	-3.001900	3.583400	-10.756000	25.202063	0.000886	20.703806
1202.361583	-3.008100	3.582200	-10.775000	25.202738	0.000885	20.726297
1203.353242	-2.999800	3.582100	-10.744000	25.232175	0.000883	20.725978
1204.358502	-2.993800	3.583400	-10.728000	25.237068	0.000884	20.719511
1205.360579	-2.990300	3.581400	-10.709000	25.265079	0.000884	20.734358
1206.351216	-2.986200	3.582500	-10.697000	25.260812	0.000885	20.731971
1207.357246	-2.982800	3.583400	-10.688000	25.297298	0.000884	20.746793
1208.352865	-3.002300	3.582500	-10.754000	25.315048	0.000882	20.720043
1209.354032	-3.001800	3.581500	-10.749000	25.345401	0.000881	20.732028
1210.364461	-2.990300	3.579700	-10.703000	25.360463	0.000882	20.710166
1211.361218	-3.013800	3.579800	-10.788000	25.359820	0.000883	20.719953
1212.358428	-2.992900	3.580200	-10.714000	25.310691	0.000881	20.734636
1213.358891	-2.986500	3.580300	-10.692000	25.289489	0.000879	20.714769
1214.354352	-3.001200	3.579000	-10.740000	25.282308	0.000879	20.717042
1215.359168	-2.990100	3.579200	-10.700000	25.259639	0.000882	20.711826
1216.360458	-3.005900	3.579300	-10.758000	25.258589	0.000878	20.718358
1217.360084	-3.000100	3.578900	-10.736000	25.261479	0.000879	20.725054
1218.359686	-2.998500	3.577200	-10.724000	25.256610	0.000877	20.701672
1219.358959	-3.015000	3.577100	-10.784000	25.237768	0.000877	20.709308
1220.361747	-3.015400	3.577600	-10.787000	25.243142	0.000876	20.701426
1221.367680	-2.990800	3.578400	-10.701000	25.254134	0.000876	20.703454
1222.360325	-3.013900	3.576100	-10.777000	25.281078	0.000875	20.705375
1223.366165	-2.991000	3.576500	-10.697000	25.247767	0.000877	20.707018
1224.362658	-2.995300	3.577100	-10.714000	25.292339	0.000874	20.722372
1225.359215	-2.997400	3.576800	-10.720000	25.284090	0.000874	20.707451
1226.360114	-3.025900	3.574500	-10.815000	25.266462	0.000873	20.703977
1227.363375	-2.982200	3.577900	-10.668000	25.274344	0.000873	20.713788
1228.354980	-3.003000	3.574300	-10.733000	25.279246	0.000871	20.709700
1229.367536	-3.010600	3.574000	-10.758000	25.279530	0.000872	20.697183
1230.359959	-2.980100	3.575000	-10.653000	25.283146	0.000872	20.688484
1231.360275	-2.998500	3.573600	-10.715000	25.273815	0.000872	20.702350
1232.372457	-2.981500	3.575100	-10.658000	25.251317	0.000870	20.689244
1233.353435	-3.021800	3.573500	-10.798000	25.251317	0.000870	20.692563
1234.359321	-3.025700	3.573100	-10.810000	25.252717	0.000869	20.699186
1235.361637	-2.999400	3.573000	-10.715000	25.256349	0.000871	20.701409
1236.360109	-3.009100	3.572500	-10.749000	25.278195	0.000869	20.703903
1237.361650	-3.039000	3.570900	-10.850000	25.277617	0.000868	20.697632
1238.357412	-3.006900	3.570800	-10.737000	25.284237	0.000869	20.715659
1239.364486	-2.998400	3.571800	-10.709000	25.311358	0.000865	20.690257
1240.363192	-2.991700	3.571600	-10.684000	25.319085	0.000865	20.687584
1241.366910	-3.007000	3.569300	-10.732000	25.338569	0.000866	20.688181
1242.359024	-3.004000	3.570500	-10.725000	25.365364	0.000864	20.686161
1243.361345	-2.994600	3.571300	-10.694000	25.350627	0.000866	20.704557
1244.372103	-3.005300	3.569600	-10.726000	25.320787	0.000864	20.683128
1245.359366	-2.996300	3.569700	-10.695000	25.303159	0.000867	20.694354
1246.365292	-2.995100	3.570100	-10.692000	25.315437	0.000863	20.723279
1247.361715	-3.011600	3.567600	-10.744000	25.325656	0.000863	20.662410
1248.359694	-2.992800	3.570200	-10.683000	25.345563	0.000863	20.689988
1249.363944	-3.003300	3.567800	-10.714000	25.310796	0.000860	20.685900
1250.367073	-2.992600	3.567000	-10.673000	25.331673	0.000862	20.710182
1251.359654	-2.973900	3.568100	-10.610000	25.325558	0.000861	20.671322
1252.360969	-2.991100	3.567800	-10.671000	25.340067	0.000863	20.683046
1253.367073	-2.996300	3.568000	-10.689000	25.332519	0.000862	20.688745
1254.359346	-2.981100	3.567300	-10.633000	25.315218	0.000860	20.669474
1255.362243	-2.984200	3.567500	-10.644000	25.350586	0.000861	20.683651
1256.358025	-2.994600	3.566100	-10.679000	25.297777	0.000858	20.695114
1257.377367	-3.004300	3.566500	-10.714000	25.278170	0.000858	20.685384
1258.361253	-2.998000	3.565400	-10.687000	25.285352	0.000857	20.686431
1259.364110	-2.996400	3.563700	-10.678000	25.271974	0.000858	20.674421
1260.364362	-3.003800	3.565500	-10.709000	25.260045	0.000857	20.694214
1261.362586	-3.005900	3.564300	-10.713000	25.276558	0.000857	20.670014
1262.366985	-3.000200	3.564900	-10.694000	25.280605	0.000856	20.670284
1263.369956	-3.008200	3.564100	-10.720000	25.287119	0.000856	20.700534
1264.365411	-2.991500	3.564000	-10.659000	25.266282	0.000855	20.672025
1265.379240	-2.979000	3.563800	-10.613000	25.212696	0.000855	20.674175
1266.368760	-3.018400	3.562000	-10.750000	25.209414	0.000854	20.686529
1267.361571	-3.007000	3.563100	-10.712000	25.200269	0.000855	20.670234
1268.378893	-2.975700	3.562500	-10.600000	25.224877	0.000853	20.674551
1269.368268	-3.003300	3.562400	-10.697000	25.260860	0.000853	20.689342
1270.367652	-3.045400	3.559700	-10.839000	25.252066	0.000850	20.688099
1271.374927	-2.998300	3.561000	-10.676000	25.241032	0.000852	20.677021
1272.371314	-3.015800	3.561100	-10.738000	25.240381	0.000850	20.686325
1273.372055	-2.978700	3.562300	-10.609000	25.269222	0.000852	20.677348
1274.376512	-3.009000	3.561400	-10.715000	25.284757	0.000850	20.704328
1275.373944	-3.013700	3.560100	-10.729000	25.256055	0.000849	20.686889
1276.367066	-2.984200	3.561200	-10.625000	25.241830	0.000849	20.659802
1277.372083	-2.986300	3.560700	-10.633000	25.219479	0.000849	20.666286
1278.375713	-2.995400	3.559500	-10.661000	25.165385	0.000850	20.694484
1279.377568	-3.006800	3.558500	-10.699000	25.173129	0.000848	20.679498
1280.370854	-3.015600	3.558100	-10.729000	25.187843	0.000848	20.687633
1281.368727	-2.976400	3.560000	-10.595000	25.184065	0.000846	20.673881
1282.389152	-3.006600	3.557900	-10.696000	25.197810	0.000846	20.672507
1283.369916	-3.008300	3.557300	-10.699000	25.208820	0.000845	20.684984
1284.372739	-3.003400	3.557700	-10.684000	25.223786	0.000846	20.645952
1285.371669	-3.017100	3.556400	-10.729000	25.220081	0.000845	20.668787
1286.377658	-2.995300	3.556600	-10.652000	25.244924	0.000844	20.685196
1287.383243	-2.994200	3.556400	-10.647000	25.310560	0.000844	20.664323
1288.371481	-2.985700	3.557200	-10.619000	25.318767	0.000843	20.686316
1289.373012	-2.992100	3.555100	-10.636000	25.310487	0.000844	20.677527
1290.377929	-3.008300	3.554700	-10.692000	25.338080	0.000843	20.671093
1291.376797	-3.004400	3.554300	-10.677000	25.360698	0.000845	20.651127
1292.375283	-3.001500	3.554100	-10.667000	25.364175	0.000841	20.657463
1293.373863	-3.014200	3.555000	-10.713000	25.393378	0.000841	20.662606
1294.371029	-3.034100	3.554300	-10.783000	25.380629	0.000839	20.665926
1295.384386	-3.016700	3.552700	-10.716000	25.354755	0.000840	20.666972
1296.370658	-2.998600	3.552400	-10.651000	25.333260	0.000839	20.675263
1297.391657	-3.013400	3.553100	-10.706000	25.307840	0.000840	20.674870
1298.380766	-2.988800	3.553200	-10.619000	25.291816	0.000836	20.674903
1299.372868	-2.997700	3.552900	-10.650000	25.274962	0.000838	20.683111
1300.379109	-3.007400	3.551600	-10.680000	25.304991	0.000837	20.694770
1301.382824	-3.022300	3.551800	-10.732000	25.313263	0.000838	20.649017
1302.379815	-3.033000	3.550300	-10.767000	25.333716	0.000836	20.673349
1303.374637	-3.002000	3.552500	-10.663000	25.330337	0.000835	20.670430
1304.372927	-3.021500	3.549800	-10.723000	25.335857	0.000834	20.669809
1305.378784	-2.976500	3.550300	-10.566000	25.346303	0.000834	20.668918
1306.380903	-2.991200	3.550700	-10.620000	25.349364	0.000835	20.676260
1307.385475	-2.999300	3.550400	-10.647000	25.334123	0.000836	20.681819
1308.375107	-2.985000	3.550700	-10.597000	25.363352	0.000833	20.662328
1309.378894	-3.000800	3.551600	-10.657000	25.384699	0.000833	20.679023
1310.389385	-2.989000	3.549800	-10.609000	25.407097	0.000831	20.674486
1311.385107	-2.992100	3.548600	-10.616000	25.422085	0.000833	20.650652
1312.378121	-2.994000	3.549300	-10.625000	25.405639	0.000830	20.676341
1313.376867	-2.981200	3.549700	-10.580000	25.429672	0.000829	20.683405
1314.376985	-2.993000	3.547300	-10.616000	25.447591	0.000830	20.668206
1315.383161	-3.004200	3.547800	-10.658000	25.402041	0.000829	20.681737
1316.375152	-2.986300	3.548500	-10.595000	25.393411	0.000828	20.642722
1317.380756	-3.005200	3.548500	-10.663000	25.334041	0.000827	20.683634
1318.398582	-2.991500	3.548400	-10.615000	25.293722	0.000827	20.681083
1319.385351	-3.011200	3.545300	-10.675000	25.311716	0.000829	20.676865
1320.380608	-3.015300	3.546100	-10.692000	25.340245	0.000826	20.679432
1321.395591	-3.017700	3.545800	-10.699000	25.365794	0.000826	20.663832
1322.386838	-3.010900	3.546200	-10.676000	25.340571	0.000827	20.683078
1323.388656	-2.996500	3.546300	-10.625000	25.338112	0.000826	20.677290
1324.384308	-2.991600	3.545100	-10.603000	25.319540	0.000824	20.670496
1325.386607	-3.029300	3.543300	-10.733000	25.348184	0.000825	20.673177
1326.384974	-3.005700	3.544000	-10.652000	25.364834	0.000823	20.681361
1327.389584	-3.013500	3.542800	-10.675000	25.388941	0.000824	20.667634
1328.378551	-3.003400	3.543500	-10.640000	25.351953	0.000823	20.681705
1329.382710	-2.999800	3.543000	-10.627000	25.324450	0.000821	20.679219
1330.387799	-2.980500	3.543100	-10.558000	25.282746	0.000822	20.708946
1331.379663	-2.995900	3.543500	-10.614000	25.299095	0.000820	20.680315
1332.388526	-2.988500	3.543200	-10.588000	25.293559	0.000821	20.673333
1333.384789	-2.977400	3.542800	-10.547000	25.328700	0.000821	20.678271
1334.391272	-2.963300	3.542600	-10.495000	25.318987	0.000817	20.673259
1335.388183	-2.982700	3.540400	-10.559000	25.289805	0.000819	20.679996
1336.385209	-2.985200	3.540200	-10.568000	25.285082	0.000817	20.673357
1337.389020	-2.997900	3.541400	-10.615000	25.260256	0.000820	20.680674
1338.385438	-3.004500	3.539400	-10.633000	25.259312	0.000818	20.678303
1339.390730	-2.989600	3.540600	-10.584000	25.219641	0.000817	20.683045
1340.383862	-2.997900	3.539800	-10.610000	25.205716	0.000819	20.686610
1341.384652	-3.004000	3.538300	-10.628000	25.240266	0.000818	20.687158
1342.381173	-3.010300	3.538200	-10.650000	25.237066	0.000816	20.686316
1343.387042	-3.005400	3.538600	-10.632000	25.255884	0.000816	20.681026
1344.388470	-3.033600	3.538400	-10.734000	25.266078	0.000814	20.684623
1345.389348	-2.996900	3.538700	-10.603000	25.326738	0.000814	20.687681
1346.385768	-2.994200	3.537500	-10.590000	25.322284	0.000814	20.695064
1347.385282	-2.987800	3.537800	-10.569000	25.288966	0.000814	20.673463
1348.385977	-3.023400	3.537800	-10.695000	25.282102	0.000813	20.686962
1349.389167	-2.995400	3.537600	-10.595000	25.262789	0.000813	20.697917
1350.386876	-2.998900	3.536700	-10.605000	25.217556	0.000813	20.690911
1351.384880	-2.980400	3.536000	-10.537000	25.187549	0.000813	20.671689
1352.404764	-2.992500	3.536400	-10.581000	25.184764	0.000810	20.699716
1353.397894	-3.020700	3.536100	-10.680000	25.158299	0.000811	20.674093
1354.387263	-2.996700	3.536800	-10.598000	25.174602	0.000812	20.695677
1355.388296	-3.016200	3.534900	-10.660000	25.181711	0.000811	20.699021
1356.388506	-2.995200	3.534700	-10.585000	25.198184	0.000810	20.693748
1357.386064	-2.998300	3.533600	-10.593000	25.217173	0.000809	20.692897
1358.397092	-3.003700	3.534800	-10.616000	25.272429	0.000809	20.693846
1359.387899	-3.008300	3.534300	-10.631000	25.282225	0.000808	20.701310
1360.394562	-2.989000	3.533900	-10.562000	25.287493	0.000807	20.688581
1361.388725	-2.994200	3.533600	-10.579000	25.316275	0.000806	20.710843
1362.389533	-3.009000	3.532600	-10.628000	25.312326	0.000806	20.700239
1363.387043	-3.005900	3.532000	-10.616000	25.310511	0.000806	20.697468
1364.395350	-2.999400	3.532900	-10.594000	25.330100	0.000805	20.681574
1365.389008	-2.992200	3.533100	-10.571000	25.324336	0.000804	20.711350
1366.397909	-2.990500	3.531800	-10.561000	25.317146	0.000806	20.692276
1367.389859	-2.977600	3.531100	-10.513000	25.298411	0.000804	20.700493
1368.392735	-2.982400	3.531600	-10.532000	25.304355	0.000804	20.713574
1369.390733	-2.989700	3.532800	-10.561000	25.305291	0.000802	20.692227
1370.396837	-2.994500	3.530400	-10.571000	25.285775	0.000802	20.696814
1371.394349	-2.996800	3.530200	-10.578000	25.300496	0.000804	20.713018
1372.395715	-3.005500	3.530800	-10.610000	25.330792	0.000801	20.703608
1373.397180	-2.989200	3.530300	-10.550000	25.355470	0.000802	20.710843
1374.392519	-3.001900	3.528800	-10.592000	25.386914	0.000800	20.685515
1375.397767	-2.993200	3.528600	-10.561000	25.405419	0.000801	20.719272
1376.400660	-3.017000	3.527000	-10.640000	25.391180	0.000800	20.700231
1377.392463	-3.000400	3.528200	-10.585000	25.385717	0.000802	20.718455
1378.394535	-3.009200	3.526800	-10.610000	25.397546	0.000798	20.716108
1379.394190	-2.984100	3.526800	-10.523000	25.389820	0.000798	20.703133
1380.396167	-3.021100	3.525800	-10.651000	25.435811	0.000798	20.697631
1381.396483	-3.007900	3.527500	-10.609000	25.454560	0.000797	20.693699
1382.395666	-2.981700	3.526300	-10.513000	25.464768	0.000796	20.698735
1383.394464	-3.009300	3.525800	-10.609000	25.451026	0.000795	20.705799
1384.394507	-3.004300	3.526100	-10.593000	25.420652	0.000796	20.703272
1385.405946	-3.012600	3.524200	-10.616000	25.434223	0.000795	20.719272
1386.401251	-2.981000	3.525400	-10.508000	25.462009	0.000795	20.704499
1387.397694	-3.002100	3.524400	-10.579000	25.459542	0.000794	20.724308
1388.402039	-3.014800	3.524400	-10.624000	25.474424	0.000792	20.716493
1389.399481	-2.993600	3.523800	-10.548000	25.485308	0.000794	20.716517
1390.398077	-2.971300	3.524300	-10.471000	25.494930	0.000794	20.705316
1391.399816	-2.994800	3.523700	-10.552000	25.521965	0.000794	20.728200
1392.400807	-2.995500	3.523100	-10.552000	25.495818	0.000793	20.740349
1393.398707	-3.021200	3.522900	-10.642000	25.533973	0.000793	20.712282
1394.408606	-3.006600	3.522500	-10.589000	25.519857	0.000792	20.742679
1395.408207	-2.993000	3.522400	-10.541000	25.507988	0.000792	20.707524
1396.404894	-2.989600	3.522200	-10.529000	25.493253	0.000793	20.721652
1397.403210	-3.032900	3.520500	-10.676000	25.440744	0.000790	20.719657
1398.402602	-2.997100	3.520900	-10.551000	25.438579	0.000789	20.704679
1399.404306	-2.994600	3.521600	-10.545000	25.419292	0.000790	20.731307
1400.404896	-2.980300	3.520300	-10.490000	25.401373	0.000788	20.725641
1401.412878	-2.991000	3.521500	-10.532000	25.362473	0.000787	20.732574
1402.403973	-2.981600	3.519700	-10.493000	25.319573	0.000789	20.726483
1403.406626	-3.004200	3.519000	-10.570000	25.300081	0.000787	20.726353
1404.405783	-3.009900	3.518700	-10.590000	25.274188	0.000787	20.733073
1405.400574	-2.992500	3.519700	-10.532000	25.275353	0.000787	20.717646
1406.402080	-3.016700	3.517400	-10.609000	25.336745	0.000787	20.716223
1407.406190	-2.985900	3.519500	-10.508000	25.384634	0.000784	20.704090
1408.401552	-2.988100	3.517900	-10.511000	25.413414	0.000784	20.740578
1409.399190	-3.013500	3.517300	-10.598000	25.428175	0.000786	20.742123
1410.403228	-3.012500	3.516900	-10.594000	25.405884	0.000785	20.736335
1411.402960	-3.013400	3.515800	-10.594000	25.381956	0.000781	20.751664
1412.403951	-2.989700	3.516900	-10.513000	25.383568	0.000783	20.742851
1413.402458	-3.006200	3.515700	-10.568000	25.343152	0.000783	20.722183
1414.400121	-3.004300	3.515300	-10.560000	25.306057	0.000781	20.738518
1415.410161	-3.017100	3.514200	-10.601000	25.284717	0.000782	20.741747
1416.399503	-2.989000	3.516200	-10.509000	25.311285	0.000781	20.746612
1417.405398	-3.002200	3.515700	-10.554000	25.356261	0.000780	20.735820
1418.411967	-2.969400	3.514200	-10.434000	25.384130	0.000779	20.729190
1419.403306	-3.001000	3.514400	-10.545000	25.414424	0.000780	20.761507
1420.404324	-3.010200	3.514500	-10.578000	25.421556	0.000780	20.741167
1421.403575	-2.987700	3.513700	-10.495000	25.405053	0.000777	20.739769
1422.406853	-3.012600	3.512800	-10.582000	25.387810	0.000778	20.737153
1423.410820	-2.981200	3.513900	-10.475000	25.406967	0.000777	20.736948
1424.412418	-2.991600	3.513400	-10.509000	25.394127	0.000775	20.728323
1425.407357	-2.984600	3.511900	-10.481000	25.410598	0.000776	20.710721
1426.418304	-3.001100	3.510700	-10.535000	25.407545	0.000775	20.734209
1427.403131	-2.987000	3.512600	-10.491000	25.428793	0.000775	20.759341
1428.413226	-3.007100	3.511100	-10.558000	25.420693	0.000774	20.742197
1429.409979	-2.978500	3.510700	-10.454000	25.436503	0.000772	20.735787
1430.410563	-2.988000	3.510000	-10.487000	25.453673	0.000775	20.747813
1431.407579	-2.982000	3.509200	-10.463000	25.475222	0.000774	20.714923
1432.407772	-2.986200	3.510300	-10.482000	25.477436	0.000772	20.745598
1433.413031	-3.005800	3.510400	-10.550000	25.476988	0.000773	20.737561
1434.402995	-3.003800	3.508200	-10.536000	25.483452	0.000771	20.733621
1435.404628	-3.015500	3.507500	-10.576000	25.514191	0.000774	20.756904
1436.408564	-3.010000	3.508100	-10.558000	25.515933	0.000771	20.735893
1437.402616	-3.014400	3.508100	-10.572000	25.524807	0.000771	20.757133
1438.404867	-2.979100	3.508800	-10.452000	25.498146	0.000769	20.744584
1439.409871	-3.013500	3.508700	-10.572000	25.487417	0.000768	20.730489
1440.405559	-2.991900	3.507500	-10.493000	25.504943	0.000768	20.736711
1441.404992	-3.009400	3.505900	-10.549000	25.486391	0.000768	20.745581
1442.405405	-3.016700	3.506000	-10.575000	25.491072	0.000769	20.764507
1443.404032	-2.995200	3.507300	-10.504000	25.475962	0.000768	20.757869
1444.410001	-3.002900	3.505000	-10.524000	25.488532	0.000768	20.775233
1445.415854	-3.010500	3.505500	-10.552000	25.510854	0.000767	20.762561
1446.408018	-2.994300	3.504400	-10.492000	25.522853	0.000767	20.760387
1447.410002	-3.000300	3.505700	-10.518000	25.536781	0.000767	20.744028
1448.406431	-2.981100	3.504200	-10.445000	25.543310	0.000764	20.772396
1449.408972	-3.002100	3.503900	-10.519000	25.567299	0.000765	20.745279
1450.412339	-2.991800	3.503300	-10.481000	25.595276	0.000764	20.768161
1451.417109	-3.010600	3.502900	-10.545000	25.601390	0.000765	20.764343
1452.410356	-2.963400	3.504000	-10.382000	25.577132	0.000763	20.756577
1453.414786	-2.999800	3.501100	-10.501000	25.588048	0.000764	20.738141
1454.411366	-2.992900	3.501800	-10.480000	25.570457	0.000763	20.745606
1455.410524	-3.004300	3.501500	-10.518000	25.545361	0.000765	20.752170
1456.409616	-2.976500	3.500600	-10.419000	25.522323	0.000761	20.763649
1457.413454	-2.975500	3.502100	-10.418000	25.534380	0.000761	20.761531
1458.412208	-3.035500	3.500300	-10.624000	25.538702	0.000760	20.764450
1459.408831	-2.998100	3.499400	-10.491000	25.541861	0.000761	20.766673
1460.423423	-2.988400	3.500400	-10.459000	25.592802	0.000760	20.765676
1461.417763	-3.018000	3.499900	-10.561000	25.617523	0.000761	20.759209
1462.413066	-2.997000	3.498600	-10.484000	25.645377	0.000760	20.759683
1463.414939	-3.004200	3.498000	-10.508000	25.607958	0.000760	20.765725
1464.424778	-3.029100	3.497100	-10.592000	25.556497	0.000760	20.765251
1465.424800	-3.021000	3.498100	-10.567000	25.549586	0.000759	20.771113
1466.416251	-3.025000	3.498100	-10.581000	25.533557	0.000759	20.772085
1467.426315	-3.009200	3.497500	-10.522000	25.579053	0.000757	20.769412
1468.412321	-3.001500	3.497600	-10.496000	25.593868	0.000756	20.752996
1469.415866	-2.998000	3.497600	-10.485000	25.617897	0.000756	20.774284
1470.422856	-3.013600	3.495500	-10.533000	25.615463	0.000754	20.765676
1471.413944	-3.020200	3.494900	-10.554000	25.655242	0.000754	20.791403
1472.418109	-3.031000	3.495500	-10.594000	25.666295	0.000755	20.770262
1473.415948	-2.996600	3.495600	-10.473000	25.642178	0.000754	20.793929
1474.419983	-3.004400	3.494700	-10.498000	25.640485	0.000755	20.782746
1475.413790	-2.983200	3.495400	-10.426000	25.645768	0.000752	20.780465
1476.416004	-2.988700	3.495600	-10.446000	25.655209	0.000751	20.770508
1477.414862	-3.001600	3.494400	-10.487000	25.643244	0.000753	20.784569
1478.421402	-2.985300	3.494300	-10.430000	25.639704	0.000752	20.786229
1479.420085	-3.005700	3.491900	-10.494000	25.643187	0.000752	20.787357
1480.417038	-3.005900	3.492400	-10.496000	25.665351	0.000751	20.772159
1481.417215	-2.999100	3.492000	-10.471000	25.681182	0.000750	20.789956
1482.418292	-2.989000	3.492900	-10.439000	25.684064	0.000751	20.786686
1483.416641	-2.987300	3.491800	-10.430000	25.685049	0.000750	20.779141
1484.421898	-2.999100	3.491600	-10.470000	25.676860	0.000751	20.792728
1485.420434	-3.011800	3.491200	-10.513000	25.641624	0.000751	20.815184
1486.429343	-3.009600	3.492000	-10.508000	25.590661	0.000750	20.791976
1487.428393	-3.028200	3.488700	-10.564000	25.551906	0.000750	20.781977
1488.420551	-3.008100	3.489600	-10.496000	25.563848	0.000749	20.790177
1489.423542	-3.000600	3.489500	-10.469000	25.576131	0.000747	20.793030
1490.420864	-2.988200	3.490300	-10.428000	25.575032	0.000746	20.810893
1491.428086	-3.009200	3.488300	-10.495000	25.604531	0.000747	20.788362
1492.432550	-3.019600	3.487000	-10.528000	25.597963	0.000746	20.798360
1493.425549	-3.029400	3.487700	-10.564000	25.599135	0.000746	20.793848
1494.438670	-3.037300	3.486700	-10.589000	25.603880	0.000748	20.801459
1495.430042	-2.997000	3.488700	-10.455000	25.623831	0.000745	20.808694
1496.422602	-3.008600	3.488600	-10.494000	25.638474	0.000745	20.776933
1497.423896	-2.975500	3.486800	-10.373000	25.609847	0.000743	20.795597
1498.441208	-2.983100	3.487600	-10.402000	25.621226	0.000740	20.801810
1499.431514	-2.991300	3.486400	-10.428000	25.626664	0.000743	20.799210
1500.433916	-3.000800	3.485800	-10.459000	25.629871	0.000742	20.794845
1501.424853	-3.047400	3.483700	-10.615000	25.615756	0.000742	20.816231
1502.427063	-2.998900	3.487100	-10.456000	25.599208	0.000740	20.816206
1503.430591	-3.017100	3.484500	-10.512000	25.557848	0.000740	20.796006
1504.425455	-3.002200	3.485200	-10.463000	25.563302	0.000741	20.814285
1505.425719	-2.995500	3.484500	-10.436000	25.565875	0.000741	20.799799
1506.427497	-2.995500	3.482800	-10.432000	25.563498	0.000741	20.820645
1507.428844	-2.988600	3.483300	-10.408000	25.583123	0.000741	20.800053
1508.446052	-3.007000	3.482600	-10.472000	25.609464	0.000737	20.810386
1509.426911	-3.011900	3.482600	-10.489000	25.623994	0.000738	20.815969
1510.429884	-2.989500	3.483000	-10.412000	25.657391	0.000738	20.821536
1511.430854	-3.004100	3.482300	-10.459000	25.669364	0.000737	20.819812
1512.426927	-3.003200	3.481900	-10.455000	25.672547	0.000739	20.837232
1513.434367	-2.985200	3.482300	-10.395000	25.672099	0.000737	20.814024
1514.438349	-3.023300	3.479700	-10.519000	25.647778	0.000737	20.811882
1515.433772	-2.965300	3.480800	-10.320000	25.632598	0.000737	20.813705
1516.434702	-2.993100	3.481300	-10.418000	25.641169	0.000734	20.828951
1517.435478	-3.013500	3.478800	-10.483000	25.656870	0.000734	20.830496
1518.436790	-2.997800	3.480500	-10.433000	25.680775	0.000733	20.810410
1519.435367	-2.997400	3.479000	-10.427000	25.692765	0.000732	20.828616
1520.429261	-3.006800	3.478600	-10.459000	25.711037	0.000734	20.831322
1521.449702	-2.994100	3.478900	-10.415000	25.686514	0.000732	20.813329
1522.432954	-2.986800	3.478500	-10.388000	25.665840	0.000731	20.831918
1523.436266	-3.014600	3.477800	-10.483000	25.649536	0.000733	20.822182
1524.434762	-3.004200	3.478300	-10.449000	25.631450	0.000732	20.803069
1525.432039	-3.002800	3.477200	-10.441000	25.617157	0.000732	20.803887
1526.432444	-2.998500	3.476900	-10.423000	25.608121	0.000729	20.831322
1527.431205	-3.005400	3.475300	-10.444000	25.628153	0.000730	20.810664
1528.442592	-3.002100	3.477400	-10.438000	25.649219	0.000729	20.808587
1529.431859	-2.999900	3.476100	-10.427000	25.675534	0.000730	20.833120
1530.434382	-2.995100	3.474300	-10.405000	25.687734	0.000727	20.810288
1531.438369	-3.001200	3.474600	-10.427000	25.699365	0.000727	20.809168
1532.434020	-3.002300	3.474300	-10.430000	25.728626	0.000726	20.804418
1533.437922	-3.004200	3.473900	-10.435000	25.751960	0.000728	20.788975
1534.433171	-2.995800	3.473500	-10.405000	25.752358	0.000727	20.831101
1535.442514	-3.010900	3.472400	-10.453000	25.789528	0.000727	20.817702
1536.438706	-2.986300	3.473200	-10.371000	25.779143	0.000725	20.793521
1537.432145	-2.984400	3.472400	-10.361000	25.781381	0.000726	20.795769
1538.434989	-3.003200	3.471900	-10.426000	25.772314	0.000724	20.812740
1539.438560	-2.994500	3.471300	-10.394000	25.774496	0.000724	20.805922
1540.434742	-3.000200	3.471100	-10.413000	25.756355	0.000722	20.805718
1541.435829	-2.994100	3.470700	-10.389000	25.744765	0.000723	20.809723
1542.442592	-2.995900	3.470900	-10.397000	25.738653	0.000721	20.791730
1543.444137	-2.997300	3.471000	-10.402000	25.742502	0.000720	20.785640
1544.440949	-3.007700	3.471100	-10.439000	25.728707	0.000721	20.776050
1545.436547	-3.012800	3.469000	-10.451000	25.717605	0.000719	20.781495
1546.434040	-2.981000	3.469900	-10.343000	25.698275	0.000720	20.783890
1547.435010	-2.998800	3.469300	-10.403000	25.643317	0.000720	20.793177
1548.441965	-3.006400	3.467200	-10.422000	25.610099	0.000719	20.796799
1549.441475	-3.000700	3.468400	-10.407000	25.576855	0.000720	20.773369
1550.450150	-3.003800	3.467900	-10.416000	25.597083	0.000720	20.789891
1551.446247	-3.010500	3.468200	-10.440000	25.580755	0.000718	20.786768
1552.439423	-2.993700	3.466800	-10.378000	25.609204	0.000718	20.775037
1553.442514	-3.005700	3.466700	-10.418000	25.615048	0.000716	20.788967
1554.436366	-3.014100	3.466100	-10.445000	25.674386	0.000716	20.782656
1555.437895	-2.985300	3.466100	-10.346000	25.676990	0.000716	20.772470
1556.442656	-2.994100	3.466900	-10.379000	25.699878	0.000715	20.803993
1557.435904	-3.000900	3.464900	-10.395000	25.700977	0.000715	20.782811
1558.439338	-2.995100	3.466000	-10.381000	25.694368	0.000716	20.769060
1559.450057	-3.010200	3.464400	-10.427000	25.687059	0.000716	20.778315
1560.442638	-2.990000	3.464300	-10.357000	25.670739	0.000714	20.788951
1561.443814	-2.989300	3.464300	-10.355000	25.667630	0.000713	20.782034
1562.442455	-2.966500	3.465100	-10.278000	25.696150	0.000713	20.770377
1563.442755	-3.005300	3.463600	-10.408000	25.701799	0.000715	20.762774
1564.444592	-3.019000	3.461000	-10.447000	25.665668	0.000714	20.773900
1565.440983	-3.015400	3.462000	-10.437000	25.679115	0.000714	20.757059
1566.467201	-3.001000	3.462900	-10.392000	25.661591	0.000712	20.776443
1567.442140	-2.983900	3.461700	-10.329000	25.678341	0.000712	20.769085
1568.444690	-3.002200	3.460600	-10.388000	25.703093	0.000712	20.772608
1569.457807	-3.007900	3.459900	-10.407000	25.720437	0.000713	20.770589
1570.449681	-2.999700	3.459400	-10.377000	25.720315	0.000710	20.765251
1571.442343	-3.013900	3.460700	-10.429000	25.726273	0.000710	20.767916
1572.446294	-2.997800	3.461100	-10.374000	25.735364	0.000709	20.763771
1573.445959	-2.973600	3.460000	-10.288000	25.719916	0.000710	20.785239
1574.445704	-3.000200	3.459500	-10.378000	25.720454	0.000709	20.763493
1575.469083	-2.995300	3.458800	-10.359000	25.734314	0.000710	20.775045
1576.458987	-2.975400	3.458800	-10.290000	25.777222	0.000709	20.764090
1577.447500	-2.972300	3.458800	-10.279000	25.772876	0.000706	20.749767
1578.467872	-2.985500	3.457900	-10.323000	25.723709	0.000708	20.753961
1579.447472	-3.012000	3.458200	-10.414000	25.675680	0.000706	20.768308
1580.453589	-3.004300	3.457800	-10.388000	25.635691	0.000706	20.769870
1581.445953	-3.010100	3.456000	-10.402000	25.604759	0.000706	20.783849
1582.456898	-3.017000	3.455200	-10.423000	25.618507	0.000703	20.757353
1583.461782	-3.005000	3.456100	-10.385000	25.617409	0.000703	20.766681
1584.444087	-2.985300	3.457000	-10.319000	25.613013	0.000703	20.762267
1585.465248	-2.990000	3.455500	-10.331000	25.619020	0.000702	20.760713
1586.453578	-2.982400	3.454700	-10.303000	25.610555	0.000702	20.752211
1587.459407	-2.996700	3.454300	-10.350000	25.577678	0.000704	20.753805
1588.446585	-3.013400	3.454900	-10.410000	25.594096	0.000703	20.752277
1589.446111	-2.985100	3.453800	-10.309000	25.614104	0.000703	20.754827
1590.450661	-3.007300	3.453400	-10.384000	25.604637	0.000704	20.749113
1591.447584	-3.004700	3.452300	-10.372000	25.595862	0.000701	20.755473
1592.449359	-3.023000	3.451500	-10.433000	25.618768	0.000702	20.746709
1593.468916	-2.983900	3.453400	-10.304000	25.631889	0.000700	20.757991
1594.453849	-3.011000	3.451100	-10.390000	25.678098	0.000700	20.747028
1595.454319	-2.996200	3.450800	-10.339000	25.674329	0.000701	20.751778
1596.460230	-3.006000	3.450200	-10.369000	25.675615	0.000700	20.742638
1597.453903	-3.004200	3.450600	-10.365000	25.677178	0.000700	20.745630
1598.473647	-2.990500	3.450700	-10.319000	25.659711	0.000698	20.740888
1599.451614	-3.011200	3.449500	-10.386000	25.689525	0.000700	20.752342
1600.457319	-3.008800	3.449500	-10.378000	25.675615	0.000697	20.753544
1601.456155	-2.986500	3.451200	-10.306000	25.707806	0.000696	20.740357
1602.451560	-2.998200	3.448300	-10.338000	25.707781	0.000697	20.755506
1603.460860	-3.013600	3.449800	-10.395000	25.714643	0.000696	20.740586
1604.452382	-3.009800	3.448000	-10.377000	25.744952	0.000696	20.759177
1605.472852	-3.009700	3.448500	-10.378000	25.753571	0.000697	20.736065
1606.458881	-3.004600	3.447000	-10.354000	25.778492	0.000696	20.719845
1607.451778	-3.021100	3.446900	-10.413000	25.764672	0.000697	20.744845
1608.451264	-2.998300	3.446800	-10.334000	25.721268	0.000694	20.746292
1609.455771	-3.014600	3.445800	-10.387000	25.689094	0.000693	20.727252
1610.462962	-2.999800	3.447100	-10.339000	25.657562	0.000693	20.742049
1611.454518	-2.994600	3.446800	-10.321000	25.582521	0.000693	20.754877
1612.470669	-2.986500	3.444900	-10.287000	25.523797	0.000694	20.710598
1613.451269	-2.991600	3.444400	-10.304000	25.536740	0.000693	20.745410
1614.463384	-3.018300	3.443500	-10.393000	25.512042	0.000690	20.745262
1615.457805	-2.992100	3.444900	-10.307000	25.552297	0.000690	20.735427
1616.453315	-2.996400	3.444200	-10.319000	25.550685	0.000691	20.723851
1617.457889	-3.005100	3.443700	-10.348000	25.569171	0.000690	20.732934
1618.455974	-3.024900	3.442300	-10.411000	25.573714	0.000689	20.746031
1619.453195	-3.005700	3.443200	-10.347000	25.614275	0.000690	20.723704
1620.460334	-2.991400	3.442700	-10.297000	25.659344	0.000688	20.716812
1621.453358	-2.995000	3.442700	-10.309000	25.672905	0.000687	20.746554
1622.460844	-2.995000	3.441400	-10.305000	25.680238	0.000689	20.732582
1623.458303	-3.011500	3.439700	-10.357000	25.706251	0.000689	20.727415
1624.455011	-3.016900	3.440600	-10.379000	25.722253	0.000686	20.730685
1625.458182	-2.966100	3.442000	-10.209000	25.710174	0.000689	20.737046
1626.461976	-2.999800	3.439500	-10.317000	25.714863	0.000686	20.734168
1627.457167	-2.998800	3.441200	-10.319000	25.681899	0.000685	20.754165
1628.467911	-2.998100	3.438800	-10.308000	25.665701	0.000683	20.723197
1629.471967	-3.021700	3.438600	-10.389000	25.694075	0.000684	20.723720
1630.462249	-2.993100	3.438900	-10.292000	25.647713	0.000684	20.720303
1631.458667	-2.976000	3.439600	-10.235000	25.605891	0.000684	20.743259
1632.457126	-2.997400	3.438800	-10.307000	25.575203	0.000683	20.719550
1633.467330	-2.999400	3.438100	-10.310000	25.572835	0.000683	20.722387
1634.459705	-3.017100	3.437700	-10.369000	25.550197	0.000682	20.721464
1635.461232	-2.983300	3.437400	-10.254000	25.523439	0.000681	20.717351
1636.462915	-2.991100	3.438000	-10.282000	25.499058	0.000681	20.737439
1637.469531	-2.995200	3.437700	-10.295000	25.470533	0.000682	20.732026
1638.458185	-3.023600	3.436700	-10.390000	25.466601	0.000679	20.715275
1639.458386	-3.012500	3.437100	-10.353000	25.454772	0.000680	20.710034
1640.465175	-3.013100	3.436400	-10.353000	25.433450	0.000678	20.714702
1641.465029	-2.976500	3.435900	-10.226000	25.445010	0.000681	20.702602
1642.455010	-2.995900	3.434800	-10.289000	25.476573	0.000678	20.718651
1643.457250	-2.974900	3.435600	-10.220000	25.502860	0.000680	20.740308
1644.458190	-2.988900	3.434800	-10.266000	25.544376	0.000678	20.705660
1645.457831	-3.012800	3.433500	-10.343000	25.591443	0.000680	20.716894
1646.464226	-3.003500	3.434400	-10.314000	25.621837	0.000678	20.715651
1647.462619	-2.992500	3.433100	-10.273000	25.637018	0.000678	20.703395
1648.457908	-2.999800	3.432200	-10.295000	25.636074	0.000676	20.709560
1649.466255	-3.017200	3.430900	-10.351000	25.661909	0.000678	20.708955
1650.464877	-2.988100	3.432800	-10.257000	25.700497	0.000675	20.717368
1651.462266	-2.988600	3.430800	-10.252000	25.707204	0.000677	20.715095
1652.462253	-2.987900	3.432200	-10.254000	25.708091	0.000676	20.719305
1653.466695	-2.982800	3.433000	-10.237000	25.712250	0.000675	20.711628
1654.465355	-3.013800	3.430300	-10.337000	25.732687	0.000676	20.728364
1655.460439	-3.018200	3.430500	-10.353000	25.718452	0.000675	20.717858
1656.462120	-3.011100	3.430400	-10.328000	25.678098	0.000673	20.713362
1657.462938	-3.022700	3.428400	-10.362000	25.689705	0.000674	20.711269
1658.463311	-3.006700	3.429300	-10.309000	25.636635	0.000672	20.723876
1659.467134	-3.004000	3.429900	-10.303000	25.639517	0.000673	20.722502
1660.467295	-2.989900	3.428900	-10.251000	25.616172	0.000674	20.702848
1661.462186	-3.009700	3.428000	-10.315000	25.612241	0.000671	20.715970
1662.463767	-2.982200	3.430100	-10.227000	25.626811	0.000669	20.724914
1663.468511	-2.996300	3.426800	-10.267000	25.609839	0.000670	20.720671
1664.476971	-3.001500	3.427000	-10.285000	25.656919	0.000670	20.699202
1665.464098	-3.008600	3.427400	-10.310000	25.653615	0.000671	20.733343
1666.464781	-3.009300	3.426600	-10.311000	25.718802	0.000670	20.715365
1667.463688	-3.028600	3.426100	-10.375000	25.714806	0.000668	20.704712
1668.465399	-2.997900	3.425300	-10.268000	25.735251	0.000669	20.686840
1669.464045	-2.980200	3.426200	-10.210000	25.721610	0.000668	20.712495
1670.478384	-3.009500	3.424300	-10.304000	25.716442	0.000670	20.708726
1671.475541	-3.007800	3.423300	-10.296000	25.730384	0.000665	20.699022
1672.470155	-2.977100	3.424600	-10.194000	25.752839	0.000668	20.707827
1673.475640	-3.023100	3.423300	-10.348000	25.753784	0.000668	20.694076
1674.467931	-2.995700	3.423100	-10.254000	25.789309	0.000668	20.702260
1675.465669	-2.978800	3.424700	-10.201000	25.779990	0.000666	20.717082
1676.464272	-3.013600	3.421700	-10.311000	25.764437	0.000666	20.695768
1677.476898	-2.992000	3.423100	-10.240000	25.742202	0.000665	20.695245
1678.466358	-3.030700	3.421700	-10.369000	25.738027	0.000663	20.697215
1679.470653	-3.007500	3.421600	-10.290000	25.687459	0.000663	20.699055
1680.470262	-3.015800	3.420900	-10.316000	25.715213	0.000661	20.697534
1681.462437	-2.998900	3.421200	-10.259000	25.737677	0.000661	20.691647
1682.466518	-3.019300	3.419700	-10.324000	25.756486	0.000663	20.677348
1683.463741	-3.016500	3.419400	-10.314000	25.765650	0.000662	20.699831
1684.462968	-2.983300	3.421100	-10.206000	25.760995	0.000661	20.703691
1685.466696	-2.981700	3.420300	-10.197000	25.743936	0.000660	20.694615
1686.476801	-3.020900	3.418500	-10.325000	25.715930	0.000659	20.700625
1687.469954	-2.997700	3.418400	-10.246000	25.684773	0.000658	20.719592
1688.470035	-3.002800	3.418100	-10.261000	25.633934	0.000658	20.688443
1689.467905	-3.000600	3.420000	-10.261000	25.613780	0.000658	20.695229
1690.468899	-2.982100	3.417800	-10.191000	25.563784	0.000659	20.685794
1691.464691	-3.028000	3.417000	-10.346000	25.566966	0.000657	20.701320
1692.463742	-3.024100	3.417500	-10.334000	25.603808	0.000656	20.698017
1693.467283	-2.996900	3.417500	-10.241000	25.639339	0.000656	20.693872
1694.470383	-2.991800	3.417300	-10.223000	25.669308	0.000657	20.693626
1695.468990	-2.998500	3.416800	-10.245000	25.671587	0.000657	20.685483
1696.472359	-2.987000	3.416800	-10.204000	25.656204	0.000656	20.686154
1697.475081	-2.982800	3.417600	-10.193000	25.686092	0.000655	20.690569
1698.470185	-2.999300	3.416900	-10.246000	25.683910	0.000654	20.681739
1699.469664	-3.013800	3.415400	-10.292000	25.678832	0.000655	20.679957
1700.468923	-3.001500	3.414800	-10.248000	25.662162	0.000651	20.673645
1701.469208	-2.986600	3.414900	-10.198000	25.659598	0.000654	20.681976
1702.468523	-3.001400	3.414900	-10.248000	25.644719	0.000653	20.676989
1703.469755	-2.982700	3.414400	-10.182000	25.662553	0.000650	20.681625
1704.482687	-2.999600	3.413500	-10.239000	25.649285	0.000655	20.667349
1705.471277	-3.021800	3.412000	-10.309000	25.635269	0.000650	20.671290
1706.468820	-2.996100	3.412500	-10.223000	25.639534	0.000651	20.680317
1707.479410	-3.000200	3.411300	-10.233000	25.667738	0.000650	20.703430
1708.470654	-3.020000	3.411100	-10.299000	25.679239	0.000649	20.690324
1709.470018	-3.011200	3.410900	-10.270000	25.690496	0.000649	20.694044
1710.473256	-2.992800	3.411900	-10.210000	25.679735	0.000650	20.680864
1711.474241	-2.987800	3.411200	-10.191000	25.707710	0.000649	20.686203
1712.472744	-3.003000	3.409400	-10.237000	25.681721	0.000651	20.678592
1713.469367	-2.993600	3.408900	-10.204000	25.680777	0.000649	20.673375
1714.477599	-2.999500	3.409700	-10.226000	25.656294	0.000648	20.685296
1715.475875	-3.001300	3.410000	-10.233000	25.651630	0.000649	20.674446
1716.476904	-2.970000	3.409200	-10.125000	25.679776	0.000647	20.669999
1717.475338	-2.977100	3.409400	-10.149000	25.700597	0.000647	20.672893
1718.471895	-3.010000	3.407600	-10.256000	25.699831	0.000647	20.677815
1719.472258	-3.004800	3.407700	-10.239000	25.721099	0.000645	20.674994
1720.482649	-2.987500	3.408000	-10.180000	25.706538	0.000647	20.679336
1721.472827	-2.997300	3.406500	-10.209000	25.725046	0.000646	20.670424
1722.474391	-3.004300	3.407900	-10.237000	25.732648	0.000644	20.666205
1723.476286	-3.006200	3.407300	-10.242000	25.708500	0.000643	20.687945
1724.483554	-3.002200	3.407100	-10.228000	25.745019	0.000644	20.690013
1725.484843	-3.014500	3.406200	-10.267000	25.704943	0.000645	20.701443
1726.472797	-2.992300	3.407600	-10.195000	25.724224	0.000644	20.672918
1727.473667	-3.003700	3.405800	-10.228000	25.703356	0.000643	20.664284
1728.479327	-2.976800	3.405200	-10.136000	25.700792	0.000641	20.671193
1729.479586	-3.001200	3.404800	-10.218000	25.705431	0.000641	20.678224
1730.473470	-2.990600	3.403700	-10.178000	25.696991	0.000640	20.690136
1731.474782	-2.992800	3.404500	-10.187000	25.714034	0.000640	20.677856
1732.483292	-3.002700	3.404200	-10.220000	25.740169	0.000639	20.669492
1733.479834	-2.988400	3.402800	-10.167000	25.749707	0.000638	20.677177
1734.473951	-2.994300	3.403100	-10.189000	25.733080	0.000640	20.674700
1735.489461	-2.991300	3.402700	-10.177000	25.721425	0.000640	20.684806
1736.474482	-2.983400	3.403800	-10.154000	25.729417	0.000637	20.678609
1737.473680	-2.996300	3.401700	-10.191000	25.754493	0.000639	20.691943
1738.496618	-3.009500	3.400300	-10.233000	25.766962	0.000638	20.687872
1739.477240	-3.006900	3.400700	-10.224000	25.786983	0.000637	20.676213
1740.482338	-2.998600	3.400400	-10.196000	25.779202	0.000637	20.680726
1741.473527	-3.002100	3.400900	-10.209000	25.766661	0.000636	20.667179
1742.482557	-2.997500	3.400100	-10.191000	25.783947	0.000636	20.685493
1743.480393	-2.981000	3.399800	-10.134000	25.776460	0.000635	20.656632
1744.480362	-2.998800	3.399800	-10.195000	25.766230	0.000637	20.663900
1745.479836	-3.022200	3.397100	-10.265000	25.753134	0.000632	20.673981
1746.482344	-2.987800	3.399000	-10.156000	25.734871	0.000637	20.672706
1747.480723	-3.006200	3.398200	-10.214000	25.702518	0.000634	20.692369
1748.484029	-3.019400	3.397500	-10.257000	25.679631	0.000631	20.669378
1749.485960	-3.006800	3.397200	-10.214000	25.681495	0.000633	20.667457
1750.479830	-2.988500	3.398500	-10.155000	25.685516	0.000631	20.687619
1751.490957	-2.998400	3.397500	-10.186000	25.730614	0.000630	20.685976
1752.479123	-3.015300	3.396600	-10.241000	25.721645	0.000629	20.675069
1753.485574	-3.024100	3.395700	-10.267000	25.755674	0.000630	20.678904
1754.484260	-2.989900	3.396900	-10.155000	25.763105	0.000629	20.688265
1755.488448	-3.048200	3.394500	-10.345000	25.794357	0.000629	20.702589
1756.484314	-3.009100	3.395500	-10.216000	25.789336	0.000627	20.693277
1757.479254	-2.996700	3.396100	-10.177000	25.780220	0.000629	20.686017
1758.484290	-3.017400	3.395200	-10.244000	25.821734	0.000629	20.680302
1759.485839	-2.997900	3.394800	-10.177000	25.871515	0.000628	20.689532
1760.480636	-2.995700	3.393700	-10.165000	25.855150	0.000627	20.673091
1761.480225	-3.001200	3.393600	-10.184000	25.851292	0.000627	20.683441
1762.484067	-2.993900	3.394500	-10.162000	25.860082	0.000625	20.670932
1763.479522	-2.993800	3.394000	-10.160000	25.835667	0.000626	20.672486
1764.484715	-2.992800	3.394100	-10.157000	25.818894	0.000627	20.673655
1765.487290	-3.000500	3.392400	-10.178000	25.789132	0.000626	20.670311
1766.488957	-2.983000	3.393200	-10.121000	25.748211	0.000624	20.688952
1767.489736	-2.967000	3.393700	-10.068000	25.756732	0.000624	20.690399
1768.489164	-2.963200	3.393000	-10.053000	25.759988	0.000624	20.682289
1769.488901	-3.020500	3.390100	-10.239000	25.742245	0.000624	20.674424
1770.493335	-2.990900	3.391200	-10.140000	25.781775	0.000623	20.677620
1771.487164	-2.986500	3.391200	-10.127000	25.813295	0.000624	20.678463
1772.489644	-2.986500	3.390500	-10.125000	25.823631	0.000623	20.673671
1773.493839	-2.988300	3.390900	-10.132000	25.809991	0.000624	20.705492
1774.485021	-2.994000	3.391200	-10.151000	25.794008	0.000623	20.683270
1775.488944	-2.999200	3.389800	-10.165000	25.777372	0.000619	20.674620
1776.491138	-3.009200	3.388600	-10.196000	25.801666	0.000620	20.681005
1777.487272	-3.007200	3.388400	-10.189000	25.809316	0.000620	20.681578
1778.486274	-3.006700	3.388000	-10.186000	25.835000	0.000619	20.678455
1779.488987	-3.010700	3.387800	-10.199000	25.851041	0.000619	20.699785
1780.491387	-2.989400	3.388800	-10.129000	25.864314	0.000621	20.686565
1781.493441	-3.004100	3.387100	-10.174000	25.893903	0.000619	20.689737
1782.491917	-3.000600	3.386400	-10.160000	25.908136	0.000618	20.690285
1783.488204	-2.986400	3.387000	-10.114000	25.894912	0.000616	20.691225
1784.486539	-3.013700	3.386800	-10.206000	25.891437	0.000617	20.713341
1785.486583	-3.018400	3.386300	-10.220000	25.889102	0.000617	20.693923
1786.487223	-3.016900	3.385900	-10.214000	25.867911	0.000618	20.696818
1787.487891	-3.005000	3.385400	-10.172000	25.829084	0.000616	20.673933
1788.486113	-3.021700	3.383100	-10.222000	25.856534	0.000617	20.698665
1789.486971	-2.993000	3.385100	-10.130000	25.850048	0.000615	20.693098
1790.489717	-2.995800	3.384500	-10.137000	25.835863	0.000613	20.693073
1791.493321	-3.008000	3.384700	-10.180000	25.832860	0.000613	20.697169
1792.496471	-2.986300	3.384400	-10.106000	25.868350	0.000614	20.691569
1793.496830	-2.975900	3.384400	-10.069000	25.872126	0.000614	20.679714
1794.491666	-2.982100	3.384200	-10.092000	25.893626	0.000613	20.687088
1795.489675	-2.993900	3.383300	-10.129000	25.904604	0.000612	20.706179
1796.492262	-2.993700	3.383800	-10.129000	25.889598	0.000612	20.713390
1797.492499	-3.023000	3.381100	-10.220000	25.925485	0.000612	20.682584
1798.497199	-3.019400	3.381900	-10.210000	25.891779	0.000611	20.693768
1799.491631	-3.007000	3.381900	-10.168000	25.874983	0.000609	20.707716
1800.499770	-2.967300	3.382700	-10.035000	25.877790	0.000610	20.670704
1801.501042	-3.010300	3.381000	-10.176000	25.884122	0.000608	20.698878
1802.495739	-3.027100	3.380400	-10.232000	25.861417	0.000609	20.691716
1803.502891	-2.993500	3.380400	-10.118000	25.812425	0.000608	20.694660
1804.498715	-3.003500	3.379900	-10.150000	25.763960	0.000606	20.699082
1805.500198	-3.022000	3.378400	-10.209000	25.707460	0.000607	20.686426
1806.498209	-2.998600	3.379500	-10.133000	25.695854	0.000606	20.695158
1807.494844	-3.002000	3.379700	-10.145000	25.657696	0.000608	20.676272
1808.499746	-2.993100	3.379700	-10.116000	25.606082	0.000604	20.687972
1809.494698	-3.012400	3.377900	-10.175000	25.623502	0.000606	20.685077
1810.501690	-2.981600	3.378500	-10.073000	25.631422	0.000603	20.706784
1811.496217	-3.009300	3.376900	-10.161000	25.678484	0.000606	20.681979
1812.497849	-2.989900	3.379000	-10.101000	25.714191	0.000604	20.715475
1813.509144	-3.031800	3.375900	-10.234000	25.740358	0.000602	20.709989
1814.502984	-2.994200	3.377100	-10.111000	25.757775	0.000603	20.727485
1815.493711	-2.976900	3.376000	-10.049000	25.799306	0.000604	20.709932
1816.497108	-2.986200	3.376500	-10.082000	25.815355	0.000600	20.708983
1817.509573	-3.009600	3.376100	-10.160000	25.825544	0.000604	20.702148
1818.498646	-3.018900	3.374600	-10.187000	25.856274	0.000602	20.711681
1819.496214	-2.980100	3.376600	-10.061000	25.900666	0.000602	20.715025
1820.497079	-2.993100	3.375300	-10.101000	25.920530	0.000600	20.704160
1821.506874	-2.964200	3.376200	-10.007000	25.935983	0.000601	20.711150
1822.496927	-2.973300	3.375200	-10.034000	25.958141	0.000601	20.721084
1823.499947	-3.014700	3.374100	-10.170000	25.966286	0.000600	20.702713
1824.510081	-2.994500	3.373900	-10.101000	26.004563	0.000596	20.719359
1825.498775	-2.994200	3.372600	-10.098000	26.016931	0.000599	20.703808
1826.503544	-2.997800	3.373100	-10.111000	25.994546	0.000599	20.726365
1827.498503	-3.022500	3.372100	-10.191000	25.968915	0.000597	20.719579
1828.498255	-2.998100	3.372000	-10.108000	25.959077	0.000595	20.700685
1829.502168	-3.015000	3.370300	-10.161000	25.914411	0.000596	20.715557
1830.501126	-3.013800	3.372000	-10.161000	25.900097	0.000596	20.710660
1831.504679	-2.999900	3.371400	-10.112000	25.903148	0.000597	20.720365
1832.496749	-2.971600	3.372200	-10.020000	25.908169	0.000595	20.732522
1833.501881	-3.015200	3.371500	-10.165000	25.893660	0.000596	20.731696
1834.507201	-2.981400	3.372200	-10.053000	25.871126	0.000594	20.706213
1835.504788	-3.007600	3.369900	-10.134000	25.874626	0.000594	20.722531
1836.509430	-3.003900	3.370700	-10.125000	25.863265	0.000593	20.719654
1837.497128	-3.015500	3.369400	-10.160000	25.849984	0.000594	20.719588
1838.500765	-2.997900	3.369800	-10.100000	25.878377	0.000591	20.710178
1839.503624	-2.992100	3.370300	-10.084000	25.923810	0.000593	20.709352
1840.509849	-2.966200	3.369800	-9.994500	25.937538	0.000593	20.731680
1841.502181	-3.005100	3.368900	-10.123000	25.966482	0.000593	20.715713
1842.503743	-3.013000	3.368400	-10.147000	25.962772	0.000590	20.720046
1843.505395	-2.981300	3.367400	-10.039000	25.953357	0.000592	20.732874
1844.508494	-3.008700	3.367500	-10.130000	25.978647	0.000590	20.724616
1845.515841	-3.002200	3.367600	-10.110000	25.969892	0.000591	20.703965
1846.504993	-2.995400	3.367400	-10.085000	25.988843	0.000590	20.741499
1847.520918	-2.983700	3.366700	-10.043000	25.977101	0.000588	20.741082
1848.506954	-3.016900	3.366500	-10.155000	25.984547	0.000589	20.738131
1849.511322	-2.995400	3.367300	-10.086000	26.004987	0.000588	20.720259
1850.507211	-3.001300	3.364300	-10.097000	26.039463	0.000588	20.735932
1851.507832	-2.999100	3.364800	-10.091000	26.043856	0.000589	20.739872
1852.513521	-3.003300	3.364000	-10.102000	26.020065	0.000585	20.728296
1853.521906	-2.981200	3.365500	-10.032000	26.004410	0.000585	20.714463
1854.514785	-3.005300	3.363400	-10.107000	26.009276	0.000585	20.756812
1855.512434	-3.001600	3.365000	-10.099000	26.012571	0.000585	20.748269
1856.510086	-2.974700	3.364300	-10.007000	26.006908	0.000583	20.739734
1857.518702	-2.985300	3.363000	-10.038000	26.023084	0.000580	20.742710
1858.511024	-2.997600	3.363900	-10.082000	26.046973	0.000585	20.745849
1859.508159	-2.997000	3.363400	-10.079000	26.048389	0.000583	20.737314
1860.511220	-3.022300	3.361100	-10.157000	26.075369	0.000580	20.738344
1861.515770	-2.993900	3.363400	-10.068000	26.068429	0.000582	20.745596
1862.518372	-3.017700	3.361200	-10.142000	26.044980	0.000583	20.757597
1863.510662	-3.008500	3.361100	-10.111000	26.027942	0.000581	20.733365
1864.520083	-2.994800	3.361900	-10.067000	26.010619	0.000580	20.750101
1865.523380	-2.994400	3.361300	-10.064000	25.992636	0.000579	20.737249
1866.512341	-3.014900	3.361500	-10.133000	25.985557	0.000579	20.747207
1867.517356	-2.977400	3.361700	-10.008000	25.995077	0.000578	20.736382
1868.519672	-2.998800	3.360700	-10.077000	25.984939	0.000578	20.768397
1869.513746	-3.003300	3.359700	-10.090000	25.972521	0.000579	20.756870
1870.514956	-2.985200	3.360400	-10.031000	25.972587	0.000577	20.750297
1871.519787	-2.995200	3.360100	-10.062000	25.952398	0.000576	20.766525
1872.529071	-3.004800	3.360000	-10.095000	25.984858	0.000577	20.749349
1873.526002	-2.990000	3.359100	-10.043000	25.996103	0.000576	20.748793
1874.513929	-2.994100	3.358000	-10.054000	26.019130	0.000576	20.755808
1875.519133	-2.985400	3.358700	-10.026000	26.007560	0.000575	20.747975
1876.510764	-2.984000	3.358000	-10.019000	26.031726	0.000574	20.747599
1877.516416	-2.995500	3.356400	-10.053000	26.022979	0.000573	20.746872
1878.516290	-2.995400	3.357000	-10.054000	26.030115	0.000572	20.742661
1879.527368	-2.980800	3.357000	-10.006000	26.032890	0.000573	20.756830
1880.524200	-3.005000	3.356600	-10.085000	26.025168	0.000575	20.733423
1881.520303	-3.012300	3.355500	-10.106000	26.071058	0.000572	20.755350
1882.516810	-2.998500	3.355100	-10.059000	26.096769	0.000572	20.738983
1883.521200	-2.981400	3.356600	-10.006000	26.108265	0.000571	20.768553
1884.516461	-3.034000	3.353300	-10.173000	26.100048	0.000570	20.766934
1885.524823	-2.984000	3.355100	-10.011000	26.033801	0.000573	20.757745
1886.517527	-2.972800	3.354500	-9.971400	26.016462	0.000570	20.759291
1887.527337	-3.008700	3.353800	-10.089000	26.017658	0.000569	20.752906
1888.521471	-2.996200	3.354400	-10.049000	26.000815	0.000567	20.749259
1889.520764	-3.006200	3.354200	-10.082000	26.016608	0.000569	20.764654
1890.527174	-3.005900	3.353900	-10.079000	26.040002	0.000566	20.751647
1891.517187	-3.002700	3.353200	-10.068000	26.043329	0.000567	20.782966
1892.517323	-2.975100	3.353800	-9.976700	26.055030	0.000566	20.760108
1893.519144	-2.991100	3.353500	-10.029000	26.045225	0.000567	20.742196
1894.522884	-3.012300	3.351600	-10.095000	26.088332	0.000566	20.758007
1895.542112	-2.988600	3.351200	-10.014000	26.089227	0.000566	20.765071
1896.520596	-3.015100	3.350800	-10.102000	26.090643	0.000564	20.765071
1897.525904	-3.003000	3.350700	-10.061000	26.110918	0.000566	20.770744
1898.526676	-2.983100	3.351800	-9.997000	26.141859	0.000565	20.761057
1899.523483	-2.998300	3.351700	-10.048000	26.150947	0.000563	20.772085
1900.520636	-3.005300	3.349900	-10.067000	26.163557	0.000561	20.763894
1901.527435	-2.996500	3.351200	-10.040000	26.167780	0.000562	20.754386
1902.520755	-2.979000	3.350300	-9.979000	26.169822	0.000562	20.757860
1903.525955	-3.013800	3.347600	-10.087000	26.189510	0.000560	20.780964
1904.531467	-2.995000	3.348900	-10.029000	26.175850	0.000562	20.757280
1905.526263	-2.989200	3.346700	-10.002000	26.178738	0.000562	20.759234
1906.524143	-2.999200	3.348000	-10.040000	26.194236	0.000561	20.764376
1907.522878	-2.999800	3.347600	-10.041000	26.188078	0.000563	20.770041
1908.523994	-2.995400	3.348400	-10.027000	26.207277	0.000560	20.767997
1909.525126	-3.008200	3.345900	-10.064000	26.181464	0.000559	20.778094
1910.528363	-3.007900	3.345000	-10.061000	26.200314	0.000558	20.787553
1911.523560	-2.988600	3.347000	-10.001000	26.148758	0.000557	20.776999
1912.530118	-3.006400	3.345700	-10.058000	26.121885	0.000558	20.773230
1913.534480	-3.000500	3.344800	-10.035000	26.095411	0.000558	20.775077
1914.529052	-2.994900	3.345300	-10.018000	26.066852	0.000558	20.775780
1915.532361	-2.997700	3.345900	-10.029000	26.075965	0.000557	20.789204
1916.533960	-3.030500	3.343500	-10.132000	26.070815	0.000554	20.780710
1917.526184	-2.995800	3.345600	-10.022000	26.106883	0.000556	20.794665
1918.534908	-3.008200	3.344400	-10.060000	26.117492	0.000555	20.777350
1919.529645	-2.972400	3.345100	-9.942100	26.119160	0.000556	20.778078
1920.529142	-2.988600	3.344800	-9.995400	26.136790	0.000556	20.785362
1921.537740	-2.982000	3.344700	-9.972600	26.154389	0.000554	20.793562
1922.532644	-3.007600	3.343600	-10.056000	26.162443	0.000556	20.767041
1923.529052	-3.000700	3.342400	-10.028000	26.175501	0.000552	20.811457
1924.533870	-2.996700	3.341800	-10.013000	26.153949	0.000551	20.783637
1925.543956	-3.018300	3.342200	-10.087000	26.151687	0.000556	20.776623
1926.530227	-3.003100	3.343000	-10.038000	26.132381	0.000552	20.800372
1927.533888	-2.989700	3.343100	-9.994000	26.138499	0.000550	20.786605
1928.530864	-3.024400	3.340700	-10.103000	26.154396	0.000551	20.792621
1929.534645	-3.007500	3.341600	-10.049000	26.159823	0.000550	20.768677
1930.536971	-3.004900	3.340200	-10.036000	26.170530	0.000550	20.806462
1931.534936	-3.026300	3.340400	-10.107000	26.185483	0.000549	20.784978
1932.538455	-2.997800	3.339800	-10.011000	26.190803	0.000548	20.797911
1933.530776	-2.996700	3.339900	-10.008000	26.226876	0.000547	20.789115
1934.534487	-2.987400	3.340400	-9.978400	26.212517	0.000545	20.784643
1935.535102	-3.009900	3.339300	-10.050000	26.223419	0.000548	20.802710
1936.543386	-2.975400	3.338800	-9.933300	26.230073	0.000546	20.799914
1937.539801	-3.001500	3.339400	-10.022000	26.235036	0.000545	20.795418
1938.540642	-2.989800	3.338600	-9.980600	26.213233	0.000544	20.812863
1939.537096	-2.991600	3.338400	-9.985900	26.200363	0.000545	20.816526
1940.538499	-3.003800	3.337400	-10.024000	26.215333	0.000544	20.811180
1941.538159	-2.998100	3.337300	-10.005000	26.177064	0.000544	20.819665
1942.542558	-2.990500	3.337600	-9.979900	26.146294	0.000543	20.822886
1943.538468	-2.997600	3.336600	-9.999900	26.141885	0.000543	20.809447
1944.538925	-3.017100	3.335200	-10.062000	26.181750	0.000543	20.792132
1945.542175	-3.000200	3.336700	-10.010000	26.200177	0.000541	20.806381
1946.541007	-2.998700	3.334900	-9.999400	26.232930	0.000541	20.822699
1947.539567	-3.023500	3.334500	-10.081000	26.223713	0.000541	20.807747
1948.538243	-2.993700	3.334800	-9.982500	26.224209	0.000541	20.810616
1949.548239	-3.009900	3.333800	-10.032000	26.251015	0.000540	20.815268
1950.548601	-3.024100	3.334500	-10.082000	26.255171	0.000539	20.836515
1951.550357	-3.001300	3.334000	-10.005000	26.254895	0.000539	20.824857
1952.543610	-2.999700	3.333100	-9.997700	26.230831	0.000540	20.818694
1953.548551	-3.003700	3.333200	-10.012000	26.172216	0.000538	20.820484
1954.542553	-2.986900	3.332200	-9.952300	26.174974	0.000537	20.813298
1955.550343	-2.990800	3.331900	-9.963900	26.183044	0.000536	20.826149
1956.549115	-2.995300	3.332300	-9.980400	26.223339	0.000538	20.812113
1957.549103	-3.005900	3.332500	-10.016000	26.201838	0.000536	20.829861
1958.545823	-3.003500	3.330900	-10.003000	26.189227	0.000536	20.822879
1959.542311	-3.009500	3.331500	-10.025000	26.160037	0.000536	20.827212
1960.542200	-3.000900	3.330500	-9.993300	26.188723	0.000536	20.828062
1961.547084	-2.986700	3.331500	-9.949500	26.198258	0.000536	20.811566
1962.556500	-2.981100	3.331900	-9.931500	26.228383	0.000534	20.824768
1963.549701	-2.976800	3.329300	-9.910200	26.279072	0.000534	20.824972
1964.547256	-3.012200	3.328500	-10.024000	26.240667	0.000535	20.795862
1965.550473	-3.013100	3.329500	-10.032000	26.221875	0.000532	20.831030
1966.544532	-3.029000	3.327400	-10.078000	26.174934	0.000534	20.829853
1967.549938	-2.994000	3.329500	-9.966900	26.147370	0.000532	20.837243
1968.547837	-3.000400	3.329600	-9.989300	26.115746	0.000530	20.835813
1969.547497	-3.003300	3.328900	-9.996900	26.106259	0.000531	20.805893
1970.553204	-2.997100	3.329300	-9.977600	26.079068	0.000530	20.816503
1971.546367	-3.011100	3.328300	-10.021000	26.099286	0.000528	20.818326
1972.548054	-3.011600	3.327300	-10.019000	26.089743	0.000530	20.840031
1973.557343	-2.989000	3.326500	-9.942200	26.122157	0.000530	20.834668
1974.565015	-3.004600	3.326700	-9.994400	26.125558	0.000528	20.824809
1975.547878	-3.026300	3.327000	-10.068000	26.120115	0.000528	20.812228
1976.555209	-3.011000	3.326000	-10.014000	26.124606	0.000528	20.806310
1977.548596	-3.017300	3.324800	-10.031000	26.107919	0.000528	20.822733
1978.562128	-2.982700	3.325700	-9.917800	26.146533	0.000528	20.835453
1979.558904	-2.991500	3.324700	-9.944000	26.166229	0.000527	20.832012
1980.551223	-3.031500	3.323800	-10.076000	26.136875	0.000525	20.824801
1981.562233	-2.994400	3.324100	-9.952600	26.153855	0.000525	20.814837
1982.548900	-3.009300	3.324300	-10.002000	26.167840	0.000524	20.825096
1983.551745	-2.997900	3.323100	-9.961400	26.188008	0.000523	20.814068
1984.556246	-3.010300	3.323500	-10.004000	26.208266	0.000522	20.822570
1985.555323	-3.001800	3.323000	-9.972500	26.244150	0.000524	20.827336
1986.552459	-3.007100	3.322700	-9.990600	26.243906	0.000521	20.836573
1987.555108	-3.021800	3.321100	-10.035000	26.300988	0.000520	20.819497
1988.553029	-2.998800	3.320800	-9.957300	26.315932	0.000519	20.799901
1989.557463	-3.014100	3.321300	-10.010000	26.310026	0.000521	20.798234
1990.553395	-2.979400	3.322400	-9.897200	26.308749	0.000518	20.809753
1991.563457	-3.007200	3.320900	-9.985200	26.312800	0.000520	20.818565
1992.562337	-3.004900	3.320800	-9.977800	26.302250	0.000518	20.823135
1993.551204	-3.029500	3.319300	-10.054000	26.276959	0.000519	20.807202
1994.564146	-2.973800	3.320800	-9.873800	26.270874	0.000518	20.800139
1995.555171	-3.014500	3.320000	-10.006000	26.257395	0.000519	20.829266
1996.565767	-3.021200	3.317900	-10.021000	26.234169	0.000516	20.798341
1997.558114	-2.998100	3.318600	-9.948800	26.208210	0.000517	20.792169
1998.554569	-2.987100	3.318800	-9.912000	26.197610	0.000517	20.809017
1999.562632	-2.970000	3.319000	-9.856300	26.224261	0.000515	20.805927
2000.562109	-3.009500	3.318200	-9.985200	26.223016	0.000516	20.817952
2001.561615	-2.998400	3.317300	-9.945000	26.263765	0.000515	20.811960
2002.560474	-2.989100	3.319100	-9.919100	26.253035	0.000514	20.791220
2003.568207	-2.992700	3.316900	-9.925800	26.265750	0.000512	20.812059
2004.558688	-2.990400	3.317500	-9.919300	26.278636	0.000513	20.790395
2005.563338	-3.002200	3.317400	-9.957900	26.306741	0.000512	20.784975
2006.560012	-2.999600	3.315200	-9.942900	26.310841	0.000513	20.810906
2007.565483	-2.983200	3.317000	-9.893600	26.288348	0.000513	20.793992
2008.559723	-2.998800	3.314600	-9.938700	26.304106	0.000511	20.789439
2009.556729	-3.010700	3.315400	-9.980500	26.327322	0.000512	20.813719
2010.560059	-3.006100	3.314700	-9.962800	26.337799	0.000510	20.793428
2011.569944	-2.978100	3.314800	-9.871400	26.360713	0.000510	20.805078
2012.557058	-2.970600	3.315000	-9.846900	26.369775	0.000508	20.808969
2013.558548	-2.988500	3.315400	-9.907200	26.357086	0.000509	20.813286
2014.557034	-2.999300	3.314400	-9.940200	26.355573	0.000508	20.788532
2015.567450	-3.006200	3.312000	-9.954500	26.369791	0.000508	20.800451
2016.564118	-3.003900	3.312000	-9.947600	26.364829	0.000507	20.800206
2017.569801	-2.999100	3.312900	-9.935500	26.343868	0.000506	20.790993
2018.556542	-3.012000	3.311100	-9.971400	26.354166	0.000504	20.807981
2019.560806	-3.011800	3.311800	-9.973300	26.368051	0.000505	20.784003
2020.556024	-2.972800	3.312600	-9.846300	26.375250	0.000506	20.783178
2021.561270	-2.986600	3.311000	-9.887900	26.364773	0.000504	20.753207
2022.562791	-3.007700	3.310300	-9.956000	26.320896	0.000503	20.795408
2023.559206	-2.992300	3.310100	-9.904600	26.247391	0.000503	20.794083
2024.570421	-3.015400	3.308800	-9.976100	26.193796	0.000504	20.790486
2025.559163	-2.975100	3.310600	-9.848900	26.146764	0.000502	20.782107
2026.565274	-2.991100	3.310300	-9.899800	26.132957	0.000503	20.775346
2027.568131	-2.984800	3.309200	-9.876000	26.156071	0.000503	20.794304
2028.567946	-3.014600	3.308200	-9.972500	26.200377	0.000502	20.785720
2029.569001	-3.002000	3.308700	-9.931900	26.256233	0.000501	20.782581
2030.564382	-3.019100	3.307200	-9.984200	26.294719	0.000499	20.787118
2031.571414	-2.990000	3.307200	-9.887200	26.288212	0.000500	20.780104
2032.577128	-2.991500	3.308500	-9.895800	26.307906	0.000497	20.781404
2033.568463	-3.007300	3.305700	-9.939400	26.334701	0.000497	20.773719
2034.579738	-2.983700	3.306700	-9.866000	26.362593	0.000498	20.776621
2035.570139	-3.000900	3.306100	-9.920200	26.398741	0.000497	20.786399
2036.568728	-2.996300	3.305300	-9.902400	26.434765	0.000496	20.792734
2037.564293	-3.002400	3.305000	-9.921600	26.449829	0.000495	20.780848
2038.568660	-2.995300	3.305000	-9.897900	26.406159	0.000494	20.780578
2039.572867	-3.002300	3.304400	-9.919600	26.411779	0.000496	20.769157
2040.566808	-2.989700	3.305300	-9.880900	26.378007	0.000497	20.781682
2041.567924	-3.017200	3.303100	-9.964700	26.358241	0.000495	20.765609
2042.570221	-2.987300	3.304900	-9.872000	26.296289	0.000492	20.782532
2043.571568	-2.980000	3.303400	-9.843000	26.316829	0.000492	20.757654
2044.566511	-2.976400	3.305500	-9.837900	26.334830	0.000491	20.756305
2045.580761	-2.969600	3.303700	-9.809700	26.338702	0.000492	20.768258
2046.566885	-2.993500	3.304000	-9.889700	26.352165	0.000491	20.770408
2047.567408	-3.021500	3.300800	-9.971500	26.362194	0.000490	20.750615
2048.574276	-2.988200	3.303000	-9.869000	26.355069	0.000490	20.766688
2049.575417	-2.998300	3.302000	-9.899000	26.371979	0.000487	20.786529
2050.568717	-3.016900	3.299900	-9.952900	26.406199	0.000490	20.777773
2051.569678	-3.008500	3.302800	-9.934800	26.426785	0.000489	20.756738
2052.569370	-2.989300	3.302100	-9.869500	26.452878	0.000489	20.775852
2053.573184	-3.016300	3.300800	-9.955300	26.408265	0.000488	20.764676
2054.578255	-2.989500	3.300700	-9.866700	26.387084	0.000488	20.738646
2055.573522	-2.985300	3.299100	-9.847800	26.380601	0.000485	20.769116
2056.570977	-3.009200	3.299200	-9.926500	26.343094	0.000484	20.739954
2057.572161	-2.989300	3.299600	-9.862100	26.340231	0.000485	20.760785
2058.571362	-2.990300	3.298300	-9.861700	26.342102	0.000483	20.762191
2059.580875	-2.999500	3.299600	-9.894400	26.352278	0.000483	20.756771
2060.573219	-3.017800	3.298000	-9.950300	26.332446	0.000484	20.752486
2061.576426	-2.999000	3.297500	-9.888300	26.328639	0.000481	20.750083
2062.572898	-2.995700	3.297900	-9.877300	26.286372	0.000481	20.753124
2063.582886	-3.005100	3.296600	-9.904200	26.262659	0.000482	20.748260
2064.576351	-2.986100	3.298300	-9.848400	26.268524	0.000483	20.761741
2065.576591	-3.005100	3.297200	-9.907300	26.230062	0.000478	20.749167
2066.583346	-2.980200	3.296900	-9.823700	26.181314	0.000479	20.749968
2067.583199	-2.998000	3.297100	-9.883000	26.203247	0.000480	20.748300
2068.577242	-3.007100	3.293900	-9.904000	26.220031	0.000479	20.729129
2069.578794	-3.004800	3.294700	-9.898700	26.253612	0.000478	20.756713
2070.580379	-2.992400	3.295200	-9.859800	26.277326	0.000478	20.747826
2071.574829	-2.991800	3.294700	-9.855700	26.319195	0.000479	20.756238
2072.575830	-2.986700	3.295800	-9.842200	26.360118	0.000477	20.756116
2073.577249	-3.002700	3.293200	-9.888300	26.366723	0.000477	20.737623
2074.579328	-3.046000	3.292100	-10.027000	26.362575	0.000476	20.751472
2075.580987	-2.998600	3.294900	-9.878000	26.378241	0.000475	20.751096
2076.588968	-2.999500	3.293700	-9.877500	26.402480	0.000475	20.756966
2077.584865	-2.990000	3.292700	-9.843600	26.390962	0.000475	20.753924
2078.578714	-2.993400	3.291600	-9.852000	26.370302	0.000476	20.759713
2079.580937	-2.991300	3.291300	-9.844300	26.373133	0.000473	20.748807
2080.577441	-3.006100	3.291400	-9.893300	26.392996	0.000472	20.757391
2081.586199	-2.982300	3.292000	-9.817000	26.427102	0.000473	20.759901
2082.582864	-2.983900	3.291600	-9.820700	26.459831	0.000471	20.760081
2083.580787	-3.009300	3.290800	-9.902200	26.452755	0.000471	20.756762
2084.576558	-3.001200	3.291100	-9.875600	26.484304	0.000470	20.738686
2085.586299	-3.005100	3.288400	-9.879200	26.477106	0.000470	20.752789
2086.579882	-2.996600	3.290400	-9.858800	26.481677	0.000469	20.752167
2087.577215	-3.014700	3.289000	-9.914400	26.496472	0.000468	20.744752
2088.579472	-3.021300	3.288100	-9.932900	26.517674	0.000467	20.743305
2089.576868	-3.021100	3.287300	-9.930200	26.498879	0.000464	20.753811
2090.584390	-3.004000	3.286600	-9.872300	26.442222	0.000464	20.756607
2091.581777	-3.006800	3.287400	-9.883800	26.414934	0.000466	20.747671
2092.587338	-2.987300	3.287400	-9.819200	26.390125	0.000464	20.759247
2093.579746	-2.996500	3.287300	-9.849500	26.419480	0.000464	20.743232
2094.579915	-3.000400	3.284700	-9.852600	26.453642	0.000463	20.740583
2095.587916	-2.989000	3.285800	-9.819400	26.491283	0.000465	20.740959
2096.587934	-3.019200	3.285500	-9.919000	26.525620	0.000464	20.749396
2097.591883	-3.012500	3.285400	-9.896100	26.540072	0.000462	20.727886
2098.585371	-2.984300	3.285100	-9.802600	26.572619	0.000460	20.741637
2099.581270	-2.995100	3.283700	-9.833300	26.575677	0.000461	20.747082
2100.586353	-2.981900	3.285400	-9.795800	26.577434	0.000459	20.729407
2101.585427	-3.000200	3.283600	-9.849000	26.578434	0.000460	20.749379
2102.586594	-3.007300	3.282500	-9.870300	26.570366	0.000460	20.750753
2103.581147	-2.999500	3.282400	-9.844100	26.515072	0.000457	20.725515
2104.589190	-2.993500	3.283600	-9.828000	26.515112	0.000458	20.728875
2105.579543	-2.976900	3.283800	-9.775000	26.527816	0.000457	20.743542
2106.587887	-3.002400	3.283400	-9.856900	26.562201	0.000458	20.726896
2107.587099	-3.011400	3.282500	-9.883500	26.567349	0.000457	20.741081
2108.587884	-2.977200	3.282300	-9.770100	26.568504	0.000456	20.737500
2109.589349	-2.977400	3.282800	-9.772800	26.570276	0.000455	20.709883
2110.582055	-3.006300	3.280400	-9.861100	26.550961	0.000453	20.725081
2111.584632	-3.002600	3.281000	-9.850600	26.568593	0.000453	20.728106
2112.585361	-2.987400	3.281400	-9.801400	26.574180	0.000452	20.727558
2113.595506	-3.003400	3.280000	-9.850900	26.586143	0.000453	20.732472
2114.590789	-3.007500	3.280200	-9.864400	26.623031	0.000451	20.740631
2115.588568	-3.019500	3.280300	-9.903700	26.649647	0.000451	20.732300
2116.585894	-3.013700	3.279400	-9.881900	26.608539	0.000450	20.722743
2117.592812	-2.993600	3.277700	-9.810600	26.611467	0.000448	20.742756
2118.586460	-2.993000	3.279200	-9.813000	26.646126	0.000448	20.722595
2119.594100	-2.984000	3.278500	-9.782000	26.619811	0.000447	20.720797
2120.598135	-2.990600	3.279300	-9.804900	26.592827	0.000448	20.735398
2121.593494	-3.003900	3.277800	-9.845500	26.595088	0.000446	20.728662
2122.593336	-2.987000	3.277500	-9.788300	26.598495	0.000445	20.726871
2123.586779	-2.994100	3.277700	-9.813100	26.620168	0.000445	20.718785
2124.591142	-2.986700	3.276200	-9.784400	26.606238	0.000443	20.719006
2125.592527	-3.008400	3.275100	-9.850900	26.562972	0.000444	20.715343
2126.586845	-2.988300	3.275300	-9.786700	26.560817	0.000445	20.737360
2127.588788	-3.011700	3.274900	-9.861800	26.571341	0.000443	20.720436
2128.592458	-3.005300	3.274400	-9.839600	26.574569	0.000442	20.726527
2129.588589	-3.013400	3.274500	-9.866600	26.575212	0.000443	20.722906
2130.587253	-3.004700	3.274200	-9.837000	26.610271	0.000441	20.717370
2131.594037	-2.996000	3.274400	-9.808400	26.642840	0.000441	20.735414
2132.600731	-3.002100	3.274100	-9.828300	26.683548	0.000440	20.710429
2133.594351	-3.016900	3.273200	-9.874300	26.654558	0.000439	20.708786
2134.603638	-2.983900	3.272400	-9.763100	26.624404	0.000438	20.699809
2135.594326	-3.002500	3.272400	-9.823600	26.624673	0.000438	20.699605
2136.600998	-2.993400	3.273100	-9.796600	26.608880	0.000437	20.711231
2137.590916	-2.999800	3.272600	-9.815900	26.590866	0.000438	20.709243
2138.593303	-3.013500	3.270600	-9.854100	26.594176	0.000436	20.715416
2139.595259	-3.018300	3.269900	-9.867400	26.555539	0.000434	20.721621
2140.609033	-3.001000	3.268700	-9.808900	26.559051	0.000436	20.685321
2141.608720	-3.002500	3.270600	-9.819100	26.527716	0.000436	20.705507
2142.595900	-3.001000	3.269700	-9.811700	26.517314	0.000435	20.712121
2143.597712	-3.025800	3.268500	-9.888200	26.476428	0.000434	20.709905
2144.612027	-3.017500	3.268800	-9.862500	26.442187	0.000433	20.720059
2145.597342	-2.990300	3.270400	-9.778800	26.448425	0.000431	20.704517
2146.601040	-2.977000	3.268600	-9.729700	26.429059	0.000431	20.705915
2147.595481	-3.005000	3.268100	-9.819200	26.407854	0.000431	20.715898
2148.595542	-2.996600	3.267600	-9.790400	26.368429	0.000431	20.697134
2149.599973	-2.986500	3.267200	-9.756200	26.386405	0.000430	20.691493
2150.614610	-2.977900	3.268000	-9.730900	26.403389	0.000429	20.708564
2151.594505	-3.013500	3.265400	-9.839300	26.437648	0.000428	20.710281
2152.600471	-2.993500	3.264800	-9.771900	26.467676	0.000429	20.705850
2153.596927	-3.015300	3.265100	-9.843700	26.538459	0.000428	20.680267
2154.602388	-3.029300	3.264300	-9.886700	26.570429	0.000428	20.696758
2155.602808	-3.011100	3.264800	-9.829600	26.600990	0.000425	20.718947
2156.598908	-2.997100	3.265500	-9.785400	26.635829	0.000426	20.707501
2157.609699	-2.997400	3.264700	-9.784800	26.657297	0.000425	20.715333
2158.595979	-3.006700	3.263300	-9.810300	26.652784	0.000425	20.707950
2159.599784	-3.006200	3.262700	-9.807800	26.665079	0.000425	20.700870
2160.599644	-3.007000	3.263400	-9.812600	26.711194	0.000422	20.697919
2161.614605	-2.989700	3.263600	-9.755800	26.718244	0.000422	20.682720
2162.603067	-3.008700	3.262500	-9.815000	26.753542	0.000423	20.719159
2163.597789	-2.994300	3.260200	-9.760500	26.774586	0.000422	20.693847
2164.605342	-3.005200	3.261700	-9.799300	26.778122	0.000420	20.722535
2165.601698	-3.009000	3.259600	-9.806500	26.807548	0.000419	20.688582
2166.599778	-3.025400	3.260700	-9.863400	26.819517	0.000417	20.704884
2167.598877	-2.975900	3.261700	-9.705500	26.834786	0.000417	20.708858
2168.602684	-3.028900	3.259000	-9.869400	26.834387	0.000416	20.702293
2169.599870	-2.996400	3.258700	-9.763500	26.856072	0.000419	20.688533
2170.601032	-2.989500	3.260400	-9.745300	26.837185	0.000415	20.707002
2171.603337	-3.004700	3.258100	-9.788000	26.847510	0.000417	20.699840
2172.608146	-2.980200	3.258300	-9.709800	26.843047	0.000416	20.696300
2173.606975	-3.008800	3.256800	-9.798300	26.840412	0.000414	20.687487
2174.606970	-3.005800	3.257300	-9.789600	26.852307	0.000413	20.707983
2175.599753	-2.992900	3.257800	-9.749500	26.839176	0.000413	20.702840
2176.613270	-3.015300	3.256000	-9.816500	26.808621	0.000415	20.704361
2177.601462	-3.020200	3.255000	-9.829900	26.796580	0.000412	20.686563
2178.605224	-3.009300	3.256400	-9.798700	26.802816	0.000413	20.698524
2179.601871	-3.020200	3.254700	-9.828300	26.816565	0.000411	20.699546
2180.610005	-3.002400	3.256400	-9.775900	26.872308	0.000410	20.683521
2181.608066	-3.006900	3.254300	-9.785100	26.862129	0.000408	20.711221
2182.607629	-2.993800	3.254200	-9.741500	26.873593	0.000409	20.700462
2183.608342	-3.008400	3.254200	-9.787800	26.868804	0.000410	20.703707
2184.603595	-2.990700	3.253900	-9.731000	26.882227	0.000407	20.695867
2185.607975	-2.995400	3.253400	-9.743900	26.871511	0.000408	20.669917
2186.609501	-2.998200	3.252600	-9.750600	26.859243	0.000406	20.691722
2187.604992	-3.011100	3.253400	-9.793200	26.870560	0.000405	20.697412
2188.607420	-3.016600	3.251600	-9.807500	26.853560	0.000407	20.672729
2189.613467	-2.991000	3.254700	-9.732700	26.855869	0.000405	20.690700
2190.603389	-2.998700	3.252500	-9.751800	26.864894	0.000402	20.677014
2191.606257	-2.997700	3.250700	-9.743800	26.853169	0.000403	20.681821
2192.606370	-3.000300	3.249300	-9.747500	26.816183	0.000403	20.673081
2193.606976	-2.977800	3.249400	-9.675200	26.763560	0.000400	20.673277
2194.611437	-2.976800	3.250300	-9.674300	26.739882	0.000402	20.673653
2195.617647	-3.010500	3.248500	-9.778800	26.713097	0.000401	20.696987
2196.611347	-3.006200	3.248500	-9.764500	26.721416	0.000399	20.687806
2197.609353	-2.983900	3.250200	-9.697500	26.731092	0.000400	20.677144
2198.603672	-3.028700	3.247200	-9.833800	26.712748	0.000399	20.689523
2199.606087	-3.011100	3.247500	-9.777500	26.712349	0.000398	20.671577
2200.607043	-3.012600	3.247300	-9.781000	26.733873	0.000396	20.671405
2201.608225	-2.998300	3.247900	-9.736300	26.762096	0.000396	20.685083
2202.617052	-3.000500	3.246700	-9.740800	26.770309	0.000396	20.681960
2203.616201	-2.999200	3.247000	-9.737400	26.814891	0.000397	20.689326
2204.608695	-3.032800	3.245300	-9.840500	26.834201	0.000397	20.696415
2205.613445	-2.985600	3.245700	-9.689400	26.847104	0.000396	20.679990
2206.608437	-3.008600	3.245400	-9.763600	26.795962	0.000395	20.663179
2207.609590	-2.990800	3.245600	-9.705000	26.782107	0.000392	20.679123
2208.608994	-2.966600	3.245400	-9.626000	26.767983	0.000391	20.675354
2209.615594	-3.000600	3.244300	-9.734700	26.748566	0.000391	20.675746
2210.611561	-2.967500	3.245300	-9.628100	26.759519	0.000392	20.671110
2211.612946	-3.007100	3.242200	-9.749000	26.775700	0.000392	20.677896
2212.609409	-3.011200	3.242300	-9.762500	26.792303	0.000392	20.676098
2213.623370	-3.012700	3.242100	-9.766200	26.788953	0.000389	20.698336
2214.615076	-2.994500	3.242200	-9.708000	26.810475	0.000388	20.692000
2215.613240	-3.001600	3.241800	-9.729400	26.861268	0.000388	20.686171
2216.612101	-3.014000	3.239800	-9.761900	26.874748	0.000387	20.678387
2217.612803	-3.005200	3.239100	-9.733200	26.925479	0.000387	20.676768
2218.618323	-2.989500	3.240600	-9.687700	26.929796	0.000388	20.676368
2219.619329	-3.006100	3.238800	-9.735400	26.970120	0.000387	20.683252
2220.621344	-3.014000	3.239100	-9.762100	26.941203	0.000386	20.695426
2221.616014	-2.999800	3.237600	-9.711000	26.930260	0.000385	20.674937
2222.613960	-2.989700	3.239800	-9.684500	26.954373	0.000384	20.671210
2223.617007	-2.987000	3.238200	-9.670700	26.970364	0.000383	20.665952
2224.614842	-2.995400	3.238000	-9.696600	26.941788	0.000382	20.687954
2225.618726	-3.000100	3.236900	-9.710000	26.949333	0.000382	20.672779
2226.612646	-3.037100	3.236200	-9.827700	26.949089	0.000380	20.653566
2227.617646	-3.001500	3.236600	-9.713100	26.949658	0.000379	20.683065
2228.621867	-2.992000	3.237800	-9.686800	26.922131	0.000378	20.684308
2229.620532	-2.984800	3.235000	-9.654800	26.878968	0.000377	20.666509
2230.619927	-3.007200	3.233600	-9.722200	26.842406	0.000379	20.692811
2231.617086	-3.011400	3.234300	-9.738600	26.803607	0.000376	20.704061
2232.614578	-2.986400	3.234200	-9.658200	26.795736	0.000376	20.687137
2233.621264	-3.000500	3.233300	-9.700400	26.759325	0.000375	20.683245
2234.624030	-2.994900	3.234100	-9.685500	26.775539	0.000376	20.674889
2235.617296	-3.006700	3.233400	-9.721200	26.785312	0.000374	20.688036
2236.621978	-3.004800	3.232400	-9.711500	26.830918	0.000374	20.681733
2237.621655	-2.996000	3.232400	-9.683300	26.886148	0.000374	20.676100
2238.618107	-3.024500	3.230400	-9.769000	26.923001	0.000374	20.669060
2239.623658	-2.982900	3.231100	-9.637300	26.918359	0.000373	20.690947
2240.625882	-2.990200	3.230700	-9.659900	26.898677	0.000372	20.677318
2241.620162	-3.010700	3.229300	-9.721500	26.924514	0.000373	20.684333
2242.624198	-2.975900	3.230700	-9.613000	26.934465	0.000371	20.682485
2243.616742	-2.999300	3.229100	-9.683700	26.898652	0.000369	20.687252
2244.619089	-3.009300	3.230400	-9.719200	26.926798	0.000368	20.679992
2245.624835	-2.997500	3.228000	-9.674800	26.901181	0.000369	20.693588
2246.622572	-2.985500	3.230900	-9.644800	26.861448	0.000369	20.693940
2247.623510	-3.018500	3.227200	-9.740600	26.858318	0.000368	20.700750
2248.619040	-3.002900	3.227800	-9.691500	26.876538	0.000366	20.703424
2249.622154	-2.999900	3.226900	-9.679400	26.887457	0.000364	20.698755
2250.623109	-2.997900	3.226700	-9.672100	26.936050	0.000365	20.699728
2251.622967	-3.012200	3.225900	-9.716100	26.912425	0.000363	20.704421
2252.621574	-2.982900	3.226000	-9.620900	26.928701	0.000365	20.695183
2253.620517	-3.031300	3.224300	-9.772700	26.929441	0.000362	20.698298
2254.620939	-3.011300	3.224700	-9.709700	26.958212	0.000362	20.698780
2255.629953	-3.004800	3.224600	-9.687500	26.941513	0.000362	20.700006
2256.633128	-3.011400	3.222400	-9.702400	26.980178	0.000362	20.690522
2257.627971	-3.001200	3.224000	-9.674900	26.972105	0.000362	20.701372
2258.630508	-2.992700	3.223200	-9.645200	27.023702	0.000361	20.696360
2259.631184	-3.004700	3.224100	-9.685800	27.070501	0.000360	20.688895
2260.632106	-2.993700	3.220900	-9.641500	27.081621	0.000358	20.690596
2261.626448	-2.991700	3.222400	-9.639800	27.081767	0.000360	20.716349
2262.622390	-2.996100	3.220900	-9.649100	27.067135	0.000358	20.684562
2263.624894	-3.000700	3.221000	-9.664900	27.100259	0.000357	20.699859
2264.631824	-3.001200	3.220600	-9.665300	27.071996	0.000358	20.697987
2265.629292	-3.014500	3.219800	-9.704800	27.035392	0.000356	20.706694
2266.633482	-3.028500	3.218700	-9.746000	26.974398	0.000356	20.700832
2267.633978	-3.002900	3.218800	-9.665500	26.937123	0.000354	20.710291
2268.629594	-2.996800	3.216900	-9.638000	26.958642	0.000354	20.715335
2269.632919	-3.008500	3.218200	-9.680400	26.981690	0.000350	20.694414
2270.625069	-3.001600	3.218500	-9.659700	27.027254	0.000352	20.712261
2271.629344	-3.003900	3.216800	-9.661200	26.981868	0.000352	20.705974
2272.639050	-3.007900	3.216800	-9.674500	26.966032	0.000354	20.699058
2273.630826	-2.982000	3.216400	-9.590400	26.974129	0.000350	20.692500
2274.645926	-2.975600	3.217400	-9.573500	26.992364	0.000350	20.711313
2275.629215	-2.989900	3.215300	-9.611900	26.991421	0.000350	20.691871
2276.628572	-3.019100	3.214100	-9.702300	26.970073	0.000350	20.721615
2277.638136	-2.995800	3.215500	-9.631900	26.966618	0.000350	20.712924
2278.637289	-2.994800	3.213900	-9.624200	26.991144	0.000350	20.723364
2279.630131	-2.997600	3.213500	-9.631500	27.052585	0.000349	20.712605
2280.627180	-2.977400	3.216700	-9.576100	27.088538	0.000350	20.711779
2281.645730	-2.986000	3.211900	-9.588500	27.089530	0.000347	20.706612
2282.634295	-3.004100	3.211500	-9.646800	27.091147	0.000346	20.708713
2283.633192	-2.982000	3.213100	-9.580600	27.104836	0.000346	20.709678
2284.635705	-3.009300	3.211700	-9.664600	27.121735	0.000343	20.719089
2285.637759	-3.009000	3.213300	-9.667800	27.109827	0.000343	20.715647
2286.631702	-2.989600	3.210700	-9.597300	27.102081	0.000345	20.709752
2287.640819	-3.010000	3.209600	-9.659300	27.095310	0.000344	20.710529
2288.635647	-2.994100	3.209800	-9.609200	27.089408	0.000342	20.717396
2289.634202	-3.006200	3.210700	-9.651200	27.117509	0.000344	20.700138
2290.636912	-3.002200	3.208200	-9.630000	27.097334	0.000343	20.706400
2291.638929	-3.013600	3.208500	-9.668300	27.092700	0.000342	20.724501
2292.639855	-3.033300	3.207300	-9.727100	27.062478	0.000342	20.717339
2293.642724	-3.012300	3.206600	-9.658500	27.059690	0.000342	20.712638
2294.635070	-3.006800	3.205800	-9.638200	27.061576	0.000341	20.723545
2295.651399	-3.002200	3.206200	-9.624500	27.090181	0.000339	20.708690
2296.638148	-3.017000	3.204700	-9.666700	27.096879	0.000339	20.733920
2297.645571	-3.023100	3.204100	-9.685400	27.108763	0.000339	20.721689
2298.641266	-2.987100	3.205600	-9.574500	27.132279	0.000340	20.725900
2299.641367	-3.029900	3.203900	-9.705800	27.175050	0.000338	20.725769
2300.645568	-3.000600	3.203400	-9.609700	27.145902	0.000337	20.716841
2301.639189	-3.020800	3.202400	-9.672200	27.147755	0.000335	20.712541
2302.647919	-2.994400	3.204400	-9.594900	27.118250	0.000334	20.725541
2303.641195	-2.976500	3.203100	-9.533100	27.166808	0.000335	20.716531
2304.638763	-2.989800	3.203900	-9.578500	27.201823	0.000335	20.706704
2305.640263	-3.021600	3.202800	-9.677100	27.241990	0.000335	20.720553
2306.648103	-3.005400	3.203500	-9.626100	27.236154	0.000332	20.717055
2307.635787	-2.980800	3.202600	-9.545900	27.265080	0.000334	20.709639
2308.640082	-3.007000	3.201400	-9.625200	27.289965	0.000331	20.739415
2309.638310	-3.017500	3.201300	-9.658700	27.298816	0.000331	20.728877
2310.641634	-2.977100	3.199400	-9.523000	27.327195	0.000330	20.737984
2311.640232	-3.002500	3.198600	-9.601600	27.303586	0.000330	20.731779
2312.639045	-2.994900	3.198200	-9.576100	27.302912	0.000331	20.738213
2313.642706	-2.991700	3.199100	-9.569400	27.289064	0.000328	20.746094
2314.647792	-3.019700	3.196200	-9.650400	27.329901	0.000328	20.711307
2315.641587	-3.020200	3.198100	-9.657700	27.338605	0.000328	20.720538
2316.655807	-2.985400	3.197600	-9.544000	27.365675	0.000326	20.731648
2317.643013	-2.975200	3.196500	-9.509600	27.377255	0.000325	20.726702
2318.644136	-2.996900	3.196800	-9.578100	27.416847	0.000326	20.730022
2319.650333	-2.992700	3.195300	-9.561000	27.350836	0.000326	20.723358
2320.653626	-3.016900	3.193700	-9.634200	27.369836	0.000325	20.723506
2321.651963	-2.994100	3.193900	-9.561500	27.367203	0.000325	20.719909
2322.640858	-3.002200	3.194300	-9.589100	27.395190	0.000324	20.734788
2323.650580	-3.003000	3.193100	-9.586200	27.406006	0.000323	20.744721
2324.654103	-3.004000	3.193600	-9.592300	27.425948	0.000322	20.738230
2325.650074	-3.019900	3.192100	-9.637600	27.439762	0.000321	20.750706
2326.645989	-2.970000	3.193800	-9.484400	27.403171	0.000321	20.751826
2327.653824	-3.005200	3.190100	-9.586200	27.416302	0.000321	20.741328
2328.646995	-3.018500	3.190000	-9.627700	27.399139	0.000322	20.736864
2329.651404	-2.999600	3.190000	-9.568800	27.413572	0.000323	20.731943
2330.647243	-2.978900	3.190400	-9.502800	27.397043	0.000321	20.769370
2331.650168	-3.007800	3.189800	-9.593500	27.402731	0.000319	20.723882
2332.651031	-3.019600	3.187300	-9.623200	27.353217	0.000319	20.742824
2333.654324	-3.010100	3.187900	-9.594500	27.375834	0.000321	20.758938
2334.650188	-2.984700	3.188500	-9.515300	27.369763	0.000317	20.761840
2335.650413	-3.026000	3.186300	-9.640500	27.373761	0.000317	20.742628
2336.654862	-3.006900	3.187500	-9.583400	27.377312	0.000317	20.754261
2337.654376	-3.002200	3.186500	-9.565600	27.383407	0.000316	20.754703
2338.653673	-3.014500	3.184900	-9.599400	27.374224	0.000316	20.760165
2339.650582	-3.027800	3.185500	-9.644100	27.390298	0.000314	20.753101
2340.652991	-3.012400	3.182900	-9.585900	27.340019	0.000315	20.779809
2341.654132	-3.002500	3.182700	-9.555300	27.322108	0.000316	20.749937
2342.663752	-2.997600	3.183200	-9.541300	27.344513	0.000313	20.752087
2343.653800	-3.018200	3.184000	-9.609200	27.358580	0.000314	20.740633
2344.656486	-2.987700	3.181100	-9.503600	27.312559	0.000313	20.752659
2345.659491	-2.996100	3.183100	-9.536200	27.294769	0.000312	20.769852
2346.666898	-3.024100	3.181600	-9.620300	27.282237	0.000312	20.755823
2347.657400	-3.006500	3.182400	-9.565600	27.214088	0.000312	20.750337
2348.653370	-2.975300	3.180800	-9.463000	27.221826	0.000312	20.759543
2349.650615	-2.990500	3.180700	-9.511300	27.260708	0.000309	20.765462
2350.651591	-2.985600	3.178500	-9.488100	27.309056	0.000311	20.751981
2351.655877	-3.007500	3.178000	-9.556000	27.365220	0.000310	20.760115
2352.654658	-2.998800	3.178400	-9.530200	27.386186	0.000307	20.779311
2353.659982	-2.985500	3.178600	-9.488700	27.405755	0.000309	20.756322
2354.658758	-2.994000	3.178800	-9.516400	27.438673	0.000306	20.751981
2355.659389	-2.977400	3.178200	-9.461300	27.383627	0.000306	20.760614
2356.660522	-3.007900	3.176300	-9.552100	27.357606	0.000306	20.769051
2357.660271	-3.008500	3.175100	-9.551400	27.281099	0.000306	20.770800
2358.657602	-2.979000	3.175400	-9.458500	27.265519	0.000304	20.766508
2359.652177	-2.988300	3.176400	-9.490500	27.222566	0.000305	20.764555
2360.652799	-2.977300	3.174000	-9.449400	27.194167	0.000304	20.768707
2361.658340	-3.004300	3.174100	-9.535400	27.162940	0.000304	20.746308
2362.660333	-2.995400	3.173000	-9.503500	27.198825	0.000303	20.767702
2363.662134	-3.014000	3.172100	-9.558900	27.217689	0.000304	20.768184
2364.651545	-2.989900	3.171400	-9.479800	27.287202	0.000300	20.782156
2365.652862	-2.999500	3.171500	-9.510700	27.314087	0.000301	20.776957
2366.665449	-3.009900	3.170800	-9.542500	27.359377	0.000300	20.766565
2367.660488	-2.996300	3.170100	-9.498200	27.396377	0.000302	20.779605
2368.675929	-2.988500	3.169500	-9.470900	27.437536	0.000302	20.777864
2369.658564	-3.031300	3.168000	-9.602100	27.436495	0.000302	20.752161
2370.653788	-2.994000	3.168100	-9.484000	27.453316	0.000300	20.771454
2371.654488	-2.976800	3.170500	-9.437500	27.443760	0.000301	20.777962
2372.654174	-3.007800	3.167100	-9.524900	27.438381	0.000299	20.780610
2373.655334	-3.002900	3.166800	-9.508300	27.440591	0.000300	20.762445
2374.655025	-3.009400	3.165800	-9.526100	27.450139	0.000299	20.790069
2375.665170	-2.995900	3.165100	-9.479800	27.464732	0.000297	20.763025
2376.654548	-3.036000	3.164200	-9.605500	27.500120	0.000297	20.779662
2377.656513	-2.989200	3.165300	-9.460500	27.501615	0.000295	20.776899
2378.658700	-2.998000	3.163200	-9.480800	27.548392	0.000296	20.767538
2379.658596	-3.019900	3.164300	-9.555500	27.557183	0.000295	20.779228
2380.671544	-2.998200	3.162500	-9.479700	27.502484	0.000294	20.772083
2381.655355	-2.999200	3.162600	-9.483800	27.493579	0.000294	20.776874
2382.665717	-2.987400	3.161500	-9.443100	27.464862	0.000293	20.785915
2383.658457	-2.975800	3.160800	-9.404700	27.451324	0.000296	20.769450
2384.661453	-2.993500	3.161400	-9.462400	27.472175	0.000295	20.784738
2385.662223	-2.968200	3.161600	-9.383700	27.475336	0.000292	20.794082
2386.661718	-2.992800	3.159800	-9.455700	27.462782	0.000290	20.806582
2387.658354	-3.019000	3.159200	-9.536300	27.504345	0.000291	20.785335
2388.663402	-2.994000	3.157600	-9.452500	27.511072	0.000291	20.781198
2389.659318	-3.007500	3.158900	-9.498900	27.529752	0.000291	20.802364
2390.657499	-3.005100	3.154800	-9.478800	27.559288	0.000290	20.791777
2391.674935	-2.992300	3.156300	-9.443900	27.578633	0.000291	20.803656
2392.660845	-3.010100	3.154000	-9.492500	27.485477	0.000290	20.777258
2393.672678	-2.983700	3.154400	-9.410500	27.463968	0.000289	20.784542
2394.663595	-2.981400	3.155500	-9.406800	27.475311	0.000288	20.796902
2395.674747	-2.988000	3.152700	-9.418700	27.511097	0.000289	20.790706
2396.671421	-3.011200	3.151900	-9.489400	27.523480	0.000289	20.796527
2397.673818	-3.001900	3.151300	-9.459600	27.497015	0.000289	20.811152
2398.668734	-2.979400	3.152100	-9.390000	27.463529	0.000289	20.786945
2399.661686	-2.993700	3.150800	-9.431400	27.415480	0.000287	20.811626
2400.668357	-2.979600	3.150200	-9.384200	27.403169	0.000288	20.794499
2401.664412	-2.986900	3.150200	-9.408600	27.374946	0.000288	20.799298
2402.668942	-3.001800	3.149000	-9.451200	27.377035	0.000287	20.796183
2403.664543	-2.994200	3.148100	-9.426000	27.359790	0.000284	20.816294
2404.666815	-3.005600	3.148400	-9.461100	27.382390	0.000286	20.797303
2405.668306	-2.987900	3.146500	-9.400800	27.409459	0.000285	20.800352
2406.667558	-3.027900	3.144600	-9.519600	27.434105	0.000285	20.795276
2407.664723	-2.992900	3.145900	-9.415200	27.471890	0.000285	20.823806
2408.664567	-2.999100	3.144900	-9.429600	27.482478	0.000282	20.828294
2409.669705	-3.006000	3.143400	-9.448100	27.461839	0.000284	20.797573
2410.670645	-2.960600	3.144000	-9.307300	27.424110	0.000283	20.810351
2411.677950	-2.991100	3.142900	-9.399900	27.426052	0.000283	20.807088
2412.671259	-2.986300	3.142700	-9.383200	27.413595	0.000282	20.791237
2413.671049	-2.992000	3.142100	-9.400000	27.436421	0.000282	20.805666
2414.666230	-2.990700	3.142700	-9.397800	27.440638	0.000282	20.816073
2415.665718	-3.000700	3.140800	-9.423700	27.465544	0.000282	20.805568
2416.677054	-2.982900	3.139800	-9.364500	27.498461	0.000281	20.801227
2417.666219	-3.019100	3.136700	-9.469000	27.520408	0.000280	20.807187
2418.669154	-2.989900	3.137500	-9.379800	27.575399	0.000279	20.817945
2419.665776	-2.989800	3.137300	-9.378100	27.570711	0.000279	20.820814
2420.674396	-2.994100	3.137400	-9.392800	27.603380	0.000279	20.810064
2421.670805	-2.986800	3.136700	-9.367200	27.616477	0.000281	20.808069
2422.673639	-3.009500	3.134900	-9.433400	27.631329	0.000277	20.809737
2423.669561	-2.995500	3.133900	-9.386500	27.637406	0.000279	20.808265
2424.676999	-2.975300	3.133600	-9.322300	27.646115	0.000278	20.832201
2425.676313	-3.005100	3.133400	-9.415000	27.654939	0.000277	20.824010
2426.677265	-3.006700	3.131400	-9.414100	27.698419	0.000277	20.816080
2427.671301	-3.001700	3.131300	-9.397600	27.725821	0.000277	20.831801
2428.672914	-2.961700	3.130800	-9.270600	27.681952	0.000278	20.820846
2429.670936	-2.995900	3.130000	-9.376300	27.683942	0.000276	20.830909
2430.676341	-3.002600	3.129700	-9.394900	27.701075	0.000278	20.814486
2431.678462	-2.997900	3.128800	-9.379200	27.711913	0.000277	20.813064
2432.678738	-2.998500	3.127100	-9.375500	27.726600	0.000274	20.839223
2433.674161	-2.999600	3.126000	-9.376300	27.717347	0.000274	20.815688
2434.674485	-2.992500	3.126800	-9.355100	27.717428	0.000275	20.815769
2435.676435	-3.005600	3.124900	-9.390200	27.703983	0.000271	20.834956
2436.685864	-2.987900	3.125900	-9.338900	27.672665	0.000275	20.833312
2437.687086	-2.993000	3.122900	-9.345300	27.624877	0.000274	20.825056
2438.678022	-2.997900	3.123500	-9.363000	27.644271	0.000274	20.815172
2439.684048	-3.017200	3.121400	-9.416700	27.649381	0.000273	20.830745
2440.676500	-3.010700	3.120800	-9.394800	27.687573	0.000273	20.846891
2441.681931	-2.994400	3.121600	-9.346400	27.686216	0.000270	20.826560
2442.680586	-2.990000	3.119800	-9.327200	27.700156	0.000271	20.809294
2443.682667	-3.027100	3.117900	-9.436100	27.721579	0.000271	20.852662
2444.681172	-3.032200	3.117100	-9.450600	27.732619	0.000270	20.825840
2445.678752	-3.002700	3.116400	-9.356100	27.723293	0.000269	20.836369
2446.677186	-3.002900	3.117200	-9.359600	27.721416	0.000271	20.817886
2447.681710	-2.985100	3.115100	-9.297600	27.699986	0.000271	20.834726
2448.677843	-2.997400	3.115600	-9.337100	27.684136	0.000270	20.828734
2449.679582	-3.004500	3.113700	-9.354500	27.657025	0.000269	20.830377
2450.683041	-3.001400	3.112400	-9.340100	27.682795	0.000268	20.834023
2451.684479	-3.011800	3.113300	-9.376200	27.696939	0.000269	20.834505
2452.684154	-3.001300	3.110600	-9.334300	27.741498	0.000270	20.814387
2453.680896	-3.026200	3.109200	-9.407700	27.786259	0.000268	20.828611
2454.682405	-2.998400	3.109600	-9.322800	27.808964	0.000270	20.821115
2455.688320	-3.011800	3.108400	-9.360900	27.809442	0.000267	20.806425
2456.679252	-3.010500	3.107000	-9.352400	27.815470	0.000267	20.818654
2457.689471	-3.009100	3.107200	-9.348900	27.833812	0.000266	20.802975
2458.684623	-2.997500	3.105800	-9.308900	27.821416	0.000266	20.811837
2459.684064	-2.994200	3.107500	-9.303400	27.767104	0.000264	20.830672
2460.709650	-3.002700	3.104000	-9.320000	27.735487	0.000267	20.796484
2461.681582	-3.004200	3.104300	-9.325400	27.743448	0.000265	20.802599
2462.689743	-2.991100	3.102600	-9.279200	27.724276	0.000264	20.814600
2463.686506	-3.001500	3.103900	-9.314500	27.676175	0.000265	20.800335
2464.680389	-3.006400	3.099700	-9.318200	27.666077	0.000264	20.788277
2465.692016	-3.003500	3.100600	-9.312300	27.628510	0.000266	20.825866
2466.690263	-3.018500	3.099200	-9.352800	27.623302	0.000263	20.819203
2467.690472	-2.981200	3.098500	-9.235800	27.622303	0.000264	20.816301
2468.688493	-3.019800	3.097200	-9.351800	27.665054	0.000263	20.813800
2469.681396	-3.006800	3.095500	-9.306500	27.736179	0.000264	20.802870
2470.685028	-3.010000	3.095600	-9.316800	27.734270	0.000266	20.781034
2471.690633	-3.003100	3.094500	-9.291900	27.754279	0.000263	20.797851
2472.685653	-2.979900	3.096200	-9.225300	27.761744	0.000264	20.793984
2473.682919	-2.997500	3.092400	-9.269000	27.763247	0.000265	20.808299
2474.691092	-2.992500	3.092700	-9.253900	27.734985	0.000264	20.790763
2475.682897	-3.018100	3.091500	-9.329800	27.707153	0.000262	20.790257
2476.685552	-3.010900	3.089900	-9.302200	27.661423	0.000263	20.799715
2477.690024	-3.003400	3.090400	-9.280400	27.626926	0.000263	20.799617
2478.695838	-3.017900	3.088000	-9.318700	27.597036	0.000262	20.795145
2479.688925	-2.990400	3.088100	-9.233500	27.577666	0.000261	20.806950
2480.701173	-3.003100	3.086700	-9.268600	27.596662	0.000263	20.786235
2481.700322	-3.008700	3.085300	-9.282100	27.636993	0.000264	20.806901
2482.692703	-3.014100	3.085400	-9.299200	27.668564	0.000263	20.781297
2483.688221	-3.003000	3.085000	-9.263500	27.700800	0.000262	20.805201
2484.691402	-3.013600	3.082800	-9.288500	27.707714	0.000261	20.801252
2485.699935	-2.997700	3.082800	-9.240900	27.712247	0.000261	20.787796
2486.691945	-3.002200	3.080900	-9.248900	27.708039	0.000260	20.779768
2487.686969	-3.023900	3.080400	-9.314100	27.739706	0.000261	20.787927
2488.694174	-2.996300	3.079300	-9.225900	27.755076	0.000260	20.785377
2489.692331	-2.987500	3.079100	-9.197500	27.770250	0.000260	20.795432
2490.689756	-3.017300	3.076200	-9.279400	27.746668	0.000261	20.772648
2491.694209	-2.996500	3.076900	-9.218900	27.721947	0.000258	20.784281
2492.694133	-3.007400	3.075900	-9.249700	27.687721	0.000260	20.802471
2493.692310	-3.015500	3.073400	-9.266100	27.638090	0.000259	20.789988
2494.698299	-3.043200	3.073300	-9.350900	27.644598	0.000261	20.775673
2495.701098	-3.007400	3.071400	-9.235900	27.654095	0.000259	20.779539
2496.697778	-3.024600	3.069600	-9.282900	27.694164	0.000260	20.782401
2497.689448	-2.998400	3.070100	-9.203900	27.678817	0.000261	20.771700
2498.694024	-2.981900	3.070300	-9.153200	27.689525	0.000261	20.790061
2499.698673	-2.975100	3.070300	-9.132600	27.664657	0.000260	20.786848
2500.696954	-3.029800	3.066000	-9.288300	27.622735	0.000259	20.794451
2501.692174	-2.992600	3.067100	-9.177300	27.578195	0.000261	20.771446
2502.704780	-3.012500	3.064800	-9.231800	27.559345	0.000261	20.792309
2503.700637	-3.007500	3.063800	-9.213300	27.500559	0.000260	20.775362
2504.698238	-2.986000	3.064400	-9.149300	27.486315	0.000259	20.765299
2505.692813	-2.999900	3.062500	-9.186300	27.469869	0.000261	20.768193
2506.695103	-3.015000	3.060200	-9.225900	27.499308	0.000258	20.781216
2507.702595	-2.998100	3.061200	-9.176700	27.555413	0.000259	20.772706
2508.699594	-3.009600	3.058300	-9.202800	27.594519	0.000259	20.773647
2509.702664	-2.978700	3.058600	-9.109400	27.641390	0.000257	20.790463
2510.703907	-2.992600	3.056700	-9.146800	27.690306	0.000260	20.764294
2511.700911	-2.982900	3.055600	-9.112800	27.762657	0.000258	20.767875
2512.695409	-2.999800	3.055000	-9.163300	27.803151	0.000259	20.776860
2513.708290	-3.015300	3.054500	-9.209000	27.819243	0.000259	20.767924
2514.698748	-3.018500	3.052400	-9.212800	27.842499	0.000259	20.746758
2515.700940	-3.010300	3.051500	-9.184300	27.858640	0.000257	20.770590
2516.699589	-2.997400	3.051500	-9.144000	27.864115	0.000256	20.757607
2517.698372	-2.990500	3.049300	-9.117900	27.837764	0.000259	20.756691
2518.700661	-3.009700	3.049200	-9.175800	27.829998	0.000255	20.772584
2519.701724	-3.011700	3.047400	-9.177000	27.820275	0.000260	20.767540
2520.699986	-3.009500	3.045700	-9.164100	27.844571	0.000258	20.766388
2521.705166	-2.999700	3.045500	-9.135000	27.868249	0.000258	20.762717
2522.702425	-3.000800	3.043900	-9.132800	27.904452	0.000257	20.750315
2523.699722	-2.969400	3.042900	-9.033600	27.947443	0.000256	20.758025
2524.696570	-2.986500	3.041900	-9.084100	27.950399	0.000257	20.749620
2525.699708	-2.980700	3.041000	-9.063000	27.908367	0.000257	20.757101
2526.697943	-3.000500	3.038100	-9.115300	27.874545	0.000257	20.749138
2527.703342	-3.000200	3.037500	-9.111700	27.904891	0.000256	20.770198
2528.706644	-2.973600	3.036900	-9.029600	27.912590	0.000256	20.767042
2529.705102	-3.013000	3.034400	-9.142000	27.925521	0.000256	20.778161
2530.703479	-2.992200	3.035600	-9.081700	27.913841	0.000255	20.755499
2531.705297	-2.995800	3.033700	-9.087000	27.875040	0.000254	20.761491
2532.700285	-2.976600	3.033000	-9.027200	27.867649	0.000256	20.756423
2533.711979	-3.018000	3.030600	-9.145500	27.878533	0.000257	20.754575
2534.703155	-3.000200	3.029100	-9.086800	27.880198	0.000255	20.769053
2535.700212	-2.987600	3.028200	-9.046800	27.897385	0.000257	20.756480
2536.706124	-2.990900	3.027900	-9.054300	27.934894	0.000256	20.748713
2537.701205	-2.994000	3.026800	-9.061600	27.985519	0.000257	20.750831
2538.706037	-3.001600	3.024600	-9.077000	27.990586	0.000256	20.763044
2539.701686	-2.996300	3.024600	-9.062100	28.036969	0.000254	20.765636
2540.704401	-3.018100	3.021100	-9.116300	28.049142	0.000256	20.750389
2541.702312	-3.012000	3.020800	-9.097000	28.085485	0.000256	20.748566
2542.707885	-2.999400	3.019500	-9.055000	28.090422	0.000255	20.761597
2543.713402	-3.016300	3.019700	-9.107100	28.091657	0.000254	20.739606
2544.719532	-3.018200	3.017700	-9.107100	28.063200	0.000254	20.746522
2545.702081	-2.987800	3.017400	-9.014800	28.049492	0.000254	20.740309
2546.712363	-2.963800	3.016200	-8.937900	28.045301	0.000254	20.734193
2547.706263	-2.989000	3.013700	-9.007500	28.090876	0.000255	20.754468
2548.706185	-3.024600	3.012500	-9.110900	28.066578	0.000254	20.738068
2549.704086	-3.006000	3.011800	-9.052400	28.021310	0.000255	20.756986
2550.705148	-2.992300	3.011400	-9.009800	28.058449	0.000255	20.745058
2551.704644	-3.005300	3.009800	-9.044600	28.021586	0.000254	20.742090
2552.708890	-3.001700	3.008300	-9.028900	27.995678	0.000254	20.749203
2553.712653	-3.027400	3.005500	-9.097100	28.008819	0.000254	20.738722
2554.705408	-3.016200	3.004700	-9.062200	28.001655	0.000254	20.746685
2555.706322	-2.989700	3.004800	-8.982100	28.030860	0.000255	20.740995
2556.707041	-2.992900	3.002600	-8.985100	28.044025	0.000255	20.747609
2557.719142	-2.997100	3.002600	-8.998500	28.033240	0.000253	20.740545
2558.707771	-3.012100	3.000000	-9.035200	27.993282	0.000253	20.741101
2559.713581	-3.004700	2.999800	-9.012000	27.989457	0.000256	20.734405
2560.719227	-2.982800	2.998300	-8.942500	28.004928	0.000255	20.740496
2561.708015	-2.990200	2.997300	-8.961300	28.010711	0.000253	20.732565
2562.710332	-2.989300	2.995600	-8.952600	28.054525	0.000253	20.730202
2563.718404	-3.001700	2.995200	-8.988600	28.044821	0.000255	20.748884
2564.714780	-2.983700	2.994400	-8.932900	28.069063	0.000257	20.735828
2565.712102	-3.017400	2.990200	-9.021900	28.061088	0.000252	20.766681
2566.713959	-3.031600	2.989600	-9.061900	28.078443	0.000253	20.731993
2567.713282	-2.987500	2.989400	-8.929700	28.093434	0.000253	20.731912
2568.709245	-2.980600	2.989400	-8.909000	28.085403	0.000251	20.738051
2569.717008	-2.994500	2.986500	-8.941500	28.120436	0.000254	20.727799
2570.715131	-3.029800	2.983600	-9.037500	28.132389	0.000254	20.745523
2571.715876	-2.996000	2.983700	-8.938000	28.080895	0.000252	20.724504
2572.712840	-3.007000	2.980800	-8.961800	28.054615	0.000253	20.743096
2573.720222	-3.012900	2.981800	-8.983300	28.040037	0.000252	20.730317
2574.713570	-2.992300	2.980000	-8.916100	28.002037	0.000251	20.737111
2575.708231	-2.973600	2.979100	-8.856800	28.016493	0.000253	20.718945
2576.719292	-2.998200	2.976100	-8.922100	28.033377	0.000253	20.726458
2577.710375	-3.010300	2.975400	-8.955900	28.035384	0.000253	20.719942
2578.716571	-2.988500	2.973300	-8.884700	28.036399	0.000253	20.752260
2579.724999	-2.984700	2.971000	-8.866200	28.026287	0.000252	20.732598
2580.727255	-2.991800	2.972300	-8.890500	27.974666	0.000251	20.723311
2581.725536	-2.989500	2.970300	-8.879100	27.983990	0.000251	20.728428
2582.716763	-3.004800	2.967900	-8.916800	28.017354	0.000252	20.717441
2583.724537	-3.004800	2.966800	-8.913600	28.065635	0.000253	20.750870
2584.718103	-2.987600	2.966000	-8.858400	28.115035	0.000253	20.725681
2585.718894	-3.003100	2.964400	-8.901400	28.073578	0.000255	20.714767
2586.718646	-3.008300	2.961100	-8.906700	28.057441	0.000252	20.728396
2587.728143	-2.999700	2.960900	-8.881200	28.045617	0.000254	20.741624
2588.719123	-2.992100	2.959800	-8.854900	28.016615	0.000251	20.714326
2589.724548	-3.017800	2.958300	-8.924500	28.010142	0.000252	20.730571
2590.721316	-2.972800	2.957700	-8.791200	28.038088	0.000253	20.717923
2591.722891	-2.994300	2.955300	-8.846600	28.015600	0.000252	20.723261
2592.728189	-2.982500	2.954100	-8.809600	28.061063	0.000252	20.738681
2593.727717	-2.983600	2.952900	-8.809100	28.092873	0.000252	20.729450
2594.720704	-3.001900	2.949500	-8.852700	28.050295	0.000251	20.737324
2595.727092	-2.989800	2.949000	-8.815800	28.002386	0.000253	20.722289
2596.724958	-3.009400	2.948400	-8.872100	28.001517	0.000252	20.725681
2597.724786	-3.018900	2.945800	-8.892800	28.002508	0.000252	20.716721
2598.737382	-3.014400	2.942800	-8.869900	28.040338	0.000252	20.703591
2599.723217	-2.994500	2.942600	-8.810900	28.058432	0.000252	20.710426
2600.730917	-2.989800	2.942100	-8.795000	28.086150	0.000252	20.725052
2601.732283	-2.991600	2.941100	-8.797600	28.071475	0.000250	20.706959
2602.725716	-3.007500	2.938200	-8.835600	28.066838	0.000253	20.693282
2603.729577	-2.971300	2.937300	-8.725700	28.071743	0.000252	20.738526
2604.729082	-2.989800	2.936500	-8.777200	28.048946	0.000250	20.705144
2605.728302	-3.020700	2.933200	-8.859400	27.995588	0.000251	20.723507
2606.736799	-3.011100	2.932700	-8.829500	27.961420	0.000251	20.693380
2607.733457	-2.993700	2.931400	-8.773400	27.967146	0.000252	20.708628
2608.741332	-2.985700	2.928900	-8.743600	27.990114	0.000251	20.707090
2609.732118	-3.010300	2.927500	-8.812400	28.010816	0.000251	20.698530
2610.738330	-3.002800	2.926600	-8.786700	28.009224	0.000252	20.695979
2611.734832	-3.005000	2.924700	-8.787600	28.062135	0.000251	20.702773
2612.732523	-2.984100	2.923100	-8.722300	28.096244	0.000251	20.701547
2613.729490	-2.994000	2.921500	-8.746200	28.112161	0.000252	20.714726
2614.738169	-2.979800	2.920200	-8.700600	28.109481	0.000253	20.726728
2615.735419	-2.990200	2.918400	-8.725900	28.142410	0.000249	20.695864
2616.743544	-2.991200	2.916900	-8.724300	28.117820	0.000250	20.697663
2617.730447	-3.014600	2.914800	-8.785400	28.093701	0.000251	20.682865
2618.735858	-3.001600	2.912300	-8.739800	28.053461	0.000251	20.705896
2619.751562	-2.995300	2.910900	-8.717900	28.068469	0.000250	20.693027
2620.749968	-2.980400	2.908400	-8.666700	28.090201	0.000252	20.707319
2621.734526	-3.028500	2.906700	-8.801500	28.123878	0.000250	20.705184
2622.740279	-3.034200	2.906700	-8.818300	28.168339	0.000252	20.696837
2623.737344	-2.988600	2.904600	-8.679500	28.167470	0.000251	20.705446
2624.739056	-3.023600	2.900000	-8.767500	28.158358	0.000249	20.686789
2625.739559	-2.982500	2.901100	-8.651300	28.213381	0.000250	20.713736
2626.738788	-2.994500	2.898900	-8.679700	28.242613	0.000251	20.683420
2627.737452	-3.031000	2.895200	-8.773500	28.223028	0.000251	20.690730
2628.748057	-2.999200	2.896000	-8.684500	28.190970	0.000252	20.710139
2629.734123	-2.998400	2.893900	-8.675900	28.142905	0.000249	20.708692
2630.744343	-3.022600	2.890000	-8.734100	28.152106	0.000250	20.695668
2631.735516	-2.994300	2.889800	-8.649700	28.128158	0.000252	20.711864
2632.740839	-2.990900	2.889400	-8.640400	28.117252	0.000251	20.682391
2633.740128	-3.030700	2.885300	-8.744000	28.105323	0.000254	20.696461
2634.742890	-3.007200	2.884100	-8.671900	28.067332	0.000252	20.689511
2635.744858	-2.978500	2.883500	-8.587400	28.090778	0.000248	20.677076
2636.736153	-2.993600	2.881100	-8.623600	28.135174	0.000251	20.701857
2637.740165	-3.021400	2.877900	-8.694400	28.156361	0.000250	20.716549
2638.745552	-3.015600	2.878500	-8.678400	28.160778	0.000251	20.693019
2639.739785	-2.993800	2.875900	-8.608900	28.158245	0.000252	20.689046
2640.738206	-3.004900	2.872800	-8.630800	28.184498	0.000250	20.698407
2641.744184	-3.016100	2.871000	-8.658800	28.222395	0.000251	20.694835
2642.741148	-2.983000	2.870000	-8.560400	28.276010	0.000251	20.686700
2643.746985	-2.993500	2.868600	-8.585800	28.284633	0.000249	20.693960
2644.740094	-3.006600	2.865500	-8.613400	28.306742	0.000250	20.689193
2645.737866	-3.032800	2.863000	-8.680900	28.322038	0.000249	20.699854
2646.755053	-2.994200	2.862200	-8.569500	28.313806	0.000250	20.693935
2647.743238	-3.009400	2.860400	-8.606700	28.270107	0.000252	20.670324
2648.744653	-2.991600	2.859200	-8.552700	28.250596	0.000250	20.674387
2649.739234	-3.020300	2.855200	-8.622400	28.263262	0.000252	20.688090
2650.747450	-2.988100	2.854000	-8.527200	28.262491	0.000251	20.678778
2651.746969	-2.987800	2.854200	-8.526700	28.243483	0.000251	20.700419
2652.741249	-3.016800	2.849400	-8.595400	28.229493	0.000251	20.678271
2653.747669	-3.001300	2.848300	-8.547200	28.151936	0.000251	20.684117
2654.747869	-2.999400	2.846200	-8.535800	28.119210	0.000250	20.693846
2655.727416	-2.982700	2.844500	-8.482200	28.061243	0.000248	20.659671
2656.726467	-2.957200	2.842100	-8.403200	28.075130	0.000250	20.682662
2657.731263	-3.000900	2.840300	-8.522500	28.090381	0.000249	20.664347
2658.726264	-3.009700	2.836300	-8.535300	28.148753	0.000250	20.683757
2659.726079	-2.992100	2.836000	-8.484000	28.212855	0.000249	20.677642
2660.732358	-3.013900	2.832100	-8.534300	28.220707	0.000250	20.671796
2661.726583	-2.982600	2.830700	-8.441800	28.248453	0.000251	20.655632
2662.729243	-3.017800	2.828900	-8.536200	28.291852	0.000249	20.695065
2663.746629	-3.009500	2.826700	-8.506000	28.289814	0.000252	20.675467
2664.752635	-2.973000	2.824300	-8.395300	28.353160	0.000250	20.702268
2665.747378	-3.002300	2.822200	-8.472000	28.369715	0.000250	20.676261
2666.732975	-2.995300	2.820600	-8.447700	28.426513	0.000251	20.685565
2667.726662	-2.986000	2.817700	-8.413000	28.451891	0.000251	20.682197
2668.728971	-2.991300	2.814800	-8.419000	28.492238	0.000252	20.657391
2669.730855	-3.022700	2.812000	-8.498700	28.468842	0.000250	20.678877
2670.732146	-2.992900	2.810500	-8.410300	28.441881	0.000251	20.680177
2671.734951	-3.022500	2.808300	-8.486800	28.380757	0.000251	20.686432
2672.729363	-2.988100	2.804000	-8.376000	28.297139	0.000250	20.682843
2673.755690	-2.988600	2.804000	-8.379400	28.272130	0.000249	20.664300
2674.729659	-2.987600	2.800400	-8.365300	28.249752	0.000251	20.677806
2675.760405	-3.011900	2.796700	-8.421900	28.258344	0.000250	20.675076
2676.734973	-2.965400	2.796700	-8.291800	28.232571	0.000249	20.656712
2677.731247	-2.990000	2.792800	-8.349900	28.254479	0.000250	20.685410
2678.736540	-3.017600	2.789300	-8.416200	28.302684	0.000250	20.670407
2679.751256	-2.993900	2.788000	-8.345800	28.281671	0.000248	20.673906
2680.734953	-3.006200	2.785200	-8.372200	28.321424	0.000249	20.672680
2681.730093	-2.996100	2.781800	-8.333600	28.337508	0.000249	20.659476
2682.733182	-2.997200	2.778500	-8.326900	28.388438	0.000249	20.662869
2683.752144	-3.001000	2.776900	-8.332300	28.406680	0.000251	20.653736
2684.751482	-2.978100	2.775400	-8.263900	28.374206	0.000250	20.676989
2685.750222	-2.995800	2.772300	-8.303200	28.335519	0.000250	20.676916
2686.731628	-3.019300	2.767700	-8.356200	28.270061	0.000251	20.658896
2687.736319	-2.992900	2.765800	-8.277000	28.284018	0.000250	20.685280
2688.765331	-3.022400	2.761300	-8.345400	28.281014	0.000249	20.682729
2689.749269	-2.996100	2.759200	-8.265300	28.326994	0.000252	20.663115
2690.748930	-2.987200	2.757800	-8.236400	28.375375	0.000251	20.674847
2691.732026	-3.015700	2.752800	-8.300200	28.414150	0.000250	20.677382
2692.730591	-3.011400	2.750100	-8.280200	28.460522	0.000252	20.683776
2693.734692	-2.958600	2.748300	-8.130000	28.484583	0.000251	20.690938
2694.730417	-2.977400	2.743600	-8.167900	28.471790	0.000251	20.660507
2695.731571	-2.971100	2.743200	-8.149600	28.507159	0.000252	20.698500
2696.748646	-2.993900	2.738800	-8.198100	28.522169	0.000252	20.669043
2697.746656	-2.986200	2.734300	-8.164600	28.501436	0.000251	20.688468
2698.750454	-3.001900	2.731200	-8.197500	28.475459	0.000250	20.676532
2699.752090	-3.018700	2.727800	-8.232900	28.481678	0.000249	20.689434
2700.753351	-2.998000	2.724900	-8.168700	28.470004	0.000251	20.687635
2701.733214	-2.981100	2.721400	-8.111500	28.499748	0.000248	20.671119
2702.753719	-3.012500	2.716900	-8.184600	28.511438	0.000250	20.689058
2703.735958	-2.948100	2.716700	-8.007200	28.551360	0.000249	20.675208
2704.737926	-3.017100	2.710700	-8.176900	28.579625	0.000251	20.662421
2705.735086	-3.009200	2.707400	-8.146000	28.587661	0.000251	20.696121
2706.739070	-3.020000	2.704200	-8.163900	28.565428	0.000251	20.695541
2707.756866	-3.000800	2.700400	-8.101900	28.649877	0.000251	20.676753
2708.752348	-3.016500	2.695100	-8.128300	28.678545	0.000251	20.677178
2709.756554	-2.975200	2.694200	-8.015200	28.686191	0.000251	20.673499
2710.736392	-2.981300	2.688500	-8.013700	28.665485	0.000250	20.677775
2711.737154	-3.022900	2.684800	-8.114600	28.620211	0.000249	20.696662
2712.736388	-2.973400	2.682200	-7.974400	28.598586	0.000251	20.669664
2713.733272	-3.019300	2.677200	-8.082500	28.585843	0.000248	20.712784
2714.740211	-2.966100	2.674800	-7.931900	28.608449	0.000250	20.669640
2715.759103	-2.996100	2.670800	-8.001000	28.586541	0.000250	20.682664
2716.763684	-2.997200	2.665200	-7.987300	28.582937	0.000251	20.668602
2717.756008	-3.027500	2.661700	-8.057300	28.571816	0.000250	20.674472
2718.761220	-3.040800	2.655700	-8.073700	28.613693	0.000250	20.677767
2719.740344	-2.981800	2.654000	-7.912800	28.649033	0.000251	20.700561
2720.745090	-3.000800	2.648600	-7.947600	28.683723	0.000250	20.691404
2721.740874	-2.997800	2.645400	-7.929200	28.682328	0.000250	20.678143
2722.741035	-3.003500	2.640500	-7.929600	28.714663	0.000249	20.680367
2723.740441	-3.013100	2.636600	-7.943400	28.747744	0.000249	20.681920
2724.739173	-2.974800	2.633000	-7.832100	28.792559	0.000251	20.694347
2725.745862	-2.978800	2.628000	-7.827500	28.823259	0.000250	20.683073
2726.741370	-3.010400	2.622300	-7.893900	28.870944	0.000251	20.679426
2727.744920	-3.033000	2.616500	-7.934500	28.908151	0.000250	20.686090
2728.755730	-2.984800	2.613600	-7.800300	28.921922	0.000250	20.693800
2729.764906	-2.990700	2.606900	-7.795400	28.880902	0.000249	20.671439
2730.741579	-3.006600	2.601100	-7.818600	28.823211	0.000249	20.691085
2731.742393	-2.995900	2.597200	-7.777800	28.805000	0.000248	20.702139
2732.743851	-3.016900	2.592700	-7.820700	28.786447	0.000249	20.691036
2733.743301	-2.996100	2.587500	-7.750900	28.771214	0.000249	20.671896
2734.742531	-2.991700	2.580800	-7.719500	28.840724	0.000249	20.694977
2735.743961	-3.000500	2.576700	-7.728900	28.889974	0.000251	20.695753
2736.745964	-2.991900	2.570100	-7.688400	28.859892	0.000252	20.691053
2737.745293	-3.019700	2.563200	-7.739600	28.829305	0.000251	20.682051
2738.749143	-3.012800	2.558600	-7.706500	28.856110	0.000250	20.702416
2739.748018	-2.975700	2.554300	-7.599500	28.876787	0.000250	20.690055
2740.743731	-3.002400	2.548400	-7.650200	28.886947	0.000250	20.702662
2741.765994	-3.031900	2.540100	-7.700500	28.924819	0.000252	20.695770
2742.770740	-3.007600	2.535700	-7.624700	28.913401	0.000249	20.705605
2743.762656	-2.945500	2.532000	-7.455600	28.869062	0.000249	20.696023
2744.745790	-3.014000	2.522700	-7.602300	28.858529	0.000248	20.692050
2745.771024	-3.009100	2.516200	-7.571100	28.883474	0.000249	20.689679
2746.747627	-2.994100	2.511400	-7.517800	28.902998	0.000250	20.688959
2747.747864	-2.999000	2.506300	-7.514900	28.905003	0.000251	20.699514
2748.761518	-2.966100	2.500200	-7.413900	28.982731	0.000251	20.697217
2749.745755	-3.029000	2.492500	-7.549100	29.026993	0.000251	20.703406
