LabVIEW Measurement	
Writer_Version	2
Reader_Version	2
Separator	Tab
Decimal_Separator	.
Multi_Headings	No
X_Columns	One
Time_Pref	Absolute
Operator	admin
Description	Clolumns are: time, Current, Voltage, Power, Battery Temp, and Chamber Temp
Date	2024/08/16
Time	13:06:06.104549407958984375
***End_of_Header***	
	
Channels	6						
Samples	1	1	1	1	1	1	
Date	2024/08/29	2024/08/29	2024/08/29	2024/08/29	2024/08/29	2024/08/29	
Time	21:53:40.3698782920837402344	21:53:40.3758792877197265625	21:53:40.3818793296813964844	21:53:40.3528800010681152344	21:53:40.3528800010681152344	21:53:40.3528800010681152344	
X_Dimension	Time	Time	Time	Time	Time	Time	
X0	0.0000000000000000E+0	0.0000000000000000E+0	0.0000000000000000E+0	0.0000000000000000E+0	0.0000000000000000E+0	0.0000000000000000E+0	
Delta_X	1.000000	1.000000	1.000000	1.000000	1.000000	1.000000	
***End_of_Header***							
X_Value	Untitled	Untitled 1	Untitled 2	Untitled 3	Untitled 4	Untitled 5	Comment
0.000000	-0.004417	4.109000	-0.018211	21.030280	0.000950	20.707402
1.001197	-3.003300	3.943900	-11.844000	21.019974	0.000949	20.694247
2.000267	-2.983400	3.938800	-11.751000	21.027805	0.000947	20.698287
3.000632	-3.011100	3.931600	-11.837000	21.046651	0.000949	20.702439
4.001204	-2.968700	3.930300	-11.667000	21.042002	0.000946	20.706798
4.999498	-3.009900	3.924900	-11.813000	21.028008	0.000946	20.679048
6.004772	-2.997400	3.923300	-11.758000	21.025533	0.000944	20.708818
7.001728	-3.000000	3.919300	-11.757000	21.030175	0.000943	20.689751
8.002400	-2.979000	3.917500	-11.668000	21.031362	0.000944	20.689516
9.000223	-2.992000	3.916600	-11.718000	21.039797	0.000943	20.701747
10.001049	-2.999900	3.913600	-11.739000	21.052361	0.000940	20.701038
11.005015	-2.995100	3.911400	-11.714000	21.080133	0.000942	20.697996
12.004776	-3.002100	3.910400	-11.739000	21.056824	0.000939	20.698389
13.006754	-2.999000	3.909000	-11.722000	21.062334	0.000938	20.694891
14.001316	-3.017700	3.906800	-11.788000	21.038853	0.000938	20.705545
15.001973	-2.997200	3.906000	-11.706000	21.069789	0.000939	20.696184
16.001594	-3.000400	3.905300	-11.717000	21.066421	0.000937	20.699454
17.007387	-2.996200	3.903000	-11.692000	21.056368	0.000937	20.693665
18.002346	-2.988100	3.901900	-11.658000	21.075723	0.000936	20.702120
19.003715	-3.002900	3.900400	-11.710000	21.080987	0.000935	20.693634
20.002603	-2.970300	3.900800	-11.584000	21.070674	0.000934	20.687111
21.005376	-3.013100	3.900700	-11.752000	21.090282	0.000934	20.683015
22.004326	-3.006300	3.898000	-11.718000	21.078031	0.000932	20.692099
23.007243	-3.020700	3.897100	-11.771000	21.077027	0.000933	20.684456
24.002968	-2.995900	3.897200	-11.675000	21.109384	0.000932	20.704969
25.006512	-2.973900	3.896800	-11.587000	21.099798	0.000931	20.704390
26.007681	-3.019500	3.894700	-11.759000	21.113668	0.000931	20.694080
27.005183	-3.001800	3.895300	-11.692000	21.107923	0.000932	20.672685
28.009111	-3.017200	3.893200	-11.745000	21.097094	0.000930	20.693150
29.006636	-2.999000	3.893300	-11.674000	21.123861	0.000929	20.693845
30.008197	-3.031000	3.892100	-11.794000	21.103169	0.000930	20.710607
31.007315	-3.011300	3.890400	-11.714000	21.119434	0.000930	20.696055
32.011845	-2.986300	3.893300	-11.626000	21.134128	0.000930	20.690839
33.008117	-2.995900	3.891400	-11.657000	21.152910	0.000929	20.706308
34.008938	-2.968500	3.892100	-11.551000	21.137833	0.000929	20.704977
35.010232	-3.010800	3.890700	-11.713000	21.148816	0.000928	20.695100
36.010847	-2.981600	3.890900	-11.600000	21.159058	0.000926	20.698233
37.014779	-2.997400	3.888800	-11.655000	21.175722	0.000926	20.695462
38.010225	-3.010800	3.889700	-11.711000	21.184002	0.000927	20.680035
39.009864	-3.004100	3.888300	-11.680000	21.185392	0.000927	20.697075
40.009651	-3.000400	3.887500	-11.663000	21.193401	0.000925	20.691809
41.011919	-2.993700	3.888900	-11.639000	21.175856	0.000925	20.684690
42.010682	-2.980200	3.888300	-11.587000	21.191947	0.000925	20.682294
43.010790	-2.998400	3.887600	-11.655000	21.203193	0.000923	20.703503
44.014707	-3.002000	3.885900	-11.664000	21.207638	0.000924	20.700363
45.009726	-2.993600	3.885900	-11.632000	21.222251	0.000924	20.710240
46.012035	-3.000400	3.884800	-11.655000	21.224596	0.000926	20.709267
47.012094	-2.992500	3.884400	-11.621000	21.212828	0.000924	20.692277
48.013202	-2.997100	3.883900	-11.638000	21.260857	0.000923	20.705713
49.011842	-3.023700	3.883600	-11.741000	21.239788	0.000924	20.689376
50.015825	-3.007900	3.883600	-11.681000	21.251785	0.000922	20.704697
51.015741	-2.994500	3.883600	-11.628000	21.276726	0.000924	20.695983
52.012071	-2.999900	3.883400	-11.649000	21.274732	0.000922	20.714852
53.017682	-3.002000	3.882600	-11.654000	21.260636	0.000922	20.692214
54.013267	-2.987200	3.882200	-11.594000	21.261658	0.000921	20.682330
55.014925	-3.004200	3.881500	-11.659000	21.272590	0.000923	20.715080
56.011044	-3.015200	3.881900	-11.704000	21.300504	0.000921	20.690373
57.013982	-2.995000	3.881800	-11.625000	21.300782	0.000922	20.678321
58.017257	-3.015400	3.881200	-11.703000	21.308955	0.000920	20.701199
59.015078	-3.008300	3.880500	-11.673000	21.308056	0.000922	20.702197
60.013243	-2.995300	3.880800	-11.623000	21.315221	0.000921	20.703675
61.013506	-3.030000	3.878300	-11.751000	21.334604	0.000920	20.709790
62.016629	-3.027100	3.878200	-11.739000	21.335822	0.000919	20.712432
63.014834	-2.997000	3.878700	-11.624000	21.337447	0.000920	20.705523
64.016380	-3.003500	3.878300	-11.646000	21.337268	0.000920	20.697757
65.014186	-3.011200	3.878100	-11.677000	21.360547	0.000920	20.697338
66.017602	-2.985600	3.878300	-11.578000	21.364289	0.000919	20.694444
67.017813	-2.989900	3.877900	-11.593000	21.350570	0.000919	20.714859
68.014378	-3.002100	3.877400	-11.639000	21.369772	0.000920	20.695663
69.017132	-2.967800	3.878900	-11.511000	21.379559	0.000920	20.709249
70.018954	-2.995600	3.876400	-11.609000	21.373571	0.000918	20.718431
71.016750	-2.996700	3.877500	-11.619000	21.386840	0.000921	20.722699
72.017706	-2.997300	3.877000	-11.618000	21.380051	0.000917	20.703577
73.017445	-2.998100	3.875300	-11.618000	21.404449	0.000920	20.697640
74.017905	-2.990300	3.877300	-11.593000	21.407415	0.000919	20.696341
75.020998	-2.997400	3.876700	-11.619000	21.411213	0.000918	20.698719
76.021640	-2.990100	3.875900	-11.588000	21.412407	0.000920	20.706552
77.021762	-3.009900	3.875000	-11.662000	21.412259	0.000920	20.707352
78.018181	-3.016900	3.875300	-11.689000	21.439548	0.000919	20.703836
79.021451	-2.984100	3.875200	-11.563000	21.449303	0.000917	20.695104
80.019291	-2.988300	3.875700	-11.581000	21.442982	0.000918	20.717230
81.019769	-3.006000	3.875600	-11.649000	21.439271	0.000920	20.704982
82.019051	-2.991700	3.874700	-11.591000	21.450374	0.000918	20.714669
83.019567	-3.011900	3.874800	-11.669000	21.452522	0.000919	20.723457
84.020036	-3.017600	3.873600	-11.688000	21.474321	0.000916	20.713025
85.021206	-2.995300	3.873200	-11.601000	21.469157	0.000918	20.716868
86.022445	-3.002900	3.873000	-11.629000	21.475521	0.000918	20.710433
87.022865	-3.017900	3.871200	-11.682000	21.474524	0.000917	20.727928
88.024565	-3.005100	3.872400	-11.634000	21.473699	0.000919	20.710032
89.023180	-2.980800	3.873300	-11.544000	21.496421	0.000919	20.726130
90.025467	-2.980600	3.872800	-11.542000	21.517190	0.000919	20.720359
91.027080	-2.999700	3.871400	-11.612000	21.500089	0.000918	20.691865
92.026916	-3.006200	3.871100	-11.637000	21.532901	0.000918	20.706682
93.026641	-3.006300	3.872000	-11.640000	21.524298	0.000920	20.703763
94.025654	-3.012100	3.871600	-11.659000	21.542083	0.000918	20.725354
95.028946	-3.011300	3.870600	-11.654000	21.541960	0.000918	20.722386
96.030029	-3.013900	3.869300	-11.660000	21.562507	0.000919	20.712600
97.029453	-3.020200	3.870900	-11.688000	21.567597	0.000917	20.715322
98.024522	-3.013600	3.869500	-11.660000	21.567018	0.000920	20.696249
99.024686	-3.009400	3.870000	-11.645000	21.560040	0.000918	20.707760
100.033710	-3.023200	3.869000	-11.696000	21.570057	0.000917	20.725372
101.028619	-3.006200	3.868900	-11.629000	21.593823	0.000918	20.722126
102.028630	-2.973500	3.869800	-11.505000	21.592752	0.000918	20.716313
103.026248	-2.983300	3.868600	-11.540000	21.610056	0.000919	20.723197
104.033117	-2.989100	3.869700	-11.566000	21.600450	0.000920	20.734448
105.024853	-2.983200	3.868500	-11.539000	21.625815	0.000918	20.719053
106.027961	-2.985100	3.868500	-11.547000	21.627685	0.000919	20.712864
107.025844	-3.008300	3.867400	-11.633000	21.625882	0.000918	20.728129
108.027469	-2.978300	3.868900	-11.522000	21.647923	0.000920	20.725530
109.026302	-2.990300	3.868500	-11.567000	21.644841	0.000918	20.740465
110.025299	-2.978300	3.869000	-11.522000	21.670886	0.000921	20.740451
111.027109	-3.000200	3.868400	-11.604000	21.660456	0.000920	20.747083
112.026639	-3.013600	3.865800	-11.648000	21.660308	0.000917	20.722278
113.027093	-2.993000	3.866400	-11.572000	21.700075	0.000920	20.717979
114.030096	-3.012300	3.866500	-11.646000	21.695762	0.000918	20.735949
115.026014	-2.998600	3.867700	-11.597000	21.691916	0.000921	20.726409
116.026190	-3.010400	3.866800	-11.640000	21.715107	0.000919	20.719272
117.025495	-3.019300	3.866000	-11.671000	21.688224	0.000921	20.728878
118.029412	-2.999300	3.866400	-11.596000	21.711131	0.000921	20.726199
119.028209	-3.024000	3.865300	-11.687000	21.698037	0.000920	20.735380
120.030852	-3.025800	3.865000	-11.693000	21.708731	0.000919	20.727116
121.031567	-3.006500	3.864100	-11.616000	21.715634	0.000921	20.729283
122.028640	-2.996400	3.866400	-11.584000	21.716729	0.000920	20.734647
123.031393	-3.011000	3.864700	-11.636000	21.716052	0.000920	20.725908
124.030315	-2.999400	3.865100	-11.592000	21.751332	0.000922	20.731819
125.030468	-3.009500	3.865200	-11.632000	21.761853	0.000922	20.755627
126.030946	-2.995700	3.865300	-11.579000	21.744471	0.000921	20.738704
127.029378	-3.002000	3.864300	-11.599000	21.738779	0.000922	20.733007
128.031326	-2.987100	3.864400	-11.543000	21.731224	0.000922	20.759585
129.030837	-2.997700	3.863700	-11.581000	21.740348	0.000922	20.730784
130.030835	-3.008600	3.862500	-11.620000	21.751982	0.000924	20.735789
131.033341	-2.992700	3.862800	-11.559000	21.760738	0.000923	20.741233
132.033617	-3.020000	3.860600	-11.657000	21.765297	0.000923	20.740580
133.031786	-2.995800	3.862500	-11.570000	21.771627	0.000923	20.741701
134.036262	-2.995900	3.861900	-11.568000	21.789827	0.000923	20.745217
135.030234	-2.987000	3.862400	-11.537000	21.792490	0.000923	20.755470
136.030703	-3.000800	3.862000	-11.588000	21.811163	0.000923	20.772737
137.034234	-3.004100	3.862400	-11.601000	21.815770	0.000924	20.762649
138.037812	-2.967300	3.862600	-11.459000	21.837643	0.000923	20.744237
139.034517	-2.990300	3.862600	-11.549000	21.826396	0.000924	20.759060
140.039011	-3.003600	3.862300	-11.600000	21.841075	0.000924	20.754311
141.034447	-3.010600	3.861700	-11.625000	21.853220	0.000925	20.745130
142.036785	-2.991000	3.862200	-11.551000	21.860374	0.000927	20.758456
143.036273	-2.993600	3.860900	-11.558000	21.868649	0.000925	20.764367
144.034585	-2.988200	3.860900	-11.536000	21.876628	0.000924	20.751965
145.037205	-2.986400	3.860800	-11.528000	21.898689	0.000926	20.767883
146.037632	-3.004600	3.861000	-11.599000	21.910015	0.000927	20.776376
147.037162	-3.021200	3.859300	-11.659000	21.925339	0.000925	20.745246
148.035926	-3.024200	3.860000	-11.672000	21.932647	0.000927	20.748295
149.035771	-2.991100	3.860500	-11.546000	21.933914	0.000926	20.754779
150.036029	-2.997300	3.860600	-11.570000	21.949602	0.000928	20.755783
151.037283	-3.001500	3.859800	-11.584000	21.962465	0.000927	20.751115
152.037880	-2.998600	3.857800	-11.566000	21.969040	0.000928	20.760068
153.037098	-2.983200	3.859000	-11.511000	21.948956	0.000927	20.745653
154.036215	-2.995800	3.858500	-11.558000	21.951995	0.000926	20.755333
155.041951	-3.002700	3.858200	-11.584000	21.941819	0.000928	20.765063
156.035931	-2.996200	3.858400	-11.560000	21.954461	0.000928	20.769183
157.036199	-3.005300	3.858600	-11.595000	21.959475	0.000929	20.770408
158.041020	-2.977200	3.858000	-11.485000	21.943426	0.000928	20.771887
159.038685	-2.992400	3.858300	-11.545000	21.924921	0.000930	20.760001
160.040710	-2.988800	3.857700	-11.528000	21.937865	0.000931	20.775329
161.041627	-3.021300	3.854900	-11.646000	21.950556	0.000929	20.761480
162.039587	-2.993700	3.856000	-11.543000	21.966956	0.000930	20.758456
163.042665	-2.975500	3.857700	-11.478000	21.973089	0.000930	20.763647
164.040323	-2.950500	3.856900	-11.379000	21.997302	0.000931	20.768919
165.039557	-3.011700	3.853900	-11.605000	21.989944	0.000932	20.764873
166.042274	-2.998900	3.855800	-11.562000	21.996631	0.000929	20.779628
167.041059	-2.978300	3.857400	-11.486000	22.021384	0.000932	20.765526
168.041643	-2.983900	3.855000	-11.502000	22.026275	0.000932	20.762835
169.041491	-2.996800	3.854800	-11.549000	22.000698	0.000930	20.767103
170.042470	-3.017900	3.854700	-11.633000	22.019170	0.000934	20.763783
171.044098	-3.003300	3.854900	-11.577000	22.023759	0.000933	20.775490
172.044268	-3.003800	3.855300	-11.579000	22.045393	0.000935	20.766326
173.042915	-3.013300	3.854300	-11.614000	22.023433	0.000932	20.773741
174.046291	-3.008800	3.854500	-11.597000	22.053999	0.000935	20.773045
175.045212	-2.982100	3.854600	-11.493000	22.065538	0.000935	20.773692
176.044285	-3.015500	3.853300	-11.618000	22.073572	0.000935	20.771777
177.045808	-2.995000	3.854800	-11.544000	22.044705	0.000935	20.777492
178.041939	-3.002300	3.852900	-11.566000	22.033116	0.000934	20.798607
179.052446	-2.992300	3.853800	-11.531000	22.080357	0.000936	20.764345
180.045790	-2.998100	3.853200	-11.551000	22.066776	0.000936	20.764499
181.049412	-2.980000	3.853800	-11.482000	22.075620	0.000937	20.777621
182.053735	-3.022200	3.852500	-11.641000	22.075946	0.000935	20.768939
183.047563	-3.001200	3.852500	-11.561000	22.083752	0.000938	20.766796
184.049395	-2.993700	3.853600	-11.535000	22.092106	0.000936	20.776581
185.047506	-2.970100	3.854300	-11.447000	22.107384	0.000939	20.792352
186.048546	-3.005700	3.852200	-11.577000	22.114562	0.000938	20.777727
187.052302	-2.988800	3.851200	-11.509000	22.110829	0.000939	20.781102
188.052416	-2.989400	3.852700	-11.516000	22.123438	0.000939	20.800363
189.049715	-3.004100	3.851300	-11.568000	22.137056	0.000940	20.785074
190.049423	-2.997400	3.851900	-11.545000	22.144430	0.000939	20.792457
191.047851	-2.997300	3.850400	-11.539000	22.163202	0.000940	20.802242
192.049422	-2.985700	3.851100	-11.498000	22.163700	0.000940	20.782352
193.048748	-2.996400	3.851700	-11.540000	22.177189	0.000941	20.795856
194.054643	-2.999400	3.852300	-11.553000	22.198752	0.000940	20.793264
195.050093	-2.998300	3.851100	-11.546000	22.209325	0.000941	20.791996
196.054600	-2.987100	3.851900	-11.504000	22.210672	0.000942	20.777223
197.052749	-3.002500	3.849800	-11.558000	22.191876	0.000944	20.795389
198.050381	-2.997700	3.850600	-11.541000	22.208003	0.000944	20.789724
199.050683	-2.984700	3.849600	-11.489000	22.207641	0.000944	20.797896
200.049726	-3.005500	3.848500	-11.566000	22.217099	0.000943	20.790771
201.052124	-3.008000	3.849600	-11.578000	22.204824	0.000942	20.775161
202.049867	-3.002700	3.848400	-11.554000	22.209633	0.000945	20.811271
203.053546	-3.008900	3.847900	-11.575000	22.219031	0.000943	20.797447
204.050151	-3.001500	3.848500	-11.551000	22.233466	0.000945	20.810477
205.050889	-2.963400	3.850500	-11.409000	22.231596	0.000945	20.782052
206.051948	-3.013900	3.847300	-11.595000	22.234160	0.000946	20.786042
207.052446	-3.007200	3.846900	-11.567000	22.251959	0.000946	20.790587
208.057659	-2.990700	3.849200	-11.511000	22.251191	0.000947	20.820164
209.052600	-2.997700	3.848100	-11.535000	22.276264	0.000948	20.784103
210.052644	-2.992100	3.847700	-11.512000	22.278330	0.000948	20.797552
211.052158	-2.993600	3.847500	-11.518000	22.276117	0.000948	20.784904
212.052540	-2.979000	3.847300	-11.461000	22.286633	0.000950	20.797331
213.051919	-3.002700	3.845500	-11.545000	22.278779	0.000951	20.796105
214.052448	-3.001500	3.846500	-11.545000	22.294364	0.000948	20.792743
215.055765	-2.997700	3.846900	-11.531000	22.281726	0.000951	20.806641
216.054591	-2.993300	3.846100	-11.511000	22.264026	0.000948	20.779910
217.052471	-2.979800	3.847100	-11.462000	22.274019	0.000951	20.803667
218.053878	-2.986400	3.847000	-11.488000	22.291516	0.000951	20.805065
219.055684	-2.995000	3.845700	-11.515000	22.321797	0.000952	20.805988
220.054303	-2.994500	3.844600	-11.512000	22.315715	0.000951	20.809855
221.057221	-3.003600	3.845200	-11.548000	22.336981	0.000953	20.807442
222.056324	-3.014300	3.843800	-11.584000	22.344396	0.000954	20.803962
223.055995	-2.998200	3.845900	-11.529000	22.348591	0.000953	20.816223
224.061157	-3.011600	3.843100	-11.573000	22.364757	0.000955	20.815816
225.057488	-2.976600	3.844700	-11.442000	22.366732	0.000955	20.825379
226.059528	-2.988700	3.844600	-11.488000	22.383248	0.000956	20.799719
227.057582	-2.990200	3.844300	-11.494000	22.409445	0.000954	20.809831
228.056653	-2.981300	3.843700	-11.458000	22.391378	0.000956	20.801222
229.058766	-2.995200	3.843600	-11.511000	22.425796	0.000957	20.802497
230.063117	-2.990500	3.843500	-11.493000	22.409568	0.000956	20.804264
231.057995	-2.992400	3.843800	-11.501000	22.430973	0.000956	20.816216
232.059375	-2.985900	3.842500	-11.473000	22.411388	0.000958	20.830742
233.058447	-2.974700	3.842800	-11.430000	22.443388	0.000958	20.822959
234.063923	-3.001900	3.842900	-11.535000	22.415502	0.000958	20.824905
235.061178	-3.003900	3.842200	-11.540000	22.441617	0.000958	20.812177
236.061947	-3.006000	3.842400	-11.549000	22.441045	0.000960	20.815397
237.059466	-2.995400	3.842100	-11.507000	22.451363	0.000959	20.812928
238.060095	-2.973600	3.841600	-11.422000	22.444741	0.000961	20.811987
239.059478	-2.996300	3.840400	-11.505000	22.451363	0.000962	20.829997
240.061569	-2.992000	3.841300	-11.492000	22.450423	0.000960	20.813409
241.060562	-3.017600	3.841900	-11.591000	22.459117	0.000960	20.809788
242.063062	-3.002200	3.840000	-11.528000	22.447035	0.000963	20.836568
243.062131	-2.987300	3.840700	-11.471000	22.456455	0.000963	20.827511
244.061794	-2.997700	3.840100	-11.511000	22.470684	0.000963	20.834173
245.066010	-3.005300	3.839900	-11.538000	22.488633	0.000964	20.824174
246.061572	-3.008900	3.839800	-11.552000	22.480086	0.000964	20.807080
247.063883	-3.007800	3.838900	-11.545000	22.487342	0.000964	20.827623
248.061881	-2.997300	3.839100	-11.504000	22.500943	0.000966	20.836501
249.062517	-2.996500	3.838800	-11.502000	22.505315	0.000966	20.811958
250.063474	-3.024600	3.838100	-11.608000	22.498410	0.000966	20.820215
251.061930	-3.001800	3.837900	-11.520000	22.504933	0.000963	20.831489
252.069423	-2.977500	3.839600	-11.432000	22.503225	0.000966	20.840684
253.060953	-3.006700	3.839000	-11.542000	22.517625	0.000968	20.838510
254.064665	-3.005500	3.838100	-11.533000	22.504572	0.000967	20.832550
255.063783	-2.998100	3.837600	-11.503000	22.509061	0.000967	20.809071
256.066600	-2.956100	3.839400	-11.349000	22.513346	0.000968	20.847501
257.061173	-3.014200	3.836300	-11.562000	22.524414	0.000969	20.854317
258.064613	-2.994400	3.836000	-11.485000	22.522342	0.000970	20.827113
259.063633	-3.000900	3.837800	-11.515000	22.537695	0.000969	20.830161
260.065365	-2.990100	3.835900	-11.469000	22.555120	0.000970	20.841449
261.066747	-2.982400	3.838300	-11.445000	22.542860	0.000971	20.835808
262.065876	-2.977200	3.837700	-11.425000	22.549734	0.000971	20.837477
263.067104	-3.003300	3.834600	-11.516000	22.563838	0.000971	20.836430
264.064209	-3.013100	3.834900	-11.554000	22.577746	0.000973	20.841825
265.066520	-3.002100	3.836300	-11.515000	22.593958	0.000972	20.847156
266.071359	-2.997000	3.836100	-11.496000	22.602511	0.000973	20.832964
267.066657	-3.006700	3.835700	-11.532000	22.590700	0.000973	20.853376
268.067263	-3.004900	3.835800	-11.525000	22.574303	0.000973	20.849755
269.066127	-3.009200	3.836000	-11.541000	22.586587	0.000974	20.844515
270.064810	-3.013100	3.834100	-11.552000	22.633755	0.000975	20.818739
271.069772	-2.990400	3.836300	-11.471000	22.594211	0.000975	20.827495
272.068309	-3.005100	3.834500	-11.523000	22.606169	0.000975	20.845636
273.065533	-3.023000	3.833100	-11.585000	22.624803	0.000975	20.818308
274.066677	-3.005300	3.832900	-11.517000	22.622110	0.000976	20.823671
275.073884	-3.020400	3.833600	-11.578000	22.679162	0.000977	20.824391
276.067110	-3.020400	3.832000	-11.573000	22.674600	0.000977	20.828830
277.069502	-3.020800	3.832200	-11.575000	22.668993	0.000976	20.832223
278.067846	-3.015900	3.831400	-11.554000	22.688353	0.000979	20.835493
279.068869	-2.979500	3.832600	-11.418000	22.674944	0.000978	20.827752
280.068955	-2.983800	3.832600	-11.435000	22.676241	0.000981	20.819569
281.068885	-2.978400	3.833200	-11.416000	22.671280	0.000980	20.822186
282.070976	-2.978300	3.834400	-11.420000	22.670480	0.000982	20.832290
283.070307	-2.994600	3.832300	-11.474000	22.666073	0.000983	20.813651
284.068750	-3.000900	3.832200	-11.498000	22.701200	0.000980	20.814224
285.070489	-3.003100	3.833000	-11.510000	22.690681	0.000983	20.826920
286.068479	-2.993900	3.830900	-11.468000	22.694665	0.000983	20.814315
287.072147	-2.993900	3.832600	-11.473000	22.701341	0.000983	20.797769
288.071913	-3.012200	3.832000	-11.541000	22.727222	0.000983	20.824641
289.071903	-3.002500	3.830600	-11.499000	22.703743	0.000984	20.822460
290.072115	-2.994500	3.831600	-11.473000	22.734690	0.000986	20.825010
291.070455	-2.989100	3.831200	-11.450000	22.724971	0.000987	20.807688
292.073992	-3.011200	3.830000	-11.532000	22.729599	0.000986	20.800945
293.069969	-2.987100	3.831900	-11.445000	22.728554	0.000987	20.801795
294.074411	-3.003200	3.829400	-11.499000	22.750248	0.000988	20.818784
295.069766	-2.983700	3.829700	-11.425000	22.757643	0.000988	20.809122
296.073726	-2.995300	3.830600	-11.472000	22.760833	0.000988	20.815163
297.068877	-3.004600	3.829700	-11.505000	22.743713	0.000989	20.795642
298.071510	-2.999600	3.828500	-11.482000	22.749964	0.000989	20.797163
299.069886	-2.985400	3.828900	-11.429000	22.767478	0.000989	20.805697
300.067908	-2.967200	3.828700	-11.360000	22.774578	0.000989	20.795266
301.069966	-3.000100	3.827100	-11.480000	22.779206	0.000989	20.798006
302.069884	-3.004200	3.827900	-11.498000	22.775819	0.000991	20.812631
303.073150	-2.989500	3.827700	-11.442000	22.767576	0.000990	20.797261
304.072986	-2.981300	3.828900	-11.413000	22.749712	0.000989	20.804971
305.071643	-3.008600	3.826900	-11.513000	22.767895	0.000991	20.812754
306.070984	-3.013200	3.826200	-11.528000	22.764656	0.000990	20.798603
307.073519	-3.001600	3.825300	-11.480000	22.773828	0.000992	20.794989
308.072703	-3.004500	3.825800	-11.493000	22.759768	0.000992	20.788017
309.074294	-2.987500	3.827400	-11.432000	22.760347	0.000993	20.802821
310.072635	-2.966600	3.827500	-11.353000	22.760894	0.000994	20.799576
311.073067	-3.004700	3.823700	-11.489000	22.750105	0.000994	20.793036
312.072808	-3.008000	3.824400	-11.502000	22.797298	0.000996	20.790525
313.073433	-3.029000	3.824300	-11.581000	22.768989	0.000996	20.800573
314.075303	-3.009700	3.824700	-11.509000	22.814607	0.000995	20.811184
315.073446	-3.009300	3.825000	-11.510000	22.805239	0.000995	20.779514
316.078555	-3.002400	3.825100	-11.484000	22.830903	0.000996	20.781516
317.080376	-2.987200	3.824600	-11.423000	22.845692	0.000996	20.795856
318.076887	-2.989900	3.824300	-11.433000	22.862467	0.000996	20.786110
319.079670	-3.001500	3.824700	-11.479000	22.877139	0.000999	20.799386
320.077530	-2.995900	3.823900	-11.456000	22.884165	0.000999	20.777027
321.078766	-3.009000	3.824700	-11.507000	22.884558	0.000998	20.778843
322.077143	-3.000000	3.823000	-11.468000	22.902543	0.001000	20.776472
323.079352	-3.000500	3.822800	-11.467000	22.892530	0.001000	20.778295
324.077922	-3.014200	3.823200	-11.522000	22.902918	0.000999	20.787753
325.081698	-2.988000	3.823300	-11.423000	22.909936	0.001000	20.776293
326.078197	-2.991800	3.823000	-11.436000	22.906648	0.001000	20.767308
327.078445	-3.022100	3.820100	-11.543000	22.913077	0.001002	20.797458
328.081930	-2.992800	3.822700	-11.439000	22.896187	0.001001	20.772001
329.082007	-3.001200	3.822000	-11.469000	22.896113	0.001000	20.764815
330.085359	-3.023100	3.821200	-11.551000	22.920176	0.001001	20.788923
331.083147	-3.003000	3.821100	-11.472000	22.908092	0.001001	20.770178
332.083942	-2.983900	3.821100	-11.401000	22.942887	0.001003	20.780381
333.084714	-3.000600	3.820200	-11.461000	22.939998	0.001003	20.773220
334.085197	-2.970700	3.820600	-11.348000	22.940927	0.001006	20.773676
335.084262	-3.001500	3.819400	-11.463000	22.959777	0.001004	20.776915
336.083542	-2.981800	3.820700	-11.391000	22.911805	0.001005	20.771053
337.082119	-2.988700	3.819800	-11.416000	22.915062	0.001006	20.779057
338.083112	-3.010200	3.818500	-11.493000	22.921971	0.001006	20.778867
339.085109	-3.007700	3.818500	-11.484000	22.918382	0.001006	20.760572
340.084397	-2.998900	3.818800	-11.451000	22.909782	0.001007	20.787044
341.089513	-2.987400	3.819200	-11.408000	22.898921	0.001008	20.772844
342.085143	-3.009600	3.817100	-11.487000	22.908461	0.001007	20.771021
343.084440	-3.002400	3.817300	-11.461000	22.888380	0.001007	20.767973
344.084388	-3.006500	3.817300	-11.476000	22.912622	0.001008	20.772345
345.084875	-3.002800	3.817300	-11.462000	22.942315	0.001010	20.771274
346.086940	-2.994800	3.818600	-11.435000	22.921319	0.001008	20.754032
347.083453	-2.996400	3.817400	-11.436000	22.929439	0.001011	20.756002
348.086341	-2.999200	3.816700	-11.446000	22.903907	0.001010	20.763614
349.084523	-3.023800	3.815000	-11.533000	22.918406	0.001012	20.764864
350.089441	-2.986500	3.816400	-11.396000	22.913600	0.001011	20.736340
351.090554	-2.991700	3.817000	-11.417000	22.913102	0.001010	20.775671
352.092123	-3.017600	3.816400	-11.515000	22.934564	0.001012	20.757818
353.088714	-2.992200	3.817400	-11.421000	22.952457	0.001016	20.761046
354.091628	-2.991200	3.817000	-11.417000	22.981055	0.001015	20.769784
355.089204	-3.005700	3.814600	-11.464000	22.962844	0.001013	20.759125
356.089075	-2.993000	3.815800	-11.418000	22.979408	0.001015	20.768608
357.091102	-2.996400	3.816000	-11.433000	22.988301	0.001015	20.760923
358.087716	-2.993200	3.814200	-11.416000	23.001380	0.001013	20.753638
359.093695	-3.001100	3.814300	-11.446000	22.996371	0.001015	20.751464
360.088405	-2.992500	3.814000	-11.412000	22.994201	0.001017	20.749764
361.087013	-2.998300	3.813200	-11.432000	23.031789	0.001016	20.758503
362.094241	-3.021200	3.814200	-11.523000	23.046361	0.001018	20.766939
363.089643	-3.014400	3.812800	-11.492000	23.047756	0.001019	20.762173
364.089774	-3.005500	3.814400	-11.462000	23.058370	0.001019	20.747203
365.089298	-3.007400	3.813500	-11.468000	23.051321	0.001016	20.776651
366.088631	-2.982000	3.812600	-11.367000	23.055808	0.001018	20.748429
367.088870	-2.993000	3.812800	-11.411000	23.053337	0.001018	20.747850
368.090959	-2.978900	3.813700	-11.360000	23.049404	0.001017	20.743435
369.089067	-2.990200	3.812300	-11.399000	23.048906	0.001018	20.769489
370.088424	-3.033100	3.809700	-11.553000	23.066986	0.001018	20.759156
371.088830	-3.008300	3.811400	-11.466000	23.042337	0.001019	20.731611
372.089512	-2.992000	3.811700	-11.404000	23.068837	0.001020	20.738724
373.091660	-3.004600	3.809900	-11.446000	23.074718	0.001019	20.740824
374.088600	-2.977900	3.811800	-11.350000	23.083930	0.001020	20.744365
375.089959	-3.004900	3.809400	-11.445000	23.105396	0.001022	20.738847
376.091117	-3.000200	3.810500	-11.431000	23.133142	0.001020	20.754797
377.090986	-2.998500	3.809600	-11.421000	23.111922	0.001021	20.726420
378.094266	-2.999100	3.810600	-11.427000	23.124176	0.001022	20.747235
379.094030	-2.978300	3.810400	-11.347000	23.120212	0.001021	20.751323
380.090569	-2.988800	3.809300	-11.384000	23.127832	0.001021	20.744260
381.091002	-2.983400	3.809500	-11.364000	23.137702	0.001022	20.731390
382.092581	-2.984300	3.809100	-11.366000	23.133037	0.001023	20.730035
383.098867	-2.977800	3.808600	-11.340000	23.124895	0.001023	20.755067
384.095712	-2.992400	3.809500	-11.397000	23.121926	0.001023	20.742135
385.093471	-3.009900	3.806400	-11.455000	23.116549	0.001025	20.747179
386.098277	-3.001500	3.808500	-11.431000	23.073790	0.001025	20.748903
387.092849	-3.019300	3.804500	-11.486000	23.101235	0.001025	20.738946
388.093469	-3.007600	3.806700	-11.448000	23.100787	0.001026	20.747031
389.096083	-3.013200	3.806600	-11.469000	23.131144	0.001027	20.749476
390.094857	-2.999200	3.807800	-11.418000	23.110416	0.001026	20.746248
391.091810	-2.993400	3.805800	-11.392000	23.127205	0.001027	20.751218
392.092185	-2.992600	3.805300	-11.386000	23.129669	0.001028	20.715753
393.095647	-2.991400	3.806600	-11.385000	23.122596	0.001029	20.730952
394.098015	-3.006900	3.805800	-11.443000	23.117710	0.001027	20.726055
395.094333	-3.005500	3.804200	-11.432000	23.116284	0.001028	20.730316
396.092007	-2.995200	3.805400	-11.397000	23.131579	0.001028	20.741377
397.092170	-2.996800	3.804700	-11.402000	23.126276	0.001029	20.739856
398.090870	-2.991800	3.803200	-11.378000	23.149283	0.001029	20.730667
399.092331	-2.998800	3.802900	-11.403000	23.159957	0.001029	20.712438
400.099202	-2.998400	3.805500	-11.408000	23.185367	0.001031	20.746912
401.093470	-2.979800	3.805400	-11.336000	23.171270	0.001030	20.729466
402.094042	-2.966200	3.806500	-11.288000	23.217461	0.001029	20.716484
403.095885	-2.986900	3.803300	-11.359000	23.218579	0.001030	20.729460
404.096224	-3.000100	3.803300	-11.409000	23.224257	0.001032	20.722347
405.098808	-2.996900	3.802700	-11.394000	23.214394	0.001032	20.733327
406.096851	-2.966900	3.803600	-11.284000	23.225522	0.001033	20.725038
407.099664	-2.991400	3.802200	-11.372000	23.210935	0.001033	20.736024
408.095883	-3.011500	3.802800	-11.452000	23.213473	0.001032	20.740938
409.095819	-3.029500	3.800700	-11.511000	23.231378	0.001032	20.720000
410.100595	-2.994700	3.801700	-11.384000	23.240386	0.001032	20.729976
411.097496	-3.017700	3.799200	-11.464000	23.246291	0.001032	20.725937
412.097239	-3.025700	3.799000	-11.493000	23.253462	0.001033	20.737391
413.095854	-2.991800	3.800600	-11.369000	23.255943	0.001032	20.738455
414.101488	-3.001600	3.800100	-11.405000	23.222750	0.001035	20.743598
415.097869	-3.010800	3.799100	-11.437000	23.244091	0.001034	20.726576
416.101078	-3.005600	3.799300	-11.417000	23.225687	0.001035	20.740377
417.098129	-2.996700	3.799100	-11.383000	23.208759	0.001036	20.736214
418.097826	-2.978300	3.798800	-11.312000	23.204304	0.001036	20.731276
419.097986	-3.006600	3.797200	-11.416000	23.230664	0.001036	20.723078
420.099192	-2.980500	3.800500	-11.326000	23.255028	0.001037	20.719045
421.099125	-2.993300	3.798300	-11.369000	23.263243	0.001036	20.726330
422.096389	-2.999000	3.799000	-11.390000	23.297953	0.001039	20.722709
423.102822	-2.995400	3.797100	-11.372000	23.287274	0.001038	20.712955
424.098362	-2.992700	3.798000	-11.366000	23.294543	0.001038	20.740630
425.100749	-2.991000	3.797600	-11.357000	23.297080	0.001038	20.702393
426.101369	-3.007500	3.796500	-11.417000	23.285670	0.001038	20.710398
427.102912	-3.008900	3.795300	-11.418000	23.299096	0.001037	20.712474
428.099477	-3.004900	3.797900	-11.411000	23.276330	0.001039	20.724273
429.100300	-3.026000	3.794700	-11.481000	23.314831	0.001039	20.724926
430.101260	-2.989400	3.795300	-11.344000	23.288379	0.001039	20.723071
431.101118	-2.997100	3.796200	-11.377000	23.293054	0.001040	20.713058
432.103103	-3.008700	3.795100	-11.417000	23.265189	0.001038	20.698881
433.101814	-3.008400	3.794300	-11.414000	23.259487	0.001039	20.722566
434.102250	-2.981800	3.795600	-11.317000	23.266185	0.001041	20.707466
435.103213	-3.010000	3.794600	-11.420000	23.260672	0.001042	20.697673
436.103378	-3.008400	3.794900	-11.416000	23.287370	0.001040	20.709257
437.105634	-3.012400	3.793100	-11.425000	23.282566	0.001041	20.715348
438.105679	-3.018500	3.791600	-11.443000	23.297453	0.001041	20.707508
439.106942	-3.008200	3.793000	-11.409000	23.321354	0.001041	20.703487
440.110702	-2.981300	3.792400	-11.305000	23.285969	0.001042	20.711172
441.107470	-2.982800	3.793500	-11.313000	23.286516	0.001042	20.719307
442.112980	-3.005300	3.793100	-11.398000	23.325440	0.001042	20.683872
443.109239	-2.995100	3.793300	-11.361000	23.340818	0.001044	20.721099
444.114690	-3.002100	3.791200	-11.381000	23.324462	0.001042	20.689531
445.109264	-2.995700	3.790800	-11.355000	23.346992	0.001045	20.702630
446.108763	-2.994000	3.790900	-11.347000	23.356307	0.001045	20.715760
447.111441	-2.987300	3.791100	-11.324000	23.385582	0.001044	20.705271
448.110909	-2.969000	3.791600	-11.257000	23.359759	0.001044	20.699778
449.110098	-2.982900	3.790500	-11.306000	23.401390	0.001042	20.713055
450.111214	-2.989300	3.791500	-11.334000	23.386872	0.001045	20.705616
451.109932	-3.016400	3.789100	-11.428000	23.390982	0.001043	20.702623
452.109282	-3.004000	3.790100	-11.384000	23.383683	0.001044	20.711429
453.109893	-3.007900	3.791100	-11.402000	23.397027	0.001043	20.707260
454.108484	-2.999200	3.788800	-11.361000	23.416503	0.001047	20.699753
455.116940	-2.985400	3.789600	-11.312000	23.438860	0.001046	20.690867
456.110607	-3.026800	3.787400	-11.463000	23.429472	0.001047	20.720340
457.111208	-3.006000	3.788300	-11.387000	23.409702	0.001047	20.694358
458.112511	-2.992600	3.788200	-11.336000	23.410704	0.001047	20.700105
459.113629	-3.001400	3.786500	-11.363000	23.402207	0.001047	20.714822
460.113972	-3.007100	3.785900	-11.383000	23.379296	0.001045	20.686167
461.113342	-3.001000	3.787700	-11.365000	23.356140	0.001045	20.697098
462.112993	-3.000800	3.786900	-11.361000	23.351465	0.001047	20.690041
463.121123	-2.998800	3.786800	-11.355000	23.370689	0.001048	20.687972
464.113270	-2.989500	3.786100	-11.318000	23.395006	0.001048	20.693853
465.114691	-3.021000	3.785200	-11.434000	23.388106	0.001048	20.704956
466.113276	-3.015400	3.785700	-11.414000	23.403153	0.001049	20.699648
467.113619	-2.995400	3.785600	-11.338000	23.410470	0.001048	20.691334
468.112774	-3.010100	3.786500	-11.396000	23.424864	0.001048	20.698651
469.113794	-2.983000	3.784800	-11.289000	23.444548	0.001049	20.692775
470.113915	-3.012100	3.784300	-11.397000	23.441586	0.001050	20.686961
471.113663	-3.020900	3.783500	-11.429000	23.416865	0.001048	20.683045
472.113111	-3.013500	3.784500	-11.403000	23.394004	0.001049	20.700910
473.113123	-2.987000	3.785600	-11.306000	23.374730	0.001049	20.698188
474.115942	-2.983500	3.783900	-11.288000	23.369324	0.001052	20.697984
475.113431	-2.999700	3.784300	-11.351000	23.380278	0.001051	20.677668
476.114212	-2.969700	3.784900	-11.239000	23.385899	0.001050	20.690889
477.113354	-3.006200	3.782100	-11.369000	23.406893	0.001052	20.696284
478.113566	-2.992600	3.782800	-11.319000	23.379879	0.001051	20.707141
479.121337	-2.992200	3.781800	-11.314000	23.412864	0.001051	20.693734
480.114819	-3.000400	3.782100	-11.346000	23.385297	0.001051	20.692656
481.113429	-2.996000	3.781200	-11.328000	23.396202	0.001052	20.699794
482.115630	-3.001100	3.780900	-11.346000	23.435589	0.001054	20.696597
483.114305	-2.996300	3.781600	-11.330000	23.448238	0.001052	20.685568
484.123470	-3.002800	3.780600	-11.351000	23.459928	0.001053	20.688277
485.117823	-2.996900	3.781000	-11.331000	23.484004	0.001054	20.684908
486.118250	-2.984900	3.781400	-11.287000	23.496604	0.001053	20.689952
487.119759	-2.991000	3.781200	-11.309000	23.509688	0.001053	20.702120
488.122023	-3.031200	3.779400	-11.455000	23.526065	0.001054	20.699570
489.118950	-2.993400	3.778200	-11.308000	23.552880	0.001054	20.702268
490.118641	-2.994900	3.779800	-11.320000	23.541374	0.001055	20.688836
491.120143	-3.032200	3.776300	-11.449000	23.539328	0.001054	20.689156
492.119538	-3.009400	3.779100	-11.371000	23.551896	0.001054	20.690375
493.123084	-3.006200	3.777500	-11.355000	23.530456	0.001054	20.699230
494.119236	-2.984400	3.777800	-11.273000	23.527114	0.001054	20.716270
495.120988	-3.019000	3.776500	-11.399000	23.553897	0.001055	20.700443
496.121418	-2.998400	3.776300	-11.321000	23.566423	0.001056	20.698300
497.124683	-3.009900	3.776800	-11.366000	23.554283	0.001054	20.682336
498.124660	-3.010500	3.774700	-11.363000	23.546088	0.001055	20.700676
499.121690	-3.004900	3.776100	-11.346000	23.566876	0.001056	20.703022
500.125092	-3.014400	3.775000	-11.378000	23.581139	0.001056	20.701199
501.120846	-3.007400	3.774100	-11.348000	23.598104	0.001057	20.694972
502.127926	-3.000300	3.775300	-11.326000	23.611649	0.001057	20.664451
503.126361	-3.015700	3.775900	-11.386000	23.601955	0.001058	20.678442
504.123933	-3.022300	3.774000	-11.405000	23.616642	0.001056	20.716877
505.127442	-3.000400	3.774700	-11.324000	23.626568	0.001055	20.684625
506.125005	-3.010000	3.773300	-11.357000	23.626113	0.001057	20.678004
507.124443	-2.999700	3.773300	-11.318000	23.652673	0.001056	20.715065
508.127848	-2.989900	3.773000	-11.281000	23.655357	0.001057	20.687882
509.122630	-3.008400	3.772900	-11.350000	23.680963	0.001057	20.712133
510.123235	-2.978200	3.774000	-11.239000	23.698929	0.001057	20.681304
511.123757	-3.019100	3.772800	-11.389000	23.690342	0.001058	20.697353
512.122107	-3.001800	3.771600	-11.319000	23.702012	0.001057	20.715692
513.124086	-3.006400	3.772000	-11.339000	23.723294	0.001058	20.698621
514.126813	-3.006000	3.771600	-11.336000	23.725750	0.001058	20.699187
515.121199	-2.992800	3.772900	-11.290000	23.700285	0.001057	20.698312
516.123085	-2.996500	3.771300	-11.299000	23.686146	0.001058	20.693620
517.125213	-3.014000	3.770400	-11.363000	23.676477	0.001058	20.706213
518.124349	-2.984800	3.769900	-11.251000	23.684038	0.001057	20.695774
519.128135	-2.983000	3.771500	-11.249000	23.718482	0.001058	20.705177
520.125497	-3.004700	3.768900	-11.324000	23.737283	0.001057	20.703638
521.126329	-3.007200	3.769400	-11.334000	23.704375	0.001059	20.691980
522.129517	-2.997300	3.770100	-11.299000	23.687987	0.001060	20.691672
523.126960	-3.021600	3.768300	-11.385000	23.680186	0.001060	20.716569
524.129565	-2.981500	3.768400	-11.234000	23.683748	0.001057	20.715874
525.129466	-3.003000	3.767400	-11.313000	23.663829	0.001059	20.679305
526.130538	-2.974000	3.768700	-11.206000	23.704029	0.001059	20.709653
527.133036	-2.987200	3.767900	-11.255000	23.643190	0.001059	20.706032
528.130907	-3.000800	3.766900	-11.303000	23.641968	0.001060	20.695797
529.134442	-3.020100	3.766000	-11.372000	23.620801	0.001059	20.717252
530.133099	-2.998400	3.768200	-11.297000	23.605063	0.001060	20.707639
531.135727	-2.993900	3.766800	-11.276000	23.611482	0.001058	20.717867
532.132854	-3.031900	3.766300	-11.418000	23.642323	0.001059	20.710379
533.133030	-3.025300	3.764200	-11.387000	23.626961	0.001059	20.694502
534.132645	-2.999100	3.765900	-11.293000	23.626610	0.001060	20.722128
535.135546	-3.026100	3.764700	-11.391000	23.627003	0.001061	20.726316
536.134214	-3.018900	3.764900	-11.365000	23.673967	0.001059	20.733095
537.135648	-3.000900	3.765000	-11.298000	23.683573	0.001059	20.722811
538.133140	-3.005100	3.763700	-11.309000	23.698732	0.001060	20.735164
539.133007	-3.031200	3.762700	-11.404000	23.717306	0.001060	20.723914
540.132583	-3.011400	3.764900	-11.337000	23.707908	0.001059	20.712120
541.136918	-3.003700	3.763300	-11.303000	23.670945	0.001059	20.705881
542.133049	-3.027300	3.761400	-11.386000	23.651873	0.001059	20.728962
543.132046	-3.007300	3.762700	-11.315000	23.632628	0.001060	20.731007
544.142631	-2.995800	3.763000	-11.273000	23.615153	0.001061	20.724867
545.136382	-3.021200	3.762700	-11.367000	23.627640	0.001060	20.730748
546.138734	-3.018500	3.760900	-11.351000	23.642278	0.001060	20.750164
547.134531	-2.997900	3.761000	-11.274000	23.634802	0.001060	20.739350
548.134415	-2.999800	3.761800	-11.284000	23.649709	0.001061	20.721103
549.134147	-2.985800	3.761300	-11.229000	23.653265	0.001060	20.703330
550.136322	-3.004800	3.761400	-11.301000	23.672362	0.001061	20.730064
551.136942	-3.004500	3.760300	-11.295000	23.656177	0.001060	20.728062
552.136193	-3.010100	3.760900	-11.319000	23.703570	0.001062	20.736221
553.136236	-2.997400	3.761000	-11.272000	23.719545	0.001060	20.738961
554.135738	-3.013300	3.759800	-11.328000	23.683522	0.001062	20.729872
555.137481	-2.991200	3.759500	-11.245000	23.717573	0.001060	20.736984
556.136600	-3.009700	3.760100	-11.315000	23.706069	0.001060	20.750581
557.141914	-3.008500	3.758300	-11.305000	23.739149	0.001058	20.729219
558.137106	-2.995500	3.760000	-11.262000	23.738621	0.001060	20.741017
559.138644	-3.018900	3.757500	-11.342000	23.761745	0.001061	20.723424
560.145123	-3.020900	3.758400	-11.351000	23.753797	0.001061	20.733948
561.138346	-3.026600	3.756300	-11.368000	23.746304	0.001059	20.753937
562.141095	-3.009100	3.756400	-11.303000	23.766689	0.001059	20.740235
563.140854	-3.001700	3.756000	-11.273000	23.771558	0.001060	20.729944
564.144888	-3.004500	3.756500	-11.286000	23.792397	0.001058	20.726656
565.142842	-2.993300	3.755400	-11.240000	23.810490	0.001059	20.726779
566.140744	-2.986500	3.756300	-11.217000	23.804336	0.001058	20.741946
567.143931	-2.998900	3.756400	-11.264000	23.832415	0.001058	20.745919
568.147750	-3.025900	3.754200	-11.358000	23.856199	0.001061	20.760285
569.142393	-2.983000	3.755000	-11.200000	23.866431	0.001060	20.736878
570.143960	-3.012000	3.754900	-11.308000	23.894035	0.001059	20.744170
571.142619	-3.006100	3.754300	-11.284000	23.892813	0.001060	20.738676
572.142616	-2.984600	3.755500	-11.206000	23.873278	0.001059	20.751806
573.145252	-3.009300	3.754700	-11.297000	23.862697	0.001061	20.751153
574.142386	-2.978700	3.755200	-11.185000	23.846798	0.001061	20.733787
575.143710	-3.020000	3.753800	-11.336000	23.867794	0.001060	20.747254
576.141789	-2.993400	3.752400	-11.232000	23.888078	0.001062	20.748153
577.149182	-2.985600	3.754300	-11.207000	23.909080	0.001061	20.735073
578.144184	-2.979600	3.753300	-11.181000	23.905672	0.001061	20.735449
579.145009	-3.019100	3.751800	-11.325000	23.905966	0.001059	20.734796
580.144917	-3.003900	3.752100	-11.268000	23.888944	0.001060	20.717726
581.143557	-2.999800	3.752400	-11.255000	23.877220	0.001060	20.745801
582.144759	-3.013500	3.752100	-11.306000	23.883146	0.001061	20.729457
583.146783	-2.996400	3.751500	-11.239000	23.888765	0.001061	20.729401
584.144107	-3.003200	3.750900	-11.263000	23.910271	0.001061	20.750019
585.144676	-3.004800	3.749600	-11.266000	23.901115	0.001060	20.752218
586.144990	-2.995100	3.750100	-11.231000	23.931328	0.001061	20.735098
587.148309	-2.984500	3.749900	-11.191000	23.945808	0.001061	20.760525
588.148481	-3.024200	3.750000	-11.339000	23.970573	0.001057	20.759755
589.145641	-2.998300	3.749400	-11.241000	23.972993	0.001061	20.744163
590.151906	-2.975700	3.751100	-11.161000	23.980177	0.001058	20.755635
591.144922	-2.990500	3.749200	-11.211000	23.996603	0.001060	20.760728
592.145923	-3.025200	3.747400	-11.336000	23.995209	0.001060	20.763124
593.147686	-3.007700	3.747600	-11.271000	23.993293	0.001060	20.755038
594.146631	-3.028400	3.746700	-11.346000	23.980951	0.001059	20.759256
595.147713	-3.023100	3.747000	-11.326000	23.997825	0.001060	20.773808
596.145248	-3.019700	3.746500	-11.312000	23.993318	0.001060	20.739889
597.147194	-3.020700	3.746300	-11.315000	24.009872	0.001061	20.753172
598.148544	-3.011100	3.747500	-11.283000	24.021072	0.001060	20.754921
599.147175	-3.007000	3.745600	-11.261000	24.030252	0.001061	20.744212
600.145854	-3.004600	3.746600	-11.256000	24.029306	0.001061	20.743738
601.146564	-2.991000	3.746000	-11.203000	24.045228	0.001061	20.767293
602.146428	-3.013200	3.746000	-11.286000	24.037516	0.001061	20.754816
603.148322	-3.024400	3.744900	-11.323000	24.000465	0.001059	20.762705
604.146819	-3.025700	3.744700	-11.327000	23.994423	0.001061	20.757120
605.144876	-3.022900	3.743200	-11.314000	24.011438	0.001059	20.771813
606.153003	-2.981000	3.745000	-11.163000	24.012636	0.001060	20.766375
607.147918	-3.003100	3.742900	-11.239000	24.024978	0.001058	20.778753
608.149122	-3.002600	3.744200	-11.241000	24.009750	0.001059	20.772490
609.152170	-2.997300	3.744100	-11.222000	24.016842	0.001059	20.755894
610.150155	-2.996000	3.742500	-11.212000	24.026175	0.001060	20.767625
611.152938	-3.008400	3.741700	-11.256000	24.048537	0.001060	20.771086
612.150523	-3.010300	3.742700	-11.264000	24.053216	0.001060	20.776727
613.149576	-3.018700	3.741100	-11.292000	24.043091	0.001059	20.758037
614.153147	-2.983700	3.743500	-11.168000	24.030203	0.001059	20.775932
615.152548	-3.007100	3.741700	-11.250000	23.996056	0.001059	20.759706
616.149746	-3.019800	3.741100	-11.295000	23.957862	0.001059	20.770717
617.150635	-3.012900	3.741600	-11.272000	23.977224	0.001058	20.766899
618.152914	-3.004700	3.741200	-11.240000	23.966570	0.001059	20.768543
619.150349	-3.005200	3.740100	-11.239000	23.977248	0.001058	20.765975
620.153424	-3.006800	3.739400	-11.242000	23.972716	0.001060	20.768543
621.151523	-3.007800	3.740000	-11.249000	23.960773	0.001059	20.754195
622.157787	-2.999200	3.739300	-11.214000	23.924414	0.001059	20.789332
623.152497	-3.006100	3.739500	-11.241000	23.947607	0.001059	20.771813
624.157216	-3.014100	3.739100	-11.269000	23.947755	0.001059	20.784763
625.156955	-2.993900	3.739100	-11.194000	23.961491	0.001060	20.783839
626.153971	-2.987400	3.737700	-11.164000	23.977101	0.001059	20.762034
627.153331	-2.976800	3.738900	-11.128000	23.983339	0.001057	20.794843
628.153175	-3.005700	3.738400	-11.235000	24.019003	0.001057	20.777977
629.152258	-2.990100	3.738500	-11.176000	24.048033	0.001057	20.765839
630.156510	-2.992200	3.737400	-11.182000	24.052712	0.001059	20.796136
631.156103	-2.979500	3.736200	-11.131000	24.065607	0.001058	20.768764
632.156969	-3.010000	3.735400	-11.243000	24.062377	0.001058	20.784492
633.154919	-3.009300	3.735200	-11.239000	24.069984	0.001058	20.774103
634.155540	-2.994800	3.735900	-11.187000	24.038160	0.001058	20.762575
635.154352	-2.987200	3.736100	-11.159000	24.057447	0.001058	20.782392
636.157994	-3.035900	3.734300	-11.336000	24.030172	0.001057	20.783014
637.160667	-2.991500	3.735400	-11.173000	24.045074	0.001057	20.784682
638.160539	-3.026900	3.734400	-11.302000	24.029675	0.001056	20.794843
639.158682	-3.021600	3.733600	-11.280000	24.025468	0.001055	20.782090
640.159168	-3.004500	3.734300	-11.218000	24.009239	0.001055	20.775298
641.158451	-3.018000	3.733000	-11.265000	24.007176	0.001058	20.789824
642.156166	-3.011500	3.734200	-11.244000	24.028533	0.001058	20.778051
643.157479	-3.016800	3.732600	-11.260000	24.029748	0.001057	20.787805
644.157125	-3.033600	3.731500	-11.319000	24.038627	0.001059	20.782010
645.156556	-2.968700	3.734000	-11.085000	24.058662	0.001056	20.807319
646.158125	-2.991500	3.731100	-11.160000	24.095606	0.001056	20.786049
647.158822	-3.002800	3.731000	-11.202000	24.112706	0.001056	20.787552
648.158020	-2.988900	3.732400	-11.155000	24.146615	0.001055	20.795483
649.161916	-3.023900	3.731300	-11.281000	24.141390	0.001056	20.805890
650.158513	-2.991500	3.732000	-11.163000	24.108893	0.001055	20.794633
651.158384	-3.005400	3.731400	-11.213000	24.108192	0.001057	20.790612
652.164552	-3.024100	3.729200	-11.277000	24.108536	0.001056	20.783844
653.156979	-3.014400	3.729200	-11.240000	24.100978	0.001056	20.805662
654.157984	-3.014800	3.729300	-11.241000	24.136803	0.001056	20.797022
655.159418	-3.004900	3.730600	-11.209000	24.128644	0.001055	20.804485
656.158797	-3.006600	3.729200	-11.211000	24.113540	0.001056	20.809252
657.157720	-2.978400	3.729900	-11.108000	24.123210	0.001056	20.809467
658.161860	-3.002300	3.728600	-11.194000	24.120895	0.001055	20.813783
659.160350	-2.976400	3.730300	-11.102000	24.111716	0.001054	20.822121
660.161730	-3.023700	3.727000	-11.268000	24.104919	0.001055	20.797286
661.160069	-2.983900	3.728700	-11.125000	24.128729	0.001055	20.797459
662.160291	-3.003500	3.726500	-11.192000	24.092124	0.001054	20.813851
663.163571	-3.003400	3.727200	-11.193000	24.057218	0.001054	20.812509
664.158988	-3.011500	3.726700	-11.222000	24.067963	0.001052	20.808112
665.167520	-2.981400	3.728200	-11.114000	24.087218	0.001053	20.789490
666.160124	-2.987800	3.727200	-11.134000	24.098522	0.001053	20.814103
667.162671	-2.995000	3.726100	-11.159000	24.116308	0.001054	20.812028
668.170858	-3.010200	3.724200	-11.208000	24.154619	0.001054	20.797822
669.168370	-2.995300	3.726100	-11.159000	24.178883	0.001053	20.806036
670.161241	-2.983300	3.725600	-11.113000	24.155970	0.001052	20.802970
671.161714	-2.992000	3.724800	-11.144000	24.135888	0.001053	20.820285
672.163040	-2.997300	3.725100	-11.164000	24.172062	0.001055	20.815316
673.165535	-3.004500	3.724000	-11.188000	24.170514	0.001054	20.805229
674.163073	-3.007300	3.723300	-11.195000	24.152458	0.001055	20.837379
675.162522	-2.976700	3.724400	-11.085000	24.167132	0.001053	20.817009
676.165114	-3.001200	3.722800	-11.172000	24.162324	0.001052	20.817877
677.163315	-2.989100	3.723800	-11.130000	24.164019	0.001054	20.813413
678.166087	-2.984200	3.722400	-11.107000	24.193752	0.001053	20.813838
679.165806	-2.979100	3.723800	-11.093000	24.194249	0.001053	20.826190
680.168394	-2.981600	3.723500	-11.101000	24.208627	0.001051	20.822594
681.165849	-2.992200	3.721700	-11.135000	24.226247	0.001052	20.818456
682.166842	-2.982800	3.722700	-11.103000	24.249760	0.001051	20.837773
683.168239	-2.998000	3.722600	-11.159000	24.233909	0.001049	20.821399
684.168203	-2.979500	3.722000	-11.089000	24.236272	0.001050	20.826141
685.167028	-2.968100	3.721900	-11.046000	24.272523	0.001053	20.836898
686.166263	-2.994800	3.721500	-11.144000	24.267071	0.001050	20.831430
687.167015	-3.014100	3.720100	-11.212000	24.248065	0.001051	20.838444
688.167464	-3.014100	3.719600	-11.210000	24.247764	0.001051	20.843358
689.170518	-2.992800	3.720300	-11.133000	24.241619	0.001052	20.836720
690.170744	-2.986900	3.721400	-11.115000	24.236665	0.001050	20.828905
691.174179	-3.007300	3.719600	-11.185000	24.242638	0.001050	20.848173
692.168615	-3.024900	3.717600	-11.244000	24.250251	0.001053	20.821670
693.168627	-2.998300	3.718500	-11.147000	24.267691	0.001051	20.849121
694.172375	-3.008500	3.718300	-11.186000	24.268637	0.001051	20.850069
695.168670	-2.996500	3.718500	-11.141000	24.242730	0.001050	20.832618
696.169290	-3.015800	3.716500	-11.207000	24.232312	0.001049	20.846350
697.169544	-2.998700	3.718300	-11.149000	24.251939	0.001050	20.843277
698.172166	-3.008900	3.715700	-11.179000	24.265678	0.001050	20.822920
699.175907	-2.986200	3.717400	-11.099000	24.270202	0.001050	20.840260
700.174700	-2.986600	3.717100	-11.101000	24.273665	0.001049	20.840888
701.171413	-2.966800	3.717900	-11.030000	24.268109	0.001051	20.838634
702.172103	-2.983000	3.715600	-11.083000	24.273241	0.001049	20.847576
703.172509	-2.984100	3.717400	-11.092000	24.312596	0.001048	20.857181
704.176768	-2.994800	3.715200	-11.125000	24.296519	0.001047	20.856227
705.176051	-2.986400	3.715600	-11.095000	24.334511	0.001049	20.829380
706.174449	-2.994300	3.715200	-11.124000	24.303812	0.001049	20.848844
707.174236	-3.008600	3.714800	-11.174000	24.320006	0.001049	20.851338
708.173113	-3.011000	3.714200	-11.183000	24.280380	0.001048	20.851418
709.175766	-3.000400	3.713500	-11.141000	24.297170	0.001048	20.869207
710.175907	-2.991800	3.713300	-11.108000	24.295580	0.001049	20.853862
711.177026	-2.995800	3.712500	-11.121000	24.278588	0.001045	20.853887
712.177073	-2.995300	3.712100	-11.118000	24.300202	0.001049	20.844275
713.173514	-2.993100	3.713000	-11.112000	24.307722	0.001047	20.855137
714.175776	-2.957500	3.714200	-10.984000	24.305752	0.001048	20.863591
715.176124	-2.986300	3.712600	-11.085000	24.328366	0.001047	20.837914
716.179038	-2.988300	3.713100	-11.094000	24.297894	0.001044	20.842908
717.176415	-3.001500	3.711900	-11.141000	24.287121	0.001046	20.839688
718.181035	-3.002800	3.711600	-11.145000	24.254984	0.001046	20.849651
719.176799	-2.995400	3.712200	-11.118000	24.224945	0.001044	20.862667
720.176913	-2.990200	3.711400	-11.097000	24.217959	0.001044	20.852341
721.183513	-2.999800	3.710800	-11.131000	24.211089	0.001046	20.853037
722.178251	-2.991200	3.710600	-11.098000	24.180957	0.001045	20.841307
723.178455	-3.013500	3.710300	-11.180000	24.192352	0.001045	20.854158
724.180647	-3.002200	3.710400	-11.138000	24.184757	0.001045	20.874988
725.181867	-3.000800	3.709600	-11.131000	24.200812	0.001043	20.852212
726.181390	-3.000600	3.709900	-11.131000	24.212409	0.001045	20.852465
727.181450	-2.980900	3.711100	-11.062000	24.212206	0.001042	20.848468
728.178598	-3.020300	3.708700	-11.200000	24.228352	0.001044	20.867507
729.181793	-2.968300	3.710000	-11.011000	24.244228	0.001044	20.845974
730.177798	-2.993800	3.707500	-11.098000	24.240520	0.001044	20.847945
731.178150	-2.998100	3.707800	-11.116000	24.222207	0.001043	20.862766
732.181522	-2.993200	3.707800	-11.097000	24.263652	0.001043	20.856448
733.183045	-2.989800	3.707100	-11.083000	24.273210	0.001043	20.860346
734.180705	-3.007300	3.705900	-11.143000	24.280816	0.001042	20.849958
735.180507	-2.979400	3.707800	-11.046000	24.295045	0.001042	20.830568
736.181172	-2.982200	3.707300	-11.055000	24.284978	0.001041	20.829952
737.182607	-2.989800	3.706900	-11.082000	24.293676	0.001042	20.836307
738.181533	-3.000300	3.706100	-11.119000	24.312387	0.001042	20.816670
739.181547	-3.022200	3.704300	-11.194000	24.311890	0.001041	20.844145
740.182545	-3.005800	3.704500	-11.133000	24.308729	0.001041	20.841448
741.181456	-3.017300	3.706200	-11.181000	24.324978	0.001042	20.844946
742.182271	-3.036100	3.704100	-11.245000	24.309975	0.001041	20.823733
743.186321	-3.033600	3.703900	-11.235000	24.319674	0.001040	20.850056
744.181047	-2.985200	3.704200	-11.057000	24.337513	0.001037	20.831916
745.183995	-2.991900	3.704700	-11.083000	24.341189	0.001037	20.838449
746.181662	-2.993700	3.703600	-11.086000	24.353485	0.001038	20.821387
747.183787	-3.008800	3.704000	-11.143000	24.369825	0.001037	20.833985
748.187047	-3.021800	3.701900	-11.185000	24.372587	0.001038	20.842920
749.184400	-3.019000	3.702500	-11.177000	24.392586	0.001039	20.823628
750.187530	-3.022700	3.702300	-11.190000	24.402014	0.001037	20.829767
751.185562	-2.999900	3.702600	-11.106000	24.357683	0.001038	20.823702
752.184700	-3.009600	3.701800	-11.139000	24.348758	0.001037	20.831344
753.187856	-2.996500	3.702900	-11.095000	24.343430	0.001036	20.809404
754.190662	-3.020900	3.701500	-11.181000	24.333504	0.001039	20.807033
755.185270	-2.991600	3.701100	-11.071000	24.335818	0.001036	20.831639
756.186562	-2.994000	3.701100	-11.080000	24.323609	0.001036	20.816073
757.185649	-2.994800	3.701800	-11.085000	24.326973	0.001038	20.827508
758.189881	-2.978400	3.701200	-11.022000	24.352018	0.001036	20.820863
759.190490	-3.008900	3.700900	-11.133000	24.365995	0.001036	20.836307
760.189925	-2.990900	3.699900	-11.065000	24.388517	0.001036	20.830451
761.192453	-2.990600	3.700300	-11.065000	24.394882	0.001035	20.840629
762.192459	-2.989500	3.699900	-11.061000	24.414978	0.001036	20.808634
763.188747	-2.957300	3.700800	-10.943000	24.402020	0.001038	20.818868
764.188586	-2.981300	3.699700	-11.028000	24.422067	0.001035	20.816220
765.189927	-2.983700	3.700000	-11.038000	24.386767	0.001035	20.819687
766.188730	-3.002200	3.697700	-11.100000	24.410252	0.001034	20.808160
767.197439	-3.006700	3.698100	-11.118000	24.402272	0.001035	20.814379
768.190526	-2.972500	3.699000	-10.994000	24.406673	0.001035	20.815001
769.190627	-2.998200	3.697200	-11.084000	24.377713	0.001034	20.805863
770.193637	-3.009200	3.696300	-11.121000	24.378388	0.001034	20.822661
771.194616	-2.992000	3.696100	-11.058000	24.379309	0.001033	20.823111
772.190379	-2.972200	3.697500	-10.989000	24.390131	0.001033	20.818794
773.191310	-2.985100	3.697100	-11.035000	24.412068	0.001033	20.810931
774.191292	-2.974600	3.696600	-10.994000	24.389928	0.001033	20.798203
775.192453	-2.988400	3.695500	-11.043000	24.451947	0.001033	20.801152
776.192935	-2.992800	3.696900	-11.063000	24.445447	0.001031	20.818338
777.193706	-2.998500	3.695800	-11.080000	24.429580	0.001033	20.824232
778.197880	-2.995700	3.695600	-11.069000	24.424700	0.001032	20.819810
779.193103	-2.983200	3.695100	-11.023000	24.449301	0.001030	20.801343
780.198561	-3.019400	3.693300	-11.150000	24.449179	0.001033	20.786521
781.198862	-2.991300	3.694400	-11.050000	24.448534	0.001032	20.801048
782.195038	-3.016500	3.694100	-11.143000	24.468108	0.001031	20.808831
783.197052	-3.017200	3.692900	-11.141000	24.444919	0.001031	20.813541
784.200003	-2.989000	3.694400	-11.041000	24.428647	0.001032	20.801958
785.195302	-2.994600	3.694000	-11.061000	24.392180	0.001030	20.822273
786.197592	-3.020400	3.692200	-11.151000	24.409073	0.001029	20.808874
787.195302	-3.010100	3.692700	-11.115000	24.391480	0.001029	20.805450
788.201574	-2.999300	3.691900	-11.072000	24.369690	0.001030	20.794969
789.195911	-3.018000	3.691900	-11.141000	24.396330	0.001031	20.815530
790.197872	-3.009800	3.690900	-11.108000	24.425927	0.001031	20.813929
791.199609	-3.003000	3.692100	-11.084000	24.425399	0.001029	20.806287
792.197997	-3.005400	3.691700	-11.094000	24.427314	0.001028	20.816743
793.198769	-3.002300	3.690100	-11.078000	24.426314	0.001030	20.800092
794.199488	-3.015900	3.690800	-11.130000	24.452805	0.001031	20.809599
795.206159	-3.027600	3.690000	-11.171000	24.471409	0.001028	20.798392
796.202326	-3.012000	3.690600	-11.115000	24.478669	0.001025	20.812543
797.198563	-3.012100	3.689900	-11.113000	24.468143	0.001026	20.801754
798.200578	-3.007000	3.689100	-11.091000	24.450086	0.001025	20.793595
799.198949	-3.012900	3.688200	-11.111000	24.468241	0.001028	20.802671
800.198736	-3.001600	3.688300	-11.069000	24.471120	0.001025	20.794783
801.204893	-3.007400	3.689300	-11.094000	24.434525	0.001025	20.792209
802.200123	-2.997300	3.687900	-11.053000	24.428234	0.001027	20.817665
803.203240	-3.011500	3.687700	-11.104000	24.425318	0.001026	20.811421
804.200957	-3.010600	3.687700	-11.101000	24.432782	0.001026	20.810374
805.201951	-3.023400	3.687000	-11.146000	24.409543	0.001027	20.782793
806.207205	-2.996600	3.687600	-11.049000	24.369663	0.001024	20.807745
807.203667	-3.015700	3.687800	-11.121000	24.395413	0.001026	20.811766
808.203462	-3.027100	3.686100	-11.157000	24.415829	0.001025	20.805694
809.203185	-3.017100	3.685800	-11.119000	24.405547	0.001023	20.812449
810.203052	-3.020400	3.686000	-11.132000	24.430529	0.001025	20.802898
811.204762	-3.011100	3.686200	-11.097000	24.466822	0.001025	20.822240
812.206606	-3.007700	3.685700	-11.084000	24.482860	0.001024	20.786174
813.205302	-3.001200	3.686500	-11.063000	24.493306	0.001021	20.790490
814.206982	-3.011300	3.685700	-11.097000	24.494221	0.001023	20.801839
815.205663	-2.993700	3.686100	-11.034000	24.509393	0.001022	20.792405
816.208594	-2.993400	3.686600	-11.033000	24.499591	0.001022	20.808649
817.206912	-3.036800	3.684100	-11.186000	24.472352	0.001022	20.783692
818.205903	-3.019600	3.684900	-11.126000	24.445560	0.001023	20.796167
819.204340	-3.009600	3.683800	-11.085000	24.395584	0.001021	20.783014
820.206954	-2.999200	3.684100	-11.048000	24.383240	0.001021	20.762569
821.205416	-2.988400	3.682900	-11.005000	24.396204	0.001022	20.807818
822.210223	-3.026600	3.682800	-11.146000	24.398383	0.001021	20.778235
823.207281	-3.007400	3.682600	-11.074000	24.427011	0.001022	20.789886
824.209311	-3.005600	3.682500	-11.066000	24.441343	0.001021	20.786247
825.204051	-2.984300	3.683400	-10.990000	24.431983	0.001021	20.789658
826.208603	-3.012800	3.682100	-11.092000	24.411678	0.001020	20.791573
827.209589	-2.999300	3.681300	-11.040000	24.380269	0.001018	20.779978
828.217376	-2.988300	3.680600	-10.997000	24.358846	0.001020	20.778401
829.208974	-2.973200	3.682900	-10.947000	24.353573	0.001020	20.775482
830.209071	-2.974500	3.682700	-10.953000	24.349239	0.001020	20.790101
831.211538	-2.994800	3.681400	-11.024000	24.332199	0.001018	20.796240
832.208907	-2.994100	3.680200	-11.018000	24.332751	0.001017	20.793950
833.212847	-2.997500	3.680700	-11.032000	24.354592	0.001018	20.786936
834.209875	-2.997600	3.680400	-11.031000	24.374965	0.001018	20.780347
835.209870	-2.997900	3.679900	-11.030000	24.395755	0.001018	20.792669
836.209733	-2.998200	3.679600	-11.030000	24.423248	0.001016	20.774257
837.208842	-3.011100	3.677400	-11.071000	24.443043	0.001020	20.780365
838.213682	-3.021800	3.679700	-11.118000	24.490605	0.001017	20.784460
839.210988	-2.987900	3.679500	-10.993000	24.511675	0.001019	20.775729
840.213138	-3.015000	3.679700	-11.092000	24.544179	0.001016	20.771356
841.211380	-2.996100	3.679700	-11.024000	24.563450	0.001017	20.793537
842.211626	-2.998000	3.678900	-11.029000	24.582334	0.001015	20.780716
843.214003	-3.010200	3.677900	-11.070000	24.569986	0.001014	20.779232
844.210879	-3.007100	3.678500	-11.060000	24.556134	0.001017	20.780033
845.211445	-2.996700	3.678000	-11.021000	24.540466	0.001015	20.788968
846.212531	-2.989400	3.677400	-10.991000	24.533027	0.001015	20.786720
847.212091	-2.982600	3.678200	-10.969000	24.526754	0.001015	20.805083
848.212492	-3.007400	3.675700	-11.053000	24.544492	0.001015	20.773567
849.216509	-3.002100	3.675900	-11.035000	24.559460	0.001015	20.778154
850.212744	-3.004400	3.675700	-11.043000	24.595768	0.001012	20.791351
851.217710	-3.026900	3.674600	-11.121000	24.599677	0.001013	20.762082
852.213889	-3.004300	3.675800	-11.043000	24.607305	0.001015	20.779219
853.213911	-3.011200	3.674400	-11.063000	24.596829	0.001010	20.773449
854.217503	-3.003200	3.675000	-11.035000	24.605937	0.001013	20.759354
855.216620	-2.995300	3.673600	-11.002000	24.586611	0.001011	20.771257
856.219661	-3.001900	3.672700	-11.024000	24.585562	0.001012	20.767359
857.216057	-2.996400	3.673500	-11.005000	24.554740	0.001009	20.786221
858.219500	-3.005000	3.673800	-11.039000	24.542552	0.001011	20.767353
859.216919	-3.010800	3.673400	-11.059000	24.550512	0.001009	20.772020
860.216258	-2.994200	3.674300	-11.001000	24.564793	0.001011	20.760745
861.215931	-3.020300	3.672300	-11.090000	24.587568	0.001011	20.765579
862.215337	-3.001200	3.671900	-11.019000	24.576270	0.001011	20.775580
863.216311	-3.020700	3.672100	-11.091000	24.567592	0.001008	20.790106
864.217506	-2.982300	3.672900	-10.953000	24.585322	0.001011	20.780395
865.218806	-2.999200	3.671100	-11.009000	24.603702	0.001009	20.765173
866.217754	-2.986000	3.672600	-10.966000	24.605961	0.001007	20.774551
867.217840	-3.014600	3.671200	-11.066000	24.597111	0.001009	20.779896
868.217659	-2.999800	3.671200	-11.012000	24.586641	0.001008	20.767968
869.217083	-3.006700	3.671800	-11.039000	24.559895	0.001008	20.769107
870.227610	-3.008300	3.670300	-11.040000	24.585935	0.001008	20.768208
871.221719	-2.985500	3.671300	-10.959000	24.598743	0.001006	20.763042
872.220775	-2.983600	3.670800	-10.951000	24.591931	0.001006	20.778492
873.219462	-2.982100	3.670000	-10.943000	24.603991	0.001006	20.773997
874.218104	-3.004600	3.669300	-11.023000	24.565063	0.001007	20.761964
875.229980	-2.999400	3.669200	-11.004000	24.577202	0.001004	20.773196
876.221313	-3.010800	3.669400	-11.047000	24.607642	0.001005	20.752530
877.220619	-3.000600	3.668400	-11.006000	24.617713	0.001003	20.791085
878.221750	-2.998200	3.667600	-10.995000	24.614276	0.001004	20.763454
879.221530	-2.997300	3.667300	-10.991000	24.619848	0.001005	20.772839
880.221238	-3.011000	3.667700	-11.042000	24.619768	0.001005	20.769914
881.223454	-3.005300	3.667800	-11.020000	24.626587	0.001005	20.755418
882.228562	-2.991700	3.667300	-10.971000	24.581995	0.001003	20.750978
883.220882	-2.974300	3.668800	-10.911000	24.584523	0.001003	20.761576
884.220500	-3.000300	3.667100	-11.001000	24.558631	0.001002	20.769735
885.221458	-2.997500	3.666500	-10.989000	24.538138	0.001003	20.757708
886.226314	-2.995000	3.665700	-10.977000	24.564025	0.001002	20.760449
887.221259	-2.977400	3.666100	-10.914000	24.593275	0.001005	20.748071
888.225282	-3.005300	3.666700	-11.019000	24.563749	0.001003	20.767284
889.226695	-3.015400	3.664500	-11.049000	24.602345	0.001002	20.749112
890.221342	-3.020600	3.665000	-11.069000	24.597546	0.001003	20.754254
891.229313	-2.989600	3.665300	-10.957000	24.611894	0.001002	20.751107
892.225760	-3.013700	3.664800	-11.044000	24.635644	0.001001	20.755972
893.225227	-3.002700	3.664600	-11.003000	24.641640	0.001000	20.746815
894.222632	-3.018900	3.663400	-11.059000	24.653005	0.000999	20.753003
895.223688	-3.010400	3.663900	-11.029000	24.672004	0.001000	20.754050
896.224907	-2.989900	3.664000	-10.954000	24.649845	0.000999	20.739400
897.225273	-2.970800	3.664800	-10.887000	24.678074	0.000999	20.741648
898.223985	-3.008200	3.663800	-11.020000	24.663419	0.000997	20.746383
899.229295	-2.972700	3.663500	-10.889000	24.695035	0.000997	20.728322
900.227242	-2.984100	3.663700	-10.932000	24.686849	0.000998	20.750928
901.225097	-2.985700	3.663000	-10.935000	24.686849	0.000997	20.749031
902.230115	-2.999900	3.661900	-10.984000	24.687143	0.000996	20.749327
903.224293	-2.992200	3.662600	-10.958000	24.658246	0.000996	20.742615
904.224147	-2.977700	3.661500	-10.902000	24.670888	0.000996	20.748662
905.223798	-2.989600	3.661100	-10.944000	24.703289	0.000997	20.749407
906.223514	-2.994600	3.660600	-10.961000	24.682645	0.000995	20.746236
907.224255	-2.993100	3.660900	-10.957000	24.684640	0.000996	20.730218
908.228240	-2.987000	3.661700	-10.935000	24.709241	0.000994	20.726456
909.224648	-2.992300	3.660500	-10.952000	24.705185	0.000994	20.750836
910.224479	-2.990900	3.660400	-10.946000	24.693863	0.000994	20.737103
911.225761	-2.998100	3.661200	-10.975000	24.681436	0.000993	20.720365
912.224873	-2.982100	3.660900	-10.916000	24.661265	0.000993	20.734264
913.226198	-2.996900	3.658400	-10.964000	24.667463	0.000990	20.707291
914.225411	-2.992600	3.658700	-10.948000	24.622898	0.000994	20.735595
915.229006	-2.986600	3.660600	-10.932000	24.619443	0.000992	20.706047
916.224648	-2.975000	3.660300	-10.888000	24.630729	0.000991	20.715476
917.225680	-3.023200	3.658100	-11.059000	24.645132	0.000993	20.726610
918.227523	-3.001700	3.659700	-10.983000	24.631005	0.000992	20.725237
919.226125	-3.002400	3.657400	-10.979000	24.616853	0.000993	20.737590
920.226707	-2.998300	3.657500	-10.966000	24.616755	0.000992	20.725637
921.227131	-3.000600	3.657900	-10.975000	24.642125	0.000991	20.717902
922.226279	-3.001700	3.657200	-10.977000	24.642248	0.000991	20.707119
923.231228	-3.005700	3.655800	-10.987000	24.663174	0.000991	20.718635
924.229506	-3.024800	3.655300	-11.055000	24.673588	0.000989	20.727663
925.229234	-3.000600	3.654800	-10.966000	24.679258	0.000989	20.725292
926.229340	-2.978600	3.656300	-10.890000	24.682210	0.000989	20.736315
927.229351	-2.998200	3.656300	-10.962000	24.683315	0.000989	20.707550
928.228871	-2.971000	3.656300	-10.862000	24.706314	0.000990	20.709767
929.231251	-2.982600	3.656500	-10.905000	24.711763	0.000986	20.713813
930.230902	-3.011100	3.654800	-11.004000	24.714371	0.000986	20.713111
931.230251	-2.996700	3.654800	-10.951000	24.716611	0.000987	20.722472
932.231921	-2.990600	3.653800	-10.926000	24.715390	0.000986	20.690898
933.230311	-3.003800	3.652800	-10.971000	24.711487	0.000988	20.743884
934.231600	-3.007300	3.653700	-10.986000	24.715770	0.000986	20.720680
935.231073	-2.990900	3.653500	-10.926000	24.703504	0.000988	20.740614
936.232807	-2.996700	3.653400	-10.947000	24.716040	0.000986	20.698664
937.231485	-2.990900	3.653700	-10.927000	24.727037	0.000985	20.706854
938.233243	-3.031000	3.651100	-11.064000	24.693262	0.000984	20.730810
939.234095	-3.014400	3.651400	-11.006000	24.691194	0.000984	20.716406
940.234391	-2.981600	3.653400	-10.892000	24.718476	0.000986	20.735724
941.232179	-2.997700	3.651700	-10.946000	24.746305	0.000984	20.698214
942.233101	-3.000900	3.650600	-10.955000	24.784128	0.000984	20.716258
943.233763	-3.002500	3.651600	-10.963000	24.776323	0.000985	20.713167
944.233099	-3.000000	3.652200	-10.955000	24.751299	0.000983	20.697537
945.236334	-3.028700	3.648900	-11.048000	24.759233	0.000982	20.716406
946.237925	-2.992700	3.651400	-10.925000	24.744832	0.000983	20.709065
947.241426	-3.013000	3.652000	-11.002000	24.717108	0.000982	20.727712
948.236359	-2.988700	3.650300	-10.909000	24.736701	0.000980	20.701854
949.236151	-2.998800	3.649300	-10.941000	24.752312	0.000982	20.708036
950.242968	-3.006200	3.649400	-10.970000	24.786588	0.000981	20.690276
951.235831	-2.990000	3.648300	-10.908000	24.812371	0.000981	20.704773
952.237021	-2.994500	3.649500	-10.926000	24.801805	0.000981	20.702229
953.236034	-2.987900	3.649500	-10.904000	24.803468	0.000980	20.707218
954.238566	-3.019100	3.646200	-11.007000	24.836288	0.000982	20.690368
955.236267	-2.980500	3.649800	-10.877000	24.791079	0.000978	20.703319
956.238919	-3.010300	3.648700	-10.982000	24.775795	0.000981	20.700782
957.238238	-2.997800	3.647700	-10.934000	24.740230	0.000978	20.704920
958.238566	-2.989700	3.648700	-10.907000	24.772561	0.000981	20.698011
959.239190	-2.984600	3.646700	-10.883000	24.748587	0.000980	20.695289
960.240272	-3.001000	3.647600	-10.946000	24.712776	0.000977	20.708191
961.240010	-2.989300	3.647100	-10.901000	24.747765	0.000976	20.704422
962.238437	-2.975700	3.647900	-10.854000	24.734461	0.000976	20.707667
963.241875	-2.962200	3.647900	-10.804000	24.743212	0.000978	20.709336
964.237691	-3.002500	3.646500	-10.947000	24.764977	0.000978	20.697038
965.240648	-2.988400	3.646600	-10.897000	24.764204	0.000977	20.694839
966.241909	-3.021600	3.645600	-11.014000	24.719937	0.000976	20.703522
967.242486	-2.995600	3.645800	-10.919000	24.752336	0.000974	20.697629
968.241677	-2.993300	3.644700	-10.909000	24.717194	0.000974	20.710253
969.241893	-2.987600	3.645400	-10.890000	24.701307	0.000974	20.712803
970.241311	-3.012800	3.644400	-10.978000	24.677282	0.000973	20.711928
971.243812	-2.973200	3.644500	-10.834000	24.678350	0.000974	20.715371
972.246260	-2.978100	3.644400	-10.852000	24.658479	0.000976	20.705863
973.243372	-3.004400	3.643800	-10.946000	24.685861	0.000974	20.693983
974.245949	-3.024300	3.641800	-11.013000	24.695606	0.000973	20.720359
975.243599	-2.996500	3.643000	-10.915000	24.714702	0.000975	20.704434
976.244575	-3.030500	3.642100	-11.036000	24.720992	0.000974	20.684665
977.248138	-2.989900	3.643900	-10.894000	24.732504	0.000972	20.693847
978.246174	-2.994700	3.642500	-10.907000	24.752919	0.000972	20.686359
979.245639	-2.992800	3.641000	-10.896000	24.810831	0.000970	20.714133
980.245670	-3.015000	3.639900	-10.973000	24.773432	0.000969	20.714533
981.245673	-3.019700	3.639200	-10.987000	24.776414	0.000967	20.687652
982.246572	-2.982100	3.640600	-10.856000	24.759871	0.000970	20.699026
983.249225	-3.005500	3.639400	-10.937000	24.749851	0.000967	20.687073
984.245902	-3.004800	3.639700	-10.936000	24.755202	0.000968	20.700505
985.245750	-3.008600	3.639300	-10.947000	24.775242	0.000968	20.704495
986.248355	-2.983800	3.640600	-10.861000	24.786354	0.000967	20.705690
987.251328	-3.002600	3.638000	-10.922000	24.791570	0.000965	20.699069
988.247758	-3.006600	3.639100	-10.940000	24.821040	0.000965	20.694980
989.246157	-3.017800	3.638000	-10.978000	24.828348	0.000966	20.709428
990.246902	-2.999100	3.639200	-10.913000	24.817255	0.000966	20.701139
991.246099	-2.999000	3.638400	-10.910000	24.825317	0.000966	20.706386
992.248076	-2.994900	3.637400	-10.893000	24.823120	0.000966	20.695645
993.248182	-3.002600	3.637500	-10.921000	24.827084	0.000965	20.710056
994.246856	-3.014800	3.636400	-10.962000	24.842448	0.000966	20.692283
995.254263	-3.001200	3.636500	-10.912000	24.866739	0.000964	20.704809
996.246809	-2.985800	3.638000	-10.861000	24.863708	0.000964	20.696551
997.248188	-3.002100	3.636100	-10.915000	24.886655	0.000965	20.672163
998.249234	-3.008500	3.636200	-10.938000	24.904116	0.000964	20.698226
999.248598	-2.981800	3.637000	-10.844000	24.898220	0.000965	20.700843
1000.247792	-3.003500	3.634300	-10.913000	24.925970	0.000963	20.697875
1001.248875	-3.005700	3.635500	-10.927000	24.918166	0.000964	20.714699
1002.249282	-2.997400	3.636200	-10.898000	24.944473	0.000964	20.697955
1003.250170	-2.976600	3.635500	-10.820000	24.943179	0.000963	20.707562
1004.251548	-2.984700	3.634900	-10.848000	24.957234	0.000962	20.716929
1005.248587	-3.008800	3.634600	-10.934000	24.940553	0.000963	20.696865
1006.248315	-3.026500	3.633900	-10.997000	24.922902	0.000962	20.683415
1007.251175	-3.013500	3.633900	-10.950000	24.880679	0.000961	20.689875
1008.251446	-2.995900	3.634100	-10.886000	24.880458	0.000960	20.678747
1009.251427	-2.988700	3.633500	-10.859000	24.839626	0.000960	20.691821
1010.249413	-3.025500	3.631900	-10.987000	24.804198	0.000961	20.690879
1011.255754	-2.986600	3.634300	-10.853000	24.780347	0.000957	20.695867
1012.251183	-2.994600	3.631800	-10.875000	24.773463	0.000961	20.699390
1013.250935	-2.981600	3.633400	-10.833000	24.775346	0.000958	20.719774
1014.253631	-2.993200	3.632100	-10.869000	24.739125	0.000958	20.702389
1015.251558	-2.961200	3.633100	-10.757000	24.713168	0.000957	20.662587
1016.254739	-3.005500	3.630700	-10.912000	24.730319	0.000958	20.694974
1017.252925	-2.999200	3.630000	-10.886000	24.751839	0.000957	20.705191
1018.253138	-2.993700	3.631800	-10.871000	24.741641	0.000957	20.701121
1019.256655	-3.009800	3.631500	-10.928000	24.776825	0.000956	20.686642
1020.252596	-3.025200	3.628600	-10.976000	24.807438	0.000956	20.697450
1021.254381	-2.998900	3.630200	-10.886000	24.830423	0.000957	20.690645
1022.254162	-2.980300	3.629800	-10.817000	24.844289	0.000954	20.713099
1023.253686	-3.023400	3.627500	-10.966000	24.867610	0.000954	20.696200
1024.253583	-3.007900	3.628500	-10.913000	24.891711	0.000954	20.702845
1025.261834	-3.016000	3.627300	-10.939000	24.872715	0.000954	20.712704
1026.253747	-2.977000	3.630200	-10.806000	24.868586	0.000953	20.698128
1027.256268	-2.983200	3.628800	-10.825000	24.867893	0.000953	20.708812
1028.259502	-3.015200	3.627000	-10.935000	24.899822	0.000952	20.698657
1029.256355	-3.021700	3.627200	-10.960000	24.907902	0.000952	20.712458
1030.260883	-3.011500	3.626900	-10.921000	24.881722	0.000952	20.700406
1031.254906	-3.022700	3.626300	-10.960000	24.910914	0.000949	20.722121
1032.258348	-2.998500	3.627300	-10.875000	24.920485	0.000952	20.700431
1033.257542	-3.008400	3.626200	-10.908000	24.953284	0.000952	20.704902
1034.257986	-3.003300	3.626200	-10.889000	24.930934	0.000950	20.703806
1035.260814	-3.028700	3.625500	-10.979000	24.943769	0.000952	20.717638
1036.259399	-3.012700	3.625100	-10.921000	24.950560	0.000951	20.727300
1037.257186	-3.007400	3.624700	-10.900000	24.936431	0.000950	20.729240
1038.259022	-2.986400	3.624500	-10.823000	24.981192	0.000950	20.709681
1039.258173	-3.001100	3.626200	-10.881000	25.009038	0.000949	20.712976
1040.257525	-3.000800	3.624900	-10.877000	25.008517	0.000949	20.723833
1041.259149	-3.020000	3.623800	-10.941000	25.031540	0.000948	20.700000
1042.259254	-2.978200	3.624500	-10.793000	24.992756	0.000948	20.715599
1043.259107	-3.005200	3.623900	-10.890000	24.978634	0.000946	20.697155
1044.257957	-2.995200	3.623400	-10.852000	24.982567	0.000949	20.711061
1045.258611	-2.989400	3.622600	-10.829000	24.950199	0.000946	20.725514
1046.260946	-2.979500	3.624500	-10.797000	24.878741	0.000947	20.707846
1047.258874	-2.975800	3.623200	-10.781000	24.861310	0.000945	20.706473
1048.262622	-3.010700	3.622100	-10.904000	24.864844	0.000945	20.718556
1049.260658	-3.011300	3.622500	-10.907000	24.840382	0.000943	20.693054
1050.260479	-3.016400	3.621600	-10.923000	24.827049	0.000944	20.701011
1051.265048	-2.993900	3.623400	-10.847000	24.828816	0.000943	20.714165
1052.267342	-3.001200	3.621800	-10.868000	24.832203	0.000944	20.695752
1053.263422	-3.013000	3.620500	-10.907000	24.896706	0.000943	20.711178
1054.261882	-3.010600	3.621600	-10.902000	24.903860	0.000942	20.709823
1055.262439	-3.006300	3.619500	-10.879000	24.857071	0.000941	20.708857
1056.262499	-3.023700	3.618400	-10.939000	24.857126	0.000941	20.715077
1057.264709	-3.003700	3.620200	-10.872000	24.833528	0.000941	20.700401
1058.263442	-3.001900	3.618800	-10.861000	24.881171	0.000941	20.709337
1059.267673	-3.008200	3.618200	-10.884000	24.863618	0.000940	20.712108
1060.263486	-3.013200	3.619400	-10.905000	24.867096	0.000942	20.714177
1061.264565	-2.997000	3.619200	-10.846000	24.876772	0.000939	20.718199
1062.274036	-3.012800	3.618100	-10.900000	24.864937	0.000940	20.724339
1063.265748	-3.013800	3.617400	-10.901000	24.903252	0.000937	20.728181
1064.266135	-2.997400	3.617800	-10.843000	24.911431	0.000940	20.716474
1065.266994	-3.027600	3.617900	-10.953000	24.955217	0.000937	20.702575
1066.267746	-3.016200	3.615800	-10.905000	24.953751	0.000939	20.711061
1067.267966	-3.010000	3.616900	-10.886000	24.968892	0.000938	20.704922
1068.271269	-2.976000	3.618300	-10.766000	24.975776	0.000937	20.719892
1069.270051	-2.999400	3.615200	-10.843000	25.014542	0.000938	20.724191
1070.268575	-3.020500	3.615500	-10.920000	24.975923	0.000935	20.728101
1071.268469	-2.977900	3.617200	-10.770000	24.968144	0.000936	20.725034
1072.269869	-2.999700	3.614700	-10.842000	24.970365	0.000936	20.728212
1073.277054	-3.003800	3.614200	-10.854000	24.980254	0.000934	20.747623
1074.268994	-2.986500	3.614800	-10.794000	24.969886	0.000936	20.726309
1075.271815	-3.008300	3.614700	-10.873000	24.979684	0.000934	20.732350
1076.268757	-3.012500	3.614200	-10.887000	24.964690	0.000934	20.743380
1077.268483	-3.022400	3.611900	-10.915000	24.985751	0.000931	20.732277
1078.271731	-3.007400	3.612400	-10.862000	24.962751	0.000933	20.718673
1079.271456	-3.017000	3.613000	-10.899000	24.951414	0.000933	20.733847
1080.269398	-2.995000	3.611900	-10.817000	24.916413	0.000929	20.747081
1081.268685	-3.002800	3.613200	-10.849000	24.886595	0.000932	20.743232
1082.268106	-3.000900	3.614100	-10.845000	24.926652	0.000931	20.721795
1083.269382	-3.003700	3.612000	-10.848000	24.913358	0.000930	20.720305
1084.270105	-3.000900	3.611700	-10.838000	24.917707	0.000930	20.730362
1085.270567	-2.974600	3.612900	-10.745000	24.905854	0.000931	20.715619
1086.270710	-2.983800	3.613000	-10.779000	24.932929	0.000929	20.750382
1087.269141	-2.996100	3.610800	-10.817000	24.956052	0.000929	20.726174
1088.267834	-3.002900	3.611400	-10.844000	24.989721	0.000928	20.748116
1089.271959	-2.990900	3.610900	-10.798000	24.984175	0.000927	20.732117
1090.271026	-3.002300	3.610000	-10.837000	24.969089	0.000926	20.727406
1091.269902	-2.991100	3.609800	-10.796000	24.962280	0.000927	20.731002
1092.270301	-2.991100	3.610500	-10.798000	24.958727	0.000925	20.738343
1093.273095	-3.006800	3.609400	-10.852000	24.985807	0.000926	20.727591
1094.272199	-2.987900	3.608500	-10.780000	24.967728	0.000925	20.745006
1095.271268	-2.975300	3.608600	-10.735000	24.997592	0.000926	20.739421
1096.271278	-2.978100	3.608600	-10.746000	24.998856	0.000926	20.721248
1097.270208	-2.973900	3.608600	-10.731000	25.014819	0.000922	20.746755
1098.272460	-2.979000	3.607700	-10.746000	25.026971	0.000925	20.745203
1099.273730	-3.013200	3.607200	-10.869000	25.024738	0.000925	20.739642
1100.272536	-2.978900	3.607700	-10.745000	25.027327	0.000924	20.757415
1101.275011	-3.010600	3.606600	-10.856000	25.022653	0.000924	20.738497
1102.272576	-3.002900	3.606200	-10.827000	25.007629	0.000923	20.732425
1103.275584	-3.021900	3.605100	-10.893000	24.989304	0.000922	20.732523
1104.280750	-3.013100	3.606500	-10.866000	24.995721	0.000923	20.759829
1105.275530	-3.019000	3.604700	-10.881000	24.991893	0.000922	20.745080
1106.271832	-3.007500	3.605600	-10.843000	25.022941	0.000920	20.748270
1107.272593	-3.015100	3.603900	-10.865000	25.045320	0.000922	20.747026
1108.272813	-3.005800	3.605500	-10.836000	25.088395	0.000921	20.748541
1109.272393	-3.022200	3.604300	-10.891000	25.106792	0.000920	20.758474
1110.272706	-2.998800	3.606100	-10.813000	25.088395	0.000921	20.754231
1111.272651	-3.012300	3.602900	-10.851000	25.049061	0.000920	20.734186
1112.275991	-3.015700	3.603900	-10.867000	25.005929	0.000918	20.754902
1113.275999	-2.989300	3.603700	-10.771000	25.001757	0.000920	20.747395
1114.271774	-2.986700	3.602900	-10.760000	25.025566	0.000917	20.756595
1115.278918	-2.989400	3.603000	-10.770000	25.060269	0.000918	20.753972
1116.272546	-2.993500	3.602200	-10.781000	25.067385	0.000916	20.750684
1117.271850	-2.993900	3.602700	-10.785000	25.072906	0.000916	20.739630
1118.271914	-2.981500	3.603500	-10.742000	25.044510	0.000917	20.757593
1119.272023	-2.991800	3.602000	-10.776000	25.028774	0.000915	20.749858
1120.275784	-3.003900	3.601200	-10.816000	25.050405	0.000915	20.751657
1121.278110	-3.014400	3.599700	-10.850000	25.089831	0.000914	20.750456
1122.272154	-2.999600	3.601600	-10.803000	25.101173	0.000915	20.746669
1123.272977	-3.000400	3.600600	-10.803000	25.107062	0.000914	20.774392
1124.273056	-3.014500	3.600300	-10.852000	25.144774	0.000912	20.763412
1125.273095	-3.001700	3.599100	-10.802000	25.150147	0.000911	20.742253
1126.278035	-2.993200	3.599900	-10.773000	25.168739	0.000911	20.751435
1127.275206	-2.991800	3.599000	-10.766000	25.133445	0.000910	20.776221
1128.277234	-3.004500	3.599400	-10.813000	25.144204	0.000911	20.765210
1129.275051	-2.979000	3.598700	-10.720000	25.094438	0.000910	20.780211
1130.275976	-3.010600	3.598400	-10.832000	25.103737	0.000912	20.762045
1131.275455	-2.979100	3.599000	-10.720000	25.066502	0.000909	20.768764
1132.276639	-2.986400	3.597300	-10.743000	25.055761	0.000910	20.747549
1133.275669	-2.999100	3.598000	-10.789000	25.058227	0.000908	20.774208
1134.280331	-2.992700	3.598200	-10.767000	25.077869	0.000908	20.768321
1135.279533	-3.002400	3.597300	-10.799000	25.093733	0.000908	20.743467
1136.277434	-2.992300	3.596300	-10.760000	25.117178	0.000908	20.769374
1137.283834	-2.991800	3.595400	-10.756000	25.126869	0.000906	20.771043
1138.281118	-3.010500	3.595200	-10.822000	25.131795	0.000907	20.766978
1139.284678	-2.975100	3.596300	-10.698000	25.120925	0.000907	20.767920
1140.280582	-2.993300	3.594400	-10.758000	25.109547	0.000905	20.760765
1141.282190	-3.000000	3.594800	-10.784000	25.052338	0.000904	20.774460
1142.287771	-2.998100	3.593900	-10.773000	25.055847	0.000903	20.773241
1143.283670	-3.012500	3.593800	-10.824000	25.090972	0.000904	20.777681
1144.288691	-3.003300	3.594300	-10.794000	25.117951	0.000902	20.779633
1145.285683	-3.015100	3.593800	-10.835000	25.113920	0.000903	20.785545
1146.288160	-2.974100	3.595000	-10.691000	25.125882	0.000904	20.774319
1147.285930	-2.999100	3.593900	-10.778000	25.112577	0.000903	20.774239
1148.290374	-2.998400	3.593100	-10.772000	25.133120	0.000904	20.770205
1149.286170	-3.001000	3.593400	-10.782000	25.137095	0.000901	20.786050
1150.287993	-3.010300	3.592000	-10.812000	25.171647	0.000903	20.788968
1151.286346	-2.975200	3.592800	-10.688000	25.195091	0.000903	20.788796
1152.287655	-2.999800	3.592300	-10.775000	25.212019	0.000902	20.792041
1153.289334	-3.002900	3.592000	-10.785000	25.204089	0.000902	20.765587
1154.290306	-2.974700	3.591600	-10.683000	25.182584	0.000901	20.767231
1155.290658	-2.984100	3.592600	-10.720000	25.180271	0.000898	20.786247
1156.288350	-3.032600	3.589300	-10.884000	25.151688	0.000900	20.791690
1157.287629	-2.997900	3.589300	-10.759000	25.158920	0.000898	20.771923
1158.289502	-3.018300	3.589100	-10.831000	25.133445	0.000899	20.787127
1159.289054	-2.994900	3.589800	-10.751000	25.119171	0.000897	20.807411
1160.287152	-3.000800	3.588100	-10.765000	25.135157	0.000897	20.784104
1161.288289	-3.031600	3.587500	-10.874000	25.116288	0.000897	20.803569
1162.288141	-2.983100	3.589900	-10.707000	25.129765	0.000898	20.784855
1163.292144	-3.001500	3.588700	-10.771000	25.152927	0.000896	20.791037
1164.291543	-2.990000	3.588800	-10.730000	25.154503	0.000896	20.779818
1165.294597	-2.994000	3.588100	-10.742000	25.169225	0.000896	20.789856
1166.291198	-2.979500	3.587400	-10.686000	25.151565	0.000894	20.813852
1167.292202	-3.004400	3.585900	-10.771000	25.173647	0.000894	20.787657
1168.291790	-2.979500	3.587500	-10.687000	25.185007	0.000893	20.793372
1169.293312	-2.984700	3.587000	-10.705000	25.151522	0.000892	20.792947
1170.290610	-2.995400	3.586200	-10.741000	25.175340	0.000892	20.807849
1171.297403	-3.001900	3.585600	-10.761000	25.149664	0.000892	20.806254
1172.291355	-2.992100	3.585000	-10.726000	25.148026	0.000892	20.790385
1173.293424	-2.990600	3.585400	-10.721000	25.175715	0.000892	20.816759
1174.295912	-2.999200	3.584800	-10.751000	25.190460	0.000888	20.805484
1175.292555	-3.024700	3.583100	-10.836000	25.163766	0.000889	20.792436
1176.293162	-3.004000	3.584300	-10.766000	25.139101	0.000888	20.818884
1177.291708	-3.017600	3.582000	-10.808000	25.108039	0.000889	20.808089
1178.294201	-2.996100	3.584300	-10.738000	25.133121	0.000889	20.801501
1179.292900	-3.012900	3.583600	-10.795000	25.156786	0.000889	20.797757
1180.291146	-3.012000	3.582000	-10.788000	25.183137	0.000890	20.809986
1181.292225	-2.984900	3.583200	-10.694000	25.200017	0.000888	20.806070
1182.293865	-2.985300	3.584000	-10.698000	25.231961	0.000886	20.803053
1183.297118	-2.996100	3.583900	-10.735000	25.241805	0.000887	20.820048
1184.294864	-3.005900	3.580300	-10.760000	25.210008	0.000885	20.818471
1185.294096	-3.015800	3.580900	-10.798000	25.203354	0.000885	20.819377
1186.294566	-2.997300	3.581300	-10.733000	25.234052	0.000885	20.808946
1187.293162	-3.010000	3.579900	-10.774000	25.225349	0.000884	20.810639
1188.294254	-3.014500	3.579800	-10.790000	25.218915	0.000885	20.810818
1189.298018	-3.000500	3.580200	-10.741000	25.209095	0.000883	20.816606
1190.298980	-2.996500	3.580100	-10.726000	25.197263	0.000883	20.803779
1191.296871	-2.997300	3.579400	-10.727000	25.167484	0.000882	20.801384
1192.298616	-3.001600	3.579200	-10.742000	25.177378	0.000882	20.792350
1193.296194	-2.995500	3.579300	-10.721000	25.188044	0.000882	20.805904
1194.295522	-2.996500	3.578500	-10.721000	25.192810	0.000880	20.821594
1195.300110	-2.999100	3.578400	-10.732000	25.240185	0.000881	20.831698
1196.300165	-3.012500	3.578400	-10.779000	25.270312	0.000879	20.822117
1197.298245	-2.990300	3.579000	-10.701000	25.273342	0.000880	20.821840
1198.295493	-2.974000	3.578500	-10.642000	25.280549	0.000880	20.809161
1199.295924	-2.997700	3.577300	-10.722000	25.283039	0.000879	20.807394
1200.298119	-3.005300	3.576800	-10.748000	25.297875	0.000877	20.817074
1201.297914	-2.979900	3.577200	-10.657000	25.307988	0.000877	20.822960
1202.297513	-3.028600	3.574900	-10.826000	25.313036	0.000878	20.835614
1203.301301	-2.995100	3.574700	-10.705000	25.325884	0.000877	20.832868
1204.298262	-3.005500	3.575300	-10.744000	25.321106	0.000877	20.822855
1205.300542	-2.990300	3.575700	-10.692000	25.340947	0.000875	20.819069
1206.301141	-3.004700	3.575200	-10.741000	25.362215	0.000874	20.831889
1207.301889	-3.004000	3.574600	-10.736000	25.375836	0.000875	20.834186
1208.303695	-2.992000	3.574600	-10.695000	25.357395	0.000873	20.841747
1209.302588	-2.983100	3.574500	-10.661000	25.375357	0.000872	20.828490
1210.301057	-2.998000	3.572700	-10.710000	25.365870	0.000873	20.819438
1211.303488	-3.005800	3.572800	-10.738000	25.352022	0.000873	20.849629
1212.303144	-3.000100	3.573500	-10.720000	25.322474	0.000870	20.828022
1213.304799	-2.992400	3.573200	-10.691000	25.331913	0.000873	20.845084
1214.301132	-2.994000	3.573100	-10.696000	25.340713	0.000871	20.838274
1215.301966	-2.992600	3.573300	-10.692000	25.337488	0.000871	20.828397
1216.306894	-2.997800	3.571400	-10.705000	25.346601	0.000870	20.834229
1217.308455	-2.991400	3.571300	-10.682000	25.363251	0.000871	20.840990
1218.304659	-3.004700	3.571200	-10.728000	25.374346	0.000871	20.844069
1219.307276	-3.007600	3.570800	-10.738000	25.391492	0.000869	20.853225
1220.306351	-3.016400	3.570300	-10.767000	25.399170	0.000866	20.840072
1221.310194	-3.004500	3.571400	-10.730000	25.393682	0.000868	20.840725
1222.309446	-3.006300	3.570100	-10.732000	25.409013	0.000865	20.818662
1223.308146	-2.995300	3.570900	-10.695000	25.372506	0.000866	20.856445
1224.313014	-2.994300	3.570000	-10.688000	25.361504	0.000868	20.837339
1225.310163	-3.013400	3.567300	-10.748000	25.365306	0.000866	20.838312
1226.310119	-3.003300	3.568500	-10.717000	25.394559	0.000865	20.852985
1227.314016	-2.982300	3.568100	-10.639000	25.415532	0.000866	20.844648
1228.311246	-2.997900	3.567400	-10.693000	25.437707	0.000864	20.847474
1229.310827	-2.993600	3.568400	-10.680000	25.457563	0.000864	20.857456
1230.313507	-2.987700	3.568500	-10.660000	25.466013	0.000862	20.861199
1231.311952	-2.985800	3.568400	-10.653000	25.446954	0.000863	20.857234
1232.312207	-3.003700	3.566500	-10.711000	25.444845	0.000864	20.862228
1233.316583	-3.006600	3.566500	-10.722000	25.452473	0.000862	20.855190
1234.313093	-2.991300	3.565900	-10.664000	25.467632	0.000862	20.848601
1235.313560	-3.003500	3.565500	-10.707000	25.480632	0.000859	20.853121
1236.315620	-2.986700	3.566000	-10.649000	25.418458	0.000859	20.854223
1237.314411	-3.010200	3.564900	-10.729000	25.406058	0.000859	20.831342
1238.315143	-3.011900	3.563400	-10.732000	25.395522	0.000857	20.833565
1239.315540	-3.010100	3.563700	-10.726000	25.389009	0.000857	20.854525
1240.316578	-3.009100	3.563500	-10.722000	25.430545	0.000859	20.855929
1241.316578	-3.008900	3.563600	-10.721000	25.456061	0.000858	20.851680
1242.315900	-2.985800	3.564300	-10.641000	25.472575	0.000857	20.862099
1243.314616	-3.005100	3.564300	-10.710000	25.479204	0.000856	20.836040
1244.313811	-3.006600	3.562000	-10.709000	25.464616	0.000857	20.844624
1245.315025	-2.988400	3.564200	-10.650000	25.436585	0.000858	20.828331
1246.316126	-3.005700	3.563000	-10.707000	25.406966	0.000854	20.825616
1247.316174	-2.994300	3.561700	-10.664000	25.357384	0.000854	20.831305
1248.317618	-3.001900	3.562700	-10.693000	25.358678	0.000853	20.826915
1249.316571	-3.001100	3.561800	-10.687000	25.344983	0.000855	20.820277
1250.317748	-3.004300	3.562000	-10.700000	25.310940	0.000853	20.842519
1251.319800	-3.009700	3.561100	-10.716000	25.290896	0.000854	20.840412
1252.317552	-3.006100	3.561000	-10.704000	25.306088	0.000853	20.820105
1253.317971	-3.015200	3.560600	-10.734000	25.315018	0.000851	20.829545
1254.321883	-3.011700	3.560900	-10.723000	25.349540	0.000852	20.830542
1255.318170	-3.004600	3.559800	-10.695000	25.369668	0.000850	20.843165
1256.318951	-2.998100	3.560300	-10.673000	25.372581	0.000849	20.830444
1257.320392	-2.996100	3.560800	-10.667000	25.376107	0.000849	20.816915
1258.318896	-3.022500	3.558500	-10.754000	25.378763	0.000849	20.822426
1259.319549	-3.008300	3.559200	-10.706000	25.372354	0.000851	20.808405
1260.318985	-3.000300	3.560400	-10.681000	25.359978	0.000849	20.822057
1261.319194	-3.014100	3.557000	-10.720000	25.366093	0.000848	20.798799
1262.320642	-3.001500	3.557100	-10.675000	25.363357	0.000850	20.807906
1263.325592	-2.993000	3.557900	-10.648000	25.385705	0.000847	20.833664
1264.320290	-2.999800	3.558100	-10.672000	25.368748	0.000846	20.823276
1265.325166	-2.989700	3.558000	-10.637000	25.409855	0.000847	20.813343
1266.321085	-2.991800	3.556300	-10.639000	25.395069	0.000846	20.826472
1267.322294	-2.982300	3.558300	-10.612000	25.360444	0.000846	20.813042
1268.322547	-2.989600	3.555700	-10.630000	25.325303	0.000845	20.812845
1269.323670	-2.985700	3.557600	-10.621000	25.292123	0.000842	20.791385
1270.321581	-2.977700	3.556300	-10.588000	25.257372	0.000843	20.820031
1271.322093	-3.023100	3.554900	-10.746000	25.300047	0.000843	20.811194
1272.321527	-2.989900	3.556200	-10.632000	25.306389	0.000844	20.801440
1273.322608	-2.996700	3.552900	-10.646000	25.348393	0.000841	20.811847
1274.323246	-2.973800	3.554900	-10.571000	25.372673	0.000841	20.804932
1275.321537	-2.996300	3.554800	-10.650000	25.377321	0.000840	20.795849
1276.322039	-2.981400	3.554600	-10.596000	25.390561	0.000841	20.827161
1277.323520	-3.006900	3.552500	-10.681000	25.368607	0.000841	20.811755
1278.323374	-2.972800	3.554700	-10.566000	25.372826	0.000839	20.796077
1279.324392	-2.986000	3.552800	-10.608000	25.373973	0.000839	20.801496
1280.323661	-3.007000	3.552100	-10.680000	25.350883	0.000842	20.802494
1281.323935	-2.992000	3.551600	-10.625000	25.345983	0.000838	20.794728
1282.324296	-3.026000	3.550600	-10.743000	25.340721	0.000837	20.801773
1283.325048	-3.009900	3.550900	-10.687000	25.384484	0.000837	20.794507
1284.329471	-2.983700	3.551200	-10.594000	25.406132	0.000838	20.802494
1285.330851	-2.979000	3.550300	-10.575000	25.398608	0.000836	20.784033
1286.328123	-2.977200	3.550000	-10.568000	25.389734	0.000836	20.797407
1287.332172	-3.038000	3.549600	-10.781000	25.347780	0.000835	20.789895
1288.330943	-2.995000	3.548300	-10.627000	25.323623	0.000835	20.806890
1289.328602	-3.000600	3.549600	-10.649000	25.337919	0.000835	20.781416
1290.333046	-3.008500	3.548000	-10.673000	25.304316	0.000832	20.796515
1291.336547	-2.991500	3.549400	-10.616000	25.261464	0.000835	20.773878
1292.329600	-3.023900	3.547900	-10.727000	25.236685	0.000833	20.799261
1293.333184	-3.024300	3.548100	-10.730000	25.190377	0.000832	20.790228
1294.333810	-3.000800	3.547100	-10.643000	25.178330	0.000832	20.783824
1295.334480	-3.013400	3.546400	-10.686000	25.148967	0.000831	20.804132
1296.333547	-3.007900	3.546200	-10.664000	25.186954	0.000829	20.794378
1297.334585	-3.007000	3.545800	-10.661000	25.219420	0.000828	20.786669
1298.332805	-3.000800	3.545600	-10.638000	25.260882	0.000830	20.788467
1299.335936	-2.974500	3.546600	-10.548000	25.275522	0.000829	20.772820
1300.339013	-3.005500	3.545500	-10.655000	25.320287	0.000829	20.779834
1301.332979	-3.028700	3.545400	-10.736000	25.335700	0.000829	20.805266
1302.336812	-2.991800	3.544600	-10.604000	25.332615	0.000828	20.797427
1303.339833	-2.978300	3.545000	-10.557000	25.312039	0.000827	20.770603
1304.333722	-2.987100	3.545400	-10.590000	25.305109	0.000827	20.786879
1305.335552	-2.964700	3.546100	-10.512000	25.298473	0.000826	20.775948
1306.337885	-2.996300	3.543400	-10.616000	25.323796	0.000825	20.782408
1307.333046	-3.013200	3.542800	-10.674000	25.342961	0.000825	20.770831
1308.334344	-3.003800	3.542900	-10.641000	25.346861	0.000826	20.764790
1309.337702	-3.018400	3.542400	-10.691000	25.373208	0.000824	20.799779
1310.332543	-3.005000	3.543000	-10.646000	25.359716	0.000824	20.778171
1311.337173	-3.027300	3.541900	-10.720000	25.380665	0.000823	20.780240
1312.335932	-3.007600	3.542600	-10.653000	25.399553	0.000825	20.782137
1313.333321	-2.991500	3.540800	-10.592000	25.350695	0.000824	20.774329
1314.338140	-2.994400	3.542100	-10.605000	25.353522	0.000823	20.762468
1315.338791	-2.996100	3.540100	-10.604000	25.350265	0.000822	20.764888
1316.335070	-3.008800	3.539200	-10.648000	25.376513	0.000822	20.761846
1317.337100	-2.990400	3.539100	-10.582000	25.399529	0.000821	20.757930
1318.341298	-2.981400	3.540600	-10.555000	25.413401	0.000819	20.782765
1319.337653	-2.986600	3.541300	-10.575000	25.432509	0.000818	20.792944
1320.341269	-2.971100	3.540700	-10.517000	25.414412	0.000820	20.779039
1321.342087	-2.995300	3.539400	-10.601000	25.421698	0.000818	20.772130
1322.336734	-3.019500	3.537600	-10.681000	25.391225	0.000819	20.770455
1323.340616	-2.970200	3.539100	-10.510000	25.402589	0.000818	20.787556
1324.341571	-2.994800	3.538500	-10.596000	25.437973	0.000818	20.768084
1325.337099	-2.982100	3.538800	-10.552000	25.476275	0.000817	20.775727
1326.340715	-3.007800	3.536900	-10.638000	25.515660	0.000817	20.762647
1327.340508	-2.993500	3.536700	-10.586000	25.551586	0.000817	20.766957
1328.340219	-3.010700	3.537400	-10.648000	25.550697	0.000815	20.754685
1329.344828	-3.021500	3.536400	-10.685000	25.510019	0.000816	20.779742
1330.340650	-2.989100	3.536800	-10.571000	25.512631	0.000817	20.768140
1331.339942	-2.996800	3.535600	-10.594000	25.494990	0.000812	20.753743
1332.342445	-2.991000	3.536500	-10.576000	25.481518	0.000814	20.758232
1333.346651	-2.994300	3.535800	-10.587000	25.475796	0.000815	20.774772
1334.341003	-3.007000	3.534100	-10.627000	25.477072	0.000813	20.745232
1335.344367	-3.017900	3.533600	-10.663000	25.499086	0.000813	20.763546
1336.338118	-3.018000	3.534300	-10.665000	25.466433	0.000810	20.753041
1337.340780	-3.017700	3.534900	-10.666000	25.444087	0.000812	20.751464
1338.342659	-2.993600	3.535800	-10.584000	25.453457	0.000811	20.748545
1339.341891	-3.003400	3.534300	-10.614000	25.473239	0.000810	20.768411
1340.341656	-3.004600	3.533600	-10.616000	25.475030	0.000809	20.779218
1341.345004	-3.010200	3.533000	-10.633000	25.450281	0.000809	20.767167
1342.342726	-3.005000	3.532800	-10.615000	25.448018	0.000809	20.752092
1343.341475	-2.992700	3.532700	-10.571000	25.454782	0.000808	20.758885
1344.344568	-3.000500	3.532000	-10.597000	25.475085	0.000808	20.761256
1345.341180	-3.027400	3.532500	-10.693000	25.467132	0.000807	20.776977
1346.343316	-2.998000	3.532500	-10.589000	25.477673	0.000807	20.751526
1347.347329	-3.005900	3.531300	-10.614000	25.509364	0.000804	20.760117
1348.343519	-2.996600	3.531500	-10.581000	25.524147	0.000803	20.774964
1349.344519	-2.984100	3.530600	-10.534000	25.530138	0.000804	20.763910
1350.345818	-2.998600	3.530500	-10.586000	25.529838	0.000803	20.765505
1351.344305	-2.999800	3.530600	-10.591000	25.499491	0.000802	20.769169
1352.344100	-3.022600	3.529800	-10.668000	25.489932	0.000802	20.750085
1353.358710	-3.003500	3.528800	-10.598000	25.481071	0.000803	20.749722
1354.344735	-2.999200	3.529100	-10.583000	25.453108	0.000802	20.734918
1355.345805	-2.978300	3.529100	-10.510000	25.472639	0.000800	20.768282
1356.346625	-3.012700	3.527400	-10.626000	25.506366	0.000800	20.740036
1357.351682	-3.013400	3.527300	-10.628000	25.508684	0.000801	20.750425
1358.347637	-3.009300	3.526600	-10.611000	25.510701	0.000800	20.736329
1359.350523	-2.976200	3.528500	-10.500000	25.485855	0.000800	20.745517
1360.347602	-3.001400	3.527600	-10.587000	25.440317	0.000798	20.747678
1361.347083	-3.001500	3.525200	-10.580000	25.430089	0.000798	20.754477
1362.349023	-3.023500	3.524400	-10.655000	25.413678	0.000797	20.755542
1363.345975	-3.024500	3.525100	-10.660000	25.463393	0.000796	20.748565
1364.350322	-3.024100	3.525500	-10.659000	25.472211	0.000797	20.735134
1365.347603	-3.010800	3.525700	-10.614000	25.509371	0.000796	20.754908
1366.352829	-2.986200	3.526800	-10.531000	25.541557	0.000795	20.736496
1367.348457	-2.995300	3.524200	-10.555000	25.497053	0.000796	20.743960
1368.352983	-2.979400	3.524700	-10.500000	25.488001	0.000795	20.742457
1369.350108	-3.008300	3.523200	-10.597000	25.484053	0.000794	20.756036
1370.349268	-3.004100	3.523000	-10.582000	25.493171	0.000793	20.749545
1371.349541	-3.011100	3.522400	-10.605000	25.513652	0.000792	20.735498
1372.349496	-2.990700	3.523100	-10.535000	25.520440	0.000793	20.741367
1373.348838	-3.003500	3.522300	-10.577000	25.523248	0.000791	20.738972
1374.352329	-2.995800	3.523100	-10.553000	25.556354	0.000792	20.741398
1375.348740	-2.989300	3.523200	-10.531000	25.538608	0.000791	20.743018
1376.349412	-3.003700	3.521200	-10.575000	25.494558	0.000790	20.729600
1377.350723	-2.981400	3.521500	-10.498000	25.493631	0.000790	20.725350
1378.353319	-3.003900	3.521700	-10.577000	25.497415	0.000789	20.746695
1379.352326	-3.006200	3.521200	-10.583000	25.465909	0.000788	20.747298
1380.351799	-3.017200	3.518800	-10.615000	25.416084	0.000787	20.711489
1381.354796	-2.980200	3.520800	-10.492000	25.355886	0.000787	20.736392
1382.352651	-2.971800	3.520700	-10.461000	25.376688	0.000787	20.735469
1383.352839	-2.988400	3.518200	-10.513000	25.372868	0.000786	20.736848
1384.356750	-2.997200	3.517400	-10.541000	25.364295	0.000786	20.733929
1385.351476	-3.005500	3.517900	-10.572000	25.357935	0.000786	20.736553
1386.351787	-3.004600	3.518600	-10.570000	25.359554	0.000785	20.725850
1387.354958	-2.987200	3.517000	-10.504000	25.382840	0.000784	20.727420
1388.355779	-2.986000	3.518900	-10.506000	25.375414	0.000787	20.741301
1389.352585	-2.999900	3.516300	-10.548000	25.390070	0.000784	20.726620
1390.354458	-3.027700	3.515800	-10.643000	25.385386	0.000783	20.730451
1391.351452	-2.999600	3.517400	-10.550000	25.369729	0.000785	20.737490
1392.352127	-3.009000	3.516800	-10.581000	25.388023	0.000784	20.706070
1393.355555	-2.981100	3.517400	-10.483000	25.359518	0.000782	20.715382
1394.355205	-2.997600	3.515200	-10.536000	25.412577	0.000782	20.734047
1395.351915	-3.011300	3.515200	-10.585000	25.373360	0.000782	20.725013
1396.354384	-2.987300	3.515800	-10.501000	25.386539	0.000781	20.723074
1397.352904	-3.013000	3.513700	-10.586000	25.366031	0.000782	20.729983
1398.355171	-2.998300	3.514000	-10.535000	25.356213	0.000779	20.716805
1399.362367	-2.997400	3.514700	-10.534000	25.365639	0.000777	20.724848
1400.358486	-3.004400	3.513000	-10.552000	25.394340	0.000779	20.723320
1401.355388	-3.003800	3.512500	-10.549000	25.451972	0.000781	20.727612
1402.360011	-3.008800	3.512500	-10.568000	25.490022	0.000778	20.725519
1403.358068	-3.011100	3.511300	-10.571000	25.474814	0.000774	20.717833
1404.356908	-3.014200	3.512500	-10.587000	25.499545	0.000777	20.720383
1405.358271	-2.968400	3.511800	-10.423000	25.548243	0.000778	20.720450
1406.357834	-2.949700	3.512900	-10.360000	25.546956	0.000777	20.716786
1407.358210	-3.001200	3.510900	-10.536000	25.555178	0.000777	20.727415
1408.362844	-2.993400	3.511000	-10.508000	25.573070	0.000774	20.720253
1409.360270	-2.989000	3.509800	-10.489000	25.555902	0.000774	20.732410
1410.357786	-3.005900	3.510700	-10.552000	25.591361	0.000774	20.710172
1411.363683	-3.005200	3.510300	-10.547000	25.533638	0.000774	20.724275
1412.358777	-2.997800	3.508500	-10.516000	25.513440	0.000774	20.707783
1413.359083	-2.996400	3.509900	-10.514000	25.510999	0.000772	20.715764
1414.362884	-2.991100	3.509200	-10.495000	25.509908	0.000772	20.708029
1415.363480	-2.992700	3.508100	-10.498000	25.511195	0.000772	20.728290
1416.359647	-3.000200	3.507500	-10.521000	25.527402	0.000770	20.719435
1417.364186	-2.974700	3.507900	-10.434000	25.551855	0.000772	20.718862
1418.363531	-2.978900	3.506800	-10.445000	25.558962	0.000773	20.730741
1419.361143	-3.002600	3.506600	-10.528000	25.596463	0.000772	20.707709
1420.360158	-3.002100	3.507300	-10.528000	25.564879	0.000769	20.721984
1421.361178	-3.007300	3.506100	-10.543000	25.512226	0.000769	20.715100
1422.361376	-2.999700	3.504700	-10.512000	25.455671	0.000767	20.726111
1423.362720	-3.023300	3.503000	-10.589000	25.423611	0.000769	20.720470
1424.361677	-3.028400	3.503400	-10.608000	25.369976	0.000767	20.700751
1425.361532	-3.028600	3.503400	-10.608000	25.354717	0.000767	20.722416
1426.360555	-3.012000	3.504400	-10.554000	25.375152	0.000766	20.690775
1427.362302	-3.022600	3.502600	-10.586000	25.381266	0.000766	20.712563
1428.361698	-3.000200	3.504000	-10.511000	25.395138	0.000767	20.698990
1429.363694	-2.988800	3.503700	-10.471000	25.405827	0.000766	20.718260
1430.363074	-2.987400	3.502900	-10.462000	25.450759	0.000763	20.713592
1431.363656	-2.977800	3.503000	-10.431000	25.475392	0.000764	20.716043
1432.364062	-3.013400	3.502000	-10.553000	25.517660	0.000762	20.699692
1433.366107	-2.987500	3.501800	-10.460000	25.501435	0.000764	20.700468
1434.364606	-3.010300	3.501000	-10.538000	25.483328	0.000761	20.694138
1435.364916	-3.003500	3.502700	-10.520000	25.446712	0.000762	20.700992
1436.363337	-2.980200	3.500300	-10.431000	25.426316	0.000760	20.714651
1437.364538	-2.978500	3.502100	-10.429000	25.418737	0.000760	20.704669
1438.368166	-3.014600	3.500200	-10.551000	25.419209	0.000760	20.694711
1439.364984	-2.988500	3.500700	-10.460000	25.412353	0.000761	20.709165
1440.366072	-2.980500	3.500200	-10.430000	25.410262	0.000761	20.701374
1441.375831	-3.048800	3.496000	-10.657000	25.391276	0.000759	20.696060
1442.369018	-3.010000	3.498900	-10.531000	25.372198	0.000757	20.696818
1443.367627	-3.006400	3.498100	-10.516000	25.362655	0.000758	20.702884
1444.368816	-3.007300	3.497300	-10.517000	25.406889	0.000760	20.703678
1445.370282	-3.007400	3.496700	-10.514000	25.414052	0.000758	20.710397
1446.370497	-2.987400	3.498400	-10.450000	25.428022	0.000757	20.688861
1447.369882	-2.999700	3.498100	-10.491000	25.472904	0.000758	20.713070
1448.368582	-2.996900	3.496000	-10.476000	25.443083	0.000756	20.706831
1449.370001	-2.974700	3.497600	-10.403000	25.462645	0.000754	20.701819
1450.370749	-3.006300	3.495000	-10.506000	25.430414	0.000755	20.703118
1451.371606	-2.994900	3.495000	-10.466000	25.402499	0.000754	20.693579
1452.371209	-2.998400	3.496200	-10.481000	25.376810	0.000752	20.692914
1453.373334	-3.000100	3.495000	-10.483000	25.365502	0.000753	20.682506
1454.371081	-3.000200	3.494100	-10.481000	25.374652	0.000754	20.657078
1455.371907	-2.996200	3.493000	-10.465000	25.438350	0.000753	20.685481
1456.372773	-2.988500	3.494500	-10.442000	25.431543	0.000754	20.708046
1457.372743	-2.995300	3.493100	-10.461000	25.439227	0.000751	20.704382
1458.369799	-2.998200	3.491500	-10.467000	25.468177	0.000751	20.684613
1459.374732	-2.990300	3.493000	-10.444000	25.470814	0.000751	20.693426
1460.373534	-2.996800	3.491800	-10.463000	25.469349	0.000751	20.681048
1461.374506	-2.998100	3.491600	-10.467000	25.487169	0.000750	20.681399
1462.377067	-3.001100	3.490700	-10.475000	25.483514	0.000748	20.686264
1463.375361	-2.981500	3.491300	-10.408000	25.478327	0.000751	20.691487
1464.373379	-3.017100	3.490000	-10.529000	25.419880	0.000749	20.674995
1465.373276	-3.012200	3.489800	-10.510000	25.419979	0.000746	20.675093
1466.375615	-2.986300	3.490100	-10.421000	25.399349	0.000747	20.689467
1467.374575	-2.995400	3.489100	-10.451000	25.412717	0.000747	20.677759
1468.375851	-2.972400	3.490400	-10.374000	25.415974	0.000746	20.690988
1469.373515	-2.991100	3.489200	-10.436000	25.409419	0.000746	20.691518
1470.374955	-3.000300	3.489100	-10.467000	25.385514	0.000746	20.685058
1471.376349	-3.005400	3.487600	-10.481000	25.415680	0.000745	20.696383
1472.377494	-2.999400	3.487700	-10.460000	25.406732	0.000745	20.689769
1473.376099	-2.992300	3.487900	-10.435000	25.416109	0.000745	20.682114
1474.379537	-2.999800	3.487100	-10.460000	25.421996	0.000744	20.688500
1475.376303	-3.009500	3.486200	-10.491000	25.420604	0.000744	20.683783
1476.377429	-2.995100	3.486200	-10.441000	25.377112	0.000744	20.680414
1477.379508	-2.973900	3.486800	-10.369000	25.362253	0.000744	20.679719
1478.377447	-3.012800	3.485300	-10.500000	25.337158	0.000742	20.682971
1479.378690	-3.006200	3.484700	-10.474000	25.334962	0.000744	20.679817
1480.379992	-2.990000	3.486100	-10.422000	25.342843	0.000744	20.663546
1481.382318	-2.993800	3.484700	-10.432000	25.349577	0.000739	20.684534
1482.380302	-2.999900	3.483500	-10.449000	25.367552	0.000739	20.686462
1483.386593	-2.990700	3.482800	-10.414000	25.388281	0.000740	20.675981
1484.380658	-3.008600	3.483100	-10.478000	25.349461	0.000740	20.664976
1485.380708	-3.010100	3.482500	-10.481000	25.353263	0.000739	20.690133
1486.384094	-2.993700	3.482900	-10.425000	25.261795	0.000740	20.698816
1487.384776	-2.986200	3.482900	-10.399000	25.288315	0.000738	20.688932
1488.380093	-2.984300	3.482200	-10.390000	25.308334	0.000737	20.705240
1489.383767	-2.968300	3.482100	-10.334000	25.367160	0.000737	20.703140
1490.381649	-2.970000	3.482000	-10.339000	25.352920	0.000739	20.691685
1491.382450	-2.996100	3.480800	-10.428000	25.371606	0.000738	20.691007
1492.387593	-3.007400	3.479900	-10.464000	25.376733	0.000736	20.694260
1493.382382	-2.991100	3.480000	-10.408000	25.410064	0.000737	20.693114
1494.382066	-3.010800	3.478400	-10.470000	25.430344	0.000734	20.701625
1495.383517	-3.007400	3.478400	-10.459000	25.449679	0.000735	20.701600
1496.385867	-3.010100	3.479100	-10.471000	25.457038	0.000734	20.702826
1497.382855	-3.038300	3.476600	-10.561000	25.489789	0.000733	20.689247
1498.382322	-3.007000	3.477200	-10.454000	25.516243	0.000735	20.684518
1499.384862	-3.016400	3.475900	-10.484000	25.500858	0.000734	20.704631
1500.385277	-3.011300	3.477200	-10.470000	25.494616	0.000732	20.695516
1501.382057	-3.008500	3.477100	-10.460000	25.519346	0.000731	20.700437
1502.385963	-2.995600	3.477600	-10.416000	25.544922	0.000732	20.697198
1503.382881	-3.018900	3.476400	-10.494000	25.510774	0.000733	20.700838
1504.382830	-3.017900	3.474600	-10.484000	25.472909	0.000731	20.694581
1505.384399	-2.988700	3.475700	-10.387000	25.447982	0.000731	20.686144
1506.383489	-2.978800	3.477600	-10.358000	25.426267	0.000730	20.698480
1507.383594	-3.005100	3.475500	-10.443000	25.446075	0.000727	20.687074
1508.387931	-2.989400	3.476400	-10.392000	25.447442	0.000728	20.673748
1509.386778	-2.995800	3.475700	-10.411000	25.458726	0.000727	20.694563
1510.388691	-3.009500	3.473700	-10.453000	25.482740	0.000727	20.709196
1511.390029	-3.013300	3.472800	-10.462000	25.490067	0.000727	20.697587
1512.388918	-2.991900	3.473600	-10.391000	25.451619	0.000728	20.689797
1513.390883	-3.002200	3.473500	-10.427000	25.488878	0.000727	20.710144
1514.390551	-3.022800	3.472800	-10.496000	25.446358	0.000727	20.697317
1515.389761	-3.003700	3.472300	-10.429000	25.484009	0.000725	20.689606
1516.390429	-3.006200	3.471700	-10.436000	25.485481	0.000726	20.684446
1517.388847	-3.019100	3.471000	-10.478000	25.498978	0.000726	20.708433
1518.390722	-3.006700	3.470500	-10.434000	25.511726	0.000725	20.702743
1519.389511	-3.008500	3.470300	-10.439000	25.485512	0.000724	20.695384
1520.389493	-2.998200	3.470000	-10.403000	25.481833	0.000725	20.703543
1521.390407	-2.999300	3.469500	-10.405000	25.520134	0.000723	20.697435
1522.389235	-2.986000	3.471400	-10.364000	25.522249	0.000723	20.696715
1523.392844	-2.980400	3.469500	-10.340000	25.509746	0.000720	20.685580
1524.391192	-3.021900	3.467700	-10.478000	25.483305	0.000723	20.703125
1525.389488	-3.008600	3.468900	-10.436000	25.449732	0.000722	20.706869
1526.390841	-3.007600	3.468200	-10.430000	25.482312	0.000721	20.712560
1527.390659	-3.005300	3.467700	-10.420000	25.479926	0.000722	20.693093
1528.403663	-3.002000	3.468400	-10.411000	25.517657	0.000721	20.717709
1529.393021	-2.999100	3.465700	-10.391000	25.561290	0.000719	20.718380
1530.390761	-3.011800	3.465800	-10.436000	25.588355	0.000718	20.701463
1531.391510	-2.986800	3.466700	-10.354000	25.605051	0.000719	20.705429
1532.395772	-3.003500	3.466300	-10.409000	25.626505	0.000720	20.690939
1533.390966	-3.002600	3.465300	-10.404000	25.661329	0.000720	20.712166
1534.391528	-3.000900	3.465500	-10.398000	25.661709	0.000717	20.721084
1535.394267	-2.992700	3.465400	-10.369000	25.666804	0.000718	20.704389
1536.394043	-2.993400	3.464300	-10.369000	25.654359	0.000718	20.680981
1537.392672	-2.995500	3.463500	-10.374000	25.623151	0.000715	20.720764
1538.396659	-3.010300	3.464100	-10.426000	25.623728	0.000717	20.728456
1539.394639	-3.004600	3.462500	-10.402000	25.585486	0.000718	20.718498
1540.393783	-2.975800	3.463300	-10.304000	25.516928	0.000714	20.707967
1541.398554	-3.025600	3.461500	-10.472000	25.527837	0.000713	20.716078
1542.399332	-3.015300	3.461900	-10.438000	25.531743	0.000717	20.711466
1543.396957	-3.010400	3.461500	-10.419000	25.556368	0.000715	20.711539
1544.397685	-2.988000	3.462600	-10.345000	25.563688	0.000713	20.726479
1545.397659	-2.998400	3.461900	-10.378000	25.614366	0.000713	20.701508
1546.398547	-3.011100	3.460200	-10.418000	25.616401	0.000713	20.712562
1547.400334	-3.005500	3.461500	-10.402000	25.607137	0.000712	20.728863
1548.396883	-2.993000	3.461200	-10.357000	25.615561	0.000711	20.712667
1549.397442	-3.021900	3.458300	-10.449000	25.553689	0.000713	20.725919
1550.399459	-3.005200	3.458000	-10.391000	25.525661	0.000709	20.694451
1551.399059	-3.030400	3.458500	-10.479000	25.516015	0.000711	20.728863
1552.399404	-3.021300	3.459700	-10.452000	25.510233	0.000708	20.731591
1553.400627	-3.007300	3.458000	-10.398000	25.509062	0.000707	20.708128
1554.399051	-3.003800	3.458800	-10.389000	25.546337	0.000708	20.710949
1555.399317	-3.008100	3.456100	-10.395000	25.579393	0.000707	20.702894
1556.404031	-3.008400	3.456600	-10.398000	25.561477	0.000708	20.723783
1557.399373	-3.001500	3.457000	-10.374000	25.562047	0.000708	20.735262
1558.398726	-2.996000	3.455700	-10.352000	25.542567	0.000708	20.721862
1559.397869	-2.986900	3.455200	-10.319000	25.543633	0.000706	20.714872
1560.405874	-3.012200	3.454200	-10.404000	25.569559	0.000706	20.738539
1561.410154	-2.974500	3.456500	-10.280000	25.560508	0.000705	20.734665
1562.398582	-2.991000	3.454900	-10.332000	25.525275	0.000704	20.738163
1563.400930	-2.995400	3.454400	-10.345000	25.526342	0.000705	20.715051
1564.401926	-3.002000	3.454400	-10.369000	25.553929	0.000706	20.727109
1565.399836	-3.011400	3.453600	-10.399000	25.557203	0.000704	20.719491
1566.400553	-2.983600	3.453500	-10.303000	25.551789	0.000704	20.737762
1567.400997	-3.055800	3.450700	-10.544000	25.571864	0.000704	20.732318
1568.401694	-3.031200	3.451600	-10.460000	25.612337	0.000703	20.727447
1569.401851	-3.020200	3.451900	-10.424000	25.579865	0.000703	20.725181
1570.401980	-3.009100	3.451600	-10.385000	25.555234	0.000703	20.736007
1571.402985	-3.004900	3.450900	-10.368000	25.532180	0.000701	20.723758
1572.402884	-3.002400	3.451500	-10.362000	25.491028	0.000702	20.736013
1573.402995	-3.000700	3.450300	-10.353000	25.469627	0.000699	20.740127
1574.403435	-3.022300	3.451100	-10.429000	25.449869	0.000701	20.710801
1575.403264	-2.995600	3.450000	-10.334000	25.427505	0.000701	20.723432
1576.404393	-2.990000	3.450500	-10.316000	25.426284	0.000702	20.732638
1577.402744	-3.006900	3.449300	-10.371000	25.403944	0.000697	20.740552
1578.407983	-3.007200	3.449800	-10.373000	25.387718	0.000699	20.753656
1579.403146	-3.000000	3.449400	-10.347000	25.363015	0.000699	20.738335
1580.403228	-3.021700	3.446900	-10.415000	25.350755	0.000698	20.733611
1581.405316	-3.005000	3.448600	-10.361000	25.377077	0.000697	20.743446
1582.407556	-3.004100	3.447700	-10.357000	25.410530	0.000696	20.733414
1583.404959	-3.012600	3.446300	-10.381000	25.448949	0.000698	20.742122
1584.407984	-2.987900	3.446200	-10.296000	25.504788	0.000696	20.710475
1585.406479	-3.003400	3.445000	-10.346000	25.472313	0.000695	20.759894
1586.407407	-3.018200	3.445300	-10.397000	25.477906	0.000695	20.737534
1587.406251	-3.021800	3.445000	-10.409000	25.486723	0.000695	20.732638
1588.406922	-3.014500	3.445200	-10.384000	25.522215	0.000693	20.756427
1589.406234	-3.026700	3.444200	-10.423000	25.523276	0.000693	20.757492
1590.410492	-2.999800	3.444200	-10.330000	25.545939	0.000693	20.741844
1591.405839	-3.033500	3.443000	-10.443000	25.563009	0.000691	20.748557
1592.406580	-3.017500	3.444300	-10.392000	25.601006	0.000692	20.750207
1593.410354	-3.015700	3.443600	-10.383000	25.596603	0.000692	20.747682
1594.408950	-2.996000	3.442000	-10.310000	25.630099	0.000691	20.757615
1595.409017	-3.015800	3.442200	-10.379000	25.651343	0.000691	20.749554
1596.413244	-2.999100	3.442800	-10.325000	25.665383	0.000693	20.755121
1597.409062	-3.009500	3.442000	-10.358000	25.673954	0.000691	20.761833
1598.410075	-3.001300	3.441500	-10.327000	25.657033	0.000689	20.758588
1599.412100	-2.978100	3.443000	-10.252000	25.627161	0.000691	20.764148
1600.409589	-2.975800	3.441700	-10.241000	25.640699	0.000690	20.745027
1601.410913	-2.978100	3.442200	-10.250000	25.639461	0.000690	20.750422
1602.411477	-2.984700	3.442600	-10.274000	25.665083	0.000688	20.760035
1603.410088	-2.968700	3.440300	-10.213000	25.661582	0.000689	20.759364
1604.410356	-2.982000	3.440800	-10.260000	25.694401	0.000687	20.765300
1605.411888	-2.961900	3.440200	-10.188000	25.705308	0.000686	20.752547
1606.411566	-2.985600	3.439200	-10.266000	25.721848	0.000687	20.759203
1607.410392	-2.993900	3.439200	-10.295000	25.731264	0.000686	20.759653
1608.414624	-2.978100	3.438500	-10.239000	25.728089	0.000684	20.776852
1609.411994	-2.988900	3.439600	-10.279000	25.748933	0.000687	20.732828
1610.413451	-3.000400	3.438700	-10.317000	25.729407	0.000684	20.757787
1611.414459	-2.999400	3.437300	-10.307000	25.738051	0.000683	20.748926
1612.415732	-2.998200	3.437200	-10.303000	25.710948	0.000683	20.759635
1613.413291	-2.989500	3.437300	-10.275000	25.681158	0.000684	20.775707
1614.415803	-2.995500	3.435900	-10.292000	25.648462	0.000683	20.774162
1615.415138	-3.012900	3.436100	-10.352000	25.607008	0.000682	20.767615
1616.412971	-3.000600	3.436500	-10.310000	25.644035	0.000682	20.777302
1617.415903	-2.967100	3.435200	-10.191000	25.632337	0.000682	20.766501
1618.412290	-3.002500	3.434300	-10.311000	25.647094	0.000679	20.781323
1619.413411	-2.984000	3.434800	-10.247000	25.617701	0.000679	20.764131
1620.413957	-3.011400	3.433700	-10.339000	25.591840	0.000680	20.786995
1621.413647	-3.001500	3.433500	-10.305000	25.582992	0.000679	20.774316
1622.413449	-2.993500	3.433500	-10.277000	25.577050	0.000679	20.765030
1623.416037	-3.018000	3.431900	-10.356000	25.561893	0.000679	20.793430
1624.414587	-2.996200	3.433600	-10.287000	25.551887	0.000679	20.769156
1625.413786	-2.989200	3.433900	-10.264000	25.593483	0.000679	20.782008
1626.417486	-2.984900	3.432600	-10.245000	25.613190	0.000677	20.789945
1627.413984	-2.989100	3.432500	-10.259000	25.616746	0.000677	20.792569
1628.413379	-3.001500	3.430800	-10.298000	25.598236	0.000676	20.771607
1629.419835	-2.965500	3.431700	-10.175000	25.608125	0.000674	20.780118
1630.413609	-2.983700	3.431800	-10.238000	25.595752	0.000673	20.788080
1631.416922	-2.985900	3.430700	-10.243000	25.630787	0.000674	20.786756
1632.419569	-2.992900	3.431100	-10.267000	25.632811	0.000675	20.786892
1633.416676	-3.021600	3.428600	-10.359000	25.665214	0.000675	20.785772
1634.415713	-2.997300	3.430000	-10.279000	25.686587	0.000675	20.771677
1635.419393	-3.012400	3.427700	-10.324000	25.693490	0.000673	20.780507
1636.415978	-2.994300	3.428300	-10.265000	25.721569	0.000674	20.775045
1637.418278	-3.000200	3.427800	-10.283000	25.702686	0.000673	20.787373
1638.419960	-2.981100	3.428200	-10.218000	25.734143	0.000671	20.779614
1639.417719	-3.012300	3.426700	-10.321000	25.742843	0.000673	20.776025
1640.416848	-2.992600	3.426200	-10.251000	25.769456	0.000671	20.794221
1641.421877	-2.998800	3.426200	-10.274000	25.749986	0.000671	20.780355
1642.416832	-3.006100	3.425300	-10.296000	25.734978	0.000669	20.770021
1643.416421	-2.970500	3.426900	-10.179000	25.697433	0.000671	20.782097
1644.419450	-2.977600	3.426900	-10.203000	25.677165	0.000670	20.787344
1645.416736	-3.010600	3.424300	-10.307000	25.669244	0.000670	20.769431
1646.418057	-2.999600	3.425300	-10.273000	25.712945	0.000670	20.801470
1647.423059	-3.008400	3.422700	-10.295000	25.713043	0.000667	20.807733
1648.420197	-2.998100	3.424300	-10.265000	25.728302	0.000667	20.780860
1649.420527	-2.982100	3.424900	-10.212000	25.753241	0.000666	20.795004
1650.428126	-3.002200	3.422800	-10.275000	25.762192	0.000668	20.796409
1651.419065	-2.997100	3.424200	-10.261000	25.784004	0.000666	20.805990
1652.420815	-2.995000	3.422300	-10.248000	25.790735	0.000667	20.790940
1653.425756	-2.994100	3.422500	-10.247000	25.770063	0.000667	20.806686
1654.421572	-3.009700	3.421400	-10.296000	25.771130	0.000666	20.816766
1655.421214	-3.019600	3.422100	-10.331000	25.811498	0.000667	20.804210
1656.424965	-3.008400	3.422200	-10.294000	25.810162	0.000664	20.804290
1657.423783	-2.992000	3.420200	-10.232000	25.833389	0.000665	20.802492
1658.425104	-2.987100	3.420700	-10.217000	25.800470	0.000664	20.800245
1659.429702	-3.007400	3.421300	-10.288000	25.785812	0.000663	20.811125
1660.425417	-2.981800	3.421200	-10.200000	25.748619	0.000661	20.793206
1661.431241	-2.996300	3.421000	-10.249000	25.776567	0.000662	20.805158
1662.428315	-3.007200	3.419200	-10.281000	25.757287	0.000662	20.793852
1663.426596	-3.001400	3.419500	-10.262000	25.749605	0.000662	20.810792
1664.426935	-3.009400	3.417400	-10.283000	25.798501	0.000659	20.816759
1665.431253	-3.032700	3.418200	-10.364000	25.795718	0.000661	20.798317
1666.428634	-3.000900	3.417600	-10.255000	25.804760	0.000661	20.814037
1667.428004	-3.020500	3.416400	-10.318000	25.768665	0.000661	20.810497
1668.430888	-3.003900	3.417500	-10.263000	25.768610	0.000659	20.814708
1669.434793	-3.017300	3.416600	-10.308000	25.798005	0.000658	20.826217
1670.430911	-3.004100	3.416400	-10.262000	25.821453	0.000658	20.830330
1671.438765	-2.992700	3.416700	-10.225000	25.827442	0.000658	20.803157
1672.432608	-3.003100	3.416200	-10.259000	25.791568	0.000659	20.828286
1673.431315	-2.986000	3.416000	-10.200000	25.798072	0.000657	20.817276
1674.436147	-3.002100	3.416700	-10.257000	25.794229	0.000660	20.827640
1675.432473	-3.016400	3.415900	-10.302000	25.801138	0.000656	20.819881
1676.433546	-3.033900	3.412500	-10.353000	25.834424	0.000658	20.822024
1677.435995	-3.008500	3.414100	-10.270000	25.823194	0.000658	20.810269
1678.443631	-2.984200	3.415100	-10.190000	25.842375	0.000655	20.812941
1679.435211	-3.011600	3.413400	-10.279000	25.881072	0.000657	20.848021
1680.443872	-2.996800	3.413300	-10.228000	25.860157	0.000656	20.835072
1681.435452	-2.979200	3.414000	-10.171000	25.863265	0.000654	20.827763
1682.436899	-2.994200	3.412400	-10.217000	25.856210	0.000655	20.850546
1683.436315	-2.999800	3.410900	-10.230000	25.898022	0.000653	20.820479
1684.436768	-2.999300	3.411600	-10.231000	25.905193	0.000654	20.821519
1685.435346	-2.993200	3.413200	-10.214000	25.881998	0.000653	20.828089
1686.439187	-3.016800	3.411000	-10.289000	25.904022	0.000654	20.825558
1687.435840	-2.987800	3.412200	-10.194000	25.866262	0.000652	20.858747
1688.442814	-3.012100	3.409500	-10.269000	25.851980	0.000651	20.844874
1689.448693	-3.006400	3.409800	-10.249000	25.851630	0.000650	20.852584
1690.439689	-2.986200	3.409700	-10.180000	25.825865	0.000650	20.830022
1691.439469	-2.999400	3.408600	-10.223000	25.802460	0.000650	20.835908
1692.443146	-2.994500	3.410800	-10.212000	25.755851	0.000651	20.824652
1693.439717	-3.022800	3.407700	-10.299000	25.724395	0.000649	20.830514
1694.438827	-3.006800	3.408000	-10.247000	25.746477	0.000650	20.844159
1695.438292	-3.006100	3.408300	-10.243000	25.770600	0.000647	20.832829
1696.437949	-3.001000	3.409000	-10.229000	25.789702	0.000646	20.837317
1697.440586	-3.029200	3.406000	-10.316000	25.834870	0.000649	20.847127
1698.438751	-3.017800	3.406800	-10.281000	25.866120	0.000647	20.820199
1699.441708	-2.976000	3.407000	-10.138000	25.844978	0.000646	20.846849
1700.442217	-2.988900	3.406100	-10.179000	25.836831	0.000646	20.830606
1701.441103	-3.014200	3.404000	-10.260000	25.822786	0.000645	20.835938
1702.443186	-2.982600	3.405200	-10.154000	25.811881	0.000644	20.859121
1703.442016	-2.989500	3.406100	-10.181000	25.787783	0.000643	20.852458
1704.442891	-2.998800	3.405000	-10.210000	25.765744	0.000645	20.844072
1705.441865	-2.989300	3.404600	-10.176000	25.799350	0.000643	20.844638
1706.443567	-2.969500	3.406100	-10.113000	25.787721	0.000644	20.854293
1707.442230	-2.979300	3.403600	-10.139000	25.774853	0.000641	20.838997
1708.443298	-3.009100	3.401800	-10.235000	25.828217	0.000643	20.831910
1709.443713	-2.978200	3.403900	-10.136000	25.821595	0.000642	20.841379
1710.442506	-2.999900	3.402600	-10.207000	25.861569	0.000640	20.836016
1711.443266	-3.010700	3.401100	-10.239000	25.880946	0.000639	20.836989
1712.443408	-3.012400	3.402400	-10.248000	25.912936	0.000641	20.835462
1713.447155	-3.014200	3.400300	-10.247000	25.911698	0.000641	20.806243
1714.447342	-3.011700	3.400300	-10.240000	25.886082	0.000639	20.824606
1715.443586	-2.974400	3.401600	-10.117000	25.905930	0.000638	20.827475
1716.443809	-3.007400	3.400800	-10.227000	25.866993	0.000638	20.815861
1717.445865	-2.981600	3.400400	-10.138000	25.895540	0.000638	20.810399
1718.450536	-2.992400	3.400600	-10.174000	25.894081	0.000637	20.787123
1719.445064	-3.013600	3.398700	-10.241000	25.920653	0.000637	20.823299
1720.445651	-2.993200	3.399400	-10.174000	25.941266	0.000638	20.824094
1721.451185	-2.996600	3.398700	-10.182000	25.967384	0.000636	20.818091
1722.446463	-2.991700	3.398100	-10.164000	25.970877	0.000637	20.829660
1723.446005	-2.995100	3.399500	-10.180000	25.990024	0.000637	20.800534
1724.447416	-2.985000	3.399700	-10.147000	25.999316	0.000637	20.814136
1725.446470	-3.001400	3.397800	-10.197000	25.999764	0.000634	20.810319
1726.447126	-3.005500	3.397500	-10.209000	25.937539	0.000636	20.822246
1727.449507	-3.020800	3.396500	-10.259000	25.928719	0.000635	20.819549
1728.448526	-2.999900	3.396800	-10.189000	25.881612	0.000630	20.793563
1729.448446	-3.005000	3.397100	-10.206000	25.821747	0.000634	20.820195
1730.447644	-2.971800	3.396300	-10.092000	25.795712	0.000633	20.827708
1731.448645	-2.991100	3.397100	-10.160000	25.795461	0.000632	20.813705
1732.450044	-2.999400	3.394100	-10.179000	25.816751	0.000633	20.830823
1733.451574	-3.000400	3.394500	-10.184000	25.817027	0.000633	20.805971
1734.449697	-3.016500	3.394900	-10.240000	25.824132	0.000630	20.806470
1735.451121	-3.000800	3.394900	-10.187000	25.815341	0.000630	20.818502
1736.450737	-3.018900	3.394400	-10.247000	25.802272	0.000632	20.792097
1737.449255	-2.994900	3.394600	-10.165000	25.824953	0.000628	20.816778
1738.450356	-2.978700	3.394500	-10.111000	25.836509	0.000630	20.808945
1739.450765	-3.004300	3.393600	-10.194000	25.870591	0.000630	20.811889
1740.450835	-2.989400	3.392300	-10.139000	25.900376	0.000629	20.805774
1741.450557	-2.984200	3.392300	-10.122000	25.868035	0.000626	20.811692
1742.451438	-3.005200	3.392700	-10.195000	25.869420	0.000626	20.784160
1743.449278	-2.983300	3.392500	-10.120000	25.858074	0.000626	20.805953
1744.451152	-2.978800	3.391600	-10.102000	25.904011	0.000627	20.806107
1745.452040	-2.973600	3.394700	-10.092000	25.904955	0.000628	20.824599
1746.450617	-2.994400	3.391500	-10.154000	25.895172	0.000625	20.804814
1747.452249	-2.983600	3.391200	-10.117000	25.897225	0.000625	20.787436
1748.448887	-3.005000	3.390600	-10.188000	25.907137	0.000622	20.795971
1749.451618	-2.999200	3.390200	-10.167000	25.897274	0.000624	20.804555
1750.452154	-3.004900	3.389100	-10.184000	25.889932	0.000624	20.785325
1751.451471	-2.991600	3.389800	-10.139000	25.911520	0.000621	20.791366
1752.450338	-2.992900	3.389700	-10.144000	25.898623	0.000623	20.774616
1753.452503	-3.005900	3.388400	-10.184000	25.904189	0.000621	20.801545
1754.452544	-2.996400	3.387500	-10.149000	25.892714	0.000621	20.782905
1755.452215	-2.999300	3.387700	-10.160000	25.847262	0.000621	20.768539
1756.453173	-2.992200	3.388700	-10.139000	25.825421	0.000621	20.785953
1757.452948	-2.982700	3.388400	-10.106000	25.836161	0.000621	20.805277
1758.451058	-2.996100	3.386900	-10.146000	25.811242	0.000621	20.781668
1759.453490	-3.000400	3.386500	-10.160000	25.808882	0.000620	20.756537
1760.451382	-3.008100	3.385700	-10.184000	25.812518	0.000619	20.778208
1761.452990	-3.012300	3.384600	-10.194000	25.817165	0.000617	20.781453
1762.452096	-3.007000	3.385600	-10.179000	25.860443	0.000619	20.772296
1763.451492	-3.004900	3.385400	-10.172000	25.845118	0.000618	20.798154
1764.452259	-2.983300	3.385400	-10.099000	25.841171	0.000615	20.781860
1765.453519	-2.982900	3.385300	-10.097000	25.849250	0.000617	20.777174
1766.453579	-2.998500	3.385200	-10.150000	25.899233	0.000616	20.777599
1767.454720	-2.998300	3.384000	-10.145000	25.865851	0.000616	20.755917
1768.464098	-3.011000	3.384300	-10.189000	25.839093	0.000615	20.799214
1769.455122	-3.005300	3.384100	-10.169000	25.802558	0.000615	20.780057
1770.454321	-3.012300	3.383300	-10.191000	25.818233	0.000615	20.767353
1771.456100	-3.010000	3.381700	-10.177000	25.871178	0.000613	20.796832
1772.455740	-2.999500	3.383800	-10.148000	25.853910	0.000615	20.774269
1773.455577	-3.004500	3.382700	-10.162000	25.890701	0.000614	20.775667
1774.454738	-3.009400	3.381700	-10.176000	25.841068	0.000612	20.776067
1775.457959	-3.001400	3.381600	-10.149000	25.853071	0.000615	20.746872
1776.457164	-3.034000	3.380100	-10.253000	25.799138	0.000610	20.779467
1777.458026	-2.997800	3.381500	-10.136000	25.788809	0.000610	20.763401
1778.458874	-2.971200	3.381900	-10.047000	25.785578	0.000610	20.780545
1779.456943	-2.991500	3.380300	-10.111000	25.803712	0.000609	20.759404
1780.459010	-3.009600	3.380400	-10.172000	25.778498	0.000610	20.758733
1781.458120	-2.989200	3.380700	-10.105000	25.812491	0.000610	20.776758
1782.459407	-3.022900	3.379400	-10.214000	25.834235	0.000608	20.774893
1783.459570	-2.989200	3.379100	-10.100000	25.828784	0.000607	20.769418
1784.460896	-2.975200	3.381000	-10.057000	25.883323	0.000607	20.763987
1785.460228	-2.999700	3.378500	-10.133000	25.856542	0.000608	20.774067
1786.460652	-2.976200	3.378300	-10.054000	25.853318	0.000607	20.757078
1787.460988	-2.983000	3.377600	-10.073000	25.842958	0.000608	20.756628
1788.459922	-2.994300	3.376700	-10.110000	25.886309	0.000606	20.766986
1789.461405	-2.993400	3.376700	-10.107000	25.904416	0.000605	20.758149
1790.464718	-2.998200	3.377200	-10.125000	25.886088	0.000604	20.764868
1791.460178	-2.985000	3.377500	-10.080000	25.871554	0.000605	20.766863
1792.462318	-3.018100	3.376900	-10.190000	25.885763	0.000605	20.746997
1793.461499	-2.999500	3.375100	-10.123000	25.829822	0.000604	20.755286
1794.459702	-2.988200	3.375400	-10.086000	25.805595	0.000606	20.761770
1795.460409	-3.009200	3.375800	-10.158000	25.775018	0.000604	20.739589
1796.461218	-3.003500	3.374900	-10.136000	25.811965	0.000603	20.743513
1797.461887	-2.997300	3.374300	-10.114000	25.853048	0.000603	20.755385
1798.460646	-3.002600	3.374200	-10.131000	25.887854	0.000600	20.754788
1799.463959	-3.013800	3.373000	-10.165000	25.880970	0.000600	20.754036
1800.463341	-3.004300	3.373600	-10.134000	25.915425	0.000601	20.742182
1801.462543	-3.012300	3.373500	-10.161000	25.933409	0.000600	20.743654
1802.466678	-2.976700	3.373200	-10.040000	25.919746	0.000599	20.752213
1803.469640	-3.012300	3.371600	-10.156000	25.887651	0.000600	20.747946
1804.466796	-2.997600	3.372500	-10.108000	25.875876	0.000598	20.760299
1805.467287	-2.999600	3.372200	-10.114000	25.892249	0.000598	20.762522
1806.466059	-2.996900	3.372300	-10.105000	25.869568	0.000597	20.744479
1807.464365	-2.985400	3.371300	-10.063000	25.912869	0.000597	20.756684
1808.469173	-3.000700	3.370600	-10.114000	25.919477	0.000597	20.735821
1809.469792	-3.005700	3.369100	-10.125000	25.887707	0.000598	20.752269
1810.466103	-2.994300	3.370000	-10.090000	25.849027	0.000596	20.754665
1811.467844	-2.994000	3.370300	-10.089000	25.825948	0.000596	20.745705
1812.469584	-3.015800	3.369800	-10.161000	25.809305	0.000596	20.760755
1813.467412	-3.005800	3.368300	-10.124000	25.796039	0.000594	20.753593
1814.469003	-2.978000	3.370200	-10.035000	25.806455	0.000594	20.744615
1815.469426	-3.010700	3.367300	-10.137000	25.809979	0.000593	20.748630
1816.469314	-2.997300	3.369000	-10.097000	25.797087	0.000594	20.748957
1817.476202	-2.971400	3.368600	-10.008000	25.762114	0.000593	20.718567
1818.475296	-2.994900	3.367200	-10.084000	25.726098	0.000594	20.741661
1819.469756	-3.006500	3.367300	-10.123000	25.751435	0.000592	20.756680
1820.471748	-2.986600	3.367300	-10.056000	25.753312	0.000590	20.750979
1821.467983	-3.019500	3.365400	-10.160000	25.805335	0.000590	20.732110
1822.469419	-3.000800	3.367000	-10.102000	25.824785	0.000588	20.760659
1823.469553	-3.011900	3.365700	-10.136000	25.865703	0.000588	20.740596
1824.470615	-2.994700	3.364400	-10.073000	25.902176	0.000589	20.735984
1825.473170	-2.997200	3.366700	-10.090000	25.897040	0.000589	20.731772
1826.474051	-3.009900	3.365900	-10.130000	25.893533	0.000587	20.754803
1827.473903	-2.992500	3.364900	-10.068000	25.906822	0.000587	20.743023
1828.472838	-3.011900	3.364800	-10.133000	25.926652	0.000586	20.740659
1829.478699	-2.980300	3.364400	-10.026000	25.945188	0.000586	20.737943
1830.471779	-2.987200	3.363300	-10.045000	25.983741	0.000586	20.728312
1831.475146	-3.001800	3.363000	-10.094000	25.997599	0.000588	20.736071
1832.473718	-2.992900	3.363900	-10.067000	26.017280	0.000585	20.741146
1833.472830	-2.995200	3.364100	-10.075000	26.041551	0.000585	20.729969
1834.473022	-2.994200	3.363500	-10.070000	26.059582	0.000585	20.730068
1835.475252	-3.000800	3.362200	-10.088000	26.030348	0.000584	20.738628
1836.471803	-3.020300	3.361500	-10.151000	26.042765	0.000584	20.743991
1837.471795	-3.011300	3.363100	-10.126000	26.042992	0.000583	20.725252
1838.474528	-3.014200	3.361400	-10.130000	26.076075	0.000580	20.740001
1839.471889	-3.001000	3.360800	-10.085000	26.036955	0.000580	20.751430
1840.473240	-3.026200	3.358900	-10.164000	26.034791	0.000580	20.746885
1841.471960	-3.020500	3.360000	-10.148000	25.985839	0.000581	20.747489
1842.473707	-3.000700	3.360700	-10.082000	25.955633	0.000580	20.744644
1843.472843	-3.016300	3.360000	-10.133000	25.933580	0.000580	20.739558
1844.473054	-3.010600	3.359500	-10.112000	25.904017	0.000577	20.718866
1845.472429	-3.010000	3.357500	-10.105000	25.932311	0.000577	20.739232
1846.473536	-3.015500	3.358600	-10.127000	25.968236	0.000576	20.736917
1847.472376	-2.996800	3.359000	-10.065000	26.001444	0.000576	20.731873
1848.476986	-3.005100	3.358300	-10.091000	26.040939	0.000578	20.726509
1849.473329	-2.999500	3.359100	-10.075000	26.066398	0.000576	20.718424
1850.473885	-3.005600	3.357600	-10.091000	26.065762	0.000575	20.723948
1851.477985	-3.003900	3.358300	-10.086000	26.048196	0.000576	20.708669
1852.474451	-3.004600	3.356800	-10.086000	26.062305	0.000576	20.733752
1853.478475	-3.015500	3.356100	-10.118000	26.063972	0.000575	20.729263
1854.480024	-3.014900	3.356600	-10.118000	26.079846	0.000575	20.714865
1855.477239	-2.998200	3.356100	-10.062000	26.105083	0.000576	20.730741
1856.477891	-2.979100	3.357300	-10.000000	26.101455	0.000573	20.717612
1857.481292	-3.002900	3.355600	-10.076000	26.107688	0.000572	20.712968
1858.479125	-2.994100	3.355500	-10.046000	26.115055	0.000573	20.727485
1859.480087	-3.004000	3.354500	-10.076000	26.121998	0.000572	20.705536
1860.480164	-3.012400	3.353700	-10.101000	26.145525	0.000571	20.721591
1861.479177	-2.997500	3.354200	-10.053000	26.107505	0.000571	20.724165
1862.478697	-2.997500	3.353600	-10.051000	26.146794	0.000572	20.742781
1863.481603	-2.987300	3.354500	-10.019000	26.129740	0.000570	20.719005
1864.486778	-3.019300	3.353100	-10.122000	26.094219	0.000570	20.721721
1865.480618	-2.990100	3.353300	-10.026000	26.043234	0.000568	20.717435
1866.482931	-3.009800	3.352600	-10.089000	25.997849	0.000570	20.713561
1867.481216	-3.009100	3.352000	-10.085000	25.986449	0.000570	20.700210
1868.481978	-2.990200	3.352800	-10.024000	26.002054	0.000568	20.723002
1869.482730	-3.010400	3.352700	-10.091000	26.023854	0.000569	20.707920
1870.480087	-3.010400	3.350800	-10.086000	26.027783	0.000567	20.707126
1871.481539	-3.001500	3.351300	-10.058000	26.035701	0.000566	20.712711
1872.485734	-3.014200	3.350600	-10.099000	26.024952	0.000565	20.700962
1873.485060	-2.982000	3.350900	-9.991700	26.073969	0.000565	20.716073
1874.485917	-3.016000	3.349700	-10.101000	26.084155	0.000565	20.719195
1875.483959	-3.010800	3.350600	-10.087000	26.100224	0.000566	20.703572
1876.485466	-3.020700	3.348600	-10.114000	26.061430	0.000565	20.719596
1877.485437	-3.000300	3.349400	-10.049000	26.021635	0.000563	20.709958
1878.486826	-2.991600	3.349200	-10.019000	26.042449	0.000563	20.705265
1879.485968	-3.002200	3.347500	-10.049000	26.021089	0.000560	20.722687
1880.486672	-3.017000	3.346700	-10.096000	26.024344	0.000562	20.695609
1881.490133	-2.993500	3.349400	-10.025000	26.002285	0.000561	20.709958
1882.488857	-3.011700	3.346800	-10.079000	25.962611	0.000562	20.719410
1883.488823	-3.026500	3.346400	-10.127000	25.952381	0.000558	20.702494
1884.491297	-3.026200	3.346100	-10.124000	25.896957	0.000559	20.711300
1885.491230	-2.980700	3.347500	-9.976900	25.901107	0.000561	20.722108
1886.489705	-2.985400	3.346900	-9.990100	25.888284	0.000561	20.695472
1887.491129	-2.977900	3.346500	-9.964800	25.915285	0.000559	20.700787
1888.492109	-2.994500	3.345100	-10.017000	25.932293	0.000557	20.710763
1889.489572	-2.983900	3.346300	-9.983500	25.980140	0.000559	20.689603
1890.492098	-2.992800	3.346300	-10.013000	26.013176	0.000556	20.699087
1891.492095	-3.019500	3.346200	-10.103000	26.028302	0.000556	20.695792
1892.487927	-2.990900	3.344900	-10.003000	26.055575	0.000554	20.698065
1893.492640	-2.997200	3.345300	-10.026000	26.059320	0.000555	20.695662
1894.494710	-3.001900	3.344400	-10.038000	26.072631	0.000556	20.716151
1895.488900	-3.029500	3.341400	-10.121000	26.090270	0.000554	20.688353
1896.492284	-2.987300	3.343300	-9.986400	26.108300	0.000555	20.686080
1897.495932	-2.993700	3.344000	-10.010000	26.097324	0.000553	20.682164
1898.489923	-3.038500	3.342600	-10.155000	26.113655	0.000555	20.691936
1899.493323	-3.006500	3.341800	-10.045000	26.117829	0.000552	20.704665
1900.494610	-3.002800	3.343100	-10.038000	26.110572	0.000552	20.698796
1901.488368	-2.990500	3.342300	-9.993200	26.091556	0.000550	20.694388
1902.489917	-3.007500	3.340800	-10.047000	26.082412	0.000550	20.690415
1903.489106	-3.030600	3.340200	-10.122000	26.087995	0.000548	20.705034
1904.490539	-2.992000	3.339400	-9.990800	26.135827	0.000550	20.700465
1905.491280	-2.987300	3.340200	-9.976800	26.148917	0.000550	20.699868
1906.491583	-3.008400	3.339300	-10.045000	26.155174	0.000547	20.687661
1907.491842	-3.000300	3.340700	-10.023000	26.180955	0.000547	20.676583
1908.490872	-3.033600	3.338800	-10.127000	26.168711	0.000548	20.703162
1909.491487	-3.010300	3.340100	-10.054000	26.113128	0.000547	20.700416
1910.490939	-2.994100	3.340800	-10.002000	26.102078	0.000547	20.689312
1911.492508	-3.006300	3.337300	-10.031000	26.066109	0.000548	20.711020
1912.492021	-2.982800	3.338300	-9.956600	26.026695	0.000546	20.697971
1913.493530	-2.984400	3.339200	-9.964700	25.978207	0.000543	20.689084
1914.494149	-2.983700	3.337300	-9.955700	25.961500	0.000545	20.675616
1915.492926	-2.992100	3.337200	-9.983900	25.933126	0.000544	20.693580
1916.491273	-3.003700	3.336200	-10.020000	25.861832	0.000543	20.705410
1917.491387	-3.016900	3.335000	-10.059000	25.880093	0.000542	20.697676
1918.492330	-3.010000	3.335000	-10.037000	25.894448	0.000544	20.717788
1919.493230	-3.016900	3.335000	-10.060000	25.902276	0.000543	20.687717
1920.493240	-3.002400	3.335000	-10.012000	25.860471	0.000541	20.688869
1921.493130	-2.995200	3.334300	-9.985300	25.839654	0.000541	20.697356
1922.493501	-3.004300	3.335000	-10.018000	25.795763	0.000542	20.681714
1923.494539	-2.996600	3.333600	-9.987600	25.802291	0.000541	20.690643
1924.496058	-2.988500	3.335300	-9.965800	25.796878	0.000539	20.694215
1925.494045	-2.988100	3.334000	-9.960200	25.836112	0.000539	20.689529
1926.493061	-3.007400	3.332900	-10.023000	25.858737	0.000539	20.677643
1927.493505	-3.011900	3.332700	-10.036000	25.902646	0.000539	20.687140
1928.493737	-3.010500	3.333000	-10.032000	25.913232	0.000538	20.670273
1929.492935	-2.990200	3.333200	-9.965300	25.946515	0.000537	20.674787
1930.494566	-3.013500	3.331100	-10.037000	25.945277	0.000536	20.664533
1931.492944	-3.007600	3.330200	-10.016000	25.967686	0.000534	20.692739
1932.492525	-3.024600	3.331600	-10.076000	25.961992	0.000537	20.695553
1933.494538	-3.008900	3.331200	-10.022000	25.985792	0.000534	20.663037
1934.495489	-2.985500	3.330600	-9.942300	26.044049	0.000535	20.659928
1935.495663	-2.971800	3.332100	-9.901700	26.045238	0.000535	20.672977
1936.495782	-2.978300	3.330200	-9.917900	26.056099	0.000534	20.683891
1937.496166	-3.004600	3.330200	-10.006000	26.085063	0.000534	20.680276
1938.496291	-2.987100	3.330200	-9.946600	26.102940	0.000534	20.664571
1939.496633	-3.000700	3.327800	-9.984500	26.078929	0.000534	20.662256
1940.496267	-3.001100	3.330200	-9.992900	26.075478	0.000532	20.684396
1941.496167	-3.001800	3.328700	-9.991800	26.111441	0.000532	20.675959
1942.496048	-2.989600	3.329000	-9.951400	26.100618	0.000532	20.677413
1943.498079	-2.987900	3.328900	-9.945600	26.104638	0.000531	20.671494
1944.499018	-2.994800	3.329800	-9.971400	26.135587	0.000531	20.670349
1945.497025	-2.994000	3.327700	-9.962100	26.132633	0.000532	20.681133
1946.500122	-3.002500	3.326400	-9.986000	26.166056	0.000529	20.678207
1947.499012	-2.979300	3.329100	-9.916900	26.184459	0.000529	20.693381
1948.499288	-2.993200	3.325800	-9.954300	26.228170	0.000528	20.668076
1949.500645	-2.992300	3.326500	-9.951900	26.192757	0.000528	20.666155
1950.500936	-3.006400	3.325400	-9.996300	26.180090	0.000528	20.694207
1951.500314	-3.012200	3.324400	-10.012000	26.180740	0.000526	20.687747
1952.502026	-2.978500	3.324900	-9.902000	26.207304	0.000526	20.700691
1953.505391	-3.001200	3.323800	-9.973900	26.232919	0.000526	20.674747
1954.502369	-3.007300	3.323800	-9.994600	26.241982	0.000527	20.677690
1955.504416	-2.996100	3.323700	-9.956700	26.277939	0.000525	20.674469
1956.503590	-2.980800	3.324200	-9.908200	26.302467	0.000524	20.689637
1957.502846	-2.985400	3.324400	-9.923500	26.331198	0.000523	20.680104
1958.504347	-2.997900	3.323400	-9.960600	26.346546	0.000523	20.671821
1959.505107	-3.009400	3.322400	-9.997500	26.334224	0.000524	20.662281
1960.504679	-2.964100	3.323100	-9.849300	26.352054	0.000522	20.693005
1961.503871	-3.003100	3.322700	-9.977700	26.356619	0.000522	20.687161
1962.506678	-2.976200	3.323400	-9.890100	26.364492	0.000520	20.672787
1963.504344	-3.009600	3.320200	-9.991300	26.373400	0.000521	20.678422
1964.504034	-2.974100	3.321700	-9.877700	26.366826	0.000520	20.685092
1965.513197	-3.002500	3.320800	-9.970300	26.379466	0.000519	20.674087
1966.503020	-3.022800	3.319400	-10.033000	26.390237	0.000520	20.690603
1967.505864	-3.004200	3.320400	-9.973900	26.358156	0.000518	20.675429
1968.506372	-3.005900	3.319400	-9.976800	26.354284	0.000518	20.678176
1969.505222	-3.010400	3.318100	-9.988100	26.372488	0.000518	20.692205
1970.503755	-2.993100	3.318800	-9.932700	26.372390	0.000518	20.670293
1971.505342	-2.991400	3.320000	-9.930500	26.391236	0.000517	20.693504
1972.504710	-3.005700	3.318300	-9.973400	26.370576	0.000516	20.683170
1973.504007	-2.988700	3.319000	-9.918200	26.337478	0.000515	20.681674
1974.505011	-3.022900	3.316900	-10.025000	26.302264	0.000514	20.686588
1975.505970	-3.025400	3.317100	-10.035000	26.272718	0.000514	20.667325
1976.506929	-3.011300	3.315200	-9.982400	26.282748	0.000512	20.681674
1977.504611	-3.003300	3.316400	-9.958800	26.294673	0.000513	20.696030
1978.507870	-3.016200	3.316700	-10.003000	26.316946	0.000513	20.679531
1979.505989	-3.011600	3.316300	-9.985800	26.301309	0.000512	20.699380
1980.505427	-3.007600	3.314600	-9.966900	26.303913	0.000511	20.689668
1981.510992	-3.024900	3.313300	-10.021000	26.299562	0.000512	20.702840
1982.506427	-3.015800	3.314600	-9.994700	26.321940	0.000510	20.695457
1983.505674	-3.011500	3.316000	-9.984500	26.287358	0.000509	20.702903
1984.509171	-2.998700	3.314800	-9.939000	26.292100	0.000508	20.674476
1985.506286	-3.005700	3.313500	-9.957500	26.269404	0.000509	20.686756
1986.507205	-3.019400	3.311900	-9.998600	26.253282	0.000508	20.701850
1987.509419	-3.002600	3.313200	-9.947200	26.279582	0.000510	20.681336
1988.506290	-2.990700	3.313900	-9.910400	26.246456	0.000509	20.697835
1989.508305	-2.993800	3.314000	-9.919200	26.234262	0.000508	20.689373
1990.512017	-2.999900	3.313400	-9.936600	26.287798	0.000507	20.710933
1991.508058	-2.995500	3.310800	-9.916300	26.283160	0.000507	20.687778
1992.509906	-2.978100	3.311500	-9.861200	26.252436	0.000507	20.714751
1993.510922	-2.986500	3.312400	-9.892100	26.272333	0.000508	20.695390
1994.507489	-3.007100	3.310300	-9.952700	26.303791	0.000504	20.713255
1995.507958	-3.021900	3.309200	-9.999000	26.345285	0.000503	20.688098
1996.513640	-2.989700	3.310000	-9.895300	26.378806	0.000503	20.692865
1997.508251	-2.980100	3.310500	-9.864800	26.336597	0.000504	20.699282
1998.508285	-2.974300	3.309700	-9.842300	26.316579	0.000501	20.685801
1999.512526	-3.006600	3.309100	-9.948400	26.306873	0.000502	20.681262
2000.509351	-2.990100	3.309500	-9.894500	26.341633	0.000500	20.703395
2001.509598	-3.011200	3.307100	-9.957800	26.370320	0.000499	20.717055
2002.514496	-3.021900	3.306800	-9.991600	26.366295	0.000500	20.688825
2003.513485	-3.000100	3.307800	-9.921700	26.381912	0.000500	20.704523
2004.514377	-3.001700	3.308000	-9.927900	26.390184	0.000499	20.701456
2005.516901	-2.983100	3.307400	-9.865800	26.370817	0.000499	20.705225
2006.515485	-2.999900	3.307400	-9.920900	26.371956	0.000497	20.682660
2007.515277	-3.010900	3.306900	-9.955100	26.333993	0.000498	20.697613
2008.517643	-3.011500	3.305900	-9.954200	26.317284	0.000497	20.704529
2009.518666	-2.974400	3.308000	-9.838300	26.255280	0.000497	20.689158
2010.516953	-2.999100	3.306000	-9.914600	26.246634	0.000496	20.718404
2011.521180	-3.034800	3.304000	-10.025000	26.219477	0.000495	20.710079
2012.519498	-2.985600	3.306200	-9.870900	26.194745	0.000495	20.708934
2013.517956	-2.989400	3.303900	-9.875100	26.182868	0.000494	20.695102
2014.520767	-3.005400	3.303800	-9.928700	26.236714	0.000495	20.699899
2015.519337	-3.018900	3.303900	-9.972900	26.256954	0.000493	20.693686
2016.517531	-3.014400	3.303500	-9.956700	26.256856	0.000494	20.719668
2017.521279	-2.975300	3.302700	-9.823900	26.262874	0.000492	20.705800
2018.519253	-3.006000	3.302300	-9.924800	26.322666	0.000491	20.701403
2019.516671	-3.003400	3.302800	-9.918400	26.344221	0.000491	20.700307
2020.521708	-3.014800	3.302200	-9.954300	26.371714	0.000490	20.697117
2021.520217	-3.015400	3.301500	-9.954800	26.357291	0.000489	20.703959
2022.518555	-2.963300	3.302900	-9.786100	26.340754	0.000491	20.702986
2023.522534	-3.019700	3.301600	-9.968300	26.282226	0.000488	20.723352
2024.519653	-2.986800	3.300900	-9.857000	26.226428	0.000485	20.720858
2025.517303	-2.986700	3.301700	-9.860100	26.225092	0.000487	20.722835
2026.520513	-2.994900	3.300600	-9.884200	26.248244	0.000485	20.716702
2027.520187	-2.971200	3.301100	-9.807200	26.233788	0.000488	20.719245
2028.518528	-2.988000	3.299100	-9.856700	26.220000	0.000484	20.729098
2029.521323	-3.012800	3.298300	-9.935800	26.217323	0.000485	20.715027
2030.518858	-3.005000	3.298200	-9.910300	26.211538	0.000486	20.691669
2031.520587	-2.995500	3.298500	-9.880100	26.246706	0.000484	20.690499
2032.520550	-2.992800	3.297700	-9.868500	26.295940	0.000483	20.713900
2033.519421	-3.012300	3.296800	-9.929100	26.302705	0.000484	20.710741
2034.521997	-2.996500	3.297200	-9.879300	26.300070	0.000483	20.702403
2035.522861	-2.996200	3.296900	-9.877000	26.284801	0.000483	20.732104
2036.520962	-3.006800	3.295400	-9.906700	26.278049	0.000482	20.726267
2037.520377	-3.002700	3.297200	-9.899600	26.287251	0.000481	20.717496
2038.520531	-3.009300	3.295700	-9.917300	26.341491	0.000480	20.732652
2039.518531	-3.013400	3.295400	-9.928900	26.349438	0.000479	20.709343
2040.520103	-3.007000	3.296100	-9.910400	26.398601	0.000479	20.710390
2041.520692	-3.028200	3.295500	-9.978500	26.413170	0.000479	20.725982
2042.523138	-2.992700	3.295000	-9.860200	26.440378	0.000480	20.731518
2043.522805	-3.032200	3.293300	-9.984400	26.468346	0.000479	20.737345
2044.522106	-3.034700	3.292500	-9.991100	26.487981	0.000478	20.723889
2045.522655	-2.967000	3.295100	-9.775100	26.466012	0.000478	20.718876
2046.522512	-3.013300	3.293700	-9.924200	26.462151	0.000477	20.716418
2047.521740	-3.015800	3.292300	-9.927400	26.418083	0.000477	20.704841
2048.522624	-3.007000	3.293200	-9.901100	26.437002	0.000474	20.715322
2049.523135	-2.984900	3.293700	-9.830500	26.431512	0.000474	20.721185
2050.521963	-3.008500	3.292100	-9.903300	26.396602	0.000473	20.725452
2051.524096	-2.997900	3.292300	-9.868700	26.391682	0.000474	20.738526
2052.521583	-3.008000	3.291800	-9.901200	26.418101	0.000474	20.735681
2053.523254	-2.991100	3.292200	-9.846000	26.410130	0.000473	20.745687
2054.530192	-2.970300	3.291700	-9.775600	26.371095	0.000472	20.726369
2055.524268	-3.005600	3.289300	-9.885700	26.348775	0.000471	20.727644
2056.525182	-2.999600	3.289700	-9.867000	26.383134	0.000472	20.734676
2057.533918	-2.999400	3.289100	-9.863500	26.407023	0.000471	20.739246
2058.523046	-2.993900	3.289500	-9.847000	26.450019	0.000472	20.726984
2059.523531	-2.985200	3.288700	-9.816500	26.448108	0.000471	20.705147
2060.525391	-2.964700	3.289000	-9.750200	26.436737	0.000470	20.734023
2061.523764	-3.005900	3.288100	-9.881500	26.468809	0.000468	20.747293
2062.524220	-3.007200	3.287600	-9.885000	26.464098	0.000466	20.744929
2063.526785	-2.999700	3.287500	-9.860300	26.473330	0.000466	20.735716
2064.526239	-3.023800	3.287600	-9.940200	26.529538	0.000466	20.741480
2065.525597	-2.995700	3.287200	-9.846200	26.528840	0.000467	20.738407
2066.529195	-3.047400	3.285500	-10.010000	26.534874	0.000465	20.738783
2067.523151	-3.031600	3.284900	-9.957300	26.510370	0.000464	20.730272
2068.525139	-3.001000	3.286500	-9.861300	26.509646	0.000464	20.739029
2069.528843	-2.978400	3.286800	-9.788800	26.462376	0.000464	20.764061
2070.526905	-2.992700	3.285700	-9.832200	26.441650	0.000463	20.744652
2071.528139	-3.000100	3.285900	-9.857600	26.447336	0.000462	20.748944
2072.530783	-2.978000	3.285000	-9.781600	26.482237	0.000461	20.730918
2073.527043	-2.985900	3.284000	-9.804900	26.520625	0.000461	20.743426
2074.528814	-2.996900	3.283700	-9.839800	26.553246	0.000461	20.753932
2075.533898	-2.997400	3.283200	-9.840300	26.565150	0.000460	20.749302
2076.528578	-2.994700	3.283200	-9.831800	26.586142	0.000459	20.750964
2077.529169	-3.014200	3.282000	-9.890900	26.554416	0.000461	20.753211
2078.537981	-2.996600	3.284200	-9.840200	26.506260	0.000457	20.765497
2079.527915	-3.000000	3.283000	-9.847900	26.496249	0.000456	20.759228
2080.529405	-3.012700	3.281100	-9.883200	26.480836	0.000457	20.745157
2081.532472	-2.992200	3.281400	-9.817200	26.490871	0.000456	20.744339
2082.530358	-3.000600	3.281600	-9.845600	26.500697	0.000454	20.769863
2083.531590	-2.995800	3.282100	-9.831400	26.503160	0.000456	20.739622
2084.534192	-3.035800	3.280200	-9.957300	26.496874	0.000455	20.757486
2085.530882	-2.992300	3.280000	-9.813500	26.478826	0.000452	20.762579
2086.530153	-2.999800	3.280100	-9.838500	26.499876	0.000455	20.743433
2087.533965	-3.005800	3.279900	-9.857300	26.470440	0.000454	20.755097
2088.531563	-3.023300	3.278000	-9.908900	26.492329	0.000454	20.754339
2089.533584	-2.999700	3.279500	-9.836400	26.490270	0.000452	20.753692
2090.538822	-3.010800	3.278500	-9.869700	26.489285	0.000450	20.740847
2091.533546	-2.979800	3.277600	-9.765700	26.494247	0.000452	20.772863
2092.534653	-2.984100	3.278000	-9.780500	26.509691	0.000451	20.749031
2093.537306	-3.000200	3.278300	-9.835400	26.522427	0.000449	20.760411
2094.534714	-3.007600	3.277000	-9.855200	26.518500	0.000451	20.759309
2095.536351	-2.979000	3.277000	-9.760400	26.527445	0.000448	20.758342
2096.539220	-3.005700	3.275800	-9.845200	26.523940	0.000448	20.751975
2097.536584	-3.001600	3.276300	-9.833100	26.552788	0.000448	20.777653
2098.534079	-3.015700	3.274600	-9.874500	26.571509	0.000447	20.765178
2099.541070	-3.015700	3.275500	-9.876800	26.573119	0.000446	20.772013
2100.537398	-3.017800	3.274500	-9.880700	26.587675	0.000445	20.765307
2101.545754	-2.998100	3.275000	-9.817800	26.599142	0.000445	20.773516
2102.536702	-2.971600	3.273600	-9.726800	26.583902	0.000442	20.780481
2103.538440	-2.992900	3.274600	-9.799700	26.587074	0.000444	20.767548
2104.533875	-2.991100	3.273100	-9.789500	26.596986	0.000443	20.778935
2105.537642	-2.984300	3.273700	-9.768600	26.606941	0.000442	20.775191
2106.541330	-3.005900	3.272200	-9.835500	26.604834	0.000440	20.776392
2107.537648	-2.983100	3.273500	-9.764100	26.658450	0.000440	20.787143
2108.541414	-2.995700	3.271800	-9.800500	26.628693	0.000440	20.773350
2109.538784	-2.982700	3.271500	-9.756900	26.669703	0.000439	20.771903
2110.539067	-2.984600	3.271000	-9.761300	26.658764	0.000439	20.776079
2111.540522	-2.993400	3.270000	-9.787600	26.696146	0.000437	20.776202
2112.538947	-3.001600	3.269500	-9.813200	26.705879	0.000439	20.779349
2113.538091	-2.973500	3.271300	-9.726000	26.747039	0.000435	20.799394
2114.544317	-3.012700	3.268400	-9.845400	26.738948	0.000438	20.776086
2115.538621	-2.978900	3.268900	-9.735600	26.752999	0.000436	20.775513
2116.539648	-3.018500	3.267300	-9.861000	26.735745	0.000437	20.794202
2117.544243	-3.003500	3.266900	-9.811400	26.784994	0.000436	20.782552
2118.540020	-2.997300	3.270500	-9.802100	26.806743	0.000435	20.800626
2119.539233	-3.008600	3.268000	-9.831200	26.815832	0.000433	20.784160
2120.542645	-2.969700	3.267400	-9.702200	26.816978	0.000433	20.790528
2121.540518	-3.002500	3.267100	-9.808700	26.814865	0.000433	20.777972
2122.539627	-3.000100	3.266600	-9.798700	26.811399	0.000432	20.788238
2123.546474	-2.993700	3.266400	-9.777200	26.829368	0.000431	20.799193
2124.538535	-3.003700	3.265700	-9.808400	26.803137	0.000431	20.778509
2125.540412	-2.997500	3.265700	-9.787700	26.822455	0.000428	20.793190
2126.545270	-3.002800	3.265400	-9.802400	26.791134	0.000429	20.795838
2127.543761	-3.009000	3.264800	-9.822400	26.752309	0.000427	20.791416
2128.539598	-3.007900	3.265300	-9.820500	26.758325	0.000426	20.777075
2129.545092	-3.012900	3.262700	-9.829700	26.773294	0.000428	20.775530
2130.545453	-3.004500	3.263400	-9.803300	26.813128	0.000427	20.798985
2131.544525	-3.009000	3.264400	-9.822000	26.818224	0.000427	20.783246
2132.556921	-2.987000	3.263800	-9.747500	26.860488	0.000426	20.801559
2133.542815	-2.957800	3.264700	-9.654300	26.866373	0.000423	20.795149
2134.543620	-2.986400	3.263000	-9.743300	26.880373	0.000423	20.806381
2135.541719	-3.004700	3.261100	-9.797800	26.915537	0.000423	20.792902
2136.545910	-3.018100	3.262300	-9.845600	26.929144	0.000422	20.803740
2137.544207	-2.998100	3.261300	-9.775500	26.940444	0.000420	20.786653
2138.544502	-3.006100	3.263000	-9.807900	26.968068	0.000420	20.804000
2139.545750	-3.003000	3.261100	-9.792000	26.972231	0.000421	20.785901
2140.546511	-3.017800	3.259200	-9.834800	27.000277	0.000423	20.817898
2141.546163	-3.017500	3.259700	-9.834200	27.003308	0.000420	20.785385
2142.547747	-2.998800	3.259900	-9.775100	27.000626	0.000419	20.792645
2143.550513	-3.006200	3.259600	-9.797900	27.010503	0.000418	20.806371
2144.549553	-2.998500	3.257300	-9.765900	26.977854	0.000417	20.797246
2145.548414	-2.960100	3.260400	-9.649400	26.947701	0.000416	20.806279
2146.548528	-2.994000	3.258900	-9.756100	26.893370	0.000418	20.797639
2147.549719	-2.986500	3.258400	-9.729200	26.859149	0.000416	20.815386
2148.549346	-3.006800	3.256700	-9.791400	26.865157	0.000416	20.831384
2149.550561	-2.985400	3.256500	-9.720700	26.911743	0.000416	20.799044
2150.552361	-3.002100	3.256100	-9.773100	26.935424	0.000415	20.802468
2151.552062	-2.988700	3.256000	-9.730800	26.937750	0.000414	20.795799
2152.551722	-2.990500	3.255200	-9.732700	26.947310	0.000411	20.814420
2153.552382	-3.004100	3.256300	-9.781200	26.919361	0.000412	20.810497
2154.553152	-2.975600	3.255600	-9.685200	26.901473	0.000413	20.822856
2155.556262	-2.985700	3.254900	-9.715800	26.873970	0.000412	20.817486
2156.557081	-3.000100	3.252900	-9.757700	26.863529	0.000408	20.824532
2157.555939	-3.020300	3.252800	-9.823100	26.798825	0.000410	20.823959
2158.558433	-2.994100	3.252500	-9.736300	26.773034	0.000406	20.803244
2159.557463	-2.976100	3.253700	-9.682600	26.800516	0.000406	20.828978
2160.557775	-3.024000	3.252000	-9.833100	26.815558	0.000406	20.815179
2161.557445	-3.011600	3.251900	-9.792700	26.862869	0.000407	20.812014
2162.557588	-3.017500	3.251200	-9.808800	26.883586	0.000404	20.842328
2163.561965	-3.000300	3.250800	-9.751700	26.901885	0.000403	20.832279
2164.559788	-3.000800	3.250700	-9.753300	26.924170	0.000405	20.810117
2165.565689	-3.011900	3.250900	-9.789900	26.951494	0.000402	20.814360
2166.562542	-2.993500	3.250000	-9.727000	26.967085	0.000402	20.824823
2167.563698	-3.012000	3.249600	-9.786200	26.991035	0.000400	20.831837
2168.562443	-3.004500	3.249700	-9.763000	27.009081	0.000400	20.833389
2169.567647	-2.988700	3.248800	-9.709200	27.013593	0.000399	20.830815
2170.560859	-3.021400	3.247600	-9.809400	27.002529	0.000400	20.813998
2171.565084	-3.014300	3.247500	-9.787300	26.965727	0.000398	20.814448
2172.568536	-3.011500	3.247400	-9.776700	26.946394	0.000398	20.836732
2173.571809	-2.988800	3.247200	-9.704300	26.924882	0.000398	20.828851
2174.563948	-3.003200	3.246300	-9.748100	26.884427	0.000398	20.822786
2175.570739	-2.992900	3.246700	-9.715900	26.831594	0.000396	20.819923
2176.567301	-2.996700	3.246200	-9.727100	26.844009	0.000397	20.832405
2177.565866	-3.008800	3.245500	-9.763700	26.849643	0.000396	20.848975
2178.569507	-2.999100	3.245800	-9.733900	26.895164	0.000396	20.830737
2179.566856	-3.001300	3.244900	-9.737900	26.909181	0.000394	20.826340
2180.566862	-3.006600	3.244700	-9.754000	26.930383	0.000394	20.833434
2181.572787	-3.004200	3.243900	-9.744100	26.948252	0.000394	20.840023
2182.568154	-2.986000	3.245200	-9.689300	26.927561	0.000391	20.842924
2183.568904	-2.994900	3.244000	-9.714400	26.868740	0.000392	20.834986
2184.569763	-2.993900	3.243100	-9.708500	26.858138	0.000391	20.827172
2185.570773	-2.972200	3.243400	-9.638200	26.858170	0.000390	20.833367
2186.569324	-3.009300	3.241500	-9.752300	26.869487	0.000389	20.836686
2187.571376	-2.989800	3.241300	-9.688700	26.918014	0.000387	20.844704
2188.570982	-2.999600	3.242400	-9.725100	26.949062	0.000388	20.847475
2189.568369	-3.005100	3.240800	-9.737600	26.976588	0.000386	20.848603
2190.572039	-3.025500	3.239200	-9.798300	26.984799	0.000384	20.835049
2191.570708	-2.993200	3.240400	-9.698400	26.956068	0.000388	20.825598
2192.573318	-3.004800	3.239000	-9.732200	26.951175	0.000385	20.835376
2193.578759	-2.997800	3.238100	-9.706400	26.975523	0.000386	20.845161
2194.571607	-3.002000	3.239400	-9.723200	26.977213	0.000385	20.838326
2195.573456	-2.979200	3.238500	-9.647100	26.996227	0.000385	20.841325
2196.576404	-2.989000	3.239300	-9.681200	27.047473	0.000385	20.837385
2197.573960	-3.013500	3.236100	-9.751700	27.089807	0.000382	20.825907
2198.573597	-3.004400	3.238000	-9.727000	27.096188	0.000383	20.820944
2199.577510	-3.023100	3.236100	-9.781300	27.128442	0.000381	20.819719
2200.573044	-3.013200	3.236400	-9.750900	27.107558	0.000379	20.823845
2201.572323	-2.996900	3.237100	-9.699900	27.080759	0.000379	20.830557
2202.577254	-3.026100	3.234400	-9.786300	27.110687	0.000379	20.824147
2203.576383	-3.006800	3.233600	-9.720800	27.127806	0.000379	20.819553
2204.573505	-2.994100	3.234100	-9.681400	27.122652	0.000377	20.819111
2205.577604	-2.975000	3.235100	-9.623400	27.150271	0.000377	20.818914
2206.575352	-2.988100	3.234300	-9.663100	27.130006	0.000378	20.833145
2207.575937	-2.988000	3.234000	-9.662000	27.129007	0.000374	20.825977
2208.580952	-3.004100	3.233400	-9.712000	27.143678	0.000373	20.808016
2209.576962	-3.004000	3.233400	-9.711700	27.134420	0.000372	20.823835
2210.576354	-3.011100	3.233100	-9.734000	27.203248	0.000373	20.819567
2211.579504	-2.996300	3.232500	-9.683500	27.190772	0.000374	20.818872
2212.576666	-3.018400	3.231400	-9.751800	27.188341	0.000373	20.810263
2213.578550	-3.033500	3.228800	-9.792900	27.143440	0.000372	20.813466
2214.576837	-3.022700	3.229900	-9.761600	27.111253	0.000372	20.809069
2215.576999	-2.992700	3.231000	-9.668300	27.064114	0.000372	20.800541
2216.580873	-3.014500	3.229400	-9.733400	27.049124	0.000371	20.804433
2217.577747	-3.026200	3.228000	-9.766300	27.040295	0.000370	20.802666
2218.578224	-3.033300	3.227300	-9.788400	27.034233	0.000369	20.802733
2219.578829	-3.001200	3.227800	-9.686700	27.010127	0.000368	20.822113
2220.578585	-3.019500	3.227300	-9.743600	27.018988	0.000367	20.795937
2221.578127	-2.999200	3.228400	-9.682100	27.032294	0.000366	20.814060
2222.577610	-3.011100	3.226100	-9.713500	27.038790	0.000368	20.798308
2223.578883	-3.020400	3.225900	-9.742500	27.076368	0.000365	20.790106
2224.578394	-3.024900	3.226400	-9.758200	27.109615	0.000365	20.788456
2225.579626	-3.012800	3.225300	-9.716500	27.129196	0.000366	20.809097
2226.579503	-3.006500	3.224200	-9.691800	27.166023	0.000364	20.790187
2227.580595	-2.998200	3.223700	-9.663800	27.144257	0.000364	20.799589
2228.580416	-2.983300	3.224200	-9.618200	27.097493	0.000364	20.807559
2229.580010	-2.996100	3.223400	-9.656000	27.040599	0.000360	20.816248
2230.579506	-2.991900	3.223500	-9.643700	27.012750	0.000359	20.805311
2231.579489	-2.991700	3.225200	-9.648500	26.973206	0.000361	20.803003
2232.579875	-2.992500	3.222000	-9.641000	26.975913	0.000359	20.783440
2233.581906	-2.999900	3.221400	-9.662900	26.986010	0.000360	20.787904
2234.580459	-3.001400	3.221500	-9.668500	26.954621	0.000359	20.776254
2235.582218	-2.980900	3.221100	-9.602000	26.916159	0.000359	20.801588
2236.582770	-3.010000	3.220800	-9.693800	26.933832	0.000356	20.799919
2237.584398	-3.012000	3.220700	-9.699900	26.962798	0.000358	20.795381
2238.582636	-2.993100	3.221300	-9.640800	26.968634	0.000356	20.796983
2239.583001	-3.014000	3.220600	-9.704500	26.997648	0.000355	20.792020
2240.583165	-2.995900	3.220200	-9.646700	27.057331	0.000355	20.779970
2241.586145	-3.042100	3.218900	-9.790200	27.083985	0.000356	20.784964
2242.584747	-3.015300	3.217900	-9.701700	27.109419	0.000354	20.779724
2243.582661	-3.003400	3.218400	-9.664300	27.141956	0.000355	20.769299
2244.584958	-2.988200	3.218200	-9.615700	27.157464	0.000353	20.777311
2245.585019	-2.997700	3.216600	-9.641300	27.124470	0.000350	20.772102
2246.585396	-2.978000	3.217600	-9.580800	27.134028	0.000354	20.791672
2247.586493	-3.002100	3.216600	-9.655500	27.152855	0.000350	20.781684
2248.587056	-3.000300	3.214400	-9.642900	27.150431	0.000350	20.770711
2249.586909	-2.986400	3.216200	-9.604000	27.176611	0.000349	20.783766
2250.587028	-3.002400	3.214700	-9.650600	27.184332	0.000350	20.754547
2251.590600	-3.029600	3.213900	-9.736000	27.215899	0.000350	20.771125
2252.588583	-2.993200	3.215000	-9.622800	27.251652	0.000351	20.780535
2253.590033	-3.005500	3.213300	-9.656700	27.276317	0.000349	20.774525
2254.595831	-3.008700	3.212700	-9.664900	27.282421	0.000348	20.778294
2255.593344	-2.991500	3.211600	-9.605900	27.283395	0.000345	20.776429
2256.589857	-2.999500	3.212700	-9.635000	27.271513	0.000344	20.764477
2257.590901	-2.989400	3.211900	-9.600100	27.250276	0.000344	20.753072
2258.591308	-3.015600	3.210800	-9.681900	27.253234	0.000343	20.774065
2259.591482	-2.989400	3.210600	-9.597500	27.187782	0.000345	20.778881
2260.590878	-3.004900	3.209600	-9.643800	27.164445	0.000341	20.770581
2261.591784	-3.001900	3.209700	-9.633600	27.108539	0.000342	20.783106
2262.590830	-3.012600	3.208400	-9.664600	27.054719	0.000344	20.789196
2263.590602	-3.016600	3.208500	-9.677700	27.006124	0.000342	20.787268
2264.590950	-3.000500	3.209800	-9.629600	27.022064	0.000341	20.775797
2265.589846	-2.997400	3.207100	-9.611600	26.971645	0.000340	20.760181
2266.590836	-2.990300	3.208900	-9.595000	27.000683	0.000340	20.766149
2267.592906	-2.970300	3.208400	-9.528800	27.005422	0.000339	20.757638
2268.591935	-3.012700	3.206500	-9.659400	27.083793	0.000340	20.765330
2269.590968	-2.985900	3.206400	-9.573400	27.121055	0.000336	20.759658
2270.593668	-2.998600	3.205800	-9.612000	27.149520	0.000338	20.747508
2271.592771	-3.013500	3.205500	-9.656900	27.198555	0.000336	20.774069
2272.593254	-3.019800	3.204000	-9.673900	27.222296	0.000335	20.766654
2273.594191	-2.990100	3.203900	-9.579600	27.186249	0.000335	20.758846
2274.595574	-2.998700	3.202700	-9.602600	27.160848	0.000333	20.770757
2275.596922	-3.017100	3.202600	-9.661300	27.120255	0.000333	20.756008
2276.599316	-2.996000	3.203000	-9.595300	27.084327	0.000334	20.773454
2277.596660	-2.987300	3.203600	-9.569200	27.111598	0.000334	20.766742
2278.598501	-3.014000	3.201100	-9.646800	27.130456	0.000332	20.765320
2279.604498	-3.006900	3.200900	-9.623600	27.125798	0.000331	20.779601
2280.598161	-3.008700	3.201300	-9.630800	27.094958	0.000332	20.764705
2281.603941	-2.997400	3.200000	-9.590700	27.041957	0.000332	20.754077
2282.603901	-3.004600	3.201100	-9.616900	27.020213	0.000329	20.766349
2283.599517	-2.996200	3.199300	-9.585400	27.039796	0.000328	20.748583
2284.600705	-2.976700	3.199500	-9.523400	27.016350	0.000327	20.765309
2285.602736	-2.985200	3.198200	-9.546400	27.027666	0.000330	20.755826
2286.599376	-2.991700	3.197900	-9.566300	27.041933	0.000326	20.755475
2287.602617	-2.995800	3.199800	-9.584600	27.037494	0.000326	20.742475
2288.603421	-2.995700	3.197400	-9.576900	27.040924	0.000328	20.746873
2289.600014	-3.012200	3.195300	-9.623700	27.001140	0.000325	20.742900
2290.603835	-3.006700	3.196100	-9.609000	26.997368	0.000326	20.762341
2291.605803	-2.999300	3.196400	-9.585800	26.992304	0.000324	20.744446
2292.600118	-3.021400	3.194100	-9.649200	27.053468	0.000325	20.731039
2293.607690	-3.033000	3.195000	-9.689600	27.099313	0.000325	20.750593
2294.600897	-3.004200	3.195100	-9.598000	27.147117	0.000323	20.739876
2295.603113	-2.970000	3.194600	-9.487000	27.164567	0.000322	20.761695
2296.602587	-2.995700	3.195300	-9.571600	27.187213	0.000322	20.748910
2297.603517	-2.996400	3.193100	-9.565900	27.253510	0.000323	20.750160
2298.600570	-2.981200	3.191800	-9.514100	27.251146	0.000321	20.731660
2299.600891	-2.994900	3.191500	-9.557800	27.307760	0.000320	20.748306
2300.603614	-2.983700	3.191600	-9.522200	27.276031	0.000320	20.753848
2301.603539	-3.002300	3.190100	-9.576100	27.256526	0.000320	20.760782
2302.604985	-3.002300	3.190000	-9.576200	27.244515	0.000320	20.754863
2303.607980	-3.013200	3.189000	-9.607800	27.235185	0.000318	20.765393
2304.602861	-2.996700	3.189400	-9.556800	27.257860	0.000319	20.763546
2305.605766	-3.001000	3.188700	-9.567900	27.249620	0.000317	20.741032
2306.603357	-2.998500	3.188100	-9.557500	27.267134	0.000319	20.745373
2307.602691	-2.981900	3.187000	-9.502400	27.317271	0.000317	20.755503
2308.602995	-3.006700	3.185800	-9.577600	27.324292	0.000315	20.748341
2309.605903	-2.966300	3.187200	-9.453600	27.274100	0.000316	20.718239
2310.604684	-2.993300	3.187600	-9.540200	27.234252	0.000317	20.726047
2311.602793	-2.978000	3.186800	-9.488900	27.203531	0.000315	20.736399
2312.605244	-3.003000	3.185300	-9.564800	27.211992	0.000314	20.740167
2313.605469	-2.985000	3.186500	-9.510700	27.242804	0.000313	20.747926
2314.606143	-2.990700	3.183700	-9.520200	27.260465	0.000312	20.733922
2315.607364	-3.001000	3.183700	-9.553400	27.278727	0.000315	20.747076
2316.604918	-2.989800	3.184700	-9.520100	27.283011	0.000311	20.742851
2317.606673	-3.003400	3.182500	-9.557800	27.315211	0.000310	20.726876
2318.606400	-3.009600	3.182400	-9.576800	27.317592	0.000310	20.745868
2319.606151	-2.987700	3.184900	-9.514100	27.327288	0.000309	20.740448
2320.609455	-3.019700	3.180100	-9.602400	27.312822	0.000308	20.742018
2321.605575	-2.965800	3.182900	-9.438200	27.349483	0.000308	20.726739
2322.606271	-2.999200	3.181200	-9.539900	27.369807	0.000309	20.745763
2323.610674	-2.996400	3.179400	-9.526000	27.382679	0.000308	20.738323
2324.607371	-3.016500	3.179300	-9.589000	27.380843	0.000308	20.743589
2325.605929	-2.996000	3.179200	-9.523500	27.417777	0.000307	20.741864
2326.608698	-3.024400	3.177500	-9.608800	27.404605	0.000308	20.726715
2327.609406	-2.979500	3.178900	-9.471100	27.440278	0.000306	20.752173
2328.607061	-2.997700	3.177100	-9.523100	27.481996	0.000305	20.755738
2329.606881	-3.004700	3.176100	-9.542300	27.536193	0.000304	20.719700
2330.611718	-3.016400	3.175100	-9.576200	27.559358	0.000304	20.736371
2331.607811	-3.005200	3.174900	-9.539500	27.553085	0.000304	20.744758
2332.610264	-2.991500	3.174300	-9.494500	27.510947	0.000305	20.733655
2333.611615	-3.001900	3.174200	-9.527700	27.438679	0.000304	20.723536
2334.609078	-3.023100	3.172900	-9.590800	27.415047	0.000301	20.732953
2335.610334	-2.989700	3.174700	-9.489900	27.415120	0.000300	20.729233
2336.609819	-3.011000	3.172300	-9.550200	27.362356	0.000301	20.743483
2337.608115	-2.983800	3.172000	-9.462900	27.313783	0.000300	20.737294
2338.609162	-2.987800	3.172300	-9.477500	27.271726	0.000300	20.725809
2339.609649	-3.006800	3.170700	-9.533200	27.244141	0.000300	20.732675
2340.610033	-3.004200	3.170900	-9.524700	27.269903	0.000298	20.722553
2341.611526	-2.986500	3.170400	-9.467300	27.269847	0.000298	20.734351
2342.610734	-3.006200	3.170500	-9.530100	27.295822	0.000298	20.730132
2343.611829	-2.987700	3.169700	-9.468000	27.326314	0.000296	20.732356
2344.612018	-2.995100	3.168800	-9.490400	27.313084	0.000296	20.731376
2345.614117	-2.987800	3.166000	-9.458100	27.285850	0.000295	20.713462
2346.612364	-3.003400	3.167100	-9.511500	27.304729	0.000295	20.719177
2347.612499	-3.000200	3.166400	-9.498900	27.316195	0.000295	20.733083
2348.614691	-3.017100	3.165800	-9.550300	27.298081	0.000291	20.719602
2349.613278	-2.997800	3.165000	-9.486700	27.302274	0.000293	20.735675
2350.612895	-3.038400	3.165900	-9.618000	27.308028	0.000291	20.738618
2351.613216	-3.011300	3.164700	-9.528300	27.324257	0.000292	20.730287
2352.613024	-2.987200	3.164000	-9.449700	27.358617	0.000292	20.719806
2353.613787	-3.028800	3.161500	-9.574100	27.360502	0.000290	20.724548
2354.613845	-3.000900	3.161900	-9.488100	27.353359	0.000290	20.745338
2355.614592	-2.997500	3.162000	-9.477400	27.352521	0.000292	20.718889
2356.613490	-2.989500	3.161900	-9.451000	27.350604	0.000290	20.744463
2357.615018	-2.995000	3.160500	-9.463200	27.330189	0.000290	20.720132
2358.613474	-2.989700	3.161900	-9.452300	27.323639	0.000287	20.741046
2359.613714	-2.997800	3.159100	-9.469200	27.297550	0.000288	20.717171
2360.622313	-3.001000	3.159600	-9.481000	27.233693	0.000290	20.711734
2361.615380	-2.976200	3.160000	-9.403300	27.204411	0.000286	20.711678
2362.615736	-3.003200	3.155900	-9.476700	27.142630	0.000286	20.721611
2363.618510	-3.035300	3.155800	-9.577000	27.129803	0.000285	20.724832
2364.615256	-2.986500	3.157700	-9.428900	27.151943	0.000285	20.722918
2365.616838	-2.987800	3.156200	-9.429500	27.193680	0.000284	20.735025
2366.621253	-3.008500	3.154100	-9.488300	27.259547	0.000284	20.740111
2367.617464	-2.982300	3.154200	-9.405600	27.293713	0.000284	20.707621
2368.618519	-3.017000	3.153100	-9.511400	27.327448	0.000284	20.712159
2369.628446	-2.995500	3.152300	-9.441700	27.347441	0.000283	20.725633
2370.620793	-2.984300	3.155500	-9.415900	27.407576	0.000282	20.710737
2371.619198	-2.997500	3.152600	-9.449400	27.416807	0.000283	20.695840
2372.624930	-2.992200	3.151800	-9.429900	27.430426	0.000282	20.699584
2373.621899	-3.029100	3.149500	-9.538900	27.467261	0.000283	20.712935
2374.621421	-3.005200	3.150500	-9.467100	27.441842	0.000281	20.708699
2375.624630	-3.028900	3.149800	-9.539400	27.430499	0.000283	20.714358
2376.624179	-2.968000	3.150000	-9.347800	27.369479	0.000279	20.701334
2377.624413	-2.997300	3.148700	-9.436500	27.369056	0.000279	20.703279
2378.624806	-2.987500	3.149000	-9.405500	27.388332	0.000278	20.705127
2379.622915	-3.001500	3.147400	-9.445700	27.417302	0.000279	20.716729
2380.624355	-2.988100	3.145700	-9.398700	27.423852	0.000281	20.706248
2381.628810	-3.008100	3.146800	-9.464200	27.469893	0.000279	20.711316
2382.625844	-3.005000	3.144700	-9.448600	27.456452	0.000279	20.716286
2383.624259	-3.006000	3.143700	-9.449000	27.462377	0.000277	20.704702
2384.627271	-3.007300	3.142300	-9.447600	27.450675	0.000278	20.685815
2385.624784	-3.004000	3.141400	-9.435600	27.463595	0.000279	20.697867
2386.625106	-2.991300	3.142800	-9.399800	27.469869	0.000278	20.707972
2387.626995	-3.009600	3.141300	-9.453500	27.497430	0.000276	20.693975
2388.623942	-3.006700	3.140100	-9.440800	27.527169	0.000276	20.712517
2389.624935	-3.031200	3.138500	-9.512100	27.555630	0.000277	20.699900
2390.627577	-3.001200	3.139200	-9.419900	27.568144	0.000274	20.691154
2391.624282	-3.000100	3.138600	-9.415200	27.590837	0.000273	20.692651
2392.627415	-2.974500	3.139400	-9.336100	27.601609	0.000275	20.693532
2393.630027	-3.023900	3.136300	-9.481700	27.620801	0.000275	20.707628
2394.626904	-3.013500	3.136200	-9.450400	27.614308	0.000275	20.695879
2395.625387	-3.000700	3.135700	-9.408800	27.615526	0.000273	20.721288
2396.628214	-3.019500	3.135400	-9.465900	27.618947	0.000272	20.689166
2397.625126	-3.007900	3.133100	-9.422300	27.624326	0.000273	20.682250
2398.626627	-3.012000	3.133300	-9.435900	27.631499	0.000270	20.687097
2399.627697	-3.013000	3.132100	-9.435900	27.625105	0.000275	20.668807
2400.627268	-3.006600	3.131900	-9.414800	27.591647	0.000270	20.686353
2401.626061	-2.969100	3.131700	-9.296800	27.577039	0.000270	20.689672
2402.638004	-3.006400	3.129700	-9.407900	27.578250	0.000269	20.702271
2403.628335	-3.016600	3.129700	-9.440000	27.582840	0.000268	20.691716
2404.628083	-2.999200	3.128700	-9.382500	27.602315	0.000270	20.700406
2405.633433	-3.017700	3.126800	-9.435400	27.625331	0.000268	20.691323
2406.629391	-2.975300	3.127800	-9.304700	27.636843	0.000267	20.701010
2407.626693	-3.012700	3.125500	-9.415600	27.665605	0.000270	20.683483
2408.628018	-2.972300	3.127800	-9.294900	27.674020	0.000269	20.700487
2409.637052	-3.005500	3.125100	-9.392100	27.718783	0.000270	20.693374
2410.628450	-3.004400	3.124100	-9.384900	27.725429	0.000267	20.702433
2411.627661	-3.014300	3.124000	-9.415600	27.714543	0.000269	20.678200
2412.628489	-3.018800	3.124200	-9.431000	27.720815	0.000267	20.675976
2413.629718	-3.027200	3.121700	-9.448600	27.734950	0.000266	20.688306
2414.629949	-2.987400	3.121600	-9.324500	27.741033	0.000266	20.682099
2415.630775	-2.986300	3.121100	-9.319000	27.697238	0.000266	20.700617
2416.630840	-2.995400	3.120300	-9.345300	27.706539	0.000265	20.711875
2417.635796	-2.970500	3.119300	-9.265200	27.730765	0.000266	20.687413
2418.636138	-2.977900	3.119900	-9.289000	27.694980	0.000265	20.693603
2419.629189	-2.996600	3.118600	-9.344200	27.608252	0.000265	20.690259
2420.631663	-2.968200	3.117500	-9.251100	27.569188	0.000264	20.697421
2421.629111	-3.027200	3.114700	-9.427500	27.578002	0.000266	20.684003
2422.634447	-2.979300	3.115700	-9.281800	27.604035	0.000265	20.681748
2423.630234	-2.989000	3.115400	-9.311000	27.592450	0.000264	20.684315
2424.632974	-2.980400	3.113900	-9.279200	27.596789	0.000265	20.680620
2425.634718	-2.990400	3.112900	-9.307600	27.581783	0.000264	20.688281
2426.630823	-3.011200	3.111500	-9.368600	27.572934	0.000264	20.677954
2427.632241	-2.996500	3.112400	-9.325400	27.625810	0.000264	20.706978
2428.636279	-2.989600	3.110700	-9.299000	27.627817	0.000262	20.695246
2429.635017	-2.990300	3.110100	-9.299500	27.633649	0.000261	20.670293
2430.641262	-3.006400	3.108200	-9.343200	27.658893	0.000262	20.693325
2431.635067	-2.989400	3.109000	-9.293400	27.651207	0.000261	20.693178
2432.634132	-3.001200	3.106100	-9.321400	27.684418	0.000263	20.684396
2433.640268	-3.000300	3.107200	-9.321100	27.704501	0.000261	20.689433
2434.639506	-3.018000	3.104700	-9.368900	27.733690	0.000259	20.695099
2435.641650	-3.002700	3.103500	-9.318300	27.786785	0.000260	20.708703
2436.637116	-2.981000	3.103400	-9.250700	27.790530	0.000260	20.673588
2437.639477	-2.975200	3.104100	-9.234200	27.715387	0.000261	20.687111
2438.638613	-2.996900	3.100700	-9.291700	27.673647	0.000260	20.710069
2439.640934	-2.989300	3.100700	-9.267600	27.652742	0.000260	20.695197
2440.638679	-3.011200	3.099000	-9.331000	27.669064	0.000259	20.665625
2441.640210	-2.998100	3.099000	-9.290500	27.668041	0.000258	20.684986
2442.640507	-3.008200	3.097700	-9.318000	27.612786	0.000260	20.691502
2443.639351	-2.987800	3.098300	-9.255400	27.581311	0.000258	20.684962
2444.642746	-2.977200	3.097000	-9.219500	27.508535	0.000257	20.686655
2445.644267	-2.985100	3.095900	-9.239500	27.513077	0.000257	20.695966
2446.642957	-2.984700	3.095100	-9.236800	27.476641	0.000257	20.693922
2447.640785	-2.983600	3.095300	-9.233500	27.482541	0.000257	20.688478
2448.643404	-2.985500	3.094200	-9.236700	27.525225	0.000260	20.712932
2449.643979	-2.997400	3.092800	-9.269900	27.565491	0.000256	20.716936
2450.642591	-3.042000	3.090800	-9.401500	27.576567	0.000258	20.692991
2451.642326	-3.018100	3.090100	-9.325200	27.621188	0.000258	20.689050
2452.641553	-3.006700	3.088800	-9.286200	27.627705	0.000257	20.690392
2453.640274	-3.024300	3.087400	-9.335500	27.623488	0.000258	20.693736
2454.645790	-2.993700	3.088000	-9.243500	27.583790	0.000256	20.700259
2455.642178	-3.000900	3.087000	-9.262800	27.611764	0.000255	20.680989
2456.645666	-3.009700	3.085500	-9.285100	27.634815	0.000256	20.688537
2457.645690	-3.001800	3.085200	-9.260100	27.651842	0.000255	20.677220
2458.643204	-2.990500	3.083300	-9.219900	27.654987	0.000255	20.683230
2459.645511	-3.013000	3.082700	-9.287000	27.711635	0.000255	20.703251
2460.646918	-3.009400	3.080600	-9.270000	27.734692	0.000256	20.701797
2461.645030	-3.010900	3.079600	-9.271300	27.737218	0.000255	20.686795
2462.645983	-3.017300	3.079000	-9.288600	27.685866	0.000254	20.710512
2463.649862	-2.979300	3.079200	-9.172900	27.643475	0.000255	20.684923
2464.646341	-3.004300	3.079300	-9.249500	27.630110	0.000256	20.684277
2465.645100	-2.994600	3.076600	-9.211900	27.621279	0.000255	20.691987
2466.647560	-2.981300	3.076600	-9.170000	27.653981	0.000255	20.708299
2467.648350	-2.996500	3.074400	-9.211700	27.693838	0.000255	20.691031
2468.646202	-2.993300	3.075100	-9.204200	27.716448	0.000253	20.709044
2469.648437	-3.010300	3.072400	-9.247800	27.704742	0.000253	20.712911
2470.647981	-2.980600	3.073600	-9.160900	27.723614	0.000254	20.690174
2471.646934	-2.994700	3.071300	-9.197200	27.748830	0.000255	20.699904
2472.650539	-3.034700	3.069600	-9.314400	27.745630	0.000254	20.704270
2473.648328	-3.011600	3.068400	-9.239600	27.769303	0.000253	20.715292
2474.649070	-2.992000	3.068400	-9.180000	27.792585	0.000254	20.696996
2475.650376	-2.988000	3.067600	-9.164800	27.814697	0.000251	20.717828
2476.648159	-3.020400	3.065800	-9.258600	27.802284	0.000252	20.686366
2477.647055	-2.979300	3.065100	-9.131200	27.768476	0.000252	20.710192
2478.649994	-3.009000	3.063500	-9.217300	27.708979	0.000252	20.711485
2479.650703	-3.018000	3.060800	-9.236000	27.702114	0.000253	20.722120
2480.649816	-2.987700	3.061600	-9.145900	27.730353	0.000251	20.717347
2481.651304	-3.004200	3.061500	-9.196300	27.772207	0.000253	20.720111
2482.649328	-3.007700	3.059800	-9.201700	27.827575	0.000253	20.706132
2483.648852	-3.024500	3.057000	-9.245500	27.852692	0.000251	20.703908
2484.650302	-3.025300	3.056300	-9.245200	27.859710	0.000251	20.720930
2485.650401	-3.024100	3.056000	-9.240300	27.823939	0.000250	20.719068
2486.651670	-3.011600	3.054000	-9.196400	27.827861	0.000251	20.709739
2487.651989	-3.017800	3.054000	-9.215100	27.858551	0.000250	20.697951
2488.651931	-3.001900	3.053600	-9.165700	27.834150	0.000251	20.715594
2489.652588	-3.033000	3.051600	-9.254500	27.796152	0.000251	20.721450
2490.652884	-2.997400	3.051800	-9.147200	27.725306	0.000250	20.713691
2491.651668	-2.996700	3.049600	-9.137500	27.682048	0.000251	20.713308
2492.658001	-2.998600	3.048400	-9.139700	27.646732	0.000248	20.723290
2493.655173	-3.011500	3.046500	-9.173000	27.625576	0.000251	20.726185
2494.652490	-3.000100	3.046900	-9.139900	27.595913	0.000250	20.723838
2495.652246	-3.008700	3.046400	-9.164500	27.613519	0.000248	20.737762
2496.657217	-2.990800	3.046200	-9.109300	27.652648	0.000246	20.720234
2497.654378	-3.003800	3.043700	-9.140700	27.676931	0.000250	20.727126
2498.656150	-3.025900	3.042300	-9.204300	27.731184	0.000248	20.745686
2499.659451	-2.972000	3.043100	-9.043000	27.764410	0.000249	20.733603
2500.656777	-2.998900	3.040600	-9.117700	27.790673	0.000249	20.707874
2501.658605	-3.021800	3.039700	-9.184500	27.811372	0.000248	20.719223
2502.659020	-2.995500	3.038300	-9.099700	27.827390	0.000249	20.737716
2503.659372	-3.006000	3.036300	-9.125800	27.802493	0.000252	20.710761
2504.657724	-2.991300	3.036000	-9.081100	27.737620	0.000250	20.720867
2505.659508	-3.009100	3.033600	-9.127800	27.707813	0.000250	20.732598
2506.657772	-3.005300	3.032900	-9.114300	27.703768	0.000249	20.735640
2507.658827	-3.026200	3.030400	-9.169800	27.712421	0.000248	20.720639
2508.658185	-3.001600	3.030600	-9.096400	27.726012	0.000250	20.740006
2509.658818	-3.015700	3.029400	-9.135100	27.775184	0.000249	20.721685
2510.658154	-2.991000	3.029300	-9.059600	27.764096	0.000249	20.745616
2511.659965	-2.976400	3.027400	-9.009800	27.731610	0.000248	20.742795
2512.660044	-3.006500	3.025800	-9.095700	27.756264	0.000250	20.731569
2513.661407	-3.012500	3.023300	-9.106900	27.784405	0.000248	20.735707
2514.666181	-3.010100	3.022800	-9.097500	27.752659	0.000246	20.733157
2515.662976	-3.000500	3.020800	-9.062600	27.770961	0.000247	20.734506
2516.662107	-2.972000	3.021400	-8.978600	27.798141	0.000247	20.746687
2517.664589	-2.961200	3.021000	-8.945100	27.801488	0.000248	20.733933
2518.664333	-3.012600	3.017400	-9.089100	27.777809	0.000249	20.746613
2519.662462	-2.965300	3.018100	-8.948600	27.777735	0.000250	20.737056
2520.666650	-2.995500	3.016400	-9.034200	27.822145	0.000247	20.730066
2521.663007	-2.980100	3.015300	-8.983900	27.828814	0.000248	20.749107
2522.662210	-2.991500	3.012700	-9.011200	27.858569	0.000248	20.743965
2523.663811	-3.006100	3.012100	-9.053300	27.844808	0.000247	20.741021
2524.664359	-2.999400	3.012500	-9.034900	27.820125	0.000247	20.744629
2525.665056	-3.005900	3.009500	-9.045100	27.803837	0.000248	20.745307
2526.664793	-3.019300	3.008700	-9.082500	27.780206	0.000249	20.762303
2527.665951	-3.004200	3.007700	-9.034700	27.796103	0.000246	20.762654
2528.664974	-2.991400	3.005400	-8.989500	27.812422	0.000248	20.750154
2529.666684	-3.000900	3.004800	-9.015900	27.781173	0.000247	20.768017
2530.666661	-3.019700	3.004000	-9.070500	27.774706	0.000248	20.754871
2531.668365	-3.025400	3.002000	-9.081100	27.764267	0.000247	20.741994
2532.667086	-2.992600	3.000200	-8.977400	27.793406	0.000248	20.754249
2533.666275	-3.021600	2.998900	-9.060700	27.839301	0.000246	20.741169
2534.667253	-2.963100	2.999300	-8.885900	27.841682	0.000249	20.760160
2535.668725	-3.014300	2.997300	-9.033600	27.837864	0.000246	20.731661
2536.668485	-3.020600	2.995600	-9.047000	27.896129	0.000246	20.763750
2537.667613	-3.013500	2.993200	-9.018500	27.977975	0.000247	20.753669
2538.669559	-3.011800	2.993500	-9.014800	27.998978	0.000246	20.759637
2539.668006	-2.975200	2.992800	-8.902900	27.984724	0.000246	20.747186
2540.669586	-3.007700	2.990300	-8.992600	27.980240	0.000246	20.749785
2541.668509	-3.014100	2.989000	-9.008200	28.022164	0.000247	20.754052
2542.668435	-3.011200	2.987600	-8.995400	28.057596	0.000246	20.746571
2543.668447	-2.996500	2.988200	-8.951700	28.079801	0.000248	20.748060
2544.669797	-2.975700	2.986400	-8.884300	28.080945	0.000246	20.751109
2545.670603	-3.008500	2.984200	-8.977000	28.088457	0.000246	20.757249
2546.679440	-2.995900	2.982600	-8.934500	28.086364	0.000246	20.754667
2547.671807	-3.030000	2.980500	-9.029400	28.004466	0.000244	20.744298
2548.672212	-3.032600	2.979400	-9.034500	27.962364	0.000246	20.766405
2549.673164	-3.016600	2.977300	-8.980000	27.945087	0.000244	20.776043
2550.671904	-3.009100	2.977500	-8.958700	27.931517	0.000245	20.771867
2551.673413	-3.017600	2.975900	-8.978800	27.920210	0.000243	20.767125
2552.673234	-3.014700	2.974000	-8.965000	27.931223	0.000245	20.759718
2553.674199	-3.004100	2.972600	-8.929200	27.939263	0.000247	20.761172
2554.674819	-2.993100	2.971200	-8.891800	27.942952	0.000244	20.767729
2555.679463	-3.011600	2.970300	-8.944100	27.955671	0.000243	20.781006
2556.673511	-3.024700	2.967600	-8.974200	27.969957	0.000245	20.774048
2557.676217	-2.971000	2.968200	-8.817600	27.974165	0.000246	20.774016
2558.676739	-3.012700	2.965500	-8.933600	27.974789	0.000247	20.779387
2559.676125	-2.999600	2.964400	-8.891300	28.005740	0.000247	20.793945
2560.676578	-2.958100	2.964600	-8.767600	28.013797	0.000245	20.786408
2561.678788	-3.002600	2.961300	-8.890600	28.034725	0.000244	20.761955
2562.675776	-2.984400	2.959900	-8.832100	28.021260	0.000243	20.755513
2563.680224	-2.999500	2.959000	-8.874100	28.047321	0.000247	20.788859
2564.676615	-2.982300	2.957900	-8.820400	28.090160	0.000244	20.782671
2565.674963	-3.004100	2.955500	-8.878300	28.091175	0.000244	20.769942
2566.675566	-3.019700	2.953600	-8.918100	28.060810	0.000245	20.781575
2567.678536	-3.001400	2.952600	-8.861200	27.989835	0.000246	20.777462
2568.676234	-2.985000	2.952300	-8.811500	27.943492	0.000245	20.757842
2569.679172	-2.977400	2.951800	-8.787500	27.926809	0.000244	20.760964
2570.678208	-3.039300	2.946000	-8.951500	27.928603	0.000246	20.788849
2571.675357	-2.999100	2.946400	-8.835800	27.927653	0.000244	20.760866
2572.678175	-2.987900	2.944800	-8.797800	27.955950	0.000245	20.782709
2573.677629	-2.995300	2.944000	-8.817100	28.000003	0.000243	20.783903
2574.677608	-2.989300	2.942700	-8.795700	28.048643	0.000245	20.767431
2575.677667	-2.999400	2.940600	-8.819300	28.101796	0.000244	20.780159
2576.679269	-3.006000	2.938300	-8.830500	28.096646	0.000244	20.785881
2577.682158	-2.992900	2.938200	-8.792200	28.089720	0.000243	20.796453
2578.679630	-2.993800	2.934800	-8.785600	28.107350	0.000245	20.785751
2579.679522	-3.010300	2.933500	-8.829200	28.116697	0.000242	20.781410
2580.679849	-3.006700	2.933400	-8.817900	28.150040	0.000246	20.775147
2581.682310	-3.015100	2.931800	-8.839100	28.178997	0.000245	20.774901
2582.681883	-2.976800	2.930800	-8.723700	28.183749	0.000245	20.788694
2583.679502	-2.989100	2.928000	-8.751400	28.172581	0.000244	20.768916
2584.681479	-2.988700	2.926200	-8.744500	28.186257	0.000243	20.798806
2585.681377	-2.996700	2.923500	-8.760000	28.171559	0.000245	20.780690
2586.679067	-2.994900	2.922200	-8.750900	28.109907	0.000245	20.789748
2587.681587	-3.004700	2.922300	-8.779800	28.033901	0.000244	20.794791
2588.683179	-3.004800	2.920500	-8.774500	27.999857	0.000244	20.769057
2589.682587	-3.037700	2.917600	-8.861200	27.963536	0.000246	20.778491
2590.685199	-2.998300	2.916600	-8.744200	27.984490	0.000245	20.795315
2591.684955	-2.983900	2.915600	-8.698100	28.032164	0.000244	20.793516
2592.683910	-3.003700	2.914500	-8.753300	28.066930	0.000245	20.784890
2593.686802	-2.977900	2.913100	-8.674500	28.065834	0.000243	20.802754
2594.685750	-3.017600	2.908100	-8.773900	28.073939	0.000244	20.813757
2595.686282	-2.994900	2.908200	-8.709700	28.008091	0.000245	20.784458
2596.688400	-3.005400	2.906300	-8.733500	27.969042	0.000244	20.800155
2597.686723	-2.982700	2.906200	-8.666300	27.961456	0.000244	20.787777
2598.689317	-3.013200	2.903300	-8.747200	27.954243	0.000242	20.798061
2599.689672	-3.011800	2.901600	-8.738100	27.983150	0.000244	20.785431
2600.689646	-2.997800	2.900600	-8.694700	28.041285	0.000242	20.818344
2601.689252	-2.975100	2.898200	-8.621700	28.096785	0.000244	20.811151
2602.691285	-3.035700	2.895100	-8.787100	28.150187	0.000245	20.808011
2603.691069	-3.017500	2.894300	-8.733000	28.170121	0.000243	20.791097
2604.691993	-3.007300	2.891700	-8.695500	28.231096	0.000242	20.795111
2605.694282	-2.987800	2.891500	-8.638800	28.251769	0.000245	20.790320
2606.690784	-3.025400	2.888200	-8.736900	28.200403	0.000244	20.807832
2607.694437	-2.999800	2.888600	-8.664400	28.181945	0.000244	20.811534
2608.693987	-3.007800	2.884900	-8.676300	28.177211	0.000244	20.803449
2609.691096	-2.973400	2.884200	-8.574500	28.180030	0.000245	20.804390
2610.692175	-2.994000	2.880900	-8.624000	28.124184	0.000243	20.803646
2611.695116	-3.022800	2.878200	-8.699700	28.064861	0.000242	20.804145
2612.690425	-3.002700	2.878000	-8.641200	28.048894	0.000243	20.811306
2613.691285	-3.070800	2.873600	-8.822400	28.036445	0.000244	20.803990
2614.692177	-2.995100	2.874300	-8.606800	28.003869	0.000243	20.811028
2615.692460	-3.000300	2.872900	-8.618400	27.951281	0.000244	20.802192
2616.690209	-3.034000	2.870000	-8.706200	27.930456	0.000246	20.812525
2617.691878	-3.016000	2.867700	-8.647300	27.966722	0.000244	20.833380
2618.695157	-3.008300	2.865100	-8.618300	28.005837	0.000242	20.822018
2619.692455	-3.014600	2.864600	-8.634500	28.077582	0.000243	20.819321
2620.693132	-3.001500	2.862700	-8.590900	28.139877	0.000243	20.816125
2621.697269	-3.039100	2.859200	-8.688300	28.163751	0.000244	20.829253
2622.691899	-2.988600	2.857800	-8.539800	28.158228	0.000243	20.811840
2623.693689	-2.971400	2.856600	-8.487100	28.186058	0.000243	20.822313
2624.694766	-3.000700	2.853400	-8.560400	28.234634	0.000245	20.822380
2625.692255	-3.012000	2.851700	-8.588400	28.315171	0.000243	20.841353
2626.692934	-2.980300	2.852200	-8.497400	28.323518	0.000243	20.807559
2627.693406	-3.005200	2.848000	-8.558600	28.394617	0.000244	20.825569
2628.694252	-3.018000	2.845400	-8.587100	28.367849	0.000242	20.841764
2629.695092	-3.014100	2.843600	-8.569200	28.367459	0.000245	20.810551
2630.698543	-3.007700	2.844000	-8.552500	28.389168	0.000241	20.821980
2631.692852	-3.001700	2.840900	-8.525700	28.414589	0.000244	20.835249
2632.696160	-3.016900	2.836800	-8.557600	28.437313	0.000245	20.820199
2633.696180	-3.006100	2.835700	-8.522500	28.443587	0.000243	20.846431
2634.695635	-3.008600	2.831500	-8.517000	28.459021	0.000245	20.829731
2635.697327	-3.015400	2.830000	-8.532900	28.492873	0.000245	20.832053
2636.696520	-2.998000	2.830200	-8.484600	28.477035	0.000245	20.850242
2637.695078	-2.995700	2.827200	-8.467900	28.444913	0.000245	20.815524
2638.695072	-2.985500	2.826000	-8.435800	28.442980	0.000244	20.844872
2639.696357	-3.011800	2.822800	-8.500700	28.445774	0.000245	20.850530
2640.695620	-3.011200	2.820600	-8.492800	28.378017	0.000244	20.850105
2641.695755	-3.025600	2.817200	-8.522100	28.332023	0.000243	20.828449
2642.697930	-3.017100	2.815500	-8.492900	28.303548	0.000245	20.858573
2643.698324	-3.017700	2.812500	-8.485400	28.302857	0.000245	20.836067
2644.699952	-2.985800	2.811400	-8.393400	28.267108	0.000244	20.840376
2645.702598	-2.984000	2.808600	-8.378500	28.268221	0.000245	20.846712
2646.702899	-2.986400	2.806800	-8.381300	28.290697	0.000243	20.848005
2647.701053	-2.975400	2.804600	-8.343600	28.311547	0.000245	20.860936
2648.700334	-2.976500	2.801600	-8.337500	28.368080	0.000244	20.830142
2649.699503	-2.976900	2.798600	-8.329600	28.390089	0.000243	20.841873
2650.701313	-3.005200	2.795100	-8.398600	28.435489	0.000243	20.838276
2651.701278	-2.980200	2.794000	-8.325200	28.460224	0.000243	20.850857
2652.701937	-3.010500	2.790800	-8.401000	28.492542	0.000245	20.845943
2653.702697	-3.001500	2.787700	-8.366600	28.512341	0.000244	20.847864
2654.703849	-3.028900	2.785300	-8.435400	28.535785	0.000242	20.850137
2655.702167	-3.015700	2.782900	-8.391000	28.544333	0.000243	20.843572
2656.704166	-3.043100	2.779600	-8.457400	28.541110	0.000242	20.865930
2657.706095	-3.002600	2.777400	-8.338400	28.539234	0.000243	20.851713
2658.704003	-3.003900	2.776300	-8.339600	28.577760	0.000243	20.847840
2659.703794	-2.971300	2.773300	-8.239300	28.585593	0.000243	20.847193
2660.702632	-3.025500	2.767900	-8.373900	28.554122	0.000242	20.843000
2661.704720	-3.009100	2.766200	-8.322700	28.544144	0.000242	20.860926
2662.707082	-2.995400	2.763300	-8.276500	28.508564	0.000242	20.843586
2663.704361	-3.008400	2.761100	-8.305000	28.534117	0.000242	20.836604
2664.703966	-2.988200	2.757200	-8.237700	28.511023	0.000243	20.817614
2665.705807	-3.016300	2.753900	-8.305300	28.497002	0.000242	20.837159
2666.703173	-3.016000	2.751700	-8.298100	28.489964	0.000243	20.821537
2667.704918	-3.049300	2.745700	-8.371900	28.473865	0.000243	20.836618
2668.706836	-3.006600	2.745600	-8.254200	28.424132	0.000243	20.839642
2669.705153	-2.991600	2.742400	-8.202700	28.420120	0.000243	20.824224
2670.707196	-2.976800	2.739500	-8.152800	28.444135	0.000242	20.803361
2671.707270	-2.951100	2.736900	-8.075900	28.484262	0.000244	20.808208
2672.704587	-3.003500	2.732700	-8.205900	28.515459	0.000243	20.814969
2673.707808	-2.987600	2.728800	-8.151400	28.563367	0.000244	20.814853
2674.709889	-2.975400	2.727400	-8.113400	28.577662	0.000244	20.822612
2675.705955	-2.980400	2.724600	-8.118000	28.549023	0.000243	20.823167
2676.704611	-3.018900	2.720100	-8.210300	28.526943	0.000242	20.797138
2677.709635	-3.008800	2.716200	-8.171000	28.453970	0.000242	20.816111
2678.707148	-3.028000	2.711400	-8.209000	28.392140	0.000241	20.826394
2679.705986	-3.001200	2.709900	-8.131800	28.350133	0.000243	20.808278
2680.710636	-2.999500	2.704700	-8.111000	28.352121	0.000241	20.796056
2681.708100	-3.006100	2.703100	-8.123800	28.397651	0.000245	20.808236
2682.706574	-2.997600	2.698600	-8.088400	28.450817	0.000244	20.818625
2683.709035	-2.986200	2.695700	-8.049700	28.484896	0.000242	20.789407
2684.709866	-3.040400	2.689100	-8.174600	28.515420	0.000245	20.807818
2685.709731	-3.001900	2.686200	-8.062700	28.504996	0.000243	20.811545
2686.710584	-2.998200	2.683600	-8.044300	28.520313	0.000243	20.808004
2687.711386	-3.029600	2.678200	-8.113300	28.574432	0.000243	20.806083
2688.709255	-2.981800	2.674800	-7.974800	28.576989	0.000243	20.784002
2689.711803	-3.012500	2.672000	-8.048300	28.640008	0.000243	20.820919
2690.710492	-2.987100	2.666400	-7.963500	28.646299	0.000243	20.792168
2691.711805	-2.996400	2.664300	-7.982600	28.630568	0.000242	20.794342
2692.714976	-3.003600	2.659600	-7.986800	28.653869	0.000244	20.790784
2693.715816	-2.986100	2.654700	-7.926100	28.674339	0.000245	20.799547
2694.716179	-2.970200	2.651600	-7.875000	28.662919	0.000245	20.808907
2695.718073	-2.975600	2.648100	-7.878600	28.597383	0.000244	20.790791
2696.715683	-2.992300	2.643600	-7.910000	28.566446	0.000243	20.784290
2697.716057	-2.982600	2.639000	-7.869800	28.565895	0.000244	20.785631
2698.718258	-3.004400	2.633100	-7.908800	28.525437	0.000242	20.790879
2699.714594	-2.975400	2.628900	-7.821000	28.478953	0.000243	20.802862
2700.717301	-2.996000	2.624700	-7.861600	28.460444	0.000245	20.800344
2701.720527	-2.963400	2.620200	-7.763800	28.446723	0.000242	20.804545
2702.716859	-3.009300	2.613300	-7.863300	28.482605	0.000244	20.798953
2703.720325	-3.006300	2.610500	-7.847400	28.529290	0.000245	20.781483
2704.721254	-3.016600	2.603400	-7.851900	28.529427	0.000241	20.778775
2705.719412	-3.000000	2.599300	-7.796800	28.571329	0.000243	20.780198
2706.719141	-3.002300	2.594100	-7.786700	28.639147	0.000244	20.791128
2707.722267	-2.999000	2.588500	-7.761800	28.695962	0.000244	20.781497
2708.719385	-2.989300	2.584100	-7.723400	28.764801	0.000242	20.778291
2709.719883	-2.990800	2.579400	-7.713200	28.781227	0.000242	20.777768
2710.719736	-2.972400	2.574000	-7.650500	28.817593	0.000243	20.782632
2711.719637	-2.997600	2.568000	-7.696600	28.889443	0.000243	20.771561
2712.720525	-2.994900	2.561300	-7.669300	28.954441	0.000243	20.784887
2713.722182	-3.039600	2.555200	-7.765300	28.940890	0.000241	20.793046
2714.721599	-3.008900	2.550600	-7.674000	28.984024	0.000246	20.758741
2715.720514	-3.000200	2.543700	-7.630300	28.995741	0.000246	20.777659
2716.722907	-2.995000	2.537300	-7.598400	29.006621	0.000246	20.765861
2717.720920	-3.000200	2.533000	-7.598300	29.029924	0.000246	20.776064
2718.721113	-2.997100	2.527100	-7.572100	29.050282	0.000244	20.770023
2719.723403	-3.046900	2.521200	-7.680700	29.063887	0.000244	20.783257
2720.721731	-3.011100	2.513900	-7.568800	29.101136	0.000243	20.765313
2721.722519	-2.992800	2.508500	-7.506400	29.083028	0.000244	20.768878
2722.726338	-2.993800	2.502300	-7.490800	29.017849	0.000248	20.764846
2723.723275	-3.019000	2.495800	-7.533600	29.040536	0.000244	20.791971
