LabVIEW Measurement	
Writer_Version	2
Reader_Version	2
Separator	Tab
Decimal_Separator	.
Multi_Headings	No
X_Columns	One
Time_Pref	Absolute
Operator	admin
Description	Clolumns are: time, Current, Voltage, Power, Battery Temp, and Chamber Temp
Date	2024/08/16
Time	13:06:06.104549407958984375
***End_of_Header***	
	
Channels	6						
Samples	1	1	1	1	1	1	
Date	2024/09/15	2024/09/15	2024/09/15	2024/09/15	2024/09/15	2024/09/15	
Time	22:25:54.8309345245361328125	22:25:54.8377518653869628906	22:25:54.8437399864196777344	22:25:54.8125400543212890625	22:25:54.8125400543212890625	22:25:54.8125400543212890625	
X_Dimension	Time	Time	Time	Time	Time	Time	
X0	0.0000000000000000E+0	0.0000000000000000E+0	0.0000000000000000E+0	0.0000000000000000E+0	0.0000000000000000E+0	0.0000000000000000E+0	
Delta_X	1.000000	1.000000	1.000000	1.000000	1.000000	1.000000	
***End_of_Header***							
X_Value	Untitled	Untitled 1	Untitled 2	Untitled 3	Untitled 4	Untitled 5	Comment
0.000000	0.027881	4.093200	0.114170	21.026178	0.000945	20.801926
0.999005	-3.025600	3.911000	-11.831000	21.030143	0.000944	20.795461
1.998826	-3.000000	3.904300	-11.712000	21.024628	0.000942	20.809385
3.001050	-2.998900	3.898700	-11.690000	21.040672	0.000941	20.814526
4.001761	-3.015600	3.894400	-11.743000	21.023404	0.000941	20.818592
5.000998	-3.005000	3.891000	-11.691000	21.062202	0.000940	20.812353
6.002352	-3.009700	3.889200	-11.705000	21.024331	0.000937	20.818570
6.999389	-3.017700	3.887500	-11.730000	21.032910	0.000939	20.815772
8.001446	-2.994600	3.884400	-11.630000	21.032839	0.000938	20.810959
9.008465	-3.012000	3.881500	-11.690000	21.030593	0.000936	20.801600
10.001448	-2.998300	3.879600	-11.630000	21.049456	0.000936	20.796285
11.001623	-3.002900	3.878100	-11.644000	21.061955	0.000935	20.830597
12.004335	-2.995700	3.877500	-11.614000	21.047262	0.000932	20.827756
13.003982	-3.015500	3.874100	-11.679000	21.069341	0.000934	20.813330
14.003315	-2.991400	3.875800	-11.593000	21.058735	0.000932	20.822162
15.004073	-2.999500	3.873700	-11.618000	21.069642	0.000931	20.808415
16.004076	-3.000400	3.870600	-11.612000	21.087404	0.000931	20.819069
17.005808	-3.002100	3.870100	-11.618000	21.075557	0.000931	20.822392
18.006155	-3.000100	3.869200	-11.607000	21.081694	0.000930	20.818574
19.016577	-3.004500	3.869000	-11.623000	21.080446	0.000929	20.821118
20.004624	-2.998900	3.867300	-11.597000	21.098660	0.000929	20.838863
21.006000	-3.011300	3.865300	-11.639000	21.115902	0.000928	20.820548
22.008524	-3.012400	3.866700	-11.647000	21.119691	0.000929	20.817700
23.010114	-3.005900	3.863600	-11.612000	21.125057	0.000929	20.817852
24.008202	-2.989600	3.864200	-11.551000	21.111735	0.000928	20.832027
25.007626	-2.992400	3.862400	-11.556000	21.115127	0.000927	20.813135
26.006705	-2.990200	3.862900	-11.549000	21.151453	0.000927	20.817229
27.008678	-3.006400	3.862100	-11.610000	21.143696	0.000926	20.832702
28.007901	-2.997800	3.860300	-11.571000	21.154202	0.000927	20.836099
29.008258	-3.003000	3.859600	-11.589000	21.151234	0.000926	20.852570
30.008090	-3.000500	3.860100	-11.581000	21.157123	0.000925	20.817685
31.007821	-2.974100	3.860700	-11.481000	21.162012	0.000925	20.814041
32.006880	-2.981000	3.860300	-11.507000	21.158744	0.000925	20.828315
33.007824	-2.990800	3.858800	-11.540000	21.181796	0.000925	20.829564
34.008421	-3.005800	3.857400	-11.593000	21.179355	0.000925	20.829018
35.012830	-3.002200	3.858200	-11.580000	21.217423	0.000924	20.824426
36.007390	-2.992600	3.857100	-11.542000	21.185818	0.000924	20.835483
37.008415	-3.022900	3.854100	-11.649000	21.203405	0.000927	20.831739
38.009192	-2.995700	3.854600	-11.546000	21.233942	0.000926	20.836208
39.009265	-3.004600	3.853200	-11.575000	21.230426	0.000926	20.835536
40.009802	-3.014500	3.854000	-11.617000	21.231129	0.000923	20.841930
41.010978	-3.002700	3.852400	-11.566000	21.244998	0.000925	20.829252
42.012012	-3.007100	3.852700	-11.585000	21.257873	0.000924	20.818424
43.010972	-3.010200	3.852500	-11.596000	21.277263	0.000924	20.848252
44.012208	-2.979000	3.853300	-11.477000	21.261520	0.000922	20.818279
45.013424	-3.023800	3.851800	-11.646000	21.271628	0.000922	20.838348
46.015069	-3.002700	3.849700	-11.559000	21.282377	0.000925	20.825395
47.015401	-2.997700	3.851100	-11.543000	21.289465	0.000924	20.832485
48.016505	-2.991300	3.850700	-11.518000	21.310390	0.000925	20.815961
49.018091	-2.990100	3.852400	-11.517000	21.319900	0.000923	20.842545
50.020235	-2.993100	3.851100	-11.524000	21.326585	0.000925	20.843068
51.017524	-2.989900	3.850100	-11.510000	21.331699	0.000924	20.850081
52.019946	-2.986400	3.849500	-11.495000	21.340577	0.000924	20.831463
53.021995	-3.005400	3.848400	-11.564000	21.348015	0.000923	20.843645
54.015979	-2.999100	3.849300	-11.542000	21.367445	0.000924	20.850283
55.021621	-3.003100	3.847900	-11.554000	21.345450	0.000924	20.836812
56.018744	-3.022700	3.847100	-11.627000	21.385306	0.000922	20.840178
57.018059	-2.996600	3.847400	-11.528000	21.369847	0.000924	20.843677
58.018369	-3.011600	3.847000	-11.585000	21.378024	0.000925	20.832892
59.018403	-3.008400	3.846500	-11.571000	21.366353	0.000925	20.838284
60.018718	-3.017700	3.845300	-11.603000	21.393790	0.000923	20.839183
61.020715	-3.008500	3.845700	-11.568000	21.378650	0.000922	20.861966
62.023644	-3.003600	3.845400	-11.548000	21.406787	0.000923	20.861669
63.019072	-2.987100	3.847100	-11.490000	21.411077	0.000924	20.867383
64.021286	-2.986600	3.845800	-11.484000	21.439461	0.000923	20.860222
65.022554	-3.004300	3.843700	-11.546000	21.440582	0.000923	20.851861
66.017221	-2.989900	3.844500	-11.493000	21.448865	0.000924	20.871527
67.025402	-3.002800	3.844400	-11.543000	21.464729	0.000922	20.843779
68.021835	-3.012500	3.844600	-11.581000	21.462360	0.000923	20.831926
69.019486	-2.995500	3.843000	-11.510000	21.472113	0.000921	20.866339
70.022694	-3.010700	3.842800	-11.567000	21.485459	0.000924	20.851719
71.022954	-3.012200	3.842400	-11.573000	21.499601	0.000924	20.855438
72.020023	-3.016600	3.841900	-11.589000	21.498699	0.000923	20.841260
73.021773	-3.011600	3.841200	-11.567000	21.495630	0.000922	20.844827
74.021182	-3.020400	3.842600	-11.605000	21.527205	0.000924	20.869782
75.019437	-3.024600	3.840700	-11.616000	21.514786	0.000922	20.865890
76.021386	-2.986000	3.841600	-11.470000	21.541400	0.000925	20.842261
77.019565	-2.984500	3.840600	-11.460000	21.535289	0.000923	20.853216
78.020061	-2.983800	3.841200	-11.460000	21.536537	0.000925	20.869637
79.022177	-2.985500	3.840600	-11.466000	21.531028	0.000925	20.871236
80.020084	-2.976500	3.840100	-11.429000	21.561577	0.000924	20.861977
81.021437	-2.998100	3.839800	-11.510000	21.557288	0.000926	20.870012
82.024867	-2.999500	3.840400	-11.518000	21.559328	0.000923	20.861149
83.026516	-3.019300	3.839800	-11.593000	21.572924	0.000925	20.865745
84.021597	-3.019800	3.838700	-11.591000	21.583525	0.000924	20.882516
85.022178	-2.998700	3.839500	-11.513000	21.604395	0.000924	20.858831
86.023713	-3.002400	3.839400	-11.526000	21.604869	0.000924	20.888227
87.022820	-2.999600	3.839500	-11.516000	21.603751	0.000926	20.876204
88.023704	-2.968000	3.838600	-11.392000	21.619660	0.000928	20.884062
89.022865	-2.981000	3.838000	-11.440000	21.613001	0.000925	20.872184
90.023715	-2.967000	3.839100	-11.389000	21.635048	0.000924	20.880022
91.026098	-3.009600	3.835600	-11.542000	21.614822	0.000926	20.862154
92.023542	-3.013200	3.836300	-11.559000	21.663550	0.000924	20.862079
93.024948	-3.000200	3.837900	-11.513000	21.639387	0.000926	20.881992
94.031918	-3.005600	3.836800	-11.531000	21.669561	0.000924	20.888481
95.024041	-2.989100	3.835500	-11.463000	21.661581	0.000925	20.881918
96.023900	-2.991000	3.836900	-11.475000	21.687742	0.000927	20.895296
97.027490	-3.007100	3.835100	-11.531000	21.695549	0.000924	20.886514
98.024963	-3.009300	3.835400	-11.539000	21.711184	0.000926	20.876558
99.024513	-3.002000	3.835000	-11.511000	21.725871	0.000927	20.884143
100.027400	-2.985800	3.835300	-11.451000	21.720034	0.000927	20.886362
101.023649	-3.023600	3.834200	-11.592000	21.716844	0.000928	20.897868
102.026197	-2.994200	3.834200	-11.479000	21.738585	0.000926	20.892126
103.030054	-3.002700	3.834400	-11.513000	21.728314	0.000927	20.888011
104.027701	-2.994800	3.834000	-11.480000	21.749114	0.000927	20.872793
105.026811	-2.996100	3.832800	-11.481000	21.745571	0.000926	20.901013
106.028841	-3.011700	3.834100	-11.545000	21.775870	0.000928	20.899096
107.027216	-3.007400	3.833200	-11.527000	21.759261	0.000928	20.893852
108.026861	-3.009000	3.833200	-11.533000	21.769609	0.000929	20.883821
109.029117	-3.017100	3.833100	-11.564000	21.782478	0.000929	20.895278
110.025161	-2.995200	3.831600	-11.475000	21.785448	0.000930	20.882604
111.026107	-3.006000	3.830300	-11.512000	21.828781	0.000930	20.906059
112.030121	-3.012500	3.831800	-11.542000	21.822495	0.000930	20.890760
113.028733	-3.013700	3.831700	-11.546000	21.827186	0.000930	20.892610
114.029192	-3.015800	3.829900	-11.550000	21.819186	0.000930	20.898353
115.029592	-2.982200	3.832000	-11.426000	21.811900	0.000933	20.873518
116.031187	-2.994600	3.831700	-11.473000	21.821180	0.000931	20.872849
117.028836	-3.004600	3.829800	-11.506000	21.862468	0.000932	20.876243
118.033808	-2.980000	3.830500	-11.412000	21.852046	0.000933	20.893785
119.028751	-2.980000	3.830200	-11.413000	21.854365	0.000935	20.854857
120.028664	-3.011600	3.828500	-11.529000	21.853895	0.000932	20.879515
121.031674	-2.994800	3.830600	-11.470000	21.876831	0.000933	20.867860
122.029426	-3.009300	3.828700	-11.521000	21.896925	0.000933	20.889868
123.029644	-3.004400	3.828500	-11.502000	21.893811	0.000934	20.875846
124.030172	-3.000800	3.829300	-11.488000	21.905953	0.000935	20.873302
125.029337	-3.000300	3.828900	-11.486000	21.921310	0.000935	20.878242
126.031529	-3.009400	3.829300	-11.524000	21.947186	0.000935	20.876168
127.032750	-2.996900	3.827400	-11.469000	21.943248	0.000935	20.868434
128.032928	-3.008800	3.827400	-11.514000	21.950855	0.000935	20.861350
129.032223	-3.003500	3.827100	-11.494000	21.930260	0.000935	20.885778
130.035404	-2.987400	3.828300	-11.435000	21.927616	0.000935	20.853262
131.035130	-3.009500	3.826900	-11.516000	21.937164	0.000937	20.881309
132.034305	-3.015400	3.826700	-11.538000	21.960300	0.000938	20.872227
133.035424	-3.008900	3.827700	-11.515000	21.946839	0.000937	20.871080
134.035130	-3.013000	3.827100	-11.530000	21.976928	0.000938	20.860423
135.034569	-2.989200	3.826200	-11.435000	21.956935	0.000938	20.858427
136.036401	-3.011600	3.825800	-11.520000	21.954443	0.000939	20.845028
137.035190	-2.982000	3.826200	-11.409000	21.965959	0.000939	20.852289
138.034880	-2.983400	3.826300	-11.414000	21.985380	0.000940	20.865090
139.036677	-2.983700	3.826800	-11.417000	21.979247	0.000939	20.872701
140.035637	-3.006700	3.824200	-11.498000	21.981743	0.000943	20.861449
141.036069	-2.980200	3.824800	-11.397000	21.987752	0.000939	20.868887
142.037488	-3.002700	3.824500	-11.482000	21.990643	0.000941	20.849023
143.041724	-2.999000	3.823500	-11.465000	22.015372	0.000939	20.857182
144.037233	-3.004400	3.823600	-11.485000	22.019465	0.000941	20.853693
145.039531	-3.001800	3.824700	-11.479000	22.028037	0.000942	20.861325
146.038499	-2.985700	3.823400	-11.414000	22.026842	0.000941	20.837845
147.040100	-2.990000	3.823100	-11.429000	22.040780	0.000942	20.846107
148.040306	-2.978600	3.824600	-11.390000	22.057233	0.000941	20.844561
149.039415	-2.994400	3.823700	-11.448000	22.044968	0.000943	20.826593
150.039891	-3.009200	3.821500	-11.499000	22.051405	0.000943	20.848683
151.041619	-3.003200	3.823300	-11.481000	22.081738	0.000944	20.848230
152.041329	-3.006600	3.820900	-11.487000	22.075959	0.000944	20.847186
153.040258	-3.015100	3.822000	-11.522000	22.087924	0.000945	20.838776
154.043650	-2.991700	3.822200	-11.432000	22.094081	0.000944	20.835931
155.041289	-2.978300	3.822800	-11.384000	22.114570	0.000944	20.851227
156.041062	-2.974200	3.823100	-11.368000	22.107490	0.000946	20.853148
157.043185	-3.012100	3.820700	-11.506000	22.089942	0.000945	20.846960
158.041689	-2.982700	3.821500	-11.398000	22.108038	0.000946	20.856067
159.041893	-2.994200	3.821100	-11.440000	22.120829	0.000947	20.857493
160.043376	-2.991100	3.820600	-11.426000	22.135790	0.000947	20.838807
161.046936	-2.989600	3.820200	-11.419000	22.144562	0.000948	20.845219
162.044186	-2.999800	3.819500	-11.455000	22.148153	0.000948	20.858296
163.046813	-2.979300	3.819600	-11.378000	22.140296	0.000950	20.842371
164.045303	-2.996700	3.819100	-11.443000	22.141371	0.000948	20.842498
165.046193	-2.982600	3.818900	-11.389000	22.156678	0.000951	20.856874
166.045296	-2.982900	3.820400	-11.394000	22.179237	0.000952	20.837261
167.045358	-2.977000	3.818900	-11.367000	22.164255	0.000951	20.828426
168.045293	-3.022900	3.817600	-11.539000	22.186189	0.000951	20.837583
169.047006	-3.016300	3.817300	-11.513000	22.174628	0.000953	20.827906
170.048641	-2.997500	3.818800	-11.446000	22.198929	0.000953	20.825684
171.046510	-3.020600	3.818200	-11.532000	22.224703	0.000954	20.829204
172.047370	-3.002000	3.817000	-11.458000	22.219473	0.000953	20.825864
173.046962	-3.010600	3.817600	-11.493000	22.254340	0.000954	20.822842
174.048006	-2.985600	3.818400	-11.399000	22.260623	0.000953	20.830082
175.048414	-3.006200	3.816800	-11.473000	22.256665	0.000954	20.819481
176.048192	-2.993000	3.817100	-11.423000	22.259577	0.000954	20.826664
177.046733	-2.993000	3.816200	-11.421000	22.271218	0.000956	20.839267
178.049737	-3.001700	3.816900	-11.456000	22.285481	0.000956	20.822729
179.049041	-2.993000	3.817100	-11.424000	22.266885	0.000955	20.806481
180.048903	-2.986100	3.816000	-11.395000	22.265341	0.000955	20.847133
181.049288	-2.991800	3.816500	-11.418000	22.246049	0.000954	20.822128
182.048382	-3.001800	3.816400	-11.454000	22.252781	0.000956	20.829816
183.048996	-2.998300	3.815600	-11.439000	22.298266	0.000957	20.826048
184.052841	-2.978600	3.815700	-11.364000	22.291414	0.000957	20.824403
185.049721	-2.989200	3.815000	-11.403000	22.289495	0.000956	20.843818
186.048962	-2.993500	3.814100	-11.416000	22.303652	0.000960	20.812949
187.050891	-2.989900	3.814100	-11.404000	22.322798	0.000956	20.822637
188.050035	-3.003900	3.812700	-11.452000	22.317660	0.000958	20.802794
189.051502	-3.014000	3.811900	-11.487000	22.352301	0.000958	20.804291
190.052915	-3.002100	3.812800	-11.445000	22.342657	0.000960	20.813126
191.050629	-2.985400	3.813800	-11.385000	22.364538	0.000960	20.818441
192.050073	-3.003700	3.812600	-11.450000	22.362919	0.000962	20.815398
193.053859	-2.999700	3.811400	-11.432000	22.369298	0.000961	20.812776
194.051155	-3.000600	3.811400	-11.436000	22.341113	0.000961	20.827226
195.051631	-2.995700	3.812100	-11.418000	22.390485	0.000963	20.814078
196.058127	-3.006300	3.810500	-11.454000	22.352654	0.000964	20.813653
197.058470	-3.001300	3.811600	-11.436000	22.379220	0.000963	20.800427
198.053477	-3.027600	3.810000	-11.534000	22.379616	0.000965	20.806987
199.056199	-3.011600	3.810000	-11.474000	22.379192	0.000965	20.838804
200.054964	-3.004500	3.811900	-11.452000	22.404760	0.000965	20.835485
201.054453	-3.003000	3.810500	-11.442000	22.394467	0.000966	20.820910
202.061228	-2.995600	3.810100	-11.413000	22.408548	0.000965	20.803717
203.053713	-3.005300	3.809500	-11.448000	22.388110	0.000967	20.809803
204.054933	-3.034700	3.808700	-11.558000	22.393817	0.000967	20.813621
205.058974	-2.988600	3.811100	-11.388000	22.398478	0.000967	20.833461
206.057652	-2.993600	3.808800	-11.401000	22.427060	0.000968	20.813720
207.053934	-2.995500	3.810300	-11.413000	22.431148	0.000967	20.800271
208.058012	-3.000700	3.809700	-11.430000	22.426611	0.000967	20.810900
209.056794	-2.994700	3.809400	-11.407000	22.437328	0.000968	20.815468
210.054453	-2.972900	3.809800	-11.325000	22.457712	0.000968	20.784199
211.060586	-2.964800	3.809800	-11.294000	22.455793	0.000969	20.819262
212.056329	-2.988700	3.807900	-11.379000	22.484452	0.000970	20.809082
213.054202	-2.989500	3.807400	-11.382000	22.513209	0.000970	20.808009
214.058054	-2.997100	3.807700	-11.411000	22.517071	0.000972	20.813299
215.058276	-3.001200	3.807900	-11.426000	22.493349	0.000972	20.819414
216.055715	-2.996900	3.807700	-11.410000	22.492900	0.000973	20.789567
217.056234	-2.992800	3.807100	-11.394000	22.527112	0.000974	20.806286
218.055098	-3.004600	3.806000	-11.434000	22.515276	0.000974	20.815769
219.053670	-2.997100	3.806900	-11.409000	22.513159	0.000975	20.807012
220.055844	-3.003900	3.806100	-11.432000	22.524819	0.000975	20.800671
221.062977	-3.001500	3.805700	-11.421000	22.525246	0.000975	20.803470
222.056880	-3.002200	3.804500	-11.421000	22.554871	0.000977	20.797104
223.058330	-3.017800	3.803800	-11.478000	22.539467	0.000976	20.800642
224.057472	-3.024700	3.804300	-11.506000	22.543908	0.000978	20.802719
225.055998	-3.018500	3.803500	-11.480000	22.553921	0.000978	20.809428
226.058777	-2.997100	3.805700	-11.405000	22.570713	0.000979	20.782150
227.057572	-3.000400	3.804600	-11.414000	22.588205	0.000977	20.793979
228.058367	-3.009600	3.804100	-11.447000	22.582499	0.000979	20.784472
229.059412	-2.990700	3.803900	-11.375000	22.612847	0.000980	20.799220
230.058346	-3.001500	3.802600	-11.412000	22.608236	0.000979	20.790809
231.059954	-3.005500	3.803600	-11.431000	22.629416	0.000980	20.781676
232.061923	-3.000100	3.803400	-11.410000	22.645087	0.000980	20.807804
233.060524	-3.021300	3.802200	-11.485000	22.651138	0.000981	20.802960
234.058298	-2.986800	3.802500	-11.356000	22.644190	0.000979	20.796474
235.063273	-2.996200	3.801500	-11.389000	22.675581	0.000980	20.800890
236.060598	-2.989800	3.802500	-11.367000	22.690111	0.000982	20.794581
237.060207	-3.012900	3.800900	-11.450000	22.669781	0.000980	20.792235
238.063325	-2.992900	3.801700	-11.376000	22.692202	0.000982	20.793831
239.061145	-3.024000	3.800600	-11.492000	22.711342	0.000983	20.789769
240.060267	-3.031600	3.799200	-11.517000	22.715824	0.000983	20.788095
241.064346	-3.000500	3.801600	-11.406000	22.711243	0.000987	20.807687
242.062005	-3.004200	3.800400	-11.416000	22.725143	0.000986	20.804542
243.060223	-3.007600	3.800600	-11.429000	22.737726	0.000985	20.785377
244.062134	-3.026900	3.798000	-11.494000	22.728580	0.000985	20.786648
245.059926	-3.002300	3.798200	-11.402000	22.705863	0.000986	20.789496
246.060555	-3.001500	3.799900	-11.404000	22.686854	0.000988	20.795586
247.061416	-2.965800	3.801400	-11.274000	22.677884	0.000987	20.802249
248.059270	-3.005500	3.799200	-11.418000	22.668021	0.000987	20.779567
249.061770	-3.022800	3.797600	-11.477000	22.659002	0.000989	20.804673
250.065118	-2.994100	3.798400	-11.372000	22.686310	0.000990	20.776075
251.061090	-2.999200	3.799900	-11.396000	22.701659	0.000988	20.781492
252.061239	-2.998500	3.797400	-11.385000	22.720964	0.000990	20.804149
253.063407	-3.012200	3.797600	-11.438000	22.719671	0.000991	20.788155
254.061955	-3.011200	3.797900	-11.435000	22.733551	0.000991	20.781195
255.062035	-3.026800	3.795500	-11.487000	22.741675	0.000992	20.767522
256.066829	-3.004200	3.797100	-11.406000	22.774410	0.000992	20.775183
257.063181	-3.000700	3.795800	-11.388000	22.788680	0.000990	20.779995
258.065133	-3.008300	3.796100	-11.419000	22.790853	0.000990	20.765102
259.069966	-3.001800	3.796800	-11.394000	22.797875	0.000991	20.775456
260.064637	-3.009900	3.796300	-11.425000	22.801813	0.000993	20.776082
261.065174	-3.032100	3.795200	-11.507000	22.817157	0.000994	20.778177
262.066421	-2.991600	3.794700	-11.349000	22.840950	0.000993	20.750802
263.065403	-2.994200	3.796600	-11.367000	22.830389	0.000993	20.777207
264.065389	-3.012900	3.795500	-11.435000	22.857318	0.000994	20.773838
265.068685	-2.973300	3.797300	-11.289000	22.844963	0.000996	20.764780
266.066291	-3.007300	3.793100	-11.407000	22.864919	0.000995	20.779083
267.067145	-2.992800	3.795000	-11.356000	22.887587	0.000996	20.771446
268.075739	-2.988600	3.794600	-11.338000	22.893489	0.000995	20.762660
269.065216	-2.992500	3.792000	-11.346000	22.906173	0.000996	20.782954
270.065820	-2.995200	3.793700	-11.361000	22.904202	0.000999	20.773867
271.068010	-2.992500	3.793600	-11.350000	22.893740	0.000998	20.774291
272.065739	-2.994700	3.793600	-11.359000	22.883406	0.000997	20.764412
273.065841	-2.990000	3.792800	-11.339000	22.856227	0.000998	20.768952
274.069520	-3.007900	3.791700	-11.403000	22.851621	0.001001	20.786149
275.067143	-2.993400	3.792400	-11.352000	22.845146	0.001001	20.776344
276.067970	-3.010700	3.791000	-11.412000	22.872972	0.000999	20.760597
277.071429	-2.993900	3.793100	-11.355000	22.875759	0.001002	20.782830
278.069321	-3.009400	3.791000	-11.408000	22.869634	0.001005	20.757728
279.068729	-3.013600	3.790300	-11.422000	22.883907	0.001002	20.761595
280.069660	-2.983600	3.790700	-11.308000	22.896340	0.001004	20.771680
281.073011	-2.994800	3.791200	-11.353000	22.903086	0.001003	20.759946
282.068960	-2.969700	3.791100	-11.256000	22.942717	0.001004	20.748442
283.071268	-2.983100	3.791000	-11.308000	22.924436	0.001005	20.753361
284.072510	-2.994800	3.791100	-11.352000	22.954499	0.001007	20.754083
285.072346	-2.993200	3.790200	-11.344000	22.935268	0.001005	20.763265
286.072762	-3.009300	3.789200	-11.402000	22.962746	0.001007	20.779415
287.076810	-3.002200	3.789900	-11.377000	22.971660	0.001006	20.754681
288.072554	-3.011200	3.789000	-11.408000	22.958907	0.001008	20.778888
289.073680	-2.973000	3.789300	-11.265000	22.952680	0.001007	20.755105
290.074022	-2.982700	3.788600	-11.299000	22.978808	0.001009	20.752834
291.074853	-3.014000	3.785500	-11.409000	22.965652	0.001009	20.760990
292.074232	-2.969500	3.789100	-11.250000	22.970282	0.001009	20.761836
293.076475	-3.003600	3.788500	-11.378000	22.967941	0.001009	20.761386
294.075086	-3.008100	3.787900	-11.393000	22.946867	0.001008	20.765403
295.074893	-3.002100	3.788000	-11.370000	22.952019	0.001007	20.762504
296.075659	-3.000700	3.786200	-11.360000	22.947933	0.001011	20.772635
297.073775	-3.009100	3.784700	-11.387000	22.989975	0.001013	20.753591
298.075561	-3.012500	3.786900	-11.407000	23.000806	0.001012	20.769185
299.073836	-2.994300	3.787000	-11.338000	23.008226	0.001012	20.761446
300.074426	-3.017200	3.786000	-11.421000	23.016444	0.001011	20.749291
301.075283	-3.022500	3.786200	-11.443000	23.028572	0.001013	20.766184
302.077992	-2.984900	3.786500	-11.301000	23.008968	0.001011	20.754603
303.076267	-3.004900	3.783500	-11.367000	22.990483	0.001014	20.755523
304.077043	-3.025300	3.784900	-11.450000	23.002191	0.001015	20.746864
305.079909	-2.958600	3.785300	-11.197000	22.975431	0.001015	20.750873
306.077633	-3.005600	3.784800	-11.375000	23.005969	0.001016	20.748279
307.079409	-2.990000	3.784300	-11.314000	23.029952	0.001016	20.759033
308.077842	-3.006200	3.782200	-11.368000	23.040335	0.001016	20.770385
309.082789	-2.992200	3.783200	-11.319000	23.033533	0.001018	20.740335
310.077493	-3.005900	3.783000	-11.370000	23.076818	0.001018	20.746248
311.081792	-2.986200	3.783400	-11.295000	23.076469	0.001017	20.767235
312.082998	-3.012800	3.781300	-11.391000	23.084909	0.001018	20.722111
313.080637	-2.991700	3.782900	-11.317000	23.081621	0.001019	20.757699
314.082253	-2.997600	3.782000	-11.336000	23.070759	0.001018	20.770997
315.082726	-3.012000	3.781800	-11.390000	23.087494	0.001021	20.734659
316.080699	-2.985700	3.782200	-11.291000	23.080470	0.001018	20.745640
317.086040	-3.000000	3.781200	-11.341000	23.100740	0.001021	20.744139
318.090267	-3.007200	3.780400	-11.366000	23.097823	0.001020	20.737423
319.093966	-3.001400	3.779800	-11.344000	23.115080	0.001021	20.736223
320.089155	-2.995600	3.781500	-11.327000	23.120858	0.001023	20.743909
321.090741	-2.995100	3.779900	-11.319000	23.118160	0.001023	20.733145
322.084702	-3.015300	3.778000	-11.392000	23.140180	0.001022	20.749047
323.090058	-2.992400	3.779500	-11.309000	23.132659	0.001024	20.754787
324.090126	-3.004100	3.779400	-11.353000	23.173998	0.001022	20.755909
325.085538	-3.015000	3.778700	-11.392000	23.174994	0.001025	20.762122
326.090029	-3.012400	3.778200	-11.380000	23.150859	0.001024	20.757851
327.088590	-3.003200	3.779100	-11.348000	23.160146	0.001025	20.758149
328.084127	-3.024300	3.776400	-11.421000	23.178225	0.001025	20.771524
329.087891	-3.005500	3.778500	-11.355000	23.177003	0.001025	20.746117
330.091089	-2.994100	3.777500	-11.309000	23.186590	0.001026	20.750035
331.086419	-3.021700	3.775600	-11.407000	23.185117	0.001025	20.765155
332.090058	-3.010900	3.776000	-11.368000	23.161036	0.001026	20.741970
333.087823	-3.018900	3.776600	-11.401000	23.167907	0.001028	20.752650
334.085262	-3.013900	3.776000	-11.379000	23.181202	0.001028	20.737522
335.091298	-3.006300	3.775800	-11.350000	23.199782	0.001027	20.772264
336.087443	-3.034500	3.774100	-11.451000	23.232574	0.001029	20.742062
337.086006	-2.994300	3.775400	-11.303000	23.225300	0.001029	20.735247
338.092477	-2.980800	3.774900	-11.251000	23.223729	0.001028	20.758804
339.087407	-2.987900	3.774300	-11.277000	23.209012	0.001027	20.771082
340.088052	-2.979800	3.774800	-11.247000	23.211177	0.001029	20.782261
341.091787	-2.980600	3.774300	-11.248000	23.234138	0.001029	20.749794
342.086763	-3.010300	3.774000	-11.360000	23.257068	0.001028	20.746695
343.088871	-2.985900	3.774200	-11.267000	23.249946	0.001030	20.760895
344.091916	-2.986300	3.774900	-11.272000	23.275269	0.001030	20.766359
345.090757	-3.009300	3.772900	-11.352000	23.236892	0.001030	20.745916
346.087990	-3.009500	3.773700	-11.355000	23.234830	0.001033	20.745272
347.094453	-2.996400	3.773300	-11.305000	23.225438	0.001034	20.751981
348.093812	-2.995400	3.771800	-11.297000	23.210347	0.001032	20.763411
349.089120	-3.001900	3.772700	-11.324000	23.244364	0.001031	20.748188
350.094606	-3.014600	3.772000	-11.370000	23.241324	0.001033	20.766005
351.094100	-3.020900	3.769900	-11.388000	23.253749	0.001034	20.756645
352.091887	-2.995000	3.771000	-11.293000	23.232684	0.001032	20.767778
353.095525	-2.998500	3.771700	-11.308000	23.230191	0.001035	20.758167
354.098061	-3.011700	3.770600	-11.355000	23.233104	0.001034	20.754448
355.092217	-3.020000	3.768800	-11.380000	23.274912	0.001034	20.759837
356.096258	-3.007200	3.769200	-11.333000	23.282906	0.001037	20.752201
357.097005	-2.998100	3.770200	-11.302000	23.300210	0.001036	20.760534
358.092546	-2.997600	3.768600	-11.295000	23.320875	0.001036	20.747580
359.094790	-2.999700	3.769100	-11.304000	23.320380	0.001036	20.761783
360.096405	-2.992600	3.770500	-11.282000	23.324635	0.001038	20.774582
361.093284	-2.995100	3.768300	-11.285000	23.296273	0.001036	20.766546
362.098982	-2.995800	3.769100	-11.290000	23.305633	0.001038	20.758383
363.095421	-3.012500	3.768000	-11.351000	23.310686	0.001039	20.760128
364.094856	-3.009300	3.766600	-11.333000	23.286981	0.001037	20.755336
365.096248	-3.004000	3.766600	-11.313000	23.325970	0.001039	20.762644
366.095722	-2.998200	3.766600	-11.292000	23.320639	0.001040	20.753507
367.094806	-3.010000	3.766400	-11.336000	23.329628	0.001040	20.753981
368.110663	-2.987300	3.766900	-11.251000	23.351888	0.001038	20.767757
369.096601	-3.015900	3.765100	-11.354000	23.358508	0.001040	20.777237
370.095962	-2.976300	3.766100	-11.209000	23.357784	0.001040	20.753752
371.105630	-3.000600	3.766100	-11.298000	23.391771	0.001042	20.775015
372.095220	-2.997400	3.766000	-11.288000	23.366691	0.001040	20.750351
373.096483	-3.023600	3.765600	-11.384000	23.378720	0.001040	20.779003
374.100217	-2.980500	3.765300	-11.222000	23.350307	0.001040	20.745309
375.098782	-3.003600	3.764400	-11.305000	23.404485	0.001041	20.777800
376.097850	-3.012300	3.763600	-11.336000	23.393180	0.001042	20.762202
377.100445	-2.993600	3.765000	-11.270000	23.428011	0.001041	20.785259
378.099109	-2.988800	3.764600	-11.251000	23.427435	0.001041	20.754810
379.103529	-3.008600	3.764700	-11.325000	23.429028	0.001044	20.770631
380.099540	-3.004200	3.763500	-11.305000	23.433483	0.001042	20.767510
381.097129	-3.016700	3.762000	-11.348000	23.398646	0.001043	20.765309
382.099503	-2.988300	3.763500	-11.246000	23.412937	0.001042	20.780108
383.100709	-2.985600	3.762600	-11.233000	23.426532	0.001042	20.787096
384.098296	-3.007600	3.761900	-11.314000	23.407733	0.001041	20.769676
385.101016	-3.008500	3.761700	-11.317000	23.413308	0.001041	20.763884
386.101231	-2.991300	3.762100	-11.252000	23.450975	0.001043	20.779354
387.099846	-2.988600	3.760900	-11.239000	23.439425	0.001043	20.784846
388.099731	-3.000100	3.760300	-11.280000	23.424806	0.001041	20.783944
389.104146	-2.985300	3.761400	-11.228000	23.426031	0.001043	20.774740
390.100646	-2.992300	3.760300	-11.250000	23.420654	0.001042	20.789265
391.101682	-3.005000	3.759600	-11.297000	23.427676	0.001043	20.791088
392.103318	-2.996000	3.759700	-11.261000	23.430786	0.001043	20.762910
393.101006	-3.017700	3.757500	-11.338000	23.412665	0.001044	20.777464
394.102754	-3.007400	3.759000	-11.303000	23.446001	0.001045	20.783377
395.104653	-2.974000	3.758600	-11.177000	23.474013	0.001044	20.773996
396.104404	-2.977200	3.759200	-11.190000	23.475284	0.001045	20.761045
397.103504	-2.995400	3.757600	-11.254000	23.498240	0.001045	20.790695
398.105806	-2.997000	3.757200	-11.259000	23.493806	0.001042	20.768706
399.106864	-3.012600	3.756900	-11.316000	23.483703	0.001043	20.780865
400.105310	-2.997100	3.756800	-11.259000	23.482065	0.001046	20.783964
401.107937	-2.998800	3.757100	-11.265000	23.506687	0.001045	20.788256
402.105199	-2.999700	3.756600	-11.267000	23.513983	0.001045	20.794622
403.109250	-2.999800	3.756300	-11.267000	23.542043	0.001044	20.781023
404.109985	-2.999800	3.756000	-11.266000	23.550529	0.001046	20.777202
405.106398	-3.020400	3.753400	-11.336000	23.571891	0.001047	20.793401
406.104943	-2.995400	3.755000	-11.247000	23.539402	0.001047	20.784067
407.110338	-2.999300	3.754300	-11.259000	23.541397	0.001045	20.800290
408.105379	-3.018200	3.752600	-11.325000	23.536893	0.001049	20.786292
409.108648	-2.973600	3.754400	-11.163000	23.550811	0.001048	20.773217
410.111645	-2.982800	3.756000	-11.201000	23.553624	0.001049	20.795478
411.109793	-3.005300	3.752900	-11.278000	23.559131	0.001050	20.802894
412.109233	-3.019200	3.751900	-11.326000	23.568813	0.001050	20.775142
413.110722	-2.982600	3.752700	-11.192000	23.570832	0.001050	20.793762
414.110499	-3.007800	3.751600	-11.283000	23.592639	0.001049	20.790966
415.110875	-3.018100	3.752000	-11.323000	23.565131	0.001049	20.786624
416.112522	-3.024700	3.750800	-11.343000	23.571255	0.001051	20.794660
417.111244	-3.004700	3.752200	-11.273000	23.552787	0.001051	20.791794
418.110613	-3.001500	3.752600	-11.261000	23.541710	0.001051	20.799656
419.112792	-3.011700	3.751900	-11.298000	23.539748	0.001051	20.780145
420.111600	-2.978000	3.752100	-11.173000	23.558043	0.001051	20.773355
421.113012	-3.021100	3.748800	-11.324000	23.550648	0.001051	20.781589
422.112226	-3.012500	3.748800	-11.293000	23.594467	0.001051	20.791850
423.110314	-2.988200	3.750300	-11.205000	23.590785	0.001051	20.793375
424.111785	-3.004700	3.749300	-11.264000	23.578985	0.001051	20.783917
425.113194	-2.971900	3.749500	-11.142000	23.611222	0.001053	20.783517
426.112001	-2.999700	3.748500	-11.243000	23.647521	0.001053	20.790035
427.112978	-2.993200	3.749200	-11.220000	23.658074	0.001052	20.795399
428.114446	-2.988700	3.748700	-11.203000	23.646303	0.001054	20.785969
429.113736	-3.006400	3.748300	-11.267000	23.667632	0.001052	20.791705
430.115145	-2.993700	3.747800	-11.218000	23.655039	0.001054	20.782399
431.117862	-2.994200	3.746600	-11.217000	23.683889	0.001053	20.783821
432.114388	-3.004700	3.746300	-11.255000	23.680557	0.001053	20.786645
433.115290	-3.000000	3.746300	-11.237000	23.677571	0.001052	20.800247
434.116298	-3.014700	3.746000	-11.292000	23.687478	0.001054	20.789791
435.116159	-3.004800	3.744200	-11.249000	23.705376	0.001054	20.803941
436.115925	-2.995400	3.746400	-11.221000	23.727554	0.001054	20.792512
437.116395	-3.004600	3.744600	-11.250000	23.736893	0.001052	20.783857
438.117246	-3.001300	3.744400	-11.237000	23.729573	0.001054	20.810183
439.117558	-2.982000	3.745700	-11.168000	23.749888	0.001054	20.804946
440.118667	-2.987900	3.744500	-11.187000	23.749016	0.001056	20.797434
441.115824	-2.977000	3.744700	-11.145000	23.749214	0.001054	20.801425
442.116381	-3.002400	3.743500	-11.238000	23.754419	0.001055	20.806170
443.117814	-2.990300	3.743600	-11.194000	23.748342	0.001054	20.819517
444.118227	-3.010000	3.742800	-11.265000	23.761241	0.001055	20.813958
445.119430	-2.983000	3.743100	-11.165000	23.738089	0.001055	20.811609
446.120481	-3.002400	3.740900	-11.231000	23.759572	0.001054	20.798060
447.119870	-3.001300	3.739900	-11.224000	23.750188	0.001054	20.807143
448.120856	-3.003400	3.740700	-11.234000	23.774384	0.001054	20.807221
449.123851	-3.005900	3.740700	-11.242000	23.785035	0.001054	20.814107
450.121874	-3.010100	3.741100	-11.260000	23.791683	0.001054	20.802755
451.122056	-2.992300	3.742000	-11.196000	23.832303	0.001055	20.802232
452.124193	-2.992900	3.739800	-11.192000	23.801170	0.001055	20.789033
453.121306	-2.995600	3.741300	-11.206000	23.846789	0.001055	20.808696
454.122022	-3.013800	3.738500	-11.266000	23.836015	0.001057	20.785091
455.126895	-2.989800	3.739300	-11.178000	23.818441	0.001056	20.805402
456.122147	-3.002100	3.738100	-11.221000	23.830764	0.001056	20.813965
457.123744	-2.999200	3.739700	-11.215000	23.854980	0.001056	20.821176
458.126976	-2.999200	3.738900	-11.211000	23.838806	0.001056	20.810175
459.124908	-2.977300	3.739700	-11.134000	23.852541	0.001057	20.820154
460.122675	-3.007100	3.738000	-11.239000	23.861977	0.001056	20.802589
461.131087	-3.021200	3.736600	-11.287000	23.842667	0.001056	20.802667
462.124692	-2.982300	3.738500	-11.149000	23.856709	0.001056	20.817220
463.125086	-2.968100	3.737600	-11.092000	23.894958	0.001056	20.821909
464.130662	-3.004400	3.736100	-11.224000	23.881545	0.001057	20.811304
465.124629	-2.984600	3.737700	-11.154000	23.897400	0.001056	20.800650
466.125372	-2.988200	3.734700	-11.157000	23.908723	0.001057	20.814375
467.124980	-3.011700	3.735400	-11.248000	23.916116	0.001055	20.813254
468.126539	-3.003800	3.735000	-11.218000	23.936723	0.001056	20.796460
469.129055	-2.991200	3.735300	-11.171000	23.960810	0.001057	20.800699
470.132974	-3.014100	3.735400	-11.257000	23.945362	0.001057	20.812709
471.126882	-2.973100	3.735500	-11.105000	23.940259	0.001057	20.812334
472.127689	-3.012700	3.734600	-11.251000	23.964624	0.001058	20.829180
473.128176	-2.993000	3.734300	-11.175000	23.958929	0.001056	20.817779
474.127913	-2.999500	3.734400	-11.201000	23.944049	0.001056	20.844108
475.128171	-2.998800	3.733600	-11.195000	23.946141	0.001059	20.838620
476.129945	-2.992400	3.734600	-11.174000	23.960848	0.001057	20.830609
477.127052	-2.994400	3.732300	-11.174000	23.975234	0.001057	20.817535
478.128953	-2.984600	3.733700	-11.142000	23.972673	0.001058	20.827294
479.130070	-3.003900	3.732700	-11.212000	24.003183	0.001058	20.827545
480.128136	-3.010400	3.732200	-11.234000	23.987231	0.001059	20.806806
481.128173	-2.992600	3.731600	-11.166000	23.973276	0.001058	20.819838
482.129898	-3.003700	3.729700	-11.202000	23.969193	0.001058	20.805313
483.129708	-2.997900	3.730900	-11.184000	23.985894	0.001059	20.814948
484.131277	-3.026800	3.728500	-11.285000	23.975269	0.001058	20.808087
485.132432	-3.001400	3.730100	-11.194000	23.955167	0.001057	20.802153
486.130448	-2.999800	3.729100	-11.185000	23.926815	0.001058	20.832042
487.133336	-2.990700	3.729100	-11.152000	23.936649	0.001058	20.834317
488.132476	-2.979300	3.729100	-11.109000	23.931945	0.001058	20.836239
489.132884	-2.981300	3.729200	-11.117000	23.944737	0.001057	20.828203
490.132688	-3.022000	3.728000	-11.265000	23.974105	0.001058	20.826834
491.132144	-2.995600	3.728600	-11.168000	24.001677	0.001058	20.843103
492.133609	-3.015300	3.727500	-11.238000	23.991599	0.001058	20.836316
493.134034	-3.003100	3.727500	-11.193000	24.020469	0.001057	20.824017
494.135942	-2.994300	3.727500	-11.158000	24.041748	0.001058	20.826865
495.133812	-2.983900	3.727000	-11.119000	24.073174	0.001057	20.831356
496.134538	-2.985200	3.726400	-11.123000	24.087633	0.001055	20.847752
497.134191	-3.003800	3.726200	-11.192000	24.105577	0.001058	20.835878
498.134463	-2.999900	3.726100	-11.177000	24.102666	0.001059	20.825372
499.134616	-3.006300	3.725600	-11.198000	24.107472	0.001058	20.858165
500.136377	-2.983700	3.726500	-11.118000	24.092096	0.001058	20.817142
501.134609	-2.993500	3.723900	-11.146000	24.094463	0.001057	20.833266
502.136399	-3.000700	3.725700	-11.178000	24.090907	0.001058	20.824484
503.136449	-3.020900	3.723500	-11.247000	24.118081	0.001058	20.856478
504.135442	-3.015200	3.724100	-11.228000	24.110915	0.001060	20.829378
505.135449	-2.987300	3.724700	-11.124000	24.105993	0.001059	20.819700
506.136586	-2.996600	3.724400	-11.160000	24.106318	0.001059	20.826190
507.134625	-3.014900	3.722600	-11.222000	24.120727	0.001059	20.843011
508.135695	-2.977100	3.723900	-11.084000	24.102889	0.001057	20.835552
509.140178	-2.992400	3.723300	-11.139000	24.128196	0.001058	20.823002
510.136486	-2.985400	3.724500	-11.118000	24.157012	0.001058	20.844317
511.137012	-3.010600	3.721900	-11.205000	24.145716	0.001057	20.847685
512.135547	-3.010000	3.720600	-11.198000	24.148901	0.001060	20.852303
513.137640	-3.005300	3.721800	-11.183000	24.173562	0.001059	20.847165
514.137833	-3.012800	3.721000	-11.210000	24.143902	0.001058	20.843970
515.142441	-3.004700	3.720300	-11.177000	24.144901	0.001058	20.854928
516.137005	-3.005800	3.720900	-11.183000	24.129702	0.001057	20.853909
517.138449	-3.022100	3.717600	-11.234000	24.118381	0.001060	20.851089
518.142653	-2.998500	3.719000	-11.151000	24.142668	0.001058	20.847947
519.138657	-3.017000	3.718200	-11.217000	24.199499	0.001058	20.848050
520.139174	-2.982700	3.719200	-11.092000	24.197735	0.001058	20.840591
521.141932	-2.987800	3.719600	-11.113000	24.200822	0.001056	20.838472
522.138685	-3.000300	3.718400	-11.155000	24.202543	0.001057	20.859164
523.139974	-2.999500	3.718000	-11.151000	24.202769	0.001058	20.846589
524.146988	-2.990400	3.717400	-11.115000	24.227079	0.001059	20.849635
525.140966	-2.990500	3.716500	-11.114000	24.247458	0.001057	20.833094
526.141166	-3.011300	3.716800	-11.191000	24.261343	0.001057	20.828055
527.146761	-3.004900	3.716100	-11.166000	24.252739	0.001057	20.849770
528.143426	-3.008000	3.715300	-11.175000	24.214824	0.001057	20.845878
529.141620	-3.031700	3.715600	-11.263000	24.220200	0.001058	20.866443
530.145639	-3.010900	3.714400	-11.182000	24.226398	0.001057	20.839944
531.143146	-2.989000	3.716200	-11.107000	24.231104	0.001056	20.842294
532.141042	-3.025000	3.714800	-11.236000	24.222148	0.001057	20.869818
533.142600	-3.009100	3.714900	-11.178000	24.262656	0.001056	20.852131
534.141270	-3.021200	3.713800	-11.219000	24.258155	0.001057	20.861840
535.145058	-2.979200	3.714000	-11.063000	24.258677	0.001055	20.863786
536.144544	-2.993600	3.714600	-11.119000	24.223280	0.001056	20.863843
537.142591	-2.969900	3.715800	-11.035000	24.231666	0.001056	20.855659
538.142925	-3.024400	3.711400	-11.223000	24.245798	0.001057	20.861299
539.144755	-3.009600	3.712700	-11.173000	24.250401	0.001056	20.869709
540.142684	-2.985600	3.713600	-11.086000	24.252596	0.001058	20.859109
541.143497	-3.008500	3.712800	-11.169000	24.255185	0.001056	20.869766
542.147520	-2.997600	3.711800	-11.126000	24.273049	0.001055	20.862081
543.143345	-3.018900	3.710000	-11.199000	24.280365	0.001056	20.864678
544.144439	-2.994900	3.710800	-11.112000	24.267581	0.001057	20.860390
545.146892	-2.991900	3.711900	-11.104000	24.279674	0.001056	20.850709
546.144075	-2.978000	3.711200	-11.051000	24.294183	0.001056	20.853409
547.144253	-2.984500	3.710300	-11.072000	24.285226	0.001057	20.846796
548.144918	-2.992000	3.708300	-11.094000	24.268982	0.001056	20.860847
549.146171	-3.025100	3.709000	-11.217000	24.287918	0.001055	20.853763
550.146021	-3.001900	3.710500	-11.136000	24.266400	0.001057	20.869162
551.153908	-2.989400	3.709100	-11.086000	24.251475	0.001057	20.885484
552.146742	-2.984400	3.708400	-11.067000	24.280638	0.001057	20.860210
553.147517	-2.992000	3.709600	-11.098000	24.258841	0.001054	20.853045
554.154579	-2.994700	3.708300	-11.104000	24.268323	0.001053	20.871564
555.146439	-2.995000	3.707100	-11.101000	24.299446	0.001055	20.861534
556.152537	-3.013700	3.708300	-11.174000	24.295196	0.001055	20.870072
557.153747	-2.987300	3.708100	-11.076000	24.313133	0.001057	20.875262
558.148621	-3.016000	3.705300	-11.174000	24.309750	0.001056	20.863335
559.149334	-3.017700	3.704600	-11.178000	24.321670	0.001056	20.869601
560.152373	-2.977100	3.707000	-11.036000	24.321797	0.001054	20.858824
561.150739	-3.006300	3.707800	-11.146000	24.356749	0.001057	20.870178
562.152200	-2.976200	3.706200	-11.030000	24.374763	0.001057	20.878765
563.156119	-3.002100	3.705800	-11.124000	24.384541	0.001055	20.880039
564.153812	-3.010900	3.704100	-11.152000	24.416779	0.001058	20.880612
565.150284	-3.009300	3.704800	-11.148000	24.415763	0.001056	20.884335
566.153880	-2.990100	3.705900	-11.081000	24.420042	0.001056	20.860653
567.154669	-2.990600	3.704300	-11.078000	24.384918	0.001057	20.875677
568.153985	-2.995200	3.703100	-11.089000	24.381462	0.001057	20.874106
569.153452	-2.990800	3.704500	-11.078000	24.348919	0.001057	20.861849
570.154840	-2.994500	3.703400	-11.088000	24.357501	0.001058	20.876147
571.151519	-2.981300	3.703100	-11.039000	24.358922	0.001055	20.859082
572.158684	-3.026100	3.701300	-11.200000	24.363949	0.001056	20.878822
573.156970	-3.016600	3.701200	-11.164000	24.364125	0.001058	20.847707
574.152949	-2.974600	3.702000	-11.011000	24.338051	0.001056	20.861379
575.157834	-2.998900	3.702200	-11.102000	24.317776	0.001054	20.855739
576.155729	-3.013200	3.701200	-11.151000	24.316806	0.001056	20.843861
577.154211	-2.985600	3.699900	-11.045000	24.327780	0.001055	20.862929
578.153613	-2.984100	3.701000	-11.042000	24.372432	0.001055	20.865048
579.153813	-3.001800	3.702000	-11.111000	24.331413	0.001057	20.842393
580.154388	-2.994900	3.700500	-11.081000	24.358774	0.001055	20.858460
581.155417	-3.022100	3.699900	-11.180000	24.363554	0.001055	20.858513
582.155844	-3.004600	3.699100	-11.113000	24.361438	0.001056	20.845959
583.156285	-3.006500	3.699200	-11.121000	24.343974	0.001054	20.850725
584.156690	-3.006000	3.698600	-11.116000	24.349819	0.001055	20.856588
585.155607	-2.984900	3.698500	-11.039000	24.337159	0.001054	20.848156
586.159171	-3.016100	3.698000	-11.153000	24.320164	0.001054	20.856238
587.156816	-2.996500	3.697500	-11.078000	24.307871	0.001054	20.860975
588.157035	-2.996600	3.698200	-11.081000	24.318474	0.001055	20.836526
589.155502	-3.002400	3.697100	-11.099000	24.338771	0.001053	20.847403
590.156621	-2.992700	3.696500	-11.060000	24.351660	0.001053	20.853220
591.159410	-2.987200	3.697300	-11.044000	24.371882	0.001053	20.855962
592.157362	-3.014300	3.696700	-11.142000	24.374294	0.001054	20.847003
593.158156	-2.991700	3.695400	-11.054000	24.351610	0.001054	20.844636
594.159268	-2.995300	3.695200	-11.068000	24.361787	0.001054	20.839197
595.157978	-3.005000	3.695200	-11.103000	24.372104	0.001053	20.842435
596.159579	-2.990200	3.694300	-11.046000	24.374643	0.001054	20.844034
597.159157	-2.996800	3.694700	-11.071000	24.406857	0.001050	20.827514
598.159197	-2.986900	3.693900	-11.032000	24.403253	0.001052	20.844760
599.160039	-3.033300	3.693200	-11.202000	24.443771	0.001051	20.835149
600.159540	-3.012200	3.692900	-11.123000	24.459199	0.001052	20.828816
601.158720	-2.999400	3.692400	-11.074000	24.473024	0.001053	20.846479
602.160495	-2.964700	3.694300	-10.951000	24.465191	0.001050	20.831983
603.161396	-2.986400	3.693100	-11.027000	24.486931	0.001053	20.833405
604.161760	-3.020300	3.693000	-11.153000	24.506656	0.001051	20.820479
605.160525	-2.989500	3.691700	-11.035000	24.531975	0.001052	20.851097
606.163990	-2.985800	3.691400	-11.021000	24.486733	0.001054	20.833681
607.164884	-3.007700	3.690500	-11.098000	24.449073	0.001052	20.838097
608.162057	-3.013500	3.689400	-11.117000	24.476361	0.001052	20.832283
609.164557	-2.996800	3.691200	-11.060000	24.464570	0.001053	20.829937
610.163313	-2.994600	3.691500	-11.053000	24.448202	0.001051	20.831533
611.163336	-2.982200	3.690400	-11.004000	24.411785	0.001050	20.819655
612.163600	-2.993500	3.690100	-11.045000	24.393574	0.001052	20.824619
613.164329	-2.991300	3.688200	-11.031000	24.402007	0.001052	20.834976
614.161708	-2.996000	3.688700	-11.051000	24.423498	0.001054	20.838044
615.164180	-2.988800	3.688200	-11.022000	24.446336	0.001052	20.836299
616.164497	-3.000100	3.690000	-11.069000	24.436160	0.001050	20.829884
617.163902	-3.019400	3.688100	-11.134000	24.457650	0.001052	20.826788
618.165661	-3.011300	3.687500	-11.103000	24.442526	0.001051	20.811615
619.165563	-3.004700	3.688400	-11.081000	24.469465	0.001056	20.812564
620.165117	-3.003500	3.687100	-11.074000	24.485432	0.001050	20.805349
621.165557	-3.011900	3.687200	-11.105000	24.492196	0.001051	20.847222
622.166118	-2.994000	3.688400	-11.042000	24.508589	0.001051	20.833323
623.172361	-2.983300	3.686200	-10.996000	24.536566	0.001051	20.826306
624.182561	-2.973900	3.687500	-10.964000	24.561087	0.001049	20.818667
625.165686	-2.988100	3.685900	-11.013000	24.581383	0.001050	20.833815
626.166485	-2.986600	3.685300	-11.006000	24.597100	0.001048	20.808809
627.168129	-3.008400	3.684300	-11.083000	24.580910	0.001049	20.824806
628.166336	-3.011500	3.683100	-11.090000	24.572803	0.001049	20.823309
629.167342	-3.004900	3.686000	-11.075000	24.597425	0.001050	20.809135
630.170101	-3.007000	3.684200	-11.077000	24.582702	0.001049	20.819017
631.170595	-3.001700	3.682500	-11.052000	24.588623	0.001048	20.826381
632.167749	-2.976700	3.684400	-10.965000	24.576780	0.001049	20.815447
633.170062	-3.004400	3.683000	-11.063000	24.547756	0.001050	20.810507
634.167977	-3.004500	3.681400	-11.059000	24.524949	0.001048	20.829824
635.174848	-2.982200	3.682000	-10.979000	24.514330	0.001050	20.813006
636.175112	-3.004100	3.681700	-11.059000	24.496767	0.001048	20.827626
637.171306	-3.001600	3.681400	-11.049000	24.499055	0.001046	20.823759
638.169545	-3.007700	3.680300	-11.069000	24.498213	0.001046	20.810111
639.180571	-2.976800	3.681900	-10.959000	24.520922	0.001047	20.819619
640.175149	-3.012000	3.680900	-11.085000	24.556859	0.001047	20.806838
641.178066	-2.959100	3.683400	-10.897000	24.535247	0.001048	20.825457
642.179569	-2.993300	3.681300	-11.018000	24.554105	0.001046	20.819722
643.178417	-3.009200	3.679900	-11.073000	24.590164	0.001045	20.804694
644.172811	-2.994600	3.680200	-11.019000	24.580963	0.001046	20.795462
645.174565	-3.014400	3.678700	-11.087000	24.561711	0.001046	20.808862
646.177125	-3.014800	3.678800	-11.089000	24.530299	0.001044	20.802001
647.173553	-3.023200	3.677500	-11.116000	24.511050	0.001045	20.776998
648.183231	-3.003900	3.678400	-11.048000	24.502343	0.001043	20.805720
649.177031	-2.988100	3.679200	-10.993000	24.502096	0.001043	20.819697
650.178626	-2.975700	3.678100	-10.943000	24.527735	0.001045	20.816024
651.178253	-3.007800	3.677500	-11.061000	24.542738	0.001045	20.800731
652.177640	-3.002800	3.676600	-11.039000	24.539878	0.001045	20.784585
653.181438	-3.004100	3.677100	-11.045000	24.574076	0.001043	20.806095
654.180573	-3.023300	3.676400	-11.113000	24.610614	0.001043	20.792023
655.177238	-2.990400	3.677800	-10.997000	24.631435	0.001042	20.796319
656.179378	-3.030900	3.676100	-11.141000	24.625115	0.001043	20.820798
657.182520	-2.993100	3.678100	-11.007000	24.660457	0.001044	20.793672
658.178408	-3.036700	3.674100	-11.156000	24.645015	0.001042	20.796195
659.179476	-3.017500	3.674200	-11.087000	24.656648	0.001046	20.819248
660.182074	-2.988000	3.674600	-10.977000	24.655361	0.001043	20.793301
661.177800	-3.003100	3.674600	-11.035000	24.674883	0.001043	20.795346
662.179126	-3.010600	3.674300	-11.061000	24.679982	0.001042	20.790979
663.179338	-2.982600	3.674800	-10.958000	24.668839	0.001041	20.795919
664.182246	-3.003800	3.673400	-11.032000	24.681050	0.001042	20.791577
665.188616	-3.012800	3.672700	-11.064000	24.667446	0.001041	20.800685
666.179365	-2.991300	3.673400	-10.987000	24.659088	0.001042	20.780445
667.182129	-2.991700	3.674300	-10.991000	24.665605	0.001042	20.798364
668.181849	-2.998400	3.672500	-11.010000	24.668691	0.001040	20.806202
669.182249	-2.990300	3.674000	-10.985000	24.653171	0.001040	20.801060
670.184242	-2.993500	3.672200	-10.991000	24.656154	0.001042	20.779872
671.182226	-2.983100	3.673400	-10.957000	24.669159	0.001041	20.797189
672.186316	-3.003600	3.669900	-11.021000	24.687390	0.001040	20.784663
673.182940	-2.990300	3.671500	-10.978000	24.700814	0.001041	20.792918
674.184872	-2.999500	3.671100	-11.010000	24.694355	0.001039	20.794022
675.184042	-2.998700	3.669400	-11.002000	24.705913	0.001041	20.783336
676.186078	-3.003100	3.669100	-11.018000	24.697034	0.001039	20.796237
677.185471	-2.982500	3.671400	-10.948000	24.691093	0.001039	20.782688
678.187564	-3.007100	3.669900	-11.035000	24.663711	0.001041	20.785558
679.191223	-3.020100	3.669600	-11.081000	24.671719	0.001040	20.793594
680.191833	-2.998500	3.669000	-11.000000	24.681963	0.001040	20.800554
681.187254	-3.021600	3.666900	-11.077000	24.673758	0.001038	20.786156
682.192904	-3.018100	3.667600	-11.069000	24.653464	0.001040	20.792345
683.193602	-2.972400	3.669800	-10.908000	24.652120	0.001040	20.802376
684.189811	-2.992900	3.667400	-10.976000	24.687937	0.001037	20.799910
685.191537	-2.986100	3.668500	-10.954000	24.697359	0.001037	20.785183
686.191576	-2.993400	3.667000	-10.976000	24.695243	0.001036	20.795388
687.188862	-2.979800	3.666300	-10.924000	24.709993	0.001036	20.770834
688.191813	-3.006900	3.667800	-11.028000	24.648368	0.001035	20.761153
689.194603	-2.998700	3.666100	-10.992000	24.625440	0.001037	20.763750
690.188246	-2.988900	3.667500	-10.961000	24.602162	0.001036	20.775481
691.191998	-2.994100	3.666300	-10.976000	24.581119	0.001035	20.778548
692.189161	-2.990900	3.665400	-10.961000	24.551375	0.001034	20.784741
693.189993	-2.981300	3.665800	-10.927000	24.539244	0.001035	20.801018
694.190829	-2.992400	3.665700	-10.968000	24.586525	0.001034	20.788715
695.189733	-2.994600	3.665700	-10.976000	24.606919	0.001033	20.778832
696.188857	-3.003100	3.666100	-11.008000	24.625846	0.001034	20.777434
697.191454	-3.006900	3.662700	-11.011000	24.641196	0.001034	20.765336
698.191666	-3.015600	3.663500	-11.047000	24.658384	0.001033	20.764565
699.190457	-2.999400	3.663600	-10.988000	24.688379	0.001034	20.789922
700.193816	-3.006400	3.663600	-11.014000	24.709423	0.001034	20.780220
701.192994	-2.985700	3.663100	-10.935000	24.732297	0.001033	20.776621
702.193579	-2.993200	3.663800	-10.966000	24.718179	0.001033	20.786161
703.197201	-3.002200	3.662500	-10.994000	24.685872	0.001034	20.756586
704.195109	-3.010200	3.661000	-11.019000	24.684507	0.001034	20.775132
705.195891	-3.001900	3.661500	-10.990000	24.669761	0.001032	20.757489
706.196225	-2.992500	3.661500	-10.956000	24.664119	0.001033	20.754198
707.194127	-2.995800	3.661500	-10.967000	24.656460	0.001033	20.760737
708.194305	-3.002800	3.661200	-10.992000	24.647182	0.001031	20.760436
709.195622	-3.009400	3.659600	-11.012000	24.675586	0.001033	20.786569
710.195130	-3.021300	3.659300	-11.055000	24.698736	0.001031	20.779453
711.195411	-3.005200	3.658800	-10.995000	24.753147	0.001032	20.780001
712.196639	-3.003600	3.659700	-10.991000	24.768143	0.001031	20.756169
713.197176	-3.021600	3.658400	-11.053000	24.763993	0.001031	20.761962
714.198003	-2.991000	3.657900	-10.940000	24.794129	0.001031	20.766601
715.197186	-2.996700	3.659200	-10.965000	24.806787	0.001032	20.764605
716.196386	-2.991300	3.658500	-10.942000	24.794281	0.001030	20.767701
717.196928	-3.007700	3.657200	-10.998000	24.805740	0.001029	20.778727
718.198125	-2.989300	3.658400	-10.935000	24.805965	0.001029	20.754771
719.197715	-2.979900	3.657600	-10.898000	24.816733	0.001030	20.748508
720.198554	-2.998000	3.658100	-10.965000	24.845479	0.001029	20.779254
721.199075	-2.995400	3.657200	-10.953000	24.809798	0.001030	20.757669
722.199291	-3.006200	3.656200	-10.990000	24.788587	0.001029	20.754400
723.199337	-3.006500	3.655300	-10.989000	24.756758	0.001029	20.743320
724.199898	-2.999300	3.657800	-10.970000	24.747555	0.001029	20.753052
725.228592	-2.995300	3.654600	-10.945000	24.717611	0.001026	20.760461
726.202461	-2.978800	3.655200	-10.887000	24.707689	0.001027	20.760935
727.201556	-2.990600	3.656100	-10.933000	24.703958	0.001026	20.769994
728.202553	-3.021700	3.654100	-11.041000	24.667052	0.001028	20.768522
729.202125	-3.011300	3.653900	-11.002000	24.646656	0.001026	20.757538
730.202565	-2.996400	3.653700	-10.947000	24.633996	0.001026	20.746257
731.203724	-2.993300	3.653800	-10.936000	24.623654	0.001027	20.771441
732.204349	-3.010200	3.652400	-10.994000	24.595046	0.001024	20.778299
733.203036	-2.994600	3.653800	-10.940000	24.593707	0.001024	20.763203
734.204894	-3.004500	3.652600	-10.974000	24.588078	0.001024	20.751865
735.203311	-3.016900	3.652900	-11.019000	24.567313	0.001022	20.758058
736.205022	-3.022600	3.652000	-11.037000	24.608948	0.001022	20.744357
737.204525	-3.014800	3.650800	-11.005000	24.632723	0.001024	20.730280
738.203787	-3.022600	3.650800	-11.034000	24.675452	0.001025	20.748975
739.205468	-2.982800	3.652700	-10.894000	24.695593	0.001023	20.760652
740.206628	-2.988700	3.651900	-10.913000	24.702780	0.001023	20.758854
741.208266	-3.001300	3.651800	-10.959000	24.679997	0.001023	20.745000
742.207864	-2.988200	3.650700	-10.907000	24.684972	0.001023	20.743829
743.206966	-3.039200	3.648300	-11.087000	24.701761	0.001025	20.739339
744.207739	-2.984900	3.650800	-10.896000	24.712649	0.001023	20.758801
745.208014	-3.016900	3.649400	-11.008000	24.751048	0.001023	20.750393
746.208659	-3.016100	3.649300	-11.005000	24.756468	0.001024	20.753461
747.208342	-3.015800	3.649200	-11.003000	24.761690	0.001023	20.743054
748.209342	-2.996000	3.648500	-10.930000	24.757980	0.001022	20.750237
749.209873	-2.992600	3.647800	-10.915000	24.719782	0.001024	20.753157
750.209438	-3.003100	3.648200	-10.955000	24.671484	0.001021	20.738354
751.209696	-2.987800	3.648000	-10.899000	24.677257	0.001021	20.758372
752.210339	-2.984800	3.648200	-10.888000	24.717860	0.001019	20.760711
753.211509	-3.020400	3.647800	-11.015000	24.746510	0.001022	20.743468
754.211711	-3.008900	3.646400	-10.970000	24.766354	0.001021	20.752003
755.212657	-2.991200	3.646200	-10.906000	24.800273	0.001020	20.746688
756.211490	-2.978800	3.646900	-10.862000	24.816009	0.001020	20.745884
757.211817	-2.986400	3.647200	-10.891000	24.812751	0.001017	20.743563
758.212312	-2.968500	3.647900	-10.827000	24.821851	0.001019	20.751273
759.213262	-2.995500	3.645600	-10.920000	24.838083	0.001019	20.753814
760.212730	-2.998300	3.646900	-10.933000	24.810582	0.001019	20.741386
761.214537	-2.999800	3.644300	-10.930000	24.803146	0.001019	20.744355
762.213575	-3.018900	3.643200	-10.998000	24.766762	0.001017	20.749567
763.215689	-3.017600	3.642600	-10.991000	24.790805	0.001019	20.758523
764.213783	-3.024200	3.644200	-11.019000	24.755476	0.001019	20.732076
765.214311	-3.000900	3.643400	-10.932000	24.760246	0.001017	20.750615
766.214967	-2.970200	3.644500	-10.824000	24.778796	0.001017	20.747419
767.214912	-2.997900	3.642900	-10.920000	24.790855	0.001021	20.742925
768.215394	-2.995900	3.643200	-10.914000	24.807116	0.001018	20.736485
769.214574	-2.982500	3.642700	-10.863000	24.824396	0.001017	20.736757
770.215408	-2.983100	3.642700	-10.864000	24.832058	0.001017	20.741128
771.213925	-3.001700	3.642600	-10.932000	24.836655	0.001018	20.718239
772.215731	-2.995400	3.642400	-10.908000	24.893273	0.001017	20.751832
773.214452	-3.022600	3.641200	-11.004000	24.887128	0.001017	20.743293
774.214652	-3.010800	3.639900	-10.957000	24.906300	0.001017	20.733137
775.217005	-3.024600	3.640400	-11.009000	24.942055	0.001014	20.746740
776.217265	-3.004300	3.640000	-10.935000	24.951225	0.001014	20.747882
777.218301	-2.986500	3.641400	-10.874000	24.980813	0.001015	20.756244
778.220441	-2.980900	3.640800	-10.852000	25.013153	0.001015	20.747454
779.219138	-3.008600	3.638800	-10.947000	25.012578	0.001014	20.758731
780.218487	-2.996900	3.640500	-10.909000	25.018176	0.001014	20.757712
781.219127	-3.014600	3.638600	-10.967000	25.022071	0.001014	20.745975
782.217617	-2.984500	3.640400	-10.864000	25.031297	0.001012	20.741484
783.218501	-2.996800	3.639400	-10.906000	25.014887	0.001013	20.745875
784.221258	-3.007300	3.638800	-10.942000	24.960810	0.001014	20.722888
785.243435	-3.003900	3.637700	-10.926000	24.963369	0.001012	20.762917
786.220326	-2.997400	3.637200	-10.901000	24.945845	0.001014	20.742008
787.223234	-2.999200	3.636700	-10.906000	24.959463	0.001010	20.717743
788.222409	-3.002400	3.636900	-10.919000	24.973684	0.001011	20.748140
789.221733	-2.985900	3.637600	-10.860000	24.993697	0.001010	20.743097
790.226506	-3.024000	3.635500	-10.993000	25.025445	0.001011	20.727074
791.220329	-3.009500	3.636300	-10.942000	25.017086	0.001010	20.751402
792.222152	-3.006400	3.636500	-10.933000	25.030908	0.001010	20.745362
793.225964	-2.999500	3.634900	-10.902000	25.011886	0.001010	20.760408
794.222120	-2.968800	3.636500	-10.795000	25.028546	0.001008	20.757216
795.222103	-2.992800	3.634600	-10.876000	25.003281	0.001008	20.754615
796.222120	-2.984200	3.634900	-10.847000	25.036023	0.001007	20.727736
797.221729	-2.992800	3.634300	-10.875000	25.044772	0.001007	20.752640
798.222096	-3.004200	3.633800	-10.916000	25.028687	0.001008	20.737916
799.222126	-2.984900	3.633800	-10.845000	25.032836	0.001007	20.745400
800.221051	-2.988900	3.635100	-10.863000	25.026272	0.001006	20.754459
801.221141	-2.990500	3.634600	-10.868000	25.021351	0.001006	20.762322
802.222919	-2.979600	3.634400	-10.827000	25.028556	0.001007	20.762916
803.221979	-3.024400	3.632900	-10.986000	25.069800	0.001006	20.746469
804.222477	-2.988100	3.633300	-10.856000	25.083420	0.001006	20.742123
805.223075	-2.999400	3.631900	-10.891000	25.075538	0.001005	20.752704
806.224238	-3.005700	3.631800	-10.915000	25.074322	0.001005	20.768079
807.223824	-2.994700	3.631700	-10.875000	25.085129	0.001004	20.732933
808.224793	-2.990400	3.632500	-10.861000	25.105813	0.001008	20.756069
809.224006	-2.982300	3.631900	-10.830000	25.113790	0.001003	20.753645
810.224975	-2.985100	3.631500	-10.840000	25.097058	0.001003	20.753443
811.234180	-3.002100	3.630900	-10.900000	25.111277	0.001002	20.756812
812.226041	-2.984700	3.630600	-10.835000	25.064166	0.001002	20.770686
813.225707	-2.986800	3.630400	-10.842000	25.032071	0.000999	20.751270
814.227664	-3.015700	3.629400	-10.944000	24.980056	0.001003	20.749320
815.225988	-2.971000	3.630200	-10.782000	24.987244	0.001001	20.759855
816.227949	-3.013000	3.628100	-10.930000	24.974215	0.000999	20.763846
817.229198	-3.002300	3.628600	-10.893000	24.988785	0.001001	20.753815
818.228065	-3.021000	3.627700	-10.958000	24.995197	0.001002	20.757880
819.226866	-3.008100	3.627700	-10.912000	24.994771	0.001000	20.753185
820.231864	-2.988600	3.627700	-10.841000	24.998180	0.000999	20.779366
821.228628	-2.980700	3.627600	-10.811000	25.058515	0.001001	20.761695
822.228375	-3.021000	3.626400	-10.954000	25.064081	0.000998	20.749264
823.232607	-3.008900	3.625500	-10.908000	25.058441	0.000999	20.750715
824.228012	-3.014100	3.625700	-10.927000	25.075767	0.000997	20.763365
825.227307	-2.987000	3.626500	-10.832000	25.081780	0.000998	20.759918
826.229277	-2.996300	3.625300	-10.862000	25.140476	0.000998	20.771900
827.228854	-2.990500	3.626200	-10.842000	25.101319	0.000998	20.753927
828.228920	-3.006600	3.625500	-10.899000	25.097815	0.001000	20.749936
829.230820	-2.988600	3.624600	-10.831000	25.099606	0.000997	20.788244
830.228574	-2.991700	3.624800	-10.843000	25.114026	0.000995	20.766684
831.229579	-3.001000	3.624900	-10.877000	25.129510	0.000997	20.760417
832.232260	-2.994400	3.624400	-10.852000	25.156482	0.000995	20.768053
833.229747	-2.990400	3.624400	-10.837000	25.182286	0.000995	20.774518
834.228799	-2.981000	3.625600	-10.805000	25.166844	0.000994	20.771344
835.233521	-2.986800	3.625200	-10.827000	25.197318	0.000994	20.764005
836.229199	-2.998300	3.624500	-10.866000	25.188817	0.000994	20.759264
837.229169	-2.983300	3.622600	-10.805000	25.228986	0.000993	20.787738
838.232953	-3.028200	3.619900	-10.961000	25.217327	0.000992	20.780774
839.229720	-2.985900	3.622800	-10.816000	25.200575	0.000994	20.766801
840.229912	-2.987500	3.622000	-10.819000	25.179716	0.000992	20.772887
841.231994	-3.014000	3.621500	-10.914000	25.142231	0.000992	20.779826
842.229730	-2.987000	3.622400	-10.820000	25.094724	0.000995	20.786662
843.229012	-3.019400	3.620200	-10.930000	25.096162	0.000991	20.776252
844.233737	-2.985800	3.619800	-10.807000	25.089003	0.000991	20.772859
845.229479	-3.002400	3.619700	-10.867000	25.098051	0.000990	20.766295
846.230915	-3.006000	3.619600	-10.879000	25.119232	0.000990	20.763849
847.234578	-3.000800	3.618700	-10.857000	25.152122	0.000990	20.771737
848.231828	-2.992200	3.619900	-10.830000	25.163577	0.000990	20.762848
849.230453	-3.004000	3.617900	-10.867000	25.162706	0.000989	20.790898
850.233046	-3.025600	3.618600	-10.947000	25.171208	0.000989	20.780466
851.232411	-2.993300	3.618400	-10.829000	25.181803	0.000987	20.764076
852.236630	-2.982300	3.619500	-10.793000	25.165540	0.000986	20.783311
853.232877	-3.000500	3.617200	-10.852000	25.176650	0.000987	20.783559
854.232448	-2.995100	3.617000	-10.831000	25.202629	0.000986	20.771709
855.233126	-3.002000	3.617900	-10.860000	25.186402	0.000986	20.775332
856.234952	-3.037600	3.616900	-10.985000	25.195672	0.000987	20.773733
857.232053	-3.005800	3.616900	-10.871000	25.199327	0.000985	20.786885
858.233649	-2.995500	3.617300	-10.835000	25.214987	0.000985	20.790753
859.234737	-2.985500	3.618300	-10.801000	25.220083	0.000984	20.780222
860.236144	-2.987700	3.617000	-10.805000	25.225750	0.000984	20.790180
861.240094	-2.998000	3.615100	-10.838000	25.192916	0.000985	20.774285
862.236822	-2.995500	3.615800	-10.830000	25.164606	0.000984	20.780477
863.239541	-2.998500	3.615000	-10.837000	25.115957	0.000985	20.783796
864.236469	-3.008700	3.613700	-10.871000	25.064892	0.000983	20.788959
865.241546	-2.990300	3.615000	-10.808000	25.069936	0.000982	20.791652
866.236724	-2.989300	3.614800	-10.804000	25.030561	0.000982	20.789585
867.236609	-2.989200	3.612400	-10.797000	25.038317	0.000982	20.776507
868.236653	-3.017100	3.613000	-10.899000	25.060341	0.000981	20.788658
869.236919	-3.021500	3.613200	-10.916000	25.078784	0.000982	20.776351
870.236723	-3.016300	3.611900	-10.893000	25.114984	0.000982	20.798941
871.240246	-3.008600	3.611000	-10.862000	25.147698	0.000981	20.783418
872.237987	-3.013100	3.612900	-10.884000	25.170813	0.000981	20.797140
873.237822	-3.008200	3.612200	-10.865000	25.194255	0.000980	20.788906
874.243285	-3.017100	3.611100	-10.894000	25.226494	0.000981	20.789504
875.238476	-2.978200	3.611400	-10.755000	25.224954	0.000980	20.788432
876.238514	-2.967600	3.611900	-10.717000	25.229973	0.000979	20.792048
877.240093	-2.996700	3.610400	-10.818000	25.247521	0.000979	20.789277
878.239480	-3.008700	3.610800	-10.862000	25.239714	0.000978	20.811311
879.240033	-3.012000	3.608300	-10.866000	25.245751	0.000977	20.804096
880.242407	-2.993400	3.609900	-10.805000	25.245829	0.000978	20.806545
881.240025	-3.034600	3.608100	-10.947000	25.231784	0.000976	20.786280
882.240138	-2.994800	3.610900	-10.812000	25.252987	0.000976	20.795239
883.244156	-3.009500	3.608500	-10.859000	25.245973	0.000976	20.797681
884.242017	-2.989900	3.608300	-10.787000	25.249477	0.000975	20.812578
885.241290	-2.988200	3.609500	-10.785000	25.240528	0.000974	20.782257
886.245902	-3.003500	3.607100	-10.832000	25.188700	0.000974	20.795183
887.243439	-2.985200	3.608100	-10.769000	25.206573	0.000974	20.787048
888.249918	-2.983200	3.609200	-10.765000	25.209284	0.000975	20.797830
889.248865	-3.022400	3.605700	-10.896000	25.191932	0.000975	20.809807
890.247005	-2.991700	3.607400	-10.791000	25.194614	0.000974	20.811077
891.246039	-3.017500	3.605700	-10.879000	25.203761	0.000973	20.805561
892.249237	-3.015500	3.604800	-10.869000	25.220841	0.000971	20.795208
893.245520	-3.007000	3.606200	-10.843000	25.238688	0.000973	20.795583
894.245452	-2.977000	3.607300	-10.739000	25.289492	0.000972	20.791114
895.254416	-3.001100	3.605100	-10.818000	25.305947	0.000971	20.800522
896.247364	-2.990800	3.605400	-10.782000	25.313330	0.000972	20.802246
897.248946	-3.015900	3.603600	-10.867000	25.337513	0.000972	20.821785
898.251045	-2.994400	3.604500	-10.792000	25.362911	0.000971	20.800819
899.248826	-2.991500	3.605600	-10.785000	25.392290	0.000971	20.830319
900.248342	-3.019200	3.602700	-10.875000	25.402777	0.000970	20.783952
901.252118	-3.014200	3.602100	-10.856000	25.437124	0.000970	20.803742
902.248742	-2.985400	3.604900	-10.761000	25.423850	0.000971	20.811276
903.247533	-2.994000	3.604800	-10.792000	25.456279	0.000970	20.808753
904.249429	-2.999400	3.601400	-10.801000	25.448326	0.000969	20.804085
905.274213	-2.979700	3.602700	-10.733000	25.463161	0.000968	20.812818
906.248106	-2.995400	3.601400	-10.786000	25.464874	0.000967	20.826391
907.254439	-2.988200	3.601700	-10.762000	25.411964	0.000967	20.824470
908.250211	-2.988400	3.601900	-10.762000	25.403937	0.000968	20.833479
909.250426	-3.010700	3.599400	-10.835000	25.377993	0.000968	20.816912
910.253174	-2.989000	3.600300	-10.759000	25.394517	0.000965	20.819279
911.250249	-3.010900	3.601600	-10.843000	25.390912	0.000967	20.816608
912.252069	-2.989500	3.598700	-10.758000	25.396579	0.000965	20.804754
913.252554	-3.032300	3.597000	-10.906000	25.405402	0.000963	20.823097
914.253102	-2.993300	3.599900	-10.774000	25.410248	0.000964	20.826540
915.257267	-2.987400	3.598800	-10.749000	25.416637	0.000965	20.834852
916.253400	-2.997000	3.598500	-10.783000	25.431373	0.000962	20.832106
917.252564	-2.985600	3.598300	-10.741000	25.463239	0.000962	20.833284
918.252681	-3.001700	3.599800	-10.804000	25.481255	0.000961	20.833359
919.255589	-3.018800	3.597300	-10.859000	25.481801	0.000962	20.813045
920.251531	-3.027800	3.595200	-10.885000	25.499694	0.000963	20.825323
921.256109	-3.008300	3.596200	-10.818000	25.461998	0.000961	20.816392
922.255025	-2.989700	3.597000	-10.753000	25.419075	0.000961	20.819283
923.257834	-3.001300	3.596400	-10.792000	25.398080	0.000961	20.822857
924.255663	-3.002800	3.595600	-10.796000	25.388985	0.000958	20.834586
925.258187	-2.992800	3.595400	-10.759000	25.403302	0.000961	20.833790
926.256658	-3.008400	3.597000	-10.820000	25.366794	0.000959	20.845969
927.257988	-3.022200	3.595900	-10.867000	25.336078	0.000958	20.849741
928.262907	-2.989900	3.596400	-10.752000	25.305880	0.000958	20.827482
929.259097	-3.036600	3.592800	-10.909000	25.326236	0.000959	20.826583
930.258239	-3.006800	3.594700	-10.807000	25.344307	0.000956	20.833348
931.258434	-2.998400	3.595800	-10.781000	25.369610	0.000958	20.831253
932.258476	-2.971700	3.594400	-10.680000	25.404155	0.000957	20.835595
933.259114	-3.011700	3.593100	-10.820000	25.418423	0.000957	20.841861
934.258172	-3.002700	3.593400	-10.789000	25.442206	0.000955	20.833500
935.264865	-2.998300	3.592700	-10.771000	25.459553	0.000955	20.832428
936.259532	-2.997900	3.592400	-10.770000	25.486217	0.000954	20.828384
937.260235	-3.000900	3.590600	-10.774000	25.500656	0.000954	20.838143
938.258348	-2.989900	3.591900	-10.739000	25.504730	0.000954	20.856457
939.259823	-3.001000	3.590400	-10.774000	25.486812	0.000954	20.845577
940.261181	-3.005700	3.592100	-10.796000	25.459771	0.000955	20.858725
941.260822	-3.010600	3.589800	-10.807000	25.409769	0.000954	20.848344
942.261265	-2.990400	3.590400	-10.736000	25.361085	0.000951	20.819375
943.263820	-2.995900	3.590500	-10.755000	25.345026	0.000954	20.838811
944.262045	-3.010600	3.588900	-10.803000	25.341125	0.000951	20.862868
945.263224	-2.998300	3.590100	-10.762000	25.374131	0.000951	20.848121
946.263348	-2.995000	3.590400	-10.751000	25.363369	0.000952	20.838737
947.261290	-3.020300	3.588300	-10.835000	25.368592	0.000950	20.835446
948.263268	-3.010100	3.586400	-10.794000	25.380622	0.000951	20.852742
949.265518	-3.012800	3.589100	-10.812000	25.389443	0.000950	20.854486
950.262874	-2.998000	3.588200	-10.756000	25.383005	0.000949	20.843280
951.263635	-2.999900	3.586400	-10.758000	25.400004	0.000950	20.873150
952.265581	-3.012000	3.586400	-10.801000	25.401223	0.000951	20.853987
953.263254	-2.994300	3.588500	-10.744000	25.392350	0.000949	20.852190
954.264255	-2.976500	3.586800	-10.675000	25.391156	0.000948	20.845301
955.269193	-2.985900	3.586600	-10.706000	25.403588	0.000947	20.863947
956.264219	-2.988400	3.586300	-10.716000	25.403683	0.000949	20.860250
957.264256	-3.021000	3.583400	-10.824000	25.380524	0.000947	20.869237
958.269328	-2.998100	3.585100	-10.748000	25.381690	0.000948	20.867089
959.264349	-3.002800	3.585100	-10.764000	25.334419	0.000945	20.858980
960.265536	-2.995300	3.584300	-10.735000	25.307748	0.000946	20.867762
961.264405	-3.026600	3.582600	-10.843000	25.304615	0.000945	20.849444
962.267533	-2.999400	3.586000	-10.755000	25.354104	0.000944	20.854090
963.265924	-2.987000	3.584900	-10.707000	25.382585	0.000947	20.839066
964.266593	-2.993100	3.583600	-10.725000	25.400529	0.000945	20.847126
965.268424	-3.005600	3.582400	-10.767000	25.472002	0.000943	20.862946
966.265839	-3.002400	3.583800	-10.759000	25.490318	0.000944	20.860951
967.266098	-3.021100	3.581500	-10.818000	25.497052	0.000941	20.877669
968.270479	-3.019900	3.580900	-10.813000	25.505329	0.000943	20.854214
969.265849	-3.010600	3.581400	-10.780000	25.528936	0.000942	20.858481
970.266757	-3.021500	3.579800	-10.815000	25.571084	0.000942	20.852445
971.268333	-3.017300	3.581300	-10.805000	25.568321	0.000940	20.859627
972.269385	-3.007500	3.581000	-10.769000	25.551846	0.000941	20.855884
973.271562	-3.013400	3.580800	-10.790000	25.544940	0.000940	20.855112
974.268593	-2.997400	3.580500	-10.730000	25.571379	0.000940	20.857957
975.268479	-2.998600	3.580700	-10.736000	25.558012	0.000941	20.870136
976.267136	-2.988800	3.580400	-10.700000	25.532143	0.000940	20.890148
977.270335	-3.011900	3.579700	-10.781000	25.498842	0.000937	20.874251
978.268690	-3.022800	3.578200	-10.815000	25.521805	0.000937	20.875026
979.268245	-2.997600	3.577600	-10.723000	25.531399	0.000938	20.871385
980.268634	-3.000300	3.576200	-10.728000	25.553188	0.000935	20.878093
981.269858	-2.984300	3.579000	-10.680000	25.574434	0.000936	20.877145
982.269725	-2.984600	3.577800	-10.678000	25.603480	0.000936	20.897306
983.270388	-2.975300	3.578900	-10.647000	25.604897	0.000933	20.872177
984.269475	-2.973000	3.577800	-10.636000	25.617122	0.000935	20.870705
985.269091	-2.998600	3.576000	-10.722000	25.574385	0.000933	20.870932
986.270209	-3.013400	3.574800	-10.771000	25.577165	0.000934	20.869931
987.271819	-2.997800	3.578100	-10.725000	25.579976	0.000932	20.855211
988.270981	-2.993600	3.576000	-10.703000	25.577563	0.000931	20.877442
989.272811	-3.004400	3.575200	-10.740000	25.590035	0.000933	20.873847
990.271968	-3.005600	3.575400	-10.746000	25.588443	0.000931	20.892161
991.269394	-3.007000	3.575400	-10.751000	25.596472	0.000930	20.897854
992.272804	-2.998400	3.575600	-10.720000	25.611999	0.000930	20.887370
993.272286	-3.003200	3.574900	-10.735000	25.640995	0.000931	20.879508
994.269731	-3.000500	3.574300	-10.724000	25.656324	0.000930	20.878309
995.273097	-2.993300	3.573300	-10.695000	25.637888	0.000928	20.892034
996.275997	-2.989500	3.573300	-10.680000	25.624693	0.000929	20.898222
997.273586	-3.009800	3.574100	-10.755000	25.629288	0.000928	20.897620
998.274782	-3.013600	3.571700	-10.762000	25.625507	0.000926	20.901884
999.275814	-2.989100	3.572500	-10.677000	25.574867	0.000928	20.910294
1000.278726	-2.987300	3.571900	-10.669000	25.544996	0.000927	20.893098
1001.276249	-2.973200	3.571700	-10.618000	25.576333	0.000926	20.907973
1002.275493	-2.996500	3.571200	-10.699000	25.597452	0.000924	20.890303
1003.271800	-2.986200	3.570000	-10.660000	25.630450	0.000926	20.886461
1004.277623	-3.003300	3.570600	-10.723000	25.645212	0.000923	20.883744
1005.275987	-2.988200	3.569200	-10.665000	25.616907	0.000924	20.900359
1006.272994	-3.010300	3.567800	-10.738000	25.612982	0.000921	20.888831
1007.276841	-3.006800	3.569900	-10.733000	25.640266	0.000922	20.897266
1008.276997	-3.002800	3.568800	-10.715000	25.641333	0.000920	20.920622
1009.273835	-3.009300	3.568000	-10.736000	25.598967	0.000922	20.905100
1010.277600	-3.002400	3.568400	-10.713000	25.576777	0.000921	20.898936
1011.272769	-3.004300	3.568900	-10.721000	25.599238	0.000922	20.903950
1012.273788	-3.006200	3.566800	-10.721000	25.580054	0.000919	20.897486
1013.275531	-2.992600	3.568600	-10.679000	25.600753	0.000918	20.910212
1014.273839	-2.983000	3.566700	-10.638000	25.613518	0.000917	20.914971
1015.272931	-2.987800	3.567000	-10.656000	25.607186	0.000918	20.891545
1016.272299	-2.994600	3.565500	-10.676000	25.614666	0.000917	20.897160
1017.272955	-2.994300	3.566700	-10.678000	25.601049	0.000916	20.911458
1018.275333	-3.001400	3.566500	-10.704000	25.621177	0.000917	20.893742
1019.274293	-2.992100	3.566800	-10.672000	25.632085	0.000916	20.888103
1020.274650	-3.013000	3.565700	-10.742000	25.647816	0.000916	20.914331
1021.273774	-3.000300	3.566400	-10.699000	25.641678	0.000912	20.916701
1022.273843	-2.989500	3.565600	-10.658000	25.641580	0.000915	20.905224
1023.274224	-2.996900	3.564200	-10.680000	25.635914	0.000912	20.909017
1024.276576	-3.024300	3.563100	-10.775000	25.647618	0.000913	20.913184
1025.287042	-3.011500	3.563800	-10.732000	25.624436	0.000913	20.892274
1026.275305	-2.997300	3.563500	-10.680000	25.635841	0.000910	20.889978
1027.275198	-3.011900	3.563300	-10.731000	25.640368	0.000911	20.890732
1028.276752	-3.008300	3.563400	-10.719000	25.648890	0.000912	20.903557
1029.279863	-3.014300	3.562600	-10.738000	25.662186	0.000910	20.893205
1030.275514	-3.001900	3.561400	-10.690000	25.664025	0.000908	20.898845
1031.279192	-3.007700	3.562300	-10.714000	25.686139	0.000909	20.885021
1032.275080	-2.997000	3.561900	-10.674000	25.695708	0.000908	20.884200
1033.275584	-2.987200	3.562000	-10.639000	25.669567	0.000908	20.884023
1034.275366	-3.001000	3.561100	-10.686000	25.671533	0.000908	20.900695
1035.276370	-2.963800	3.562300	-10.557000	25.659058	0.000907	20.854030
1036.276072	-2.994300	3.561600	-10.663000	25.689595	0.000908	20.876165
1037.276025	-2.992300	3.560800	-10.654000	25.688577	0.000907	20.871349
1038.276771	-2.996500	3.560900	-10.669000	25.712604	0.000906	20.888842
1039.276032	-2.988800	3.559400	-10.637000	25.695810	0.000907	20.889992
1040.282923	-3.019600	3.560300	-10.749000	25.757375	0.000904	20.866484
1041.275721	-3.000400	3.558700	-10.676000	25.792433	0.000905	20.871353
1042.276769	-2.996900	3.559100	-10.666000	25.790968	0.000902	20.873674
1043.276065	-3.006900	3.557500	-10.696000	25.776306	0.000903	20.883602
1044.279814	-3.011100	3.556100	-10.706000	25.695038	0.000902	20.868830
1045.277888	-3.007000	3.557200	-10.694000	25.672875	0.000904	20.875493
1046.275999	-3.004800	3.555700	-10.683000	25.692456	0.000902	20.891839
1047.281737	-3.002400	3.555400	-10.673000	25.677099	0.000900	20.869778
1048.285579	-3.001600	3.556100	-10.673000	25.656003	0.000901	20.862815
1049.280157	-3.012800	3.555200	-10.710000	25.651709	0.000900	20.876993
1050.278239	-3.019800	3.554700	-10.733000	25.643979	0.000901	20.886298
1051.279181	-2.995800	3.554100	-10.644000	25.665498	0.000899	20.873773
1052.278648	-2.996500	3.555000	-10.652000	25.688285	0.000898	20.876271
1053.279752	-3.010300	3.554200	-10.698000	25.688105	0.000900	20.858074
1054.278323	-2.991500	3.555400	-10.634000	25.709972	0.000897	20.872924
1055.280706	-2.994800	3.554200	-10.643000	25.729052	0.000898	20.857002
1056.280771	-2.994100	3.554600	-10.642000	25.767961	0.000896	20.852936
1057.277920	-3.018100	3.552500	-10.720000	25.748209	0.000896	20.867709
1058.277853	-3.009900	3.551900	-10.690000	25.737204	0.000896	20.859974
1059.282453	-3.013100	3.552500	-10.703000	25.690867	0.000896	20.856107
1060.279434	-2.998300	3.552500	-10.651000	25.717927	0.000894	20.865267
1061.280371	-2.998300	3.551400	-10.647000	25.705801	0.000894	20.851192
1062.283931	-2.988800	3.551200	-10.613000	25.714372	0.000893	20.845103
1063.278363	-3.001900	3.550700	-10.658000	25.699668	0.000892	20.846454
1064.280720	-2.990300	3.551600	-10.619000	25.699713	0.000892	20.850767
1065.284661	-3.006400	3.549900	-10.670000	25.681302	0.000891	20.855983
1066.282143	-2.983400	3.549900	-10.589000	25.624507	0.000891	20.835924
1067.281691	-2.995000	3.549900	-10.631000	25.617844	0.000890	20.843931
1068.285600	-3.002500	3.548800	-10.654000	25.567729	0.000889	20.825843
1069.282990	-2.999700	3.548900	-10.643000	25.554534	0.000888	20.842463
1070.285323	-2.982700	3.547800	-10.581000	25.548101	0.000891	20.862553
1071.286602	-3.013600	3.547500	-10.690000	25.529588	0.000888	20.835429
1072.285553	-3.007500	3.547700	-10.668000	25.511372	0.000888	20.844161
1073.283392	-3.031900	3.546800	-10.753000	25.512295	0.000890	20.848882
1074.288174	-2.997800	3.547400	-10.634000	25.525420	0.000888	20.844519
1075.286252	-3.001500	3.547400	-10.646000	25.554517	0.000887	20.846239
1076.283947	-3.019300	3.546700	-10.708000	25.564403	0.000886	20.859012
1077.288301	-3.015700	3.545200	-10.690000	25.556680	0.000884	20.852204
1078.283482	-2.993600	3.547500	-10.619000	25.563167	0.000886	20.838330
1079.283894	-3.003300	3.544500	-10.644000	25.551215	0.000884	20.840553
1080.288402	-2.988200	3.544700	-10.591000	25.571345	0.000885	20.850336
1081.286446	-2.987900	3.546300	-10.594000	25.593210	0.000882	20.838631
1082.287452	-2.987200	3.545300	-10.589000	25.656053	0.000883	20.854805
1083.289752	-2.992900	3.543900	-10.605000	25.685922	0.000882	20.843079
1084.286620	-3.014900	3.543500	-10.683000	25.710170	0.000880	20.853683
1085.287457	-2.999600	3.544300	-10.630000	25.718597	0.000880	20.837492
1086.290205	-3.004000	3.542500	-10.641000	25.743369	0.000879	20.847675
1087.288156	-2.994600	3.544200	-10.612000	25.748410	0.000879	20.848472
1088.287458	-3.000800	3.542900	-10.631000	25.771844	0.000879	20.852095
1089.298355	-2.980900	3.544000	-10.563000	25.788587	0.000879	20.851369
1090.292584	-3.012200	3.542200	-10.669000	25.845208	0.000876	20.836176
1091.288879	-2.991800	3.543400	-10.601000	25.822083	0.000877	20.849455
1092.295444	-2.988300	3.541000	-10.581000	25.841263	0.000876	20.847386
1093.289672	-2.982200	3.541900	-10.561000	25.837265	0.000874	20.840525
1094.292398	-2.990100	3.541500	-10.588000	25.869214	0.000876	20.840376
1095.294927	-3.002800	3.540600	-10.630000	25.844177	0.000873	20.828502
1096.291640	-3.000400	3.540200	-10.621000	25.840528	0.000872	20.825310
1097.292870	-3.005500	3.539900	-10.638000	25.857224	0.000872	20.836867
1098.296836	-3.022000	3.537900	-10.690000	25.870218	0.000872	20.827161
1099.293993	-2.998100	3.538300	-10.608000	25.892627	0.000872	20.816956
1100.294116	-3.004700	3.540000	-10.636000	25.893276	0.000871	20.822349
1101.297147	-3.017300	3.537600	-10.672000	25.897305	0.000869	20.817388
1102.295805	-3.011900	3.538100	-10.655000	25.912856	0.000870	20.831114
1103.293983	-3.012600	3.537300	-10.656000	25.859401	0.000870	20.821985
1104.298896	-3.000700	3.535900	-10.609000	25.843829	0.000871	20.818195
1105.297444	-2.990600	3.536500	-10.574000	25.821796	0.000869	20.815977
1106.297148	-2.994900	3.535900	-10.588000	25.866066	0.000870	20.810188
1107.301032	-3.008000	3.536200	-10.636000	25.863886	0.000867	20.807998
1108.300601	-3.007000	3.536200	-10.632000	25.893449	0.000866	20.834377
1109.298544	-2.998100	3.537400	-10.603000	25.923705	0.000867	20.822099
1110.303136	-2.987100	3.536800	-10.564000	25.944550	0.000867	20.818858
1111.298861	-2.994100	3.536200	-10.586000	25.914372	0.000865	20.800868
1112.299201	-2.996000	3.533800	-10.586000	25.902921	0.000865	20.810228
1113.301538	-3.007200	3.534700	-10.628000	25.889758	0.000864	20.821186
1114.299669	-3.018600	3.533400	-10.664000	25.885412	0.000864	20.814449
1115.300373	-3.003500	3.533900	-10.613000	25.855077	0.000864	20.821434
1116.302777	-3.020200	3.532300	-10.667000	25.860449	0.000862	20.805968
1117.298162	-3.021700	3.532100	-10.672000	25.895155	0.000862	20.811435
1118.300106	-2.999000	3.533100	-10.595000	25.906433	0.000862	20.819446
1119.301448	-3.000600	3.531600	-10.596000	25.906208	0.000861	20.820167
1120.298545	-2.996600	3.531400	-10.581000	25.917535	0.000861	20.803098
1121.299652	-3.017100	3.530800	-10.651000	25.923794	0.000860	20.822188
1122.301146	-3.000100	3.530200	-10.590000	25.917711	0.000858	20.799008
1123.301658	-2.987600	3.530200	-10.546000	25.945233	0.000860	20.802950
1124.299002	-3.004800	3.529200	-10.604000	25.945360	0.000857	20.803551
1125.303437	-2.995300	3.531800	-10.577000	25.898536	0.000858	20.814358
1126.300069	-3.020000	3.529100	-10.655000	25.901865	0.000857	20.822917
1127.298576	-3.012900	3.529600	-10.633000	25.870939	0.000857	20.787582
1128.301926	-3.004700	3.528200	-10.600000	25.853003	0.000855	20.797540
1129.298625	-3.006200	3.528500	-10.607000	25.860608	0.000854	20.815610
1130.299596	-3.014200	3.526800	-10.630000	25.853824	0.000855	20.800261
1131.309416	-2.999000	3.527300	-10.577000	25.840012	0.000855	20.823370
1132.299766	-3.023100	3.525500	-10.656000	25.850520	0.000854	20.810218
1133.301120	-2.999200	3.526100	-10.574000	25.804762	0.000851	20.806453
1134.302621	-2.985000	3.526200	-10.524000	25.788717	0.000854	20.807405
1135.302629	-3.024200	3.525900	-10.662000	25.778008	0.000854	20.792855
1136.302224	-3.004800	3.527200	-10.596000	25.800095	0.000851	20.791333
1137.303222	-3.012500	3.525400	-10.619000	25.813611	0.000852	20.787841
1138.302450	-3.019500	3.524400	-10.641000	25.817859	0.000850	20.814868
1139.304276	-2.993500	3.525800	-10.554000	25.836022	0.000849	20.779533
1140.304981	-3.002500	3.524600	-10.582000	25.835328	0.000850	20.815820
1141.304725	-3.002100	3.523700	-10.577000	25.848466	0.000849	20.816690
1142.304166	-3.007000	3.523200	-10.593000	25.838611	0.000850	20.803471
1143.306894	-3.013400	3.524200	-10.619000	25.841964	0.000849	20.792141
1144.306530	-3.016500	3.524100	-10.630000	25.825666	0.000848	20.812278
1145.304242	-3.016600	3.522000	-10.624000	25.828498	0.000848	20.804691
1146.307795	-3.003900	3.522200	-10.579000	25.777026	0.000847	20.790920
1147.306715	-2.982400	3.522500	-10.505000	25.777371	0.000847	20.780835
1148.307285	-2.997700	3.521700	-10.557000	25.757323	0.000847	20.790570
1149.310534	-3.014100	3.521000	-10.611000	25.779009	0.000847	20.788645
1150.309741	-2.988000	3.522800	-10.526000	25.788298	0.000846	20.794182
1151.307029	-2.996100	3.520400	-10.546000	25.777938	0.000846	20.794207
1152.309678	-3.002700	3.519700	-10.568000	25.814608	0.000845	20.790739
1153.307726	-2.998900	3.520400	-10.557000	25.839527	0.000845	20.765510
1154.305124	-3.009700	3.518400	-10.588000	25.878132	0.000845	20.808559
1155.309802	-3.000300	3.519300	-10.556000	25.872739	0.000845	20.796978
1156.306111	-2.982600	3.520700	-10.501000	25.892190	0.000843	20.798499
1157.308293	-2.990300	3.518600	-10.520000	25.889580	0.000844	20.780230
1158.311583	-2.985200	3.519100	-10.505000	25.881408	0.000842	20.794306
1159.310093	-3.006200	3.518100	-10.575000	25.906969	0.000842	20.786794
1160.309493	-2.986400	3.517200	-10.503000	25.904757	0.000841	20.769398
1161.312752	-3.009500	3.517100	-10.583000	25.952172	0.000840	20.821300
1162.309618	-2.991600	3.518400	-10.525000	25.936823	0.000840	20.789285
1163.307623	-2.996100	3.515100	-10.530000	25.999417	0.000839	20.788633
1164.310729	-3.014400	3.516000	-10.598000	25.995469	0.000838	20.782770
1165.308848	-3.023000	3.515100	-10.625000	26.015163	0.000838	20.813937
1166.310594	-2.988400	3.514300	-10.501000	25.996011	0.000838	20.804178
1167.312056	-2.985700	3.515600	-10.495000	25.935900	0.000838	20.770339
1168.309803	-2.987800	3.515200	-10.501000	25.941412	0.000836	20.785834
1169.311567	-2.997200	3.514900	-10.535000	25.944343	0.000836	20.775502
1170.312499	-2.993300	3.515100	-10.520000	25.894933	0.000834	20.783237
1171.311373	-2.995200	3.514100	-10.525000	25.865144	0.000834	20.775597
1172.310229	-3.004000	3.513800	-10.555000	25.870984	0.000834	20.780990
1173.312704	-2.995400	3.511700	-10.518000	25.862534	0.000835	20.765862
1174.310775	-2.998200	3.511300	-10.527000	25.902108	0.000834	20.774323
1175.313922	-3.019500	3.511600	-10.601000	25.889339	0.000833	20.781885
1176.313206	-3.008000	3.513000	-10.565000	25.888864	0.000834	20.788045
1177.311147	-3.008200	3.510700	-10.560000	25.893657	0.000833	20.805189
1178.314536	-2.987100	3.510600	-10.486000	25.867895	0.000834	20.790688
1179.312428	-2.993600	3.511000	-10.510000	25.881315	0.000832	20.779988
1180.312760	-3.002600	3.510400	-10.539000	25.895045	0.000831	20.789988
1181.311536	-2.976900	3.510400	-10.449000	25.920204	0.000830	20.775434
1182.316564	-3.010500	3.510100	-10.565000	25.938315	0.000831	20.768498
1183.311018	-3.008100	3.508100	-10.551000	25.936276	0.000829	20.793951
1184.311386	-3.000300	3.508800	-10.527000	25.981778	0.000829	20.797938
1185.313841	-3.006100	3.508600	-10.546000	25.933761	0.000828	20.788105
1186.312302	-3.024700	3.507600	-10.608000	25.949734	0.000827	20.772857
1187.313773	-2.974100	3.508400	-10.433000	25.975343	0.000828	20.777249
1188.315777	-2.999300	3.507500	-10.519000	25.944863	0.000826	20.764170
1189.312224	-2.992400	3.506600	-10.492000	25.931591	0.000826	20.775019
1190.314141	-3.007200	3.504900	-10.539000	25.883449	0.000826	20.778812
1191.316137	-2.996000	3.506300	-10.503000	25.850979	0.000825	20.780334
1192.317297	-3.004300	3.505000	-10.528000	25.872339	0.000824	20.783299
1193.317951	-3.009700	3.505300	-10.548000	25.913427	0.000823	20.770521
1194.315880	-3.034800	3.502800	-10.629000	25.924356	0.000826	20.769173
1195.316272	-3.034400	3.504000	-10.631000	25.938491	0.000825	20.805658
1196.316518	-2.986000	3.503400	-10.460000	25.934563	0.000823	20.766625
1197.319814	-2.984400	3.505000	-10.459000	25.929072	0.000823	20.776282
1198.321259	-3.000700	3.502900	-10.510000	25.943030	0.000820	20.763752
1199.316365	-3.009400	3.502000	-10.538000	25.915430	0.000823	20.781543
1200.322109	-2.999700	3.502600	-10.505000	25.908699	0.000820	20.788532
1201.318701	-3.008000	3.501400	-10.531000	25.915209	0.000820	20.777527
1202.318569	-2.994600	3.503600	-10.490000	25.900774	0.000819	20.770613
1203.320573	-2.999200	3.502700	-10.504000	25.928818	0.000817	20.755638
1204.323431	-2.992600	3.502400	-10.480000	25.893621	0.000818	20.764849
1205.325686	-2.987300	3.500500	-10.455000	25.900302	0.000816	20.786260
1206.323266	-3.020100	3.499700	-10.569000	25.923676	0.000816	20.782240
1207.322658	-3.005400	3.500500	-10.520000	25.932820	0.000815	20.774357
1208.320024	-2.982200	3.500400	-10.438000	25.941886	0.000815	20.783465
1209.321644	-2.989400	3.499100	-10.460000	25.962927	0.000816	20.768568
1210.319361	-3.005500	3.498000	-10.512000	25.966407	0.000812	20.750726
1211.321757	-2.991500	3.499600	-10.468000	25.927853	0.000813	20.768893
1212.323021	-3.010100	3.497700	-10.527000	25.893177	0.000812	20.767722
1213.323444	-2.998000	3.498300	-10.487000	25.883388	0.000813	20.765475
1214.322890	-2.989200	3.496500	-10.451000	25.867771	0.000811	20.779184
1215.325339	-2.981000	3.497100	-10.424000	25.881529	0.000810	20.753175
1216.322933	-3.016300	3.495300	-10.542000	25.890423	0.000811	20.776809
1217.322765	-2.995900	3.496200	-10.473000	25.911317	0.000810	20.769350
1218.324989	-2.982900	3.496600	-10.428000	25.926272	0.000811	20.771572
1219.323830	-2.985800	3.496300	-10.438000	25.937124	0.000810	20.763508
1220.322208	-3.010600	3.494100	-10.518000	25.927385	0.000810	20.767474
1221.322004	-3.009700	3.495400	-10.519000	25.905477	0.000807	20.745939
1222.325992	-3.026900	3.494200	-10.576000	25.910940	0.000808	20.774661
1223.323369	-2.983800	3.495000	-10.428000	25.945345	0.000809	20.763232
1224.328587	-2.999800	3.493700	-10.480000	25.983548	0.000808	20.769845
1225.323367	-3.007300	3.492100	-10.499000	25.952424	0.000808	20.770344
1226.323606	-2.987200	3.492500	-10.432000	25.945218	0.000808	20.747931
1227.330176	-3.013100	3.492200	-10.521000	25.902469	0.000806	20.760461
1228.324705	-2.992100	3.493900	-10.452000	25.865301	0.000803	20.778125
1229.326499	-3.003600	3.493600	-10.492000	25.834624	0.000805	20.768171
1230.325746	-2.997500	3.491600	-10.465000	25.825825	0.000804	20.757435
1231.325437	-2.990200	3.491500	-10.440000	25.830221	0.000803	20.763748
1232.325654	-3.000600	3.490700	-10.473000	25.857950	0.000801	20.770266
1233.329894	-2.985500	3.490900	-10.421000	25.846970	0.000801	20.751650
1234.328564	-3.002400	3.490400	-10.478000	25.834969	0.000802	20.765673
1235.327177	-3.011400	3.489300	-10.507000	25.837727	0.000801	20.751374
1236.328719	-2.993500	3.488600	-10.442000	25.840116	0.000800	20.771317
1237.327720	-3.005700	3.488100	-10.483000	25.864928	0.000800	20.771586
1238.330136	-2.999800	3.486700	-10.459000	25.887090	0.000799	20.753072
1239.333835	-2.987000	3.487900	-10.418000	25.903437	0.000797	20.762857
1240.331054	-2.968300	3.488100	-10.351000	25.895516	0.000798	20.782874
1241.329896	-3.000000	3.487900	-10.462000	25.872540	0.000795	20.753628
1242.331930	-3.001400	3.487300	-10.466000	25.892060	0.000796	20.773713
1243.337503	-3.025900	3.484000	-10.541000	25.875122	0.000796	20.764757
1244.331148	-3.016400	3.485900	-10.514000	25.845710	0.000795	20.746116
1245.333395	-2.990400	3.485600	-10.423000	25.845196	0.000795	20.740858
1246.335768	-3.000700	3.485700	-10.458000	25.871522	0.000796	20.756873
1247.332247	-3.020400	3.483600	-10.521000	25.914276	0.000794	20.756675
1248.333713	-2.982300	3.486500	-10.396000	25.920239	0.000794	20.782107
1249.336428	-2.996000	3.482800	-10.434000	25.917608	0.000795	20.738685
1250.331599	-3.000300	3.482800	-10.448000	25.922303	0.000794	20.738186
1251.333999	-3.006400	3.483100	-10.469000	25.913212	0.000792	20.768409
1252.336554	-2.984100	3.482600	-10.392000	25.943989	0.000791	20.748119
1253.334244	-3.000200	3.483200	-10.450000	25.928020	0.000792	20.756258
1254.334422	-3.001700	3.482300	-10.451000	25.949603	0.000792	20.761346
1255.340514	-3.009500	3.482300	-10.479000	25.991780	0.000792	20.746346
1256.337084	-3.014500	3.482000	-10.495000	26.018307	0.000791	20.743600
1257.336035	-2.988300	3.481300	-10.401000	26.039523	0.000790	20.754485
1258.339697	-2.978000	3.481500	-10.367000	26.049405	0.000789	20.759198
1259.335600	-2.975500	3.480600	-10.355000	26.068831	0.000788	20.773501
1260.337862	-2.986900	3.480000	-10.394000	26.085545	0.000788	20.775596
1261.341485	-3.010300	3.478800	-10.471000	26.108467	0.000788	20.747892
1262.337488	-2.998000	3.479800	-10.430000	26.125501	0.000786	20.748412
1263.339585	-3.014300	3.478000	-10.482000	26.143686	0.000789	20.752935
1264.339888	-3.012400	3.477800	-10.476000	26.148873	0.000787	20.753880
1265.337889	-2.991300	3.479000	-10.406000	26.132357	0.000785	20.764785
1266.341190	-2.994300	3.475500	-10.406000	26.153958	0.000783	20.758041
1267.339455	-2.992600	3.476400	-10.402000	26.158754	0.000784	20.770447
1268.345778	-2.977200	3.476500	-10.349000	26.155197	0.000782	20.740793
1269.340867	-2.991700	3.476400	-10.399000	26.173378	0.000781	20.779452
1270.343057	-3.002000	3.475000	-10.431000	26.199401	0.000783	20.770040
1271.340025	-3.008800	3.474800	-10.454000	26.193119	0.000782	20.755192
1272.340109	-3.021100	3.472800	-10.491000	26.204570	0.000782	20.781399
1273.343509	-3.020400	3.473400	-10.489000	26.189911	0.000780	20.757184
1274.342810	-3.012600	3.474100	-10.464000	26.182438	0.000780	20.775754
1275.341304	-3.006600	3.473500	-10.443000	26.204066	0.000780	20.780892
1276.345426	-2.981400	3.473400	-10.354000	26.176970	0.000780	20.761724
1277.346728	-2.987000	3.473200	-10.373000	26.190706	0.000779	20.771735
1278.340399	-3.025400	3.469500	-10.496000	26.203668	0.000779	20.789501
1279.342415	-3.018800	3.470500	-10.475000	26.179403	0.000778	20.781239
1280.342523	-3.017600	3.470800	-10.472000	26.146942	0.000777	20.771855
1281.342949	-3.001500	3.471300	-10.419000	26.109618	0.000776	20.774180
1282.343040	-2.991500	3.472700	-10.387000	26.078888	0.000776	20.791193
1283.344987	-2.987300	3.470300	-10.366000	26.060680	0.000777	20.781908
1284.342650	-3.000100	3.469300	-10.407000	26.076254	0.000775	20.767683
1285.346039	-2.985700	3.469600	-10.356000	26.091900	0.000774	20.770128
1286.342297	-2.995000	3.468000	-10.386000	26.094510	0.000776	20.774172
1287.341173	-2.987300	3.468000	-10.359000	26.121133	0.000773	20.773422
1288.347375	-3.016600	3.467500	-10.459000	26.090411	0.000772	20.767209
1289.345660	-2.976800	3.469300	-10.325000	26.103025	0.000773	20.784625
1290.344483	-3.016600	3.467500	-10.459000	26.107917	0.000772	20.779108
1291.348189	-3.020200	3.467600	-10.472000	26.121950	0.000772	20.764760
1292.345926	-3.006900	3.465600	-10.420000	26.109061	0.000770	20.788793
1293.343810	-2.993100	3.466900	-10.374000	26.108265	0.000771	20.783726
1294.346768	-2.988100	3.465700	-10.355000	26.105208	0.000770	20.792035
1295.346180	-3.007700	3.465900	-10.423000	26.104388	0.000771	20.778408
1296.345775	-2.988500	3.464600	-10.353000	26.088889	0.000770	20.763783
1297.347856	-2.999500	3.464500	-10.390000	26.102842	0.000770	20.789182
1298.347816	-2.977700	3.463800	-10.313000	26.092534	0.000769	20.774558
1299.346866	-3.004200	3.463100	-10.403000	26.117893	0.000768	20.775382
1300.347418	-2.996700	3.464000	-10.379000	26.150625	0.000767	20.785987
1301.352180	-2.981300	3.464700	-10.328000	26.169500	0.000766	20.783616
1302.348699	-3.021200	3.461800	-10.456000	26.159464	0.000768	20.787756
1303.352251	-3.012600	3.462000	-10.427000	26.163214	0.000766	20.787731
1304.351139	-3.030600	3.462000	-10.491000	26.183057	0.000765	20.796765
1305.349565	-3.036300	3.461400	-10.508000	26.194554	0.000763	20.800732
1306.354486	-2.992800	3.460600	-10.356000	26.187403	0.000765	20.785484
1307.354900	-2.977100	3.460600	-10.301000	26.186906	0.000762	20.786408
1308.352357	-3.001400	3.459900	-10.384000	26.165644	0.000762	20.766465
1309.354776	-2.989800	3.460000	-10.343000	26.113995	0.000763	20.803708
1310.359075	-3.006400	3.460300	-10.401000	26.089949	0.000760	20.788082
1311.353826	-2.991200	3.460600	-10.350000	26.046558	0.000760	20.780520
1312.357313	-2.997500	3.458800	-10.367000	26.008282	0.000761	20.799437
1313.358138	-3.013500	3.457200	-10.416000	26.005056	0.000761	20.794299
1314.353592	-3.005200	3.458100	-10.390000	26.014322	0.000759	20.806454
1315.355729	-3.012000	3.458100	-10.415000	25.972245	0.000759	20.779352
1316.358329	-3.036900	3.455700	-10.494000	25.961316	0.000759	20.807727
1317.355258	-3.006600	3.455900	-10.390000	25.933893	0.000758	20.802462
1318.357825	-2.983300	3.456500	-10.311000	25.954906	0.000757	20.789908
1319.356073	-3.002300	3.455100	-10.372000	25.982632	0.000757	20.795003
1320.355949	-3.015400	3.454000	-10.414000	25.957076	0.000756	20.784975
1321.362409	-2.960200	3.455700	-10.229000	25.917057	0.000757	20.792187
1322.357701	-3.022300	3.453700	-10.437000	25.924739	0.000757	20.804172
1323.359484	-2.985500	3.456300	-10.317000	25.895399	0.000755	20.805042
1324.361107	-2.995000	3.454400	-10.345000	25.908914	0.000755	20.811507
1325.358289	-2.994600	3.452800	-10.339000	25.899450	0.000756	20.810060
1326.357180	-2.988300	3.452800	-10.316000	25.892993	0.000755	20.821591
1327.358967	-2.998100	3.452500	-10.350000	25.913317	0.000754	20.791274
1328.358806	-2.974000	3.452200	-10.266000	25.929139	0.000753	20.806221
1329.357501	-3.004500	3.451800	-10.370000	25.988905	0.000755	20.796090
1330.372642	-2.984800	3.453200	-10.306000	25.993829	0.000753	20.813839
1331.358446	-2.997300	3.452200	-10.346000	25.993431	0.000752	20.821524
1332.357271	-2.962700	3.451400	-10.224000	26.011435	0.000752	20.807820
1333.359299	-2.999000	3.449600	-10.345000	26.009502	0.000751	20.805878
1334.360989	-3.000300	3.450600	-10.352000	26.068238	0.000750	20.814631
1335.358810	-2.998800	3.450700	-10.347000	26.102293	0.000750	20.797166
1336.360998	-2.981900	3.451100	-10.289000	26.100955	0.000749	20.820003
1337.360824	-2.994700	3.448000	-10.325000	26.150031	0.000749	20.809572
1338.360907	-3.003700	3.447700	-10.354000	26.137664	0.000748	20.808050
1339.363811	-2.999600	3.446600	-10.337000	26.141787	0.000748	20.803185
1340.363493	-2.987000	3.448900	-10.300000	26.128472	0.000747	20.792177
1341.363510	-3.002200	3.446900	-10.348000	26.127384	0.000748	20.815739
1342.365225	-3.019800	3.445700	-10.404000	26.137787	0.000749	20.820976
1343.366638	-2.992100	3.446200	-10.311000	26.141073	0.000749	20.814795
1344.365483	-2.980900	3.445200	-10.269000	26.168339	0.000744	20.812173
1345.366586	-2.997000	3.444600	-10.322000	26.191087	0.000746	20.812894
1346.370505	-2.979900	3.445300	-10.265000	26.193922	0.000745	20.820484
1347.365787	-2.997000	3.443400	-10.319000	26.216194	0.000745	20.817261
1348.369766	-3.012000	3.442600	-10.368000	26.253444	0.000744	20.823874
1349.372044	-3.027500	3.443300	-10.424000	26.237680	0.000743	20.806610
1350.365685	-2.993200	3.443700	-10.307000	26.250892	0.000743	20.840749
1351.368693	-2.995700	3.442400	-10.311000	26.190890	0.000741	20.822653
1352.370285	-3.003200	3.442900	-10.338000	26.141418	0.000740	20.822728
1353.377234	-2.990700	3.443600	-10.298000	26.128304	0.000741	20.811447
1354.377159	-2.968200	3.443400	-10.219000	26.066784	0.000741	20.832610
1355.369514	-3.001000	3.439900	-10.322000	26.054740	0.000740	20.812449
1356.377586	-2.997100	3.440600	-10.311000	26.124307	0.000739	20.821656
1357.381577	-3.001300	3.440300	-10.324000	26.117031	0.000739	20.815294
1358.370273	-3.003700	3.440000	-10.332000	26.109780	0.000740	20.828396
1359.370708	-3.014200	3.439700	-10.367000	26.104516	0.000739	20.827374
1360.370278	-3.002500	3.439000	-10.325000	26.123215	0.000738	20.818188
1361.374369	-2.998500	3.438800	-10.311000	26.138069	0.000738	20.811776
1362.371538	-3.006500	3.438700	-10.337000	26.131536	0.000738	20.821334
1363.374194	-3.008100	3.437000	-10.336000	26.137766	0.000735	20.828067
1364.373086	-2.974700	3.439400	-10.230000	26.158257	0.000735	20.824002
1365.373250	-2.979800	3.437400	-10.242000	26.185326	0.000735	20.840296
1366.375433	-2.995300	3.435800	-10.290000	26.199584	0.000734	20.835657
1367.373345	-2.992900	3.436400	-10.284000	26.200676	0.000734	20.838650
1368.375417	-2.993700	3.437200	-10.289000	26.174921	0.000735	20.824150
1369.375677	-3.025400	3.434800	-10.390000	26.150383	0.000734	20.825572
1370.373551	-3.001500	3.434300	-10.307000	26.127159	0.000734	20.827366
1371.373034	-3.013400	3.434300	-10.348000	26.140569	0.000732	20.810021
1372.375716	-2.988400	3.435300	-10.265000	26.159870	0.000731	20.822777
1373.376830	-3.000500	3.433300	-10.300000	26.180682	0.000731	20.838947
1374.373912	-3.017800	3.434100	-10.363000	26.191436	0.000732	20.844064
1375.376863	-3.005100	3.432500	-10.314000	26.171540	0.000730	20.834977
1376.373670	-2.997200	3.432700	-10.288000	26.192995	0.000730	20.833304
1377.376081	-2.987900	3.433000	-10.256000	26.160359	0.000729	20.846027
1378.374878	-2.999600	3.431000	-10.291000	26.149182	0.000730	20.842383
1379.374352	-3.008700	3.431300	-10.323000	26.167413	0.000730	20.826563
1380.373749	-3.025800	3.429200	-10.375000	26.159965	0.000729	20.845631
1381.377141	-2.995400	3.430000	-10.273000	26.160183	0.000728	20.842531
1382.375112	-2.981900	3.430500	-10.229000	26.190879	0.000728	20.823116
1383.375971	-2.985800	3.430000	-10.240000	26.220084	0.000726	20.841558
1384.376901	-3.016000	3.428500	-10.338000	26.216331	0.000728	20.826881
1385.379141	-3.015500	3.427400	-10.334000	26.216556	0.000726	20.829004
1386.389507	-3.020300	3.427500	-10.351000	26.183079	0.000726	20.825236
1387.383152	-2.997900	3.428700	-10.278000	26.155285	0.000724	20.841402
1388.380882	-2.988700	3.428200	-10.245000	26.115918	0.000724	20.845468
1389.379223	-2.981900	3.426800	-10.216000	26.093739	0.000726	20.848787
1390.378989	-3.001400	3.426900	-10.284000	26.028142	0.000724	20.843571
1391.382359	-2.996900	3.426700	-10.269000	26.016041	0.000721	20.847534
1392.379327	-2.993500	3.425800	-10.254000	26.032612	0.000722	20.858018
1393.380050	-2.991700	3.426000	-10.248000	26.050693	0.000721	20.850581
1394.382941	-3.015500	3.425700	-10.330000	26.095098	0.000723	20.867221
1395.381763	-3.000300	3.425600	-10.277000	26.136082	0.000720	20.850556
1396.379654	-3.000400	3.425400	-10.277000	26.164789	0.000722	20.852849
1397.384440	-2.997000	3.425300	-10.264000	26.153735	0.000721	20.855492
1398.379548	-3.004200	3.424000	-10.285000	26.165137	0.000720	20.856518
1399.381360	-2.992300	3.424200	-10.244000	26.213439	0.000718	20.848631
1400.387516	-2.994500	3.424100	-10.251000	26.206017	0.000718	20.848284
1401.385354	-2.987500	3.422300	-10.223000	26.210587	0.000716	20.859515
1402.382822	-2.991800	3.423100	-10.241000	26.232243	0.000719	20.868474
1403.385775	-3.009900	3.422400	-10.300000	26.248680	0.000717	20.890205
1404.384982	-2.975300	3.421600	-10.179000	26.267134	0.000718	20.864656
1405.383810	-3.015700	3.420200	-10.313000	26.296013	0.000718	20.845316
1406.387429	-3.000000	3.421000	-10.261000	26.317241	0.000716	20.874708
1407.383759	-3.000700	3.419800	-10.260000	26.299960	0.000716	20.862558
1408.387008	-3.012400	3.419400	-10.299000	26.285285	0.000716	20.842595
1409.387554	-3.013300	3.419200	-10.301000	26.277309	0.000714	20.866821
1410.385994	-2.984900	3.420000	-10.208000	26.299316	0.000714	20.869970
1411.386430	-2.983700	3.418700	-10.199000	26.313266	0.000716	20.875929
1412.388730	-2.998200	3.419200	-10.249000	26.310857	0.000712	20.858336
1413.386717	-2.997800	3.418700	-10.248000	26.314854	0.000712	20.870412
1414.387840	-3.004000	3.417300	-10.264000	26.326004	0.000713	20.858386
1415.391547	-3.009700	3.416900	-10.282000	26.321012	0.000711	20.869963
1416.387808	-2.998400	3.417400	-10.246000	26.311005	0.000710	20.862278
1417.390721	-3.013700	3.415500	-10.293000	26.307326	0.000713	20.867115
1418.388682	-2.998300	3.418500	-10.249000	26.327338	0.000711	20.878692
1419.387684	-3.004000	3.415400	-10.259000	26.358501	0.000708	20.882510
1420.388624	-3.039100	3.413800	-10.375000	26.356512	0.000709	20.852537
1421.391201	-3.015300	3.413500	-10.291000	26.339725	0.000709	20.883079
1422.388231	-2.990500	3.415100	-10.212000	26.309924	0.000708	20.882053
1423.387134	-3.021700	3.412700	-10.312000	26.301308	0.000708	20.877662
1424.391797	-2.998200	3.413700	-10.234000	26.272770	0.000706	20.870320
1425.388849	-3.030300	3.412700	-10.341000	26.253499	0.000706	20.863282
1426.391390	-3.005400	3.411000	-10.250000	26.220344	0.000706	20.879275
1427.393852	-3.026900	3.411400	-10.324000	26.218256	0.000706	20.897090
1428.392359	-3.009900	3.410200	-10.263000	26.243538	0.000705	20.872238
1429.390690	-3.015300	3.410100	-10.281000	26.238841	0.000706	20.871311
1430.392806	-3.014900	3.410900	-10.283000	26.251179	0.000704	20.870907
1431.391276	-2.991500	3.410100	-10.200000	26.290738	0.000703	20.901176
1432.390545	-3.007700	3.409300	-10.254000	26.276108	0.000702	20.894535
1433.394829	-2.982700	3.410600	-10.172000	26.289192	0.000702	20.883977
1434.392498	-2.990300	3.410300	-10.197000	26.247918	0.000702	20.887070
1435.395560	-2.994600	3.409400	-10.209000	26.205280	0.000700	20.890215
1436.395937	-3.009100	3.407700	-10.253000	26.206646	0.000701	20.874520
1437.395741	-3.011500	3.409500	-10.265000	26.178750	0.000700	20.887738
1438.394014	-3.014100	3.406300	-10.266000	26.172366	0.000700	20.888435
1439.397933	-2.997600	3.407800	-10.214000	26.169186	0.000701	20.873861
1440.394673	-3.002800	3.406900	-10.229000	26.149568	0.000699	20.900614
1441.395133	-2.960500	3.408200	-10.089000	26.167591	0.000699	20.898809
1442.400645	-2.997400	3.406700	-10.210000	26.146603	0.000698	20.900005
1443.394933	-2.993600	3.406800	-10.198000	26.169475	0.000699	20.887901
1444.394557	-2.984400	3.405600	-10.163000	26.185092	0.000696	20.894110
1445.397855	-2.981900	3.407300	-10.159000	26.244594	0.000699	20.907435
1446.395454	-3.005700	3.404100	-10.231000	26.229323	0.000696	20.916270
1447.404689	-3.004500	3.405000	-10.229000	26.249259	0.000696	20.897426
1448.398736	-2.972000	3.406000	-10.121000	26.244562	0.000697	20.920678
1449.397648	-3.015600	3.403100	-10.262000	26.263509	0.000696	20.900366
1450.402599	-3.001800	3.404400	-10.218000	26.242897	0.000694	20.898144
1451.403846	-3.008300	3.402200	-10.234000	26.260474	0.000694	20.918177
1452.403011	-3.006300	3.402800	-10.229000	26.225682	0.000692	20.903129
1453.403346	-2.985200	3.401400	-10.153000	26.231516	0.000692	20.900932
1454.402013	-2.993400	3.403900	-10.187000	26.261435	0.000691	20.916772
1455.403210	-2.988200	3.402100	-10.165000	26.290146	0.000689	20.918598
1456.402301	-3.011900	3.400400	-10.241000	26.291980	0.000693	20.925182
1457.404372	-2.997000	3.400200	-10.190000	26.277079	0.000690	20.896460
1458.404480	-2.988800	3.400300	-10.160000	26.283558	0.000688	20.917667
1459.403898	-2.999900	3.398900	-10.195000	26.326640	0.000689	20.930616
1460.401316	-2.999000	3.398800	-10.192000	26.348593	0.000687	20.895310
1461.401910	-2.997500	3.400200	-10.191000	26.327707	0.000689	20.915569
1462.401754	-3.020500	3.396800	-10.259000	26.353705	0.000687	20.921308
1463.402157	-2.985800	3.398500	-10.145000	26.384839	0.000687	20.910400
1464.404089	-3.001000	3.397200	-10.193000	26.354920	0.000686	20.935803
1465.404140	-2.988100	3.398100	-10.153000	26.350050	0.000686	20.933755
1466.403177	-2.979400	3.397900	-10.122000	26.304508	0.000687	20.906006
1467.403817	-2.983300	3.396500	-10.132000	26.314342	0.000685	20.913991
1468.402537	-2.973900	3.397800	-10.104000	26.326334	0.000685	20.930309
1469.403693	-2.981900	3.397200	-10.129000	26.337506	0.000686	20.929682
1470.403499	-3.017200	3.394300	-10.241000	26.340882	0.000684	20.937816
1471.403086	-3.002900	3.394100	-10.191000	26.348903	0.000685	20.921223
1472.403992	-3.001300	3.394600	-10.186000	26.372661	0.000684	20.921867
1473.402906	-3.010100	3.392700	-10.212000	26.386198	0.000682	20.931678
1474.402763	-3.006800	3.394100	-10.204000	26.411673	0.000682	20.926937
1475.405735	-2.989600	3.395400	-10.150000	26.451596	0.000683	20.928182
1476.404498	-3.014500	3.393300	-10.229000	26.470913	0.000682	20.923417
1477.404000	-2.995800	3.393600	-10.165000	26.487096	0.000681	20.931147
1478.407045	-2.989600	3.393500	-10.144000	26.451867	0.000680	20.906172
1479.406677	-3.001800	3.391500	-10.180000	26.430515	0.000680	20.928331
1480.404867	-3.000800	3.393500	-10.182000	26.340502	0.000679	20.910885
1481.406235	-3.014600	3.391200	-10.222000	26.327193	0.000678	20.924535
1482.406070	-2.993300	3.390500	-10.148000	26.328859	0.000677	20.927156
1483.405598	-3.050300	3.389600	-10.338000	26.334922	0.000678	20.906225
1484.409077	-2.997900	3.390400	-10.162000	26.357194	0.000677	20.923392
1485.406576	-2.983600	3.389200	-10.110000	26.395331	0.000676	20.911935
1486.406473	-3.006500	3.389000	-10.188000	26.421753	0.000676	20.913361
1487.405704	-3.015400	3.389200	-10.219000	26.459415	0.000674	20.907594
1488.407406	-2.985400	3.388000	-10.113000	26.476795	0.000674	20.920321
1489.406886	-3.002700	3.388600	-10.174000	26.506042	0.000673	20.919847
1490.409150	-3.010300	3.387500	-10.196000	26.498963	0.000675	20.900879
1491.406730	-3.008700	3.386400	-10.188000	26.475827	0.000672	20.906073
1492.407414	-3.003300	3.387200	-10.172000	26.436796	0.000672	20.907619
1493.409822	-2.984600	3.386800	-10.106000	26.418795	0.000671	20.908493
1494.411180	-2.990900	3.386900	-10.129000	26.369358	0.000672	20.905747
1495.409125	-2.999300	3.385300	-10.152000	26.343935	0.000672	20.911016
1496.411350	-3.015700	3.385600	-10.208000	26.344702	0.000669	20.894245
1497.410558	-2.982100	3.387100	-10.099000	26.377262	0.000671	20.909897
1498.409990	-2.999300	3.386300	-10.155000	26.383019	0.000668	20.905252
1499.411526	-3.015200	3.384700	-10.205000	26.429255	0.000667	20.907152
1500.409831	-2.997200	3.385200	-10.145000	26.450385	0.000665	20.915113
1501.408799	-3.000600	3.383500	-10.150000	26.480330	0.000666	20.909650
1502.410349	-3.011100	3.383400	-10.187000	26.465262	0.000666	20.900670
1503.408270	-2.990200	3.382400	-10.113000	26.484649	0.000665	20.920154
1504.412763	-3.000100	3.382900	-10.147000	26.504567	0.000666	20.896555
1505.409450	-3.010900	3.382800	-10.185000	26.531874	0.000666	20.900295
1506.411382	-3.000600	3.381500	-10.146000	26.561049	0.000665	20.896905
1507.411780	-3.021800	3.381300	-10.216000	26.542304	0.000664	20.895607
1508.413321	-2.987700	3.380900	-10.099000	26.554670	0.000664	20.886227
1509.413218	-2.991400	3.381100	-10.112000	26.562443	0.000664	20.868437
1510.413010	-3.013500	3.378800	-10.181000	26.540030	0.000664	20.889528
1511.409373	-2.983100	3.381800	-10.087000	26.551150	0.000663	20.886008
1512.410203	-2.973500	3.379700	-10.049000	26.553118	0.000662	20.877555
1513.410920	-3.013500	3.379500	-10.183000	26.553491	0.000662	20.888361
1514.414601	-2.982900	3.378600	-10.076000	26.556571	0.000661	20.873914
1515.414701	-2.984100	3.378700	-10.081000	26.566903	0.000660	20.883351
1516.414865	-3.006700	3.377900	-10.156000	26.600593	0.000657	20.892086
1517.413954	-2.990700	3.376700	-10.098000	26.583440	0.000659	20.850190
1518.413769	-2.994700	3.378100	-10.115000	26.551369	0.000659	20.885279
1519.414814	-2.986000	3.377900	-10.085000	26.506609	0.000658	20.896711
1520.413953	-2.989900	3.377400	-10.098000	26.494693	0.000658	20.900854
1521.414784	-2.980800	3.376600	-10.063000	26.481316	0.000657	20.880297
1522.412427	-3.025900	3.375200	-10.212000	26.490881	0.000656	20.856722
1523.415601	-3.010300	3.374800	-10.158000	26.505257	0.000656	20.876862
1524.415931	-3.002100	3.374900	-10.130000	26.514942	0.000654	20.853407
1525.415542	-3.010800	3.374900	-10.160000	26.517128	0.000655	20.866983
1526.414820	-3.019700	3.373700	-10.187000	26.517628	0.000656	20.878865
1527.413689	-3.017500	3.373400	-10.179000	26.540150	0.000654	20.881115
1528.415787	-3.011400	3.371900	-10.154000	26.520662	0.000655	20.872906
1529.413938	-2.982800	3.374200	-10.063000	26.506219	0.000652	20.855070
1530.415421	-3.021400	3.371500	-10.186000	26.561310	0.000654	20.870143
1531.414970	-2.972600	3.374000	-10.028000	26.539390	0.000652	20.873239
1532.419297	-2.992200	3.371600	-10.087000	26.567917	0.000651	20.847863
1533.416544	-2.984400	3.371800	-10.061000	26.586391	0.000652	20.879233
1534.417519	-2.985400	3.371400	-10.064000	26.590960	0.000651	20.863912
1535.417181	-3.008900	3.371400	-10.143000	26.621052	0.000650	20.842481
1536.416895	-2.999900	3.370500	-10.110000	26.625244	0.000650	20.847643
1537.418314	-2.991800	3.371500	-10.086000	26.593103	0.000650	20.866542
1538.417178	-3.013500	3.370300	-10.155000	26.591294	0.000647	20.882266
1539.418526	-3.000000	3.369600	-10.107000	26.586109	0.000647	20.831537
1540.417238	-3.005700	3.368500	-10.123000	26.562504	0.000645	20.855697
1541.418413	-3.003800	3.369700	-10.121000	26.572336	0.000646	20.862261
1542.430813	-2.995600	3.369700	-10.094000	26.591277	0.000645	20.835309
1543.420569	-3.005400	3.369500	-10.124000	26.619060	0.000644	20.848065
1544.421596	-2.980200	3.367600	-10.035000	26.636318	0.000645	20.862569
1545.419484	-2.997900	3.367400	-10.094000	26.623087	0.000644	20.854010
1546.420269	-2.986200	3.368500	-10.057000	26.610651	0.000645	20.870431
1547.419166	-3.006000	3.366100	-10.118000	26.604523	0.000643	20.845780
1548.419247	-3.006800	3.366100	-10.121000	26.585385	0.000642	20.858783
1549.420339	-2.989400	3.366900	-10.064000	26.557531	0.000643	20.836948
1550.419816	-3.005300	3.365100	-10.112000	26.552092	0.000644	20.850921
1551.419791	-3.009700	3.365200	-10.126000	26.526775	0.000642	20.838749
1552.421257	-2.987000	3.364700	-10.049000	26.501253	0.000641	20.860510
1553.418205	-3.011600	3.364400	-10.132000	26.520893	0.000639	20.853225
1554.420597	-2.993000	3.364700	-10.069000	26.541549	0.000642	20.844591
1555.422098	-3.001900	3.363100	-10.095000	26.576011	0.000638	20.839404
1556.423679	-2.981300	3.364900	-10.031000	26.567176	0.000638	20.831945
1557.424837	-2.997300	3.363200	-10.079000	26.557545	0.000637	20.841704
1558.423053	-2.995400	3.362100	-10.070000	26.553251	0.000638	20.837388
1559.422793	-2.994500	3.363300	-10.070000	26.558168	0.000638	20.823365
1560.425282	-3.028900	3.359700	-10.174000	26.537861	0.000637	20.833771
1561.421870	-2.990700	3.360700	-10.050000	26.468001	0.000636	20.865492
1562.429009	-2.992400	3.362400	-10.060000	26.468099	0.000636	20.849945
1563.429664	-2.995200	3.361400	-10.067000	26.516342	0.000636	20.846754
1564.421414	-2.975800	3.362700	-10.007000	26.524685	0.000635	20.826217
1565.433801	-3.022600	3.359800	-10.154000	26.521263	0.000635	20.837002
1566.428307	-3.003300	3.360000	-10.090000	26.571735	0.000634	20.841270
1567.423785	-3.010000	3.358500	-10.108000	26.616045	0.000633	20.827491
1568.427406	-2.956300	3.360700	-9.934700	26.599589	0.000633	20.838924
1569.428108	-3.008200	3.358100	-10.101000	26.604433	0.000631	20.838577
1570.430632	-3.002400	3.358500	-10.083000	26.602793	0.000632	20.853523
1571.426443	-3.001100	3.358500	-10.078000	26.573425	0.000632	20.824477
1572.429759	-3.026200	3.356700	-10.157000	26.561510	0.000633	20.821508
1573.425544	-2.991600	3.356300	-10.040000	26.558356	0.000629	20.842519
1574.430426	-3.025600	3.357300	-10.157000	26.539660	0.000630	20.817563
1575.425933	-3.009700	3.356100	-10.100000	26.552375	0.000629	20.831292
1576.427891	-3.002500	3.354100	-10.070000	26.564287	0.000629	20.837576
1577.431277	-3.015000	3.356300	-10.118000	26.535665	0.000630	20.827771
1578.428121	-2.995100	3.354500	-10.045000	26.491348	0.000631	20.821158
1579.428974	-3.037400	3.353700	-10.186000	26.431019	0.000629	20.843970
1580.429242	-3.011000	3.354500	-10.100000	26.419795	0.000627	20.831741
1581.426851	-2.988600	3.355900	-10.028000	26.446188	0.000626	20.833613
1582.429654	-3.003300	3.352100	-10.066000	26.436975	0.000628	20.837629
1583.430874	-3.019000	3.351700	-10.118000	26.435461	0.000626	20.821409
1584.427974	-3.016000	3.353500	-10.113000	26.415746	0.000625	20.828620
1585.430532	-2.988100	3.353300	-10.019000	26.469673	0.000627	20.826398
1586.431870	-2.984300	3.353800	-10.007000	26.494158	0.000625	20.814499
1587.429062	-2.987200	3.353200	-10.016000	26.504331	0.000623	20.837052
1588.430238	-3.003800	3.352600	-10.070000	26.513888	0.000625	20.813943
1589.435376	-2.989900	3.352100	-10.022000	26.547954	0.000621	20.824951
1590.428509	-2.982200	3.352000	-9.996000	26.564685	0.000622	20.831338
1591.431822	-2.996900	3.351500	-10.043000	26.551699	0.000619	20.813069
1592.432121	-2.980000	3.349600	-9.980700	26.527667	0.000622	20.834430
1593.430364	-2.996000	3.350100	-10.037000	26.513987	0.000621	20.811671
1594.431863	-3.001500	3.350400	-10.056000	26.488186	0.000619	20.823195
1595.439319	-2.979700	3.350100	-9.981600	26.436366	0.000621	20.820895
1596.430460	-3.019300	3.348000	-10.107000	26.474327	0.000618	20.793143
1597.430421	-2.990000	3.350300	-10.016000	26.489253	0.000618	20.828535
1598.433925	-2.992300	3.347800	-10.017000	26.518225	0.000617	20.829681
1599.431773	-2.990100	3.347500	-10.008000	26.516137	0.000617	20.821893
1600.431965	-3.001000	3.348100	-10.046000	26.475541	0.000617	20.836563
1601.430653	-3.002100	3.347600	-10.048000	26.488130	0.000617	20.822190
1602.429880	-2.982500	3.346100	-9.978900	26.499349	0.000615	20.856225
1603.431839	-3.012300	3.346300	-10.079000	26.534301	0.000616	20.819289
1604.434512	-3.021500	3.345300	-10.107000	26.563170	0.000612	20.799470
1605.433173	-3.008100	3.345600	-10.062000	26.562255	0.000614	20.818464
1606.432820	-3.009200	3.344900	-10.065000	26.557436	0.000613	20.833060
1607.436309	-3.023700	3.343700	-10.109000	26.609993	0.000613	20.836106
1608.436870	-3.001200	3.344600	-10.037000	26.605622	0.000611	20.824599
1609.434831	-3.000500	3.344100	-10.033000	26.580049	0.000611	20.837298
1610.435121	-2.993500	3.344500	-10.010000	26.615421	0.000610	20.821174
1611.436133	-2.999900	3.342900	-10.027000	26.576842	0.000612	20.825540
1612.434936	-2.987800	3.343100	-9.987600	26.578359	0.000612	20.823747
1613.436277	-2.993100	3.342200	-10.002000	26.597247	0.000610	20.818552
1614.435906	-2.990000	3.342800	-9.994200	26.618891	0.000609	20.830352
1615.441381	-2.979300	3.340900	-9.952400	26.630634	0.000609	20.808492
1616.438389	-3.012700	3.340800	-10.063000	26.643766	0.000607	20.820272
1617.436514	-2.988100	3.342500	-9.987000	26.662685	0.000606	20.823644
1618.438031	-3.006100	3.340200	-10.040000	26.694725	0.000608	20.825982
1619.439751	-3.007400	3.339000	-10.040000	26.704256	0.000606	20.814702
1620.439620	-2.991300	3.340800	-9.991800	26.663716	0.000606	20.812827
1621.439167	-3.002400	3.339200	-10.024000	26.621689	0.000605	20.825579
1622.440856	-2.998000	3.338900	-10.009000	26.575514	0.000602	20.805240
1623.439463	-2.988200	3.339600	-9.978400	26.552623	0.000604	20.800722
1624.439324	-2.997400	3.338400	-10.004000	26.531446	0.000604	20.789391
1625.437894	-2.975500	3.338500	-9.933100	26.488048	0.000603	20.812625
1626.439428	-2.959500	3.339400	-9.882100	26.486330	0.000602	20.809950
1627.440245	-3.002000	3.335900	-10.014000	26.487847	0.000599	20.816690
1628.438625	-3.011000	3.336500	-10.045000	26.490079	0.000600	20.798071
1629.445166	-3.020000	3.334500	-10.068000	26.510785	0.000599	20.794702
1630.439380	-3.002500	3.336900	-10.017000	26.515449	0.000600	20.807451
1631.442494	-2.991500	3.336000	-9.979100	26.514555	0.000599	20.793276
1632.441901	-2.993000	3.335200	-9.981300	26.470234	0.000599	20.818427
1633.440254	-2.997900	3.335400	-9.998500	26.429143	0.000597	20.818378
1634.441520	-2.996900	3.335400	-9.994900	26.430087	0.000597	20.816007
1635.440652	-3.013800	3.332800	-10.043000	26.465369	0.000597	20.801684
1636.441909	-2.988000	3.334700	-9.962700	26.493518	0.000596	20.806743
1637.441902	-2.992000	3.333100	-9.971300	26.536324	0.000594	20.808046
1638.443349	-3.000800	3.333600	-10.003000	26.582920	0.000596	20.810788
1639.441257	-3.016400	3.333000	-10.052000	26.650319	0.000595	20.799359
1640.445282	-2.997500	3.331100	-9.983800	26.652449	0.000594	20.810982
1641.443568	-3.013700	3.331300	-10.037000	26.692468	0.000594	20.804748
1642.444312	-3.013200	3.330900	-10.036000	26.712273	0.000593	20.774398
1643.445021	-3.012800	3.329700	-10.030000	26.707733	0.000594	20.811559
1644.445073	-2.979500	3.331700	-9.925900	26.713787	0.000593	20.789196
1645.444869	-2.995700	3.330000	-9.974200	26.716043	0.000591	20.786249
1646.443773	-3.000500	3.329000	-9.987900	26.733218	0.000590	20.791188
1647.445967	-3.004400	3.330000	-10.003000	26.743720	0.000590	20.806963
1648.443399	-3.005300	3.329400	-10.004000	26.782241	0.000587	20.784525
1649.443793	-2.988900	3.328600	-9.947500	26.766924	0.000588	20.804687
1650.445324	-2.997100	3.327600	-9.972600	26.741830	0.000588	20.795105
1651.445005	-2.991900	3.329300	-9.960500	26.686798	0.000587	20.796676
1652.447667	-3.009400	3.327500	-10.013000	26.636476	0.000588	20.789235
1653.447017	-2.998200	3.328000	-9.976600	26.591396	0.000586	20.793230
1654.446444	-2.988700	3.327100	-9.942400	26.582902	0.000585	20.807451
1655.445746	-2.985600	3.328700	-9.935700	26.569371	0.000584	20.797642
1656.448122	-2.990300	3.328700	-9.952800	26.563587	0.000584	20.799415
1657.453076	-3.013600	3.324100	-10.016000	26.605789	0.000584	20.788258
1658.447136	-3.020900	3.325000	-10.043000	26.580741	0.000582	20.793899
1659.454165	-2.996500	3.326500	-9.966900	26.614603	0.000581	20.790955
1660.452489	-3.000200	3.324800	-9.974400	26.622498	0.000581	20.783244
1661.446490	-3.016800	3.324400	-10.026000	26.646701	0.000580	20.791928
1662.451056	-3.009000	3.322700	-9.996400	26.622301	0.000579	20.767399
1663.452766	-3.000900	3.324000	-9.974000	26.637173	0.000580	20.781401
1664.447820	-3.027000	3.321900	-10.055000	26.623593	0.000578	20.783871
1665.452762	-2.980600	3.322700	-9.902800	26.586133	0.000577	20.795052
1666.453261	-2.992600	3.323500	-9.944300	26.602273	0.000578	20.794207
1667.448902	-2.996100	3.322600	-9.954600	26.560194	0.000575	20.801220
1668.453238	-2.979100	3.322900	-9.897900	26.573574	0.000575	20.790962
1669.452494	-2.992000	3.321800	-9.936500	26.608309	0.000575	20.756652
1670.456112	-3.005000	3.321200	-9.979600	26.657764	0.000573	20.786454
1671.450833	-2.999300	3.322000	-9.962600	26.666725	0.000574	20.792144
1672.453870	-3.023500	3.319500	-10.036000	26.639098	0.000572	20.771483
1673.453360	-2.984600	3.322000	-9.913500	26.670079	0.000573	20.757583
1674.452241	-2.956300	3.321400	-9.818400	26.689941	0.000573	20.785138
1675.456392	-2.993500	3.320000	-9.937400	26.709528	0.000571	20.783492
1676.449014	-2.987100	3.319300	-9.913700	26.715139	0.000573	20.769692
1677.453030	-2.990900	3.318600	-9.924500	26.709257	0.000572	20.769469
1678.457158	-3.003400	3.317300	-9.962400	26.708691	0.000571	20.769848
1679.452640	-2.998200	3.317200	-9.942700	26.668999	0.000570	20.789214
1680.457821	-2.988700	3.318300	-9.916700	26.654656	0.000569	20.778588
1681.458496	-3.012000	3.316100	-9.987400	26.631721	0.000570	20.775920
1682.457127	-3.010200	3.315200	-9.977100	26.655156	0.000567	20.768185
1683.457888	-3.024800	3.316600	-10.031000	26.695989	0.000568	20.768932
1684.459017	-2.983800	3.316800	-9.896200	26.693884	0.000566	20.756858
1685.454554	-2.988500	3.314300	-9.903600	26.715931	0.000567	20.757212
1686.456800	-3.002900	3.314200	-9.951200	26.690787	0.000567	20.768918
1687.455917	-2.990700	3.314100	-9.910200	26.681850	0.000564	20.773684
1688.455748	-3.000200	3.313400	-9.940300	26.655466	0.000563	20.781299
1689.458421	-3.011900	3.313600	-9.978200	26.691385	0.000565	20.744863
1690.458158	-3.012200	3.312800	-9.977500	26.707872	0.000565	20.777085
1691.455668	-3.014800	3.311600	-9.982300	26.708269	0.000562	20.787917
1692.457427	-3.003000	3.312600	-9.946000	26.735623	0.000563	20.768950
1693.455073	-2.994600	3.312700	-9.919300	26.691590	0.000562	20.757397
1694.455645	-2.989600	3.312900	-9.902900	26.661134	0.000563	20.757599
1695.457742	-2.982300	3.312800	-9.879000	26.676399	0.000562	20.731218
1696.456059	-3.005200	3.311900	-9.952200	26.707953	0.000561	20.747768
1697.455531	-2.979500	3.311800	-9.864500	26.717611	0.000561	20.750840
1698.456805	-3.012700	3.309800	-9.971000	26.739974	0.000560	20.760996
1699.458137	-2.971700	3.311200	-9.839700	26.759314	0.000560	20.760051
1700.457741	-3.013800	3.308200	-9.969900	26.728507	0.000559	20.752786
1701.462126	-2.976700	3.309800	-9.851300	26.729947	0.000558	20.762294
1702.459582	-2.985800	3.309200	-9.879600	26.729697	0.000557	20.753982
1703.460966	-2.975400	3.310800	-9.850100	26.778325	0.000558	20.774425
1704.465472	-3.016100	3.308200	-9.976700	26.793293	0.000557	20.754386
1705.464271	-2.975800	3.309500	-9.847600	26.794064	0.000556	20.776972
1706.460726	-2.982100	3.307400	-9.861900	26.754794	0.000556	20.757404
1707.467196	-2.993500	3.306600	-9.897300	26.698749	0.000555	20.761750
1708.466137	-2.971900	3.308800	-9.832800	26.669557	0.000556	20.744255
1709.472823	-3.022400	3.305300	-9.989100	26.672239	0.000557	20.765444
1710.466601	-2.982800	3.306700	-9.862700	26.690805	0.000556	20.721045
1711.466508	-3.003600	3.305000	-9.926500	26.685843	0.000554	20.761576
1712.464593	-2.996200	3.304700	-9.901100	26.685223	0.000553	20.740564
1713.466341	-3.005200	3.304400	-9.929600	26.710417	0.000553	20.743133
1714.466171	-3.001100	3.305600	-9.919200	26.743659	0.000552	20.741467
1715.465926	-2.983000	3.303100	-9.852500	26.758304	0.000552	20.728689
1716.468320	-3.009200	3.304900	-9.944700	26.757135	0.000550	20.720401
1717.466411	-2.990500	3.304200	-9.880000	26.692847	0.000551	20.754393
1718.468637	-2.974000	3.303600	-9.823200	26.670581	0.000550	20.748130
1719.470349	-2.997800	3.303000	-9.901200	26.688951	0.000548	20.738148
1720.468198	-3.017600	3.300700	-9.958600	26.731992	0.000549	20.762454
1721.470386	-2.980600	3.302400	-9.842500	26.760936	0.000547	20.742716
1722.469926	-3.001900	3.301400	-9.909200	26.804077	0.000546	20.755271
1723.469458	-3.007900	3.301500	-9.929300	26.839023	0.000546	20.750579
1724.470612	-3.013300	3.300700	-9.945600	26.858804	0.000545	20.743916
1725.471641	-3.011400	3.299400	-9.933900	26.912315	0.000545	20.752203
1726.471507	-2.996700	3.300700	-9.890100	26.906308	0.000545	20.746637
1727.471824	-2.991200	3.301100	-9.873300	26.905393	0.000544	20.742872
1728.472594	-3.000300	3.298300	-9.894800	26.885514	0.000543	20.758445
1729.472313	-3.007700	3.299900	-9.923600	26.878269	0.000542	20.742624
1730.472274	-3.001800	3.298100	-9.899600	26.861046	0.000542	20.767982
1731.473911	-3.019900	3.298600	-9.961200	26.876956	0.000541	20.736089
1732.472217	-2.998900	3.296900	-9.885800	26.901702	0.000541	20.752911
1733.471645	-3.008600	3.296800	-9.917900	26.861550	0.000540	20.751418
1734.473738	-3.001500	3.296300	-9.892400	26.838091	0.000540	20.748693
1735.474582	-2.973300	3.297700	-9.803400	26.827224	0.000539	20.762897
1736.472209	-2.983900	3.297200	-9.837800	26.826084	0.000539	20.760803
1737.478181	-2.990900	3.297600	-9.862200	26.853185	0.000538	20.721195
1738.473353	-2.990400	3.296500	-9.857100	26.845299	0.000539	20.729387
1739.474920	-3.005300	3.294400	-9.897600	26.938715	0.000537	20.756939
1740.477091	-3.003500	3.295700	-9.896800	26.956653	0.000537	20.741786
1741.474717	-3.008900	3.294300	-9.911400	26.956210	0.000534	20.738970
1742.485244	-2.993000	3.294500	-9.859900	26.949757	0.000537	20.738644
1743.477357	-3.008400	3.294100	-9.908800	26.906453	0.000535	20.762431
1744.476336	-2.992700	3.294400	-9.858100	26.896625	0.000536	20.744961
1745.476276	-3.045600	3.290600	-10.020000	26.910841	0.000535	20.756885
1746.477854	-3.007900	3.292300	-9.900800	26.944102	0.000534	20.754770
1747.476581	-3.009200	3.292300	-9.906300	26.965268	0.000534	20.756139
1748.477691	-3.015300	3.290900	-9.922900	26.994874	0.000534	20.765997
1749.480345	-3.000100	3.290700	-9.870400	27.011721	0.000532	20.759706
1750.476869	-2.996800	3.291300	-9.861400	27.019093	0.000533	20.737246
1751.476465	-3.015200	3.290700	-9.921000	27.000205	0.000531	20.751917
1752.476980	-2.989700	3.289700	-9.833500	26.986777	0.000532	20.745052
1753.475792	-2.992900	3.289000	-9.842800	26.983751	0.000531	20.760976
1754.476570	-3.005000	3.288600	-9.880900	26.991169	0.000529	20.750891
1755.478405	-2.990200	3.289000	-9.832300	26.959602	0.000530	20.764666
1756.478745	-2.968100	3.289700	-9.762100	26.993969	0.000530	20.750388
1757.477946	-2.990700	3.288900	-9.835000	27.004740	0.000528	20.734666
1758.481038	-3.020900	3.286900	-9.928600	26.995187	0.000527	20.766312
1759.478860	-2.993600	3.288000	-9.842000	26.967930	0.000527	20.742221
1760.478745	-3.010000	3.287400	-9.893800	26.964109	0.000527	20.742171
1761.478754	-3.016200	3.286500	-9.911500	26.967811	0.000525	20.748739
1762.477907	-2.987900	3.287300	-9.821500	26.962399	0.000524	20.754677
1763.481055	-2.988800	3.285000	-9.816400	26.992945	0.000524	20.748884
1764.478848	-3.015500	3.286400	-9.909400	27.027663	0.000523	20.745866
1765.478891	-2.975200	3.285300	-9.773200	27.017266	0.000523	20.762437
1766.479346	-3.015700	3.285500	-9.907300	27.048159	0.000523	20.756994
1767.478273	-3.007100	3.283600	-9.873800	27.061311	0.000522	20.754574
1768.479154	-3.012100	3.284000	-9.890300	27.072749	0.000520	20.765604
1769.479210	-2.991300	3.283900	-9.822400	27.092428	0.000521	20.771644
1770.482019	-3.005300	3.285000	-9.871300	27.119026	0.000519	20.758091
1771.478327	-3.022600	3.281100	-9.915800	27.140417	0.000516	20.758268
1772.479529	-3.019200	3.281900	-9.907800	27.128209	0.000518	20.752628
1773.477354	-3.010300	3.280900	-9.875300	27.163440	0.000518	20.766725
1774.478196	-3.006100	3.282400	-9.865500	27.186589	0.000517	20.763456
1775.485859	-2.966600	3.283500	-9.739600	27.191897	0.000515	20.757889
1776.481105	-2.985200	3.281400	-9.795000	27.204654	0.000516	20.758392
1777.484389	-2.990600	3.279900	-9.808200	27.212763	0.000513	20.757065
1778.481928	-3.014700	3.280600	-9.888300	27.231795	0.000514	20.775260
1779.481396	-3.006400	3.281200	-9.863400	27.262410	0.000514	20.760536
1780.484317	-2.977300	3.281200	-9.767700	27.294538	0.000512	20.786690
1781.481445	-3.025900	3.279000	-9.921400	27.298334	0.000512	20.776757
1782.482517	-2.994800	3.281000	-9.825200	27.310839	0.000514	20.761361
1783.484938	-3.005200	3.278000	-9.850300	27.308560	0.000511	20.753378
1784.481793	-3.009500	3.276600	-9.859600	27.295066	0.000511	20.786747
1785.482557	-3.001500	3.277500	-9.836500	27.256434	0.000509	20.759266
1786.487328	-2.996700	3.277800	-9.821500	27.260205	0.000509	20.754050
1787.483773	-3.005300	3.276900	-9.847700	27.208675	0.000509	20.754376
1788.483936	-3.019000	3.276500	-9.890800	27.153568	0.000510	20.768176
1789.489141	-2.992200	3.276700	-9.803400	27.140765	0.000508	20.773318
1790.486301	-3.000500	3.277600	-9.832500	27.104615	0.000507	20.772048
1791.486681	-2.982900	3.275000	-9.767500	27.101041	0.000506	20.771297
1792.489437	-3.009600	3.275700	-9.857400	27.135903	0.000507	20.758470
1793.484183	-3.025300	3.275600	-9.909200	27.114319	0.000507	20.783229
1794.488778	-2.988400	3.274100	-9.784400	27.123227	0.000507	20.781283
1795.491989	-2.982700	3.274700	-9.764600	27.127593	0.000505	20.770027
1796.490306	-3.006900	3.275100	-9.846400	27.137244	0.000501	20.774043
1797.491543	-2.994000	3.273500	-9.799600	27.146623	0.000500	20.752182
1798.495507	-2.991400	3.274600	-9.794400	27.144762	0.000504	20.773070
1799.491414	-2.981100	3.273000	-9.755800	27.116303	0.000502	20.766733
1800.490926	-3.010100	3.272300	-9.848800	27.113105	0.000501	20.768732
1801.492313	-2.987000	3.271900	-9.771900	27.100147	0.000500	20.758544
1802.491657	-3.013700	3.269900	-9.853800	27.082752	0.000498	20.763810
1803.492484	-3.000300	3.270700	-9.812300	27.082481	0.000498	20.767805
1804.493430	-3.002800	3.269600	-9.817200	27.089480	0.000499	20.759670
1805.490899	-2.986200	3.270000	-9.764100	27.066828	0.000497	20.778141
1806.494150	-3.003200	3.269700	-9.819000	27.063176	0.000495	20.783003
1807.492313	-2.999900	3.268600	-9.804000	27.068485	0.000498	20.776963
1808.494356	-3.016300	3.268800	-9.858900	27.067518	0.000497	20.790688
1809.493588	-3.005200	3.267700	-9.819500	27.049925	0.000495	20.798126
1810.493446	-3.016800	3.270200	-9.864500	27.087991	0.000497	20.807011
1811.493819	-3.017500	3.267500	-9.858300	27.086647	0.000496	20.775313
1812.494407	-3.007300	3.267500	-9.824700	27.063992	0.000493	20.798997
1813.494378	-3.007800	3.267500	-9.826600	27.015257	0.000493	20.795504
1814.495270	-3.001000	3.268500	-9.807300	27.035777	0.000494	20.779630
1815.495017	-3.022100	3.265300	-9.866800	27.055534	0.000494	20.782904
1816.495644	-3.002300	3.266600	-9.805700	27.065206	0.000491	20.790260
1817.494996	-3.000700	3.266100	-9.799800	27.075332	0.000491	20.771046
1818.493811	-2.992300	3.264300	-9.766400	27.075328	0.000490	20.798069
1819.494304	-3.017300	3.265100	-9.850100	27.116943	0.000490	20.774015
1820.493896	-3.004100	3.264600	-9.806000	27.096942	0.000488	20.785667
1821.494525	-2.987900	3.263700	-9.750900	27.066916	0.000489	20.796247
1822.498371	-3.005000	3.263400	-9.804900	27.036196	0.000487	20.784319
1823.496601	-2.990800	3.264200	-9.760000	27.049717	0.000487	20.790805
1824.496324	-2.985100	3.263400	-9.741000	27.054801	0.000487	20.783115
1825.500194	-3.008400	3.261400	-9.809900	27.099324	0.000485	20.796597
1826.497669	-3.012500	3.262900	-9.828100	27.132219	0.000486	20.801707
1827.499358	-3.008500	3.259700	-9.805700	27.172242	0.000484	20.814459
1828.503835	-2.991000	3.261500	-9.753500	27.197920	0.000484	20.789552
1829.499360	-2.998300	3.261900	-9.779000	27.253865	0.000483	20.796986
1830.501891	-2.958400	3.262200	-9.650100	27.293711	0.000481	20.792970
1831.503219	-2.999400	3.260300	-9.776800	27.320656	0.000483	20.808695
1832.501028	-2.990600	3.259100	-9.745500	27.317947	0.000481	20.814505
1833.500488	-3.000500	3.259600	-9.779700	27.286464	0.000482	20.809388
1834.503334	-2.984400	3.259200	-9.726600	27.295966	0.000478	20.809463
1835.501441	-2.987000	3.259400	-9.735000	27.282693	0.000477	20.787577
1836.501746	-3.001100	3.258500	-9.778600	27.277086	0.000480	20.802326
1837.505492	-3.004200	3.256300	-9.780500	27.257784	0.000477	20.803299
1838.502126	-2.987700	3.257400	-9.731800	27.231661	0.000477	20.804997
1839.508986	-2.982900	3.258000	-9.717300	27.227217	0.000477	20.793416
1840.504750	-3.014600	3.256100	-9.814100	27.262769	0.000477	20.804519
1841.503275	-3.014900	3.254700	-9.811700	27.279267	0.000476	20.813054
1842.501882	-3.013200	3.255200	-9.807700	27.273287	0.000475	20.787124
1843.507999	-3.015800	3.254300	-9.813000	27.238654	0.000474	20.804919
1844.503148	-3.006500	3.255400	-9.786600	27.273681	0.000473	20.804590
1845.504639	-2.989100	3.255400	-9.728800	27.277800	0.000471	20.802570
1846.505198	-3.005000	3.255100	-9.780000	27.295962	0.000471	20.813252
1847.506002	-3.006300	3.254400	-9.781700	27.280157	0.000472	20.809208
1848.504089	-3.008700	3.253000	-9.785700	27.268541	0.000469	20.807955
1849.507133	-2.997700	3.253500	-9.751300	27.252141	0.000469	20.799045
1850.503311	-2.997300	3.253100	-9.748900	27.240782	0.000468	20.820336
1851.504819	-2.971900	3.252900	-9.667000	27.257671	0.000467	20.807452
1852.509341	-2.989800	3.251100	-9.719000	27.269730	0.000466	20.812470
1853.507825	-3.022000	3.251700	-9.824400	27.303985	0.000467	20.820374
1854.505929	-2.986000	3.252200	-9.709800	27.291955	0.000467	20.825342
1855.506771	-2.998000	3.250100	-9.742400	27.282626	0.000466	20.824493
1856.506489	-2.991800	3.250800	-9.724200	27.279105	0.000466	20.836598
1857.508620	-2.983000	3.251300	-9.697600	27.219456	0.000465	20.814532
1858.510632	-2.987900	3.249900	-9.709500	27.141000	0.000462	20.829977
1859.506204	-2.987800	3.248500	-9.704800	27.105842	0.000463	20.801730
1860.506489	-2.992800	3.248300	-9.720300	27.084549	0.000462	20.814454
1861.509473	-3.003300	3.247600	-9.752300	27.103059	0.000461	20.804621
1862.506312	-2.980200	3.250100	-9.683400	27.113427	0.000462	20.812204
1863.509017	-3.006200	3.246800	-9.760000	27.124963	0.000461	20.843720
1864.509589	-2.996600	3.248300	-9.732800	27.155807	0.000460	20.827801
1865.506658	-2.978700	3.248400	-9.674700	27.208086	0.000459	20.832493
1866.507597	-2.997300	3.245800	-9.726100	27.254304	0.000459	20.830143
1867.507393	-2.999200	3.246400	-9.735000	27.246958	0.000457	20.834135
1868.506820	-2.989200	3.245500	-9.700200	27.192371	0.000459	20.827592
1869.511658	-2.986100	3.244300	-9.687000	27.173215	0.000456	20.816860
1870.508004	-3.010500	3.243400	-9.762600	27.179913	0.000456	20.828813
1871.506624	-2.991300	3.245100	-9.705900	27.236183	0.000456	20.832305
1872.509725	-2.976800	3.243600	-9.654700	27.277563	0.000455	20.823668
1873.509966	-2.990400	3.244300	-9.701200	27.315695	0.000454	20.838317
1874.508131	-2.986500	3.243700	-9.685400	27.336656	0.000452	20.819100
1875.510517	-2.990600	3.242600	-9.696000	27.338837	0.000453	20.835992
1876.510589	-3.021100	3.241000	-9.790200	27.322811	0.000452	20.832199
1877.511049	-3.011700	3.240200	-9.757200	27.340198	0.000450	20.833568
1878.511673	-2.999600	3.241100	-9.719700	27.361950	0.000450	20.851656
1879.513210	-2.992400	3.242000	-9.700700	27.371950	0.000451	20.812879
1880.513006	-3.001100	3.241800	-9.727500	27.419653	0.000448	20.846642
1881.511763	-3.003900	3.238800	-9.728000	27.406927	0.000448	20.846642
1882.512998	-3.041100	3.237500	-9.843900	27.377406	0.000448	20.853927
1883.513216	-3.000400	3.240400	-9.721800	27.348700	0.000448	20.834534
1884.513136	-3.014200	3.237300	-9.756800	27.335977	0.000448	20.842124
1885.512892	-2.995700	3.237700	-9.698000	27.368767	0.000447	20.844763
1886.512102	-2.985300	3.237300	-9.663500	27.390079	0.000446	20.848659
1887.513184	-3.002600	3.238100	-9.720900	27.398739	0.000446	20.854999
1888.513471	-3.014900	3.236300	-9.756200	27.447653	0.000446	20.853000
1889.513195	-3.018100	3.236700	-9.768300	27.486074	0.000445	20.835705
1890.510282	-3.003400	3.235300	-9.715900	27.526576	0.000442	20.859383
1891.511733	-3.007400	3.236900	-9.733700	27.511323	0.000443	20.858262
1892.512475	-3.006300	3.235000	-9.724500	27.518269	0.000442	20.865724
1893.514317	-2.988700	3.235700	-9.670000	27.520896	0.000442	20.853669
1894.513084	-3.025800	3.235600	-9.789500	27.520199	0.000442	20.845856
1895.512907	-3.008800	3.233600	-9.728500	27.472994	0.000441	20.860951
1896.513345	-3.001100	3.234300	-9.705300	27.455827	0.000439	20.864068
1897.516633	-3.014300	3.232100	-9.741800	27.457072	0.000442	20.852045
1898.514574	-3.000000	3.232700	-9.696000	27.481969	0.000438	20.857653
1899.514700	-3.005600	3.231100	-9.711100	27.465474	0.000437	20.874721
1900.513959	-3.012000	3.231400	-9.731100	27.466216	0.000436	20.848917
1901.513807	-2.987900	3.232300	-9.656300	27.502776	0.000436	20.853456
1902.514588	-2.998700	3.231500	-9.688800	27.501629	0.000435	20.863682
1903.525985	-3.007600	3.231200	-9.716400	27.464050	0.000433	20.867599
1904.516670	-3.029800	3.230100	-9.786100	27.424485	0.000435	20.858615
1905.516165	-2.991500	3.230800	-9.664500	27.400469	0.000433	20.838723
1906.520253	-2.992100	3.231200	-9.667300	27.395755	0.000432	20.863852
1907.518201	-2.991400	3.231000	-9.664400	27.376329	0.000432	20.843836
1908.518000	-3.007400	3.228600	-9.709000	27.400887	0.000431	20.856212
1909.519710	-3.012000	3.229400	-9.726100	27.428617	0.000429	20.861824
1910.516749	-2.998400	3.228000	-9.678200	27.452749	0.000430	20.883255
1911.517529	-2.997100	3.228000	-9.672500	27.451113	0.000427	20.861697
1912.517560	-3.000000	3.227200	-9.680900	27.450315	0.000429	20.863738
1913.521813	-3.002300	3.227400	-9.688700	27.390606	0.000425	20.863413
1914.519835	-2.995500	3.227200	-9.665900	27.390451	0.000426	20.883644
1915.520270	-3.008500	3.226900	-9.706700	27.431508	0.000425	20.877534
1916.519345	-2.985800	3.228000	-9.636700	27.460430	0.000425	20.873440
1917.518149	-3.017600	3.224400	-9.729000	27.475406	0.000424	20.873808
1918.519240	-3.001400	3.224300	-9.676200	27.522284	0.000421	20.875927
1919.520617	-3.002600	3.224800	-9.681100	27.550905	0.000422	20.880067
1920.526201	-2.985100	3.224100	-9.623600	27.591031	0.000422	20.865440
1921.517617	-3.010200	3.223300	-9.701600	27.580442	0.000421	20.859528
1922.521198	-3.014300	3.223300	-9.714900	27.657671	0.000421	20.858052
1923.520047	-3.028800	3.221800	-9.757900	27.662003	0.000419	20.888014
1924.522064	-2.972600	3.222900	-9.579500	27.684821	0.000419	20.881104
1925.521003	-2.989500	3.222100	-9.631600	27.717776	0.000419	20.880601
1926.523273	-2.978600	3.223000	-9.599000	27.687269	0.000419	20.881670
1927.522530	-3.008300	3.220300	-9.686800	27.696893	0.000419	20.878079
1928.522870	-2.979400	3.221100	-9.596300	27.665984	0.000417	20.890597
1929.522608	-2.998100	3.220100	-9.653300	27.617892	0.000417	20.879664
1930.523213	-3.022500	3.219700	-9.730500	27.607352	0.000415	20.883284
1931.521175	-2.991400	3.221000	-9.633700	27.614892	0.000414	20.879965
1932.524893	-3.008700	3.219800	-9.685800	27.625354	0.000413	20.902344
1933.522338	-3.027000	3.217100	-9.736900	27.560717	0.000411	20.897999
1934.526120	-2.998300	3.218600	-9.649400	27.485166	0.000409	20.894531
1935.523968	-2.987400	3.220400	-9.620400	27.479754	0.000410	20.899991
1936.523515	-2.996300	3.218600	-9.642800	27.463030	0.000409	20.896916
1937.522246	-2.965600	3.216600	-9.538000	27.471365	0.000408	20.899612
1938.522165	-2.976000	3.218200	-9.576400	27.469079	0.000406	20.919596
1939.523061	-3.023700	3.215600	-9.721900	27.494008	0.000406	20.892996
1940.521845	-2.998300	3.216900	-9.644200	27.526326	0.000404	20.895639
1941.523560	-3.008100	3.216800	-9.675000	27.584216	0.000405	20.890350
1942.524066	-3.016900	3.215600	-9.699500	27.612392	0.000405	20.918223
1943.522962	-2.975500	3.215300	-9.566700	27.646169	0.000403	20.901477
1944.524627	-2.991000	3.214400	-9.612600	27.645694	0.000403	20.881561
1945.523816	-2.986100	3.212500	-9.591900	27.689664	0.000404	20.897829
1946.524481	-2.960400	3.214800	-9.516100	27.638376	0.000401	20.896481
1947.525291	-3.003700	3.213000	-9.648700	27.641203	0.000400	20.924928
1948.523002	-2.988800	3.213500	-9.603100	27.641974	0.000400	20.897730
1949.524939	-3.000100	3.212700	-9.637000	27.665334	0.000400	20.909381
1950.525177	-2.979200	3.213200	-9.571000	27.648447	0.000399	20.898081
1951.523561	-2.985200	3.211600	-9.585900	27.594028	0.000397	20.910178
1952.523486	-3.002700	3.210800	-9.640100	27.572449	0.000394	20.909803
1953.525329	-2.981400	3.210700	-9.571000	27.607472	0.000395	20.890042
1954.523490	-2.995300	3.209900	-9.613700	27.651641	0.000394	20.916465
1955.522505	-2.991400	3.209500	-9.599900	27.637828	0.000393	20.916316
1956.524747	-3.003400	3.210100	-9.639200	27.627288	0.000392	20.915669
1957.525634	-3.004100	3.208700	-9.637700	27.580141	0.000390	20.909006
1958.524883	-2.989900	3.209000	-9.593400	27.594105	0.000393	20.927797
1959.525697	-3.021100	3.206900	-9.686700	27.590902	0.000390	20.920781
1960.526330	-3.015900	3.207000	-9.671300	27.634353	0.000389	20.933207
1961.526464	-2.994200	3.207400	-9.602100	27.641720	0.000388	20.924974
1962.526577	-3.020800	3.206300	-9.683700	27.654992	0.000388	20.908458
1963.526139	-2.985200	3.206600	-9.571100	27.705259	0.000385	20.938174
1964.525955	-3.007000	3.204700	-9.634300	27.722647	0.000385	20.907312
1965.526926	-2.998000	3.204900	-9.607700	27.678925	0.000384	20.926849
1966.528123	-2.985100	3.205400	-9.567700	27.644080	0.000383	20.916443
1967.526542	-2.993800	3.205300	-9.595600	27.625309	0.000383	20.900402
1968.525443	-3.009200	3.203200	-9.638100	27.633636	0.000382	20.924900
1969.526898	-2.985400	3.204200	-9.565000	27.637360	0.000380	20.918216
1970.526495	-3.010000	3.202300	-9.638400	27.669430	0.000382	20.924408
1971.525324	-3.016000	3.201800	-9.655000	27.708961	0.000381	20.905394
1972.527842	-2.985400	3.202000	-9.558300	27.730291	0.000380	20.928278
1973.525812	-3.013400	3.201800	-9.647700	27.754444	0.000380	20.923661
1974.525186	-3.006900	3.201100	-9.624400	27.808553	0.000377	20.928328
1975.529639	-2.989800	3.200200	-9.566700	27.832651	0.000379	20.929347
1976.527620	-3.016500	3.199100	-9.649100	27.821228	0.000376	20.905999
1977.527599	-3.007400	3.200300	-9.623400	27.853978	0.000378	20.918570
1978.527954	-2.984600	3.200800	-9.551300	27.851426	0.000376	20.905571
1979.528314	-3.021300	3.198900	-9.664000	27.832584	0.000376	20.914582
1980.527997	-3.021400	3.200200	-9.668100	27.834346	0.000377	20.923466
1981.528829	-2.994200	3.198500	-9.575200	27.876697	0.000375	20.909194
1982.528462	-3.028700	3.197500	-9.682800	27.887656	0.000373	20.910266
1983.528810	-2.995200	3.196200	-9.571600	27.904243	0.000372	20.904201
1984.532526	-2.999200	3.197900	-9.589900	27.903550	0.000374	20.904453
1985.530434	-3.001300	3.196700	-9.593400	27.900850	0.000372	20.911217
1986.531820	-2.984000	3.195400	-9.534200	27.867198	0.000372	20.912435
1987.531990	-3.003300	3.195800	-9.596800	27.818724	0.000370	20.912014
1988.533816	-2.993800	3.195600	-9.565900	27.824111	0.000369	20.897995
1989.532793	-2.990400	3.195600	-9.554800	27.844366	0.000369	20.904629
1990.532468	-2.997200	3.194300	-9.572800	27.870278	0.000367	20.902259
1991.535404	-2.996300	3.194500	-9.571200	27.862216	0.000366	20.910266
1992.532965	-2.997600	3.193600	-9.572200	27.873129	0.000365	20.897068
1993.535029	-2.981700	3.193200	-9.521100	27.828643	0.000365	20.886910
1994.533256	-2.974400	3.193000	-9.496300	27.813820	0.000365	20.894277
1995.533412	-2.991200	3.192300	-9.546800	27.841789	0.000363	20.888287
1996.533811	-2.997500	3.191600	-9.565400	27.832834	0.000364	20.887335
1997.534851	-2.998800	3.192000	-9.571200	27.863633	0.000364	20.899365
1998.534647	-2.986300	3.190100	-9.525200	27.867377	0.000363	20.887961
1999.535273	-3.021500	3.190500	-9.639300	27.886591	0.000362	20.884066
2000.534065	-2.996700	3.189800	-9.558200	27.908089	0.000360	20.889582
2001.535080	-2.998700	3.188800	-9.561300	27.904763	0.000359	20.894295
2002.535214	-3.022400	3.187100	-9.631700	27.910589	0.000359	20.875029
2003.537441	-3.003700	3.188900	-9.577700	27.882871	0.000358	20.877952
2004.538311	-2.995000	3.188600	-9.548100	27.855645	0.000358	20.894171
2005.534818	-2.989900	3.188400	-9.531800	27.898987	0.000357	20.881370
2006.536637	-2.989900	3.188400	-9.532400	27.943168	0.000357	20.875578
2007.536422	-3.020800	3.186200	-9.624500	27.981473	0.000353	20.863399
2008.540774	-3.009200	3.186200	-9.587400	27.997186	0.000355	20.878267
2009.538789	-3.006600	3.184200	-9.573100	28.026617	0.000353	20.876123
2010.537124	-2.998100	3.184500	-9.546000	28.016254	0.000354	20.884657
2011.537093	-3.001100	3.184200	-9.554800	27.970434	0.000353	20.884055
2012.537900	-2.992300	3.184300	-9.527700	27.899321	0.000351	20.876965
2013.539079	-3.008700	3.184100	-9.579000	27.868724	0.000350	20.875567
2014.537062	-3.020200	3.181600	-9.608400	27.850892	0.000350	20.865681
2015.539283	-2.978600	3.185100	-9.486900	27.799686	0.000349	20.863934
2016.538221	-3.007700	3.183700	-9.574200	27.773846	0.000349	20.878706
2017.539050	-3.002700	3.182000	-9.553800	27.709145	0.000350	20.869071
2018.539865	-2.975100	3.184500	-9.473300	27.669040	0.000349	20.861432
2019.538743	-3.012400	3.179400	-9.576800	27.629951	0.000348	20.860979
2020.539231	-3.024900	3.178100	-9.610600	27.637093	0.000345	20.873381
2021.537121	-2.983300	3.178900	-9.482000	27.619781	0.000346	20.859281
2022.538447	-2.997500	3.180200	-9.531800	27.645002	0.000345	20.867589
2023.538960	-3.005500	3.178300	-9.550800	27.691127	0.000342	20.878915
2024.540542	-3.010800	3.178000	-9.567500	27.764357	0.000342	20.863467
2025.543030	-3.022700	3.176500	-9.600400	27.821313	0.000342	20.881431
2026.541654	-2.984500	3.176400	-9.478300	27.806982	0.000339	20.870802
2027.542862	-2.989900	3.176200	-9.495100	27.835250	0.000337	20.891189
2028.542550	-2.993300	3.174300	-9.498800	27.897406	0.000337	20.865555
2029.545274	-2.984100	3.176100	-9.476400	27.875560	0.000338	20.863956
2030.544049	-3.011800	3.174200	-9.559400	27.890684	0.000336	20.887711
2031.549046	-3.016900	3.173800	-9.574200	27.905535	0.000338	20.866624
2032.547837	-3.019100	3.172700	-9.578100	27.922962	0.000336	20.865672
2033.543482	-3.017700	3.173100	-9.574100	27.894597	0.000335	20.884538
2034.545303	-3.000400	3.172600	-9.518300	27.911055	0.000334	20.866964
2035.548501	-2.990200	3.173600	-9.488000	27.901137	0.000333	20.866465
2036.548721	-3.014700	3.172500	-9.563300	27.881024	0.000333	20.868032
2037.545072	-2.985300	3.173500	-9.472900	27.856600	0.000332	20.847719
2038.549355	-2.989400	3.171800	-9.480300	27.823617	0.000333	20.868103
2039.549537	-2.991200	3.171100	-9.483600	27.844220	0.000332	20.872717
2040.547576	-2.999600	3.171500	-9.512500	27.822225	0.000329	20.862909
2041.553164	-2.994700	3.169100	-9.489600	27.795736	0.000329	20.881294
2042.548808	-3.023200	3.168700	-9.578600	27.780061	0.000327	20.871685
2043.546802	-3.011200	3.170700	-9.547000	27.795609	0.000325	20.869314
2044.548666	-3.011600	3.167700	-9.538600	27.828885	0.000326	20.858232
2045.551197	-3.006000	3.167800	-9.520300	27.860693	0.000328	20.858477
2046.546901	-2.990300	3.167100	-9.469300	27.884273	0.000324	20.865613
2047.550389	-2.994800	3.166400	-9.481200	27.884344	0.000322	20.862365
2048.555021	-2.982600	3.165600	-9.440300	27.893741	0.000322	20.868978
2049.548821	-3.021700	3.165000	-9.562500	27.903853	0.000323	20.861138
2050.552050	-2.983200	3.167100	-9.446300	27.912083	0.000322	20.856146
2051.553829	-3.003500	3.164600	-9.503900	27.931001	0.000321	20.848634
2052.548597	-3.031900	3.163200	-9.589500	27.928867	0.000318	20.884890
2053.553115	-2.993500	3.162600	-9.466300	27.940345	0.000319	20.879848
2054.554701	-3.014300	3.162700	-9.532200	27.925861	0.000318	20.863375
2055.548987	-2.988400	3.163000	-9.450800	27.933427	0.000317	20.853920
2056.552656	-3.008400	3.163000	-9.514600	27.893007	0.000316	20.860180
2057.551149	-3.028900	3.161200	-9.572700	27.841955	0.000315	20.860954
2058.548169	-3.016700	3.160100	-9.531800	27.781350	0.000313	20.853542
2059.551085	-2.991700	3.160900	-9.454400	27.764391	0.000314	20.845959
2060.548451	-3.031300	3.159500	-9.576100	27.785864	0.000312	20.841016
2061.550901	-3.009500	3.159300	-9.507000	27.810860	0.000314	20.873756
2062.549918	-3.000000	3.158300	-9.473900	27.860033	0.000311	20.868243
2063.549828	-3.018700	3.158600	-9.534000	27.875256	0.000309	20.828565
2064.550430	-3.014000	3.156900	-9.513900	27.852914	0.000309	20.855863
2065.553837	-3.025800	3.155300	-9.545700	27.833872	0.000310	20.846656
2066.551999	-2.996100	3.156900	-9.457400	27.773491	0.000308	20.863651
2067.553061	-2.999700	3.154500	-9.461500	27.765137	0.000311	20.854295
2068.559226	-3.003100	3.155500	-9.475300	27.780091	0.000307	20.848008
2069.552075	-2.967300	3.154800	-9.358900	27.773990	0.000309	20.834282
2070.553916	-2.982600	3.154700	-9.408300	27.830925	0.000305	20.848906
2071.555002	-2.963900	3.156300	-9.354000	27.840671	0.000307	20.842120
2072.554693	-2.981800	3.154300	-9.403400	27.877622	0.000306	20.848488
2073.556089	-2.974900	3.154100	-9.382500	27.920018	0.000306	20.854649
2074.555067	-2.999900	3.153800	-9.459600	27.963385	0.000302	20.851358
2075.557861	-3.013400	3.151600	-9.494500	27.996982	0.000302	20.835864
2076.556157	-2.980300	3.151100	-9.390500	27.977521	0.000302	20.855154
2077.553731	-2.990800	3.150400	-9.421600	27.920418	0.000303	20.843199
2078.556488	-3.015700	3.148900	-9.495000	27.900660	0.000300	20.842278
2079.566722	-3.011100	3.149100	-9.481500	27.859744	0.000300	20.848039
2080.556938	-2.982600	3.148700	-9.389700	27.832844	0.000299	20.838036
2081.565501	-2.995500	3.148400	-9.430100	27.839067	0.000300	20.842877
2082.557638	-3.008200	3.147300	-9.466600	27.880578	0.000299	20.841507
2083.558839	-3.000200	3.146400	-9.439200	27.913974	0.000298	20.827704
2084.562292	-2.993300	3.146300	-9.416000	27.927984	0.000298	20.849865
2085.559306	-3.011900	3.145900	-9.474200	27.904380	0.000297	20.829427
2086.559301	-2.966000	3.146400	-9.329600	27.940879	0.000296	20.839136
2087.562002	-3.015300	3.144000	-9.478400	27.958059	0.000295	20.821342
2088.561388	-3.026700	3.143100	-9.511800	28.010945	0.000295	20.830952
2089.559484	-2.980200	3.144200	-9.369600	28.065389	0.000295	20.825538
2090.563480	-3.003700	3.143900	-9.442200	28.125007	0.000293	20.830552
2091.560423	-3.024300	3.142900	-9.503800	28.107583	0.000293	20.833875
2092.560671	-2.983300	3.142700	-9.373500	28.077038	0.000291	20.830627
2093.565253	-3.014100	3.141800	-9.468500	28.077140	0.000291	20.822669
2094.561827	-2.997400	3.141200	-9.414700	28.014639	0.000290	20.810490
2095.560266	-3.017400	3.141000	-9.475500	27.959029	0.000290	20.837017
2096.565517	-3.015200	3.139600	-9.466200	27.973161	0.000289	20.830853
2097.562706	-2.974200	3.140400	-9.339400	27.987666	0.000290	20.827909
2098.567422	-3.016000	3.136800	-9.459300	27.974750	0.000287	20.840987
2099.564141	-2.980700	3.137900	-9.351300	27.996289	0.000286	20.828528
2100.563712	-2.958600	3.138400	-9.283800	28.023414	0.000286	20.816003
2101.563693	-3.019100	3.136300	-9.467500	28.082761	0.000286	20.826904
2102.566792	-3.015900	3.135100	-9.454000	28.136730	0.000286	20.803947
2103.561603	-3.001600	3.134200	-9.406300	28.163798	0.000283	20.847791
2104.565531	-2.990900	3.135100	-9.376100	28.234692	0.000285	20.837611
2105.566932	-2.995700	3.133000	-9.384000	28.259776	0.000282	20.836313
2106.564546	-2.991300	3.132900	-9.370900	28.301288	0.000283	20.826427
2107.563398	-3.017800	3.132000	-9.450400	28.309072	0.000280	20.819566
2108.565195	-3.012500	3.132800	-9.435000	28.315022	0.000281	20.831720
2109.562471	-3.006700	3.130400	-9.411300	28.285976	0.000280	20.815277
2110.563065	-3.000400	3.130000	-9.390400	28.249981	0.000281	20.800374
2111.566816	-2.985000	3.132300	-9.348900	28.194752	0.000280	20.808781
2112.563808	-3.010900	3.128900	-9.420700	28.212129	0.000278	20.813473
2113.571603	-2.993300	3.128200	-9.362900	28.239149	0.000276	20.822659
2114.566686	-2.991800	3.128900	-9.359800	28.268843	0.000278	20.809881
2115.566556	-2.974900	3.129100	-9.307500	28.294298	0.000275	20.835984
2116.566525	-2.997100	3.126500	-9.369400	28.267975	0.000277	20.809008
2117.568522	-2.991000	3.127200	-9.353100	28.223309	0.000273	20.813823
2118.564920	-3.016400	3.125800	-9.427900	28.184813	0.000275	20.820585
2119.564838	-3.009000	3.125200	-9.402800	28.191902	0.000271	20.818239
2120.565281	-2.985800	3.124700	-9.328100	28.218027	0.000270	20.820359
2121.565933	-2.990800	3.123000	-9.339600	28.231069	0.000270	20.811205
2122.565906	-2.980500	3.123500	-9.308600	28.295458	0.000271	20.803962
2123.565261	-2.978500	3.123200	-9.300400	28.338216	0.000269	20.793435
2124.571822	-2.998900	3.121900	-9.360000	28.340968	0.000268	20.800473
2125.565952	-2.968200	3.122600	-9.267100	28.297616	0.000267	20.812773
2126.569994	-2.984400	3.121600	-9.315200	28.238970	0.000267	20.819634
2127.567136	-2.995500	3.118200	-9.339200	28.231336	0.000266	20.821905
2128.568830	-3.024900	3.117900	-9.430100	28.248937	0.000266	20.803590
2129.567146	-3.001800	3.118900	-9.361400	28.263262	0.000268	20.799047
2130.566904	-3.009300	3.118100	-9.382000	28.288000	0.000266	20.827273
2131.565241	-3.010500	3.115700	-9.377500	28.250051	0.000266	20.807557
2132.568341	-3.011000	3.115700	-9.380600	28.261973	0.000265	20.800593
2133.571829	-3.016000	3.113700	-9.390000	28.285372	0.000263	20.796651
2134.566686	-3.032300	3.114100	-9.440700	28.323639	0.000265	20.807207
2135.568560	-3.020300	3.113200	-9.401600	28.389639	0.000261	20.806807
2136.566489	-2.978100	3.114100	-9.272300	28.413651	0.000262	20.798743
2137.569926	-3.018400	3.111000	-9.389600	28.441706	0.000263	20.796648
2138.565811	-3.000300	3.110700	-9.332100	28.446734	0.000261	20.793651
2139.568374	-2.999800	3.112500	-9.335900	28.445072	0.000260	20.792452
2140.567387	-2.986300	3.111500	-9.290700	28.432854	0.000259	20.796744
2141.567852	-3.035200	3.108300	-9.432100	28.401032	0.000259	20.781769
2142.568503	-3.019300	3.109700	-9.388300	28.397040	0.000256	20.791500
2143.569396	-3.030800	3.107000	-9.415800	28.425718	0.000258	20.799514
2144.571289	-3.010300	3.106400	-9.348800	28.435209	0.000257	20.794847
2145.568118	-3.020000	3.106000	-9.378700	28.423536	0.000257	20.812016
2146.579644	-2.997300	3.106800	-9.311000	28.382741	0.000257	20.791801
2147.574952	-3.001100	3.104100	-9.314600	28.392011	0.000253	20.795445
2148.570684	-3.011500	3.103300	-9.344300	28.354839	0.000254	20.802112
2149.570613	-3.006800	3.102600	-9.327800	28.400881	0.000254	20.795842
2150.570050	-3.004100	3.102300	-9.317700	28.405642	0.000253	20.810593
2151.568063	-2.984400	3.101200	-9.253100	28.409360	0.000251	20.783991
2152.570726	-3.007100	3.100900	-9.324300	28.461724	0.000253	20.809221
2153.578764	-2.989900	3.101000	-9.270700	28.496911	0.000253	20.791076
2154.569339	-2.998500	3.099900	-9.293100	28.501598	0.000251	20.813813
2155.571104	-3.010400	3.099900	-9.330000	28.442447	0.000251	20.793127
2156.574072	-2.982300	3.098800	-9.239600	28.443217	0.000249	20.765927
2157.572738	-3.016300	3.097000	-9.339200	28.439601	0.000250	20.793106
2158.569678	-3.026300	3.095300	-9.365200	28.444503	0.000248	20.763429
2159.570923	-3.003200	3.097300	-9.300800	28.459672	0.000248	20.777756
2160.578634	-3.001300	3.095700	-9.289800	28.461085	0.000248	20.772066
2161.572998	-2.994000	3.096400	-9.268400	28.422256	0.000247	20.791287
2162.573934	-3.026000	3.092300	-9.356100	28.386937	0.000244	20.787965
2163.573754	-3.016300	3.093200	-9.328200	28.390830	0.000245	20.773393
2164.583758	-2.973700	3.093900	-9.199200	28.393536	0.000244	20.777066
2165.576009	-3.009100	3.091900	-9.302600	28.420249	0.000245	20.785947
2166.576850	-2.973000	3.091300	-9.189300	28.436512	0.000245	20.793314
2167.579413	-2.968500	3.091800	-9.177600	28.432274	0.000244	20.785728
2168.576281	-2.976400	3.090200	-9.197300	28.456386	0.000245	20.777766
2169.577474	-2.988000	3.088500	-9.226900	28.462735	0.000243	20.771832
2170.576696	-3.018100	3.086700	-9.314000	28.514872	0.000244	20.778343
2171.578117	-2.984900	3.087400	-9.214900	28.504985	0.000242	20.787352
2172.577364	-2.996400	3.086400	-9.247400	28.520968	0.000242	20.776896
2173.577647	-2.984100	3.087100	-9.211400	28.539977	0.000241	20.796987
2174.579341	-2.980200	3.085500	-9.194200	28.545802	0.000239	20.787681
2175.582015	-2.974100	3.084100	-9.171400	28.550833	0.000239	20.772359
2176.581031	-2.984400	3.084200	-9.203600	28.493642	0.000241	20.781619
2177.580756	-2.984300	3.082500	-9.198400	28.475799	0.000240	20.780246
2178.580447	-2.993200	3.080500	-9.218600	28.526727	0.000241	20.783169
2179.580939	-2.983800	3.081600	-9.194000	28.572122	0.000238	20.792376
2180.583725	-3.013300	3.078000	-9.274000	28.572838	0.000238	20.787882
2181.582071	-3.002100	3.079200	-9.242900	28.571004	0.000239	20.769914
2182.582873	-2.994800	3.078200	-9.217400	28.582455	0.000236	20.760582
2183.583510	-2.998400	3.077000	-9.225800	28.576064	0.000238	20.779751
2184.583332	-3.002800	3.075900	-9.235200	28.534657	0.000235	20.779301
2185.581799	-2.997100	3.076100	-9.218300	28.469186	0.000238	20.777854
2186.584434	-2.968200	3.075800	-9.128700	28.410301	0.000238	20.769765
2187.585625	-3.003300	3.073700	-9.231000	28.390576	0.000237	20.770292
2188.584383	-2.965400	3.073800	-9.113600	28.404749	0.000235	20.758010
2189.585103	-2.982200	3.072600	-9.162400	28.438008	0.000236	20.761630
2190.583369	-2.998500	3.071200	-9.208100	28.467447	0.000236	20.778948
2191.582800	-2.997900	3.069100	-9.200000	28.513565	0.000236	20.767069
2192.583412	-2.990500	3.067800	-9.173300	28.558194	0.000234	20.759857
2193.583484	-3.019700	3.067600	-9.262100	28.601606	0.000234	20.767069
2194.584664	-2.997400	3.067300	-9.193400	28.590233	0.000234	20.762727
2195.583914	-3.019300	3.064700	-9.252100	28.601680	0.000232	20.760505
2196.590256	-2.992300	3.065400	-9.172000	28.584088	0.000232	20.783091
2197.585593	-2.991400	3.063700	-9.163900	28.550609	0.000233	20.754114
2198.591923	-3.003100	3.062600	-9.196100	28.472124	0.000231	20.758053
2199.588109	-2.996800	3.063800	-9.180200	28.396491	0.000232	20.763446
2200.585562	-2.996200	3.061300	-9.171000	28.369151	0.000232	20.743028
2201.593740	-3.003700	3.060200	-9.190800	28.426005	0.000231	20.753336
2202.588439	-2.974600	3.060100	-9.101300	28.444098	0.000234	20.769659
2203.586183	-2.985900	3.059000	-9.132800	28.509862	0.000231	20.769030
2204.590508	-2.985100	3.057800	-9.126200	28.533157	0.000230	20.760247
2205.590353	-3.001900	3.056300	-9.172900	28.541059	0.000230	20.760144
2206.588510	-2.999500	3.055200	-9.162800	28.529313	0.000231	20.763963
2207.588785	-3.002300	3.054800	-9.169700	28.541973	0.000228	20.775290
2208.592632	-3.001500	3.054500	-9.167400	28.548884	0.000228	20.765180
2209.593314	-3.007300	3.052900	-9.179800	28.551783	0.000228	20.769522
2210.588881	-3.008100	3.051900	-9.178800	28.517115	0.000227	20.746461
2211.591785	-2.992500	3.050800	-9.128500	28.476521	0.000228	20.766748
2212.593097	-3.012900	3.050200	-9.189000	28.420763	0.000228	20.760386
2213.589846	-3.007000	3.048200	-9.165100	28.370849	0.000227	20.745212
2214.593556	-2.984400	3.048500	-9.096500	28.388143	0.000229	20.765471
2215.589959	-3.007900	3.045800	-9.159900	28.423409	0.000229	20.779172
2216.592288	-2.990000	3.044500	-9.102300	28.430247	0.000229	20.779894
2217.595611	-3.005500	3.044100	-9.148300	28.499041	0.000230	20.779469
2218.594946	-2.997700	3.043600	-9.122500	28.509719	0.000227	20.758454
2219.590542	-2.995800	3.042100	-9.112200	28.504592	0.000228	20.764671
2220.596378	-2.990700	3.042400	-9.098100	28.517179	0.000229	20.776872
2221.592598	-3.006100	3.040500	-9.138900	28.554071	0.000227	20.761395
2222.596833	-2.991400	3.039700	-9.091200	28.583012	0.000228	20.770627
2223.594852	-3.012700	3.037800	-9.149700	28.618272	0.000225	20.759672
2224.593308	-3.006600	3.038000	-9.133000	28.571340	0.000228	20.755553
2225.594293	-3.028000	3.034800	-9.188000	28.535130	0.000227	20.783572
2226.593981	-3.004500	3.033900	-9.114500	28.480342	0.000226	20.780553
2227.598379	-2.991500	3.033600	-9.074200	28.482447	0.000226	20.766077
2228.593825	-2.992600	3.032500	-9.074300	28.483908	0.000227	20.780826
2229.597434	-2.991500	3.031500	-9.067700	28.553710	0.000224	20.779998
2230.598797	-3.020600	3.029200	-9.148800	28.592787	0.000225	20.772411
2231.596401	-3.004700	3.028400	-9.098800	28.623757	0.000226	20.772309
2232.606956	-2.988000	3.028200	-9.047400	28.660474	0.000225	20.781789
2233.602328	-3.009600	3.026300	-9.107100	28.678735	0.000227	20.773629
2234.603243	-2.983300	3.026400	-9.027500	28.680443	0.000223	20.775823
2235.600721	-2.994200	3.024600	-9.055200	28.713093	0.000223	20.797330
2236.602560	-2.993900	3.023500	-9.050800	28.678086	0.000222	20.766337
2237.600290	-2.967200	3.023700	-8.971000	28.641932	0.000224	20.769277
2238.603151	-3.011700	3.020300	-9.094100	28.616535	0.000225	20.794433
2239.612259	-2.987500	3.020700	-9.023400	28.617276	0.000222	20.782851
2240.600470	-2.997400	3.019400	-9.048300	28.672452	0.000221	20.774412
2241.604814	-3.002600	3.018600	-9.062500	28.640415	0.000221	20.781974
2242.605783	-3.028000	3.017500	-9.135700	28.629064	0.000221	20.762006
2243.602295	-2.989200	3.015600	-9.013400	28.608599	0.000220	20.786440
2244.601679	-2.977300	3.015100	-8.975500	28.626805	0.000220	20.776327
2245.605849	-3.013600	3.011500	-9.074300	28.679134	0.000221	20.787781
2246.602530	-3.010000	3.011300	-9.063200	28.645587	0.000222	20.782442
2247.603245	-3.022500	3.009800	-9.097400	28.648928	0.000219	20.786755
2248.605260	-3.004300	3.009000	-9.039000	28.610472	0.000220	20.777895
2249.605618	-3.001700	3.008600	-9.029200	28.639611	0.000220	20.782113
2250.602963	-2.982100	3.007600	-8.968200	28.636193	0.000220	20.796688
2251.603472	-3.002900	3.006200	-9.026500	28.689607	0.000219	20.804020
2252.603546	-2.997800	3.003300	-9.001600	28.683066	0.000219	20.787948
2253.604987	-2.994300	3.004400	-8.994900	28.739183	0.000220	20.799427
2254.605849	-2.995900	3.002300	-8.994300	28.778526	0.000219	20.782634
2255.605550	-2.996300	3.000300	-8.989300	28.807187	0.000221	20.802969
2256.605212	-3.012900	2.999200	-9.035400	28.790242	0.000219	20.787796
2257.606995	-3.018100	2.996600	-9.043200	28.772924	0.000219	20.786473
2258.606816	-2.993200	2.996400	-8.966900	28.754886	0.000219	20.777786
2259.606835	-3.023400	2.994400	-9.052000	28.730109	0.000219	20.770847
2260.605822	-2.996100	2.994100	-8.970100	28.767570	0.000218	20.791512
2261.609595	-2.972200	2.993500	-8.896200	28.800643	0.000219	20.784998
2262.607819	-3.000300	2.991700	-8.974700	28.849121	0.000218	20.789262
2263.607302	-2.980100	2.990600	-8.910900	28.836911	0.000218	20.804463
2264.610382	-3.008300	2.988400	-8.988600	28.869486	0.000215	20.805510
2265.608928	-3.006900	2.988800	-8.985400	28.866785	0.000218	20.785720
2266.608761	-3.013500	2.986900	-8.999400	28.863663	0.000218	20.785893
2267.610977	-2.999400	2.985700	-8.954200	28.856479	0.000216	20.802365
2268.610607	-2.994900	2.984900	-8.938200	28.824870	0.000216	20.790437
2269.613381	-2.991500	2.982500	-8.920300	28.811715	0.000215	20.786194
2270.613991	-2.969800	2.982800	-8.857600	28.835819	0.000216	20.811897
2271.612873	-2.964700	2.980600	-8.835000	28.892647	0.000216	20.770996
2272.613636	-3.017300	2.977200	-8.980400	28.901267	0.000215	20.782999
2273.614411	-2.981600	2.977800	-8.877700	28.862848	0.000216	20.793607
2274.611109	-3.024000	2.974400	-8.993200	28.837382	0.000214	20.795928
2275.612934	-2.996000	2.975000	-8.911600	28.831730	0.000214	20.803037
2276.611778	-3.014000	2.972400	-8.957600	28.808494	0.000214	20.808079
2277.610667	-3.013700	2.971200	-8.954000	28.834779	0.000216	20.818910
2278.612239	-2.999800	2.967800	-8.902100	28.823925	0.000215	20.796597
2279.613760	-2.980700	2.967100	-8.842700	28.828411	0.000214	20.810125
2280.610293	-2.985800	2.968100	-8.860800	28.848598	0.000215	20.788735
2281.616195	-2.981600	2.965700	-8.841700	28.846936	0.000217	20.810769
2282.613554	-3.006200	2.963000	-8.906700	28.859346	0.000215	20.783916
2283.616326	-3.001200	2.961900	-8.888200	28.912605	0.000215	20.811017
2284.619662	-2.977300	2.962700	-8.819700	28.895289	0.000215	20.800211
2285.616181	-3.003600	2.958100	-8.884200	28.844998	0.000216	20.815455
2286.613276	-2.994600	2.958600	-8.858900	28.823153	0.000214	20.818579
2287.614515	-2.993400	2.956100	-8.847800	28.832982	0.000215	20.802876
2288.614067	-3.020300	2.953600	-8.919600	28.858866	0.000215	20.807614
2289.613554	-3.024400	2.952600	-8.928100	28.912546	0.000212	20.817122
2290.618606	-3.002600	2.951200	-8.860000	28.960130	0.000217	20.809585
2291.617047	-3.012900	2.948100	-8.881500	28.991191	0.000217	20.806740
2292.616658	-2.975600	2.949600	-8.775800	28.996639	0.000216	20.816021
2293.615318	-3.006400	2.946600	-8.858200	29.028169	0.000216	20.798478
2294.624350	-2.969800	2.946600	-8.750200	29.051721	0.000216	20.806560
2295.615331	-2.985600	2.945000	-8.791800	29.023977	0.000217	20.827444
2296.615821	-2.960900	2.942700	-8.711100	28.944987	0.000215	20.827993
2297.615345	-2.995200	2.941000	-8.807600	28.900647	0.000213	20.818885
2298.618653	-2.998000	2.939700	-8.811700	28.952587	0.000214	20.810995
2299.620545	-3.001200	2.938000	-8.817000	28.983701	0.000213	20.808202
2300.616143	-2.988200	2.936500	-8.772700	29.000268	0.000214	20.808773
2301.622300	-3.020500	2.933200	-8.858400	28.963781	0.000216	20.806625
2302.615973	-3.011600	2.933000	-8.832200	28.907009	0.000216	20.815336
2303.624580	-3.024200	2.930700	-8.860700	28.806995	0.000214	20.808466
2304.617825	-3.017100	2.929500	-8.837500	28.724795	0.000213	20.829979
2305.619132	-2.993400	2.928400	-8.764000	28.703042	0.000214	20.836992
2306.619537	-3.008000	2.926300	-8.801500	28.670262	0.000214	20.815829
2307.621341	-2.990000	2.924500	-8.743400	28.707546	0.000216	20.804071
2308.619718	-3.004600	2.922700	-8.780100	28.719859	0.000213	20.814577
2309.621413	-2.991000	2.922100	-8.739300	28.713863	0.000215	20.817546
2310.621945	-2.958700	2.920600	-8.640200	28.768664	0.000215	20.826753
2311.621111	-2.976900	2.918600	-8.687500	28.787791	0.000213	20.822786
2312.619169	-3.007400	2.915800	-8.767000	28.836962	0.000216	20.824902
2313.620720	-3.021200	2.915300	-8.806500	28.857398	0.000215	20.811825
2314.623816	-2.993200	2.912300	-8.717100	28.843724	0.000213	20.809429
2315.625477	-3.004200	2.910500	-8.742800	28.884697	0.000214	20.826049
2316.621623	-3.002400	2.908700	-8.732000	28.940111	0.000212	20.830666
2317.630501	-2.992500	2.907100	-8.697600	28.981895	0.000213	20.815392
2318.622128	-2.993900	2.906000	-8.699100	29.030688	0.000214	20.824248
2319.622431	-2.988000	2.904700	-8.677800	29.063205	0.000212	20.831881
2320.625670	-2.986300	2.903400	-8.669400	29.061098	0.000212	20.815534
2321.621424	-2.989200	2.899800	-8.666900	29.090523	0.000214	20.819104
2322.627339	-3.018300	2.898000	-8.745100	29.056912	0.000212	20.851144
2323.622488	-3.002600	2.896700	-8.695700	29.074049	0.000213	20.814359
2324.622352	-3.013700	2.895500	-8.725300	29.068498	0.000215	20.831999
2325.627656	-2.998800	2.891300	-8.669400	29.121995	0.000213	20.837540
2326.622860	-3.001000	2.891300	-8.675800	29.149631	0.000213	20.820818
2327.623940	-3.009800	2.889200	-8.694700	29.180094	0.000213	20.830177
2328.623244	-2.999100	2.886500	-8.655500	29.201836	0.000211	20.825534
2329.624749	-3.000200	2.885500	-8.656400	29.218277	0.000212	20.837834
2330.624961	-2.998100	2.884200	-8.646600	29.175631	0.000211	20.847490
2331.629502	-2.983500	2.882400	-8.598700	29.097024	0.000212	20.825655
2332.625698	-3.004400	2.879400	-8.650200	29.044144	0.000210	20.829272
2333.635495	-3.012800	2.877200	-8.667600	29.053457	0.000210	20.838181
2334.628013	-3.010500	2.876800	-8.659400	29.040355	0.000210	20.829247
2335.636595	-2.998000	2.874800	-8.616600	29.033194	0.000211	20.813024
2336.630418	-2.997600	2.872300	-8.608800	29.007631	0.000214	20.831363
2337.630213	-2.998200	2.870200	-8.604300	28.991707	0.000211	20.835234
2338.631192	-2.970600	2.869200	-8.522100	28.983085	0.000212	20.838401
2339.631842	-3.024600	2.864800	-8.664100	29.010599	0.000212	20.831035
2340.633297	-2.998400	2.864500	-8.587400	29.000793	0.000213	20.852448
2341.632397	-3.022200	2.861300	-8.646100	28.984420	0.000213	20.835479
2342.638999	-2.982100	2.859600	-8.526900	28.949864	0.000210	20.832907
2343.633957	-3.014300	2.856300	-8.608500	28.954721	0.000212	20.836852
2344.641896	-3.003200	2.856200	-8.577200	28.949369	0.000211	20.828140
2345.633865	-2.995500	2.852800	-8.545000	28.984442	0.000212	20.851147
2346.637516	-3.007400	2.851600	-8.574700	29.028107	0.000209	20.861001
2347.635624	-3.026300	2.848800	-8.619700	29.045319	0.000211	20.865541
2348.636016	-3.017200	2.848500	-8.593500	29.065308	0.000209	20.843957
2349.634509	-3.014000	2.846100	-8.577800	29.095053	0.000211	20.873927
2350.640645	-3.002600	2.843900	-8.538700	29.110578	0.000212	20.849743
2351.638752	-3.030500	2.839500	-8.604200	29.137619	0.000210	20.839532
2352.635992	-2.995500	2.839500	-8.504500	29.155425	0.000211	20.858423
2353.637920	-2.995400	2.838500	-8.500700	29.152897	0.000211	20.861091
2354.636718	-3.002500	2.833600	-8.506900	29.139575	0.000213	20.843400
2355.636684	-2.985600	2.833600	-8.458500	29.162579	0.000210	20.861838
2356.636375	-2.966200	2.831300	-8.397000	29.177166	0.000211	20.858045
2357.643133	-2.993100	2.827600	-8.462300	29.177409	0.000212	20.858764
2358.647233	-3.006300	2.827600	-8.499200	29.190387	0.000213	20.850979
2359.637531	-3.010900	2.822300	-8.496100	29.190334	0.000212	20.884590
2360.637265	-2.970000	2.822900	-8.383100	29.219208	0.000211	20.869117
2361.638453	-3.014300	2.819400	-8.497400	29.162075	0.000210	20.860856
2362.642577	-2.997200	2.816700	-8.441100	29.157043	0.000210	20.860527
2363.637253	-3.007500	2.814800	-8.464700	29.173807	0.000212	20.859876
2364.644459	-2.998200	2.812600	-8.431900	29.185002	0.000212	20.856933
2365.641083	-2.994900	2.809700	-8.413700	29.175988	0.000213	20.854013
2366.646417	-2.983500	2.808100	-8.377800	29.143985	0.000213	20.856852
2367.641286	-2.984200	2.805500	-8.371900	29.134626	0.000214	20.866387
2368.641383	-2.981300	2.803300	-8.354800	29.128534	0.000214	20.846024
2369.641245	-3.011500	2.800400	-8.431400	29.172390	0.000212	20.868405
2370.651365	-3.014200	2.797500	-8.431700	29.223455	0.000213	20.875767
2371.643712	-3.023800	2.793000	-8.444200	29.266493	0.000211	20.865086
2372.644978	-2.977600	2.793700	-8.317500	29.297646	0.000214	20.875619
2373.644560	-2.987700	2.789700	-8.333500	29.369596	0.000212	20.890285
2374.643772	-2.997100	2.786900	-8.351100	29.357140	0.000213	20.886266
2375.646202	-3.031600	2.783700	-8.438100	29.362810	0.000212	20.874438
2376.645185	-3.024500	2.781300	-8.410400	29.386600	0.000212	20.878027
2377.645805	-2.996600	2.780500	-8.331200	29.394601	0.000214	20.888460
2378.647346	-3.006400	2.776800	-8.346700	29.430378	0.000213	20.865727
2379.645004	-3.016800	2.774900	-8.370200	29.463181	0.000212	20.876505
2380.646094	-3.034300	2.770800	-8.405800	29.472936	0.000212	20.874011
2381.647151	-3.019700	2.767700	-8.356800	29.486104	0.000212	20.862154
2382.646170	-3.003500	2.765200	-8.304500	29.507641	0.000212	20.874854
2383.646435	-2.969900	2.763400	-8.206400	29.533318	0.000210	20.878451
2384.650042	-3.007200	2.759100	-8.295500	29.515963	0.000211	20.884190
2385.647323	-2.960600	2.756900	-8.160200	29.494568	0.000211	20.884435
2386.657656	-3.013200	2.754300	-8.298000	29.517593	0.000211	20.877773
2387.646804	-3.006200	2.750600	-8.267600	29.490163	0.000210	20.888054
2388.647989	-3.017600	2.747000	-8.288400	29.501526	0.000210	20.882439
2389.651935	-3.031100	2.743000	-8.313700	29.541631	0.000211	20.868814
2390.649720	-3.026600	2.740400	-8.292600	29.582134	0.000213	20.905848
2391.651886	-3.029200	2.737500	-8.290500	29.589162	0.000211	20.899182
2392.649057	-2.998400	2.735800	-8.201500	29.579159	0.000209	20.904270
2393.656667	-2.980500	2.733300	-8.145500	29.573296	0.000209	20.887456
2394.652021	-3.025100	2.726900	-8.248700	29.579952	0.000210	20.884209
2395.651034	-3.000900	2.724700	-8.175500	29.596091	0.000210	20.887202
2396.652677	-2.975600	2.723600	-8.103700	29.646218	0.000211	20.908336
2397.650149	-2.993500	2.717800	-8.134800	29.659983	0.000212	20.898507
2398.651488	-2.990200	2.714500	-8.116100	29.642928	0.000212	20.881315
2399.654157	-2.990200	2.711100	-8.105100	29.608320	0.000209	20.890995
2400.654689	-2.987100	2.708000	-8.088200	29.578043	0.000208	20.911206
2401.652369	-2.994300	2.705200	-8.099400	29.579654	0.000211	20.898606
2402.656114	-3.008900	2.698500	-8.117800	29.582350	0.000211	20.898953
2403.653359	-2.999700	2.697200	-8.089400	29.600321	0.000210	20.885777
2404.656273	-3.016300	2.693500	-8.123300	29.614481	0.000212	20.880137
2405.657666	-2.986900	2.689900	-8.032700	29.657920	0.000210	20.888368
2406.655998	-2.998300	2.685200	-8.049600	29.649854	0.000212	20.902994
2407.656108	-3.020800	2.680900	-8.097500	29.660275	0.000211	20.892638
2408.653822	-3.016100	2.679000	-8.079200	29.628244	0.000211	20.902545
2409.653470	-2.996000	2.675000	-8.013200	29.583091	0.000213	20.890692
2410.653174	-2.996000	2.671200	-8.002000	29.493050	0.000210	20.912299
2411.657638	-2.986700	2.666500	-7.963900	29.438680	0.000213	20.899697
2412.653815	-3.000500	2.663000	-7.988700	29.425385	0.000210	20.905262
2413.654985	-3.018500	2.658100	-8.022900	29.477945	0.000212	20.907032
2414.655650	-2.973300	2.654300	-7.889400	29.507380	0.000211	20.910623
2415.658121	-3.011900	2.648800	-7.976300	29.530158	0.000210	20.884274
2416.661417	-2.995300	2.645800	-7.923900	29.525651	0.000210	20.905808
2417.663736	-3.008400	2.642000	-7.947000	29.477967	0.000211	20.912743
2418.668219	-3.016600	2.636200	-7.950100	29.478883	0.000211	20.904658
2419.657641	-3.018200	2.633000	-7.946400	29.478855	0.000210	20.909846
2420.658837	-2.971900	2.628700	-7.811100	29.486157	0.000212	20.913886
2421.659529	-3.035800	2.621700	-7.957100	29.453060	0.000209	20.912768
2422.659565	-3.011500	2.617400	-7.881300	29.467790	0.000211	20.907701
2423.661569	-2.989100	2.615400	-7.816300	29.508293	0.000211	20.911544
2424.659651	-2.976700	2.610400	-7.768800	29.558549	0.000213	20.913840
2425.658728	-3.015600	2.604700	-7.853700	29.601622	0.000210	20.903682
2426.658349	-3.012100	2.598800	-7.827100	29.593503	0.000211	20.920152
2427.662573	-3.014900	2.593200	-7.817000	29.584367	0.000211	20.896719
2428.662163	-2.988200	2.589400	-7.736100	29.558079	0.000211	20.919529
2429.660042	-3.007500	2.582100	-7.764100	29.546221	0.000212	20.909474
2430.659174	-3.005400	2.577000	-7.743500	29.543175	0.000212	20.937219
2431.662121	-3.014100	2.569700	-7.743800	29.615831	0.000212	20.911841
2432.671264	-3.015200	2.566200	-7.735600	29.649153	0.000213	20.898021
2433.667916	-3.012300	2.558900	-7.706900	29.669599	0.000213	20.921475
2434.661647	-3.012100	2.553400	-7.689700	29.673336	0.000213	20.908649
2435.661135	-3.001100	2.547500	-7.643700	29.666555	0.000211	20.918881
2436.661931	-3.055200	2.542100	-7.765200	29.728531	0.000212	20.907398
2437.664607	-2.976800	2.538400	-7.554800	29.766921	0.000213	20.924766
2438.665493	-2.994400	2.530900	-7.575900	29.783006	0.000215	20.904001
2439.673531	-2.985400	2.525100	-7.537600	29.792980	0.000214	20.877076
2440.662818	-3.004700	2.518800	-7.566200	29.837309	0.000214	20.912762
2441.663915	-2.988000	2.512400	-7.506000	29.846733	0.000211	20.921314
2442.662714	-3.073300	2.503300	-7.692000	29.849978	0.000213	20.896614
2443.667200	-3.007500	2.498900	-7.514900	29.797504	0.000213	20.919092
