LabVIEW Measurement	
Writer_Version	2
Reader_Version	2
Separator	Tab
Decimal_Separator	.
Multi_Headings	No
X_Columns	One
Time_Pref	Absolute
Operator	admin
Description	Clolumns are: time, Current, Voltage, Power, Battery Temp, and Chamber Temp
Date	2024/08/16
Time	13:06:06.104549407958984375
***End_of_Header***	
	
Channels	6						
Samples	1	1	1	1	1	1	
Date	2024/08/25	2024/08/25	2024/08/25	2024/08/25	2024/08/25	2024/08/25	
Time	01:07:51.6332001686096191406	01:07:51.6371984481811523437	01:07:51.6442294120788574219	01:07:51.6032304763793945312	01:07:51.6032304763793945312	01:07:51.6032304763793945312	
X_Dimension	Time	Time	Time	Time	Time	Time	
X0	0.0000000000000000E+0	0.0000000000000000E+0	0.0000000000000000E+0	0.0000000000000000E+0	0.0000000000000000E+0	0.0000000000000000E+0	
Delta_X	1.000000	1.000000	1.000000	1.000000	1.000000	1.000000	
***End_of_Header***							
X_Value	Untitled	Untitled 1	Untitled 2	Untitled 3	Untitled 4	Untitled 5	Comment
0.000000	0.030943	4.103600	0.127010	21.040477	0.000963	20.821917
0.988024	-2.997400	3.945800	-11.827000	21.062533	0.000963	20.829279
1.986880	-3.015100	3.939400	-11.876000	21.076006	0.000962	20.824263
2.986217	-2.991600	3.937000	-11.777000	21.058117	0.000962	20.812534
3.987536	-3.012900	3.931800	-11.844000	21.052228	0.000961	20.831774
4.987272	-3.015000	3.927800	-11.841000	21.075581	0.000960	20.811511
5.987573	-3.002800	3.924600	-11.784000	21.057792	0.000959	20.810313
6.989597	-2.980100	3.923100	-11.690000	21.080496	0.000957	20.840134
7.986664	-3.004100	3.920800	-11.777000	21.052802	0.000957	20.824762
8.990675	-2.980200	3.920000	-11.681000	21.063905	0.000960	20.834919
9.990736	-2.987500	3.916700	-11.700000	21.091848	0.000957	20.827782
10.988631	-3.009300	3.915600	-11.781000	21.081644	0.000956	20.822790
11.988415	-3.001300	3.914300	-11.748000	21.090900	0.000956	20.818299
12.991679	-2.990900	3.912000	-11.699000	21.098509	0.000957	20.835393
13.989790	-2.981600	3.911500	-11.661000	21.097062	0.000953	20.823514
14.988806	-3.009100	3.908600	-11.759000	21.109412	0.000955	20.836341
15.994333	-3.009300	3.908400	-11.762000	21.100081	0.000953	20.820844
16.990262	-3.008000	3.907500	-11.752000	21.103724	0.000951	20.850565
17.988715	-3.000400	3.906300	-11.719000	21.106793	0.000952	20.825186
18.994024	-2.994900	3.906700	-11.698000	21.114776	0.000950	20.832698
19.988495	-2.986900	3.905800	-11.663000	21.106518	0.000952	20.820645
20.988493	-2.996500	3.903700	-11.697000	21.127800	0.000950	20.828181
21.988762	-2.998300	3.904000	-11.704000	21.126303	0.000951	20.833322
22.988306	-3.003600	3.901700	-11.718000	21.131068	0.000950	20.830976
23.989237	-3.009300	3.900700	-11.737000	21.130843	0.000950	20.838338
24.989513	-2.994400	3.901700	-11.682000	21.155118	0.000946	20.835593
25.989389	-2.998200	3.899400	-11.689000	21.122236	0.000947	20.818823
26.994157	-3.003500	3.898800	-11.709000	21.149230	0.000947	20.855307
27.992820	-2.992800	3.898700	-11.666000	21.158710	0.000947	20.855307
28.993381	-2.998700	3.897400	-11.686000	21.162278	0.000946	20.846548
29.994812	-2.997600	3.898100	-11.684000	21.179093	0.000946	20.851988
30.991235	-2.983200	3.896600	-11.623000	21.169313	0.000945	20.855956
31.996051	-3.016100	3.895600	-11.749000	21.186402	0.000945	20.842705
32.991947	-3.011600	3.894900	-11.730000	21.165621	0.000944	20.832823
33.991576	-2.986800	3.896500	-11.637000	21.210501	0.000943	20.853061
34.994785	-2.999700	3.892900	-11.677000	21.187176	0.000944	20.831625
35.994765	-2.988300	3.895800	-11.641000	21.193288	0.000943	20.844377
36.993544	-3.004300	3.893900	-11.697000	21.204688	0.000945	20.853411
38.006901	-3.005800	3.892500	-11.700000	21.222201	0.000942	20.865713
38.996098	-3.009800	3.892400	-11.714000	21.237842	0.000941	20.855757
39.994043	-3.000800	3.893200	-11.681000	21.231206	0.000943	20.857653
41.001795	-3.018900	3.891100	-11.745000	21.233926	0.000940	20.871278
41.997315	-2.984800	3.891200	-11.612000	21.240262	0.000942	20.848694
42.994725	-3.009100	3.889400	-11.702000	21.252061	0.000940	20.860498
43.997838	-3.021500	3.889900	-11.752000	21.272118	0.000943	20.862070
44.997520	-2.979100	3.890400	-11.589000	21.268001	0.000940	20.857479
45.998004	-2.982000	3.889700	-11.596000	21.259545	0.000940	20.840011
46.998127	-2.991200	3.890200	-11.634000	21.265133	0.000940	20.860299
48.000034	-3.005400	3.889600	-11.687000	21.287808	0.000939	20.869706
49.000827	-2.997600	3.889800	-11.659000	21.298534	0.000938	20.859575
49.999147	-3.012400	3.888800	-11.712000	21.291775	0.000938	20.886475
51.003077	-2.990500	3.890000	-11.631000	21.294169	0.000939	20.838139
52.007830	-3.005100	3.889200	-11.687000	21.290602	0.000940	20.858277
53.000259	-3.019700	3.886900	-11.737000	21.317817	0.000940	20.848520
54.003322	-3.016400	3.887000	-11.723000	21.307016	0.000939	20.878016
55.000415	-2.981200	3.888200	-11.589000	21.333457	0.000940	20.881709
56.001591	-2.989800	3.887800	-11.623000	21.339169	0.000939	20.878415
57.003798	-2.991900	3.884900	-11.622000	21.340142	0.000937	20.875596
58.000224	-3.007400	3.887100	-11.688000	21.348523	0.000939	20.875920
59.001793	-2.997600	3.885700	-11.646000	21.363589	0.000937	20.874398
60.004136	-2.997900	3.884600	-11.645000	21.372469	0.000938	20.879963
61.004474	-3.002400	3.884400	-11.661000	21.366607	0.000936	20.891641
62.000973	-3.010400	3.883000	-11.687000	21.370324	0.000936	20.884455
63.005895	-3.007400	3.883300	-11.678000	21.375687	0.000935	20.868959
64.006012	-3.000400	3.882500	-11.648000	21.388732	0.000935	20.896233
65.007275	-3.002700	3.884300	-11.663000	21.401702	0.000936	20.871279
66.006345	-2.981800	3.884500	-11.582000	21.393197	0.000936	20.876046
67.005432	-2.989300	3.883600	-11.609000	21.392972	0.000935	20.890045
68.006396	-2.979100	3.882400	-11.565000	21.396863	0.000937	20.888722
69.006538	-2.979300	3.882400	-11.565000	21.415695	0.000934	20.887649
70.007282	-3.015000	3.882500	-11.704000	21.415845	0.000933	20.888273
71.005378	-2.995100	3.882900	-11.628000	21.437694	0.000936	20.885004
72.005545	-2.986900	3.881900	-11.594000	21.436048	0.000937	20.898055
73.005427	-3.005300	3.880700	-11.662000	21.455128	0.000934	20.893438
74.008588	-3.004300	3.880900	-11.658000	21.433703	0.000933	20.885753
75.008562	-3.002600	3.881500	-11.653000	21.444154	0.000935	20.882933
76.007272	-2.999800	3.880700	-11.640000	21.472487	0.000933	20.897057
77.012384	-2.982500	3.880200	-11.572000	21.466102	0.000935	20.876919
78.010936	-3.000600	3.880500	-11.644000	21.489122	0.000935	20.902322
79.007251	-3.020500	3.878500	-11.714000	21.479720	0.000933	20.916620
80.009788	-2.974600	3.880800	-11.542000	21.493736	0.000933	20.891767
81.008724	-2.995500	3.878400	-11.616000	21.517529	0.000934	20.899926
82.009906	-3.005800	3.879500	-11.661000	21.500271	0.000934	20.917269
83.009256	-3.028500	3.877100	-11.740000	21.507753	0.000933	20.885403
84.007740	-3.014400	3.877900	-11.689000	21.517629	0.000934	20.893863
85.013180	-2.993800	3.877700	-11.607000	21.506655	0.000934	20.869134
86.008820	-2.985900	3.879800	-11.584000	21.536109	0.000933	20.900975
87.006853	-3.017500	3.876200	-11.695000	21.536084	0.000933	20.901898
88.012666	-3.009400	3.877200	-11.666000	21.512167	0.000933	20.889820
89.009965	-3.000300	3.876900	-11.632000	21.558579	0.000932	20.882683
90.009866	-2.993100	3.877600	-11.604000	21.563492	0.000932	20.881436
91.012434	-2.992500	3.877100	-11.601000	21.576909	0.000932	20.892964
92.012016	-2.992900	3.877100	-11.603000	21.585738	0.000933	20.907013
93.015152	-3.020400	3.875700	-11.705000	21.593693	0.000934	20.896008
94.012723	-3.012400	3.875700	-11.675000	21.582845	0.000933	20.897955
95.011208	-3.008200	3.875100	-11.656000	21.593917	0.000933	20.894337
96.014707	-2.998300	3.876200	-11.620000	21.604191	0.000932	20.888023
97.014105	-3.010600	3.874800	-11.663000	21.597583	0.000933	20.889945
98.014466	-2.998600	3.876100	-11.621000	21.601947	0.000933	20.884355
99.014394	-2.995000	3.876000	-11.607000	21.620900	0.000933	20.887674
100.013561	-3.017800	3.872700	-11.687000	21.614740	0.000933	20.864916
101.014805	-3.011600	3.875200	-11.669000	21.614541	0.000934	20.878940
102.013115	-3.019800	3.873600	-11.696000	21.643094	0.000933	20.882384
103.013957	-2.997000	3.874300	-11.611000	21.633518	0.000933	20.897929
104.011223	-3.028700	3.872400	-11.726000	21.628805	0.000933	20.878516
105.015604	-3.001200	3.874100	-11.626000	21.647558	0.000933	20.889221
106.014297	-3.005300	3.874500	-11.643000	21.664290	0.000935	20.892689
107.015040	-3.020400	3.871800	-11.693000	21.659877	0.000933	20.878316
108.013816	-3.004400	3.873700	-11.637000	21.664041	0.000934	20.881535
109.015170	-2.987900	3.873600	-11.573000	21.676958	0.000934	20.863643
110.016185	-2.994700	3.872600	-11.595000	21.666460	0.000932	20.877792
111.017407	-3.002200	3.872400	-11.624000	21.678005	0.000935	20.862794
112.015747	-2.993200	3.871500	-11.587000	21.663941	0.000933	20.889495
113.015340	-2.994000	3.872100	-11.592000	21.684688	0.000935	20.877542
114.014293	-2.975800	3.872900	-11.524000	21.697056	0.000936	20.879963
115.016453	-2.986100	3.873900	-11.567000	21.714761	0.000935	20.857853
116.016756	-3.004800	3.871000	-11.631000	21.698378	0.000933	20.863742
117.014844	-2.990900	3.870800	-11.576000	21.713414	0.000937	20.879738
118.021321	-3.011300	3.870800	-11.654000	21.731667	0.000935	20.881884
119.023721	-2.995300	3.870900	-11.593000	21.744060	0.000936	20.872950
120.016622	-2.991500	3.872300	-11.583000	21.732739	0.000933	20.873474
121.017997	-3.018600	3.869900	-11.680000	21.721792	0.000935	20.859674
122.016074	-3.000600	3.869900	-11.611000	21.750767	0.000934	20.855008
123.015875	-3.015700	3.870400	-11.670000	21.759643	0.000934	20.880012
124.017918	-3.000600	3.868700	-11.606000	21.761763	0.000935	20.883081
125.019966	-3.011000	3.870100	-11.652000	21.749744	0.000935	20.861097
126.022499	-3.016000	3.867800	-11.664000	21.750717	0.000935	20.867759
127.027882	-2.994700	3.870000	-11.588000	21.779241	0.000935	20.848894
128.018064	-2.989200	3.868800	-11.564000	21.784827	0.000936	20.855906
129.018584	-3.019600	3.867300	-11.677000	21.800435	0.000936	20.857777
130.019605	-2.980200	3.870200	-11.534000	21.791534	0.000935	20.844601
131.022483	-2.989700	3.869700	-11.569000	21.794276	0.000936	20.875794
132.021238	-2.994500	3.867600	-11.581000	21.807192	0.000935	20.857428
133.021067	-2.992800	3.869400	-11.580000	21.798266	0.000935	20.857977
134.019924	-2.998800	3.868200	-11.598000	21.808164	0.000935	20.848444
135.020277	-3.004200	3.868600	-11.620000	21.830704	0.000936	20.852037
136.020146	-3.000400	3.866800	-11.600000	21.811755	0.000935	20.862468
137.023530	-2.997300	3.868100	-11.592000	21.820506	0.000936	20.864589
138.022957	-3.009900	3.867000	-11.638000	21.841899	0.000937	20.853759
139.021874	-2.986700	3.868300	-11.553000	21.834793	0.000937	20.837638
140.026507	-3.001600	3.865800	-11.602000	21.836438	0.000937	20.838811
141.024250	-2.991900	3.866700	-11.568000	21.828684	0.000939	20.835318
142.023492	-3.009300	3.865900	-11.633000	21.821852	0.000937	20.835592
143.023408	-2.993200	3.867200	-11.574000	21.825168	0.000938	20.847445
144.023932	-3.007900	3.864200	-11.623000	21.849877	0.000937	20.842779
145.024065	-2.991900	3.866800	-11.568000	21.849079	0.000939	20.852411
146.027277	-2.986000	3.865700	-11.542000	21.835316	0.000938	20.864714
147.027438	-2.999900	3.866400	-11.598000	21.854265	0.000941	20.841007
148.026150	-2.996000	3.865600	-11.580000	21.853766	0.000941	20.844775
149.029523	-2.991900	3.864300	-11.561000	21.882239	0.000942	20.852411
150.028249	-2.998100	3.864600	-11.585000	21.883011	0.000942	20.832797
151.028068	-3.005500	3.864000	-11.613000	21.893084	0.000940	20.819171
152.027117	-2.988700	3.864300	-11.549000	21.900190	0.000940	20.821542
153.030760	-2.987300	3.864700	-11.544000	21.916320	0.000942	20.823464
154.028742	-2.994600	3.863400	-11.567000	21.914400	0.000941	20.837189
155.030551	-2.990200	3.865200	-11.557000	21.915098	0.000943	20.830775
156.031163	-3.000200	3.863700	-11.591000	21.906622	0.000942	20.837463
157.034483	-2.990100	3.864800	-11.555000	21.900588	0.000943	20.834269
158.031425	-2.991200	3.862100	-11.551000	21.891438	0.000943	20.833171
159.036214	-3.017900	3.862900	-11.657000	21.913154	0.000944	20.832148
160.034900	-3.007700	3.863400	-11.619000	21.925744	0.000942	20.817724
161.030987	-2.996600	3.862300	-11.573000	21.941301	0.000943	20.839933
162.035445	-2.999500	3.861300	-11.581000	21.952694	0.000945	20.824312
163.031602	-3.015700	3.861000	-11.642000	21.947583	0.000944	20.856653
164.034166	-3.002700	3.862900	-11.597000	21.957804	0.000944	20.818522
165.038107	-3.023600	3.860200	-11.671000	21.958677	0.000944	20.816551
166.038416	-2.975800	3.862200	-11.492000	21.975131	0.000944	20.813581
167.033870	-2.998500	3.861900	-11.578000	21.949153	0.000947	20.828828
168.037634	-2.998900	3.860900	-11.577000	21.947857	0.000945	20.832272
169.033366	-3.014400	3.861900	-11.641000	21.950874	0.000945	20.816800
170.034812	-3.014600	3.859800	-11.635000	21.928511	0.000947	20.838511
171.037838	-3.002600	3.861400	-11.593000	21.938633	0.000947	20.803124
172.035501	-2.987000	3.860500	-11.530000	21.965981	0.000946	20.812957
173.037549	-2.997300	3.860900	-11.572000	21.955037	0.000948	20.816226
174.036157	-2.977500	3.861500	-11.496000	21.967876	0.000946	20.821492
175.036948	-3.006400	3.858200	-11.596000	21.987072	0.000947	20.821741
176.038540	-3.006200	3.858000	-11.597000	21.970519	0.000946	20.820344
177.038648	-3.022300	3.859900	-11.664000	21.969422	0.000949	20.816401
178.037429	-2.994000	3.859100	-11.553000	21.993529	0.000949	20.815877
179.040508	-3.014300	3.859400	-11.633000	22.022945	0.000947	20.832521
180.037960	-3.010700	3.858000	-11.614000	22.051613	0.000948	20.805745
181.039225	-3.008300	3.858000	-11.604000	22.034811	0.000948	20.814055
182.041014	-2.991600	3.859300	-11.544000	22.060587	0.000949	20.822789
183.040970	-3.018200	3.858600	-11.644000	22.066869	0.000950	20.814853
184.045084	-2.997700	3.858700	-11.566000	22.065149	0.000950	20.793691
185.043029	-2.977800	3.857500	-11.486000	22.076790	0.000951	20.806768
186.040509	-3.009300	3.856600	-11.605000	22.070459	0.000950	20.826033
187.041769	-2.975600	3.859200	-11.482000	22.089279	0.000951	20.817374
188.043930	-2.999500	3.859000	-11.574000	22.103363	0.000951	20.796386
189.040686	-3.007500	3.857600	-11.599000	22.074522	0.000952	20.789324
190.044434	-3.027100	3.856200	-11.672000	22.104734	0.000950	20.809138
191.046035	-3.000800	3.857300	-11.572000	22.108049	0.000952	20.822415
192.043000	-2.998300	3.856500	-11.562000	22.104759	0.000951	20.808215
193.043727	-2.987900	3.856500	-11.522000	22.133474	0.000953	20.792868
194.047361	-2.989500	3.857500	-11.531000	22.125174	0.000955	20.814429
195.048053	-2.982700	3.855900	-11.500000	22.148928	0.000953	20.803598
196.043970	-2.996700	3.855900	-11.554000	22.144616	0.000954	20.807816
197.047847	-2.983700	3.855200	-11.501000	22.148878	0.000954	20.818247
198.045129	-2.996900	3.854700	-11.551000	22.170689	0.000954	20.789823
199.043479	-3.004400	3.855800	-11.583000	22.172782	0.000956	20.801876
200.046491	-3.009300	3.855700	-11.601000	22.175798	0.000957	20.796835
201.048344	-2.996800	3.854600	-11.551000	22.189707	0.000957	20.803648
202.044380	-2.983200	3.853500	-11.494000	22.181980	0.000955	20.816774
203.047493	-3.000200	3.854600	-11.563000	22.205434	0.000957	20.809912
204.048590	-2.994800	3.855500	-11.546000	22.187862	0.000957	20.817922
205.049142	-3.007300	3.852200	-11.584000	22.185893	0.000957	20.796037
206.049652	-3.003100	3.854600	-11.574000	22.202767	0.000956	20.795862
207.049634	-3.009900	3.853800	-11.599000	22.198854	0.000957	20.804272
208.050632	-2.998300	3.855000	-11.557000	22.207154	0.000959	20.783184
209.050233	-2.997900	3.853800	-11.552000	22.213510	0.000958	20.829851
210.051288	-3.001300	3.853600	-11.565000	22.247980	0.000960	20.804621
211.049638	-3.002300	3.853600	-11.569000	22.218171	0.000959	20.795163
212.049668	-2.983700	3.852100	-11.490000	22.246161	0.000959	20.780988
213.055060	-3.000800	3.852500	-11.559000	22.253414	0.000959	20.781138
214.050110	-3.006500	3.853000	-11.583000	22.241674	0.000962	20.771280
215.050480	-3.007600	3.852300	-11.585000	22.233424	0.000959	20.803323
216.051609	-2.998000	3.852800	-11.550000	22.263782	0.000962	20.788675
217.051201	-3.004600	3.852400	-11.574000	22.262835	0.000961	20.791994
218.050016	-3.005600	3.851600	-11.576000	22.259570	0.000963	20.787302
219.049217	-3.005800	3.852400	-11.579000	22.252840	0.000963	20.806642
220.050854	-3.001400	3.852200	-11.560000	22.240478	0.000963	20.804696
221.051928	-2.996000	3.851600	-11.538000	22.244914	0.000963	20.776421
222.051233	-3.003100	3.850900	-11.564000	22.258573	0.000964	20.795787
223.051836	-2.997800	3.851600	-11.545000	22.277863	0.000963	20.789498
224.052392	-3.001400	3.849800	-11.554000	22.284593	0.000965	20.800977
225.053514	-2.990900	3.851400	-11.519000	22.296506	0.000965	20.780189
226.051452	-2.987300	3.850900	-11.501000	22.297179	0.000965	20.774699
227.049026	-3.002300	3.850400	-11.559000	22.298649	0.000966	20.796086
228.050091	-3.018400	3.850700	-11.622000	22.315846	0.000967	20.800977
229.050117	-2.964300	3.851300	-11.415000	22.314525	0.000966	20.791120
230.050380	-3.008300	3.850500	-11.582000	22.291770	0.000969	20.784931
231.051193	-3.003600	3.847600	-11.556000	22.286187	0.000968	20.784556
232.048708	-2.993000	3.849400	-11.521000	22.319110	0.000969	20.804720
233.049745	-3.008100	3.847300	-11.571000	22.314225	0.000971	20.791769
234.050110	-2.988200	3.848600	-11.499000	22.322923	0.000970	20.774874
235.051539	-2.992000	3.849800	-11.517000	22.309964	0.000967	20.772802
236.051233	-2.998700	3.847500	-11.536000	22.306001	0.000968	20.772627
237.051291	-2.992700	3.847800	-11.513000	22.324045	0.000973	20.777893
238.053406	-3.007200	3.848100	-11.570000	22.350138	0.000971	20.777469
239.052725	-2.979600	3.848200	-11.463000	22.337154	0.000971	20.781536
240.053082	-2.999700	3.846900	-11.539000	22.369826	0.000972	20.776321
241.052997	-2.999000	3.847200	-11.536000	22.370499	0.000972	20.786004
242.056468	-2.993100	3.846600	-11.511000	22.382336	0.000972	20.755657
243.052439	-2.988000	3.847200	-11.495000	22.365539	0.000973	20.776296
244.057414	-3.014500	3.844900	-11.589000	22.374885	0.000974	20.772852
245.052690	-2.992400	3.847000	-11.510000	22.370648	0.000974	20.787101
246.055702	-2.989000	3.845000	-11.492000	22.351907	0.000976	20.777344
247.051743	-3.015400	3.845700	-11.594000	22.362972	0.000976	20.761397
248.056556	-3.001300	3.846000	-11.541000	22.375259	0.000975	20.789347
249.055320	-2.994500	3.844200	-11.509000	22.392977	0.000976	20.791918
250.051888	-2.993700	3.845400	-11.511000	22.378000	0.000976	20.776445
251.053785	-3.008500	3.844800	-11.566000	22.393526	0.000976	20.775871
252.054238	-3.000400	3.845100	-11.535000	22.394398	0.000978	20.768684
253.054357	-2.997700	3.844600	-11.523000	22.404640	0.000978	20.768509
254.054041	-3.025400	3.843100	-11.625000	22.433896	0.000978	20.770306
255.056732	-2.980400	3.846100	-11.460000	22.444886	0.000977	20.777518
256.056805	-2.971400	3.845800	-11.426000	22.435641	0.000978	20.766363
257.058982	-2.993000	3.843500	-11.503000	22.438481	0.000980	20.770156
258.059233	-2.974600	3.844300	-11.435000	22.427018	0.000980	20.763892
259.057658	-2.978400	3.845500	-11.452000	22.410521	0.000980	20.764915
260.057889	-3.014700	3.842400	-11.582000	22.422084	0.000982	20.770805
261.065397	-3.008000	3.843000	-11.558000	22.439727	0.000981	20.760972
262.057754	-2.997100	3.841900	-11.513000	22.429909	0.000982	20.771055
263.059256	-3.001500	3.842200	-11.531000	22.469382	0.000981	20.761746
264.063421	-2.987400	3.843200	-11.480000	22.430557	0.000982	20.770281
265.062140	-3.020500	3.841000	-11.601000	22.436712	0.000984	20.771229
266.063754	-3.009100	3.842600	-11.562000	22.407755	0.000984	20.772103
267.061861	-3.001000	3.842700	-11.531000	22.436812	0.000985	20.768484
268.061098	-3.022100	3.842200	-11.611000	22.447951	0.000985	20.754509
269.068734	-2.998100	3.841600	-11.517000	22.446381	0.000983	20.754359
270.061584	-3.011300	3.842300	-11.569000	22.474515	0.000984	20.767835
271.064624	-2.981300	3.842000	-11.453000	22.458890	0.000986	20.760723
272.061806	-2.996300	3.841700	-11.510000	22.491858	0.000988	20.760074
273.061795	-3.003500	3.840300	-11.532000	22.495222	0.000989	20.765340
274.066217	-2.976800	3.840200	-11.430000	22.497041	0.000987	20.746772
275.061558	-2.974300	3.840100	-11.420000	22.501078	0.000986	20.766463
276.061962	-2.990000	3.840100	-11.480000	22.508130	0.000989	20.756455
277.065488	-2.997800	3.838900	-11.507000	22.533372	0.000989	20.770356
278.062078	-2.992900	3.838600	-11.487000	22.530656	0.000989	20.758152
279.064724	-2.996700	3.839300	-11.503000	22.517823	0.000990	20.757154
280.066307	-3.008200	3.838200	-11.545000	22.517748	0.000990	20.758502
281.066605	-2.988100	3.839500	-11.472000	22.530855	0.000991	20.742704
282.064750	-3.003500	3.838300	-11.528000	22.522707	0.000992	20.747346
283.067354	-2.999100	3.838400	-11.511000	22.533446	0.000992	20.747670
284.075510	-2.999800	3.837000	-11.510000	22.520390	0.000992	20.740283
285.066516	-2.997500	3.836800	-11.499000	22.547051	0.000992	20.752762
286.067715	-3.027700	3.836800	-11.616000	22.522383	0.000995	20.765040
287.070638	-2.984100	3.837700	-11.450000	22.543239	0.000994	20.740882
288.073442	-3.004300	3.839000	-11.533000	22.560656	0.000996	20.748369
289.068095	-2.996200	3.837600	-11.497000	22.552782	0.000996	20.744750
290.069929	-3.002800	3.837000	-11.521000	22.571121	0.000995	20.767386
291.066637	-3.002700	3.836400	-11.519000	22.584452	0.000997	20.740907
292.070402	-2.989800	3.836000	-11.469000	22.606602	0.000999	20.770680
293.075825	-3.003000	3.836000	-11.519000	22.605780	0.000997	20.752786
294.070254	-3.010800	3.836400	-11.549000	22.645869	0.000998	20.753111
295.075478	-3.007800	3.835600	-11.536000	22.639516	0.000997	20.755282
296.074378	-3.021000	3.834900	-11.584000	22.644374	0.000999	20.767735
297.070291	-3.005900	3.835400	-11.528000	22.656607	0.000998	20.759125
298.072730	-2.987100	3.836500	-11.459000	22.635654	0.001001	20.732921
299.071608	-3.006700	3.833200	-11.523000	22.614401	0.000999	20.760473
300.071533	-3.003100	3.834900	-11.516000	22.619035	0.001000	20.746622
301.074981	-2.999200	3.834100	-11.498000	22.609642	0.000999	20.737688
302.072745	-3.002500	3.833100	-11.508000	22.617067	0.001001	20.759824
303.075537	-3.005600	3.832900	-11.519000	22.614600	0.000999	20.742180
304.074897	-2.983600	3.835600	-11.442000	22.642730	0.001004	20.736215
305.074548	-2.993200	3.833600	-11.474000	22.650130	0.001003	20.740308
306.078640	-3.005700	3.832000	-11.516000	22.659672	0.001003	20.728529
307.075359	-2.981200	3.833300	-11.426000	22.669414	0.001004	20.749193
308.074621	-2.990300	3.832100	-11.458000	22.678134	0.001004	20.740383
309.085528	-3.005900	3.833400	-11.522000	22.672005	0.001004	20.748943
310.077896	-3.000200	3.831400	-11.493000	22.677237	0.001004	20.722888
311.076720	-3.010000	3.830900	-11.530000	22.680700	0.001007	20.732047
312.080663	-2.989900	3.830900	-11.452000	22.674197	0.001005	20.749717
313.076621	-2.974700	3.832700	-11.400000	22.701229	0.001005	20.736964
314.076245	-2.982100	3.832400	-11.428000	22.714732	0.001006	20.740533
315.075152	-2.993900	3.830800	-11.468000	22.722705	0.001010	20.717223
316.075239	-2.982100	3.830600	-11.421000	22.732072	0.001008	20.758377
317.076668	-2.993400	3.830800	-11.465000	22.733168	0.001010	20.751414
318.075778	-3.009300	3.829600	-11.523000	22.758256	0.001008	20.729128
319.076492	-2.993500	3.830900	-11.467000	22.752152	0.001011	20.728703
320.076440	-3.010500	3.828800	-11.524000	22.757135	0.001009	20.749817
321.077299	-2.992800	3.831400	-11.465000	22.769690	0.001011	20.744850
322.079494	-2.999700	3.829300	-11.485000	22.767673	0.001009	20.764641
323.080493	-3.011100	3.829400	-11.530000	22.794154	0.001012	20.748494
324.077369	-2.998000	3.830500	-11.483000	22.807009	0.001011	20.733869
325.081312	-2.993200	3.829600	-11.461000	22.798414	0.001013	20.739010
326.081162	-2.993600	3.828600	-11.461000	22.775620	0.001014	20.739410
327.080284	-2.990200	3.828700	-11.448000	22.782520	0.001014	20.736839
328.075875	-2.988500	3.828800	-11.441000	22.774872	0.001013	20.741980
329.084590	-2.999800	3.826900	-11.478000	22.770488	0.001014	20.733320
330.077667	-2.998600	3.826800	-11.473000	22.781773	0.001016	20.750790
331.081551	-3.003500	3.828900	-11.499000	22.750782	0.001014	20.740133
332.076904	-2.992800	3.828100	-11.456000	22.766327	0.001016	20.742430
333.082165	-3.003500	3.827700	-11.496000	22.785435	0.001015	20.760149
334.076842	-3.003500	3.825900	-11.490000	22.799460	0.001017	20.735791
335.084603	-2.997400	3.826100	-11.467000	22.794603	0.001017	20.741356
336.083634	-3.003600	3.826100	-11.491000	22.784488	0.001016	20.748768
337.077250	-3.007500	3.826400	-11.508000	22.797941	0.001017	20.765090
338.079792	-2.997500	3.825700	-11.466000	22.782595	0.001018	20.752088
339.088296	-2.998600	3.825200	-11.469000	22.789745	0.001019	20.758302
340.078386	-2.999900	3.826100	-11.477000	22.802176	0.001020	20.773126
341.083493	-3.009800	3.825500	-11.514000	22.823176	0.001017	20.757653
342.082840	-3.000400	3.825400	-11.475000	22.825941	0.001020	20.750466
343.079883	-3.002900	3.824000	-11.481000	22.820934	0.001020	20.750191
344.082165	-3.009600	3.824200	-11.508000	22.840240	0.001021	20.756730
345.084479	-3.012600	3.823300	-11.517000	22.863756	0.001023	20.754683
346.083047	-3.002100	3.823300	-11.476000	22.860767	0.001023	20.751688
347.080436	-2.987600	3.824300	-11.425000	22.850877	0.001023	20.761696
348.083622	-3.010000	3.823500	-11.507000	22.858201	0.001022	20.742954
349.080909	-3.004000	3.822500	-11.481000	22.876908	0.001022	20.774498
350.083661	-3.021100	3.822000	-11.545000	22.900946	0.001022	20.746423
351.081291	-3.000700	3.823300	-11.470000	22.904209	0.001024	20.761072
352.080521	-2.994000	3.822700	-11.442000	22.886698	0.001023	20.747321
353.086147	-2.988600	3.821700	-11.420000	22.887271	0.001025	20.764965
354.085042	-3.005200	3.820700	-11.482000	22.856806	0.001025	20.766213
355.084099	-3.009700	3.822100	-11.503000	22.864453	0.001025	20.761072
356.084019	-2.985600	3.820900	-11.407000	22.851973	0.001025	20.755207
357.084220	-3.006400	3.821000	-11.486000	22.855411	0.001028	20.770980
358.090193	-3.017000	3.821100	-11.527000	22.850454	0.001026	20.749892
359.084332	-2.971300	3.822700	-11.357000	22.849831	0.001025	20.760174
360.082225	-3.002000	3.822200	-11.473000	22.858674	0.001028	20.789896
361.086179	-3.013200	3.820500	-11.511000	22.856108	0.001027	20.755083
362.081134	-3.023600	3.820100	-11.550000	22.883136	0.001028	20.779315
363.084321	-2.998600	3.820300	-11.455000	22.935072	0.001028	20.757379
364.088715	-3.007100	3.820500	-11.487000	22.923265	0.001031	20.755507
365.086362	-2.973400	3.820900	-11.360000	22.946305	0.001030	20.748719
366.083051	-2.986400	3.819500	-11.406000	22.941971	0.001030	20.767136
367.087878	-2.988800	3.820000	-11.416000	22.969221	0.001032	20.764566
368.086353	-2.999900	3.818900	-11.455000	22.964738	0.001031	20.760074
369.083899	-3.001400	3.819600	-11.464000	22.955621	0.001031	20.753785
370.085784	-2.997500	3.819000	-11.446000	22.977167	0.001031	20.763992
371.086483	-2.996100	3.819500	-11.441000	23.006458	0.001032	20.776270
372.085765	-2.991700	3.817400	-11.419000	22.994876	0.001032	20.762295
373.085135	-2.999200	3.817300	-11.447000	22.981526	0.001033	20.753660
374.086348	-3.003200	3.817800	-11.463000	22.965211	0.001032	20.764815
375.092264	-3.002900	3.817000	-11.461000	22.978761	0.001034	20.760847
376.086168	-3.008100	3.816900	-11.481000	22.990990	0.001033	20.784481
377.086347	-2.999300	3.816100	-11.445000	22.998313	0.001037	20.769532
378.089383	-2.991200	3.817600	-11.418000	23.010642	0.001034	20.770980
379.087832	-2.988300	3.815800	-11.402000	23.013681	0.001035	20.785878
380.086737	-3.007000	3.814700	-11.470000	23.043868	0.001037	20.790046
381.091280	-3.017900	3.816700	-11.517000	23.050592	0.001037	20.776395
382.088233	-3.016100	3.814500	-11.504000	23.050841	0.001038	20.786602
383.087581	-3.019800	3.814900	-11.520000	23.055150	0.001037	20.768160
384.091989	-3.016100	3.814200	-11.502000	23.052684	0.001037	20.776120
385.089859	-3.023800	3.812800	-11.527000	23.071439	0.001038	20.789696
386.088901	-2.996800	3.813300	-11.427000	23.083592	0.001039	20.753510
387.089159	-2.982100	3.814000	-11.372000	23.075548	0.001039	20.796185
388.090110	-2.978900	3.814900	-11.364000	23.056022	0.001039	20.783258
389.089362	-3.008800	3.813200	-11.472000	23.057292	0.001041	20.780263
390.092300	-2.990300	3.812700	-11.400000	23.036969	0.001040	20.790720
391.093747	-3.001900	3.813700	-11.447000	23.022772	0.001040	20.786926
392.093648	-2.993700	3.813200	-11.414000	23.037367	0.001040	20.771204
393.092807	-3.020100	3.812400	-11.513000	23.039310	0.001041	20.797333
394.093043	-2.979900	3.812600	-11.360000	23.073531	0.001041	20.777568
395.094342	-3.001200	3.812200	-11.440000	23.046931	0.001042	20.774149
396.093359	-2.990900	3.812300	-11.401000	23.052087	0.001043	20.785005
397.095446	-2.995300	3.812800	-11.420000	23.053357	0.001041	20.773001
398.092461	-3.014700	3.811600	-11.490000	23.069396	0.001042	20.772003
399.094323	-3.006600	3.809700	-11.453000	23.080629	0.001043	20.780413
400.092021	-2.988500	3.810900	-11.388000	23.086706	0.001043	20.779390
401.093448	-2.995400	3.810800	-11.413000	23.106630	0.001043	20.793664
402.096625	-3.009600	3.809600	-11.464000	23.119381	0.001044	20.798855
403.096492	-2.989500	3.809200	-11.386000	23.137486	0.001045	20.795187
404.096312	-3.016600	3.808500	-11.487000	23.140425	0.001044	20.773001
405.093675	-3.007000	3.809500	-11.455000	23.170758	0.001045	20.788224
406.094676	-3.005900	3.808800	-11.447000	23.164308	0.001048	20.779390
407.093107	-2.987600	3.809900	-11.382000	23.190382	0.001047	20.792716
408.098567	-3.020900	3.807600	-11.501000	23.176187	0.001046	20.796035
409.096239	-3.002200	3.809800	-11.437000	23.159352	0.001048	20.782958
410.099393	-3.020400	3.806400	-11.495000	23.167894	0.001046	20.790096
411.096235	-2.984500	3.808600	-11.365000	23.155367	0.001048	20.811682
412.095001	-2.995000	3.805800	-11.397000	23.155592	0.001048	20.803372
413.096576	-3.000700	3.807100	-11.423000	23.161743	0.001048	20.793415
414.101681	-3.007300	3.805800	-11.444000	23.162166	0.001049	20.783407
415.099290	-2.993500	3.806500	-11.395000	23.199596	0.001050	20.804794
416.100677	-3.028800	3.805300	-11.524000	23.174294	0.001049	20.797457
417.103954	-2.977200	3.806700	-11.331000	23.172675	0.001050	20.795835
418.098047	-3.000400	3.805500	-11.417000	23.140251	0.001051	20.795586
419.101646	-2.990600	3.806100	-11.381000	23.145829	0.001050	20.776046
420.099152	-2.998900	3.804300	-11.407000	23.174742	0.001048	20.801700
421.098852	-2.996800	3.806500	-11.407000	23.169836	0.001048	20.813853
422.099726	-3.010100	3.803500	-11.447000	23.167396	0.001053	20.800976
423.108492	-2.995200	3.804200	-11.394000	23.172476	0.001051	20.796584
424.100584	-2.997900	3.804800	-11.405000	23.154371	0.001053	20.814003
425.098749	-2.998000	3.803900	-11.403000	23.135718	0.001054	20.791518
426.101276	-2.985700	3.804700	-11.358000	23.157534	0.001051	20.792042
427.100262	-2.994500	3.803900	-11.389000	23.142642	0.001052	20.794662
428.103337	-3.025800	3.801400	-11.501000	23.146128	0.001051	20.810484
429.099929	-3.000900	3.801900	-11.408000	23.173995	0.001053	20.809486
430.105358	-2.982500	3.804300	-11.344000	23.197379	0.001055	20.813479
431.102622	-2.999100	3.803000	-11.403000	23.214039	0.001056	20.815949
432.100138	-3.000000	3.801800	-11.405000	23.245989	0.001056	20.819992
433.102242	-2.975000	3.802700	-11.312000	23.247657	0.001054	20.795586
434.101659	-2.985200	3.801400	-11.347000	23.269296	0.001057	20.796883
435.100858	-2.990200	3.802500	-11.369000	23.265312	0.001056	20.839357
436.104521	-2.995700	3.802100	-11.389000	23.260830	0.001057	20.815425
437.102810	-2.995900	3.800600	-11.386000	23.281199	0.001055	20.830623
438.099956	-3.016100	3.800100	-11.459000	23.257394	0.001057	20.839008
439.107497	-3.021300	3.799500	-11.477000	23.247483	0.001059	20.812006
440.103670	-3.002800	3.801200	-11.412000	23.246785	0.001056	20.818894
441.103909	-2.987900	3.801000	-11.356000	23.258913	0.001056	20.809236
442.103996	-2.991200	3.800300	-11.366000	23.256323	0.001057	20.816598
443.106867	-3.009500	3.799000	-11.432000	23.268649	0.001057	20.820890
444.105300	-2.995700	3.799700	-11.382000	23.275173	0.001059	20.821739
445.104223	-3.008300	3.799100	-11.428000	23.288196	0.001059	20.812980
446.106102	-3.007100	3.797600	-11.419000	23.314865	0.001058	20.811258
447.103701	-2.987800	3.799100	-11.350000	23.314641	0.001059	20.820516
448.104652	-2.989000	3.798900	-11.354000	23.334934	0.001058	20.829475
449.113188	-3.011200	3.797500	-11.434000	23.319720	0.001062	20.845995
450.106239	-2.985600	3.798600	-11.340000	23.358116	0.001061	20.812406
451.107512	-3.004100	3.796600	-11.404000	23.354406	0.001060	20.827179
452.108242	-3.002800	3.797800	-11.403000	23.376541	0.001060	20.830398
453.110168	-2.986200	3.797900	-11.340000	23.389414	0.001062	20.830024
454.107687	-3.024500	3.795500	-11.479000	23.381346	0.001060	20.816249
455.111620	-2.994400	3.796700	-11.368000	23.403282	0.001061	20.830174
456.110675	-3.007800	3.795400	-11.414000	23.412718	0.001061	20.831097
457.113225	-2.980300	3.796800	-11.314000	23.415781	0.001059	20.830373
458.111613	-2.996900	3.794900	-11.372000	23.429998	0.001061	20.844148
459.107565	-2.993300	3.793900	-11.355000	23.428902	0.001061	20.843524
460.110625	-2.989200	3.794000	-11.340000	23.429998	0.001064	20.834666
461.110137	-2.983200	3.793900	-11.317000	23.424620	0.001063	20.831172
462.108367	-2.978800	3.794900	-11.302000	23.423923	0.001062	20.819568
463.108984	-3.009400	3.793300	-11.415000	23.432936	0.001063	20.822912
464.112442	-3.007200	3.794300	-11.408000	23.418769	0.001065	20.837161
465.111062	-2.995100	3.794900	-11.366000	23.402087	0.001063	20.833717
466.112315	-3.001800	3.793400	-11.385000	23.409880	0.001064	20.835838
467.114307	-2.996500	3.791600	-11.361000	23.395613	0.001064	20.839557
468.111561	-3.009700	3.793500	-11.417000	23.425690	0.001065	20.836038
469.112940	-2.990300	3.792900	-11.341000	23.426736	0.001065	20.838035
470.111729	-2.981400	3.793100	-11.308000	23.428080	0.001065	20.851235
471.114028	-2.975000	3.793400	-11.285000	23.416204	0.001068	20.857349
472.112842	-2.990000	3.791400	-11.335000	23.387746	0.001067	20.833093
473.113034	-2.997300	3.791500	-11.363000	23.376143	0.001066	20.830473
474.113950	-3.011400	3.790600	-11.413000	23.393497	0.001067	20.838858
475.115567	-3.002000	3.791300	-11.380000	23.372283	0.001066	20.842726
476.112693	-2.999500	3.790900	-11.370000	23.379778	0.001066	20.845496
477.114666	-3.007800	3.790000	-11.398000	23.374549	0.001068	20.853531
478.118206	-3.004900	3.790500	-11.389000	23.386501	0.001066	20.848915
479.114808	-2.999400	3.790700	-11.369000	23.426213	0.001067	20.832769
480.123761	-3.009600	3.788800	-11.401000	23.424495	0.001067	20.846694
481.122504	-2.987000	3.790400	-11.321000	23.449019	0.001069	20.855627
482.120251	-2.982900	3.788800	-11.301000	23.449692	0.001069	20.847767
483.116636	-3.020900	3.787400	-11.440000	23.463808	0.001067	20.846744
484.121131	-2.998100	3.786500	-11.351000	23.488879	0.001067	20.857649
485.121746	-2.979600	3.788400	-11.287000	23.469858	0.001069	20.862764
486.116648	-2.988200	3.787300	-11.315000	23.460870	0.001069	20.861342
487.119939	-3.003100	3.786800	-11.372000	23.480365	0.001069	20.853382
488.126034	-3.004300	3.785700	-11.373000	23.486838	0.001069	20.886421
489.122639	-2.998900	3.786900	-11.355000	23.518754	0.001070	20.851086
490.120250	-2.980400	3.786900	-11.286000	23.529659	0.001067	20.871024
491.119072	-2.983900	3.787200	-11.299000	23.535683	0.001069	20.857150
492.120597	-3.008900	3.785300	-11.388000	23.506780	0.001069	20.863264
493.125301	-2.997200	3.785700	-11.346000	23.547832	0.001067	20.880232
494.122688	-3.009800	3.783800	-11.387000	23.556769	0.001071	20.859321
495.121205	-3.008300	3.785400	-11.387000	23.579772	0.001069	20.868629
496.122486	-2.981700	3.785500	-11.286000	23.590676	0.001070	20.850637
497.124856	-2.985700	3.785100	-11.300000	23.583481	0.001073	20.866657
498.124695	-2.986200	3.783800	-11.297000	23.575216	0.001072	20.863114
499.125016	-3.003900	3.783300	-11.363000	23.601928	0.001070	20.865709
500.127727	-3.011000	3.782900	-11.390000	23.613727	0.001073	20.881330
501.124872	-2.995200	3.783400	-11.331000	23.600558	0.001070	20.891836
502.124939	-3.001400	3.782100	-11.351000	23.596775	0.001072	20.882353
503.125714	-3.014500	3.783100	-11.403000	23.627443	0.001069	20.874218
504.124526	-3.014700	3.782100	-11.401000	23.603222	0.001070	20.876489
505.124938	-2.980400	3.782100	-11.271000	23.616739	0.001072	20.891935
506.125425	-2.967000	3.782800	-11.221000	23.599463	0.001073	20.859920
507.127259	-2.993100	3.781800	-11.317000	23.627220	0.001071	20.871623
508.125825	-2.993000	3.780800	-11.315000	23.657041	0.001071	20.865010
509.125716	-3.014500	3.780300	-11.395000	23.641608	0.001073	20.884150
510.126585	-2.993200	3.780700	-11.314000	23.651341	0.001072	20.876364
511.128945	-2.992700	3.780800	-11.314000	23.658858	0.001070	20.856875
512.127680	-3.007000	3.780000	-11.366000	23.656917	0.001071	20.869153
513.131365	-3.000200	3.780000	-11.340000	23.694155	0.001072	20.896527
514.129329	-2.990900	3.780200	-11.306000	23.689998	0.001073	20.879084
515.128813	-2.966500	3.779300	-11.210000	23.685717	0.001072	20.871473
516.131554	-2.990100	3.778200	-11.296000	23.662443	0.001072	20.900295
517.126735	-2.988900	3.778300	-11.292000	23.656095	0.001074	20.902466
518.128155	-2.959400	3.779500	-11.184000	23.648827	0.001074	20.886645
519.128135	-2.996600	3.778800	-11.322000	23.661970	0.001074	20.883227
520.130235	-2.998900	3.778000	-11.329000	23.661870	0.001072	20.896876
521.128876	-2.998700	3.775800	-11.322000	23.672524	0.001075	20.887169
522.130044	-2.988900	3.777100	-11.288000	23.678623	0.001074	20.900395
523.133611	-2.993200	3.775900	-11.300000	23.690521	0.001073	20.874393
524.131402	-3.003700	3.776300	-11.341000	23.699607	0.001074	20.884924
525.131869	-3.017600	3.773700	-11.386000	23.706352	0.001074	20.895953
526.131057	-3.029900	3.774300	-11.435000	23.695773	0.001074	20.896252
527.130431	-3.017100	3.773900	-11.385000	23.684298	0.001075	20.891861
528.129375	-3.006900	3.774200	-11.347000	23.728605	0.001075	20.900245
529.131082	-2.990800	3.774500	-11.287000	23.699109	0.001075	20.905760
530.133251	-3.016600	3.774000	-11.383000	23.679121	0.001075	20.914169
531.132267	-2.997700	3.774500	-11.312000	23.672997	0.001074	20.917987
532.133745	-3.008100	3.772700	-11.347000	23.676283	0.001075	20.910376
533.133751	-2.998900	3.774000	-11.317000	23.670906	0.001075	20.918261
534.135909	-3.015000	3.772800	-11.374000	23.681834	0.001074	20.908355
535.130613	-2.993700	3.774000	-11.297000	23.693010	0.001074	20.909128
536.136137	-3.003600	3.772000	-11.329000	23.678822	0.001076	20.893483
537.133530	-3.004000	3.772800	-11.333000	23.700105	0.001075	20.915766
538.134432	-3.002900	3.773100	-11.329000	23.734604	0.001076	20.930912
539.134640	-3.006000	3.772000	-11.338000	23.745979	0.001076	20.908654
540.138598	-2.987900	3.773100	-11.273000	23.758026	0.001077	20.902241
541.137334	-2.992900	3.772100	-11.289000	23.724871	0.001075	20.898873
542.134895	-2.993000	3.770900	-11.285000	23.703291	0.001075	20.895254
543.135794	-2.986300	3.771000	-11.261000	23.698661	0.001075	20.922852
544.137501	-2.987600	3.769300	-11.260000	23.708667	0.001075	20.915816
545.135430	-2.993600	3.769900	-11.284000	23.743589	0.001077	20.899147
546.138237	-2.977000	3.771700	-11.227000	23.764124	0.001075	20.906458
547.139469	-3.002400	3.769900	-11.318000	23.762581	0.001075	20.915342
548.137956	-2.999900	3.768000	-11.303000	23.763327	0.001074	20.888118
549.138118	-2.986400	3.769600	-11.256000	23.749588	0.001076	20.901368
550.137613	-2.996600	3.769000	-11.293000	23.736471	0.001079	20.912871
551.143265	-2.984600	3.769600	-11.250000	23.715313	0.001077	20.902092
552.137479	-3.012300	3.767300	-11.347000	23.702594	0.001077	20.884125
553.139946	-2.984600	3.767400	-11.242000	23.719644	0.001077	20.918286
554.140395	-2.997200	3.767800	-11.292000	23.710260	0.001078	20.868579
555.146094	-2.995100	3.766600	-11.281000	23.713446	0.001077	20.895953
556.137609	-2.989200	3.766300	-11.257000	23.756682	0.001079	20.903264
557.137662	-3.012000	3.766400	-11.343000	23.742917	0.001081	20.920756
558.139915	-2.973700	3.767900	-11.202000	23.755810	0.001079	20.888642
559.139512	-3.034100	3.764200	-11.419000	23.774229	0.001079	20.901892
560.141284	-2.997900	3.765100	-11.285000	23.766961	0.001079	20.897924
561.144220	-3.000200	3.765400	-11.296000	23.753695	0.001078	20.895055
562.141767	-2.991400	3.765200	-11.263000	23.800562	0.001078	20.878985
563.143697	-3.012700	3.763700	-11.339000	23.781522	0.001078	20.896402
564.145097	-2.993000	3.765300	-11.269000	23.785554	0.001077	20.904238
565.144533	-3.005700	3.763500	-11.310000	23.775150	0.001080	20.904238
566.149618	-2.993900	3.763500	-11.267000	23.783812	0.001079	20.873096
567.150978	-3.010400	3.763600	-11.329000	23.773955	0.001080	20.883127
568.143782	-3.024900	3.762900	-11.381000	23.782990	0.001078	20.889815
569.145203	-3.004300	3.763100	-11.305000	23.777664	0.001079	20.887319
570.148655	-3.007400	3.763100	-11.316000	23.785728	0.001078	20.893034
571.145274	-2.976200	3.763100	-11.198000	23.798223	0.001079	20.875691
572.141799	-2.998700	3.762300	-11.281000	23.816392	0.001079	20.891062
573.145810	-2.981500	3.763200	-11.220000	23.856537	0.001081	20.883427
574.166147	-3.008500	3.761600	-11.315000	23.853327	0.001081	20.875941
575.142827	-2.991400	3.760800	-11.249000	23.858528	0.001078	20.883052
576.145402	-3.013400	3.759400	-11.328000	23.863381	0.001078	20.885548
577.143546	-2.996200	3.761000	-11.267000	23.865870	0.001077	20.875716
578.143125	-2.994200	3.759500	-11.256000	23.868060	0.001077	20.888343
579.147480	-2.988400	3.759800	-11.235000	23.867040	0.001077	20.883052
580.151138	-3.019700	3.757300	-11.345000	23.858528	0.001079	20.876889
581.146926	-3.000600	3.759300	-11.280000	23.831923	0.001079	20.894307
582.149345	-2.997200	3.759600	-11.267000	23.806088	0.001077	20.889740
583.151888	-3.013000	3.758500	-11.324000	23.823635	0.001079	20.892161
584.144888	-2.966500	3.759800	-11.152000	23.817438	0.001079	20.875517
585.145509	-2.993000	3.758800	-11.249000	23.820001	0.001079	20.859122
586.148926	-3.004300	3.758400	-11.289000	23.830280	0.001077	20.877014
587.147654	-2.980300	3.758700	-11.201000	23.846557	0.001079	20.865835
588.146074	-3.025100	3.755100	-11.359000	23.876174	0.001078	20.871824
589.147275	-3.015900	3.758000	-11.333000	23.874083	0.001080	20.879210
590.149384	-2.993400	3.756800	-11.245000	23.892699	0.001081	20.854256
591.150371	-2.999700	3.755500	-11.265000	23.895063	0.001078	20.892186
592.146438	-2.993700	3.755400	-11.241000	23.912883	0.001077	20.871649
593.148266	-2.989500	3.755100	-11.225000	23.907930	0.001080	20.861942
594.146817	-3.006200	3.756000	-11.290000	23.907955	0.001079	20.862915
595.148507	-2.990500	3.755200	-11.229000	23.935330	0.001077	20.868081
596.149859	-2.953200	3.755000	-11.088000	23.927118	0.001079	20.878811
597.150155	-2.969100	3.754700	-11.147000	23.926794	0.001077	20.867107
598.150129	-2.996500	3.755000	-11.251000	23.926993	0.001079	20.863040
599.151661	-2.989800	3.753800	-11.223000	23.929855	0.001078	20.876814
600.150561	-2.994800	3.754500	-11.243000	23.899543	0.001077	20.862067
601.149101	-2.997800	3.753200	-11.250000	23.934310	0.001079	20.847618
602.151371	-2.993200	3.753500	-11.234000	23.946181	0.001078	20.880857
603.149383	-3.021400	3.751400	-11.333000	23.937943	0.001077	20.856477
604.152565	-2.978000	3.752500	-11.173000	23.957653	0.001079	20.855379
605.155276	-2.973200	3.751600	-11.153000	23.941403	0.001078	20.856627
606.152030	-3.005400	3.751900	-11.275000	23.953024	0.001079	20.852160
607.154254	-3.003800	3.752500	-11.270000	23.960615	0.001079	20.856926
608.153706	-3.017700	3.750800	-11.318000	23.940208	0.001079	20.860170
609.151613	-3.001100	3.751800	-11.259000	23.933514	0.001079	20.856777
610.152141	-3.009600	3.750400	-11.286000	23.959569	0.001080	20.846870
611.154529	-3.006000	3.749600	-11.270000	23.965169	0.001078	20.862915
612.154305	-2.996800	3.749900	-11.236000	23.929283	0.001079	20.872448
613.154215	-2.999300	3.749200	-11.243000	23.923310	0.001078	20.853657
614.153654	-3.006100	3.748300	-11.267000	23.915820	0.001079	20.876490
615.154788	-3.026200	3.748000	-11.341000	23.923087	0.001077	20.855804
616.158763	-2.984100	3.749000	-11.186000	23.926770	0.001079	20.844324
617.152864	-2.999800	3.748800	-11.245000	23.939910	0.001079	20.862242
618.174235	-3.001700	3.748100	-11.250000	23.926571	0.001078	20.866409
619.152859	-3.020700	3.745900	-11.315000	23.946480	0.001077	20.843227
620.152884	-3.015000	3.748000	-11.299000	23.987466	0.001078	20.833120
621.157249	-2.998600	3.747100	-11.236000	23.991498	0.001079	20.860869
622.155089	-3.016100	3.746700	-11.300000	24.002845	0.001076	20.866559
623.155334	-3.010800	3.745500	-11.276000	23.982738	0.001076	20.843077
624.159562	-2.977400	3.747200	-11.156000	24.031388	0.001076	20.845872
625.155318	-3.020000	3.746200	-11.312000	24.010932	0.001079	20.851911
626.156144	-2.981000	3.745600	-11.164000	24.005508	0.001077	20.859746
627.159063	-2.982300	3.746700	-11.172000	24.006155	0.001076	20.863240
628.160562	-2.996300	3.745000	-11.220000	23.961809	0.001077	20.846745
629.161937	-3.009400	3.744400	-11.267000	23.952726	0.001078	20.828628
630.161325	-3.023400	3.744900	-11.321000	23.913431	0.001077	20.847544
631.162854	-3.003100	3.745500	-11.247000	23.920449	0.001077	20.855529
632.161176	-3.006500	3.743100	-11.252000	23.933564	0.001077	20.853034
633.163245	-3.022800	3.744500	-11.317000	23.944091	0.001076	20.855529
634.166657	-2.993300	3.744000	-11.206000	23.956384	0.001076	20.851262
635.166760	-3.001400	3.743700	-11.235000	23.963303	0.001076	20.842079
636.167824	-2.987500	3.743400	-11.182000	24.000531	0.001075	20.825833
637.161783	-3.018800	3.743100	-11.298000	23.992593	0.001074	20.850114
638.172092	-2.989500	3.742800	-11.188000	23.959644	0.001075	20.834617
639.169834	-3.005300	3.742500	-11.246000	23.956658	0.001075	20.858648
640.162521	-2.998900	3.742100	-11.221000	23.973929	0.001075	20.849889
641.167293	-2.995500	3.741600	-11.207000	23.990577	0.001076	20.836239
642.165762	-2.998300	3.741400	-11.217000	24.025316	0.001075	20.839309
643.166162	-2.998400	3.740400	-11.213000	24.008593	0.001076	20.836289
644.167602	-3.020700	3.740300	-11.298000	23.970420	0.001074	20.833569
645.164356	-2.994500	3.741500	-11.203000	23.959595	0.001075	20.869653
646.165755	-2.979800	3.739600	-11.142000	23.932220	0.001074	20.828453
647.170131	-2.991800	3.740500	-11.190000	23.948296	0.001075	20.837462
648.169482	-3.009500	3.738600	-11.249000	23.946480	0.001075	20.833270
649.170316	-2.982100	3.740100	-11.152000	23.947898	0.001075	20.849590
650.169459	-2.991900	3.738700	-11.185000	23.960739	0.001073	20.850888
651.171600	-2.999800	3.739100	-11.216000	23.996002	0.001073	20.843576
652.172697	-3.026400	3.739200	-11.316000	23.997843	0.001073	20.837837
653.171105	-2.995500	3.737300	-11.194000	24.001277	0.001075	20.828004
654.172014	-2.982600	3.737800	-11.148000	24.028128	0.001072	20.824586
655.169826	-2.988900	3.737300	-11.169000	24.023947	0.001074	20.831773
656.167984	-2.993600	3.738500	-11.191000	24.044725	0.001074	20.845497
657.171615	-2.987400	3.738100	-11.166000	24.044800	0.001074	20.831822
658.169568	-2.994300	3.736400	-11.186000	24.055998	0.001071	20.840207
659.172725	-2.983200	3.736200	-11.145000	24.079388	0.001073	20.840906
660.174014	-2.991200	3.736800	-11.175000	24.058760	0.001073	20.831598
661.172166	-2.998300	3.735600	-11.200000	24.094342	0.001074	20.835990
662.170485	-2.991400	3.736200	-11.175000	24.113626	0.001072	20.833519
663.171249	-2.992100	3.735300	-11.175000	24.102056	0.001073	20.844200
664.172059	-2.977800	3.735300	-11.122000	24.122683	0.001074	20.829327
665.175697	-2.993600	3.735700	-11.182000	24.132313	0.001074	20.821915
666.174532	-3.015000	3.733900	-11.257000	24.153412	0.001074	20.843551
667.178401	-3.001000	3.734000	-11.204000	24.139056	0.001074	20.819670
668.178229	-3.003500	3.732700	-11.210000	24.149630	0.001073	20.843551
669.175385	-3.016600	3.732600	-11.259000	24.138906	0.001072	20.824735
670.177018	-3.008700	3.732000	-11.226000	24.122484	0.001073	20.813007
671.175036	-3.021600	3.732600	-11.278000	24.126242	0.001072	20.816775
672.175760	-2.998400	3.731500	-11.188000	24.132213	0.001072	20.822290
673.173934	-3.015500	3.731400	-11.252000	24.141270	0.001072	20.821891
674.175472	-3.006700	3.731400	-11.217000	24.129725	0.001072	20.842079
675.175535	-3.014200	3.732200	-11.249000	24.124550	0.001074	20.831673
676.178473	-2.995900	3.730900	-11.176000	24.139155	0.001072	20.818821
677.177079	-3.006500	3.729200	-11.210000	24.131766	0.001071	20.805720
678.177051	-2.997000	3.730200	-11.179000	24.108824	0.001071	20.822066
679.175256	-3.029200	3.730300	-11.299000	24.114672	0.001073	20.816550
680.176578	-3.014800	3.729800	-11.243000	24.112806	0.001070	20.804248
681.177683	-3.012700	3.729500	-11.235000	24.107655	0.001071	20.818048
682.176770	-2.994700	3.729100	-11.166000	24.115567	0.001072	20.832621
683.188473	-2.980000	3.729100	-11.112000	24.096657	0.001069	20.828828
684.181101	-3.029400	3.727400	-11.291000	24.090984	0.001071	20.831673
685.185614	-3.001700	3.727800	-11.189000	24.061796	0.001072	20.846022
686.186236	-3.008200	3.729000	-11.217000	24.045721	0.001073	20.819944
687.180481	-3.000800	3.728500	-11.188000	24.060627	0.001072	20.805970
688.180167	-3.007200	3.727100	-11.206000	24.067021	0.001072	20.824711
689.184318	-3.000000	3.728600	-11.185000	24.074860	0.001070	20.829727
690.185375	-3.007800	3.728700	-11.213000	24.076253	0.001071	20.831598
691.179687	-3.020300	3.726800	-11.255000	24.077000	0.001069	20.817649
692.182939	-3.001700	3.725900	-11.183000	24.083494	0.001069	20.820369
693.181574	-2.998100	3.726300	-11.171000	24.099295	0.001068	20.811086
694.180816	-3.005300	3.726800	-11.199000	24.101186	0.001071	20.821991
695.182618	-3.003900	3.725600	-11.190000	24.119027	0.001068	20.804323
696.182280	-3.008900	3.726300	-11.209000	24.084589	0.001068	20.820045
697.181523	-3.000500	3.724400	-11.174000	24.094045	0.001070	20.806769
698.183601	-3.017300	3.724600	-11.237000	24.070979	0.001069	20.813981
699.185933	-2.989000	3.725500	-11.134000	24.117832	0.001068	20.812608
700.183104	-3.027900	3.723900	-11.273000	24.123705	0.001069	20.797635
701.190022	-2.991000	3.723500	-11.136000	24.139256	0.001068	20.810862
702.186043	-3.006700	3.723900	-11.195000	24.107731	0.001068	20.817175
703.186023	-2.977500	3.724800	-11.089000	24.091184	0.001069	20.807692
704.191475	-3.002200	3.723500	-11.177000	24.128308	0.001066	20.807942
705.185130	-2.988400	3.724300	-11.128000	24.107656	0.001068	20.828480
706.187175	-3.020600	3.722200	-11.241000	24.152817	0.001067	20.810238
707.186636	-3.009100	3.722500	-11.201000	24.179663	0.001066	20.807293
708.192079	-3.017800	3.722600	-11.233000	24.182102	0.001066	20.808316
709.188635	-3.019500	3.721900	-11.237000	24.217258	0.001068	20.800905
710.187875	-3.018300	3.721100	-11.230000	24.222060	0.001066	20.821368
711.192765	-2.996200	3.721400	-11.149000	24.185536	0.001065	20.813183
712.191296	-3.011600	3.720700	-11.204000	24.160082	0.001065	20.805198
713.189326	-3.016000	3.720700	-11.221000	24.117634	0.001065	20.801978
714.191151	-2.989000	3.720700	-11.120000	24.113977	0.001066	20.804474
715.190062	-3.011400	3.721600	-11.207000	24.113927	0.001065	20.816278
716.190055	-3.002100	3.720200	-11.168000	24.101461	0.001065	20.803301
717.188066	-3.014300	3.719900	-11.211000	24.105716	0.001064	20.823689
718.190145	-2.996900	3.718900	-11.144000	24.094320	0.001064	20.796613
719.192112	-2.998800	3.719500	-11.153000	24.091309	0.001065	20.807344
720.190841	-2.990900	3.719600	-11.123000	24.078594	0.001064	20.799808
721.193429	-2.990900	3.720100	-11.125000	24.113654	0.001064	20.820745
722.195245	-3.012600	3.718400	-11.200000	24.085761	0.001063	20.806995
723.193991	-2.999300	3.718000	-11.150000	24.073792	0.001062	20.784560
724.191146	-3.021900	3.717700	-11.234000	24.074488	0.001064	20.804225
725.201009	-2.991900	3.717500	-11.121000	24.065605	0.001060	20.798635
726.191187	-3.022000	3.716900	-11.232000	24.059534	0.001063	20.785433
727.193375	-3.000600	3.716900	-11.152000	24.088572	0.001062	20.766192
728.194725	-3.015600	3.716900	-11.208000	24.077499	0.001062	20.795391
729.192061	-3.024700	3.717000	-11.242000	24.117386	0.001061	20.801729
730.195895	-2.992100	3.716400	-11.119000	24.110394	0.001062	20.781440
731.197986	-3.012100	3.715400	-11.191000	24.115271	0.001061	20.776848
732.194962	-3.028200	3.715200	-11.250000	24.130375	0.001060	20.804799
733.196470	-2.994900	3.714500	-11.123000	24.115421	0.001058	20.779369
734.199869	-2.992200	3.715600	-11.117000	24.114574	0.001059	20.775676
735.195746	-3.006900	3.715300	-11.170000	24.139755	0.001060	20.770110
736.201937	-2.995500	3.714800	-11.126000	24.144557	0.001060	20.809540
737.203824	-2.994200	3.715100	-11.122000	24.159834	0.001060	20.779344
738.197675	-2.991100	3.714700	-11.110000	24.170608	0.001061	20.780667
739.196888	-3.025200	3.713000	-11.232000	24.165159	0.001059	20.764770
740.201288	-3.015900	3.712200	-11.195000	24.180560	0.001058	20.775476
741.202794	-3.011900	3.712400	-11.180000	24.186930	0.001057	20.788503
742.199651	-2.996700	3.713000	-11.126000	24.171280	0.001059	20.806471
743.205404	-3.012000	3.712000	-11.179000	24.178122	0.001055	20.800057
744.198921	-3.002000	3.712700	-11.143000	24.199643	0.001058	20.781815
745.199112	-2.997900	3.712000	-11.127000	24.215492	0.001057	20.789651
746.198608	-3.000400	3.711500	-11.134000	24.244302	0.001059	20.757383
747.200646	-3.003200	3.711900	-11.147000	24.273660	0.001056	20.783037
748.198229	-2.996800	3.710900	-11.120000	24.259006	0.001056	20.779244
749.199205	-3.005600	3.710800	-11.151000	24.259877	0.001056	20.800506
750.198293	-2.982700	3.711000	-11.068000	24.274356	0.001057	20.778995
751.196625	-2.988000	3.710500	-11.086000	24.290353	0.001057	20.798834
752.197842	-2.993000	3.710300	-11.104000	24.284457	0.001054	20.805722
753.200054	-2.984500	3.710300	-11.073000	24.247661	0.001056	20.778296
754.201635	-3.005900	3.710100	-11.150000	24.271669	0.001055	20.782938
755.200677	-3.008900	3.708800	-11.158000	24.235246	0.001055	20.783861
756.200840	-2.994900	3.708700	-11.106000	24.217183	0.001053	20.783761
757.199728	-3.017600	3.708700	-11.191000	24.181082	0.001056	20.757033
758.200522	-3.027300	3.707100	-11.221000	24.204495	0.001053	20.762024
759.206474	-3.018000	3.707800	-11.190000	24.217805	0.001054	20.765892
760.202136	-3.010800	3.708300	-11.163000	24.222110	0.001054	20.787754
761.199915	-2.995800	3.708600	-11.110000	24.213426	0.001054	20.778096
762.203423	-2.997400	3.708100	-11.113000	24.202778	0.001053	20.776898
763.204626	-2.986300	3.707700	-11.072000	24.242162	0.001053	20.781789
764.201360	-3.010600	3.706300	-11.157000	24.293064	0.001052	20.773578
765.204705	-2.995700	3.706500	-11.103000	24.273236	0.001052	20.779768
766.215873	-2.979500	3.706400	-11.042000	24.293661	0.001053	20.770384
767.200657	-2.986800	3.705600	-11.067000	24.285725	0.001051	20.772380
768.204914	-2.989600	3.705900	-11.078000	24.309458	0.001053	20.774851
769.203593	-2.998900	3.705200	-11.111000	24.334983	0.001051	20.767738
770.205314	-2.977400	3.706300	-11.034000	24.336500	0.001054	20.760252
771.202841	-3.003400	3.705800	-11.129000	24.314608	0.001049	20.804673
772.201656	-2.994300	3.704900	-11.092000	24.323166	0.001051	20.775799
773.202533	-2.985500	3.704800	-11.060000	24.336948	0.001050	20.760701
774.200737	-2.995700	3.703900	-11.095000	24.311647	0.001052	20.759977
775.207003	-3.006100	3.705300	-11.138000	24.317916	0.001050	20.759153
776.203309	-3.013200	3.703300	-11.158000	24.295999	0.001050	20.779842
777.203692	-3.007300	3.703400	-11.137000	24.310677	0.001049	20.769435
778.201761	-3.005900	3.703800	-11.133000	24.321449	0.001050	20.760800
779.204221	-2.998800	3.703900	-11.107000	24.345182	0.001050	20.756632
780.203750	-2.996100	3.703300	-11.094000	24.357744	0.001049	20.753588
781.204019	-3.032200	3.702300	-11.225000	24.389810	0.001047	20.763470
782.205418	-3.017200	3.702800	-11.170000	24.377621	0.001048	20.767838
783.204262	-2.998200	3.701600	-11.098000	24.373715	0.001048	20.768187
784.206404	-3.005100	3.701800	-11.122000	24.386899	0.001050	20.756757
785.204407	-2.978900	3.702900	-11.028000	24.368391	0.001048	20.755259
786.204224	-2.995700	3.700900	-11.085000	24.380655	0.001048	20.769459
787.207110	-3.018500	3.699100	-11.165000	24.392620	0.001047	20.765342
788.205209	-3.003300	3.699400	-11.109000	24.362396	0.001044	20.752564
789.206021	-2.987900	3.701600	-11.060000	24.363092	0.001046	20.781238
790.206063	-2.998100	3.699800	-11.091000	24.378192	0.001045	20.769834
791.212173	-3.003300	3.698700	-11.107000	24.386177	0.001045	20.755084
792.207776	-2.996700	3.699300	-11.085000	24.412720	0.001048	20.768436
793.207441	-3.005000	3.699100	-11.115000	24.405381	0.001044	20.769135
794.207097	-3.005800	3.699000	-11.118000	24.411949	0.001046	20.753437
795.210483	-3.002300	3.698800	-11.104000	24.410257	0.001046	20.760750
796.209266	-3.001600	3.697900	-11.098000	24.408764	0.001044	20.758304
797.207205	-3.005300	3.697700	-11.111000	24.397272	0.001045	20.778069
798.210516	-2.995900	3.697500	-11.076000	24.380331	0.001043	20.752539
799.216150	-3.004700	3.698000	-11.111000	24.369261	0.001044	20.764667
800.209661	-2.998400	3.697500	-11.087000	24.369933	0.001044	20.765816
801.211184	-2.986700	3.698000	-11.044000	24.378739	0.001041	20.772753
802.208994	-2.998700	3.697400	-11.086000	24.384237	0.001045	20.753612
803.207727	-2.999000	3.697500	-11.088000	24.372147	0.001044	20.772778
804.210295	-3.004800	3.697100	-11.108000	24.365804	0.001044	20.755034
805.210873	-2.998000	3.697900	-11.085000	24.381376	0.001042	20.772553
806.207201	-2.986600	3.696400	-11.039000	24.385729	0.001043	20.749893
807.214833	-3.001100	3.696000	-11.091000	24.404461	0.001042	20.765840
808.208546	-2.994700	3.696400	-11.068000	24.408366	0.001041	20.763594
809.208625	-3.017400	3.694500	-11.147000	24.406874	0.001044	20.780589
810.208704	-3.008200	3.695000	-11.114000	24.407048	0.001041	20.769858
811.213278	-2.991300	3.695900	-11.054000	24.404784	0.001041	20.785605
812.213982	-3.005100	3.694300	-11.100000	24.410307	0.001041	20.772653
813.211954	-3.008600	3.695700	-11.117000	24.397595	0.001041	20.758478
814.212269	-3.003300	3.694500	-11.095000	24.417819	0.001043	20.755059
815.211471	-2.989800	3.694100	-11.044000	24.412968	0.001041	20.772479
816.210412	-3.016700	3.692500	-11.139000	24.424138	0.001041	20.752863
817.212133	-3.000500	3.693800	-11.081000	24.436774	0.001040	20.772179
818.210416	-2.990800	3.691400	-11.038000	24.436152	0.001040	20.770607
819.209426	-3.002200	3.692000	-11.084000	24.436476	0.001039	20.769983
820.207667	-2.998000	3.692100	-11.067000	24.411352	0.001041	20.764218
821.211117	-3.002700	3.691600	-11.084000	24.402994	0.001039	20.769584
822.212247	-2.986700	3.691800	-11.025000	24.394461	0.001038	20.754386
823.209992	-3.005800	3.690400	-11.092000	24.410904	0.001039	20.769934
824.212909	-3.003200	3.690900	-11.083000	24.418168	0.001038	20.749245
825.216318	-3.008500	3.691100	-11.103000	24.404412	0.001037	20.770058
826.215187	-3.020100	3.688700	-11.140000	24.406974	0.001036	20.757930
827.213929	-3.013300	3.690200	-11.119000	24.391153	0.001037	20.786629
828.212653	-3.010200	3.689400	-11.104000	24.384511	0.001037	20.779492
829.212897	-2.979000	3.690900	-10.993000	24.418292	0.001037	20.760276
830.219966	-3.010700	3.689700	-11.108000	24.429635	0.001038	20.776397
831.216646	-3.002100	3.691600	-11.081000	24.415606	0.001038	20.777496
832.214917	-2.999800	3.690800	-11.071000	24.436899	0.001038	20.782736
833.215200	-3.005900	3.689100	-11.088000	24.451998	0.001036	20.787927
834.218152	-2.987300	3.689600	-11.022000	24.460381	0.001035	20.789699
835.216034	-2.975100	3.688600	-10.972000	24.449287	0.001033	20.771457
836.214788	-2.995900	3.688800	-11.050000	24.446700	0.001035	20.788776
837.218576	-2.985000	3.688100	-11.008000	24.465207	0.001034	20.782687
838.216859	-2.997600	3.688100	-11.054000	24.489086	0.001036	20.772031
839.215845	-3.017600	3.686600	-11.123000	24.468888	0.001035	20.776897
840.219442	-2.990900	3.685900	-11.023000	24.445655	0.001034	20.769710
841.227762	-3.001300	3.687100	-11.066000	24.414960	0.001035	20.791546
842.220235	-2.996300	3.684800	-11.039000	24.415084	0.001034	20.782188
843.219934	-3.019300	3.684100	-11.122000	24.397970	0.001033	20.793468
844.218393	-2.990700	3.686100	-11.023000	24.412696	0.001034	20.793543
845.219390	-3.007900	3.685900	-11.085000	24.428467	0.001033	20.784709
846.218660	-2.983300	3.685000	-10.992000	24.429711	0.001033	20.787853
847.218060	-2.978100	3.685800	-10.976000	24.418393	0.001032	20.774602
848.216531	-2.997300	3.683700	-11.039000	24.444338	0.001033	20.785458
849.218818	-2.989900	3.685400	-11.018000	24.476575	0.001032	20.797885
850.227265	-3.031500	3.682000	-11.161000	24.455108	0.001032	20.809540
851.221405	-3.014500	3.683800	-11.102000	24.457123	0.001031	20.795914
852.220235	-3.003300	3.684700	-11.065000	24.426900	0.001031	20.804474
853.218682	-3.011200	3.683800	-11.092000	24.434214	0.001032	20.806595
854.218790	-3.015400	3.682500	-11.102000	24.439189	0.001029	20.803051
855.220714	-2.998800	3.682700	-11.043000	24.485107	0.001029	20.789850
856.221450	-3.001600	3.684200	-11.058000	24.489659	0.001030	20.811012
857.222816	-3.019000	3.682500	-11.116000	24.523064	0.001027	20.800905
858.222285	-2.999700	3.682500	-11.046000	24.550921	0.001029	20.806570
859.222435	-2.990600	3.683400	-11.014000	24.555846	0.001028	20.803451
860.222633	-2.982200	3.682800	-10.981000	24.566665	0.001029	20.787754
861.218998	-2.996800	3.681800	-11.033000	24.592258	0.001028	20.789726
862.223585	-3.012000	3.680600	-11.084000	24.621183	0.001027	20.786506
863.219420	-2.980000	3.681200	-10.969000	24.589149	0.001028	20.811736
864.218562	-2.998600	3.679800	-11.033000	24.627326	0.001027	20.804998
865.221044	-2.989300	3.681400	-11.004000	24.648018	0.001026	20.801106
866.219570	-2.987800	3.680000	-10.994000	24.614692	0.001025	20.798959
867.219369	-3.000300	3.679100	-11.037000	24.643890	0.001026	20.816877
868.221737	-2.990000	3.681200	-11.005000	24.644462	0.001026	20.813658
869.224033	-2.986500	3.679500	-10.988000	24.653092	0.001027	20.814257
870.219216	-2.989200	3.679800	-10.999000	24.626058	0.001028	20.795666
871.219474	-2.980900	3.680500	-10.970000	24.625063	0.001024	20.831651
872.222611	-3.025400	3.678900	-11.129000	24.615961	0.001027	20.803552
873.221490	-2.995100	3.679600	-11.019000	24.596263	0.001025	20.819348
874.223879	-3.008000	3.677900	-11.061000	24.613001	0.001022	20.795366
875.222823	-3.007800	3.678400	-11.063000	24.641777	0.001022	20.796739
876.224691	-2.976000	3.678700	-10.947000	24.635683	0.001024	20.819548
877.223904	-2.986100	3.678500	-10.983000	24.651302	0.001022	20.813409
878.223532	-2.990000	3.678800	-10.999000	24.656425	0.001025	20.815231
879.224429	-3.023100	3.676300	-11.113000	24.666174	0.001022	20.812686
880.225819	-3.034500	3.674600	-11.150000	24.657843	0.001022	20.809067
881.227835	-3.002100	3.675700	-11.034000	24.654983	0.001023	20.811413
882.227126	-2.997700	3.676200	-11.019000	24.664160	0.001022	20.823940
883.226161	-2.999200	3.677300	-11.027000	24.673685	0.001021	20.803153
884.226160	-3.010200	3.676300	-11.066000	24.654362	0.001021	20.842557
885.225760	-2.991400	3.676200	-10.996000	24.651825	0.001020	20.821994
886.226545	-3.009100	3.675100	-11.057000	24.620836	0.001020	20.816030
887.228606	-3.004100	3.675100	-11.039000	24.613624	0.001022	20.813535
888.230307	-2.977500	3.675600	-10.943000	24.605417	0.001019	20.825688
889.228752	-2.986300	3.675700	-10.976000	24.609719	0.001019	20.834272
890.226763	-2.990100	3.673400	-10.983000	24.602507	0.001020	20.813285
891.229930	-3.002600	3.672400	-11.026000	24.612679	0.001019	20.827759
892.231793	-2.985700	3.675000	-10.972000	24.608227	0.001019	20.826611
893.227498	-2.990300	3.673700	-10.985000	24.587609	0.001017	20.828208
894.233540	-2.980200	3.673900	-10.948000	24.583829	0.001017	20.829157
895.228972	-3.004200	3.673800	-11.034000	24.592285	0.001016	20.833848
896.230507	-3.004200	3.672000	-11.031000	24.571567	0.001017	20.816854
897.229448	-2.992200	3.672300	-10.987000	24.558211	0.001015	20.852764
898.231335	-2.999700	3.673600	-11.018000	24.554779	0.001015	20.829881
899.233156	-2.987500	3.671200	-10.966000	24.571468	0.001017	20.844255
900.227836	-2.985100	3.672000	-10.960000	24.600493	0.001016	20.842084
901.232655	-2.986400	3.670500	-10.961000	24.582983	0.001015	20.832102
902.231456	-3.002500	3.670000	-11.018000	24.619320	0.001016	20.824465
903.232058	-2.999700	3.669800	-11.007000	24.623051	0.001015	20.827261
904.233369	-3.015600	3.669400	-11.064000	24.659585	0.001014	20.837368
905.232637	-3.007000	3.669700	-11.034000	24.661028	0.001014	20.842608
906.234169	-3.034000	3.669200	-11.131000	24.659511	0.001015	20.828758
907.234279	-3.011900	3.669900	-11.052000	24.669956	0.001014	20.842084
908.237519	-2.989300	3.668800	-10.967000	24.697685	0.001013	20.836719
909.235984	-3.010900	3.668600	-11.045000	24.721012	0.001012	20.847325
910.235259	-2.988200	3.668400	-10.960000	24.703779	0.001013	20.841885
911.237579	-3.005300	3.667700	-11.022000	24.727230	0.001012	20.835072
912.240552	-2.984400	3.670200	-10.953000	24.737997	0.001014	20.857256
913.236197	-3.007300	3.667900	-11.029000	24.759235	0.001011	20.845378
914.239977	-3.012700	3.666700	-11.045000	24.771718	0.001012	20.843207
915.240549	-3.015200	3.668000	-11.057000	24.745533	0.001011	20.849646
916.239206	-3.018600	3.667000	-11.068000	24.717183	0.001011	20.829258
917.243062	-3.002400	3.668100	-11.011000	24.697785	0.001009	20.839664
918.240474	-3.021500	3.667300	-11.079000	24.668738	0.001010	20.856508
919.240557	-3.013000	3.666800	-11.047000	24.674906	0.001011	20.854636
920.244886	-3.005600	3.667100	-11.021000	24.668440	0.001009	20.857631
921.238065	-3.005100	3.666700	-11.018000	24.660133	0.001009	20.861624
922.237216	-2.981000	3.668100	-10.933000	24.659362	0.001007	20.854212
923.238876	-2.995600	3.666600	-10.982000	24.677592	0.001009	20.859703
924.240999	-2.981300	3.666100	-10.929000	24.669136	0.001007	20.840313
925.241657	-3.008000	3.664100	-11.021000	24.698233	0.001008	20.860027
926.239037	-3.004500	3.666600	-11.015000	24.673414	0.001007	20.848398
927.245184	-2.992300	3.664200	-10.963000	24.705047	0.001008	20.833201
928.239976	-2.987500	3.665300	-10.949000	24.725564	0.001007	20.859952
929.239512	-2.989700	3.664900	-10.955000	24.693508	0.001007	20.850544
930.242806	-2.989600	3.664500	-10.953000	24.702088	0.001005	20.869110
931.244985	-3.012800	3.663300	-11.035000	24.711612	0.001004	20.849746
932.242866	-2.997600	3.662800	-10.979000	24.730239	0.001006	20.843782
933.245201	-3.003300	3.664000	-11.003000	24.725091	0.001006	20.853314
934.242394	-2.981900	3.664500	-10.925000	24.736705	0.001004	20.856907
935.241496	-3.005000	3.663200	-11.006000	24.711936	0.001004	20.870458
936.241744	-2.994200	3.662200	-10.965000	24.707783	0.001005	20.859652
937.245100	-2.981300	3.663200	-10.919000	24.727578	0.001004	20.859128
938.242620	-2.979700	3.663100	-10.913000	24.717606	0.001005	20.873776
939.241861	-3.002300	3.660200	-10.989000	24.726235	0.001005	20.867263
940.242965	-2.984500	3.662300	-10.929000	24.690797	0.001001	20.857781
941.243725	-2.987900	3.661300	-10.939000	24.684082	0.001002	20.852465
942.243700	-2.986300	3.660800	-10.931000	24.665704	0.001000	20.865791
943.251928	-3.000800	3.660900	-10.985000	24.692016	0.001001	20.864219
944.246247	-2.985000	3.660800	-10.927000	24.700894	0.001002	20.862697
945.245801	-3.019600	3.659800	-11.050000	24.684256	0.001000	20.861174
946.245130	-3.021500	3.658700	-11.053000	24.687067	0.001001	20.856882
947.246377	-3.002900	3.658800	-10.986000	24.679457	0.001001	20.858255
948.246717	-3.010800	3.657600	-11.012000	24.695149	0.001000	20.878742
949.247295	-3.007400	3.658400	-11.001000	24.688907	0.001001	20.864418
950.250193	-3.003700	3.658600	-10.988000	24.740758	0.001002	20.858604
951.248488	-3.011700	3.658400	-11.017000	24.731606	0.000999	20.850369
952.248395	-3.017600	3.656100	-11.032000	24.711787	0.001000	20.870308
953.248857	-3.005100	3.657600	-10.991000	24.699551	0.001002	20.876995
954.249463	-3.010200	3.657400	-11.008000	24.704674	0.000999	20.867912
955.248883	-3.010100	3.656900	-11.007000	24.728548	0.001000	20.865317
956.250061	-3.006400	3.657800	-10.994000	24.706987	0.000999	20.863595
957.249485	-2.989600	3.657000	-10.932000	24.703878	0.000999	20.871381
958.251920	-2.999000	3.655200	-10.961000	24.658019	0.000996	20.869459
959.248685	-2.978100	3.657800	-10.892000	24.669161	0.000996	20.868311
960.253094	-2.974100	3.656900	-10.874000	24.656402	0.000994	20.884905
961.253265	-2.975700	3.656800	-10.880000	24.684605	0.000996	20.872903
962.257748	-3.000300	3.655400	-10.965000	24.691518	0.000996	20.861349
963.255063	-3.001400	3.653800	-10.966000	24.693085	0.000997	20.886627
964.257951	-2.996700	3.656100	-10.954000	24.713950	0.000994	20.877220
965.257175	-3.020000	3.652900	-11.030000	24.730115	0.000995	20.895811
966.256403	-3.029400	3.653400	-11.066000	24.718899	0.000995	20.871755
967.253392	-2.982000	3.653600	-10.894000	24.724295	0.000994	20.882385
968.255672	-3.001100	3.652900	-10.962000	24.707459	0.000994	20.884931
969.256657	-2.985400	3.654100	-10.907000	24.698905	0.000994	20.884407
970.256497	-2.995800	3.652600	-10.941000	24.694652	0.000994	20.885829
971.254806	-3.000600	3.653000	-10.960000	24.707186	0.000995	20.893191
972.255773	-2.990900	3.652100	-10.922000	24.704873	0.000991	20.895137
973.257152	-2.988900	3.652800	-10.917000	24.730587	0.000992	20.892017
974.263988	-2.990600	3.652900	-10.923000	24.724196	0.000993	20.876122
975.257025	-3.013800	3.653000	-11.008000	24.752968	0.000992	20.892666
976.258656	-2.994400	3.651000	-10.931000	24.767839	0.000992	20.883409
977.256600	-2.994400	3.652200	-10.934000	24.786042	0.000992	20.893615
978.257332	-2.987800	3.651400	-10.909000	24.789200	0.000989	20.889672
979.262835	-3.021200	3.651100	-11.029000	24.783829	0.000989	20.898980
980.257257	-2.997300	3.650800	-10.942000	24.802205	0.000990	20.909834
981.267356	-3.006100	3.651000	-10.973000	24.829285	0.000989	20.881537
982.258293	-3.011900	3.650100	-10.993000	24.828141	0.000990	20.887027
983.257837	-3.005200	3.649400	-10.965000	24.849177	0.000989	20.902448
984.257816	-3.004600	3.650400	-10.967000	24.852136	0.000990	20.918692
985.256382	-2.995000	3.649900	-10.931000	24.853031	0.000989	20.888774
986.262617	-2.996500	3.648400	-10.931000	24.835476	0.000986	20.883957
987.260612	-3.017900	3.648100	-11.009000	24.841245	0.000986	20.907289
988.256758	-3.003800	3.647700	-10.956000	24.885331	0.000987	20.911705
989.259972	-2.988900	3.648000	-10.903000	24.889085	0.000987	20.905991
990.256225	-3.025400	3.647900	-11.036000	24.918052	0.000988	20.890969
991.256224	-3.010900	3.646000	-10.977000	24.921060	0.000987	20.868860
992.262945	-3.016800	3.646900	-11.001000	24.928296	0.000985	20.903146
993.257942	-3.024300	3.647300	-11.029000	24.924915	0.000986	20.914925
994.258072	-3.017100	3.646000	-10.998000	24.918275	0.000986	20.917270
995.266460	-2.980400	3.647500	-10.870000	24.930882	0.000985	20.917594
996.262136	-2.976200	3.647400	-10.855000	24.939733	0.000984	20.923159
997.261305	-2.967000	3.648400	-10.824000	24.931180	0.000984	20.925953
998.260451	-2.979600	3.648200	-10.869000	24.899379	0.000985	20.907787
999.261923	-3.003100	3.645100	-10.946000	24.907410	0.000982	20.902098
1000.262108	-2.984800	3.647100	-10.885000	24.929091	0.000982	20.921961
1001.260860	-3.005400	3.644500	-10.952000	24.921607	0.000981	20.916820
1002.268436	-3.006200	3.644700	-10.956000	24.888960	0.000981	20.919615
1003.266217	-2.992700	3.644700	-10.907000	24.847063	0.000981	20.898430
1004.263432	-3.023300	3.643700	-11.015000	24.835624	0.000981	20.924880
1005.264936	-3.007700	3.644500	-10.960000	24.856636	0.000982	20.932690
1006.262100	-2.996900	3.644600	-10.921000	24.845074	0.000981	20.904494
1007.265328	-2.992000	3.644000	-10.902000	24.860639	0.000980	20.923906
1008.263988	-3.022300	3.641100	-11.003000	24.856288	0.000979	20.910532
1009.265445	-3.004100	3.641600	-10.939000	24.896867	0.000980	20.917119
1010.262550	-3.034800	3.640500	-11.046000	24.895848	0.000980	20.896658
1011.264246	-2.983400	3.644200	-10.871000	24.885355	0.000978	20.915522
1012.265747	-2.999700	3.643200	-10.928000	24.895549	0.000980	20.911530
1013.268272	-2.987400	3.642400	-10.880000	24.909125	0.000978	20.909509
1014.264310	-3.006600	3.641400	-10.946000	24.901890	0.000978	20.913152
1015.264724	-3.007700	3.641300	-10.951000	24.911288	0.000977	20.917369
1016.266547	-2.992900	3.641200	-10.897000	24.930881	0.000978	20.900051
1017.265571	-3.004200	3.639700	-10.933000	24.944133	0.000978	20.914774
1018.269224	-3.000400	3.640100	-10.921000	24.943934	0.000979	20.896084
1019.265066	-3.000700	3.638600	-10.917000	24.929961	0.000975	20.902447
1020.264623	-2.999600	3.639800	-10.917000	24.902784	0.000975	20.877069
1021.268401	-3.019100	3.638600	-10.984000	24.892590	0.000977	20.892915
1022.264837	-3.003500	3.638600	-10.926000	24.856586	0.000975	20.891867
1023.267550	-3.002500	3.639000	-10.926000	24.835749	0.000974	20.880438
1024.267297	-3.011200	3.639300	-10.957000	24.827443	0.000975	20.906714
1025.271263	-3.014200	3.638400	-10.965000	24.812449	0.000972	20.902571
1026.267760	-3.013900	3.637400	-10.962000	24.845720	0.000971	20.884281
1027.263958	-2.990100	3.638300	-10.878000	24.878218	0.000973	20.889396
1028.283684	-2.986800	3.637800	-10.864000	24.879064	0.000974	20.876969
1029.263661	-2.993000	3.637100	-10.885000	24.898458	0.000972	20.887899
1030.263950	-3.017600	3.637100	-10.975000	24.915266	0.000973	20.894337
1031.267409	-3.004600	3.635400	-10.921000	24.920239	0.000971	20.880363
1032.265869	-2.987500	3.638300	-10.868000	24.926530	0.000972	20.879564
1033.266400	-2.981700	3.635800	-10.840000	24.893237	0.000972	20.877444
1034.265547	-3.011500	3.635200	-10.946000	24.898582	0.000970	20.900825
1035.267194	-2.998700	3.635900	-10.901000	24.893933	0.000969	20.876720
1036.272525	-2.987900	3.634900	-10.860000	24.909945	0.000971	20.885204
1037.266193	-3.000900	3.634100	-10.905000	24.903705	0.000969	20.869933
1038.271359	-3.006700	3.634100	-10.926000	24.941572	0.000968	20.882809
1039.269189	-3.018700	3.634500	-10.970000	24.915242	0.000968	20.878192
1040.268881	-3.009400	3.634400	-10.936000	24.893734	0.000966	20.897856
1041.269182	-3.014800	3.633000	-10.951000	24.902486	0.000967	20.899528
1042.268020	-3.021000	3.634000	-10.978000	24.886623	0.000968	20.888822
1043.270049	-3.002900	3.633000	-10.908000	24.852060	0.000967	20.865516
1044.269799	-2.999300	3.634200	-10.899000	24.825802	0.000965	20.860974
1045.270725	-3.009800	3.632500	-10.932000	24.810112	0.000964	20.878417
1046.269341	-2.988300	3.633000	-10.856000	24.831820	0.000963	20.867961
1047.269270	-3.014500	3.631700	-10.947000	24.820382	0.000965	20.880189
1048.271745	-2.985200	3.632800	-10.843000	24.858078	0.000965	20.852116
1049.276218	-2.978800	3.634200	-10.824000	24.866781	0.000965	20.876496
1050.275114	-2.973600	3.632600	-10.801000	24.900572	0.000964	20.883383
1051.274538	-2.974500	3.631600	-10.801000	24.889358	0.000963	20.879715
1052.293014	-3.012100	3.629500	-10.931000	24.900696	0.000965	20.851741
1053.274277	-3.012200	3.630500	-10.935000	24.906166	0.000962	20.845852
1054.277828	-3.001700	3.630900	-10.897000	24.921706	0.000963	20.860500
1055.275877	-2.999800	3.630600	-10.890000	24.923298	0.000960	20.848348
1056.278487	-3.003700	3.630100	-10.902000	24.938564	0.000962	20.868411
1057.272593	-3.009100	3.628800	-10.918000	24.937893	0.000962	20.861573
1058.275100	-2.982000	3.630300	-10.824000	24.931751	0.000961	20.873426
1059.276228	-2.984800	3.630400	-10.835000	24.978519	0.000961	20.868211
1060.273333	-2.984300	3.628700	-10.829000	24.959623	0.000960	20.863944
1061.274404	-2.996300	3.628000	-10.870000	24.958007	0.000960	20.861848
1062.275730	-2.998100	3.628000	-10.876000	24.976108	0.000960	20.852041
1063.276092	-2.987700	3.628600	-10.840000	24.999702	0.000958	20.861973
1064.272956	-2.989100	3.627800	-10.843000	25.017900	0.000960	20.858429
1065.275062	-2.998800	3.627500	-10.876000	25.005867	0.000958	20.866265
1066.275757	-2.985700	3.628300	-10.832000	25.018199	0.000958	20.841660
1067.277516	-3.003500	3.625800	-10.888000	25.024887	0.000956	20.852166
1068.276197	-3.017600	3.626700	-10.943000	25.010368	0.000959	20.858454
1069.277358	-3.009800	3.628000	-10.919000	25.014892	0.000958	20.861099
1070.280367	-3.005100	3.625400	-10.894000	25.016384	0.000958	20.839365
1071.277902	-3.019300	3.626100	-10.947000	25.016360	0.000956	20.863995
1072.282671	-2.990700	3.627100	-10.847000	25.000572	0.000957	20.849097
1073.280049	-2.998200	3.626600	-10.872000	24.998658	0.000957	20.872778
1074.282804	-2.977400	3.626600	-10.796000	25.009497	0.000955	20.851891
1075.282211	-3.004100	3.623900	-10.885000	25.020089	0.000955	20.833126
1076.276341	-3.000500	3.623400	-10.871000	25.046641	0.000956	20.835122
1077.279165	-3.013800	3.624800	-10.922000	25.045646	0.000955	20.867788
1078.277382	-2.983500	3.623800	-10.810000	25.046939	0.000954	20.852017
1079.282660	-3.009500	3.623300	-10.904000	25.070731	0.000952	20.853139
1080.279041	-2.984800	3.624700	-10.818000	25.041917	0.000952	20.817105
1081.281369	-2.992200	3.624300	-10.844000	25.048157	0.000952	20.845653
1082.280068	-2.985500	3.624500	-10.820000	25.042663	0.000953	20.861948
1083.280231	-3.000700	3.622800	-10.870000	25.028691	0.000950	20.834648
1084.280468	-3.001400	3.621600	-10.869000	25.032619	0.000950	20.849022
1085.280625	-3.010500	3.621800	-10.903000	25.040052	0.000952	20.828035
1086.282119	-3.020300	3.621400	-10.936000	25.007583	0.000948	20.841910
1087.282934	-2.994700	3.621400	-10.844000	25.020412	0.000947	20.839140
1088.286217	-3.003200	3.619400	-10.869000	24.983815	0.000949	20.850769
1089.281798	-2.976100	3.620500	-10.774000	24.982523	0.000946	20.841885
1090.284763	-2.994900	3.619800	-10.840000	24.978370	0.000949	20.846726
1091.282812	-3.014000	3.618500	-10.905000	24.997440	0.000948	20.855435
1092.283824	-3.007300	3.619200	-10.883000	25.003879	0.000947	20.864269
1093.286313	-3.003600	3.618700	-10.868000	24.995451	0.000948	20.817404
1094.287756	-2.992600	3.619600	-10.830000	24.994481	0.000946	20.829233
1095.284059	-2.987500	3.620200	-10.813000	25.006265	0.000946	20.842010
1096.285355	-3.005400	3.618900	-10.876000	25.039332	0.000945	20.835846
1097.292210	-3.007100	3.618400	-10.879000	25.071252	0.000947	20.819999
1098.285121	-2.992800	3.617300	-10.826000	25.067200	0.000944	20.814984
1099.283869	-3.003500	3.617100	-10.863000	25.052980	0.000943	20.842908
1100.294920	-3.007800	3.616800	-10.877000	25.047510	0.000943	20.840263
1101.289310	-3.007500	3.617200	-10.877000	25.052209	0.000945	20.847824
1102.287426	-3.009700	3.617800	-10.887000	25.033613	0.000943	20.831055
1103.288893	-3.011500	3.616400	-10.890000	25.009348	0.000943	20.836569
1104.285530	-3.003300	3.616700	-10.861000	25.017677	0.000942	20.822170
1105.284227	-3.014000	3.616200	-10.898000	25.007384	0.000943	20.841710
1106.284758	-2.995200	3.617500	-10.834000	24.987121	0.000941	20.851242
1107.287982	-2.997100	3.615500	-10.834000	25.024588	0.000941	20.827685
1108.287271	-3.007600	3.614700	-10.871000	25.046192	0.000941	20.821396
1109.289000	-2.993800	3.616100	-10.824000	25.048853	0.000943	20.818851
1110.291841	-2.976900	3.616700	-10.765000	25.076373	0.000940	20.843157
1111.290550	-2.989400	3.615400	-10.806000	25.089276	0.000940	20.840462
1112.294204	-2.976400	3.615400	-10.759000	25.110679	0.000940	20.828758
1113.294402	-2.985800	3.613900	-10.790000	25.115974	0.000939	20.830280
1114.296712	-3.005100	3.614300	-10.860000	25.120922	0.000939	20.813436
1115.296285	-3.000700	3.613800	-10.841000	25.120101	0.000938	20.837741
1116.294129	-3.004300	3.614500	-10.858000	25.098448	0.000937	20.845402
1117.293935	-2.991600	3.612300	-10.806000	25.112071	0.000937	20.814508
1118.292678	-2.972800	3.613400	-10.741000	25.120399	0.000938	20.821920
1119.298421	-3.004200	3.611700	-10.850000	25.085198	0.000936	20.824516
1120.293637	-2.988400	3.612700	-10.795000	25.078088	0.000936	20.817852
1121.298312	-2.964200	3.611600	-10.704000	25.083334	0.000936	20.824066
1122.297109	-2.979600	3.612000	-10.761000	25.047708	0.000934	20.849944
1123.291123	-3.006600	3.609900	-10.853000	25.043333	0.000935	20.819474
1124.296401	-2.992000	3.611000	-10.803000	25.048206	0.000933	20.827685
1125.292305	-3.036300	3.608500	-10.955000	25.067473	0.000933	20.816679
1126.292503	-2.997100	3.610900	-10.820000	25.083980	0.000932	20.821870
1127.295236	-2.996200	3.609700	-10.815000	25.093849	0.000933	20.813286
1128.293005	-2.979600	3.610400	-10.755000	25.084030	0.000932	20.817178
1129.293301	-3.017800	3.607500	-10.885000	25.113737	0.000930	20.801956
1130.294798	-3.003900	3.609100	-10.840000	25.120275	0.000930	20.806148
1131.294753	-3.013600	3.607800	-10.871000	25.118137	0.000928	20.814908
1132.294407	-2.997300	3.608000	-10.813000	25.147769	0.000930	20.800558
1133.300422	-2.995600	3.607100	-10.804000	25.107224	0.000930	20.809168
1134.296072	-2.990300	3.609700	-10.793000	25.115726	0.000928	20.824341
1135.294922	-3.007800	3.607200	-10.849000	25.175287	0.000929	20.813959
1136.300078	-3.010800	3.606800	-10.859000	25.165642	0.000927	20.823717
1137.293852	-3.020100	3.605000	-10.886000	25.201885	0.000927	20.828333
1138.296477	-2.996900	3.605800	-10.806000	25.149161	0.000928	20.823766
1139.300594	-2.994300	3.607000	-10.800000	25.114234	0.000925	20.816679
1140.300558	-3.002800	3.605200	-10.825000	25.112071	0.000926	20.798861
1141.298646	-2.993800	3.606600	-10.797000	25.118261	0.000926	20.797489
1142.304117	-2.994500	3.604600	-10.792000	25.109163	0.000926	20.814907
1143.297567	-2.993400	3.605400	-10.791000	25.120573	0.000924	20.801706
1144.300992	-3.000600	3.603200	-10.810000	25.135240	0.000921	20.800783
1145.299545	-2.996500	3.603300	-10.796000	25.121145	0.000925	20.815556
1146.297600	-3.005000	3.604900	-10.831000	25.109734	0.000923	20.827335
1147.296032	-2.987100	3.605400	-10.769000	25.094072	0.000922	20.802130
1148.299275	-2.987800	3.603200	-10.763000	25.098448	0.000923	20.808893
1149.296509	-3.015400	3.604300	-10.867000	25.112319	0.000921	20.793895
1150.301199	-2.987100	3.603600	-10.764000	25.115576	0.000921	20.811862
1151.304085	-2.973800	3.603200	-10.712000	25.099989	0.000920	20.813759
1152.299187	-2.989500	3.603400	-10.772000	25.101257	0.000918	20.810764
1153.300193	-2.988600	3.602500	-10.766000	25.061381	0.000921	20.804401
1154.298768	-2.992700	3.602400	-10.779000	25.061804	0.000921	20.798187
1155.300811	-2.983100	3.602900	-10.746000	25.082363	0.000917	20.802229
1156.301635	-3.018100	3.600500	-10.866000	25.086763	0.000919	20.808543
1157.301702	-2.995100	3.601000	-10.784000	25.106179	0.000918	20.781566
1158.302102	-2.996000	3.600200	-10.784000	25.092282	0.000916	20.782315
1159.302858	-3.001400	3.600100	-10.804000	25.102673	0.000918	20.788953
1160.300027	-3.010500	3.599200	-10.835000	25.161465	0.000915	20.788704
1161.297921	-2.981800	3.601400	-10.738000	25.158009	0.000917	20.794717
1162.300020	-2.992300	3.599900	-10.771000	25.170289	0.000916	20.802304
1163.299996	-3.012100	3.597400	-10.834000	25.184334	0.000915	20.782739
1164.300811	-3.017000	3.599500	-10.857000	25.187938	0.000915	20.790150
1165.303594	-3.006200	3.598400	-10.817000	25.190325	0.000915	20.780692
1166.302689	-3.001700	3.597100	-10.796000	25.173322	0.000913	20.810564
1167.303236	-3.012000	3.599100	-10.839000	25.165964	0.000913	20.800332
1168.304053	-3.010900	3.596400	-10.827000	25.161290	0.000912	20.795166
1169.306114	-3.008200	3.596600	-10.818000	25.148016	0.000911	20.809341
1170.302194	-2.992300	3.597900	-10.766000	25.119552	0.000912	20.783138
1171.309595	-3.002200	3.596000	-10.794000	25.158779	0.000910	20.789801
1172.301958	-3.003300	3.596400	-10.800000	25.121616	0.000910	20.777148
1173.302464	-3.034700	3.593400	-10.904000	25.120074	0.000912	20.794567
1174.308309	-3.030500	3.595100	-10.894000	25.094742	0.000909	20.780517
1175.301610	-3.002900	3.595800	-10.796000	25.101778	0.000909	20.761975
1176.307981	-2.991300	3.596000	-10.755000	25.085270	0.000909	20.750619
1177.306736	-2.983800	3.593800	-10.722000	25.130117	0.000907	20.770035
1178.304246	-2.998900	3.595000	-10.780000	25.121988	0.000907	20.786057
1179.306315	-3.001700	3.593200	-10.785000	25.137177	0.000907	20.756734
1180.305707	-2.995800	3.593200	-10.763000	25.129023	0.000909	20.788852
1181.306021	-2.985600	3.595000	-10.733000	25.098968	0.000907	20.797561
1182.310628	-2.985600	3.593700	-10.729000	25.105978	0.000907	20.783736
1183.308966	-2.978300	3.592200	-10.698000	25.089272	0.000907	20.778345
1184.309304	-3.005500	3.593000	-10.798000	25.082734	0.000905	20.776049
1185.311595	-2.999700	3.593900	-10.779000	25.093349	0.000905	20.767739
1186.307011	-2.988800	3.592600	-10.737000	25.098769	0.000904	20.779344
1187.308491	-3.002100	3.592000	-10.782000	25.104437	0.000904	20.786930
1188.309891	-3.018900	3.591400	-10.842000	25.096656	0.000903	20.757781
1189.307357	-3.003800	3.591300	-10.786000	25.084325	0.000904	20.775750
1190.306249	-2.989100	3.590600	-10.731000	25.106276	0.000901	20.776449
1191.311810	-2.973300	3.593100	-10.682000	25.134865	0.000901	20.758680
1192.306873	-2.992000	3.589800	-10.740000	25.152738	0.000901	20.779468
1193.306855	-3.018100	3.589800	-10.833000	25.130713	0.000901	20.759254
1194.308327	-3.034900	3.588700	-10.890000	25.087980	0.000902	20.766616
1195.307754	-2.984900	3.588800	-10.711000	25.082386	0.000900	20.775226
1196.307455	-3.026200	3.588900	-10.859000	25.112094	0.000901	20.766641
1197.308940	-2.982400	3.588600	-10.702000	25.108240	0.000897	20.758031
1198.307040	-2.997500	3.588400	-10.756000	25.076991	0.000898	20.763172
1199.307097	-2.989200	3.589600	-10.729000	25.142248	0.000899	20.757557
1200.313428	-3.011200	3.587200	-10.801000	25.144187	0.000898	20.751917
1201.308413	-3.001300	3.587700	-10.766000	25.171332	0.000896	20.774901
1202.308396	-3.023700	3.585800	-10.842000	25.143789	0.000898	20.767639
1203.310786	-3.012100	3.586600	-10.802000	25.096332	0.000895	20.771682
1204.311716	-3.001800	3.586200	-10.764000	25.117687	0.000896	20.752815
1205.311236	-2.993200	3.587300	-10.737000	25.081690	0.000895	20.774053
1206.311017	-3.013100	3.587000	-10.806000	25.114430	0.000897	20.780367
1207.311743	-2.995600	3.585500	-10.739000	25.115375	0.000894	20.773254
1208.313032	-2.982900	3.586100	-10.696000	25.123231	0.000894	20.775451
1209.311032	-3.013100	3.582900	-10.794000	25.120521	0.000895	20.766566
1210.310531	-3.029000	3.582900	-10.851000	25.136953	0.000893	20.766466
1211.314637	-2.987700	3.584700	-10.709000	25.144709	0.000893	20.774727
1212.315044	-3.004400	3.584400	-10.767000	25.151992	0.000894	20.747425
1213.315897	-2.969400	3.585500	-10.646000	25.175757	0.000891	20.749945
1214.311509	-3.008400	3.584200	-10.780000	25.141005	0.000891	20.743032
1215.313954	-2.994800	3.582800	-10.727000	25.134517	0.000890	20.768762
1216.313784	-2.987600	3.584400	-10.707000	25.131558	0.000891	20.761999
1217.314402	-2.998600	3.582900	-10.743000	25.126512	0.000891	20.744130
1218.316042	-2.990100	3.582800	-10.712000	25.155498	0.000889	20.742883
1219.311433	-3.005400	3.583400	-10.768000	25.181002	0.000888	20.752841
1220.313981	-2.990900	3.581100	-10.709000	25.192163	0.000887	20.756459
1221.314722	-3.023200	3.580800	-10.824000	25.190498	0.000887	20.769960
1222.314157	-2.981000	3.582500	-10.679000	25.207326	0.000888	20.749870
1223.313576	-2.997900	3.581000	-10.734000	25.213839	0.000887	20.749297
1224.315613	-2.988500	3.579300	-10.695000	25.231736	0.000887	20.760153
1225.312677	-3.009700	3.580700	-10.776000	25.242126	0.000886	20.757782
1226.314614	-3.014400	3.579700	-10.790000	25.234072	0.000886	20.734996
1227.315423	-3.014100	3.579000	-10.786000	25.271854	0.000887	20.754912
1228.316052	-3.001500	3.580900	-10.747000	25.263800	0.000883	20.764844
1229.319098	-2.993000	3.580200	-10.714000	25.252765	0.000885	20.759454
1230.319744	-3.002100	3.578700	-10.742000	25.253411	0.000883	20.734023
1231.319439	-2.984000	3.578800	-10.679000	25.246500	0.000883	20.776873
1232.321589	-3.015700	3.578400	-10.789000	25.244686	0.000882	20.761300
1233.322696	-3.017700	3.577800	-10.795000	25.261091	0.000884	20.754537
1234.319654	-2.988000	3.577800	-10.690000	25.271108	0.000883	20.744679
1235.320938	-3.003700	3.576400	-10.741000	25.266684	0.000881	20.753040
1236.320796	-3.010400	3.576500	-10.764000	25.295641	0.000881	20.762673
1237.318157	-3.003900	3.577200	-10.744000	25.295268	0.000881	20.762773
1238.318656	-2.996800	3.575200	-10.713000	25.268473	0.000881	20.746302
1239.319516	-2.983400	3.577200	-10.671000	25.256095	0.000881	20.767540
1240.319534	-2.966300	3.577500	-10.609000	25.292186	0.000879	20.760627
1241.320736	-2.982100	3.575000	-10.659000	25.305110	0.000880	20.761750
1242.321737	-3.008700	3.574000	-10.753000	25.313263	0.000879	20.752391
1243.321031	-2.998900	3.574300	-10.719000	25.289700	0.000879	20.736793
1244.320368	-3.008100	3.573200	-10.747000	25.266261	0.000877	20.766367
1245.323371	-2.966500	3.576100	-10.608000	25.244984	0.000879	20.760652
1246.322173	-3.008600	3.571500	-10.744000	25.234868	0.000878	20.756185
1247.322903	-3.007900	3.572200	-10.743000	25.230966	0.000876	20.760802
1248.324473	-3.001700	3.573500	-10.724000	25.227734	0.000874	20.760877
1249.321330	-3.007700	3.572300	-10.744000	25.247421	0.000876	20.749347
1250.322211	-3.031700	3.571200	-10.825000	25.235465	0.000876	20.762948
1251.326053	-3.004700	3.571500	-10.730000	25.256543	0.000876	20.740487
1252.322452	-2.988300	3.572000	-10.673000	25.262981	0.000875	20.758805
1253.321655	-2.990000	3.571500	-10.677000	25.268151	0.000876	20.770635
1254.327978	-2.998500	3.571400	-10.708000	25.194749	0.000873	20.765219
1255.325363	-2.970200	3.571200	-10.605000	25.169692	0.000874	20.760927
1256.327701	-3.004800	3.570000	-10.726000	25.177125	0.000872	20.753215
1257.326110	-2.978200	3.570600	-10.633000	25.140459	0.000873	20.756709
1258.336881	-2.994700	3.571500	-10.694000	25.120000	0.000870	20.772207
1259.328017	-3.000100	3.569500	-10.707000	25.152242	0.000871	20.769961
1260.327728	-2.996200	3.569300	-10.693000	25.173471	0.000872	20.755237
1261.342792	-3.011000	3.569400	-10.746000	25.155374	0.000869	20.757458
1262.330145	-3.001000	3.569300	-10.710000	25.151049	0.000869	20.773979
1263.328644	-3.009200	3.567600	-10.735000	25.171831	0.000869	20.773031
1264.327092	-3.014700	3.567000	-10.752000	25.154629	0.000868	20.762874
1265.326254	-3.015400	3.567800	-10.758000	25.163180	0.000866	20.772408
1266.327101	-2.993100	3.567900	-10.677000	25.156891	0.000867	20.761352
1267.326763	-3.018500	3.566300	-10.763000	25.129174	0.000866	20.756286
1268.328470	-2.986900	3.568100	-10.656000	25.145108	0.000865	20.768964
1269.329169	-3.005600	3.565400	-10.715000	25.155375	0.000864	20.786383
1270.329248	-2.994800	3.564900	-10.675000	25.179264	0.000865	20.773855
1271.328262	-3.011100	3.566000	-10.735000	25.176480	0.000866	20.768215
1272.329723	-2.998800	3.565300	-10.691000	25.180407	0.000865	20.778797
1273.330131	-2.999000	3.563800	-10.686000	25.161615	0.000864	20.777000
1274.329531	-3.018300	3.564300	-10.756000	25.173298	0.000862	20.758857
1275.330214	-3.000700	3.565500	-10.698000	25.154257	0.000863	20.766768
1276.330984	-3.008700	3.564700	-10.724000	25.169147	0.000861	20.776027
1277.330832	-2.987500	3.564300	-10.647000	25.153486	0.000861	20.778797
1278.333207	-2.991400	3.564600	-10.662000	25.188486	0.000862	20.757035
1279.331078	-2.984800	3.563200	-10.634000	25.182397	0.000861	20.767043
1280.332597	-3.023200	3.561700	-10.767000	25.223013	0.000862	20.769888
1281.333758	-3.001400	3.562900	-10.692000	25.235815	0.000861	20.767093
1282.333184	-3.018500	3.561000	-10.748000	25.244241	0.000860	20.777924
1283.334069	-3.002300	3.562700	-10.696000	25.251574	0.000861	20.763948
1284.334654	-3.010800	3.561500	-10.722000	25.273869	0.000857	20.761677
1285.335804	-2.989200	3.561700	-10.646000	25.274491	0.000856	20.770362
1286.336768	-2.978700	3.561900	-10.609000	25.261516	0.000857	20.789578
1287.338498	-3.014000	3.560000	-10.729000	25.250405	0.000858	20.768465
1288.335001	-3.014900	3.559200	-10.729000	25.189357	0.000857	20.789204
1289.338381	-3.009100	3.560800	-10.714000	25.143195	0.000857	20.759456
1290.339274	-3.014600	3.559300	-10.729000	25.162933	0.000854	20.787332
1291.337470	-2.986400	3.560400	-10.631000	25.181154	0.000856	20.785710
1292.335504	-3.020600	3.558300	-10.746000	25.200742	0.000856	20.797315
1293.336581	-3.008200	3.558300	-10.703000	25.206310	0.000854	20.769713
1294.337576	-2.977100	3.558600	-10.592000	25.218614	0.000852	20.778273
1295.344105	-3.006600	3.557100	-10.694000	25.243346	0.000853	20.780819
1296.337501	-3.006700	3.558000	-10.696000	25.221771	0.000852	20.789503
1297.338872	-2.968700	3.559200	-10.564000	25.244564	0.000852	20.797215
1298.339252	-2.990900	3.557200	-10.637000	25.256322	0.000851	20.812812
1299.338065	-3.008700	3.556600	-10.699000	25.280755	0.000851	20.777125
1300.340647	-3.005000	3.555900	-10.684000	25.274392	0.000850	20.798238
1301.340251	-3.004000	3.555900	-10.681000	25.302603	0.000851	20.782466
1302.341864	-2.991500	3.556200	-10.638000	25.308692	0.000849	20.789054
1303.338520	-3.005000	3.556200	-10.684000	25.324152	0.000848	20.775653
1304.337880	-3.018400	3.555200	-10.728000	25.343737	0.000849	20.811440
1305.343178	-2.989200	3.554200	-10.623000	25.346944	0.000850	20.797115
1306.340226	-2.996300	3.554600	-10.649000	25.363919	0.000848	20.761528
1307.343503	-2.995700	3.554800	-10.648000	25.361607	0.000848	20.804252
1308.343014	-3.010900	3.553500	-10.698000	25.377837	0.000845	20.774555
1309.343524	-3.001100	3.554000	-10.665000	25.386809	0.000846	20.781668
1310.345556	-3.009700	3.553300	-10.694000	25.373736	0.000846	20.796991
1311.344138	-3.004100	3.553600	-10.674000	25.365932	0.000845	20.794845
1312.341108	-2.982300	3.553800	-10.597000	25.357606	0.000844	20.788381
1313.355394	-3.011900	3.553800	-10.703000	25.359570	0.000842	20.788456
1314.344495	-3.015400	3.552300	-10.711000	25.347913	0.000843	20.792873
1315.344224	-3.012100	3.552100	-10.698000	25.324401	0.000840	20.789654
1316.347907	-3.013400	3.550900	-10.698000	25.345925	0.000843	20.803679
1317.345663	-3.021600	3.550700	-10.728000	25.355941	0.000842	20.799986
1318.347161	-2.977700	3.551500	-10.575000	25.329919	0.000844	20.788082
1319.347665	-2.990400	3.550500	-10.616000	25.353083	0.000842	20.793322
1320.348260	-3.009500	3.550600	-10.684000	25.363919	0.000840	20.822695
1321.350026	-3.017000	3.549300	-10.706000	25.370282	0.000842	20.811540
1322.348908	-3.005200	3.549800	-10.666000	25.333921	0.000839	20.815807
1323.349207	-3.016400	3.550100	-10.707000	25.301634	0.000839	20.794770
1324.350298	-3.014500	3.547900	-10.694000	25.319083	0.000838	20.806125
1325.364506	-2.987900	3.548900	-10.603000	25.303672	0.000837	20.809618
1326.349198	-2.982500	3.549400	-10.585000	25.332007	0.000837	20.810093
1327.351782	-2.984200	3.548800	-10.589000	25.351990	0.000836	20.798389
1328.350261	-3.010400	3.548000	-10.680000	25.337897	0.000835	20.789929
1329.350379	-3.014300	3.547200	-10.690000	25.369437	0.000835	20.791251
1330.353950	-2.990100	3.547700	-10.607000	25.389096	0.000833	20.804827
1331.352236	-3.013400	3.547300	-10.688000	25.368617	0.000833	20.799437
1332.353349	-3.003900	3.547100	-10.654000	25.385591	0.000833	20.793248
1333.355646	-2.999500	3.546600	-10.635000	25.366728	0.000833	20.815558
1334.359872	-3.006500	3.546100	-10.660000	25.344036	0.000833	20.813162
1335.353611	-2.999800	3.544800	-10.632000	25.314285	0.000833	20.796092
1336.353756	-2.999100	3.545300	-10.631000	25.311775	0.000832	20.795942
1337.355673	-2.996900	3.546000	-10.625000	25.272205	0.000831	20.804577
1338.355954	-2.995500	3.545800	-10.621000	25.225450	0.000831	20.808844
1339.354466	-2.971300	3.545400	-10.533000	25.252768	0.000831	20.821571
1340.353796	-2.990800	3.544000	-10.598000	25.253538	0.000831	20.804801
1341.355732	-3.000800	3.544900	-10.637000	25.278767	0.000830	20.825389
1342.360155	-3.002900	3.544500	-10.642000	25.282122	0.000830	20.817379
1343.357740	-3.007200	3.542600	-10.651000	25.278692	0.000828	20.832901
1344.357696	-2.983800	3.543200	-10.570000	25.298403	0.000830	20.825190
1345.357978	-2.985500	3.542400	-10.574000	25.291816	0.000828	20.810042
1346.358901	-3.015200	3.542100	-10.678000	25.324625	0.000826	20.811215
1347.360854	-2.992800	3.542200	-10.600000	25.328353	0.000827	20.816381
1348.359937	-3.000400	3.541100	-10.623000	25.366628	0.000826	20.805500
1349.356853	-2.973800	3.541400	-10.529000	25.398017	0.000826	20.797190
1350.358570	-2.992200	3.540500	-10.592000	25.379452	0.000827	20.820748
1351.363072	-2.994300	3.540700	-10.601000	25.378334	0.000823	20.815832
1352.357644	-2.982100	3.540600	-10.556000	25.367498	0.000825	20.811115
1353.357337	-3.004700	3.540000	-10.635000	25.332379	0.000826	20.821846
1354.362403	-3.023300	3.538300	-10.697000	25.319977	0.000823	20.826937
1355.359642	-3.006000	3.539900	-10.640000	25.347217	0.000824	20.816830
1356.362397	-2.981600	3.539000	-10.551000	25.322462	0.000822	20.833225
1357.360967	-2.993900	3.538000	-10.591000	25.307474	0.000822	20.813436
1358.362383	-3.015500	3.538500	-10.670000	25.310606	0.000821	20.824641
1359.363927	-3.007700	3.539700	-10.646000	25.305536	0.000821	20.815283
1360.362451	-3.006600	3.538100	-10.636000	25.303796	0.000821	20.833450
1361.361921	-3.018000	3.538100	-10.677000	25.280457	0.000818	20.799586
1362.361713	-3.032500	3.536800	-10.725000	25.298576	0.000818	20.820623
1363.362125	-3.009900	3.538000	-10.648000	25.318833	0.000818	20.818677
1364.361773	-3.010800	3.537700	-10.650000	25.333299	0.000819	20.819925
1365.361329	-3.000300	3.536100	-10.608000	25.299944	0.000818	20.835746
1366.363625	-3.022600	3.535700	-10.685000	25.273199	0.000819	20.814110
1367.364021	-3.034000	3.534100	-10.721000	25.283266	0.000817	20.819949
1368.364485	-3.022800	3.535300	-10.684000	25.271037	0.000817	20.833275
1369.362490	-2.994800	3.535000	-10.586000	25.302926	0.000815	20.820249
1370.363312	-2.998200	3.535700	-10.600000	25.280830	0.000814	20.843581
1371.365458	-2.970000	3.536100	-10.501000	25.315279	0.000814	20.833126
1372.363556	-2.987900	3.534400	-10.559000	25.329620	0.000812	20.831404
1373.363231	-2.998100	3.533400	-10.592000	25.299745	0.000815	20.829856
1374.363554	-3.003300	3.533300	-10.611000	25.323904	0.000812	20.815707
1375.363937	-3.004600	3.531800	-10.610000	25.338344	0.000814	20.823093
1376.365081	-2.995700	3.534000	-10.586000	25.339810	0.000811	20.848747
1377.366468	-2.983400	3.532700	-10.539000	25.356786	0.000810	20.806997
1378.366672	-3.008100	3.532000	-10.624000	25.384075	0.000811	20.850993
1379.369270	-3.000600	3.530700	-10.593000	25.364789	0.000811	20.837318
1380.367816	-2.991400	3.533100	-10.567000	25.351020	0.000809	20.841510
1381.379498	-3.004100	3.531300	-10.607000	25.348833	0.000810	20.832202
1382.368270	-2.990500	3.532200	-10.562000	25.314683	0.000809	20.831578
1383.369709	-2.993700	3.531600	-10.571000	25.289877	0.000809	20.835122
1384.368097	-2.989400	3.531700	-10.557000	25.238227	0.000808	20.843008
1385.369797	-3.016600	3.529100	-10.645000	25.228533	0.000809	20.845603
1386.369255	-2.983300	3.530900	-10.533000	25.223263	0.000807	20.846476
1387.366896	-3.002500	3.529200	-10.596000	25.247274	0.000808	20.848772
1388.378021	-2.970500	3.529800	-10.484000	25.286547	0.000807	20.840313
1389.372256	-3.005400	3.529400	-10.606000	25.310830	0.000809	20.856158
1390.373125	-3.002100	3.529100	-10.594000	25.340283	0.000805	20.834523
1391.374888	-2.995400	3.527500	-10.564000	25.344384	0.000807	20.835796
1392.374063	-2.983800	3.527200	-10.524000	25.341923	0.000806	20.858454
1393.371905	-2.986200	3.526800	-10.530000	25.353878	0.000803	20.838216
1394.372031	-3.009200	3.526800	-10.612000	25.317342	0.000803	20.853214
1395.376353	-2.976800	3.527800	-10.499000	25.325022	0.000803	20.845278
1396.370833	-3.008400	3.527300	-10.611000	25.317591	0.000802	20.833076
1397.373593	-2.999900	3.526700	-10.579000	25.343564	0.000803	20.856782
1398.371143	-2.967600	3.526600	-10.463000	25.347416	0.000802	20.844056
1399.374136	-2.987500	3.525100	-10.530000	25.357556	0.000802	20.869409
1400.373478	-3.004900	3.525600	-10.594000	25.361185	0.000801	20.865940
1401.372657	-3.005000	3.524000	-10.589000	25.360166	0.000798	20.851167
1402.372494	-2.989800	3.525600	-10.540000	25.382782	0.000799	20.841635
1403.371220	-3.013400	3.521800	-10.610000	25.361756	0.000800	20.846601
1404.381557	-2.993200	3.524400	-10.548000	25.396128	0.000799	20.842234
1405.382625	-2.991400	3.524400	-10.541000	25.382534	0.000799	20.848971
1406.380383	-2.998300	3.525100	-10.567000	25.395905	0.000799	20.844854
1407.376421	-3.007300	3.522500	-10.592000	25.389791	0.000798	20.867637
1408.383654	-2.996500	3.522800	-10.555000	25.384622	0.000796	20.860550
1409.378104	-3.000000	3.523400	-10.569000	25.385094	0.000797	20.865291
1410.379229	-3.009200	3.522100	-10.597000	25.375972	0.000797	20.867512
1411.382583	-2.996900	3.522800	-10.557000	25.365086	0.000794	20.862746
1412.375335	-3.016700	3.521600	-10.622000	25.380247	0.000795	20.854735
1413.382864	-2.993800	3.521000	-10.540000	25.405696	0.000795	20.867961
1414.380958	-2.965200	3.521000	-10.439000	25.407859	0.000793	20.859227
1415.379805	-2.989400	3.520900	-10.524000	25.430772	0.000794	20.886027
1416.380898	-2.985400	3.519900	-10.507000	25.444813	0.000793	20.858877
1417.383961	-2.999100	3.521100	-10.559000	25.424012	0.000792	20.869757
1418.378481	-3.002500	3.520900	-10.571000	25.430996	0.000793	20.882933
1419.381570	-3.025100	3.518000	-10.641000	25.403782	0.000794	20.885478
1420.380499	-3.017600	3.518400	-10.616000	25.419067	0.000791	20.872378
1421.381114	-3.017100	3.517800	-10.613000	25.440564	0.000792	20.866937
1422.379702	-3.012700	3.516500	-10.594000	25.428113	0.000791	20.862970
1423.379358	-3.023800	3.517700	-10.636000	25.422272	0.000792	20.873225
1424.379852	-2.987500	3.516800	-10.506000	25.438004	0.000789	20.875272
1425.379171	-3.020000	3.517000	-10.619000	25.435568	0.000791	20.878990
1426.380102	-3.001400	3.515900	-10.552000	25.459177	0.000790	20.875671
1427.382470	-2.996400	3.515000	-10.530000	25.428535	0.000791	20.870032
1428.383420	-2.984400	3.516700	-10.494000	25.415736	0.000787	20.869982
1429.380785	-3.002300	3.516100	-10.555000	25.384993	0.000788	20.887948
1430.381218	-3.002800	3.514000	-10.550000	25.371373	0.000789	20.887549
1431.382070	-3.010100	3.515400	-10.581000	25.344755	0.000787	20.904917
1432.381436	-3.001200	3.513700	-10.544000	25.342319	0.000786	20.891566
1433.379610	-2.985400	3.514400	-10.489000	25.368863	0.000786	20.876020
1434.383838	-3.007200	3.514600	-10.568000	25.383229	0.000788	20.888073
1435.382065	-2.995400	3.513600	-10.524000	25.435444	0.000785	20.884555
1436.385441	-3.030200	3.511600	-10.640000	25.442900	0.000784	20.884455
1437.382504	-3.012900	3.513300	-10.585000	25.430101	0.000783	20.886776
1438.381045	-3.021200	3.511900	-10.607000	25.446329	0.000784	20.899751
1439.385170	-2.990300	3.512000	-10.500000	25.459351	0.000783	20.875372
1440.383550	-3.006200	3.512000	-10.557000	25.488925	0.000781	20.885154
1441.385569	-2.973400	3.514100	-10.448000	25.459550	0.000779	20.893588
1442.387115	-2.998900	3.513000	-10.534000	25.473144	0.000780	20.885902
1443.385854	-3.006500	3.511500	-10.556000	25.461489	0.000780	20.889845
1444.386007	-3.015400	3.510500	-10.585000	25.490142	0.000780	20.887325
1445.386108	-2.993700	3.511000	-10.510000	25.495709	0.000779	20.891018
1446.386055	-3.005300	3.510300	-10.548000	25.486539	0.000780	20.899352
1447.388389	-2.996400	3.510000	-10.516000	25.474089	0.000778	20.907238
1448.394441	-3.004300	3.509300	-10.542000	25.449312	0.000777	20.901324
1449.385609	-3.010600	3.508800	-10.563000	25.444565	0.000777	20.885653
1450.388723	-3.013200	3.508700	-10.572000	25.472349	0.000776	20.887949
1451.386567	-3.006200	3.508300	-10.546000	25.462234	0.000777	20.912877
1452.387685	-3.004100	3.508300	-10.538000	25.462036	0.000775	20.897506
1453.390281	-2.983000	3.508400	-10.464000	25.452841	0.000777	20.917668
1454.388361	-3.011300	3.506900	-10.559000	25.437855	0.000777	20.911155
1455.388399	-2.995600	3.507600	-10.507000	25.457935	0.000775	20.897655
1456.391320	-3.002100	3.506500	-10.525000	25.486514	0.000776	20.887474
1457.387531	-2.979100	3.507000	-10.447000	25.463626	0.000775	20.913326
1458.388773	-2.991000	3.505700	-10.484000	25.486539	0.000775	20.921161
1459.392144	-3.002900	3.504900	-10.524000	25.472697	0.000772	20.894461
1460.390599	-3.003300	3.505000	-10.525000	25.492727	0.000774	20.887549
1461.390878	-2.997200	3.505400	-10.506000	25.503710	0.000772	20.918017
1462.394969	-2.999000	3.504900	-10.510000	25.509898	0.000771	20.907162
1463.390877	-3.005400	3.503500	-10.528000	25.469814	0.000773	20.911953
1464.392299	-2.984800	3.502800	-10.455000	25.485371	0.000772	20.905291
1465.394906	-3.010500	3.502700	-10.544000	25.479133	0.000771	20.893812
1466.391208	-3.002600	3.503700	-10.520000	25.477194	0.000771	20.922209
1467.391495	-2.986500	3.503600	-10.463000	25.478785	0.000770	20.913375
1468.393998	-3.005000	3.501000	-10.519000	25.488402	0.000768	20.905016
1469.393291	-3.015800	3.501400	-10.559000	25.475803	0.000770	20.908485
1470.392226	-3.007400	3.502800	-10.534000	25.469291	0.000768	20.904317
1471.394280	-3.000400	3.501900	-10.506000	25.428833	0.000767	20.923431
1472.395008	-3.016100	3.500800	-10.557000	25.442625	0.000769	20.904092
1473.392759	-2.998000	3.500900	-10.494000	25.435816	0.000767	20.913849
1474.393372	-2.995800	3.501000	-10.487000	25.411610	0.000766	20.899501
1475.395506	-3.011100	3.499800	-10.537000	25.432958	0.000767	20.903868
1476.391719	-3.035100	3.498300	-10.617000	25.462805	0.000765	20.908234
1477.400871	-2.984000	3.500600	-10.445000	25.478386	0.000765	20.902545
1478.395400	-3.014000	3.498700	-10.545000	25.496304	0.000765	20.872176
1479.394576	-3.008300	3.498200	-10.522000	25.516930	0.000763	20.904741
1480.399998	-2.994200	3.497400	-10.470000	25.531144	0.000763	20.893412
1481.397185	-2.994200	3.497200	-10.471000	25.567772	0.000761	20.896057
1482.394361	-3.009600	3.498500	-10.528000	25.583824	0.000763	20.906961
1483.399221	-2.969500	3.498500	-10.387000	25.610983	0.000762	20.914797
1484.394866	-2.972600	3.498500	-10.398000	25.633868	0.000761	20.896057
1485.394567	-2.982100	3.497500	-10.429000	25.625270	0.000761	20.906387
1486.395397	-3.002200	3.496400	-10.496000	25.622935	0.000759	20.896456
1487.396771	-2.981600	3.496600	-10.424000	25.585141	0.000760	20.896905
1488.395867	-2.999500	3.495700	-10.484000	25.554651	0.000759	20.895682
1489.403180	-3.001500	3.495100	-10.490000	25.563721	0.000758	20.895782
1490.394834	-2.982500	3.495800	-10.425000	25.542276	0.000759	20.883255
1491.396650	-2.997200	3.495800	-10.476000	25.536063	0.000757	20.889818
1492.400358	-2.972700	3.493900	-10.385000	25.531242	0.000759	20.873124
1493.396160	-3.011100	3.493700	-10.518000	25.518246	0.000757	20.888046
1494.396760	-2.999300	3.491200	-10.470000	25.499558	0.000757	20.896780
1495.401067	-2.986200	3.492600	-10.429000	25.501621	0.000757	20.903118
1496.397858	-2.989200	3.493000	-10.441000	25.483231	0.000755	20.906461
1497.395852	-3.004900	3.490700	-10.487000	25.469886	0.000755	20.899225
1498.400690	-2.985000	3.493200	-10.425000	25.455298	0.000755	20.902119
1499.396473	-2.988700	3.491200	-10.433000	25.414367	0.000758	20.865288
1500.397338	-3.002900	3.489700	-10.478000	25.423562	0.000755	20.893485
1501.402750	-2.988200	3.490100	-10.428000	25.429949	0.000755	20.877615
1502.399230	-2.974900	3.491100	-10.384000	25.479354	0.000757	20.884552
1503.397480	-3.000100	3.489100	-10.467000	25.450228	0.000756	20.880909
1504.401647	-3.013500	3.488800	-10.513000	25.459200	0.000753	20.881383
1505.399545	-2.995200	3.488900	-10.449000	25.449085	0.000752	20.866959
1506.396954	-2.991000	3.489200	-10.433000	25.461734	0.000754	20.873971
1507.400010	-3.004900	3.489200	-10.483000	25.479925	0.000753	20.871850
1508.414484	-2.994200	3.488300	-10.444000	25.516679	0.000751	20.877939
1509.395968	-3.013400	3.488500	-10.510000	25.529576	0.000750	20.853434
1510.399659	-2.984300	3.487800	-10.408000	25.540088	0.000752	20.865412
1511.400108	-3.005200	3.487300	-10.478000	25.546946	0.000752	20.875618
1512.397728	-2.978200	3.488200	-10.387000	25.521252	0.000749	20.858824
1513.400722	-3.025600	3.487300	-10.548000	25.499532	0.000749	20.865936
1514.401889	-3.024600	3.486800	-10.545000	25.476446	0.000749	20.865037
1515.398349	-3.009500	3.486400	-10.491000	25.483354	0.000749	20.874819
1516.403326	-3.016900	3.486200	-10.516000	25.482385	0.000748	20.856303
1517.403482	-3.005900	3.483600	-10.471000	25.518816	0.000749	20.862542
1518.398999	-3.005600	3.484500	-10.471000	25.518319	0.000750	20.865836
1519.404515	-3.013700	3.483800	-10.498000	25.509025	0.000747	20.865986
1520.403329	-3.006900	3.484800	-10.477000	25.464368	0.000746	20.881357
1521.399947	-3.000300	3.484200	-10.453000	25.450923	0.000746	20.865486
1522.403560	-3.023500	3.483100	-10.529000	25.451744	0.000745	20.863465
1523.403165	-2.996700	3.483300	-10.437000	25.406513	0.000745	20.870677
1524.402005	-3.007600	3.484700	-10.480000	25.430445	0.000743	20.841131
1525.401214	-3.023000	3.482800	-10.527000	25.429526	0.000743	20.857277
1526.401035	-3.019600	3.482500	-10.514000	25.484622	0.000744	20.867084
1527.401880	-2.999200	3.482100	-10.442000	25.499408	0.000743	20.877664
1528.401333	-3.015400	3.480300	-10.494000	25.513299	0.000744	20.869330
1529.406034	-2.998400	3.481900	-10.439000	25.526867	0.000743	20.878213
1530.400768	-2.996300	3.480900	-10.429000	25.503384	0.000743	20.873123
1531.401762	-3.021900	3.479300	-10.513000	25.512405	0.000741	20.856104
1532.401026	-3.023800	3.478700	-10.517000	25.479005	0.000741	20.851487
1533.403549	-2.984600	3.480200	-10.386000	25.462281	0.000738	20.846546
1534.403897	-2.977300	3.480300	-10.361000	25.456242	0.000740	20.863715
1535.404518	-2.992600	3.480000	-10.413000	25.428482	0.000740	20.860970
1536.403602	-2.991100	3.480200	-10.409000	25.447345	0.000738	20.836290
1537.405888	-2.986300	3.480600	-10.393000	25.441082	0.000738	20.841855
1538.406118	-3.008300	3.479500	-10.466000	25.455248	0.000737	20.846122
1539.406192	-2.997200	3.479300	-10.427000	25.484125	0.000737	20.837189
1540.404612	-3.008900	3.477500	-10.462000	25.496103	0.000737	20.871975
1541.405492	-2.983200	3.476500	-10.370000	25.463001	0.000738	20.857701
1542.406857	-2.989600	3.477600	-10.395000	25.461386	0.000737	20.832372
1543.405158	-2.986700	3.477400	-10.385000	25.478012	0.000736	20.846222
1544.406189	-2.978100	3.476300	-10.351000	25.522817	0.000735	20.830052
1545.405811	-3.010500	3.475300	-10.462000	25.517499	0.000733	20.854582
1546.406661	-2.985800	3.475800	-10.377000	25.523389	0.000732	20.864763
1547.406638	-3.001800	3.475200	-10.430000	25.562726	0.000732	20.832672
1548.408379	-2.984200	3.476200	-10.373000	25.529676	0.000733	20.837887
1549.407197	-3.011300	3.473000	-10.457000	25.537106	0.000734	20.849142
1550.411829	-3.009700	3.474800	-10.456000	25.506739	0.000732	20.826234
1551.410286	-2.998200	3.473700	-10.414000	25.507857	0.000731	20.841581
1552.409582	-2.998700	3.473800	-10.416000	25.520655	0.000729	20.830726
1553.411541	-2.996200	3.472300	-10.402000	25.502465	0.000729	20.842329
1554.409076	-3.007900	3.472500	-10.444000	25.501844	0.000730	20.849766
1555.409939	-2.991200	3.470200	-10.379000	25.531912	0.000728	20.824961
1556.412224	-2.983200	3.472600	-10.358000	25.542175	0.000729	20.851862
1557.409182	-3.002700	3.470400	-10.419000	25.555172	0.000729	20.846422
1558.409646	-2.994500	3.470500	-10.392000	25.585338	0.000729	20.857751
1559.413105	-2.984600	3.471000	-10.358000	25.596495	0.000728	20.843352
1560.425849	-3.014600	3.471300	-10.464000	25.603850	0.000727	20.839834
1561.409341	-3.010400	3.468900	-10.441000	25.617840	0.000727	20.847245
1562.411086	-2.991900	3.468500	-10.376000	25.641569	0.000728	20.836465
1563.410928	-2.994500	3.469300	-10.388000	25.634314	0.000726	20.826333
1564.411434	-3.016800	3.469100	-10.465000	25.693076	0.000727	20.851213
1565.411590	-3.012300	3.469100	-10.449000	25.659185	0.000725	20.841356
1566.410170	-3.011700	3.467200	-10.441000	25.665844	0.000725	20.826708
1567.411336	-3.001900	3.467800	-10.408000	25.664528	0.000724	20.841506
1568.425002	-2.981000	3.468100	-10.338000	25.635929	0.000726	20.830326
1569.410525	-2.999300	3.466500	-10.396000	25.622610	0.000724	20.837812
1570.411622	-2.989200	3.466800	-10.362000	25.657397	0.000722	20.810163
1571.415484	-2.998800	3.466600	-10.395000	25.651210	0.000724	20.831923
1572.412581	-3.022800	3.466000	-10.476000	25.630189	0.000722	20.830726
1573.414128	-3.013800	3.464700	-10.441000	25.635457	0.000722	20.823688
1574.416150	-3.003100	3.467100	-10.410000	25.669472	0.000724	20.854058
1575.414258	-3.003200	3.465800	-10.408000	25.709276	0.000723	20.839984
1576.414836	-3.015800	3.465400	-10.449000	25.712158	0.000721	20.849516
1577.419148	-3.010400	3.462900	-10.423000	25.700257	0.000722	20.838512
1578.415556	-2.978900	3.463100	-10.315000	25.713227	0.000721	20.841581
1579.416229	-2.981800	3.462600	-10.323000	25.703065	0.000722	20.829478
1580.419841	-2.983400	3.463400	-10.331000	25.687437	0.000718	20.820894
1581.417374	-2.990600	3.463500	-10.358000	25.641917	0.000719	20.824961
1582.418900	-3.010300	3.461800	-10.420000	25.563596	0.000719	20.840658
1583.420307	-2.997900	3.461400	-10.376000	25.549631	0.000721	20.829478
1584.418125	-3.007500	3.461200	-10.408000	25.518544	0.000718	20.847096
1585.417344	-3.009000	3.460200	-10.412000	25.533106	0.000715	20.840858
1586.420281	-2.996300	3.460700	-10.368000	25.524881	0.000718	20.816951
1587.420069	-3.004500	3.461100	-10.397000	25.567000	0.000717	20.796663
1588.419461	-3.002000	3.458600	-10.381000	25.579201	0.000715	20.835468
1589.425909	-2.973600	3.461900	-10.293000	25.584619	0.000716	20.829055
1590.424937	-2.987100	3.461100	-10.337000	25.602360	0.000715	20.827907
1591.420704	-3.019800	3.459600	-10.446000	25.583699	0.000714	20.818648
1592.425903	-3.002200	3.458700	-10.383000	25.604199	0.000715	20.836391
1593.424246	-3.018800	3.456100	-10.432000	25.598857	0.000712	20.827233
1594.420109	-2.981600	3.457700	-10.308000	25.621369	0.000712	20.818075
1595.434636	-2.996600	3.458100	-10.361000	25.624177	0.000712	20.827058
1596.424629	-2.991600	3.457600	-10.343000	25.630140	0.000712	20.825935
1597.423715	-3.004400	3.457100	-10.385000	25.618114	0.000713	20.821444
1598.430144	-2.995000	3.456900	-10.352000	25.607057	0.000711	20.819347
1599.428219	-2.984600	3.456700	-10.316000	25.594956	0.000712	20.839910
1600.424846	-2.993500	3.456300	-10.346000	25.618934	0.000712	20.836017
1601.428971	-2.996200	3.455200	-10.351000	25.638564	0.000709	20.824438
1602.429845	-2.997400	3.455800	-10.357000	25.659187	0.000710	20.828082
1603.424248	-2.996500	3.455800	-10.354000	25.628600	0.000709	20.817750
1604.431625	-3.034400	3.452300	-10.475000	25.622288	0.000710	20.806196
1605.427513	-3.001100	3.453100	-10.363000	25.604821	0.000707	20.836541
1606.426315	-2.985500	3.453400	-10.309000	25.602783	0.000707	20.824064
1607.425520	-3.018300	3.453500	-10.423000	25.599975	0.000708	20.820296
1608.425714	-3.017000	3.453500	-10.418000	25.649546	0.000708	20.815554
1609.425586	-3.013400	3.452400	-10.403000	25.660280	0.000707	20.813059
1610.425186	-2.981500	3.452600	-10.292000	25.657422	0.000706	20.813034
1611.425669	-3.009800	3.452700	-10.390000	25.641819	0.000705	20.828181
1612.431299	-3.006900	3.452300	-10.380000	25.643409	0.000705	20.808442
1613.425033	-2.998800	3.451200	-10.348000	25.618884	0.000703	20.818424
1614.428091	-2.977000	3.453300	-10.278000	25.597092	0.000703	20.825461
1615.427433	-3.016800	3.449600	-10.405000	25.584519	0.000704	20.808566
1616.428118	-3.010100	3.449400	-10.382000	25.561757	0.000703	20.827432
1617.430125	-2.995600	3.450800	-10.335000	25.546500	0.000703	20.800730
1618.428208	-3.006400	3.448600	-10.366000	25.542499	0.000701	20.800031
1619.430425	-2.988500	3.448700	-10.306000	25.519065	0.000702	20.795939
1620.429989	-2.995900	3.448800	-10.331000	25.497321	0.000702	20.797810
1621.430064	-3.000400	3.449100	-10.347000	25.493842	0.000701	20.805696
1622.429534	-3.000700	3.447400	-10.343000	25.454727	0.000704	20.810038
1623.431994	-2.996400	3.447500	-10.329000	25.475279	0.000700	20.798434
1624.429185	-2.990400	3.449100	-10.313000	25.512853	0.000702	20.819097
1625.430126	-2.998500	3.448300	-10.339000	25.525601	0.000700	20.811511
1626.431393	-2.987200	3.448900	-10.302000	25.570305	0.000698	20.792869
1627.432467	-2.982200	3.446100	-10.275000	25.565062	0.000697	20.808940
1628.432277	-3.019200	3.445100	-10.400000	25.548537	0.000696	20.788552
1629.432218	-3.001700	3.445400	-10.341000	25.572864	0.000698	20.816776
1630.432818	-2.983300	3.446000	-10.279000	25.551618	0.000696	20.800181
1631.431765	-2.978200	3.446400	-10.263000	25.536883	0.000697	20.793917
1632.433367	-3.000700	3.444100	-10.334000	25.524830	0.000696	20.827332
1633.435034	-2.994300	3.443700	-10.310000	25.523861	0.000696	20.786056
1634.434104	-2.991700	3.445000	-10.306000	25.505522	0.000694	20.807942
1635.438646	-2.995400	3.444000	-10.315000	25.518667	0.000695	20.792694
1636.440386	-3.000900	3.443400	-10.332000	25.560614	0.000694	20.795938
1637.433673	-3.014800	3.441500	-10.374000	25.518742	0.000693	20.787553
1638.437185	-2.986300	3.441500	-10.277000	25.549655	0.000693	20.794416
1639.437123	-3.000800	3.441700	-10.327000	25.536609	0.000692	20.796013
1640.434793	-3.007600	3.440600	-10.347000	25.485318	0.000695	20.781015
1641.438080	-3.011600	3.442300	-10.366000	25.493221	0.000693	20.805546
1642.438971	-3.015300	3.440600	-10.373000	25.485442	0.000690	20.789200
1643.437183	-3.016000	3.440500	-10.375000	25.486610	0.000690	20.789425
1644.438741	-3.002800	3.441600	-10.333000	25.526744	0.000693	20.782787
1645.440399	-2.990000	3.441000	-10.288000	25.510094	0.000691	20.786929
1646.437901	-3.000700	3.438700	-10.318000	25.547816	0.000690	20.786879
1647.442627	-2.997100	3.438800	-10.305000	25.585686	0.000691	20.778444
1648.441144	-2.998500	3.437400	-10.306000	25.606683	0.000689	20.811860
1649.441885	-2.986200	3.439100	-10.269000	25.626039	0.000688	20.784833
1650.440598	-2.997900	3.437900	-10.306000	25.625070	0.000688	20.795239
1651.443430	-3.013900	3.436900	-10.357000	25.628027	0.000688	20.792519
1652.438909	-2.985700	3.437500	-10.262000	25.633767	0.000687	20.783111
1653.440819	-3.017900	3.437600	-10.374000	25.658539	0.000687	20.787129
1654.442974	-3.008500	3.436100	-10.336000	25.661620	0.000687	20.785007
1655.440951	-3.010500	3.435200	-10.340000	25.622809	0.000687	20.780640
1656.442333	-3.022600	3.435800	-10.384000	25.631704	0.000685	20.785307
1657.441701	-3.014500	3.436000	-10.357000	25.583971	0.000684	20.780041
1658.440457	-2.998500	3.435000	-10.298000	25.570925	0.000684	20.780690
1659.441267	-2.977700	3.436900	-10.233000	25.565185	0.000684	20.789150
1660.441143	-3.007500	3.435000	-10.330000	25.543218	0.000683	20.783210
1661.441068	-3.012000	3.435000	-10.345000	25.585735	0.000683	20.765691
1662.441439	-3.025400	3.432800	-10.384000	25.580368	0.000682	20.799182
1663.440683	-2.976200	3.435500	-10.224000	25.619280	0.000684	20.766664
1664.441381	-2.993000	3.431700	-10.270000	25.607254	0.000682	20.788725
1665.441257	-2.999800	3.432900	-10.297000	25.622535	0.000682	20.793167
1666.441484	-2.979700	3.433700	-10.230000	25.608397	0.000678	20.772804
1667.440183	-3.004000	3.432600	-10.310000	25.591947	0.000680	20.758653
1668.441025	-2.984800	3.432000	-10.242000	25.625666	0.000681	20.774500
1669.440928	-2.981800	3.433800	-10.238000	25.644699	0.000679	20.785082
1670.441278	-2.954600	3.433300	-10.142000	25.643879	0.000679	20.747747
1671.442678	-3.015800	3.431400	-10.348000	25.640897	0.000678	20.774151
1672.440756	-3.007400	3.428400	-10.309000	25.651557	0.000678	20.771580
1673.440270	-2.981700	3.430700	-10.228000	25.677571	0.000677	20.779217
1674.442207	-2.987800	3.429900	-10.247000	25.661396	0.000679	20.764393
1675.443075	-3.017800	3.427600	-10.343000	25.651457	0.000678	20.768161
1676.443795	-2.983400	3.430700	-10.233000	25.616497	0.000675	20.765291
1677.445821	-3.006500	3.427100	-10.302000	25.595028	0.000676	20.772653
1678.444523	-2.983700	3.430000	-10.233000	25.567968	0.000675	20.750692
1679.443337	-2.987700	3.429100	-10.245000	25.523239	0.000675	20.753187
1680.444625	-3.004300	3.427100	-10.295000	25.534421	0.000675	20.746399
1681.446352	-3.009500	3.428100	-10.316000	25.570030	0.000674	20.749918
1682.446288	-3.033800	3.425200	-10.390000	25.586306	0.000675	20.754884
1683.446836	-3.033100	3.424200	-10.386000	25.620124	0.000673	20.764193
1684.448021	-2.996100	3.425600	-10.263000	25.635704	0.000674	20.764193
1685.445470	-3.006500	3.425400	-10.298000	25.641841	0.000673	20.749494
1686.448052	-2.963800	3.426800	-10.155000	25.673645	0.000674	20.762945
1687.449630	-3.002300	3.425000	-10.282000	25.677621	0.000673	20.756507
1688.447293	-2.991100	3.424400	-10.242000	25.644723	0.000673	20.765666
1689.449676	-2.989500	3.425700	-10.240000	25.619603	0.000671	20.766514
1690.450030	-3.000900	3.422500	-10.269000	25.595997	0.000670	20.760350
1691.448863	-3.012600	3.424600	-10.316000	25.554251	0.000668	20.751141
1692.450512	-2.986500	3.424800	-10.227000	25.552685	0.000670	20.767113
1693.450379	-3.005400	3.423500	-10.289000	25.541826	0.000670	20.765690
1694.450715	-2.989300	3.422600	-10.230000	25.598457	0.000672	20.764243
1695.452795	-2.994300	3.423300	-10.249000	25.615453	0.000669	20.759501
1696.451685	-2.995800	3.421600	-10.250000	25.590257	0.000666	20.741308
1697.453836	-3.013000	3.420600	-10.305000	25.597115	0.000665	20.766689
1698.451883	-3.009200	3.420300	-10.290000	25.605340	0.000668	20.757405
1699.455385	-2.999100	3.420100	-10.256000	25.649643	0.000666	20.766339
1700.453917	-3.005000	3.421700	-10.281000	25.647034	0.000667	20.756132
1701.455074	-3.004300	3.420500	-10.275000	25.648823	0.000666	20.744652
1702.454706	-2.992400	3.420700	-10.235000	25.669173	0.000664	20.755134
1703.454869	-3.002100	3.419400	-10.264000	25.669049	0.000664	20.752638
1704.457840	-2.994300	3.418300	-10.233000	25.672453	0.000663	20.740410
1705.455927	-2.968500	3.420500	-10.153000	25.679882	0.000664	20.745501
1706.458136	-3.002700	3.418500	-10.263000	25.627007	0.000664	20.753088
1707.459287	-2.982300	3.419400	-10.196000	25.580318	0.000661	20.758354
1708.458022	-3.002000	3.418700	-10.262000	25.614757	0.000663	20.754535
1709.458144	-2.996900	3.419200	-10.246000	25.561656	0.000664	20.752888
1710.460501	-2.981200	3.416900	-10.186000	25.563545	0.000664	20.748146
1711.458754	-2.989600	3.417300	-10.215000	25.527488	0.000663	20.747023
1712.456505	-2.986100	3.417900	-10.206000	25.539714	0.000664	20.742232
1713.455756	-2.978100	3.418500	-10.180000	25.546697	0.000662	20.765366
1714.455640	-2.994200	3.416500	-10.229000	25.583026	0.000661	20.758703
1715.461974	-3.032700	3.414700	-10.355000	25.592618	0.000662	20.730877
1716.458376	-3.001300	3.414700	-10.248000	25.620324	0.000661	20.744478
1717.460906	-3.011500	3.414600	-10.281000	25.662713	0.000659	20.734420
1718.460556	-3.014900	3.413900	-10.291000	25.667881	0.000657	20.753837
1719.461467	-2.988500	3.414800	-10.204000	25.695262	0.000658	20.760475
1720.459325	-3.001600	3.414700	-10.247000	25.746270	0.000658	20.748172
1721.461528	-3.022900	3.413800	-10.319000	25.766394	0.000659	20.754636
1722.460777	-2.976200	3.413400	-10.158000	25.770369	0.000657	20.754361
1723.461090	-2.988100	3.413700	-10.200000	25.773972	0.000655	20.749445
1724.463264	-2.969400	3.414000	-10.135000	25.791114	0.000659	20.745801
1725.471488	-2.995300	3.412400	-10.221000	25.795934	0.000654	20.737840
1726.464366	-3.010000	3.412000	-10.269000	25.781326	0.000657	20.752090
1727.463082	-3.003900	3.412400	-10.250000	25.814840	0.000655	20.744029
1728.462459	-2.994400	3.411300	-10.213000	25.769599	0.000656	20.748846
1729.463618	-3.005000	3.411700	-10.251000	25.727611	0.000656	20.764044
1730.462106	-3.011800	3.410800	-10.272000	25.689101	0.000653	20.759028
1731.463839	-2.997500	3.410400	-10.221000	25.659981	0.000653	20.745427
1732.462622	-3.006500	3.409700	-10.250000	25.673944	0.000653	20.743331
1733.464458	-2.999000	3.409500	-10.224000	25.682914	0.000653	20.757556
1734.466705	-3.000900	3.409900	-10.232000	25.713922	0.000655	20.770683
1735.466765	-3.014500	3.407200	-10.270000	25.722444	0.000652	20.737990
1736.465495	-2.989200	3.409900	-10.192000	25.733177	0.000653	20.741185
1737.465054	-3.008100	3.408700	-10.252000	25.741103	0.000653	20.763845
1738.464505	-3.040000	3.406000	-10.353000	25.734320	0.000651	20.752764
1739.468339	-3.029000	3.405900	-10.316000	25.768507	0.000650	20.752964
1740.466769	-2.980600	3.407300	-10.155000	25.753898	0.000648	20.750618
1741.466841	-2.997800	3.406800	-10.212000	25.743662	0.000649	20.760726
1742.468234	-3.004100	3.406700	-10.233000	25.720034	0.000647	20.761175
1743.471304	-2.993200	3.406100	-10.195000	25.670491	0.000648	20.759303
1744.468170	-3.036100	3.405500	-10.339000	25.614858	0.000647	20.747524
1745.470120	-3.007400	3.406400	-10.243000	25.608820	0.000647	20.735769
1746.468057	-2.988100	3.406100	-10.177000	25.625990	0.000645	20.737367
1747.468688	-2.991900	3.403900	-10.183000	25.613243	0.000647	20.755386
1748.468960	-2.978500	3.405600	-10.142000	25.620996	0.000646	20.763646
1749.469527	-3.006700	3.403500	-10.232000	25.628848	0.000642	20.754936
1750.468673	-2.999700	3.403700	-10.209000	25.604422	0.000646	20.761225
1751.471447	-3.019400	3.404000	-10.277000	25.625270	0.000644	20.740437
1752.469038	-3.001600	3.404600	-10.218000	25.588470	0.000641	20.744729
1753.474129	-2.995400	3.404000	-10.195000	25.598658	0.000645	20.757332
1754.472939	-2.988100	3.404500	-10.172000	25.615828	0.000642	20.750394
1755.470798	-2.995300	3.403400	-10.194000	25.609566	0.000641	20.770185
1756.471677	-2.974900	3.402500	-10.122000	25.628252	0.000642	20.758605
1757.474761	-2.982000	3.402300	-10.144000	25.622437	0.000642	20.752765
1758.473865	-3.005100	3.401700	-10.221000	25.612598	0.000642	20.755211
1759.472179	-3.008500	3.400600	-10.230000	25.628997	0.000639	20.768363
1760.472625	-2.994500	3.401200	-10.182000	25.662566	0.000639	20.755136
1761.473422	-3.023700	3.400400	-10.280000	25.690319	0.000640	20.762149
1762.473362	-3.003400	3.399200	-10.208000	25.668777	0.000639	20.771333
1763.476233	-2.986300	3.399000	-10.149000	25.640601	0.000639	20.771957
1764.472692	-3.008600	3.399800	-10.228000	25.656603	0.000639	20.763846
1765.474442	-2.981000	3.399700	-10.134000	25.670119	0.000637	20.758456
1766.474028	-3.012900	3.397500	-10.236000	25.676679	0.000638	20.782588
1767.474885	-2.992500	3.398300	-10.168000	25.684207	0.000638	20.744156
1768.473613	-3.004500	3.396800	-10.205000	25.665125	0.000636	20.771458
1769.473829	-2.991300	3.397700	-10.162000	25.668405	0.000636	20.757208
1770.475599	-2.998500	3.396700	-10.184000	25.686419	0.000636	20.753015
1771.474894	-3.001600	3.396000	-10.192000	25.685525	0.000636	20.766342
1772.474929	-3.006100	3.396200	-10.208000	25.649944	0.000634	20.755736
1773.475524	-3.013000	3.396400	-10.231000	25.616822	0.000634	20.749023
1774.477509	-3.019800	3.394900	-10.250000	25.639161	0.000633	20.751543
1775.476386	-2.986500	3.395300	-10.139000	25.655336	0.000635	20.751668
1776.476934	-2.997000	3.396400	-10.178000	25.670865	0.000634	20.761102
1777.476825	-3.009800	3.396500	-10.222000	25.686867	0.000632	20.756310
1778.477714	-2.995200	3.394900	-10.168000	25.707737	0.000632	20.770635
1779.478931	-2.988900	3.396200	-10.150000	25.710470	0.000630	20.760578
1780.478683	-2.981600	3.395500	-10.123000	25.717452	0.000632	20.763323
1781.477314	-3.001200	3.394600	-10.187000	25.711837	0.000630	20.765269
1782.487550	-2.997300	3.393600	-10.170000	25.716731	0.000631	20.769237
1783.495542	-2.995400	3.393500	-10.164000	25.712756	0.000630	20.781840
1784.478074	-2.992500	3.394600	-10.157000	25.705476	0.000631	20.770735
1785.478110	-2.996100	3.392300	-10.163000	25.679984	0.000627	20.756510
1786.477668	-3.007900	3.393200	-10.205000	25.664405	0.000628	20.788279
1787.481586	-3.012800	3.391400	-10.216000	25.636502	0.000629	20.769737
1788.479053	-3.022000	3.390500	-10.244000	25.690619	0.000628	20.769088
1789.480056	-3.001200	3.390600	-10.175000	25.658716	0.000627	20.786358
1790.482948	-3.011800	3.390200	-10.210000	25.653473	0.000626	20.776824
1791.481185	-3.001600	3.390900	-10.177000	25.638789	0.000625	20.791948
1792.478610	-3.010400	3.390200	-10.205000	25.661176	0.000626	20.783138
1793.483090	-3.005800	3.389200	-10.186000	25.674344	0.000625	20.800158
1794.481854	-3.003900	3.390500	-10.185000	25.703787	0.000625	20.760029
1795.481861	-2.994300	3.390400	-10.151000	25.744708	0.000625	20.788329
1796.484230	-2.989500	3.389400	-10.132000	25.764012	0.000624	20.773580
1797.483105	-3.006900	3.388700	-10.188000	25.751267	0.000624	20.787331
1798.482379	-2.982500	3.389000	-10.107000	25.808582	0.000624	20.806023
1799.482574	-3.007400	3.388400	-10.189000	25.813377	0.000622	20.780493
1800.481825	-2.990300	3.388200	-10.130000	25.829972	0.000624	20.791474
1801.483945	-2.996800	3.387800	-10.151000	25.801875	0.000620	20.781741
1802.486174	-2.991700	3.388400	-10.136000	25.795614	0.000620	20.778297
1803.487030	-2.994100	3.386500	-10.138000	25.788807	0.000622	20.782365
1804.482958	-2.990300	3.385800	-10.123000	25.733404	0.000621	20.774130
1805.485224	-3.030000	3.385700	-10.256000	25.708310	0.000620	20.790651
1806.485425	-3.020500	3.385700	-10.225000	25.696384	0.000620	20.771085
1807.485414	-3.019200	3.385200	-10.219000	25.715292	0.000618	20.792448
1808.482795	-2.991600	3.385300	-10.125000	25.717304	0.000618	20.774080
1809.485399	-3.014100	3.383600	-10.198000	25.720559	0.000617	20.794893
1810.491912	-3.005600	3.384300	-10.171000	25.759640	0.000617	20.784836
1811.486184	-3.034800	3.383700	-10.266000	25.737553	0.000618	20.794893
1812.488747	-3.013200	3.383500	-10.195000	25.730249	0.000615	20.783763
1813.485608	-2.997400	3.383300	-10.141000	25.721975	0.000616	20.791574
1814.486343	-3.038200	3.381200	-10.271000	25.733305	0.000618	20.790627
1815.490828	-2.992600	3.382800	-10.123000	25.750547	0.000616	20.789453
1816.493122	-2.999800	3.382100	-10.145000	25.787118	0.000614	20.803428
1817.489307	-3.013100	3.382600	-10.191000	25.817378	0.000615	20.801108
1818.490344	-3.023500	3.381700	-10.224000	25.806919	0.000615	20.789179
1819.493900	-3.009200	3.381200	-10.174000	25.834470	0.000616	20.794569
1820.487275	-3.014600	3.381000	-10.191000	25.854617	0.000614	20.789204
1821.492086	-3.030500	3.381000	-10.244000	25.848357	0.000614	20.787183
1822.492134	-2.994400	3.381300	-10.123000	25.849698	0.000614	20.795168
1823.486693	-3.010300	3.381200	-10.176000	25.819142	0.000614	20.814733
1824.487661	-3.006100	3.379600	-10.158000	25.779292	0.000611	20.819275
1825.487204	-3.012000	3.379900	-10.179000	25.752361	0.000612	20.804551
1826.487126	-3.005900	3.381300	-10.162000	25.723293	0.000612	20.793846
1827.488550	-3.027800	3.377100	-10.225000	25.747219	0.000610	20.804602
1828.488139	-3.006900	3.379000	-10.158000	25.795292	0.000609	20.803104
1829.485136	-3.007800	3.377900	-10.159000	25.802820	0.000609	20.807821
1830.490284	-2.989900	3.378100	-10.099000	25.801602	0.000610	20.808969
1831.491620	-2.961600	3.380100	-10.010000	25.810173	0.000611	20.805250
1832.489433	-2.977400	3.378900	-10.060000	25.822570	0.000610	20.806323
1833.494520	-3.006900	3.376900	-10.153000	25.837600	0.000610	20.790601
1834.489240	-2.982600	3.378000	-10.074000	25.839861	0.000607	20.800459
1835.489965	-3.019900	3.375400	-10.192000	25.862368	0.000607	20.808369
1836.493937	-3.006200	3.376900	-10.149000	25.881024	0.000607	20.801981
1837.492247	-3.033600	3.375000	-10.238000	25.904921	0.000607	20.818875
1838.491046	-2.983200	3.376100	-10.070000	25.929092	0.000606	20.802380
1839.492730	-3.025100	3.374800	-10.208000	25.919503	0.000606	20.824990
1840.494387	-3.002200	3.376300	-10.136000	25.896823	0.000605	20.794619
1841.493487	-2.997900	3.374200	-10.114000	25.825551	0.000603	20.815956
1842.507195	-3.000900	3.374500	-10.126000	25.805080	0.000604	20.815781
1843.498313	-2.990000	3.374600	-10.089000	25.760236	0.000603	20.802030
1844.492017	-2.993900	3.374100	-10.101000	25.742199	0.000603	20.824690
1845.494933	-3.008700	3.372900	-10.147000	25.752013	0.000604	20.817478
1846.495646	-3.004500	3.372300	-10.131000	25.739938	0.000601	20.797289
1847.492548	-3.000700	3.373500	-10.122000	25.749081	0.000600	20.813585
1848.495656	-2.975200	3.372300	-10.032000	25.778547	0.000601	20.788180
1849.498774	-2.989700	3.373600	-10.086000	25.774746	0.000599	20.822294
1850.494575	-3.005700	3.372500	-10.136000	25.792236	0.000599	20.807621
1851.497303	-2.990600	3.371700	-10.082000	25.760907	0.000600	20.822144
1852.506305	-2.992500	3.371300	-10.086000	25.764212	0.000598	20.791799
1853.498397	-3.006300	3.369500	-10.129000	25.764534	0.000599	20.814408
1854.502185	-2.983600	3.371900	-10.060000	25.779069	0.000599	20.822843
1855.498859	-2.970400	3.370600	-10.010000	25.782025	0.000599	20.817278
1856.498551	-2.998500	3.369700	-10.101000	25.789254	0.000599	20.803203
1857.503955	-3.007700	3.370000	-10.135000	25.783466	0.000596	20.826312
1858.500368	-2.995100	3.369500	-10.091000	25.818123	0.000596	20.837417
1859.504734	-3.002800	3.369900	-10.118000	25.838767	0.000596	20.842507
1860.502180	-3.020100	3.369000	-10.174000	25.858020	0.000596	20.837666
1861.502005	-2.994900	3.368500	-10.088000	25.842841	0.000596	20.825738
1862.500634	-3.008100	3.367200	-10.128000	25.853524	0.000594	20.825089
1863.502529	-2.995700	3.367500	-10.087000	25.844456	0.000594	20.828782
1864.501951	-3.008000	3.367400	-10.128000	25.859362	0.000594	20.828109
1865.500954	-3.015100	3.366800	-10.150000	25.840432	0.000592	20.811464
1866.501542	-3.004800	3.366600	-10.115000	25.806595	0.000594	20.826312
1867.502151	-3.037200	3.365900	-10.221000	25.827663	0.000594	20.828034
1868.500351	-3.008000	3.366100	-10.125000	25.847164	0.000591	20.840985
1869.500854	-3.017000	3.366800	-10.156000	25.843860	0.000592	20.821546
1870.503376	-3.023700	3.365100	-10.173000	25.830172	0.000591	20.842882
1871.500742	-3.010200	3.365300	-10.128000	25.802124	0.000589	20.830829
1872.504841	-2.980000	3.365400	-10.028000	25.791342	0.000590	20.826162
1873.510297	-3.013900	3.364800	-10.140000	25.763715	0.000591	20.825913
1874.511656	-3.022000	3.363900	-10.164000	25.773057	0.000589	20.829132
1875.512476	-3.019000	3.364600	-10.156000	25.813850	0.000588	20.850668
1876.509530	-3.020400	3.364700	-10.161000	25.839985	0.000589	20.822868
1877.507695	-2.996200	3.363100	-10.076000	25.845053	0.000590	20.825115
1878.506915	-3.017800	3.364500	-10.152000	25.832780	0.000588	20.836968
1879.508738	-2.992600	3.362300	-10.061000	25.846568	0.000588	20.853662
1880.507564	-3.012900	3.362300	-10.129000	25.850965	0.000586	20.829157
1881.510644	-2.981100	3.364900	-10.030000	25.879608	0.000586	20.842757
1882.508546	-3.015600	3.361800	-10.137000	25.876230	0.000586	20.835571
1883.520182	-2.996000	3.362500	-10.073000	25.860704	0.000587	20.854586
1884.508661	-2.973800	3.361400	-9.995100	25.895905	0.000585	20.856283
1885.510762	-3.003400	3.360600	-10.092000	25.887781	0.000583	20.823468
1886.508599	-2.990000	3.362100	-10.052000	25.920398	0.000583	20.852440
1887.514172	-3.006100	3.360200	-10.100000	25.917790	0.000584	20.833225
1888.509250	-2.993800	3.360700	-10.061000	25.927577	0.000585	20.853014
1889.510585	-2.991800	3.360100	-10.052000	25.947797	0.000583	20.838241
1890.510821	-2.991900	3.360700	-10.054000	25.967943	0.000583	20.847100
1891.517282	-3.001900	3.360000	-10.085000	25.983766	0.000582	20.860151
1892.510972	-3.022700	3.358300	-10.150000	25.995217	0.000581	20.859802
1893.513426	-2.996400	3.359200	-10.064000	25.963546	0.000582	20.847425
1894.513575	-2.993800	3.359400	-10.056000	25.922138	0.000584	20.864619
1895.511875	-3.000200	3.358300	-10.073000	25.899855	0.000580	20.856933
1896.520603	-2.979400	3.358500	-10.006000	25.889671	0.000580	20.855710
1897.516280	-2.970100	3.357200	-9.969700	25.895086	0.000579	20.844081
1898.519695	-3.023100	3.355200	-10.142000	25.893074	0.000579	20.861026
1899.512229	-3.008000	3.356400	-10.095000	25.893099	0.000577	20.859628
1900.521794	-2.983100	3.356300	-10.011000	25.905942	0.000577	20.854987
1901.518515	-3.012900	3.356100	-10.111000	25.888951	0.000577	20.860203
1902.512255	-3.006100	3.356800	-10.089000	25.873599	0.000577	20.846677
1903.512471	-2.985300	3.355900	-10.017000	25.840285	0.000578	20.854937
1904.516266	-2.996600	3.355600	-10.054000	25.867711	0.000575	20.873952
1905.514149	-2.997400	3.355900	-10.058000	25.866718	0.000574	20.873902
1906.517108	-3.013200	3.354700	-10.108000	25.871910	0.000574	20.870110
1907.516498	-3.019800	3.354000	-10.129000	25.839217	0.000572	20.863821
1908.515510	-3.013200	3.353200	-10.103000	25.819765	0.000575	20.860877
1909.517815	-3.012600	3.352800	-10.100000	25.869724	0.000572	20.866017
1910.515376	-3.008400	3.353100	-10.086000	25.885945	0.000572	20.879467
1911.520061	-3.010700	3.352700	-10.092000	25.879760	0.000572	20.877047
1912.522023	-3.000900	3.352400	-10.059000	25.890640	0.000571	20.871382
1913.520171	-3.007900	3.351800	-10.080000	25.881549	0.000572	20.875525
1914.517766	-2.998500	3.353200	-10.054000	25.902888	0.000570	20.867091
1915.519233	-2.972100	3.351600	-9.959800	25.887163	0.000570	20.862673
1916.517894	-2.970100	3.351900	-9.955200	25.898267	0.000571	20.870509
1917.517578	-2.985300	3.352200	-10.006000	25.938012	0.000569	20.879617
1918.521840	-2.994800	3.351000	-10.034000	25.962654	0.000571	20.887777
1919.521829	-2.995200	3.350000	-10.033000	25.986823	0.000569	20.875076
1920.524659	-2.996900	3.350200	-10.040000	25.994225	0.000569	20.869711
1921.525507	-2.992700	3.351200	-10.028000	26.014220	0.000566	20.860877
1922.524468	-3.005900	3.348600	-10.065000	26.014543	0.000566	20.855986
1923.524057	-2.984500	3.349200	-9.994900	26.023137	0.000566	20.873154
1924.525409	-2.995600	3.351100	-10.037000	26.017226	0.000566	20.878594
1925.522867	-3.019900	3.348500	-10.111000	26.009103	0.000566	20.877072
1926.522981	-2.997200	3.348600	-10.036000	26.004434	0.000566	20.868113
1927.527860	-3.008400	3.348000	-10.072000	26.010668	0.000565	20.872955
1928.524096	-3.014800	3.346300	-10.087000	26.014295	0.000564	20.888451
1929.523766	-2.997600	3.348900	-10.038000	26.017871	0.000565	20.891096
1930.527478	-2.987900	3.349000	-10.005000	26.021051	0.000564	20.881489
1931.528645	-3.004000	3.346500	-10.052000	26.078948	0.000565	20.879917
1932.528304	-3.000900	3.346400	-10.041000	26.069013	0.000563	20.881314
1933.527194	-3.006500	3.346100	-10.059000	26.051428	0.000562	20.881663
1934.527573	-3.015500	3.345400	-10.087000	26.010544	0.000561	20.896536
1935.527154	-2.981100	3.345400	-9.972200	25.955500	0.000560	20.891021
1936.531366	-2.993100	3.345300	-10.012000	25.940397	0.000560	20.897659
1937.527617	-3.010000	3.345200	-10.068000	25.900354	0.000561	20.879717
1938.531213	-2.995800	3.342700	-10.013000	25.905322	0.000563	20.912206
1939.532261	-3.002800	3.344300	-10.041000	25.920748	0.000562	20.878868
1940.527246	-2.997900	3.342900	-10.020000	25.948048	0.000561	20.885431
1941.530879	-3.013400	3.342600	-10.071000	25.981780	0.000562	20.896086
1942.529905	-2.988900	3.343900	-9.993500	26.018542	0.000560	20.896985
1943.527548	-2.988200	3.343500	-9.989800	26.031831	0.000559	20.893741
1944.529557	-3.000600	3.343400	-10.031000	26.032973	0.000559	20.901052
1945.535131	-2.995700	3.342400	-10.012000	26.054135	0.000558	20.904770
1946.530395	-3.007200	3.343200	-10.053000	26.059500	0.000555	20.919168
1947.530637	-3.000600	3.343100	-10.030000	26.066703	0.000556	20.870459
1948.533514	-3.005400	3.341800	-10.042000	26.083220	0.000555	20.910285
1949.532240	-3.029300	3.340900	-10.119000	26.055998	0.000555	20.914227
1950.536107	-2.996900	3.340600	-10.010000	26.031533	0.000555	20.910510
1951.540812	-3.005400	3.341400	-10.042000	26.036923	0.000553	20.919717
1952.533643	-3.005500	3.339300	-10.036000	26.034141	0.000553	20.909337
1953.538499	-2.997500	3.339500	-10.010000	26.065114	0.000552	20.901577
1954.541584	-3.002400	3.340400	-10.028000	26.067573	0.000551	20.907366
1955.535470	-3.025400	3.337900	-10.097000	26.061786	0.000552	20.904397
1956.545533	-2.988400	3.338700	-9.976900	26.084115	0.000550	20.912606
1957.540484	-2.974400	3.341000	-9.936800	26.108455	0.000552	20.914303
1958.537597	-2.999100	3.337200	-10.007000	26.126213	0.000552	20.903698
1959.536794	-2.994700	3.338000	-9.994800	26.123059	0.000551	20.924234
1960.539855	-2.983100	3.337900	-9.956200	26.138631	0.000551	20.902426
1961.537858	-2.995100	3.337700	-9.996300	26.113124	0.000548	20.912357
1962.541454	-2.983300	3.338900	-9.960000	26.076192	0.000548	20.922189
1963.540460	-2.979800	3.337700	-9.944200	26.059328	0.000546	20.906668
1964.541843	-2.999100	3.335700	-10.003000	26.064941	0.000548	20.921789
1965.536993	-3.002200	3.337600	-10.017000	26.103016	0.000548	20.905994
1966.545366	-2.999400	3.335900	-10.004000	26.079446	0.000547	20.912183
1967.539409	-2.997600	3.335200	-9.996700	26.110964	0.000547	20.925832
1968.541499	-2.988600	3.334600	-9.964800	26.118340	0.000547	20.921865
1969.542708	-2.994200	3.336600	-9.988900	26.146480	0.000547	20.913630
1970.540440	-3.005500	3.335600	-10.024000	26.132050	0.000542	20.899132
1971.545912	-3.002500	3.334700	-10.012000	26.174519	0.000547	20.911933
1972.544652	-2.991500	3.335500	-9.977400	26.186340	0.000542	20.909114
1973.541178	-2.981800	3.333600	-9.939400	26.188799	0.000543	20.903050
1974.541846	-3.010400	3.334800	-10.038000	26.208169	0.000544	20.914453
1975.545051	-2.995600	3.334900	-9.989000	26.194635	0.000542	20.915077
1976.541373	-3.002400	3.334500	-10.011000	26.162797	0.000541	20.917223
1977.543609	-3.004800	3.332200	-10.011000	26.143028	0.000541	20.912058
1978.547826	-2.977400	3.333400	-9.923800	26.121569	0.000540	20.907092
1979.550698	-3.011400	3.331800	-10.033000	26.173997	0.000540	20.895289
1980.542612	-3.032800	3.331100	-10.101000	26.169229	0.000539	20.913256
1981.549101	-2.980800	3.332400	-9.932500	26.187681	0.000540	20.903349
1982.543532	-2.997400	3.330700	-9.982500	26.209908	0.000539	20.920467
1983.546698	-3.027700	3.330800	-10.084000	26.230793	0.000537	20.905895
1984.547846	-2.995800	3.331000	-9.978900	26.251852	0.000536	20.906668
1985.547655	-3.006500	3.330400	-10.012000	26.249815	0.000537	20.897036
1986.545163	-3.005300	3.329600	-10.005000	26.247630	0.000535	20.905271
1987.552416	-3.017000	3.328200	-10.039000	26.271073	0.000535	20.893268
1988.542891	-3.010800	3.330500	-10.027000	26.262505	0.000535	20.896986
1989.543410	-2.995700	3.329600	-9.973700	26.264094	0.000537	20.884834
1990.551762	-2.979000	3.329500	-9.917300	26.244799	0.000534	20.886306
1991.551570	-3.017400	3.328000	-10.040000	26.272984	0.000531	20.898034
1992.545792	-2.987400	3.328600	-9.943200	26.250858	0.000534	20.898558
1993.552512	-3.015500	3.326800	-10.031000	26.270054	0.000533	20.895563
1994.548909	-2.990700	3.328200	-9.953400	26.275890	0.000535	20.885782
1995.547333	-2.984700	3.326300	-9.927000	26.257836	0.000534	20.875700
1996.547974	-2.997900	3.327000	-9.973600	26.225428	0.000531	20.918046
1997.554370	-2.975000	3.327100	-9.896500	26.219542	0.000530	20.877522
1998.551929	-3.009400	3.325500	-10.006000	26.203698	0.000531	20.868713
1999.557937	-3.018600	3.324600	-10.033000	26.189294	0.000531	20.884109
2000.553456	-3.001900	3.326300	-9.983900	26.191182	0.000529	20.902126
2001.553030	-2.990300	3.324000	-9.938900	26.217630	0.000530	20.901676
2002.559541	-3.013500	3.323800	-10.015000	26.243109	0.000528	20.899780
2003.555348	-3.002000	3.324700	-9.978100	26.264987	0.000528	20.885731
2004.553892	-2.999800	3.324400	-9.971700	26.280060	0.000530	20.879542
2005.555245	-2.993500	3.324200	-9.949900	26.322548	0.000527	20.863921
2006.554817	-2.984700	3.324500	-9.921700	26.317358	0.000525	20.853016
2007.555461	-2.984400	3.322400	-9.915400	26.311200	0.000528	20.880964
2008.555981	-2.970500	3.324400	-9.874000	26.305761	0.000526	20.869336
2009.554073	-2.993000	3.321700	-9.940100	26.342264	0.000526	20.878044
2010.554193	-3.023300	3.322300	-10.043000	26.333647	0.000525	20.860851
2011.554679	-2.984700	3.322800	-9.916600	26.341344	0.000524	20.852940
2012.555737	-2.983000	3.321600	-9.907100	26.326942	0.000523	20.878294
2013.553770	-2.984000	3.321400	-9.910200	26.333175	0.000524	20.871756
2014.555064	-2.993800	3.319800	-9.938400	26.359570	0.000524	20.850869
2015.554098	-2.994600	3.320700	-9.942200	26.378267	0.000523	20.868237
2016.556090	-2.989400	3.320000	-9.923700	26.361333	0.000523	20.874924
2017.554792	-3.013700	3.319300	-10.002000	26.354132	0.000523	20.871955
2018.555024	-3.021700	3.319200	-10.028000	26.356813	0.000520	20.862322
2019.554087	-2.988600	3.319100	-9.918800	26.343081	0.000520	20.853738
2020.555888	-3.015700	3.318700	-10.007000	26.375883	0.000519	20.840237
2021.558911	-3.002300	3.318400	-9.961600	26.375758	0.000521	20.869983
2022.557229	-2.989200	3.319300	-9.920800	26.322149	0.000520	20.852615
2023.554312	-3.012600	3.316700	-9.990900	26.289966	0.000520	20.878592
2024.554809	-3.007700	3.316900	-9.974800	26.275464	0.000517	20.852639
2025.553464	-2.997500	3.317300	-9.942900	26.294858	0.000518	20.857430
2026.556761	-2.997100	3.317600	-9.942100	26.292226	0.000516	20.858104
2027.557510	-3.005100	3.317900	-9.969500	26.307820	0.000516	20.852914
2028.556151	-3.005400	3.317600	-9.969800	26.354081	0.000516	20.868110
2029.558665	-2.998800	3.315400	-9.940600	26.352591	0.000514	20.873251
2030.559938	-2.998900	3.316500	-9.944100	26.364956	0.000516	20.846800
2031.557684	-3.026800	3.314300	-10.031000	26.398899	0.000515	20.864317
2032.561991	-3.007000	3.315700	-9.968900	26.433710	0.000515	20.852364
2033.561839	-2.995200	3.314800	-9.928100	26.441456	0.000512	20.843555
2034.567353	-3.018800	3.313100	-9.999200	26.479692	0.000512	20.848795
2035.568136	-3.000600	3.314000	-9.943400	26.454839	0.000513	20.856057
2036.562808	-2.992500	3.314100	-9.916700	26.461443	0.000512	20.842307
2037.564913	-2.998900	3.313300	-9.935700	26.481430	0.000512	20.848645
2038.562839	-3.015200	3.313500	-9.989700	26.475769	0.000510	20.838215
2039.560995	-3.017200	3.311600	-9.991200	26.462858	0.000509	20.842307
2040.563731	-3.013800	3.312500	-9.981800	26.425466	0.000510	20.862096
2041.564776	-2.981600	3.312200	-9.874600	26.393386	0.000511	20.846923
2042.564397	-2.999800	3.311200	-9.931700	26.366644	0.000509	20.842806
2043.559658	-3.008800	3.310900	-9.960800	26.361380	0.000506	20.852688
2044.561856	-2.980300	3.311700	-9.868200	26.350578	0.000506	20.835669
2045.565768	-2.999700	3.311700	-9.932300	26.315566	0.000508	20.828931
2046.564338	-2.978700	3.311300	-9.862200	26.253535	0.000505	20.835818
2047.575937	-3.014100	3.309800	-9.975000	26.227062	0.000504	20.820596
2048.564186	-2.997900	3.309000	-9.919600	26.173320	0.000506	20.834870
2049.562165	-2.980600	3.309400	-9.863200	26.215018	0.000506	20.841208
2050.568276	-2.984300	3.309500	-9.874800	26.206872	0.000503	20.838713
2051.564938	-3.001200	3.308800	-9.929400	26.203420	0.000504	20.839037
2052.563396	-3.011100	3.307400	-9.958100	26.197634	0.000503	20.831801
2053.568984	-3.012100	3.308800	-9.964800	26.218842	0.000501	20.846948
2054.564251	-3.005000	3.306700	-9.934100	26.210473	0.000502	20.831426
2055.565171	-3.030000	3.306600	-10.017000	26.218668	0.000500	20.833971
2056.566946	-3.028600	3.307900	-10.016000	26.250430	0.000500	20.831276
2057.565138	-3.010800	3.307200	-9.954800	26.231805	0.000498	20.825362
2058.566857	-3.006000	3.307200	-9.939500	26.231631	0.000500	20.836567
2059.568104	-3.013900	3.305900	-9.963000	26.245141	0.000499	20.821219
2060.571039	-2.990000	3.305700	-9.883200	26.221847	0.000497	20.831950
2061.570684	-2.992200	3.306200	-9.892400	26.258823	0.000498	20.826435
2062.571903	-3.002900	3.305000	-9.924200	26.238982	0.000497	20.843004
2063.568202	-3.003000	3.306100	-9.927200	26.242086	0.000497	20.818150
2064.568910	-2.999700	3.305400	-9.913900	26.256986	0.000493	20.825062
2065.571476	-3.020900	3.303500	-9.976900	26.255943	0.000496	20.827333
2066.570565	-2.981100	3.304100	-9.848000	26.286065	0.000497	20.830103
2067.570014	-3.021800	3.303200	-9.980200	26.325051	0.000494	20.821868
2068.586062	-2.995900	3.303500	-9.895200	26.317924	0.000494	20.823715
2069.572914	-2.991500	3.304400	-9.884100	26.333742	0.000493	20.823016
2070.572750	-2.981000	3.301500	-9.841000	26.357306	0.000491	20.832473
2071.574729	-2.990600	3.304000	-9.879000	26.395768	0.000491	20.818498
2072.572770	-3.013600	3.302200	-9.950400	26.425464	0.000491	20.825111
2073.574236	-2.994300	3.302900	-9.888600	26.423925	0.000489	20.842056
2074.581175	-2.991600	3.300300	-9.871400	26.442174	0.000489	20.834794
2075.575503	-2.969200	3.301200	-9.800300	26.417519	0.000489	20.821867
2076.575974	-3.015800	3.299600	-9.949700	26.400386	0.000489	20.818873
2077.576610	-2.961200	3.301900	-9.775800	26.387326	0.000488	20.824712
2078.576574	-3.006200	3.300400	-9.920500	26.393930	0.000488	20.816177
2079.573612	-2.979800	3.301000	-9.835200	26.423354	0.000488	20.824887
2080.576813	-3.004000	3.299800	-9.911500	26.425712	0.000486	20.819197
2081.574953	-3.010600	3.299100	-9.930300	26.424322	0.000487	20.810213
2082.574587	-3.013700	3.298500	-9.939300	26.415060	0.000488	20.812284
2083.576371	-2.986600	3.298400	-9.849300	26.420746	0.000485	20.803300
2084.577717	-3.006900	3.297500	-9.914600	26.383675	0.000485	20.850440
2085.576472	-3.005200	3.298500	-9.911200	26.375854	0.000485	20.821243
2086.578697	-3.002700	3.296300	-9.897100	26.384569	0.000484	20.808191
2087.575950	-3.013200	3.296800	-9.933100	26.372229	0.000483	20.808591
2088.578593	-3.031000	3.295700	-9.988100	26.403366	0.000483	20.796263
2089.578657	-2.985300	3.297000	-9.842000	26.397282	0.000482	20.797261
2090.579991	-3.033500	3.295200	-9.994200	26.378957	0.000480	20.797810
2091.576891	-3.018300	3.296600	-9.948000	26.354077	0.000480	20.815478
2092.579504	-2.998300	3.296800	-9.884100	26.351992	0.000480	20.808640
2093.584982	-2.981800	3.294800	-9.823800	26.385984	0.000479	20.793967
2094.579094	-2.976700	3.296400	-9.811700	26.433185	0.000480	20.801578
2095.582165	-2.999500	3.294400	-9.880000	26.466381	0.000478	20.808391
2096.582624	-2.989900	3.295800	-9.852800	26.463451	0.000480	20.821093
2097.579043	-3.007800	3.294500	-9.908500	26.489769	0.000479	20.806769
2098.583819	-3.024100	3.293500	-9.958600	26.495753	0.000476	20.793817
2099.578747	-3.001800	3.293800	-9.886300	26.507595	0.000477	20.805247
2100.581947	-2.999000	3.292700	-9.873300	26.493493	0.000475	20.811934
2101.585045	-2.994900	3.291600	-9.857300	26.496150	0.000476	20.783785
2102.579613	-2.998300	3.292800	-9.871600	26.449597	0.000475	20.806694
2103.580226	-2.980100	3.293000	-9.812000	26.418511	0.000476	20.810537
2104.580161	-3.023900	3.291000	-9.950700	26.389883	0.000474	20.804049
2105.584310	-3.006900	3.291600	-9.896500	26.362048	0.000474	20.797411
2106.582901	-2.996600	3.291200	-9.861700	26.371211	0.000472	20.805671
2107.583756	-3.011300	3.289900	-9.905300	26.401826	0.000474	20.794715
2108.580859	-3.012200	3.289800	-9.908200	26.433185	0.000472	20.792569
2109.579777	-3.003000	3.290900	-9.881200	26.427549	0.000474	20.803974
2110.581737	-2.993800	3.289600	-9.846400	26.455084	0.000472	20.792769
2111.581225	-2.985200	3.291400	-9.823800	26.462235	0.000470	20.789525
2112.581326	-3.003100	3.289000	-9.876400	26.448058	0.000468	20.795190
2113.581542	-3.008900	3.288400	-9.893500	26.443837	0.000468	20.801379
2114.582289	-2.972200	3.288500	-9.773300	26.416178	0.000468	20.802501
2115.583858	-2.989800	3.287900	-9.826900	26.438425	0.000470	20.791197
2116.584968	-2.994200	3.288100	-9.844200	26.449647	0.000466	20.791097
2117.583356	-2.998500	3.286800	-9.853200	26.474326	0.000468	20.795514
2118.583180	-3.021700	3.287400	-9.932500	26.453297	0.000465	20.789075
2119.587830	-3.002500	3.285900	-9.864900	26.441950	0.000466	20.785257
2120.588984	-3.005900	3.284700	-9.872500	26.377691	0.000465	20.786580
2121.585648	-3.006500	3.286100	-9.878100	26.317675	0.000464	20.797386
2122.585109	-3.017000	3.285100	-9.909300	26.292073	0.000463	20.804373
2123.585792	-3.011900	3.284900	-9.893300	26.327930	0.000462	20.780191
2124.587231	-3.026700	3.283000	-9.935800	26.322120	0.000462	20.803749
2125.588588	-2.987700	3.283900	-9.810500	26.315142	0.000463	20.798159
2126.586750	-3.014300	3.283300	-9.895500	26.331928	0.000460	20.782313
2127.587249	-2.993700	3.284100	-9.830000	26.346405	0.000461	20.802552
2128.587850	-2.970000	3.283900	-9.751900	26.356561	0.000462	20.765817
2129.590285	-2.990200	3.283000	-9.816000	26.343475	0.000458	20.778270
2130.587801	-2.991900	3.282700	-9.819300	26.324926	0.000458	20.782387
2131.586222	-3.004900	3.281300	-9.858400	26.287231	0.000460	20.778170
2132.588498	-2.996900	3.282400	-9.834900	26.298455	0.000458	20.783286
2133.585891	-3.020000	3.281200	-9.908200	26.351296	0.000456	20.776648
2134.588503	-2.983900	3.281300	-9.789900	26.378635	0.000456	20.779467
2135.584951	-2.987800	3.280700	-9.800900	26.358745	0.000454	20.791246
2136.585254	-2.980800	3.279300	-9.774000	26.339378	0.000455	20.778419
2137.588093	-3.001900	3.280700	-9.845900	26.352215	0.000453	20.783735
2138.587581	-2.986000	3.279600	-9.791900	26.362321	0.000452	20.764494
2139.587453	-2.999300	3.279500	-9.834400	26.394452	0.000455	20.772605
2140.585795	-2.984900	3.278100	-9.783300	26.414936	0.000452	20.760476
2141.587964	-3.006300	3.277100	-9.851600	26.430181	0.000450	20.792394
2142.584767	-3.008500	3.278500	-9.862400	26.480310	0.000451	20.779717
2143.587678	-2.973400	3.279300	-9.749700	26.483339	0.000451	20.780391
2144.591751	-2.998600	3.278500	-9.830700	26.506652	0.000452	20.772530
2145.587371	-2.993600	3.276100	-9.806500	26.510848	0.000449	20.795714
2146.588502	-2.995500	3.277400	-9.816000	26.544761	0.000452	20.769111
2147.586918	-2.981500	3.277700	-9.771600	26.525570	0.000448	20.766890
2148.586921	-3.005800	3.275500	-9.843700	26.499377	0.000447	20.774227
2149.593465	-2.991300	3.276400	-9.799700	26.480161	0.000446	20.777671
2150.587281	-2.969000	3.276000	-9.725600	26.493468	0.000445	20.781089
2151.586105	-2.998400	3.275600	-9.820500	26.501339	0.000445	20.774302
2152.585721	-3.020300	3.275000	-9.890100	26.545431	0.000444	20.772629
2153.593457	-2.951400	3.276100	-9.667200	26.540540	0.000444	20.779093
2154.587581	-2.990600	3.274800	-9.792700	26.549528	0.000444	20.760151
2155.588604	-3.004100	3.273500	-9.832900	26.577755	0.000445	20.762447
2156.588473	-2.983900	3.273300	-9.766200	26.601811	0.000445	20.763396
2157.587860	-2.995200	3.273100	-9.803000	26.583092	0.000443	20.752640
2158.591923	-2.989500	3.272400	-9.782100	26.556107	0.000440	20.740685
2159.588729	-3.007400	3.271800	-9.838600	26.579071	0.000441	20.774676
2160.589883	-3.006700	3.271300	-9.833100	26.554021	0.000441	20.756608
2161.593150	-3.008900	3.272000	-9.842900	26.514373	0.000440	20.751841
2162.595156	-2.991400	3.271700	-9.785700	26.495927	0.000438	20.761275
2163.589689	-2.993100	3.270600	-9.788800	26.519289	0.000438	20.765318
2164.591157	-2.980000	3.270100	-9.743800	26.493320	0.000437	20.733523
2165.598524	-3.012300	3.270300	-9.849800	26.479342	0.000437	20.755036
2166.596243	-3.008000	3.269100	-9.832300	26.456698	0.000436	20.743181
2167.594892	-3.013200	3.267900	-9.845700	26.437084	0.000436	20.742433
2168.595623	-3.019300	3.268000	-9.865500	26.442447	0.000435	20.762048
2169.593491	-3.004400	3.268000	-9.817000	26.449151	0.000436	20.760726
2170.595664	-3.048700	3.266600	-9.957200	26.494661	0.000433	20.778494
2171.599730	-3.009400	3.268500	-9.835100	26.540888	0.000433	20.751941
2172.595995	-2.989000	3.267900	-9.766300	26.591434	0.000434	20.775250
2173.600791	-2.995900	3.267400	-9.787400	26.598757	0.000432	20.747524
2174.598419	-2.996800	3.267200	-9.790900	26.552979	0.000433	20.777846
2175.596153	-2.997100	3.266000	-9.787500	26.524875	0.000430	20.751966
2176.597907	-3.028800	3.265800	-9.890600	26.504169	0.000432	20.765293
2177.603016	-3.017500	3.265000	-9.850900	26.523535	0.000431	20.766266
2178.597318	-3.002700	3.264100	-9.798800	26.504492	0.000429	20.759453
2179.602624	-3.008300	3.265600	-9.823800	26.548138	0.000428	20.769186
2180.603704	-3.010700	3.265000	-9.827900	26.576737	0.000427	20.748622
2181.598896	-2.998400	3.265600	-9.790700	26.601860	0.000428	20.736418
2182.602649	-3.027300	3.263100	-9.877100	26.617873	0.000426	20.758205
2183.607771	-3.025400	3.262400	-9.868300	26.672237	0.000427	20.756907
2184.601522	-2.970600	3.264100	-9.695100	26.681919	0.000424	20.757631
2185.602442	-2.990500	3.262500	-9.755600	26.701454	0.000426	20.754986
2186.603910	-2.979200	3.263000	-9.718800	26.761821	0.000423	20.744080
2187.601990	-3.011100	3.262200	-9.822100	26.774431	0.000425	20.723565
2188.600812	-3.014000	3.259800	-9.823300	26.761424	0.000423	20.760277
2189.600306	-2.974200	3.261600	-9.699600	26.763857	0.000422	20.774576
2190.602072	-3.004900	3.260700	-9.796800	26.773636	0.000423	20.756907
2191.598523	-2.985200	3.260900	-9.733400	26.810098	0.000420	20.755160
2192.603534	-3.014000	3.259200	-9.822600	26.807293	0.000422	20.749021
2193.601483	-2.989200	3.260500	-9.745500	26.782597	0.000419	20.762123
2194.601619	-2.997800	3.259000	-9.768800	26.828787	0.000418	20.751192
2195.607717	-2.963000	3.261000	-9.661400	26.812530	0.000420	20.763770
2196.602017	-3.001200	3.259700	-9.782000	26.811786	0.000420	20.748797
2197.604239	-3.020900	3.257700	-9.840400	26.735709	0.000419	20.747698
2198.605175	-2.989100	3.257900	-9.737700	26.687876	0.000417	20.746550
2199.601619	-2.996700	3.257300	-9.760700	26.668861	0.000415	20.739288
2200.598858	-3.014400	3.256600	-9.815800	26.665063	0.000414	20.762498
2201.603967	-3.002500	3.257500	-9.778800	26.651534	0.000417	20.752215
2202.603493	-2.977300	3.257900	-9.698800	26.598286	0.000412	20.778345
2203.598805	-2.987200	3.254700	-9.721300	26.579269	0.000413	20.749745
2204.600462	-2.981900	3.257400	-9.711500	26.588231	0.000413	20.737416
2205.604660	-3.008800	3.255000	-9.792200	26.631526	0.000413	20.744903
2206.601754	-2.993500	3.256200	-9.746300	26.655953	0.000411	20.766141
2207.606387	-3.024300	3.253500	-9.838500	26.659279	0.000410	20.749096
2208.604793	-2.990700	3.254900	-9.733800	26.685915	0.000411	20.723715
2209.600956	-2.996000	3.254100	-9.748700	26.708454	0.000410	20.726934
2210.604446	-2.994900	3.253000	-9.740700	26.751024	0.000410	20.748871
2211.602909	-2.987300	3.253300	-9.717800	26.762491	0.000408	20.757556
2212.606179	-3.012600	3.251200	-9.793400	26.771526	0.000408	20.747199
2213.604042	-3.002600	3.251400	-9.761600	26.764030	0.000408	20.741559
2214.605509	-2.998000	3.250900	-9.745400	26.756336	0.000407	20.764644
2215.601325	-3.028500	3.251800	-9.846200	26.720493	0.000405	20.749470
2216.606556	-2.992000	3.251800	-9.728000	26.720418	0.000403	20.761724
2217.605593	-3.007800	3.249700	-9.773300	26.714659	0.000404	20.745976
2218.603121	-2.992900	3.250700	-9.728900	26.731340	0.000403	20.746625
2219.606239	-2.995200	3.251300	-9.737500	26.704035	0.000404	20.749520
2220.605516	-3.028000	3.247600	-9.831400	26.696291	0.000402	20.761649
2221.604128	-2.999300	3.248700	-9.742200	26.686411	0.000402	20.759777
2222.603552	-2.997600	3.248300	-9.736300	26.690507	0.000401	20.768162
2223.604969	-3.012000	3.247600	-9.780900	26.698972	0.000400	20.741584
2224.609644	-2.986400	3.246700	-9.694700	26.715752	0.000400	20.741384
2225.607787	-3.010600	3.246400	-9.772600	26.673677	0.000399	20.751716
2226.615724	-3.031800	3.244700	-9.834000	26.645576	0.000398	20.737691
2227.608821	-2.990600	3.246200	-9.706500	26.642175	0.000401	20.735220
2228.607948	-3.011700	3.245700	-9.773300	26.678915	0.000398	20.747024
2229.607334	-2.990100	3.248200	-9.711200	26.720592	0.000397	20.761424
2230.608324	-3.001300	3.244500	-9.737300	26.749386	0.000396	20.746750
2231.614033	-2.991100	3.244300	-9.703300	26.764005	0.000395	20.761449
2232.615202	-3.013700	3.243500	-9.774500	26.807665	0.000396	20.760775
2233.608604	-3.013500	3.245300	-9.778900	26.816923	0.000394	20.763446
2234.609865	-2.988800	3.244500	-9.696500	26.806226	0.000393	20.765018
2235.615662	-2.994600	3.244700	-9.715200	26.780040	0.000394	20.748173
2236.611741	-2.990300	3.243400	-9.697000	26.776466	0.000393	20.760227
2237.612216	-2.988200	3.242600	-9.688000	26.804165	0.000388	20.759627
2238.613629	-2.991500	3.241100	-9.694900	26.822830	0.000392	20.750893
2239.619086	-2.982300	3.243200	-9.670900	26.831269	0.000392	20.750369
2240.631132	-2.977500	3.242400	-9.652400	26.859936	0.000390	20.735570
2241.618831	-3.016000	3.240400	-9.772200	26.875869	0.000391	20.732625
2242.618372	-3.014300	3.240400	-9.766900	26.882719	0.000388	20.754212
2243.624569	-3.000500	3.239600	-9.719500	26.915504	0.000387	20.772954
2244.617690	-2.997300	3.240100	-9.709700	26.902797	0.000388	20.774876
2245.615866	-2.993800	3.240100	-9.699200	26.904609	0.000388	20.781913
2246.620156	-3.007500	3.237800	-9.736800	26.856535	0.000388	20.761075
2247.616074	-2.994800	3.238700	-9.697800	26.840874	0.000386	20.753863
2248.617134	-2.990800	3.237700	-9.682100	26.821564	0.000386	20.760052
2249.620003	-2.995200	3.237000	-9.694300	26.851149	0.000384	20.747124
2250.625958	-3.002800	3.238600	-9.724100	26.882148	0.000383	20.756483
2251.617875	-2.991000	3.235600	-9.675100	26.912972	0.000382	20.746700
2252.624600	-2.994100	3.235500	-9.686500	26.918209	0.000385	20.783735
2253.618883	-2.994600	3.237000	-9.692900	26.949330	0.000383	20.746750
2254.620330	-2.987300	3.235900	-9.665900	26.967992	0.000382	20.767414
2255.623161	-2.987700	3.234400	-9.662300	26.996034	0.000380	20.766690
2256.621074	-2.993800	3.234200	-9.681500	26.985339	0.000380	20.762572
2257.617874	-2.974200	3.236700	-9.624800	26.955484	0.000380	20.760526
2258.619585	-2.995200	3.235000	-9.687800	26.969332	0.000380	20.772554
2259.619453	-2.990700	3.233800	-9.670300	26.993702	0.000378	20.780466
2260.620137	-2.993200	3.233400	-9.676800	27.001692	0.000378	20.774277
2261.620071	-2.959900	3.234400	-9.572300	26.984942	0.000376	20.774501
2262.625173	-3.018200	3.231400	-9.751400	26.927267	0.000377	20.771506
2263.621746	-2.990700	3.231600	-9.663100	26.841792	0.000375	20.772804
2264.622252	-3.003200	3.231200	-9.702700	26.794684	0.000376	20.756732
2265.620124	-3.003700	3.230900	-9.703800	26.756906	0.000375	20.760950
2266.621637	-3.002900	3.229000	-9.694600	26.764576	0.000376	20.762497
2267.622853	-2.986900	3.230300	-9.648200	26.801013	0.000373	20.754087
2268.623093	-3.008300	3.230500	-9.716100	26.798035	0.000374	20.761998
2269.624025	-2.999600	3.227000	-9.677400	26.798184	0.000372	20.775424
2270.627522	-2.995700	3.228900	-9.672100	26.792773	0.000372	20.768561
2271.621843	-2.994400	3.229000	-9.666900	26.783142	0.000371	20.778319
2272.622672	-3.018800	3.226700	-9.739000	26.838144	0.000371	20.776722
2273.625405	-2.993100	3.229000	-9.663900	26.882843	0.000371	20.778519
2274.624238	-2.999000	3.227200	-9.677200	26.872915	0.000372	20.775649
2275.622233	-3.000000	3.226400	-9.677700	26.901680	0.000368	20.776123
2276.623003	-3.016700	3.226400	-9.731600	26.954243	0.000369	20.769235
2277.624810	-2.985500	3.226300	-9.630600	26.980202	0.000367	20.787753
2278.626070	-2.977400	3.225600	-9.603200	26.977894	0.000369	20.775474
2279.626495	-2.986400	3.224500	-9.628700	27.004075	0.000365	20.767663
2280.625261	-3.002300	3.222300	-9.672300	27.008194	0.000368	20.786505
2281.633347	-3.009900	3.224100	-9.703200	27.013653	0.000365	20.775399
2282.629567	-3.011200	3.222000	-9.701400	27.026111	0.000364	20.793143
2283.624560	-3.006400	3.222200	-9.685700	27.040826	0.000365	20.775225
2284.627728	-3.011000	3.223800	-9.705800	27.069710	0.000364	20.780091
2285.629991	-3.027200	3.221200	-9.749500	27.045243	0.000364	20.791521
2286.629607	-3.009800	3.220700	-9.692700	27.049462	0.000361	20.794341
2287.628038	-3.012600	3.221400	-9.704000	27.007598	0.000362	20.783061
2288.638246	-3.040400	3.219000	-9.786200	27.014944	0.000361	20.792819
2289.640046	-2.981800	3.220100	-9.601300	27.040628	0.000361	20.775974
2290.628291	-2.999100	3.220000	-9.655200	27.069983	0.000361	20.786056
2291.630054	-2.996300	3.218600	-9.643300	27.097204	0.000361	20.786405
2292.634843	-2.982400	3.218400	-9.596900	27.113432	0.000359	20.785182
2293.628802	-3.001700	3.218300	-9.658800	27.096758	0.000359	20.796862
2294.632738	-3.032500	3.216700	-9.753800	27.109164	0.000359	20.778993
2295.634317	-3.009400	3.217700	-9.681000	27.112663	0.000357	20.776822
2296.627785	-3.013600	3.217300	-9.695400	27.125020	0.000358	20.814380
2297.629213	-3.002300	3.217900	-9.660300	27.124548	0.000357	20.792569
2298.637671	-2.981700	3.216400	-9.589300	27.111447	0.000356	20.792195
2299.630747	-3.002200	3.215800	-9.653000	27.101497	0.000354	20.782662
2300.629637	-3.002100	3.215400	-9.652600	27.111075	0.000354	20.791346
2301.635178	-3.014100	3.215200	-9.690200	27.060951	0.000355	20.794990
2302.629606	-3.015600	3.215000	-9.693400	26.994124	0.000352	20.783735
2303.629376	-2.999700	3.214100	-9.640300	26.943796	0.000353	20.786231
2304.635860	-3.013800	3.214400	-9.686600	26.877582	0.000354	20.768487
2305.630257	-3.016300	3.213300	-9.691400	26.903964	0.000351	20.813033
2306.629740	-3.034800	3.212000	-9.746400	26.909349	0.000352	20.789999
2307.633839	-3.023700	3.212900	-9.712700	26.939056	0.000352	20.778145
2308.637545	-3.010000	3.212200	-9.667100	27.003132	0.000352	20.785207
2309.634710	-2.981100	3.211600	-9.573100	27.033754	0.000350	20.804623
2310.635617	-2.982800	3.212100	-9.579100	26.988267	0.000350	20.800131
2311.631972	-2.996300	3.210700	-9.619200	26.929973	0.000349	20.807418
2312.634444	-2.997200	3.210700	-9.620900	26.962136	0.000348	20.793293
2313.637667	-2.972400	3.209700	-9.539600	26.960920	0.000348	20.816252
2314.640899	-2.993800	3.209900	-9.607700	26.951241	0.000347	20.805097
2315.632140	-3.014000	3.207500	-9.666500	26.933348	0.000346	20.810338
2316.637738	-3.009300	3.207400	-9.651900	26.904832	0.000344	20.787828
2317.631222	-2.994500	3.207900	-9.604600	26.939726	0.000346	20.799682
2318.635837	-3.003800	3.207100	-9.632700	27.010056	0.000345	20.806869
2319.639873	-3.017000	3.205700	-9.670800	27.051745	0.000346	20.806120
2320.635121	-3.007100	3.205200	-9.636800	27.083507	0.000344	20.811036
2321.639089	-3.013000	3.205900	-9.658500	27.067179	0.000345	20.803150
2322.635288	-2.987700	3.205000	-9.575200	27.088197	0.000343	20.803899
2323.632023	-3.016200	3.204400	-9.663800	27.082887	0.000340	20.803774
2324.635591	-3.002900	3.203400	-9.618000	27.081448	0.000340	20.804224
2325.646668	-3.015200	3.205000	-9.662500	27.087155	0.000342	20.826084
2326.636945	-2.969700	3.203600	-9.512300	27.024746	0.000340	20.814056
2327.639421	-3.014900	3.202000	-9.653100	27.072266	0.000340	20.794042
2328.642006	-2.979600	3.202000	-9.540200	27.066559	0.000339	20.819596
2329.636189	-2.995400	3.201700	-9.589400	27.092167	0.000339	20.811211
2330.640683	-2.994700	3.200800	-9.584400	27.097155	0.000339	20.829503
2331.642866	-3.010000	3.200000	-9.631600	27.101050	0.000337	20.817300
2332.642606	-2.989500	3.199500	-9.563700	27.129362	0.000338	20.811635
2333.637933	-3.016300	3.198800	-9.647100	27.134027	0.000336	20.827706
2334.640346	-3.010400	3.199000	-9.629200	27.123258	0.000335	20.811660
2335.637189	-2.997000	3.199000	-9.586200	27.121348	0.000335	20.822541
2336.637060	-2.991100	3.199100	-9.568100	27.097378	0.000334	20.834469
2337.640807	-2.990400	3.198600	-9.563400	27.082118	0.000333	20.810113
2338.636229	-3.012200	3.197300	-9.629600	27.122489	0.000334	20.816576
2339.637268	-3.007300	3.196600	-9.612000	27.157202	0.000336	20.815453
2340.644627	-2.999800	3.195800	-9.585400	27.218809	0.000333	20.818623
2341.635585	-3.000500	3.194800	-9.584700	27.222754	0.000334	20.832073
2342.636928	-2.993900	3.197200	-9.571100	27.228907	0.000331	20.821193
2343.642196	-3.015600	3.193700	-9.630200	27.245207	0.000331	20.825261
2344.637428	-3.001300	3.195000	-9.587700	27.232852	0.000329	20.830377
2345.645425	-2.973500	3.194900	-9.499000	27.270637	0.000330	20.819546
2346.641066	-3.000500	3.192900	-9.579800	27.239278	0.000329	20.820719
2347.637340	-3.004900	3.192800	-9.593200	27.247663	0.000330	20.827731
2348.641493	-3.003400	3.194300	-9.592700	27.261780	0.000328	20.827232
2349.640426	-2.995200	3.193500	-9.564100	27.252377	0.000328	20.831999
2350.636515	-2.995900	3.191700	-9.561000	27.248755	0.000328	20.827881
2351.638631	-2.970900	3.192300	-9.481300	27.238633	0.000327	20.810588
2352.642742	-3.006700	3.189500	-9.589000	27.248532	0.000327	20.823864
2353.643166	-3.013100	3.189300	-9.608600	27.293065	0.000327	20.833097
2354.642426	-3.017800	3.189100	-9.623100	27.320082	0.000325	20.850790
2355.643585	-3.008100	3.188500	-9.590300	27.312093	0.000326	20.839435
2356.640059	-3.001800	3.187300	-9.566400	27.306065	0.000326	20.840483
2357.643340	-3.007200	3.186700	-9.582200	27.329137	0.000324	20.830976
2358.641597	-3.017300	3.186000	-9.611700	27.384259	0.000321	20.848020
2359.639372	-2.999100	3.186800	-9.556900	27.384805	0.000324	20.812534
2360.643750	-2.979600	3.187200	-9.495100	27.403162	0.000323	20.843803
2361.640733	-2.991400	3.186800	-9.532200	27.424817	0.000323	20.852786
2362.642514	-2.979900	3.186000	-9.493400	27.410951	0.000321	20.828405
2363.639713	-2.993600	3.184600	-9.532800	27.421717	0.000321	20.862468
2364.645008	-2.991200	3.185100	-9.525600	27.394802	0.000321	20.831599
2365.643129	-3.007600	3.183500	-9.573700	27.369598	0.000321	20.846073
2366.643815	-2.977600	3.182700	-9.475500	27.378653	0.000320	20.814880
2367.643350	-2.977600	3.182900	-9.476200	27.366249	0.000321	20.823739
2368.640126	-2.999400	3.181400	-9.541500	27.386417	0.000318	20.847820
2369.644688	-3.005600	3.180600	-9.558700	27.406734	0.000317	20.852611
2370.644876	-3.018600	3.179900	-9.598200	27.394033	0.000317	20.864490
2371.640204	-3.005600	3.181600	-9.561500	27.438163	0.000317	20.844402
2372.652745	-2.998900	3.179900	-9.535700	27.391924	0.000317	20.865213
2373.642766	-3.029200	3.179100	-9.628500	27.404055	0.000318	20.838063
2374.640801	-3.025800	3.178400	-9.616300	27.420203	0.000315	20.835817
2375.643004	-3.023200	3.178900	-9.609700	27.423428	0.000317	20.852811
2376.642101	-3.007600	3.179000	-9.560400	27.452724	0.000315	20.857153
2377.641122	-2.999900	3.178600	-9.534400	27.451012	0.000314	20.872500
2378.647221	-2.993100	3.177400	-9.509500	27.459619	0.000313	20.864564
2379.644789	-3.010900	3.175500	-9.560200	27.445555	0.000314	20.861794
2380.644590	-2.979900	3.175000	-9.460400	27.389617	0.000313	20.847720
2381.653857	-3.002400	3.175700	-9.533900	27.362553	0.000314	20.862219
2382.647936	-2.997500	3.175000	-9.514800	27.361535	0.000314	20.852187
2383.647027	-2.997400	3.174800	-9.515500	27.370664	0.000313	20.866585
2384.643838	-3.022500	3.172500	-9.587200	27.374113	0.000313	20.871002
2385.646729	-2.960400	3.175600	-9.400300	27.379198	0.000312	20.867109
2386.644849	-2.997100	3.173600	-9.510500	27.402988	0.000312	20.877765
2387.648041	-3.009300	3.172800	-9.545800	27.412960	0.000310	20.859823
2388.653769	-3.003500	3.172500	-9.528000	27.415019	0.000309	20.872799
2389.647100	-3.001500	3.170500	-9.515500	27.429282	0.000312	20.858700
2390.648386	-2.980300	3.171000	-9.449000	27.475842	0.000311	20.831100
2391.655766	-2.989300	3.172100	-9.481900	27.465771	0.000309	20.855580
2392.650110	-3.009100	3.170700	-9.539700	27.495263	0.000309	20.873872
2393.647738	-2.973800	3.170400	-9.427200	27.517413	0.000308	20.864389
2394.650470	-2.978100	3.168600	-9.434600	27.525450	0.000310	20.875793
2395.652470	-2.985100	3.168800	-9.458300	27.472418	0.000309	20.858475
2396.654446	-3.002800	3.168200	-9.512400	27.401052	0.000308	20.883878
2397.651438	-3.001600	3.166900	-9.504800	27.404674	0.000307	20.865237
2398.650003	-2.991700	3.165600	-9.470000	27.452351	0.000306	20.857252
2399.651495	-3.020900	3.166900	-9.565500	27.431068	0.000306	20.865711
2400.651451	-3.002100	3.164900	-9.500600	27.413976	0.000306	20.861793
2401.650199	-2.997200	3.164100	-9.481500	27.398522	0.000304	20.874695
2402.654473	-3.008500	3.162700	-9.512600	27.371730	0.000307	20.880459
2403.655007	-2.976800	3.163400	-9.415400	27.300184	0.000303	20.875344
2404.652038	-3.020700	3.162100	-9.549700	27.234836	0.000303	20.862717
2405.652515	-3.027600	3.162300	-9.572700	27.214268	0.000302	20.870952
2406.655496	-2.971500	3.162300	-9.395000	27.243891	0.000302	20.873247
2407.653705	-3.019800	3.159200	-9.538800	27.292766	0.000302	20.870253
2408.656910	-2.987100	3.159100	-9.435400	27.325042	0.000303	20.881856
2409.659123	-2.992200	3.159700	-9.453100	27.367464	0.000301	20.882331
2410.656505	-2.999700	3.159800	-9.476700	27.391303	0.000301	20.866959
2411.658134	-2.980700	3.159900	-9.417500	27.377486	0.000301	20.886248
2412.656954	-2.979800	3.158100	-9.409400	27.366695	0.000303	20.900522
2413.655738	-3.016900	3.157300	-9.524300	27.361659	0.000303	20.885500
2414.659578	-2.969100	3.156600	-9.370900	27.341738	0.000299	20.867358
2415.661593	-2.989500	3.156300	-9.434500	27.339233	0.000300	20.894707
2416.658085	-2.998800	3.156200	-9.463500	27.321842	0.000298	20.879586
2417.662517	-3.022900	3.154800	-9.535500	27.323728	0.000299	20.879586
2418.662558	-3.005400	3.153200	-9.476100	27.306932	0.000298	20.876916
2419.662878	-2.993400	3.153900	-9.438100	27.278700	0.000297	20.900197
2420.657627	-3.017400	3.152200	-9.509200	27.277906	0.000298	20.893235
2421.664588	-2.986700	3.152300	-9.413900	27.257463	0.000297	20.907284
2422.658497	-2.987600	3.151200	-9.413100	27.261184	0.000296	20.898700
2423.663959	-2.999700	3.151300	-9.452700	27.250814	0.000297	20.903915
2424.663279	-3.032500	3.149700	-9.550400	27.273490	0.000295	20.904913
2425.665574	-3.010200	3.150000	-9.481200	27.305717	0.000296	20.896080
2426.664149	-3.021100	3.147300	-9.507600	27.309413	0.000296	20.894583
2427.665999	-3.024300	3.148500	-9.521400	27.323703	0.000295	20.904689
2428.659802	-3.008600	3.147100	-9.467400	27.374906	0.000292	20.894084
2429.658488	-2.992400	3.148000	-9.419200	27.423204	0.000294	20.914221
2430.669708	-2.996400	3.146200	-9.426100	27.479785	0.000294	20.885799
2431.658944	-2.979500	3.146900	-9.375700	27.504614	0.000293	20.905088
2432.663765	-3.013400	3.144500	-9.474100	27.497669	0.000293	20.908058
2433.664353	-3.008600	3.143200	-9.455500	27.515057	0.000293	20.900422
2434.661838	-2.952200	3.146300	-9.287400	27.525698	0.000291	20.904016
2435.661032	-3.013900	3.143800	-9.473700	27.539513	0.000293	20.902269
2436.661218	-3.011900	3.142300	-9.462600	27.564267	0.000291	20.931913
2437.660687	-3.003000	3.141400	-9.432100	27.585820	0.000292	20.921358
2438.662457	-2.984100	3.141800	-9.374200	27.572898	0.000292	20.921632
2439.667696	-3.001500	3.139900	-9.424000	27.571162	0.000289	20.892862
2440.660989	-3.011700	3.139100	-9.451900	27.589888	0.000290	20.895107
2441.665316	-3.016200	3.138200	-9.464300	27.610548	0.000290	20.900248
2442.665072	-3.010500	3.137600	-9.444600	27.624560	0.000290	20.899175
2443.662363	-2.985800	3.137000	-9.365600	27.633265	0.000289	20.919312
2444.666957	-3.005600	3.135900	-9.424200	27.676022	0.000288	20.897852
2445.663723	-2.997700	3.135600	-9.399100	27.672078	0.000289	20.913323
2446.665857	-3.006200	3.134100	-9.420000	27.641921	0.000288	20.916642
2447.663163	-2.990200	3.134100	-9.370800	27.657719	0.000288	20.901246
2448.667774	-3.010200	3.133200	-9.429700	27.661737	0.000289	20.906711
2449.665870	-3.001300	3.133100	-9.402300	27.624188	0.000288	20.889792
2450.667369	-3.012700	3.131800	-9.434000	27.652412	0.000286	20.911552
2451.669992	-3.008400	3.131200	-9.418400	27.657868	0.000287	20.905188
2452.674935	-3.020900	3.129700	-9.452900	27.690902	0.000288	20.914721
2453.666643	-3.019500	3.127900	-9.442700	27.660770	0.000287	20.896729
2454.674844	-2.986400	3.128500	-9.341700	27.618757	0.000288	20.899499
2455.669421	-3.013100	3.127000	-9.420200	27.639789	0.000287	20.892687
2456.667756	-2.993400	3.127300	-9.360100	27.644922	0.000286	20.910179
2457.676797	-3.015700	3.125400	-9.424400	27.644823	0.000286	20.893486
2458.666152	-3.016700	3.126000	-9.427800	27.608241	0.000287	20.897927
2459.671257	-3.017500	3.123500	-9.423700	27.596609	0.000286	20.876268
2460.672061	-3.013400	3.121600	-9.406300	27.614616	0.000284	20.893910
2461.670768	-2.996800	3.123900	-9.360400	27.659431	0.000286	20.881159
2462.671685	-3.036000	3.121100	-9.474700	27.677585	0.000284	20.898003
2463.673431	-2.996400	3.121300	-9.351900	27.686091	0.000284	20.897554
2464.679700	-3.025700	3.120600	-9.440900	27.698690	0.000284	20.896007
2465.671746	-2.998900	3.119800	-9.353900	27.647403	0.000284	20.895607
2466.678339	-3.000000	3.120300	-9.360100	27.624437	0.000282	20.898103
2467.673294	-3.013700	3.118800	-9.398400	27.628232	0.000283	20.892439
2468.671089	-3.007800	3.117100	-9.373700	27.595147	0.000283	20.887124
2469.675436	-2.996000	3.117600	-9.339000	27.607672	0.000283	20.895458
2470.673296	-3.018500	3.116100	-9.404600	27.543806	0.000280	20.892838
2471.673038	-3.014600	3.113800	-9.386000	27.519102	0.000279	20.893587
2472.676154	-2.979100	3.114100	-9.274900	27.441488	0.000281	20.902745
2473.675265	-2.983200	3.112800	-9.285300	27.418047	0.000281	20.889594
2474.671436	-3.019400	3.111900	-9.395500	27.389892	0.000280	20.878340
2475.677357	-2.994400	3.113100	-9.320800	27.412937	0.000280	20.906263
2476.678248	-2.989100	3.111300	-9.299500	27.401154	0.000280	20.887773
2477.672329	-2.978800	3.111500	-9.266900	27.356725	0.000279	20.872003
2478.675542	-2.980400	3.111300	-9.272200	27.310458	0.000279	20.868609
2479.674006	-3.003000	3.108400	-9.334000	27.310012	0.000278	20.877642
2480.675018	-3.004200	3.108600	-9.337900	27.313683	0.000279	20.883706
2481.676231	-3.006800	3.105600	-9.337400	27.330677	0.000277	20.872826
2482.677403	-3.018000	3.105600	-9.371200	27.370890	0.000276	20.892889
2483.671881	-3.051000	3.103400	-9.467800	27.434841	0.000278	20.896058
2484.676456	-2.989300	3.105600	-9.281400	27.436975	0.000277	20.893937
2485.674262	-2.993400	3.103300	-9.288100	27.433055	0.000277	20.874349
2486.675711	-2.992300	3.102400	-9.282200	27.417676	0.000278	20.880687
2487.677709	-3.024200	3.100200	-9.375000	27.434345	0.000278	20.877543
2488.677201	-2.998800	3.102700	-9.303200	27.443697	0.000281	20.874623
2489.676733	-3.000300	3.100900	-9.302800	27.468974	0.000275	20.891991
2490.678351	-2.995400	3.099400	-9.282400	27.483906	0.000277	20.874773
2491.677188	-2.994200	3.098900	-9.277500	27.506726	0.000276	20.866439
2492.675545	-2.976700	3.098700	-9.222300	27.537185	0.000276	20.883807
2493.683864	-3.021900	3.095700	-9.354000	27.555267	0.000276	20.872129
2494.678507	-2.986800	3.096000	-9.246500	27.545469	0.000276	20.873176
2495.682374	-2.998200	3.096400	-9.282600	27.559532	0.000273	20.870257
2496.680045	-2.976300	3.095700	-9.211400	27.609435	0.000276	20.863569
2497.680959	-3.000000	3.094800	-9.283400	27.616503	0.000274	20.867836
2498.677569	-2.995100	3.093600	-9.264100	27.675206	0.000277	20.861947
2499.680475	-3.003900	3.091600	-9.285900	27.705958	0.000273	20.877244
2500.683427	-2.969300	3.091100	-9.177100	27.684209	0.000274	20.859152
2501.687629	-2.981400	3.090500	-9.212000	27.668287	0.000275	20.868734
2502.681468	-3.008200	3.087700	-9.287300	27.653258	0.000273	20.877318
2503.680390	-2.992000	3.087300	-9.235900	27.677786	0.000273	20.854112
2504.679734	-2.989300	3.087000	-9.226900	27.681629	0.000271	20.858927
2505.681171	-2.986400	3.086900	-9.218100	27.714390	0.000274	20.857755
2506.679821	-2.985200	3.087100	-9.214000	27.711364	0.000273	20.865615
2507.679850	-3.004100	3.083300	-9.261100	27.734700	0.000274	20.870606
2508.686093	-3.005900	3.082300	-9.264300	27.747545	0.000274	20.865989
2509.681013	-2.969800	3.081600	-9.150600	27.775394	0.000273	20.862246
2510.679916	-3.001700	3.081200	-9.247700	27.767558	0.000273	20.851516
2511.682665	-2.999200	3.078500	-9.232700	27.770707	0.000273	20.848521
2512.680703	-3.003400	3.078800	-9.246300	27.712976	0.000272	20.857754
2513.680231	-2.980400	3.079400	-9.177000	27.697600	0.000272	20.859351
2514.688332	-3.010900	3.077900	-9.266400	27.679174	0.000271	20.852190
2515.692059	-3.008100	3.077200	-9.256200	27.708115	0.000273	20.835320
2516.689840	-3.031100	3.074200	-9.317100	27.728252	0.000273	20.850842
2517.686674	-3.003500	3.073500	-9.229800	27.761383	0.000274	20.880862
2518.693954	-3.006300	3.072400	-9.234900	27.816061	0.000272	20.868085
2519.682690	-3.018900	3.072500	-9.275000	27.800588	0.000271	20.848246
2520.689594	-2.954400	3.072400	-9.076100	27.768053	0.000272	20.843006
2521.693494	-3.002200	3.069100	-9.213200	27.730310	0.000270	20.833473
2522.690836	-2.987600	3.069300	-9.168700	27.773657	0.000270	20.837266
2523.695053	-3.017100	3.066900	-9.252500	27.814350	0.000271	20.840286
2524.689546	-2.976100	3.068000	-9.129500	27.820946	0.000270	20.843605
2525.696383	-3.026600	3.065400	-9.275900	27.836691	0.000269	20.859451
2526.692628	-3.006000	3.065900	-9.214900	27.835997	0.000270	20.845476
2527.692803	-3.018000	3.063800	-9.245500	27.825037	0.000270	20.829231
2528.689486	-3.013900	3.063000	-9.230200	27.799843	0.000269	20.847971
2529.692160	-3.012100	3.062000	-9.221600	27.785585	0.000270	20.837890
2530.693233	-3.001100	3.060400	-9.183500	27.772640	0.000272	20.835769
2531.690985	-2.991900	3.060100	-9.154800	27.742188	0.000268	20.843055
2532.692088	-2.990600	3.058800	-9.146500	27.699558	0.000269	20.853736
2533.692030	-3.013100	3.057900	-9.212200	27.677933	0.000270	20.857579
2534.692871	-3.012800	3.055900	-9.204900	27.674436	0.000268	20.842681
2535.695329	-2.989100	3.054700	-9.130700	27.649313	0.000270	20.844427
2536.692125	-3.008600	3.053700	-9.186600	27.660771	0.000268	20.847896
2537.692055	-3.014700	3.053400	-9.203700	27.665384	0.000269	20.841158
2538.700203	-2.999700	3.052600	-9.155800	27.652264	0.000269	20.844078
2539.698056	-3.008000	3.051900	-9.179100	27.671832	0.000268	20.821094
2540.702157	-2.996700	3.050300	-9.139800	27.680784	0.000269	20.834845
2541.692534	-3.003800	3.049700	-9.160300	27.724307	0.000269	20.821269
2542.702051	-2.978200	3.048400	-9.077500	27.763637	0.000268	20.842356
2543.693192	-3.015700	3.045200	-9.182900	27.755504	0.000270	20.825636
2544.692276	-3.002300	3.045100	-9.141800	27.802520	0.000268	20.848769
2545.695320	-2.986100	3.043800	-9.087100	27.825928	0.000268	20.835343
2546.698694	-3.020300	3.042600	-9.188900	27.848195	0.000268	20.837364
2547.697826	-2.999900	3.042400	-9.126300	27.858857	0.000267	20.829603
2548.697349	-3.022300	3.040700	-9.188900	27.855981	0.000268	20.832872
2549.697407	-3.012500	3.038200	-9.151100	27.873635	0.000266	20.825037
2550.698524	-3.014000	3.038300	-9.156400	27.862353	0.000267	20.835018
2551.702703	-2.986500	3.037900	-9.071000	27.861560	0.000267	20.840384
2552.703514	-3.021000	3.036300	-9.171600	27.882413	0.000266	20.829129
2553.696547	-2.994600	3.035900	-9.090000	27.871403	0.000267	20.828480
2554.704042	-3.017100	3.034400	-9.154000	27.911125	0.000268	20.821044
2555.698099	-2.995600	3.034300	-9.088100	27.923448	0.000268	20.839610
2556.713394	-3.025000	3.030100	-9.165100	27.941969	0.000267	20.812733
2557.704257	-3.009600	3.030500	-9.118700	27.940754	0.000268	20.829528
2558.701441	-3.013600	3.030000	-9.130100	27.925580	0.000266	20.812833
2559.699736	-3.033700	3.027200	-9.182500	27.934630	0.000267	20.837114
2560.701293	-3.002100	3.026500	-9.085400	27.929398	0.000268	20.831849
2561.706038	-2.992100	3.027200	-9.056500	27.930018	0.000266	20.820145
2562.697698	-3.020400	3.024500	-9.134100	27.936911	0.000266	20.837988
2563.703260	-2.987600	3.023800	-9.032100	27.954440	0.000266	20.837613
2564.699030	-2.988000	3.021600	-9.027700	27.982283	0.000267	20.817275
2565.705036	-3.003000	3.020400	-9.069300	28.007199	0.000267	20.820544
2566.706608	-2.993600	3.019600	-9.037700	27.985531	0.000266	20.817225
2567.704232	-3.015000	3.018400	-9.098700	27.962721	0.000265	20.824612
2568.704937	-2.989400	3.017700	-9.020300	27.957862	0.000267	20.834893
2569.701597	-3.015100	3.016000	-9.093200	27.971275	0.000267	20.800031
2570.706308	-2.997100	3.016400	-9.038700	27.979357	0.000266	20.798209
2571.703768	-2.983500	3.016400	-8.996300	28.001150	0.000268	20.829153
2572.702697	-3.003800	3.012300	-9.047100	28.004695	0.000265	20.818024
2573.702358	-3.004400	3.013600	-9.052100	27.987167	0.000264	20.806070
2574.708436	-2.978700	3.011100	-8.968800	27.975812	0.000265	20.822141
2575.702653	-3.021800	3.010200	-9.095100	27.935820	0.000266	20.805596
2576.707453	-3.000200	3.008700	-9.025600	27.894810	0.000266	20.834020
2577.709572	-3.003200	3.007000	-9.029800	27.914844	0.000266	20.832372
2578.711865	-3.021700	3.005800	-9.081100	27.875792	0.000265	20.808241
2579.708181	-3.002400	3.004600	-9.019800	27.884296	0.000264	20.815378
2580.706024	-2.988000	3.004900	-8.977300	27.841574	0.000263	20.806993
2581.707781	-2.994100	3.000900	-8.984300	27.847624	0.000265	20.784159
2582.702679	-3.005200	3.000500	-9.016600	27.843309	0.000266	20.816327
2583.706067	-2.989500	2.999200	-8.964800	27.883652	0.000263	20.802876
2584.708936	-2.997200	2.998900	-8.986000	27.947944	0.000263	20.818273
2585.710277	-3.025900	2.995400	-9.062200	27.984414	0.000264	20.801403
2586.709538	-2.996500	2.995800	-8.975200	27.974720	0.000265	20.810137
2587.710697	-2.989400	2.993900	-8.949400	28.011166	0.000267	20.816002
2588.712439	-3.001000	2.992300	-8.979200	28.042602	0.000265	20.791221
2589.705144	-2.991000	2.990900	-8.944400	28.031470	0.000264	20.823638
2590.712137	-3.006800	2.988900	-8.985800	27.986373	0.000264	20.785357
2591.709878	-2.990300	2.989300	-8.937500	27.931431	0.000264	20.819670
2592.707480	-2.989000	2.988500	-8.931200	27.901231	0.000263	20.796861
2593.709981	-3.008900	2.986200	-8.983800	27.883924	0.000263	20.802676
2594.708828	-2.995700	2.985100	-8.941300	27.857715	0.000264	20.809014
2595.710248	-2.991300	2.984500	-8.926400	27.833267	0.000261	20.820918
2596.709845	-3.014400	2.981300	-8.985200	27.846260	0.000265	20.796062
2597.709539	-2.977700	2.981800	-8.877800	27.892280	0.000264	20.795438
2598.706093	-2.997300	2.980600	-8.932100	27.900016	0.000263	20.798957
2599.710439	-3.017000	2.976800	-8.980000	27.916331	0.000264	20.794989
2600.713317	-3.013500	2.975300	-8.965100	27.969935	0.000265	20.798208
2601.713642	-3.008800	2.974000	-8.946800	27.996761	0.000267	20.797709
2602.720912	-2.994000	2.974200	-8.904200	28.039453	0.000267	20.807018
2603.712663	-2.991200	2.972600	-8.889800	28.068632	0.000263	20.797510
2604.716146	-2.981000	2.970500	-8.852700	28.053559	0.000264	20.802725
2605.709179	-3.007400	2.970900	-8.933200	28.037222	0.000263	20.784383
2606.715274	-3.010100	2.969000	-8.935700	28.045105	0.000264	20.793267
2607.715932	-3.002000	2.968700	-8.910800	28.065979	0.000265	20.806693
2608.720002	-2.978300	2.966300	-8.833600	28.074855	0.000263	20.788126
2609.719605	-2.983500	2.965700	-8.846700	28.060848	0.000263	20.799157
2610.719118	-2.991700	2.963700	-8.866000	28.076193	0.000264	20.789948
2611.720293	-2.995900	2.960900	-8.868500	28.127484	0.000264	20.772828
2612.721877	-3.016600	2.959100	-8.925600	28.124955	0.000266	20.789723
2613.719085	-3.012400	2.959200	-8.912700	28.094712	0.000263	20.769235
2614.712845	-2.991700	2.957400	-8.846700	28.044411	0.000261	20.801577
2615.724111	-3.018200	2.954400	-8.915700	28.002066	0.000264	20.795463
2616.716278	-2.996400	2.954000	-8.850700	28.008686	0.000264	20.794066
2617.719598	-2.991700	2.952500	-8.831900	28.009951	0.000264	20.770208
2618.718306	-2.986000	2.951300	-8.810800	28.060253	0.000264	20.784807
2619.717657	-2.977700	2.949300	-8.781100	28.095381	0.000263	20.777495
2620.716222	-2.973300	2.949300	-8.768200	28.067665	0.000264	20.797011
2621.714630	-2.974900	2.947200	-8.766900	28.048552	0.000263	20.796262
2622.716053	-3.007500	2.945000	-8.856000	28.021380	0.000266	20.792619
2623.715074	-2.991300	2.944400	-8.807000	28.023438	0.000262	20.778569
2624.716918	-3.019600	2.940500	-8.878700	28.049469	0.000264	20.781538
2625.718533	-3.002600	2.940700	-8.828400	28.047064	0.000263	20.797136
2626.719623	-3.016000	2.938100	-8.859900	28.086110	0.000264	20.773852
2627.721009	-3.026000	2.937100	-8.887000	28.096274	0.000264	20.785981
2628.721697	-3.003700	2.934600	-8.813900	28.073839	0.000262	20.770508
2629.724809	-2.977300	2.935400	-8.739000	28.098381	0.000264	20.782886
2630.728509	-2.992200	2.933300	-8.776200	28.114049	0.000263	20.754561
2631.729083	-3.018200	2.931700	-8.848000	28.113875	0.000263	20.757706
2632.727345	-2.979000	2.931300	-8.731300	28.124758	0.000263	20.796163
2633.729757	-3.017200	2.927500	-8.832500	28.155620	0.000264	20.794990
2634.724678	-2.992000	2.926700	-8.754800	28.178922	0.000264	20.784309
2635.727849	-3.023300	2.924000	-8.839000	28.174385	0.000262	20.797286
2636.728404	-3.007200	2.922400	-8.787800	28.170989	0.000263	20.784858
2637.728398	-3.008900	2.922000	-8.791400	28.158124	0.000263	20.778544
2638.731447	-3.011900	2.918300	-8.788700	28.202123	0.000263	20.783011
2639.732330	-3.013500	2.919000	-8.796000	28.187250	0.000263	20.772779
2640.726796	-2.997100	2.918200	-8.744900	28.182962	0.000263	20.754237
2641.729611	-2.993000	2.915200	-8.723700	28.184821	0.000263	20.758005
2642.727567	-3.038800	2.913400	-8.852500	28.226415	0.000263	20.784708
2643.727938	-2.974600	2.914500	-8.668500	28.263843	0.000264	20.756009
2644.730402	-2.994200	2.910400	-8.713000	28.269643	0.000263	20.775600
2645.736083	-3.029400	2.908900	-8.811300	28.283251	0.000262	20.776972
2646.736226	-3.004000	2.906900	-8.731600	28.266793	0.000263	20.797386
2647.729492	-3.002400	2.905900	-8.723900	28.202991	0.000263	20.781988
2648.737289	-2.979700	2.904200	-8.652400	28.199694	0.000264	20.746426
2649.728272	-2.987700	2.901700	-8.668300	28.200438	0.000263	20.770409
2650.727785	-3.008600	2.900200	-8.724400	28.228968	0.000264	20.774002
2651.725777	-2.974200	2.898900	-8.619800	28.220342	0.000263	20.753464
2652.742100	-3.011600	2.896400	-8.722300	28.216724	0.000261	20.766416
2653.726096	-3.003900	2.893700	-8.691500	28.252714	0.000262	20.780366
2654.734177	-3.015900	2.891800	-8.719900	28.270214	0.000262	20.770484
2655.728772	-2.999500	2.890500	-8.667400	28.286002	0.000262	20.757457
2656.735906	-3.033900	2.888900	-8.763500	28.325213	0.000261	20.764694
2657.733358	-3.000600	2.888600	-8.665300	28.334730	0.000262	20.770010
2658.732400	-3.020200	2.885800	-8.714000	28.342686	0.000262	20.762847
2659.729401	-2.998000	2.883900	-8.645000	28.334606	0.000262	20.765143
2660.730471	-3.018800	2.881900	-8.698800	28.317827	0.000262	20.779543
2661.730628	-3.003500	2.880100	-8.649900	28.331260	0.000261	20.770309
2662.740444	-3.017400	2.878200	-8.683400	28.321644	0.000263	20.757307
2663.737545	-2.989700	2.877600	-8.602400	28.312176	0.000262	20.761525
2664.730129	-2.996500	2.875700	-8.614900	28.239280	0.000262	20.747874
2665.734241	-2.994700	2.873600	-8.604700	28.142086	0.000263	20.737267
2666.728985	-2.971700	2.871700	-8.531900	28.080880	0.000262	20.773803
2667.732131	-3.000300	2.869800	-8.609200	28.005291	0.000260	20.754138
2668.730395	-3.008300	2.868700	-8.628800	27.992597	0.000262	20.767914
2669.733431	-3.013800	2.865900	-8.636000	27.979978	0.000261	20.780816
2670.733441	-3.002900	2.862700	-8.595600	28.019200	0.000263	20.759604
2671.733964	-3.023000	2.861900	-8.650000	28.050611	0.000262	20.754238
2672.733102	-3.003600	2.858200	-8.582900	28.099746	0.000263	20.761500
2673.739275	-3.024700	2.857200	-8.640700	28.124833	0.000264	20.764470
2674.734986	-2.983700	2.856500	-8.521500	28.172428	0.000263	20.749796
2675.731614	-3.005500	2.853700	-8.576000	28.162513	0.000262	20.775850
2676.733689	-2.966200	2.852200	-8.458300	28.125304	0.000263	20.752142
2677.731741	-3.012500	2.849000	-8.581300	28.108646	0.000263	20.770934
2678.732301	-2.998800	2.848100	-8.540000	28.118636	0.000262	20.748748
2679.736802	-2.994200	2.845000	-8.516500	28.179642	0.000260	20.760851
2680.736627	-3.015800	2.842700	-8.572100	28.206437	0.000262	20.755111
2681.732972	-2.978100	2.841800	-8.462000	28.222871	0.000263	20.762174
2682.735668	-2.996300	2.839600	-8.506400	28.216600	0.000263	20.752541
2683.741470	-3.020800	2.835700	-8.565300	28.250162	0.000261	20.755985
2684.733408	-2.986700	2.833100	-8.460800	28.271875	0.000262	20.759354
2685.735034	-2.996600	2.834700	-8.493200	28.295049	0.000262	20.749022
2686.730501	-2.968700	2.831900	-8.406000	28.317629	0.000262	20.762748
2687.734297	-2.989300	2.826400	-8.448100	28.351906	0.000261	20.751742
2688.732814	-2.973900	2.825800	-8.401900	28.376740	0.000262	20.755411
2689.733277	-2.992200	2.823700	-8.448700	28.389032	0.000261	20.753090
2690.731068	-2.998500	2.821100	-8.457800	28.374286	0.000262	20.746302
2691.734041	-3.045200	2.818000	-8.580500	28.322387	0.000260	20.740986
2692.736790	-2.984200	2.818200	-8.409400	28.308681	0.000262	20.741410
2693.729973	-3.037700	2.814300	-8.547700	28.330418	0.000261	20.736269
2694.733674	-3.007100	2.810900	-8.452000	28.353914	0.000262	20.742384
2695.734097	-3.005300	2.810400	-8.445000	28.371014	0.000261	20.741110
2696.737072	-3.000000	2.807600	-8.421800	28.381523	0.000262	20.753589
2697.738732	-3.014900	2.803300	-8.450500	28.407049	0.000261	20.754637
2698.734506	-2.995800	2.801800	-8.393200	28.407619	0.000261	20.760901
2699.746142	-3.001300	2.801700	-8.407400	28.426355	0.000261	20.738041
2700.736482	-3.009800	2.798400	-8.420400	28.448585	0.000261	20.771332
2701.738933	-2.999700	2.796400	-8.387200	28.455821	0.000261	20.762024
2702.735912	-3.026500	2.791400	-8.447000	28.493563	0.000261	20.754038
2703.740217	-2.991000	2.790300	-8.344900	28.525034	0.000262	20.758705
2704.737535	-3.009100	2.787500	-8.386600	28.540274	0.000261	20.743231
2705.735213	-2.980600	2.786900	-8.305900	28.530139	0.000263	20.747250
2706.734443	-2.985500	2.782200	-8.305800	28.471235	0.000262	20.758105
2707.735607	-3.013000	2.779600	-8.373800	28.465386	0.000262	20.749371
2708.735128	-2.999600	2.776200	-8.325600	28.479140	0.000264	20.737142
2709.734400	-2.990100	2.774100	-8.294100	28.492844	0.000261	20.749046
2710.735694	-3.006500	2.769200	-8.324500	28.507688	0.000263	20.740286
2711.737233	-2.994000	2.768400	-8.287400	28.440951	0.000262	20.757007
2712.736547	-3.033100	2.764400	-8.383700	28.420456	0.000262	20.766715
2713.737430	-3.001500	2.763000	-8.292000	28.392724	0.000260	20.761075
2714.742089	-3.018900	2.760000	-8.331300	28.347742	0.000261	20.741859
2715.739546	-3.018500	2.755600	-8.316500	28.315274	0.000262	20.749470
2716.742397	-2.992000	2.753800	-8.238600	28.341620	0.000262	20.744704
2717.743179	-2.991200	2.751200	-8.227600	28.302460	0.000260	20.742258
2718.741246	-2.999700	2.748000	-8.241900	28.314084	0.000262	20.745902
2719.743992	-3.020600	2.744400	-8.288800	28.269494	0.000261	20.742732
2720.738833	-3.035200	2.740500	-8.316800	28.286646	0.000261	20.765692
2721.738629	-3.006300	2.737500	-8.228600	28.295842	0.000259	20.767838
2722.740210	-3.000800	2.733700	-8.201000	28.308755	0.000262	20.765193
2723.739276	-2.994500	2.732300	-8.180900	28.312448	0.000262	20.763695
2724.741276	-2.983600	2.729300	-8.141100	28.341223	0.000261	20.759952
2725.744620	-2.971600	2.725900	-8.099300	28.351881	0.000261	20.776847
2726.744726	-2.986000	2.722100	-8.127300	28.393493	0.000262	20.750469
2727.741322	-3.000000	2.719200	-8.156400	28.415252	0.000261	20.770009
2728.747210	-3.019400	2.713800	-8.192600	28.427742	0.000260	20.756034
2729.740229	-3.016900	2.710500	-8.176400	28.452772	0.000262	20.756109
2730.747696	-2.980900	2.708200	-8.071500	28.461818	0.000261	20.764744
2731.743618	-3.014700	2.704500	-8.152600	28.512197	0.000263	20.754786
2732.742045	-3.035700	2.700600	-8.196500	28.573949	0.000263	20.779991
2733.748866	-3.006500	2.696300	-8.105800	28.627718	0.000261	20.770134
2734.748402	-3.012800	2.693100	-8.112900	28.663670	0.000262	20.767938
2735.747698	-3.023500	2.688800	-8.128900	28.709729	0.000263	20.764544
2736.745366	-3.007800	2.685700	-8.076300	28.758760	0.000261	20.753713
2737.750948	-3.016600	2.683000	-8.092000	28.792998	0.000262	20.778245
2738.747762	-3.002200	2.678700	-8.040300	28.779000	0.000261	20.776473
2739.754245	-3.027900	2.673300	-8.093400	28.825302	0.000260	20.760052
2740.750907	-2.992200	2.670000	-7.988400	28.791040	0.000263	20.754461
2741.748312	-2.983300	2.666300	-7.953800	28.791660	0.000260	20.743231
2742.745211	-3.008500	2.660600	-8.003500	28.787969	0.000260	20.749944
2743.749809	-2.986700	2.657000	-7.934900	28.728683	0.000261	20.763246
2744.750329	-2.974000	2.653200	-7.889700	28.717930	0.000262	20.772330
2745.745125	-3.002100	2.649700	-7.954000	28.727741	0.000261	20.764194
2746.753958	-3.004400	2.645600	-7.947500	28.734108	0.000264	20.764444
2747.744799	-2.976400	2.641200	-7.859900	28.730367	0.000259	20.765417
2748.746959	-3.000800	2.636700	-7.911100	28.743102	0.000261	20.778719
2749.747987	-3.039500	2.631300	-7.997300	28.705641	0.000261	20.766590
2750.747228	-2.974200	2.628500	-7.816100	28.727122	0.000261	20.783960
2751.754066	-3.010900	2.623800	-7.898300	28.749519	0.000263	20.769535
2752.752236	-2.993900	2.618400	-7.838400	28.735620	0.000261	20.769286
2753.746733	-3.020600	2.612200	-7.889100	28.744143	0.000263	20.767913
2754.749757	-3.033100	2.607600	-7.907700	28.773625	0.000263	20.764893
2755.752453	-2.989900	2.604000	-7.784600	28.780289	0.000262	20.789625
2756.749579	-3.024100	2.596800	-7.852500	28.746620	0.000262	20.790324
2757.756977	-2.990100	2.592300	-7.750700	28.750188	0.000261	20.766416
2758.755721	-2.981600	2.588200	-7.715400	28.697143	0.000263	20.780791
2759.754697	-3.005300	2.582500	-7.760400	28.700067	0.000263	20.760501
2760.756414	-2.980400	2.577500	-7.680300	28.681039	0.000261	20.772630
2761.752968	-3.009200	2.570800	-7.734900	28.650737	0.000264	20.762972
2762.754169	-3.003800	2.565300	-7.704200	28.610200	0.000265	20.770983
2763.752978	-3.007800	2.559500	-7.697400	28.558313	0.000262	20.787953
2764.754628	-3.011900	2.555000	-7.694300	28.520772	0.000262	20.760576
2765.759300	-2.982000	2.550400	-7.604900	28.492646	0.000260	20.805746
2766.762656	-3.013500	2.542400	-7.659700	28.527413	0.000264	20.794291
2767.755670	-2.969800	2.536700	-7.532800	28.540348	0.000261	20.784559
2768.760666	-2.994000	2.530100	-7.573800	28.556083	0.000262	20.782388
2769.757393	-2.985700	2.526200	-7.540900	28.601949	0.000262	20.776423
2770.760305	-3.016700	2.517600	-7.594000	28.597340	0.000264	20.769411
2771.759688	-3.009700	2.512100	-7.559700	28.636291	0.000264	20.779717
2772.755789	-3.000000	2.506600	-7.518700	28.646500	0.000262	20.788103
2773.757674	-2.990800	2.500700	-7.478200	28.670410	0.000262	20.788003
2774.756702	-3.013900	2.493400	-7.513800	28.654032	0.000263	20.799008
