LabVIEW Measurement	
Writer_Version	2
Reader_Version	2
Separator	Tab
Decimal_Separator	.
Multi_Headings	No
X_Columns	One
Time_Pref	Absolute
Operator	admin
Description	Clolumns are: time, Current, Voltage, Power, Battery Temp, and Chamber Temp
Date	2024/08/16
Time	13:06:06.104549407958984375
***End_of_Header***	
	
Channels	6						
Samples	1	1	1	1	1	1	
Date	2024/09/18	2024/09/18	2024/09/18	2024/09/18	2024/09/18	2024/09/18	
Time	02:50:23.2333631515502929688	02:50:23.2394022941589355469	02:50:23.2494497299194335938	02:50:23.2123694419860839844	02:50:23.2123694419860839844	02:50:23.2123694419860839844	
X_Dimension	Time	Time	Time	Time	Time	Time	
X0	0.0000000000000000E+0	0.0000000000000000E+0	0.0000000000000000E+0	0.0000000000000000E+0	0.0000000000000000E+0	0.0000000000000000E+0	
Delta_X	1.000000	1.000000	1.000000	1.000000	1.000000	1.000000	
***End_of_Header***							
X_Value	Untitled	Untitled 1	Untitled 2	Untitled 3	Untitled 4	Untitled 5	Comment
0.000000	0.029006	4.093200	0.118640	21.009035	0.000974	20.713654
1.003612	-3.015700	3.908200	-11.784000	20.986454	0.000974	20.696758
1.996191	-2.990700	3.901400	-11.667000	21.010632	0.000973	20.717148
3.000840	-3.002300	3.896900	-11.698000	20.993016	0.000972	20.736040
4.000504	-2.982000	3.891800	-11.605000	20.994040	0.000968	20.725684
4.995108	-3.004700	3.886900	-11.676000	20.997059	0.000969	20.727280
5.997642	-3.021100	3.883900	-11.733000	20.989473	0.000968	20.716848
6.998095	-2.977200	3.883500	-11.561000	20.989025	0.000967	20.732522
8.006347	-2.987900	3.881100	-11.594000	20.997608	0.000967	20.733046
8.998757	-2.995800	3.877200	-11.614000	20.999978	0.000966	20.732098
9.999504	-2.988500	3.876100	-11.582000	21.016271	0.000965	20.703347
10.996329	-2.997400	3.875600	-11.615000	21.013901	0.000967	20.709986
12.001828	-3.002900	3.874800	-11.634000	21.005492	0.000965	20.731449
12.996952	-3.022100	3.869800	-11.695000	21.010458	0.000962	20.725035
14.006402	-2.991700	3.871100	-11.580000	21.014899	0.000962	20.717623
15.004029	-2.977100	3.869400	-11.519000	21.022260	0.000962	20.720717
15.996402	-3.007800	3.866600	-11.629000	21.024580	0.000961	20.713555
16.997640	-2.996400	3.864600	-11.577000	21.035259	0.000959	20.727556
18.002666	-3.020700	3.864500	-11.672000	21.031916	0.000961	20.723738
19.009710	-2.997400	3.864500	-11.582000	21.051552	0.000962	20.734844
20.002265	-3.017200	3.862200	-11.651000	21.036332	0.000960	20.721517
21.003154	-3.003800	3.861200	-11.597000	21.039651	0.000959	20.710136
22.010122	-2.999700	3.861800	-11.584000	21.072311	0.000959	20.731425
22.999918	-3.007200	3.859100	-11.604000	21.059686	0.000959	20.728755
24.001987	-3.022600	3.858900	-11.662000	21.081841	0.000960	20.721043
25.016943	-3.013600	3.857900	-11.624000	21.069042	0.000956	20.713456
26.000982	-3.015200	3.857700	-11.630000	21.088828	0.000958	20.724239
27.001224	-3.006700	3.857000	-11.596000	21.085459	0.000957	20.724662
28.011112	-3.010500	3.856900	-11.611000	21.100903	0.000957	20.738214
29.008848	-3.019400	3.854400	-11.637000	21.099057	0.000959	20.709813
30.002634	-3.014900	3.854400	-11.619000	21.107215	0.000956	20.706119
31.014787	-3.015800	3.854100	-11.622000	21.121861	0.000955	20.724089
32.001241	-3.024600	3.853100	-11.652000	21.140896	0.000955	20.729380
33.006203	-2.988200	3.854000	-11.515000	21.140148	0.000956	20.706819
34.003966	-2.997700	3.852300	-11.547000	21.123583	0.000954	20.706844
35.005355	-2.969300	3.854300	-11.444000	21.154169	0.000958	20.732699
36.005187	-2.985000	3.852100	-11.497000	21.153196	0.000954	20.718449
37.007563	-2.980000	3.851800	-11.478000	21.138027	0.000954	20.747374
38.014424	-2.998500	3.851900	-11.549000	21.174826	0.000956	20.728707
39.002612	-2.993100	3.850900	-11.525000	21.178717	0.000956	20.713632
40.010811	-2.996300	3.850300	-11.535000	21.215015	0.000956	20.729081
41.006230	-3.002900	3.849000	-11.555000	21.178767	0.000958	20.726011
42.011771	-2.982100	3.848800	-11.477000	21.214940	0.000956	20.761724
43.006177	-3.007000	3.847500	-11.569000	21.198026	0.000954	20.714456
44.008834	-3.000400	3.847100	-11.542000	21.211747	0.000955	20.723915
45.011714	-2.999700	3.846700	-11.538000	21.246821	0.000951	20.737666
46.019146	-2.995700	3.846500	-11.522000	21.235371	0.000954	20.728107
47.010397	-2.986200	3.846500	-11.486000	21.254330	0.000956	20.725262
48.003871	-2.986700	3.845500	-11.484000	21.273139	0.000953	20.742658
49.007118	-2.988900	3.846100	-11.494000	21.240859	0.000956	20.723640
50.017677	-3.019900	3.844100	-11.608000	21.262237	0.000952	20.736966
51.023824	-3.004300	3.843700	-11.547000	21.256849	0.000954	20.727308
52.007564	-3.001900	3.843200	-11.536000	21.277503	0.000953	20.728057
53.012634	-3.016600	3.843500	-11.593000	21.298433	0.000953	20.718649
54.004570	-3.003700	3.843100	-11.543000	21.282917	0.000955	20.741060
55.007287	-2.991900	3.844900	-11.503000	21.315894	0.000954	20.731851
56.009089	-2.974500	3.844200	-11.434000	21.319610	0.000950	20.727508
57.014138	-2.997900	3.842700	-11.519000	21.323002	0.000952	20.724263
58.011446	-3.006200	3.842100	-11.549000	21.326844	0.000954	20.732375
59.004954	-2.994800	3.842100	-11.505000	21.343905	0.000951	20.744703
60.006002	-3.017500	3.840600	-11.588000	21.347896	0.000953	20.764818
61.006123	-3.002000	3.840400	-11.527000	21.354431	0.000951	20.727258
62.017277	-3.021100	3.839200	-11.598000	21.356851	0.000953	20.733947
63.016805	-3.026400	3.838500	-11.616000	21.345003	0.000953	20.727782
64.012163	-3.001000	3.838900	-11.519000	21.370694	0.000954	20.734046
65.025858	-2.991000	3.839000	-11.482000	21.394390	0.000953	20.737840
66.014056	-3.005300	3.837500	-11.531000	21.386159	0.000955	20.740510
67.008854	-3.000900	3.837700	-11.516000	21.394764	0.000953	20.730153
68.012553	-3.018700	3.837600	-11.584000	21.413122	0.000954	20.741408
69.022471	-2.985600	3.837800	-11.457000	21.399229	0.000955	20.751216
70.008788	-2.974800	3.839200	-11.420000	21.420055	0.000954	20.736492
71.017498	-3.017300	3.835600	-11.572000	21.421926	0.000953	20.741209
72.013504	-3.014500	3.836300	-11.562000	21.440383	0.000954	20.735493
73.011755	-3.005900	3.836800	-11.533000	21.433698	0.000953	20.736866
74.019435	-3.005700	3.836000	-11.529000	21.461184	0.000955	20.728805
75.022134	-3.023700	3.834800	-11.593000	21.469539	0.000956	20.736217
76.028618	-2.996600	3.836700	-11.497000	21.476049	0.000954	20.726135
77.022414	-3.004600	3.835600	-11.524000	21.515330	0.000956	20.752639
78.015035	-3.002200	3.834700	-11.510000	21.477520	0.000955	20.747048
79.009595	-3.023200	3.832800	-11.587000	21.500914	0.000956	20.752913
80.013972	-2.974700	3.833900	-11.404000	21.507773	0.000955	20.740335
81.024867	-2.989600	3.833000	-11.457000	21.539646	0.000953	20.727183
82.009610	-2.990900	3.832800	-11.463000	21.553113	0.000955	20.747298
83.022190	-2.995900	3.833500	-11.483000	21.544908	0.000956	20.731026
84.021209	-2.992000	3.834300	-11.471000	21.526428	0.000954	20.757580
85.013654	-2.985100	3.832500	-11.438000	21.565233	0.000955	20.748520
86.013745	-2.992700	3.832600	-11.469000	21.551392	0.000955	20.762646
87.024042	-3.014600	3.832200	-11.551000	21.577054	0.000955	20.746598
88.017306	-2.983700	3.833400	-11.437000	21.551566	0.000956	20.742905
89.021866	-2.978500	3.833000	-11.416000	21.564385	0.000958	20.747197
90.019511	-3.004000	3.831300	-11.509000	21.580894	0.000956	20.766563
91.023331	-3.009200	3.832700	-11.532000	21.590820	0.000957	20.753262
92.020558	-2.997500	3.830800	-11.482000	21.624561	0.000958	20.753362
93.028193	-3.000400	3.830500	-11.491000	21.603987	0.000958	20.747472
94.014952	-3.000600	3.830700	-11.493000	21.633539	0.000961	20.758078
95.015285	-3.001100	3.830900	-11.496000	21.652940	0.000957	20.749044
96.027767	-3.009600	3.829900	-11.525000	21.604835	0.000958	20.763020
97.015936	-2.988500	3.831100	-11.448000	21.652641	0.000957	20.759651
98.022214	-3.002600	3.828900	-11.495000	21.655608	0.000957	20.756930
99.029230	-2.996100	3.828600	-11.470000	21.671443	0.000959	20.759027
100.031229	-3.001600	3.830000	-11.495000	21.654036	0.000959	20.750616
101.015747	-3.006500	3.827300	-11.504000	21.679497	0.000958	20.780838
102.031266	-3.001900	3.828900	-11.492000	21.681966	0.000958	20.789947
103.024594	-2.989900	3.828100	-11.445000	21.699396	0.000959	20.780364
104.018751	-2.983200	3.829300	-11.422000	21.689970	0.000960	20.757180
105.015339	-2.991600	3.827700	-11.450000	21.722163	0.000957	20.778018
106.022519	-2.986400	3.828600	-11.433000	21.698574	0.000960	20.773377
107.023375	-2.992400	3.828100	-11.453000	21.727772	0.000960	20.770830
108.022027	-3.009600	3.826900	-11.515000	21.718322	0.000959	20.754260
109.026297	-2.988900	3.827900	-11.440000	21.725429	0.000961	20.762321
110.022211	-2.985100	3.826600	-11.422000	21.749616	0.000960	20.765665
111.022425	-2.994400	3.827700	-11.460000	21.776545	0.000961	20.766538
112.020682	-3.000700	3.825900	-11.480000	21.757795	0.000960	20.760574
113.022810	-3.013600	3.824700	-11.525000	21.770362	0.000960	20.770781
114.022086	-3.001800	3.824700	-11.479000	21.768093	0.000961	20.761872
115.022239	-3.043000	3.822700	-11.629000	21.762408	0.000961	20.765666
116.027694	-3.000800	3.824700	-11.477000	21.780310	0.000962	20.786902
117.022486	-2.994400	3.824500	-11.450000	21.821651	0.000966	20.768535
118.029583	-2.998400	3.824600	-11.467000	21.817337	0.000964	20.789348
119.024693	-2.981600	3.823800	-11.400000	21.830502	0.000962	20.774075
120.025829	-3.007300	3.823400	-11.497000	21.842545	0.000964	20.761472
121.024205	-3.009800	3.822000	-11.502000	21.859723	0.000962	20.780090
122.027295	-2.978300	3.825400	-11.392000	21.873062	0.000962	20.766414
123.028342	-3.001700	3.823400	-11.475000	21.901135	0.000964	20.759900
124.026319	-2.993000	3.823600	-11.443000	21.875854	0.000964	20.768734
125.031550	-2.988900	3.821800	-11.421000	21.885329	0.000964	20.781537
126.025461	-3.008300	3.821700	-11.496000	21.879121	0.000966	20.773427
127.028171	-2.990200	3.822100	-11.426000	21.914050	0.000965	20.771879
128.033192	-2.995200	3.822500	-11.446000	21.932923	0.000966	20.772753
129.032830	-2.999900	3.821200	-11.462000	21.921953	0.000965	20.761298
130.028239	-3.014200	3.820800	-11.515000	21.933820	0.000969	20.762271
131.026181	-3.009100	3.820900	-11.496000	21.939130	0.000966	20.785131
132.023731	-3.003400	3.821300	-11.477000	21.959698	0.000968	20.781063
133.029258	-2.979300	3.820400	-11.382000	21.960496	0.000969	20.776646
134.027315	-2.993700	3.821500	-11.439000	21.959523	0.000968	20.764766
135.036267	-3.010600	3.820900	-11.503000	21.977921	0.000968	20.784132
136.028214	-3.005100	3.819200	-11.476000	21.994026	0.000969	20.805943
137.025229	-2.976000	3.820200	-11.367000	21.971814	0.000970	20.793665
138.029805	-2.999200	3.818500	-11.451000	21.972811	0.000970	20.770481
139.036958	-2.996700	3.818500	-11.442000	22.002427	0.000969	20.787801
140.034368	-2.996500	3.818500	-11.441000	22.007339	0.000971	20.790346
141.028918	-3.014200	3.818800	-11.509000	22.026534	0.000972	20.780164
142.028396	-3.008500	3.818700	-11.487000	22.028354	0.000971	20.783883
143.035961	-3.025100	3.818000	-11.549000	22.038052	0.000970	20.786479
144.030869	-2.997200	3.819400	-11.446000	22.051114	0.000971	20.792918
145.031587	-3.019800	3.817600	-11.527000	22.056923	0.000971	20.788301
146.036201	-3.010900	3.819500	-11.499000	22.042390	0.000972	20.787502
147.035395	-3.034300	3.815100	-11.575000	22.070583	0.000974	20.823313
148.034174	-3.012400	3.816700	-11.496000	22.056549	0.000972	20.795513
149.027050	-3.008200	3.817000	-11.481000	22.055975	0.000974	20.785456
150.030290	-3.018800	3.816900	-11.520000	22.027059	0.000975	20.790647
151.034555	-2.998600	3.816300	-11.442000	22.049394	0.000976	20.794989
152.034068	-2.986900	3.816900	-11.399000	22.068838	0.000972	20.799756
153.035875	-2.987000	3.815700	-11.397000	22.075943	0.000973	20.790747
154.029194	-3.003100	3.815600	-11.457000	22.097530	0.000975	20.784857
155.042352	-2.979500	3.816300	-11.370000	22.073127	0.000973	20.800729
156.034541	-3.000000	3.814400	-11.442000	22.089878	0.000975	20.805171
157.028315	-2.989600	3.814800	-11.403000	22.102765	0.000979	20.790098
158.048015	-3.015700	3.813900	-11.501000	22.087210	0.000978	20.816725
159.028643	-3.001400	3.814800	-11.449000	22.099375	0.000976	20.819420
160.033349	-3.001300	3.814900	-11.448000	22.107351	0.000977	20.804173
161.032238	-2.982600	3.814900	-11.378000	22.147259	0.000979	20.799556
162.033801	-3.009300	3.812800	-11.471000	22.153814	0.000980	20.805645
163.031309	-2.998400	3.812700	-11.432000	22.171213	0.000979	20.803150
164.032481	-3.028600	3.811800	-11.544000	22.159448	0.000979	20.792793
165.037862	-2.990100	3.813300	-11.401000	22.177618	0.000980	20.818097
166.036516	-2.997700	3.812200	-11.427000	22.203815	0.000981	20.816351
167.037252	-3.004000	3.812300	-11.449000	22.201172	0.000981	20.808964
168.040771	-2.987600	3.812700	-11.390000	22.231780	0.000981	20.804048
169.034353	-2.998600	3.811700	-11.429000	22.245888	0.000981	20.812483
170.035827	-2.991000	3.811700	-11.400000	22.258648	0.000983	20.833320
171.035372	-2.976500	3.811800	-11.344000	22.275821	0.000986	20.799306
172.042163	-2.978000	3.812700	-11.354000	22.270910	0.000982	20.812882
173.032041	-2.993300	3.811400	-11.408000	22.256505	0.000986	20.806044
174.043030	-2.999700	3.811800	-11.433000	22.288407	0.000983	20.812857
175.034467	-3.014800	3.809500	-11.484000	22.298326	0.000985	20.821366
176.038738	-3.016100	3.809500	-11.489000	22.301591	0.000986	20.827480
177.036487	-3.025900	3.808500	-11.523000	22.298799	0.000986	20.813780
178.044959	-3.013600	3.808200	-11.474000	22.306227	0.000986	20.813157
179.043862	-3.007700	3.810000	-11.458000	22.313928	0.000989	20.836040
180.040082	-2.998400	3.809700	-11.423000	22.342414	0.000987	20.841331
181.039762	-3.005200	3.809400	-11.447000	22.310165	0.000987	20.829902
182.038368	-3.009000	3.809100	-11.460000	22.323448	0.000991	20.825659
183.033261	-2.998600	3.808000	-11.418000	22.324994	0.000988	20.836689
184.043009	-2.980700	3.809000	-11.351000	22.327137	0.000988	20.825086
185.040604	-3.021200	3.807200	-11.500000	22.354027	0.000988	20.823089
186.038397	-3.004400	3.808300	-11.440000	22.374364	0.000991	20.837288
187.037283	-3.003900	3.808500	-11.439000	22.372444	0.000990	20.831573
188.039179	-3.001300	3.808900	-11.430000	22.366539	0.000990	20.838936
189.039356	-2.996400	3.806800	-11.406000	22.355373	0.000992	20.828703
190.043534	-2.991400	3.807800	-11.389000	22.369330	0.000990	20.828929
191.043889	-3.016700	3.806500	-11.481000	22.388294	0.000992	20.841755
192.044725	-3.000000	3.806900	-11.417000	22.404941	0.000992	20.847520
193.043179	-2.994300	3.805800	-11.394000	22.405988	0.000994	20.844301
194.041180	-2.989600	3.807000	-11.380000	22.424803	0.000993	20.833271
195.047655	-3.006100	3.806300	-11.441000	22.434123	0.000992	20.835966
196.039105	-3.000900	3.804800	-11.417000	22.441300	0.000994	20.828455
197.045812	-3.015300	3.803900	-11.469000	22.452613	0.000995	20.840732
198.039261	-2.981900	3.805700	-11.346000	22.464325	0.000996	20.834918
199.046181	-2.983400	3.804500	-11.349000	22.464175	0.000997	20.844724
200.040243	-2.991800	3.804700	-11.383000	22.471676	0.000996	20.832322
201.048766	-3.022200	3.805000	-11.498000	22.471128	0.000995	20.821816
202.040926	-2.994800	3.804700	-11.393000	22.456700	0.001003	20.847195
203.054185	-3.000300	3.804200	-11.412000	22.461185	0.001000	20.845523
204.045707	-3.014600	3.803200	-11.463000	22.488796	0.000998	20.856104
205.050314	-3.018200	3.804400	-11.481000	22.478529	0.000999	20.850564
206.055805	-3.011700	3.803300	-11.453000	22.473221	0.000998	20.853783
207.048676	-3.039100	3.802200	-11.553000	22.482242	0.001001	20.843377
208.045765	-3.021400	3.801800	-11.486000	22.508506	0.001002	20.852610
209.045138	-3.010400	3.804000	-11.451000	22.508157	0.001002	20.838985
210.040192	-3.010000	3.801400	-11.442000	22.530284	0.001003	20.864463
211.064464	-3.005200	3.801300	-11.423000	22.554653	0.001002	20.833395
212.046363	-2.984700	3.802500	-11.348000	22.554578	0.001003	20.856078
213.042719	-3.013300	3.801400	-11.453000	22.574687	0.001001	20.849665
214.046569	-2.982200	3.801700	-11.336000	22.566115	0.001005	20.857202
215.043781	-2.985600	3.801500	-11.348000	22.570326	0.001004	20.840557
216.054938	-3.030600	3.799400	-11.513000	22.578897	0.001003	20.854831
217.044277	-3.019700	3.801100	-11.476000	22.584280	0.001003	20.855006
218.044324	-2.989500	3.801800	-11.364000	22.618365	0.001003	20.868755
219.056095	-2.985700	3.799300	-11.343000	22.630573	0.001005	20.865337
220.048053	-2.996800	3.799400	-11.386000	22.639693	0.001005	20.864987
221.050326	-2.994000	3.800000	-11.376000	22.643380	0.001006	20.856827
222.056931	-2.998100	3.798900	-11.388000	22.654766	0.001007	20.863490
223.044829	-3.002300	3.799400	-11.405000	22.650331	0.001007	20.878487
224.059935	-3.001300	3.799300	-11.401000	22.633313	0.001009	20.864762
225.057341	-3.003900	3.798600	-11.410000	22.645423	0.001007	20.855554
226.048450	-3.003800	3.797800	-11.406000	22.656161	0.001010	20.872948
227.050659	-3.000600	3.797400	-11.393000	22.660895	0.001008	20.870102
228.049283	-2.978000	3.797400	-11.308000	22.658253	0.001011	20.876939
229.049755	-2.994900	3.797200	-11.371000	22.686731	0.001010	20.853308
230.058040	-2.989800	3.798000	-11.353000	22.707061	0.001011	20.877463
231.054328	-3.002700	3.797100	-11.401000	22.685062	0.001011	20.860171
232.049907	-3.020800	3.797300	-11.470000	22.730255	0.001011	20.881730
233.052461	-3.019200	3.795700	-11.458000	22.735437	0.001010	20.878387
234.051405	-3.004400	3.796800	-11.406000	22.734989	0.001011	20.885523
235.063374	-3.016000	3.795300	-11.444000	22.722133	0.001010	20.864587
236.061992	-2.999600	3.797000	-11.388000	22.709128	0.001015	20.871474
237.057889	-2.995000	3.796900	-11.371000	22.729358	0.001013	20.871350
238.050025	-3.001100	3.796600	-11.393000	22.726169	0.001013	20.877164
239.054458	-3.002700	3.794600	-11.393000	22.762343	0.001016	20.870726
240.052405	-3.022400	3.795300	-11.469000	22.782098	0.001015	20.887669
241.051828	-2.988800	3.795100	-11.341000	22.784341	0.001018	20.900820
242.052652	-3.010600	3.793800	-11.420000	22.795924	0.001016	20.864537
243.054192	-2.986900	3.796300	-11.338000	22.794181	0.001018	20.897875
244.051555	-3.002900	3.795200	-11.395000	22.802850	0.001018	20.870526
245.061497	-2.979600	3.795600	-11.308000	22.783593	0.001015	20.861193
246.058641	-2.984100	3.793900	-11.320000	22.790892	0.001017	20.877988
247.065235	-2.987600	3.794500	-11.336000	22.792163	0.001019	20.874519
248.053687	-3.001200	3.792300	-11.381000	22.816278	0.001021	20.875443
249.072155	-3.005100	3.792900	-11.397000	22.820812	0.001022	20.884252
250.058483	-3.005600	3.792400	-11.397000	22.843680	0.001020	20.878711
251.051259	-2.992600	3.793600	-11.350000	22.851228	0.001021	20.893859
252.057527	-2.993900	3.791400	-11.350000	22.848787	0.001024	20.891413
253.066574	-3.001700	3.792500	-11.383000	22.873821	0.001024	20.894682
254.062920	-3.002500	3.790900	-11.381000	22.864355	0.001021	20.876665
255.066086	-2.989400	3.791500	-11.333000	22.882489	0.001024	20.888193
256.056479	-2.995900	3.792100	-11.359000	22.865352	0.001023	20.896628
257.058411	-2.984800	3.790700	-11.314000	22.897236	0.001022	20.892061
258.060394	-2.994400	3.790000	-11.347000	22.881045	0.001023	20.874893
259.055305	-3.011500	3.790100	-11.413000	22.892952	0.001022	20.875442
260.055223	-3.008100	3.790400	-11.400000	22.884009	0.001024	20.881181
261.058431	-3.005500	3.788200	-11.385000	22.878130	0.001026	20.875292
262.064122	-2.999800	3.789000	-11.365000	22.909367	0.001026	20.891886
263.056018	-3.013400	3.788400	-11.415000	22.906079	0.001027	20.889541
264.064855	-2.984700	3.790000	-11.311000	22.927426	0.001026	20.881531
265.056780	-3.014000	3.788600	-11.418000	22.924162	0.001029	20.893907
266.063430	-3.006100	3.788500	-11.387000	22.951736	0.001027	20.884550
267.059369	-3.008600	3.787900	-11.396000	22.972360	0.001031	20.864437
268.060208	-2.981100	3.787700	-11.290000	22.960031	0.001029	20.880532
269.061241	-2.987600	3.788800	-11.318000	22.973406	0.001028	20.883976
270.057590	-3.000000	3.786900	-11.358000	22.965236	0.001031	20.868679
271.058864	-2.994000	3.788200	-11.339000	22.946082	0.001029	20.877937
272.058522	-2.990600	3.788300	-11.329000	22.948772	0.001031	20.856926
273.063307	-3.015400	3.785600	-11.414000	22.944139	0.001031	20.866982
274.060864	-3.001100	3.786600	-11.363000	22.941349	0.001032	20.871773
275.058346	-3.001000	3.786600	-11.362000	22.959084	0.001036	20.877687
276.062304	-3.012500	3.786300	-11.405000	22.968324	0.001034	20.867031
277.059131	-3.003900	3.786600	-11.374000	22.960528	0.001033	20.862066
278.060850	-3.002200	3.786000	-11.365000	22.946580	0.001032	20.855678
279.058558	-2.995000	3.785800	-11.336000	22.931311	0.001036	20.862191
280.059855	-2.995200	3.784500	-11.334000	22.947924	0.001034	20.856076
281.070934	-2.987600	3.785500	-11.309000	22.943590	0.001035	20.853157
282.066168	-2.993900	3.785100	-11.331000	22.953678	0.001037	20.874168
283.060601	-3.007000	3.784700	-11.379000	22.985834	0.001039	20.850436
284.061628	-3.027400	3.782400	-11.450000	22.999583	0.001037	20.838608
285.060128	-2.999700	3.783400	-11.348000	23.004590	0.001038	20.847891
286.071032	-2.978800	3.783400	-11.268000	23.008725	0.001038	20.853456
287.060490	-2.992900	3.782400	-11.319000	22.984838	0.001039	20.847542
288.063789	-2.991300	3.782800	-11.315000	23.031339	0.001038	20.851934
289.062820	-2.989700	3.782400	-11.307000	23.041277	0.001040	20.839132
290.068418	-3.010000	3.782000	-11.383000	23.042523	0.001037	20.833268
291.063832	-2.992000	3.780600	-11.310000	23.052685	0.001041	20.838234
292.062494	-2.974200	3.782700	-11.249000	23.075448	0.001042	20.858671
293.070144	-3.004800	3.781100	-11.360000	23.070766	0.001041	20.845446
294.064256	-3.003500	3.781900	-11.359000	23.108124	0.001040	20.837834
295.065702	-3.002600	3.780500	-11.350000	23.116417	0.001043	20.828602
296.063743	-3.000600	3.780300	-11.342000	23.119978	0.001042	20.838808
297.077967	-3.010800	3.779500	-11.379000	23.118708	0.001044	20.845121
298.075718	-2.991700	3.780400	-11.309000	23.153201	0.001043	20.836537
299.068874	-2.986500	3.780700	-11.291000	23.151258	0.001044	20.824634
300.073093	-2.992900	3.778800	-11.308000	23.152404	0.001044	20.855652
301.080059	-3.003300	3.779600	-11.350000	23.141247	0.001044	20.849688
302.070770	-2.998000	3.779600	-11.330000	23.162490	0.001047	20.827828
303.070526	-2.992400	3.778800	-11.307000	23.142094	0.001046	20.838209
304.079677	-2.991300	3.779800	-11.305000	23.150163	0.001046	20.827803
305.070016	-2.983000	3.780100	-11.275000	23.134399	0.001046	20.856102
306.082633	-3.003900	3.777000	-11.345000	23.112807	0.001048	20.828303
307.080977	-2.984800	3.778300	-11.277000	23.120452	0.001046	20.839282
308.077274	-3.003600	3.778200	-11.346000	23.101151	0.001047	20.850288
309.076265	-3.015300	3.777100	-11.387000	23.115870	0.001047	20.826156
310.075261	-3.007800	3.776400	-11.356000	23.151931	0.001049	20.809187
311.075229	-2.999800	3.777400	-11.330000	23.157784	0.001048	20.817422
312.072742	-2.999300	3.777300	-11.328000	23.154123	0.001049	20.811383
313.076484	-3.005700	3.775400	-11.346000	23.173124	0.001049	20.842277
314.073076	-2.990600	3.776500	-11.293000	23.148843	0.001050	20.826955
315.084153	-3.013900	3.776000	-11.379000	23.155243	0.001052	20.828153
316.080230	-2.999300	3.776400	-11.326000	23.178179	0.001049	20.822213
317.077749	-3.001200	3.774300	-11.325000	23.176037	0.001049	20.828602
318.075701	-2.994000	3.775500	-11.303000	23.173000	0.001051	20.846894
319.087372	-2.997100	3.774000	-11.310000	23.169588	0.001050	20.821664
320.076164	-2.997700	3.773300	-11.310000	23.194715	0.001050	20.833094
321.075009	-3.008600	3.772700	-11.349000	23.228309	0.001052	20.815550
322.075040	-2.995700	3.774400	-11.305000	23.187668	0.001054	20.798057
323.079421	-3.002400	3.772900	-11.326000	23.205871	0.001054	20.818670
324.075283	-3.009700	3.771800	-11.350000	23.190282	0.001054	20.822013
325.079123	-2.989900	3.772500	-11.278000	23.184654	0.001054	20.833917
326.091761	-3.016000	3.771800	-11.375000	23.196881	0.001054	20.826256
327.082022	-2.978700	3.772400	-11.235000	23.221137	0.001054	20.806467
328.083174	-3.004000	3.771400	-11.328000	23.217675	0.001055	20.789247
329.096440	-2.995400	3.772300	-11.298000	23.239987	0.001051	20.817297
330.081629	-2.985200	3.771700	-11.258000	23.223552	0.001056	20.806042
331.078629	-3.004900	3.770000	-11.327000	23.220414	0.001057	20.831346
332.080517	-2.990700	3.771100	-11.277000	23.197280	0.001056	20.829974
333.080976	-2.989700	3.769800	-11.268000	23.186372	0.001058	20.810983
334.079296	-3.001200	3.768400	-11.309000	23.251866	0.001058	20.815925
335.087765	-3.012500	3.769200	-11.353000	23.233713	0.001059	20.799629
336.081133	-3.001100	3.769100	-11.310000	23.273729	0.001058	20.808438
337.078637	-3.001500	3.769600	-11.313000	23.293301	0.001057	20.797707
338.081518	-3.008200	3.769200	-11.338000	23.296762	0.001060	20.805443
339.098096	-3.018700	3.769500	-11.377000	23.312873	0.001059	20.812106
340.094286	-3.006500	3.768100	-11.328000	23.314890	0.001058	20.798481
341.091830	-3.007600	3.767900	-11.331000	23.336603	0.001059	20.793215
342.088093	-3.021900	3.766200	-11.379000	23.342752	0.001061	20.789422
343.084497	-3.004600	3.766000	-11.314000	23.372831	0.001062	20.805818
344.079147	-3.012100	3.765600	-11.340000	23.357045	0.001060	20.802798
345.086246	-3.023400	3.765700	-11.383000	23.383512	0.001061	20.796135
346.093397	-3.007100	3.766600	-11.325000	23.390509	0.001064	20.819268
347.082981	-2.991600	3.767200	-11.268000	23.400642	0.001062	20.809984
348.098514	-3.020600	3.764400	-11.369000	23.413963	0.001061	20.794412
349.097089	-2.991600	3.766100	-11.266000	23.401787	0.001063	20.795959
350.083714	-2.993900	3.767200	-11.277000	23.427831	0.001064	20.801200
351.102576	-2.990500	3.765700	-11.261000	23.423921	0.001065	20.793963
352.089699	-2.993700	3.765100	-11.271000	23.439756	0.001063	20.817895
353.089763	-2.986100	3.766300	-11.245000	23.421954	0.001063	20.802422
354.089187	-3.025500	3.764300	-11.388000	23.451034	0.001063	20.809759
355.085800	-3.003700	3.765400	-11.309000	23.456935	0.001065	20.790069
356.083484	-3.002100	3.763200	-11.296000	23.480662	0.001063	20.813852
357.084813	-2.992100	3.764600	-11.263000	23.470677	0.001066	20.818069
358.086196	-3.009500	3.762700	-11.322000	23.471474	0.001063	20.815074
359.086752	-2.984700	3.762500	-11.230000	23.478196	0.001067	20.801898
360.087984	-2.999900	3.760800	-11.280000	23.468362	0.001066	20.810058
361.093131	-3.002900	3.761000	-11.294000	23.468063	0.001066	20.806913
362.086579	-2.992500	3.763500	-11.261000	23.447996	0.001066	20.799127
363.086289	-3.010100	3.762300	-11.324000	23.434701	0.001067	20.804293
364.089569	-3.000100	3.762500	-11.285000	23.410973	0.001067	20.799951
365.090878	-3.011300	3.761000	-11.325000	23.402831	0.001067	20.782307
366.099309	-2.998500	3.760500	-11.275000	23.374920	0.001068	20.772349
367.089624	-2.994200	3.760600	-11.258000	23.387518	0.001069	20.800624
368.102913	-2.983100	3.759800	-11.214000	23.394665	0.001070	20.784553
369.088464	-2.972600	3.760400	-11.176000	23.440377	0.001068	20.814249
370.100774	-2.999400	3.758900	-11.274000	23.441597	0.001070	20.786549
371.091470	-3.023100	3.758000	-11.359000	23.461689	0.001071	20.780136
372.101545	-3.010200	3.759200	-11.315000	23.493333	0.001070	20.791466
373.092053	-3.017900	3.757600	-11.339000	23.496793	0.001071	20.775968
374.100857	-3.018300	3.757700	-11.341000	23.513050	0.001071	20.805066
375.097627	-2.999300	3.757600	-11.268000	23.527216	0.001072	20.784178
376.093002	-2.993500	3.757000	-11.245000	23.546908	0.001072	20.776418
377.104656	-2.980900	3.758500	-11.203000	23.547654	0.001073	20.805615
378.097157	-2.999600	3.755400	-11.263000	23.559256	0.001072	20.778364
379.096569	-3.004300	3.756300	-11.284000	23.576707	0.001074	20.795858
380.101119	-2.991900	3.757900	-11.242000	23.530427	0.001073	20.782182
381.109802	-2.987300	3.756000	-11.219000	23.527191	0.001072	20.771351
382.097018	-2.999900	3.755900	-11.266000	23.501474	0.001074	20.795833
383.093880	-2.992100	3.754900	-11.234000	23.488104	0.001075	20.804242
384.094355	-2.979100	3.756200	-11.190000	23.473241	0.001074	20.786025
385.097146	-3.013500	3.754600	-11.314000	23.485391	0.001072	20.804842
386.095309	-2.999700	3.754200	-11.261000	23.512129	0.001075	20.775693
387.098170	-3.009900	3.754100	-11.299000	23.519349	0.001074	20.783405
388.101296	-2.991700	3.754800	-11.233000	23.511681	0.001076	20.765286
389.102386	-3.012300	3.752200	-11.301000	23.566923	0.001074	20.783679
390.104689	-3.005900	3.753200	-11.281000	23.568367	0.001075	20.760944
391.099810	-3.016000	3.752200	-11.315000	23.585594	0.001074	20.762092
392.099706	-2.980000	3.752500	-11.182000	23.565156	0.001075	20.803245
393.095991	-2.981500	3.752900	-11.188000	23.582482	0.001076	20.767507
394.096885	-2.983400	3.752300	-11.193000	23.546460	0.001077	20.782132
395.097135	-2.992800	3.752300	-11.229000	23.551513	0.001076	20.786724
396.097922	-2.996200	3.751800	-11.240000	23.570035	0.001078	20.773996
397.099474	-2.971000	3.751600	-11.144000	23.572275	0.001075	20.787148
398.094271	-2.983400	3.752000	-11.193000	23.615541	0.001078	20.776941
399.098315	-2.978500	3.749500	-11.166000	23.616811	0.001077	20.782008
400.092669	-3.010100	3.750900	-11.289000	23.626395	0.001080	20.784029
401.093682	-2.984500	3.750000	-11.191000	23.659403	0.001078	20.785351
402.101793	-2.985700	3.749900	-11.195000	23.621964	0.001079	20.778638
403.098147	-2.989800	3.750300	-11.212000	23.639264	0.001079	20.768007
404.097412	-2.974900	3.749700	-11.153000	23.637572	0.001081	20.769155
405.108387	-2.993700	3.748700	-11.222000	23.652930	0.001079	20.758947
406.106687	-3.001000	3.747400	-11.245000	23.678620	0.001079	20.761943
407.098178	-2.980700	3.748300	-11.172000	23.679042	0.001079	20.781807
408.105528	-3.000700	3.748300	-11.245000	23.658283	0.001078	20.765262
409.095579	-2.986600	3.748700	-11.195000	23.667891	0.001079	20.782481
410.108847	-3.001200	3.745900	-11.240000	23.631348	0.001081	20.752484
411.102117	-3.011400	3.746000	-11.280000	23.639139	0.001080	20.768830
412.102955	-3.002400	3.745300	-11.244000	23.657212	0.001080	20.762766
413.101515	-2.995400	3.747200	-11.223000	23.673790	0.001079	20.775593
414.109991	-3.007900	3.744900	-11.263000	23.675309	0.001078	20.780435
415.107372	-2.996700	3.745700	-11.224000	23.702241	0.001079	20.757650
416.110463	-2.978300	3.744700	-11.151000	23.707145	0.001080	20.776317
417.110562	-3.000600	3.744300	-11.234000	23.701768	0.001081	20.760969
418.099296	-2.996700	3.745600	-11.222000	23.713940	0.001081	20.761318
419.100126	-2.987300	3.743500	-11.182000	23.736890	0.001080	20.772948
420.112893	-3.016000	3.743000	-11.288000	23.755582	0.001080	20.753756
421.113070	-2.994000	3.743000	-11.205000	23.741195	0.001081	20.767781
422.103734	-2.979800	3.743300	-11.154000	23.739901	0.001079	20.763164
423.108434	-3.018000	3.742800	-11.295000	23.711948	0.001081	20.762640
424.104611	-2.998000	3.742300	-11.218000	23.721307	0.001082	20.754005
425.101573	-3.007900	3.743200	-11.258000	23.737959	0.001082	20.760743
426.105917	-2.994400	3.740200	-11.199000	23.748812	0.001082	20.752658
427.104267	-2.982700	3.742300	-11.161000	23.773801	0.001081	20.763488
428.105188	-2.991500	3.740400	-11.188000	23.754138	0.001082	20.756101
429.105843	-3.002500	3.739900	-11.228000	23.732707	0.001084	20.741726
430.117461	-3.009500	3.740400	-11.256000	23.738382	0.001084	20.742674
431.100350	-3.009700	3.741200	-11.258000	23.754959	0.001081	20.753132
432.107627	-3.013400	3.739300	-11.267000	23.769470	0.001084	20.764361
433.110792	-3.002600	3.738500	-11.224000	23.777260	0.001082	20.774544
434.100225	-3.023200	3.736700	-11.296000	23.783707	0.001082	20.762989
435.113819	-2.992100	3.741000	-11.192000	23.811434	0.001082	20.751434
436.111359	-2.986200	3.739200	-11.165000	23.778878	0.001082	20.755776
437.103507	-3.012400	3.738400	-11.261000	23.740622	0.001085	20.764361
438.102093	-2.979800	3.739100	-11.140000	23.749184	0.001086	20.743547
439.110202	-3.005200	3.738300	-11.234000	23.754112	0.001086	20.749437
440.115323	-3.005700	3.736300	-11.229000	23.787141	0.001086	20.734663
441.111789	-2.999300	3.737000	-11.207000	23.799387	0.001086	20.754528
442.106897	-2.983100	3.737300	-11.147000	23.843788	0.001085	20.749262
443.104743	-2.989000	3.736600	-11.166000	23.855759	0.001087	20.733290
444.119688	-2.995000	3.735900	-11.188000	23.876043	0.001084	20.740353
445.122848	-3.004200	3.735700	-11.221000	23.883459	0.001085	20.756325
446.113598	-3.020800	3.733400	-11.277000	23.884131	0.001087	20.738506
447.116039	-2.995300	3.734400	-11.185000	23.865341	0.001083	20.736259
448.108313	-3.008100	3.734100	-11.230000	23.870343	0.001087	20.739853
449.111653	-3.025300	3.733300	-11.293000	23.865540	0.001085	20.744046
450.109718	-2.997600	3.734100	-11.192000	23.866535	0.001086	20.749311
451.126871	-3.003200	3.733000	-11.210000	23.876690	0.001086	20.740527
452.115222	-2.987100	3.733200	-11.150000	23.878456	0.001085	20.747514
453.112723	-2.998600	3.732300	-11.189000	23.895604	0.001087	20.741001
454.108979	-3.013700	3.732800	-11.248000	23.897245	0.001086	20.740276
455.117248	-3.009200	3.731100	-11.227000	23.907300	0.001087	20.735186
456.120686	-2.998400	3.733300	-11.192000	23.908843	0.001085	20.748587
457.114458	-3.002900	3.730600	-11.201000	23.934650	0.001087	20.740326
458.115874	-3.005000	3.731800	-11.213000	23.958840	0.001087	20.727599
459.111003	-2.995300	3.730500	-11.173000	23.931440	0.001085	20.730943
460.132890	-3.013000	3.731700	-11.241000	23.941419	0.001088	20.739053
461.113101	-3.004200	3.730200	-11.205000	23.950552	0.001090	20.714071
462.116619	-3.006000	3.729400	-11.210000	23.950602	0.001085	20.746840
463.117217	-3.006800	3.730900	-11.217000	23.966131	0.001087	20.733962
464.115904	-3.007800	3.729900	-11.218000	23.967773	0.001087	20.726600
465.115898	-3.012200	3.727700	-11.228000	23.959660	0.001087	20.731266
466.115885	-3.002800	3.729600	-11.198000	23.966852	0.001086	20.728047
467.126680	-3.009000	3.728300	-11.218000	23.971456	0.001087	20.718913
468.114623	-2.994700	3.729600	-11.167000	23.927656	0.001086	20.713397
469.119781	-3.009300	3.727300	-11.216000	23.919743	0.001087	20.736283
470.125449	-2.984900	3.728900	-11.129000	23.901923	0.001087	20.711775
471.122234	-2.998800	3.726200	-11.173000	23.925217	0.001087	20.710951
472.130998	-3.002000	3.727100	-11.188000	23.954583	0.001089	20.728545
473.128245	-3.009800	3.726300	-11.214000	23.958988	0.001089	20.741024
474.120955	-2.991700	3.726800	-11.148000	23.952592	0.001089	20.724652
475.130511	-2.997200	3.726500	-11.168000	23.960207	0.001091	20.732763
476.127989	-2.992600	3.726400	-11.151000	23.960282	0.001087	20.722880
477.118496	-3.007700	3.726100	-11.206000	23.993529	0.001089	20.726349
478.126477	-3.000100	3.724800	-11.174000	24.016347	0.001091	20.727422
479.129994	-2.981400	3.724800	-11.104000	24.066762	0.001090	20.717290
480.127825	-2.989200	3.724100	-11.131000	24.076018	0.001090	20.722306
481.127550	-2.967100	3.725300	-11.052000	24.072311	0.001087	20.731864
482.130840	-3.003500	3.723700	-11.183000	24.068479	0.001091	20.719960
483.125706	-3.009400	3.723800	-11.205000	24.080696	0.001089	20.723678
484.131303	-3.031700	3.721500	-11.281000	24.052478	0.001087	20.708180
485.133605	-3.009900	3.721400	-11.200000	24.030979	0.001089	20.714594
486.127200	-3.007300	3.722200	-11.193000	24.037797	0.001090	20.705784
487.130643	-2.985600	3.722300	-11.111000	24.056286	0.001091	20.731914
488.132362	-3.004100	3.722500	-11.182000	24.035682	0.001088	20.732113
489.128867	-3.001900	3.721700	-11.171000	24.032173	0.001089	20.714843
490.122282	-3.006700	3.719900	-11.184000	24.011619	0.001088	20.721731
491.127224	-3.010400	3.721400	-11.200000	24.041803	0.001089	20.725450
492.125215	-2.997900	3.721000	-11.153000	24.008807	0.001091	20.736456
493.132342	-2.975300	3.721300	-11.070000	24.015177	0.001088	20.717713
494.126724	-3.006700	3.717900	-11.176000	23.997409	0.001090	20.724077
495.131649	-3.000800	3.721000	-11.165000	23.996215	0.001088	20.711024
496.133604	-2.994700	3.719600	-11.138000	23.963864	0.001089	20.726473
497.127322	-2.994400	3.718800	-11.136000	23.981955	0.001088	20.726597
498.136381	-2.989200	3.719600	-11.116000	23.975460	0.001089	20.704435
499.137002	-3.004600	3.718100	-11.170000	23.990491	0.001089	20.721406
500.128898	-2.983500	3.717900	-11.092000	24.011866	0.001088	20.731464
501.132033	-2.979000	3.718100	-11.074000	23.981159	0.001089	20.718686
502.135373	-2.987000	3.717300	-11.102000	24.014206	0.001090	20.718161
503.130578	-3.028600	3.715500	-11.252000	23.999424	0.001090	20.714243
504.132200	-3.002600	3.716600	-11.158000	24.020252	0.001090	20.726123
505.136488	-3.008800	3.715700	-11.179000	24.016146	0.001087	20.717737
506.132030	-2.990100	3.716200	-11.109000	24.064247	0.001090	20.709077
507.135605	-2.993700	3.716400	-11.124000	24.069298	0.001092	20.714617
508.149570	-2.998100	3.714800	-11.137000	24.063351	0.001090	20.724774
509.147762	-2.986000	3.714500	-11.090000	24.090772	0.001089	20.716239
510.133093	-2.994400	3.714400	-11.122000	24.079077	0.001089	20.723951
511.138713	-2.984600	3.714700	-11.086000	24.152504	0.001090	20.707030
512.135534	-2.996200	3.715000	-11.130000	24.132699	0.001090	20.727944
513.154827	-3.012300	3.712600	-11.183000	24.157356	0.001090	20.711422
514.133231	-3.008500	3.712200	-11.167000	24.190472	0.001093	20.737053
515.136093	-2.993100	3.713300	-11.113000	24.168229	0.001090	20.694826
516.139713	-3.019100	3.711700	-11.204000	24.189875	0.001090	20.718909
517.133615	-3.001700	3.711500	-11.139000	24.147055	0.001093	20.731438
518.149395	-3.011800	3.712200	-11.180000	24.156610	0.001088	20.729167
519.139446	-2.992100	3.712100	-11.104000	24.146060	0.001089	20.711946
520.141186	-3.003600	3.710300	-11.143000	24.144940	0.001090	20.719833
521.151695	-2.975400	3.712500	-11.045000	24.143273	0.001088	20.727644
522.146860	-2.996600	3.709900	-11.117000	24.136505	0.001090	20.717537
523.139191	-2.995700	3.711000	-11.114000	24.143372	0.001090	20.703560
524.145356	-2.998400	3.710400	-11.124000	24.167432	0.001091	20.724375
525.138087	-3.000100	3.709300	-11.127000	24.195523	0.001091	20.736904
526.144922	-3.012800	3.709400	-11.173000	24.195299	0.001087	20.715815
527.145233	-3.006500	3.708100	-11.148000	24.229310	0.001088	20.739499
528.137672	-2.996600	3.709400	-11.115000	24.268097	0.001087	20.735730
529.143227	-2.977700	3.708500	-11.041000	24.254911	0.001091	20.731513
530.143078	-2.995200	3.709100	-11.108000	24.243964	0.001090	20.713419
531.141715	-2.983400	3.708700	-11.063000	24.223090	0.001090	20.727569
532.140718	-3.022000	3.705800	-11.197000	24.247646	0.001087	20.723277
533.142763	-2.988700	3.707300	-11.079000	24.212889	0.001088	20.735356
534.139993	-3.013800	3.706500	-11.170000	24.181764	0.001088	20.740647
535.143579	-2.991200	3.708200	-11.091000	24.165069	0.001087	20.734332
536.141840	-3.014000	3.705500	-11.168000	24.144542	0.001089	20.755471
537.147568	-2.981900	3.706500	-11.051000	24.166189	0.001091	20.736879
538.147530	-3.011300	3.705700	-11.158000	24.220577	0.001087	20.734058
539.144144	-2.983400	3.705400	-11.054000	24.244934	0.001091	20.728618
540.143741	-3.005100	3.704000	-11.129000	24.248517	0.001088	20.738376
541.146205	-2.985600	3.705100	-11.061000	24.268719	0.001088	20.726397
542.149694	-3.001800	3.704600	-11.120000	24.269813	0.001089	20.727494
543.141928	-3.002500	3.703600	-11.118000	24.297478	0.001088	20.738176
544.156490	-2.983300	3.703700	-11.049000	24.270833	0.001088	20.728518
545.152448	-2.989800	3.704300	-11.074000	24.270808	0.001090	20.741296
546.149070	-3.023400	3.702500	-11.193000	24.298623	0.001089	20.736005
547.148360	-3.010500	3.701300	-11.142000	24.281183	0.001088	20.726571
548.150435	-2.995000	3.701300	-11.083000	24.282327	0.001089	20.755221
549.149965	-3.011900	3.701800	-11.149000	24.286556	0.001088	20.746661
550.148566	-3.007100	3.701300	-11.130000	24.316211	0.001088	20.728992
551.147963	-3.008100	3.701000	-11.131000	24.298722	0.001088	20.754123
552.151349	-3.010200	3.699200	-11.133000	24.314021	0.001088	20.723950
553.159076	-3.017300	3.699900	-11.163000	24.303971	0.001085	20.757492
554.145339	-3.007600	3.700300	-11.128000	24.335764	0.001088	20.736753
555.147444	-2.995800	3.700200	-11.083000	24.343899	0.001088	20.722628
556.154509	-2.989600	3.700100	-11.059000	24.370094	0.001088	20.739424
557.149216	-3.012700	3.697100	-11.137000	24.358701	0.001089	20.737003
558.147207	-2.995800	3.699300	-11.081000	24.361835	0.001085	20.739199
559.150642	-3.003400	3.698700	-11.108000	24.343128	0.001088	20.752201
560.148595	-3.002400	3.697200	-11.099000	24.339993	0.001087	20.741470
561.151167	-3.006200	3.697500	-11.114000	24.325490	0.001085	20.740197
562.149837	-2.998800	3.697000	-11.086000	24.336063	0.001086	20.743691
563.162942	-2.998700	3.697700	-11.087000	24.364298	0.001088	20.742618
564.154677	-3.002900	3.695800	-11.097000	24.357581	0.001088	20.754372
565.152086	-2.999900	3.697300	-11.091000	24.367780	0.001088	20.739473
566.161858	-3.008200	3.695500	-11.114000	24.339620	0.001087	20.722602
567.151601	-3.016200	3.694500	-11.142000	24.333276	0.001088	20.751327
568.162810	-3.011200	3.696000	-11.129000	24.329395	0.001086	20.765453
569.162641	-2.993600	3.696400	-11.065000	24.300662	0.001087	20.761759
570.149123	-2.999200	3.695100	-11.082000	24.301930	0.001087	20.745488
571.152658	-3.020400	3.694900	-11.158000	24.281082	0.001087	20.745912
572.153607	-2.992600	3.694300	-11.055000	24.300811	0.001087	20.747684
573.167551	-3.007200	3.693900	-11.106000	24.324818	0.001088	20.743316
574.154219	-2.994300	3.695500	-11.064000	24.331286	0.001086	20.746485
575.152473	-2.999000	3.693700	-11.076000	24.364098	0.001085	20.730089
576.151658	-2.987400	3.693600	-11.033000	24.387084	0.001086	20.750304
577.156497	-2.976300	3.694300	-10.994000	24.391412	0.001085	20.766026
578.154031	-2.996900	3.693100	-11.067000	24.413601	0.001086	20.745612
579.153846	-3.006400	3.691200	-11.096000	24.396288	0.001084	20.746261
580.163392	-2.977300	3.693000	-10.993000	24.389173	0.001084	20.753822
581.156436	-3.008100	3.691900	-11.104000	24.414944	0.001086	20.754072
582.162316	-3.030200	3.689800	-11.180000	24.416561	0.001086	20.764229
583.156671	-3.008900	3.690200	-11.101000	24.429148	0.001084	20.764055
584.157046	-3.019600	3.689600	-11.140000	24.450242	0.001086	20.756767
585.155288	-3.007200	3.688600	-11.090000	24.446262	0.001083	20.759887
586.157326	-2.989300	3.690500	-11.030000	24.453749	0.001085	20.777356
587.167709	-3.020000	3.688000	-11.137000	24.445914	0.001086	20.762856
588.154802	-2.975700	3.690500	-10.980000	24.430019	0.001084	20.773463
589.171301	-2.998000	3.689400	-11.059000	24.462828	0.001086	20.766550
590.166202	-2.992100	3.688500	-11.035000	24.471833	0.001085	20.757092
591.159662	-2.997700	3.688900	-11.056000	24.491085	0.001083	20.774511
592.156930	-3.003100	3.687600	-11.073000	24.470962	0.001087	20.772814
593.162459	-2.999500	3.687700	-11.060000	24.497055	0.001086	20.750154
594.160727	-3.017300	3.688400	-11.128000	24.497726	0.001085	20.756518
595.157722	-3.002700	3.687700	-11.071000	24.512401	0.001083	20.756068
596.165937	-3.008100	3.687300	-11.091000	24.497776	0.001086	20.764628
597.166624	-3.019500	3.685500	-11.127000	24.454869	0.001084	20.772315
598.179275	-3.008100	3.685900	-11.086000	24.432481	0.001082	20.785891
599.159366	-3.026700	3.684600	-11.152000	24.419969	0.001084	20.752949
600.166218	-2.995100	3.685600	-11.037000	24.439197	0.001084	20.768921
601.163778	-2.987000	3.685200	-11.007000	24.444048	0.001085	20.784219
602.179889	-3.006300	3.684300	-11.075000	24.437407	0.001083	20.774237
603.170680	-2.994600	3.684700	-11.033000	24.449943	0.001084	20.777331
604.163889	-2.999900	3.683400	-11.049000	24.479767	0.001086	20.778803
605.163511	-3.029600	3.682600	-11.156000	24.509964	0.001081	20.772115
606.165934	-3.016000	3.682400	-11.106000	24.509790	0.001081	20.760086
607.166149	-3.030400	3.681300	-11.154000	24.540458	0.001083	20.761458
608.168768	-3.018400	3.683100	-11.115000	24.550307	0.001083	20.799316
609.175694	-3.009700	3.682500	-11.082000	24.525509	0.001083	20.780126
610.166001	-3.003100	3.681300	-11.054000	24.502129	0.001082	20.759986
611.171263	-2.969500	3.683500	-10.937000	24.507700	0.001081	20.757516
612.170758	-2.982200	3.682300	-10.981000	24.510486	0.001081	20.765052
613.173583	-3.004700	3.680400	-11.058000	24.486906	0.001082	20.792129
614.169762	-3.023200	3.679400	-11.123000	24.502701	0.001080	20.790906
615.171510	-3.015400	3.679600	-11.094000	24.476484	0.001081	20.783095
616.174655	-3.011200	3.679700	-11.079000	24.471136	0.001079	20.761134
617.179350	-3.018200	3.678400	-11.101000	24.487180	0.001081	20.781498
618.172099	-3.004500	3.678800	-11.051000	24.522425	0.001083	20.776557
619.178140	-2.984500	3.678900	-10.978000	24.532946	0.001080	20.776682
620.175652	-3.009100	3.678200	-11.067000	24.534265	0.001081	20.782746
621.186758	-2.993400	3.679700	-11.014000	24.521405	0.001082	20.780275
622.174510	-3.000100	3.679600	-11.038000	24.509814	0.001078	20.798518
623.188059	-2.998900	3.678200	-11.030000	24.568240	0.001078	20.790282
624.184402	-3.015400	3.675000	-11.080000	24.555431	0.001079	20.783594
625.178925	-2.991300	3.677700	-11.000000	24.580427	0.001079	20.788760
626.181685	-3.016800	3.676300	-11.090000	24.580327	0.001080	20.797669
627.173989	-2.997900	3.676300	-11.020000	24.571299	0.001081	20.793352
628.184561	-3.010000	3.677100	-11.067000	24.582715	0.001079	20.804332
629.178467	-3.006100	3.675900	-11.049000	24.562395	0.001078	20.789159
630.174283	-3.013900	3.674800	-11.074000	24.602239	0.001077	20.788835
631.180451	-2.986300	3.676300	-10.977000	24.598558	0.001078	20.804107
632.178707	-2.981100	3.674900	-10.955000	24.622633	0.001078	20.809298
633.176438	-3.008900	3.674500	-11.055000	24.656133	0.001077	20.818731
634.180837	-3.003100	3.675000	-11.035000	24.652626	0.001076	20.774435
635.175152	-2.981300	3.674700	-10.954000	24.678068	0.001079	20.791904
636.175458	-2.990100	3.674100	-10.985000	24.671329	0.001077	20.786564
637.177269	-2.990600	3.674700	-10.987000	24.669936	0.001076	20.788011
638.178887	-2.995400	3.673200	-11.002000	24.679113	0.001078	20.822349
639.176819	-3.001400	3.672900	-11.022000	24.687568	0.001079	20.811868
640.177545	-3.002300	3.673100	-11.026000	24.644942	0.001077	20.797070
641.180344	-3.011700	3.671800	-11.056000	24.659938	0.001079	20.801686
642.178535	-2.995800	3.671900	-11.000000	24.660162	0.001077	20.793377
643.179220	-3.006600	3.670900	-11.036000	24.656257	0.001079	20.796096
644.183946	-3.004400	3.671100	-11.029000	24.652800	0.001077	20.804007
645.182671	-3.011200	3.670600	-11.052000	24.650214	0.001074	20.797618
646.178559	-2.991100	3.671300	-10.978000	24.637406	0.001074	20.786663
647.184456	-2.986700	3.670300	-10.961000	24.618628	0.001076	20.811918
648.180265	-2.979000	3.670400	-10.932000	24.630815	0.001075	20.801861
649.178900	-2.990900	3.670300	-10.976000	24.641509	0.001075	20.804531
650.190735	-2.997700	3.670200	-11.000000	24.646259	0.001075	20.786064
651.181051	-2.994400	3.668800	-10.985000	24.645538	0.001076	20.798616
652.181279	-3.006000	3.670000	-11.031000	24.696122	0.001073	20.812866
653.186639	-2.996200	3.669100	-10.992000	24.709626	0.001075	20.813614
654.181458	-2.990000	3.667800	-10.966000	24.710298	0.001073	20.814762
655.182756	-3.020300	3.666900	-11.073000	24.692640	0.001074	20.826441
656.192986	-2.996800	3.666400	-10.987000	24.687095	0.001072	20.798591
657.184512	-3.006000	3.668200	-11.025000	24.646433	0.001072	20.827015
658.183654	-3.003000	3.668300	-11.015000	24.654466	0.001072	20.820377
659.184410	-3.032900	3.665800	-11.116000	24.656978	0.001073	20.803932
660.185659	-2.985900	3.666900	-10.947000	24.647751	0.001073	20.816010
661.193033	-3.018500	3.665100	-11.061000	24.654118	0.001074	20.809122
662.185415	-3.021400	3.666000	-11.075000	24.662872	0.001073	20.820751
663.192464	-2.995200	3.664500	-10.975000	24.693884	0.001072	20.811094
664.185535	-3.025200	3.663300	-11.081000	24.666677	0.001070	20.828363
665.190342	-3.006200	3.665200	-11.018000	24.663867	0.001072	20.817482
666.190197	-3.005400	3.664200	-11.012000	24.664985	0.001069	20.810070
667.185501	-3.004200	3.663100	-11.004000	24.640215	0.001071	20.820776
668.186179	-2.984500	3.664200	-10.935000	24.643597	0.001070	20.822747
669.186493	-2.988100	3.663300	-10.945000	24.630590	0.001072	20.816334
670.185443	-3.017500	3.663500	-11.054000	24.678192	0.001072	20.831382
671.198723	-2.975200	3.663200	-10.896000	24.646532	0.001070	20.822847
672.187320	-2.975500	3.663900	-10.901000	24.676027	0.001069	20.835374
673.189419	-3.003300	3.662100	-10.997000	24.689681	0.001071	20.825842
674.186530	-2.983600	3.662800	-10.926000	24.724025	0.001070	20.829960
675.189565	-2.986100	3.663100	-10.937000	24.766499	0.001071	20.826117
676.187337	-2.985000	3.662100	-10.930000	24.752847	0.001069	20.838494
677.207501	-3.023000	3.659500	-11.062000	24.734121	0.001067	20.824919
678.189768	-2.996400	3.661600	-10.970000	24.743148	0.001070	20.837296
679.193524	-3.007600	3.660000	-11.007000	24.730764	0.001068	20.830084
680.191851	-3.004700	3.660800	-10.999000	24.773113	0.001070	20.820427
681.188519	-2.986300	3.661900	-10.934000	24.756477	0.001070	20.819378
682.201298	-2.995900	3.661200	-10.968000	24.791267	0.001067	20.847178
683.188847	-3.004300	3.659400	-10.993000	24.762445	0.001068	20.843385
684.197386	-3.004100	3.659300	-10.992000	24.779952	0.001068	20.839143
685.189934	-3.010700	3.658500	-11.013000	24.789252	0.001070	20.842786
686.210602	-3.009500	3.658200	-11.009000	24.759163	0.001067	20.843410
687.196974	-2.988200	3.660200	-10.937000	24.755856	0.001068	20.853367
688.194482	-2.996000	3.657500	-10.957000	24.770950	0.001070	20.836273
689.194563	-2.984700	3.657700	-10.915000	24.780425	0.001068	20.859057
690.203654	-3.009900	3.657000	-11.005000	24.801512	0.001066	20.852718
691.195860	-3.007900	3.657500	-11.001000	24.778585	0.001068	20.836822
692.191189	-3.010900	3.656600	-11.009000	24.784304	0.001062	20.846355
693.196487	-2.993800	3.657100	-10.948000	24.780027	0.001066	20.863873
694.194481	-2.977900	3.657600	-10.891000	24.721712	0.001067	20.841863
695.197343	-2.992600	3.657300	-10.943000	24.731062	0.001065	20.853142
696.194862	-3.019600	3.653900	-11.033000	24.750136	0.001066	20.860429
697.197528	-3.016000	3.654600	-11.021000	24.757821	0.001065	20.856287
698.196621	-3.005400	3.654600	-10.982000	24.776794	0.001065	20.845457
699.196787	-3.028900	3.653600	-11.065000	24.777192	0.001063	20.849649
700.199166	-3.023000	3.654700	-11.046000	24.758243	0.001067	20.851970
701.196716	-3.005500	3.653700	-10.980000	24.733773	0.001066	20.842112
702.199449	-3.010300	3.652600	-10.993000	24.747102	0.001064	20.858807
703.211134	-3.019500	3.652700	-11.028000	24.765753	0.001065	20.877523
704.201805	-3.020800	3.651800	-11.030000	24.767046	0.001065	20.865070
705.199026	-2.985000	3.652400	-10.901000	24.787039	0.001065	20.860953
706.197752	-2.994400	3.651400	-10.932000	24.814617	0.001062	20.846904
707.201216	-2.988100	3.652100	-10.911000	24.829089	0.001063	20.864272
708.199576	-3.017300	3.650700	-11.014000	24.878322	0.001063	20.868639
709.199441	-2.985600	3.650600	-10.898000	24.890704	0.001062	20.839817
710.203285	-3.003300	3.651300	-10.965000	24.950129	0.001062	20.864846
711.208913	-2.989600	3.650900	-10.913000	24.947792	0.001062	20.875776
712.202713	-3.002800	3.649800	-10.959000	24.948215	0.001063	20.862450
713.203319	-3.025400	3.649100	-11.038000	24.977628	0.001062	20.860679
714.204157	-3.011600	3.651000	-10.993000	24.971188	0.001061	20.878396
715.201519	-2.993200	3.649300	-10.922000	24.931606	0.001060	20.857634
716.206222	-2.993900	3.649900	-10.925000	24.910522	0.001060	20.889101
717.210446	-2.986900	3.649300	-10.899000	24.870688	0.001060	20.873305
718.200241	-3.005500	3.648700	-10.964000	24.856789	0.001059	20.861253
719.205656	-2.988400	3.648600	-10.902000	24.850199	0.001059	20.851795
720.203040	-2.983200	3.648900	-10.884000	24.881928	0.001057	20.872732
721.202808	-2.987500	3.648800	-10.900000	24.886254	0.001059	20.872332
722.204418	-3.017600	3.646200	-11.002000	24.887646	0.001061	20.874204
723.203306	-3.013500	3.644700	-10.982000	24.879863	0.001060	20.871134
724.203397	-3.009700	3.645800	-10.972000	24.879541	0.001058	20.879344
725.207285	-3.012600	3.646800	-10.986000	24.877999	0.001058	20.879220
726.205481	-2.999200	3.647000	-10.937000	24.888591	0.001058	20.875152
727.206186	-3.025900	3.646000	-11.031000	24.903460	0.001057	20.876325
728.207306	-3.037100	3.643200	-11.063000	24.908557	0.001058	20.894241
729.202886	-3.009400	3.644000	-10.966000	24.914500	0.001057	20.888353
730.203867	-2.992200	3.644900	-10.905000	24.910223	0.001057	20.892121
731.209762	-3.014900	3.644700	-10.988000	24.911616	0.001056	20.893044
732.204142	-3.001100	3.644500	-10.937000	24.927901	0.001058	20.905595
733.214613	-2.995600	3.643800	-10.914000	24.924097	0.001056	20.871434
734.206218	-3.009600	3.644000	-10.966000	24.908284	0.001055	20.887804
735.202691	-3.002100	3.643200	-10.937000	24.904480	0.001056	20.897261
736.208438	-3.015300	3.642900	-10.983000	24.928548	0.001054	20.890598
737.209470	-3.009400	3.643400	-10.964000	24.929841	0.001058	20.888103
738.214501	-2.987100	3.643700	-10.883000	24.943317	0.001054	20.903050
739.210070	-2.995400	3.642100	-10.909000	24.945082	0.001056	20.909563
740.207685	-3.007900	3.642200	-10.954000	24.961890	0.001054	20.887554
741.207357	-3.004200	3.642400	-10.940000	24.991725	0.001053	20.883836
742.206238	-2.990100	3.642000	-10.888000	24.979493	0.001056	20.891472
743.218206	-2.966700	3.643100	-10.807000	25.019198	0.001055	20.881067
744.219187	-2.981800	3.642100	-10.859000	25.022877	0.001054	20.894242
745.208727	-2.987600	3.641900	-10.879000	25.011291	0.001053	20.879769
746.209339	-3.000000	3.641300	-10.923000	25.009850	0.001053	20.885908
747.221087	-3.009900	3.640700	-10.956000	25.022405	0.001052	20.890924
748.209470	-3.001700	3.639500	-10.924000	25.060990	0.001054	20.892197
749.209434	-2.989500	3.641100	-10.884000	25.085527	0.001051	20.879845
750.209370	-2.991800	3.640500	-10.890000	25.054775	0.001053	20.879321
751.209952	-2.992600	3.640300	-10.894000	25.089430	0.001052	20.861479
752.213905	-2.992700	3.639100	-10.890000	25.099648	0.001051	20.873158
753.218312	-2.989100	3.639500	-10.878000	25.091469	0.001051	20.877275
754.221912	-2.996300	3.637500	-10.898000	25.095024	0.001051	20.887007
755.220926	-2.987500	3.639200	-10.870000	25.065839	0.001049	20.868142
756.215664	-3.010400	3.639000	-10.954000	25.090699	0.001052	20.877451
757.213107	-3.008700	3.637800	-10.944000	25.111880	0.001052	20.867893
758.211702	-3.003000	3.637300	-10.922000	25.148050	0.001051	20.855367
759.219899	-3.007200	3.634700	-10.929000	25.130227	0.001051	20.873035
760.212866	-3.025100	3.634800	-10.995000	25.125230	0.001051	20.867545
761.219926	-3.000100	3.636000	-10.908000	25.121128	0.001051	20.857264
762.216886	-3.003700	3.635600	-10.919000	25.060794	0.001048	20.865449
763.220766	-2.989200	3.637100	-10.870000	25.054604	0.001053	20.870615
764.220345	-2.993300	3.634700	-10.878000	25.051322	0.001050	20.853571
765.218750	-2.997500	3.634700	-10.893000	25.065742	0.001046	20.868045
766.216162	-3.001300	3.633400	-10.904000	25.055947	0.001048	20.863903
767.226194	-2.991100	3.634300	-10.869000	25.035710	0.001046	20.864452
768.222496	-2.980000	3.634400	-10.829000	25.010103	0.001047	20.864352
769.217280	-2.998000	3.634700	-10.895000	24.981487	0.001047	20.848906
770.220010	-2.989100	3.634200	-10.861000	24.980915	0.001047	20.868246
771.221354	-2.986700	3.633400	-10.850000	24.954487	0.001046	20.864952
772.221773	-2.997700	3.632900	-10.889000	24.966321	0.001046	20.865925
773.219409	-3.005400	3.632200	-10.914000	25.009631	0.001047	20.857241
774.222038	-2.985100	3.633400	-10.845000	25.025941	0.001043	20.827621
775.221810	-3.012800	3.631000	-10.938000	25.055999	0.001045	20.868222
776.225636	-3.000200	3.631900	-10.895000	25.071910	0.001044	20.863331
777.229291	-3.022700	3.630600	-10.974000	25.100946	0.001043	20.877306
778.222708	-3.012500	3.629700	-10.933000	25.070841	0.001044	20.876482
779.234034	-3.008800	3.630100	-10.921000	25.054035	0.001044	20.846812
780.229170	-3.000900	3.630800	-10.895000	25.074720	0.001043	20.849083
781.224228	-2.995700	3.630300	-10.873000	25.049238	0.001041	20.833936
782.223270	-2.996200	3.630100	-10.875000	25.053514	0.001040	20.873788
783.224708	-3.005500	3.629500	-10.907000	25.069748	0.001044	20.846463
784.227194	-3.001500	3.630000	-10.894000	25.094260	0.001041	20.847836
785.226157	-3.019200	3.629300	-10.956000	25.084888	0.001041	20.852652
786.226193	-3.005400	3.630000	-10.908000	25.108978	0.001041	20.841748
787.228360	-3.005500	3.628300	-10.904000	25.096050	0.001039	20.846314
788.226747	-2.997100	3.628500	-10.874000	25.072806	0.001038	20.859490
789.226146	-2.991000	3.628400	-10.851000	25.060152	0.001039	20.866227
790.228414	-3.012600	3.627100	-10.925000	25.033700	0.001038	20.869547
791.225590	-2.981000	3.628800	-10.816000	25.033800	0.001037	20.835509
792.226839	-3.021200	3.626500	-10.954000	25.054335	0.001040	20.842371
793.226994	-2.995300	3.628500	-10.868000	25.046205	0.001039	20.850806
794.226502	-3.025000	3.626200	-10.967000	25.059083	0.001037	20.839552
795.228961	-3.029500	3.624600	-10.980000	25.068878	0.001036	20.831840
796.234848	-2.989300	3.625700	-10.837000	25.072284	0.001037	20.852328
797.227029	-2.992700	3.626500	-10.851000	25.129859	0.001035	20.847063
798.226545	-3.022700	3.624800	-10.955000	25.145545	0.001037	20.862808
799.229843	-2.983000	3.625500	-10.814000	25.115192	0.001038	20.833288
800.230712	-2.999100	3.624000	-10.868000	25.109002	0.001036	20.850781
801.230241	-2.997700	3.623800	-10.862000	25.112507	0.001034	20.844817
802.232315	-3.032000	3.623300	-10.984000	25.136695	0.001036	20.843968
803.228470	-3.010800	3.623700	-10.910000	25.145893	0.001036	20.849408
804.229703	-3.006900	3.622400	-10.892000	25.157402	0.001036	20.841997
805.235679	-3.000700	3.622000	-10.868000	25.188823	0.001034	20.838927
806.229706	-3.011500	3.622600	-10.908000	25.158745	0.001033	20.852353
807.233091	-3.012500	3.620800	-10.907000	25.163144	0.001034	20.841123
808.232749	-2.956600	3.623200	-10.711000	25.120959	0.001035	20.852826
809.245965	-3.007500	3.623400	-10.896000	25.151312	0.001031	20.828296
810.238067	-2.989100	3.621800	-10.824000	25.172541	0.001033	20.851504
811.235425	-3.002500	3.620700	-10.869000	25.202991	0.001033	20.834659
812.234064	-3.009500	3.621400	-10.898000	25.194813	0.001031	20.843993
813.233289	-2.998000	3.621900	-10.857000	25.201698	0.001031	20.843792
814.236798	-3.012000	3.619800	-10.902000	25.189170	0.001033	20.820784
815.237511	-3.014000	3.619200	-10.906000	25.148352	0.001030	20.836231
816.235855	-2.984800	3.620800	-10.805000	25.084987	0.001031	20.850381
817.239230	-2.993900	3.620700	-10.839000	25.092270	0.001029	20.835407
818.238322	-3.004000	3.619300	-10.871000	25.062363	0.001031	20.827197
819.234785	-3.014000	3.618100	-10.903000	25.118472	0.001030	20.850330
820.241538	-3.029900	3.615700	-10.953000	25.093861	0.001027	20.813771
821.240251	-3.023900	3.616900	-10.936000	25.088367	0.001030	20.821058
822.237719	-3.011000	3.617600	-10.892000	25.093588	0.001031	20.813497
823.237202	-3.008900	3.617100	-10.882000	25.089883	0.001030	20.842494
824.237538	-3.024800	3.617400	-10.941000	25.077304	0.001028	20.830341
825.236633	-2.996800	3.617600	-10.840000	25.043444	0.001029	20.835232
826.239988	-3.001000	3.616400	-10.852000	25.062611	0.001026	20.829817
827.242115	-3.008500	3.615800	-10.877000	25.099553	0.001027	20.831813
828.236947	-3.007100	3.615300	-10.871000	25.094830	0.001028	20.833235
829.235987	-2.997900	3.616200	-10.840000	25.103953	0.001026	20.809204
830.238420	-3.004900	3.614500	-10.860000	25.111734	0.001026	20.817015
831.242134	-2.995600	3.615900	-10.830000	25.135052	0.001025	20.817664
832.236947	-3.023800	3.613900	-10.927000	25.160582	0.001026	20.814369
833.236637	-3.026400	3.612300	-10.931000	25.163167	0.001024	20.825499
834.237439	-3.000900	3.614100	-10.845000	25.162371	0.001024	20.809528
835.238956	-2.970900	3.614400	-10.736000	25.133411	0.001025	20.842568
836.242359	-2.987700	3.614100	-10.797000	25.152279	0.001023	20.838276
837.237340	-2.988000	3.614400	-10.798000	25.157498	0.001023	20.818386
838.237451	-3.004800	3.613000	-10.855000	25.172886	0.001022	20.830040
839.237689	-2.980800	3.613800	-10.770000	25.155883	0.001023	20.839997
840.241254	-2.989000	3.612400	-10.796000	25.201398	0.001020	20.842542
841.239177	-3.000600	3.612900	-10.840000	25.211490	0.001022	20.825648
842.239453	-3.016900	3.610900	-10.892000	25.237167	0.001021	20.829616
843.244528	-2.997000	3.612500	-10.826000	25.264856	0.001019	20.830389
844.241328	-2.991800	3.611600	-10.804000	25.294136	0.001022	20.817113
845.245121	-2.997100	3.610200	-10.819000	25.311162	0.001020	20.813345
846.242975	-3.007400	3.610700	-10.858000	25.307657	0.001019	20.832111
847.242679	-3.013300	3.609400	-10.874000	25.305991	0.001020	20.818111
848.243361	-3.006900	3.609100	-10.851000	25.280043	0.001019	20.823352
849.243892	-2.996900	3.610000	-10.817000	25.249718	0.001019	20.832734
850.247105	-3.005300	3.609200	-10.846000	25.220139	0.001017	20.823426
851.243941	-2.962100	3.610000	-10.692000	25.210296	0.001019	20.818286
852.250514	-2.996600	3.609000	-10.814000	25.207014	0.001017	20.800766
853.246371	-2.989400	3.610500	-10.792000	25.210991	0.001018	20.813294
854.245346	-2.978500	3.609100	-10.749000	25.245989	0.001018	20.808602
855.246348	-2.995200	3.608300	-10.807000	25.273082	0.001013	20.807354
856.245394	-3.016800	3.605900	-10.877000	25.278376	0.001017	20.824997
857.245995	-3.002800	3.607000	-10.829000	25.287573	0.001013	20.816213
858.246114	-3.019900	3.607100	-10.893000	25.292146	0.001013	20.809900
859.246181	-2.995900	3.606900	-10.805000	25.295949	0.001013	20.826046
860.248487	-3.041400	3.604800	-10.962000	25.309768	0.001013	20.820480
861.250770	-3.007600	3.606400	-10.844000	25.300647	0.001014	20.823176
862.248620	-3.003700	3.607300	-10.835000	25.367256	0.001012	20.814191
863.248115	-2.996100	3.605000	-10.799000	25.371282	0.001014	20.809225
864.248208	-2.996600	3.605400	-10.802000	25.378514	0.001013	20.816487
865.249882	-3.021500	3.604300	-10.889000	25.409456	0.001013	20.814366
866.252323	-2.982100	3.605700	-10.751000	25.410550	0.001012	20.821154
867.249269	-2.998500	3.605400	-10.810000	25.408214	0.001011	20.815015
868.252645	-3.003000	3.604600	-10.824000	25.400733	0.001010	20.820779
869.248889	-2.978600	3.604400	-10.735000	25.388927	0.001010	20.806555
870.249218	-2.982100	3.603900	-10.746000	25.352442	0.001009	20.816387
871.252577	-3.033700	3.602700	-10.929000	25.311060	0.001009	20.827466
872.250314	-3.002300	3.603500	-10.818000	25.316602	0.001010	20.811695
873.248750	-2.982400	3.604200	-10.748000	25.298359	0.001007	20.816611
874.248745	-2.997700	3.603000	-10.800000	25.344340	0.001008	20.794026
875.248247	-3.003500	3.602600	-10.819000	25.353038	0.001007	20.797545
876.249973	-3.005400	3.601600	-10.823000	25.392680	0.001006	20.821702
877.251261	-2.977700	3.600800	-10.721000	25.411418	0.001006	20.789309
878.250485	-3.006600	3.599600	-10.822000	25.440048	0.001005	20.796721
879.252330	-3.017800	3.600200	-10.864000	25.447727	0.001006	20.796372
880.249843	-3.016500	3.599100	-10.855000	25.422130	0.001006	20.803384
881.250890	-2.972500	3.601700	-10.704000	25.423174	0.001004	20.804907
882.253658	-2.988100	3.599600	-10.756000	25.406846	0.001005	20.822176
883.250772	-2.997900	3.599600	-10.790000	25.421881	0.001005	20.788910
884.253350	-2.979400	3.599900	-10.724000	25.416364	0.001003	20.814664
885.252683	-3.008100	3.598600	-10.823000	25.428343	0.001002	20.819106
886.252635	-2.994200	3.599100	-10.774000	25.447130	0.001003	20.816635
887.252394	-3.001400	3.598900	-10.799000	25.434034	0.001002	20.809174
888.253094	-3.029100	3.595900	-10.890000	25.464502	0.001003	20.793776
889.253390	-3.019100	3.596700	-10.858000	25.486793	0.001001	20.791979
890.251834	-3.007600	3.597700	-10.819000	25.501778	0.001003	20.783794
891.253707	-3.001000	3.596700	-10.793000	25.500486	0.001004	20.796247
892.252767	-2.994700	3.595500	-10.766000	25.506649	0.000999	20.799117
893.254271	-3.016700	3.594300	-10.842000	25.540693	0.001000	20.786364
894.254514	-2.983200	3.595800	-10.725000	25.520465	0.001000	20.804457
895.254625	-2.993300	3.595800	-10.761000	25.486197	0.000999	20.787587
896.253773	-2.993900	3.595300	-10.763000	25.471857	0.000997	20.783145
897.253570	-3.001200	3.594400	-10.787000	25.436270	0.000999	20.783444
898.257280	-3.000700	3.595600	-10.788000	25.435723	0.000999	20.792378
899.254839	-2.989300	3.594000	-10.742000	25.456997	0.000999	20.774860
900.254655	-3.013500	3.593700	-10.829000	25.457841	0.000994	20.775234
901.254284	-2.999600	3.593200	-10.776000	25.435649	0.000995	20.801312
902.254308	-2.998500	3.593500	-10.774000	25.446310	0.000996	20.777879
903.256099	-2.999400	3.593000	-10.776000	25.442533	0.000995	20.798268
904.256054	-3.001500	3.594000	-10.786000	25.486768	0.000995	20.795273
905.256386	-3.003300	3.592300	-10.787000	25.466390	0.000994	20.783819
906.256262	-3.002700	3.591700	-10.784000	25.460128	0.000994	20.790806
907.256148	-3.010700	3.591200	-10.811000	25.470864	0.000994	20.793052
908.257705	-3.026000	3.589500	-10.861000	25.448423	0.000994	20.786639
909.258957	-3.009400	3.590900	-10.806000	25.406546	0.000994	20.781572
910.256541	-3.022600	3.590600	-10.851000	25.420961	0.000993	20.780874
911.258518	-3.014400	3.590800	-10.822000	25.402074	0.000993	20.781822
912.256681	-2.984700	3.590800	-10.716000	25.364023	0.000992	20.798143
913.257706	-2.992000	3.589600	-10.739000	25.363775	0.000993	20.792678
914.258938	-3.019000	3.589600	-10.836000	25.357984	0.000991	20.777854
915.261126	-3.010200	3.588800	-10.802000	25.322442	0.000990	20.789583
916.258113	-2.989400	3.589100	-10.729000	25.333900	0.000990	20.801088
917.258223	-2.997600	3.589000	-10.757000	25.371901	0.000990	20.754371
918.263644	-2.993300	3.588800	-10.740000	25.360692	0.000988	20.790057
919.257845	-2.994700	3.587400	-10.742000	25.336136	0.000990	20.768720
920.261311	-3.001600	3.587600	-10.767000	25.364495	0.000986	20.775858
921.258638	-3.012100	3.585600	-10.799000	25.363526	0.000984	20.773936
922.263001	-3.000200	3.587200	-10.762000	25.385571	0.000987	20.770941
923.258837	-2.995100	3.586400	-10.740000	25.404409	0.000986	20.769469
924.258615	-3.016500	3.586500	-10.818000	25.381221	0.000985	20.779376
925.260795	-3.003400	3.587100	-10.773000	25.371528	0.000985	20.780075
926.260731	-2.989300	3.586700	-10.721000	25.353335	0.000984	20.755169
927.260685	-3.012100	3.583800	-10.794000	25.376350	0.000982	20.781123
928.261587	-3.003900	3.583900	-10.763000	25.381395	0.000985	20.791879
929.261646	-3.003800	3.584200	-10.765000	25.383830	0.000983	20.774884
930.260884	-2.975500	3.585700	-10.667000	25.409255	0.000984	20.780499
931.263822	-2.992200	3.584400	-10.724000	25.437388	0.000985	20.757540
932.261615	-2.995800	3.584000	-10.736000	25.465420	0.000981	20.773835
933.261261	-3.000200	3.584700	-10.754000	25.464451	0.000983	20.768595
934.261099	-3.008500	3.582700	-10.777000	25.455305	0.000982	20.751350
935.262398	-3.018600	3.583300	-10.816000	25.456101	0.000981	20.769692
936.263264	-2.984000	3.583100	-10.692000	25.467756	0.000977	20.764801
937.262587	-3.014300	3.580200	-10.790000	25.476031	0.000979	20.753196
938.263785	-3.016900	3.582300	-10.807000	25.433808	0.000980	20.771015
939.262415	-2.987500	3.582700	-10.702000	25.477671	0.000979	20.755792
940.261939	-2.993200	3.581800	-10.720000	25.471955	0.000978	20.751948
941.264922	-3.011100	3.580400	-10.780000	25.511170	0.000978	20.767621
942.266073	-3.010100	3.581600	-10.780000	25.504261	0.000979	20.774908
943.262692	-2.991800	3.581000	-10.712000	25.504410	0.000977	20.761780
944.262622	-2.989500	3.580500	-10.702000	25.509331	0.000976	20.750600
945.263118	-2.999500	3.578500	-10.733000	25.535945	0.000976	20.775432
946.263134	-3.004300	3.578900	-10.751000	25.554135	0.000975	20.767146
947.266086	-2.995300	3.578600	-10.718000	25.565814	0.000976	20.748054
948.271037	-3.030000	3.577200	-10.838000	25.554905	0.000975	20.754643
949.269974	-3.005700	3.579900	-10.757000	25.548569	0.000976	20.746857
950.264882	-3.000200	3.576900	-10.729000	25.538480	0.000976	20.763752
951.265114	-3.005100	3.576900	-10.748000	25.550358	0.000973	20.765249
952.264411	-3.023900	3.576900	-10.813000	25.514425	0.000974	20.750026
953.263972	-2.993300	3.577600	-10.708000	25.492085	0.000972	20.775007
954.265001	-3.004700	3.577200	-10.747000	25.494396	0.000970	20.742240
955.265403	-3.002200	3.576800	-10.737000	25.503217	0.000972	20.756789
956.265227	-2.999500	3.576300	-10.726000	25.510747	0.000973	20.767670
957.265384	-2.995000	3.575500	-10.708000	25.522725	0.000970	20.765948
958.273010	-3.008500	3.574300	-10.752000	25.543375	0.000970	20.746383
959.266378	-2.992500	3.575700	-10.697000	25.538803	0.000971	20.779724
960.266507	-2.989200	3.575300	-10.686000	25.510226	0.000968	20.774259
961.268979	-2.990100	3.576100	-10.692000	25.498422	0.000969	20.777578
962.267407	-3.038900	3.571100	-10.851000	25.488034	0.000971	20.756241
963.269384	-3.015700	3.573200	-10.775000	25.513804	0.000970	20.752247
964.268457	-3.015900	3.573600	-10.776000	25.488307	0.000967	20.733280
965.268476	-2.962300	3.574600	-10.587000	25.505455	0.000967	20.760933
966.268514	-2.988900	3.573100	-10.679000	25.522452	0.000965	20.749078
967.268614	-3.008100	3.572600	-10.745000	25.554061	0.000967	20.748579
968.269511	-2.990400	3.571800	-10.681000	25.567728	0.000965	20.755667
969.267503	-2.998900	3.570700	-10.708000	25.549613	0.000965	20.750750
970.269081	-2.992500	3.572000	-10.687000	25.572946	0.000966	20.759485
971.269047	-3.002900	3.572100	-10.725000	25.596180	0.000964	20.749153
972.270384	-3.029400	3.569300	-10.811000	25.574884	0.000963	20.751948
973.271410	-2.992000	3.570300	-10.681000	25.586215	0.000962	20.759535
974.270307	-3.008700	3.569100	-10.737000	25.591806	0.000962	20.731958
975.268082	-3.016900	3.569100	-10.766000	25.554806	0.000962	20.759285
976.267683	-3.011100	3.569000	-10.745000	25.537362	0.000961	20.764052
977.269550	-3.022400	3.569500	-10.787000	25.503417	0.000961	20.757464
978.270069	-3.009600	3.568900	-10.740000	25.473073	0.000958	20.756390
979.272830	-2.986000	3.568600	-10.655000	25.485425	0.000960	20.760733
980.270230	-3.001300	3.569000	-10.710000	25.531050	0.000959	20.762929
981.272280	-3.007100	3.566900	-10.724000	25.568547	0.000960	20.753645
982.270638	-3.011400	3.566900	-10.740000	25.589271	0.000959	20.748853
983.271148	-3.007300	3.568200	-10.729000	25.573169	0.000958	20.768718
984.274127	-2.992800	3.568000	-10.677000	25.616753	0.000955	20.747531
985.270932	-3.018000	3.567800	-10.766000	25.654372	0.000958	20.755916
986.272430	-3.013600	3.567200	-10.749000	25.660435	0.000957	20.762005
987.271043	-3.021400	3.565200	-10.770000	25.615635	0.000956	20.743562
988.271397	-3.026200	3.565300	-10.788000	25.572001	0.000953	20.750475
989.270938	-3.004700	3.565400	-10.712000	25.518227	0.000957	20.750525
990.273492	-3.008200	3.565300	-10.724000	25.489997	0.000954	20.763902
991.271749	-3.016800	3.564500	-10.753000	25.485598	0.000954	20.772761
992.281300	-2.995200	3.565400	-10.678000	25.493675	0.000954	20.739619
993.273928	-2.996000	3.562800	-10.673000	25.531671	0.000953	20.753121
994.272157	-3.016500	3.562400	-10.744000	25.568050	0.000953	20.760732
995.279769	-3.003900	3.564500	-10.706000	25.597769	0.000954	20.746008
996.274135	-2.995900	3.563800	-10.676000	25.616182	0.000951	20.761656
997.275100	-3.021600	3.561900	-10.761000	25.595036	0.000953	20.759859
998.274065	-3.011100	3.561700	-10.724000	25.607858	0.000951	20.769417
999.273971	-2.998500	3.561200	-10.677000	25.621027	0.000948	20.765100
1000.274820	-3.009500	3.562600	-10.720000	25.641601	0.000949	20.763952
1001.275589	-3.001500	3.560600	-10.685000	25.658124	0.000949	20.763003
1002.273795	-3.000600	3.561200	-10.685000	25.636408	0.000948	20.758736
1003.274227	-3.017600	3.559600	-10.740000	25.598788	0.000948	20.756515
1004.276121	-3.012700	3.558600	-10.720000	25.559925	0.000947	20.748778
1005.276115	-3.020500	3.558500	-10.747000	25.592353	0.000947	20.770441
1006.277339	-3.006900	3.558900	-10.699000	25.606864	0.000945	20.768419
1007.276490	-2.996800	3.559800	-10.667000	25.594291	0.000943	20.746782
1008.278728	-3.018800	3.558400	-10.740000	25.598490	0.000946	20.771389
1009.276874	-3.000100	3.559000	-10.676000	25.579879	0.000943	20.767396
1010.277049	-3.005600	3.559000	-10.696000	25.529335	0.000946	20.768794
1011.280156	-3.017400	3.557200	-10.732000	25.545040	0.000948	20.776979
1012.277735	-3.013600	3.557400	-10.719000	25.521234	0.000944	20.776305
1013.279830	-3.001700	3.556400	-10.675000	25.530404	0.000943	20.768444
1014.277405	-3.017300	3.556300	-10.730000	25.572449	0.000941	20.773685
1015.277632	-3.005000	3.557800	-10.690000	25.604752	0.000941	20.774833
1016.279005	-2.985300	3.557700	-10.620000	25.630122	0.000941	20.754793
1017.281595	-2.994000	3.555600	-10.644000	25.639688	0.000941	20.757289
1018.278148	-2.992700	3.554800	-10.637000	25.660659	0.000942	20.759385
1019.279147	-2.998300	3.555700	-10.660000	25.653279	0.000939	20.777104
1020.278980	-2.985900	3.555100	-10.614000	25.656484	0.000939	20.768943
1021.278867	-2.988100	3.555100	-10.622000	25.685033	0.000941	20.772013
1022.282426	-2.975100	3.554900	-10.575000	25.725681	0.000940	20.776330
1023.279987	-2.988700	3.554800	-10.623000	25.736290	0.000939	20.765649
1024.282219	-3.000700	3.554200	-10.663000	25.754899	0.000936	20.774858
1025.280494	-3.006900	3.552400	-10.680000	25.758650	0.000937	20.780523
1026.280757	-2.989300	3.553700	-10.622000	25.791767	0.000935	20.772537
1027.283024	-2.985800	3.553300	-10.608000	25.798599	0.000935	20.761855
1028.282133	-3.010200	3.552700	-10.692000	25.793258	0.000935	20.774508
1029.282055	-2.996700	3.551800	-10.642000	25.823443	0.000934	20.766423
1030.281721	-2.998100	3.551400	-10.646000	25.784140	0.000933	20.778152
1031.282562	-3.007800	3.551500	-10.679000	25.740066	0.000931	20.774658
1032.282548	-2.997000	3.551800	-10.644000	25.725557	0.000931	20.787111
1033.284006	-3.000800	3.551300	-10.655000	25.700587	0.000931	20.784316
1034.282484	-3.003200	3.553200	-10.670000	25.666398	0.000930	20.777952
1035.284648	-3.001000	3.549900	-10.652000	25.608851	0.000932	20.774682
1036.285332	-2.974500	3.552400	-10.565000	25.618144	0.000930	20.767420
1037.285799	-2.968900	3.551400	-10.543000	25.613671	0.000931	20.785688
1038.289509	-3.002400	3.549900	-10.657000	25.644805	0.000933	20.788508
1039.286902	-3.019300	3.548300	-10.712000	25.608975	0.000929	20.782394
1040.288895	-3.018500	3.547000	-10.705000	25.587059	0.000931	20.787884
1041.287011	-3.012000	3.548300	-10.686000	25.566435	0.000931	20.776180
1042.286591	-2.989800	3.549400	-10.610000	25.568025	0.000930	20.785363
1043.289014	-2.997800	3.546400	-10.630000	25.577020	0.000927	20.782543
1044.288534	-3.000000	3.547800	-10.642000	25.597594	0.000927	20.783291
1045.289802	-3.015200	3.545500	-10.689000	25.612106	0.000924	20.773209
1046.298346	-2.984500	3.547100	-10.586000	25.646594	0.000926	20.778924
1047.291699	-3.010100	3.545500	-10.669000	25.674820	0.000924	20.776453
1048.291122	-2.995500	3.547600	-10.624000	25.701629	0.000925	20.782044
1049.294052	-3.009000	3.545700	-10.668000	25.719543	0.000925	20.786286
1050.290863	-3.007300	3.545600	-10.661000	25.668683	0.000922	20.784988
1051.296423	-2.990500	3.546400	-10.604000	25.678522	0.000924	20.776852
1052.291739	-3.003600	3.543300	-10.642000	25.665999	0.000923	20.784189
1053.291574	-3.001200	3.544700	-10.636000	25.695715	0.000922	20.781320
1054.293795	-2.992600	3.544100	-10.605000	25.716039	0.000919	20.784189
1055.291314	-2.992500	3.543100	-10.602000	25.721406	0.000921	20.790528
1056.299870	-2.987800	3.544900	-10.589000	25.729878	0.000917	20.793822
1057.291928	-3.015600	3.540900	-10.677000	25.733828	0.000921	20.779298
1058.291629	-3.020500	3.541800	-10.697000	25.763344	0.000919	20.776703
1059.292521	-3.026800	3.541200	-10.717000	25.798076	0.000918	20.797366
1060.292026	-2.996400	3.542900	-10.616000	25.802026	0.000918	20.802756
1061.292141	-3.005100	3.540400	-10.638000	25.807765	0.000919	20.788132
1062.292560	-3.027400	3.538800	-10.712000	25.772511	0.000916	20.788756
1063.292705	-3.009800	3.539600	-10.653000	25.794250	0.000915	20.791152
1064.292431	-2.995400	3.538800	-10.599000	25.768635	0.000915	20.795768
1065.296094	-2.979900	3.542800	-10.556000	25.753952	0.000914	20.796667
1066.292835	-3.014000	3.539500	-10.666000	25.716734	0.000913	20.776352
1067.293356	-2.999100	3.539600	-10.614000	25.661998	0.000914	20.799137
1068.294055	-2.979700	3.539800	-10.547000	25.609992	0.000913	20.776776
1069.296324	-3.005300	3.538900	-10.634000	25.640728	0.000912	20.792474
1070.299119	-2.978100	3.540700	-10.543000	25.652158	0.000912	20.789254
1071.296471	-3.009800	3.538600	-10.649000	25.726945	0.000911	20.804152
1072.298703	-3.011800	3.537700	-10.653000	25.758423	0.000912	20.824391
1073.297754	-3.002200	3.536800	-10.617000	25.814222	0.000911	20.816904
1074.297754	-2.987100	3.537500	-10.565000	25.829551	0.000911	20.807171
1075.300862	-3.012300	3.536400	-10.652000	25.848953	0.000911	20.795842
1076.300348	-2.985900	3.536400	-10.558000	25.828731	0.000908	20.810141
1077.298189	-3.001900	3.535000	-10.610000	25.780261	0.000908	20.823567
1078.299073	-2.998600	3.536700	-10.604000	25.756634	0.000907	20.790826
1079.299723	-3.010600	3.534700	-10.641000	25.696284	0.000909	20.806547
1080.300622	-2.987400	3.534900	-10.559000	25.675339	0.000907	20.813485
1081.301112	-3.007100	3.532600	-10.622000	25.681203	0.000906	20.798986
1082.299566	-2.991500	3.534100	-10.570000	25.702893	0.000906	20.812237
1083.302912	-2.985600	3.533800	-10.550000	25.723292	0.000906	20.817552
1084.300147	-3.021000	3.532800	-10.672000	25.747565	0.000906	20.805898
1085.299763	-2.999500	3.533600	-10.598000	25.753826	0.000903	20.808868
1086.301405	-3.006200	3.532800	-10.620000	25.746223	0.000903	20.814033
1087.300739	-2.997600	3.532100	-10.587000	25.778471	0.000901	20.825088
1088.305174	-2.996900	3.532700	-10.585000	25.770819	0.000899	20.814083
1089.301711	-2.985700	3.532200	-10.546000	25.780310	0.000900	20.813185
1090.302905	-3.024900	3.531300	-10.680000	25.774546	0.000901	20.823990
1091.303195	-3.000100	3.530800	-10.592000	25.818022	0.000901	20.831152
1092.306904	-2.994300	3.531500	-10.574000	25.858715	0.000899	20.822717
1093.304138	-3.002400	3.530600	-10.598000	25.899952	0.000899	20.815305
1094.302624	-3.014600	3.528300	-10.635000	25.909540	0.000898	20.837266
1095.303630	-2.987900	3.528500	-10.542000	25.903901	0.000899	20.800781
1096.304750	-2.995600	3.528600	-10.570000	25.909366	0.000895	20.806271
1097.307747	-3.020000	3.528000	-10.654000	25.912049	0.000896	20.820346
1098.304429	-3.019300	3.527200	-10.648000	25.915229	0.000897	20.826385
1099.307980	-3.013800	3.527000	-10.628000	25.908546	0.000897	20.826310
1100.306176	-3.003500	3.528100	-10.596000	25.906112	0.000894	20.820545
1101.306275	-2.988500	3.527300	-10.541000	25.887729	0.000897	20.816777
1102.308720	-2.995100	3.527700	-10.565000	25.924270	0.000895	20.826460
1103.306664	-3.008400	3.527300	-10.609000	25.924444	0.000893	20.816203
1104.306851	-3.001100	3.526200	-10.582000	25.952886	0.000893	20.822017
1105.307361	-2.994400	3.527100	-10.560000	25.955097	0.000893	20.826135
1106.306018	-2.981200	3.525300	-10.509000	25.956786	0.000892	20.819297
1107.308053	-3.012200	3.525700	-10.619000	25.994567	0.000892	20.837814
1108.310434	-2.978800	3.526100	-10.503000	26.000677	0.000892	20.815030
1109.309831	-2.997800	3.524300	-10.563000	25.973429	0.000892	20.824637
1110.312355	-2.997300	3.524900	-10.564000	25.930579	0.000890	20.828530
1111.309508	-2.997800	3.525800	-10.568000	25.920842	0.000890	20.840084
1112.309530	-3.016400	3.522800	-10.625000	25.917339	0.000888	20.827083
1113.311767	-3.007600	3.524100	-10.598000	25.876922	0.000890	20.812559
1114.310551	-3.006000	3.523200	-10.589000	25.855831	0.000887	20.821717
1115.312109	-3.002800	3.522200	-10.576000	25.848056	0.000886	20.858475
1116.311293	-2.990000	3.523800	-10.533000	25.876425	0.000889	20.843353
1117.310660	-2.997000	3.523600	-10.559000	25.867184	0.000888	20.857776
1118.311645	-3.009200	3.522400	-10.598000	25.904422	0.000888	20.837813
1119.313759	-3.015400	3.522000	-10.619000	25.905912	0.000884	20.839784
1120.310180	-2.996200	3.520200	-10.545000	25.944962	0.000882	20.835392
1121.311245	-2.990900	3.522100	-10.533000	25.951991	0.000885	20.841506
1122.312415	-3.016400	3.520700	-10.617000	25.987388	0.000884	20.833920
1123.311471	-3.003700	3.519900	-10.571000	25.990989	0.000885	20.838486
1124.314312	-2.985600	3.521100	-10.511000	25.974248	0.000881	20.827831
1125.313279	-3.005500	3.517700	-10.571000	25.939869	0.000881	20.844975
1126.316618	-2.990400	3.517200	-10.517000	25.950004	0.000881	20.834294
1127.315829	-2.988000	3.517000	-10.508000	25.917314	0.000880	20.855979
1128.314922	-3.007100	3.517900	-10.577000	25.900670	0.000881	20.851113
1129.315554	-2.999600	3.517300	-10.549000	25.875878	0.000880	20.850864
1130.315050	-2.990600	3.516700	-10.516000	25.894783	0.000876	20.843303
1131.315465	-2.999700	3.516900	-10.548000	25.921537	0.000878	20.852636
1132.315962	-3.002700	3.517100	-10.559000	25.923549	0.000877	20.852286
1133.315416	-3.000600	3.515100	-10.547000	25.952016	0.000877	20.870453
1134.314633	-2.987400	3.516700	-10.505000	25.935373	0.000878	20.848518
1135.317617	-3.000300	3.515800	-10.548000	25.918978	0.000875	20.848169
1136.317088	-3.004100	3.513700	-10.554000	25.923077	0.000876	20.861295
1137.316243	-2.984700	3.514400	-10.488000	25.920940	0.000877	20.862942
1138.317342	-3.022900	3.513300	-10.618000	25.922157	0.000877	20.849466
1139.318611	-3.008000	3.513400	-10.568000	25.925362	0.000875	20.863116
1140.320907	-3.002800	3.512100	-10.545000	25.939745	0.000873	20.865711
1141.319285	-2.991100	3.512700	-10.506000	25.933038	0.000874	20.834793
1142.321247	-3.006500	3.511800	-10.558000	25.945905	0.000872	20.857202
1143.320491	-2.984900	3.513200	-10.486000	25.984457	0.000871	20.859897
1144.320204	-2.981600	3.511100	-10.467000	25.953382	0.000871	20.866610
1145.321634	-2.991300	3.509900	-10.499000	25.916071	0.000873	20.867059
1146.321619	-2.997200	3.510300	-10.520000	25.920170	0.000871	20.856953
1147.320115	-2.999500	3.510800	-10.529000	25.919351	0.000871	20.890740
1148.320450	-2.973700	3.509900	-10.436000	25.883206	0.000871	20.850639
1149.318957	-3.003600	3.509000	-10.539000	25.891181	0.000869	20.859598
1150.319648	-3.003900	3.508500	-10.538000	25.889317	0.000868	20.867209
1151.321147	-2.991500	3.508200	-10.494000	25.897515	0.000868	20.859797
1152.321383	-2.995100	3.508000	-10.506000	25.917289	0.000868	20.877290
1153.324934	-3.004500	3.508300	-10.540000	25.925536	0.000865	20.868506
1154.319901	-3.000900	3.508000	-10.525000	25.937683	0.000867	20.861269
1155.320283	-2.996000	3.507600	-10.507000	25.948364	0.000866	20.862991
1156.324732	-3.019100	3.506300	-10.585000	25.997696	0.000866	20.879361
1157.321713	-2.993900	3.506700	-10.498000	26.007234	0.000866	20.869504
1158.320389	-2.994800	3.506900	-10.502000	26.046777	0.000865	20.871775
1159.322240	-3.010100	3.505000	-10.549000	26.081201	0.000863	20.866061
1160.323011	-2.980800	3.506500	-10.451000	26.112719	0.000860	20.869280
1161.323805	-2.991100	3.505100	-10.483000	26.120046	0.000862	20.867633
1162.327051	-3.000400	3.506600	-10.520000	26.156555	0.000864	20.880135
1163.324711	-2.994000	3.505800	-10.495000	26.195272	0.000862	20.883478
1164.324290	-3.000500	3.504000	-10.513000	26.153773	0.000863	20.873073
1165.325639	-3.011600	3.503900	-10.549000	26.163906	0.000861	20.882780
1166.326375	-3.006800	3.502900	-10.532000	26.164378	0.000862	20.873771
1167.329310	-2.999300	3.504300	-10.509000	26.172499	0.000860	20.908956
1168.328397	-2.980500	3.502600	-10.438000	26.189610	0.000861	20.900073
1169.328796	-3.006900	3.502600	-10.531000	26.167085	0.000858	20.896404
1170.328072	-2.997200	3.501900	-10.494000	26.158020	0.000859	20.890615
1171.327847	-2.995900	3.503000	-10.493000	26.135097	0.000857	20.891289
1172.329761	-2.987700	3.501000	-10.459000	26.155735	0.000855	20.898750
1173.327811	-2.978900	3.500600	-10.426000	26.146149	0.000857	20.890066
1174.329042	-3.000800	3.501100	-10.504000	26.160752	0.000856	20.889093
1175.330475	-3.011600	3.499500	-10.538000	26.155810	0.000852	20.878912
1176.329523	-3.003800	3.498900	-10.509000	26.150073	0.000854	20.878837
1177.330246	-2.996600	3.499100	-10.485000	26.175082	0.000854	20.885475
1178.331911	-3.005200	3.497800	-10.510000	26.166464	0.000854	20.895781
1179.331082	-2.996100	3.497700	-10.479000	26.180347	0.000853	20.886972
1180.331166	-2.989400	3.498300	-10.457000	26.206945	0.000853	20.888095
1181.332767	-3.031500	3.497000	-10.600000	26.207094	0.000851	20.899149
1182.336288	-3.010300	3.496500	-10.524000	26.212383	0.000853	20.895930
1183.339296	-2.999100	3.495600	-10.483000	26.195198	0.000851	20.889567
1184.331983	-3.001100	3.496200	-10.491000	26.184022	0.000849	20.883554
1185.335319	-2.993300	3.494800	-10.460000	26.196912	0.000850	20.887022
1186.334675	-3.020100	3.495400	-10.555000	26.197930	0.000850	20.919810
1187.333109	-3.016100	3.494600	-10.538000	26.204511	0.000849	20.884227
1188.333080	-3.002400	3.494500	-10.491000	26.183650	0.000849	20.904989
1189.336512	-3.003200	3.493300	-10.490000	26.183700	0.000848	20.901720
1190.332848	-2.989400	3.494900	-10.447000	26.160876	0.000847	20.887796
1191.333435	-3.016200	3.492900	-10.533000	26.141902	0.000845	20.875843
1192.332992	-3.018100	3.492300	-10.539000	26.129360	0.000844	20.895481
1193.334785	-3.007000	3.492300	-10.501000	26.119003	0.000846	20.879386
1194.338234	-2.996600	3.492300	-10.463000	26.094713	0.000844	20.871102
1195.333674	-2.999900	3.491400	-10.472000	26.086144	0.000843	20.895207
1196.333985	-2.996300	3.492400	-10.463000	26.130800	0.000843	20.886024
1197.333586	-3.002900	3.490600	-10.480000	26.135668	0.000842	20.882855
1198.333568	-3.006800	3.491200	-10.495000	26.132365	0.000844	20.871950
1199.334849	-3.013200	3.490500	-10.516000	26.152482	0.000843	20.866086
1200.334629	-3.009000	3.489700	-10.499000	26.154692	0.000844	20.893909
1201.335404	-2.995100	3.491300	-10.456000	26.183451	0.000840	20.852636
1202.333951	-3.014200	3.487900	-10.512000	26.180000	0.000840	20.888046
1203.334022	-3.007000	3.490000	-10.493000	26.150371	0.000838	20.862543
1204.333431	-2.995700	3.488200	-10.449000	26.108374	0.000840	20.877715
1205.335527	-3.002700	3.487700	-10.472000	26.083115	0.000838	20.866086
1206.334385	-3.011700	3.487500	-10.502000	26.063866	0.000837	20.856704
1207.335031	-2.968500	3.489100	-10.356000	26.087412	0.000837	20.869929
1208.334608	-3.006300	3.486900	-10.480000	26.105393	0.000837	20.861919
1209.334177	-2.998100	3.487000	-10.452000	26.132490	0.000838	20.870179
1210.336505	-2.986600	3.487600	-10.415000	26.125585	0.000838	20.844751
1211.334123	-2.988600	3.486100	-10.418000	26.141704	0.000836	20.853360
1212.336124	-2.976100	3.485700	-10.373000	26.172723	0.000835	20.839960
1213.334011	-2.985000	3.485400	-10.404000	26.145082	0.000833	20.856754
1214.333320	-2.994600	3.484700	-10.435000	26.079712	0.000835	20.873573
1215.337202	-3.017500	3.484100	-10.512000	26.061333	0.000833	20.866486
1216.337630	-3.019300	3.482500	-10.514000	26.028050	0.000833	20.859599
1217.335614	-2.972900	3.485600	-10.361000	26.054503	0.000834	20.869581
1218.335262	-2.998800	3.484300	-10.448000	26.056390	0.000833	20.875270
1219.335431	-3.005300	3.482500	-10.465000	26.027206	0.000829	20.870130
1220.335635	-3.001600	3.481600	-10.450000	26.026287	0.000831	20.848345
1221.337173	-3.010000	3.483300	-10.483000	26.009943	0.000832	20.850890
1222.335599	-3.004100	3.480700	-10.455000	25.964537	0.000830	20.858377
1223.340310	-3.021600	3.481000	-10.516000	25.991537	0.000827	20.854209
1224.338049	-3.003100	3.479600	-10.447000	25.985005	0.000829	20.846698
1225.338087	-3.013700	3.478400	-10.482000	26.051423	0.000828	20.866961
1226.338831	-2.999400	3.479300	-10.435000	26.082222	0.000826	20.853336
1227.337987	-3.008800	3.479500	-10.467000	26.121116	0.000827	20.858751
1228.340922	-3.011800	3.477400	-10.471000	26.141407	0.000824	20.852587
1229.338501	-2.997200	3.479600	-10.428000	26.142202	0.000827	20.843429
1230.337670	-3.002300	3.478300	-10.441000	26.176773	0.000825	20.860149
1231.342370	-3.033400	3.475900	-10.542000	26.199546	0.000823	20.849842
1232.340285	-3.016600	3.476100	-10.485000	26.220431	0.000824	20.842381
1233.340021	-3.005600	3.475700	-10.445000	26.195597	0.000822	20.852513
1234.339665	-2.994000	3.476200	-10.406000	26.172004	0.000823	20.815530
1235.339196	-2.991300	3.475300	-10.395000	26.124072	0.000824	20.849868
1236.340971	-2.969000	3.475800	-10.319000	26.081651	0.000822	20.862719
1237.343157	-3.000700	3.476400	-10.430000	26.072684	0.000822	20.855607
1238.342328	-2.981700	3.476600	-10.365000	26.069456	0.000822	20.828182
1239.342751	-2.993700	3.474000	-10.398000	26.080558	0.000818	20.842656
1240.342120	-3.018700	3.473800	-10.485000	26.098267	0.000818	20.842431
1241.342538	-2.967700	3.475300	-10.313000	26.153676	0.000819	20.845476
1242.344809	-3.015400	3.473700	-10.474000	26.146151	0.000819	20.845027
1243.341776	-2.995000	3.473300	-10.401000	26.163014	0.000816	20.816927
1244.343968	-2.998200	3.471600	-10.407000	26.176798	0.000818	20.837416
1245.341277	-2.999400	3.472000	-10.413000	26.221649	0.000814	20.823691
1246.345087	-2.995600	3.473700	-10.404000	26.199795	0.000815	20.835869
1247.346243	-2.985000	3.472300	-10.363000	26.149007	0.000812	20.847423
1248.345680	-2.996800	3.472100	-10.404000	26.134752	0.000814	20.839737
1249.345172	-2.995700	3.472000	-10.400000	26.082595	0.000816	20.819099
1250.346303	-3.002600	3.470600	-10.420000	26.066848	0.000814	20.833149
1251.345023	-3.015200	3.470500	-10.463000	26.095535	0.000812	20.825937
1252.347549	-3.008100	3.470100	-10.436000	26.075864	0.000811	20.849793
1253.348514	-2.997700	3.468500	-10.396000	26.065631	0.000814	20.830978
1254.347774	-3.001600	3.469000	-10.411000	26.046084	0.000812	20.838839
1255.349887	-2.977400	3.469400	-10.329000	26.040073	0.000810	20.846549
1256.348173	-2.993400	3.466400	-10.375000	26.042706	0.000809	20.834022
1257.348770	-2.996400	3.467200	-10.388000	26.088854	0.000808	20.846250
1258.353160	-2.999200	3.466800	-10.396000	26.098342	0.000810	20.832076
1259.348528	-2.991100	3.467300	-10.370000	26.072313	0.000808	20.826786
1260.352646	-3.007000	3.465800	-10.421000	26.079292	0.000810	20.840910
1261.349709	-3.010800	3.466400	-10.435000	26.079019	0.000809	20.815506
1262.348680	-2.991000	3.465200	-10.363000	26.100925	0.000808	20.821395
1263.348697	-3.002600	3.464400	-10.401000	26.133287	0.000806	20.847747
1264.351021	-3.013000	3.464000	-10.436000	26.122781	0.000808	20.817752
1265.357864	-3.012800	3.464600	-10.437000	26.140290	0.000807	20.813060
1266.348548	-3.000600	3.463100	-10.389000	26.150945	0.000806	20.834671
1267.348973	-3.016100	3.462400	-10.441000	26.160954	0.000805	20.817702
1268.349035	-3.002800	3.462800	-10.396000	26.146176	0.000804	20.842681
1269.352304	-3.018100	3.462600	-10.450000	26.142848	0.000804	20.821320
1270.349457	-2.996600	3.463400	-10.377000	26.144339	0.000801	20.818076
1271.351906	-3.011300	3.460200	-10.419000	26.150100	0.000803	20.834771
1272.348438	-2.982900	3.462000	-10.325000	26.137583	0.000803	20.836418
1273.349559	-3.004900	3.461100	-10.399000	26.108376	0.000803	20.818925
1274.349767	-2.977200	3.460200	-10.301000	26.100801	0.000803	20.812736
1275.350490	-3.005900	3.460000	-10.398000	26.101322	0.000801	20.831751
1276.350835	-3.000600	3.459500	-10.379000	26.099733	0.000797	20.827309
1277.350869	-2.987100	3.461300	-10.338000	26.128021	0.000799	20.814008
1278.350038	-2.998800	3.459200	-10.373000	26.156905	0.000799	20.811263
1279.350911	-3.020100	3.458300	-10.443000	26.176252	0.000800	20.824065
1280.353385	-3.000800	3.457700	-10.375000	26.211492	0.000798	20.824389
1281.350558	-2.987000	3.458900	-10.330000	26.208735	0.000799	20.803127
1282.351335	-2.999500	3.456900	-10.368000	26.225945	0.000796	20.824215
1283.352421	-2.992900	3.456300	-10.344000	26.255795	0.000799	20.816279
1284.352778	-2.988300	3.456700	-10.328000	26.288102	0.000795	20.811762
1285.356192	-3.004400	3.456200	-10.383000	26.303051	0.000796	20.842905
1286.352706	-3.002300	3.455700	-10.373000	26.303796	0.000795	20.817576
1287.353620	-3.008500	3.456500	-10.397000	26.304044	0.000795	20.816877
1288.354131	-2.985400	3.454500	-10.312000	26.273178	0.000796	20.816678
1289.354558	-2.991200	3.453100	-10.328000	26.278044	0.000791	20.814457
1290.357830	-2.997200	3.454800	-10.354000	26.291057	0.000793	20.820421
1291.357886	-3.006800	3.453900	-10.384000	26.283756	0.000793	20.798860
1292.354763	-2.991300	3.454200	-10.330000	26.298854	0.000793	20.826834
1293.355431	-3.008800	3.452400	-10.386000	26.316360	0.000790	20.807918
1294.354476	-3.014400	3.453700	-10.410000	26.312114	0.000791	20.820246
1295.356384	-3.005600	3.451600	-10.373000	26.316286	0.000789	20.795041
1296.358733	-2.998100	3.451500	-10.347000	26.305260	0.000790	20.801031
1297.356295	-3.002400	3.451500	-10.361000	26.311940	0.000789	20.823865
1298.357919	-2.989500	3.451000	-10.316000	26.313331	0.000788	20.805348
1299.357408	-3.017700	3.449900	-10.409000	26.295899	0.000788	20.817701
1300.358972	-3.019600	3.448700	-10.412000	26.293862	0.000787	20.812335
1301.364335	-2.996400	3.450600	-10.338000	26.273872	0.000790	20.818798
1302.359435	-2.980900	3.450000	-10.283000	26.278764	0.000787	20.807119
1303.364375	-3.004800	3.449100	-10.363000	26.293316	0.000787	20.804674
1304.360175	-2.979200	3.449500	-10.276000	26.327559	0.000786	20.816802
1305.360131	-3.006500	3.447800	-10.365000	26.357307	0.000785	20.795964
1306.362776	-2.995700	3.447000	-10.325000	26.363887	0.000785	20.807793
1307.360312	-3.014500	3.446300	-10.388000	26.343227	0.000785	20.809315
1308.360173	-3.003300	3.447000	-10.350000	26.299996	0.000785	20.790524
1309.360403	-3.006000	3.446700	-10.360000	26.284426	0.000783	20.799059
1310.362907	-2.995200	3.446500	-10.321000	26.273624	0.000782	20.808592
1311.361595	-2.980900	3.445900	-10.271000	26.247698	0.000783	20.808142
1312.360273	-2.996400	3.445700	-10.323000	26.295302	0.000784	20.796239
1313.360727	-2.988200	3.444600	-10.292000	26.273450	0.000782	20.803676
1314.360679	-2.990800	3.445300	-10.303000	26.255695	0.000781	20.806695
1315.359851	-3.003500	3.443800	-10.342000	26.276852	0.000780	20.805198
1316.361351	-2.980200	3.444100	-10.262000	26.293341	0.000782	20.796164
1317.366034	-2.989700	3.444100	-10.296000	26.295973	0.000778	20.811612
1318.361785	-3.016300	3.441400	-10.379000	26.304938	0.000779	20.799284
1319.364539	-3.013700	3.442100	-10.373000	26.281670	0.000777	20.815255
1320.362830	-2.975200	3.442800	-10.242000	26.262772	0.000778	20.788678
1321.364089	-2.995700	3.440800	-10.307000	26.250356	0.000777	20.805597
1322.366426	-2.998900	3.441000	-10.319000	26.253758	0.000777	20.802852
1323.366829	-2.976100	3.440700	-10.239000	26.268657	0.000775	20.822567
1324.364379	-2.998200	3.440600	-10.314000	26.277448	0.000776	20.800107
1325.366442	-3.015700	3.441000	-10.376000	26.278541	0.000776	20.815904
1326.366390	-3.026300	3.438800	-10.406000	26.233717	0.000775	20.786507
1327.366427	-2.967900	3.437700	-10.201000	26.193933	0.000771	20.799159
1328.370419	-2.994400	3.439300	-10.297000	26.188792	0.000771	20.779769
1329.368414	-2.995700	3.439100	-10.301000	26.163808	0.000773	20.807294
1330.372914	-2.993400	3.439100	-10.293000	26.137408	0.000771	20.806371
1331.369620	-3.031300	3.436700	-10.417000	26.142003	0.000772	20.809565
1332.369078	-2.999600	3.435900	-10.305000	26.170290	0.000770	20.797687
1333.373621	-3.001100	3.436500	-10.311000	26.197733	0.000769	20.786856
1334.369937	-3.003300	3.435700	-10.317000	26.226888	0.000773	20.803351
1335.368777	-3.001200	3.436400	-10.312000	26.228254	0.000772	20.791447
1336.370191	-2.986400	3.436700	-10.262000	26.222989	0.000771	20.813658
1337.370784	-3.003900	3.434900	-10.317000	26.251523	0.000767	20.790649
1338.370187	-3.006200	3.435800	-10.328000	26.248021	0.000767	20.781440
1339.373423	-3.014800	3.432800	-10.348000	26.224379	0.000771	20.811736
1340.371594	-3.023700	3.433300	-10.379000	26.247797	0.000767	20.803027
1341.370938	-3.016900	3.433500	-10.358000	26.268310	0.000765	20.792820
1342.372334	-3.011300	3.432600	-10.335000	26.275710	0.000764	20.787454
1343.373372	-2.996000	3.431800	-10.281000	26.343377	0.000764	20.808517
1344.376709	-2.994300	3.431800	-10.274000	26.358523	0.000763	20.790075
1345.372261	-3.002600	3.431000	-10.301000	26.386135	0.000763	20.795540
1346.376205	-3.001500	3.430600	-10.295000	26.350826	0.000760	20.797037
1347.375253	-2.975500	3.431200	-10.209000	26.342085	0.000763	20.793943
1348.375018	-2.989100	3.430100	-10.252000	26.329421	0.000763	20.793069
1349.376533	-3.004800	3.431200	-10.309000	26.305459	0.000763	20.786057
1350.376211	-2.994200	3.427900	-10.263000	26.263591	0.000761	20.786181
1351.375828	-3.009100	3.430300	-10.321000	26.221449	0.000762	20.785083
1352.376245	-2.991500	3.428800	-10.257000	26.202873	0.000762	20.791547
1353.376120	-2.990400	3.427800	-10.250000	26.201383	0.000762	20.792895
1354.377387	-3.012500	3.427000	-10.323000	26.192045	0.000758	20.792520
1355.378375	-3.011300	3.426700	-10.318000	26.165968	0.000758	20.779593
1356.376948	-2.994900	3.426000	-10.259000	26.164354	0.000760	20.796463
1357.378554	-2.987600	3.427100	-10.238000	26.207740	0.000757	20.781739
1358.378945	-2.987800	3.425300	-10.233000	26.253856	0.000758	20.794417
1359.384151	-2.995000	3.426300	-10.261000	26.249436	0.000756	20.785707
1360.380713	-2.981600	3.427200	-10.216000	26.241613	0.000756	20.769311
1361.380031	-3.003900	3.423900	-10.284000	26.208783	0.000755	20.793219
1362.385234	-2.997700	3.424400	-10.264000	26.230414	0.000753	20.778919
1363.382171	-3.000300	3.424000	-10.272000	26.240099	0.000756	20.787704
1364.382824	-3.023000	3.423800	-10.349000	26.257432	0.000752	20.770983
1365.383909	-2.982300	3.423700	-10.208000	26.282190	0.000754	20.779268
1366.384703	-3.002000	3.422700	-10.273000	26.304813	0.000753	20.761700
1367.381836	-2.978200	3.423000	-10.193000	26.322791	0.000750	20.765068
1368.382421	-3.007000	3.421700	-10.288000	26.354674	0.000752	20.795215
1369.384664	-2.985500	3.422200	-10.215000	26.363067	0.000751	20.769037
1370.383134	-3.002200	3.421800	-10.272000	26.372329	0.000752	20.750844
1371.385261	-3.001300	3.420000	-10.264000	26.423403	0.000750	20.765667
1372.384205	-3.004000	3.419700	-10.272000	26.422559	0.000750	20.789001
1373.384101	-2.995400	3.419600	-10.242000	26.452031	0.000747	20.793967
1374.383818	-2.993400	3.420300	-10.238000	26.483240	0.000748	20.762273
1375.384072	-2.986400	3.420400	-10.213000	26.498708	0.000745	20.766915
1376.384923	-3.001600	3.419300	-10.263000	26.536668	0.000748	20.775201
1377.382595	-3.002800	3.419000	-10.265000	26.527408	0.000747	20.761150
1378.385482	-2.995600	3.417600	-10.237000	26.553848	0.000746	20.779668
1379.384022	-2.999300	3.416800	-10.247000	26.566659	0.000745	20.767414
1380.385877	-2.995600	3.418200	-10.238000	26.521599	0.000745	20.775700
1381.389808	-3.032200	3.414700	-10.353000	26.497268	0.000744	20.748398
1382.384894	-3.009500	3.416000	-10.279000	26.517403	0.000744	20.775750
1383.388726	-3.014500	3.416700	-10.299000	26.507720	0.000744	20.766965
1384.385075	-2.983100	3.416200	-10.190000	26.488504	0.000742	20.765668
1385.386050	-3.016400	3.414300	-10.298000	26.450169	0.000744	20.771707
1386.386200	-2.991500	3.415200	-10.215000	26.463180	0.000742	20.767240
1387.389576	-3.018100	3.413400	-10.299000	26.473930	0.000740	20.774253
1388.387517	-2.991400	3.413600	-10.211000	26.451709	0.000740	20.766616
1389.385859	-3.005300	3.413000	-10.257000	26.431299	0.000739	20.758905
1390.387451	-2.966400	3.414000	-10.126000	26.412678	0.000737	20.763896
1391.388275	-2.987300	3.413900	-10.197000	26.337864	0.000738	20.755087
1392.391651	-2.995400	3.412500	-10.220000	26.309184	0.000737	20.755186
1393.388150	-2.977000	3.412500	-10.158000	26.288722	0.000739	20.748373
1394.392494	-2.968100	3.411800	-10.126000	26.243601	0.000738	20.765618
1395.388333	-2.982900	3.410900	-10.174000	26.212906	0.000735	20.764171
1396.388702	-2.989300	3.411600	-10.197000	26.226342	0.000736	20.774827
1397.390436	-2.999000	3.410600	-10.227000	26.245339	0.000734	20.746976
1398.388294	-2.969300	3.412400	-10.131000	26.277051	0.000733	20.766517
1399.389332	-3.004200	3.408400	-10.239000	26.247549	0.000735	20.771009
1400.388470	-3.004000	3.409200	-10.240000	26.224380	0.000735	20.752466
1401.389759	-3.006300	3.408200	-10.245000	26.217501	0.000732	20.744605
1402.391005	-3.032000	3.406500	-10.327000	26.194579	0.000732	20.748124
1403.391147	-2.992400	3.407100	-10.195000	26.189885	0.000732	20.753839
1404.389138	-2.992600	3.407000	-10.194000	26.185862	0.000733	20.767815
1405.390183	-3.033500	3.406000	-10.331000	26.196491	0.000731	20.752417
1406.391045	-2.999200	3.408000	-10.220000	26.229173	0.000732	20.750171
1407.391482	-3.005700	3.406400	-10.237000	26.234264	0.000731	20.756235
1408.395391	-2.980700	3.405600	-10.150000	26.292522	0.000729	20.755512
1409.392823	-2.991800	3.405000	-10.186000	26.334016	0.000727	20.766866
1410.393372	-2.990500	3.406600	-10.186000	26.327411	0.000729	20.763073
1411.393267	-3.024000	3.403700	-10.292000	26.347424	0.000728	20.774178
1412.393358	-2.991800	3.405800	-10.188000	26.366743	0.000728	20.759455
1413.400991	-2.988100	3.405500	-10.176000	26.386880	0.000729	20.749821
1414.398437	-2.993100	3.404300	-10.189000	26.375632	0.000725	20.771708
1415.393351	-2.990100	3.404200	-10.177000	26.369250	0.000725	20.769561
1416.395333	-3.000200	3.402300	-10.205000	26.373074	0.000727	20.766767
1417.394995	-3.039000	3.401900	-10.338000	26.353955	0.000725	20.776000
1418.394916	-3.002900	3.402000	-10.214000	26.390133	0.000725	20.748823
1419.395576	-3.017900	3.401900	-10.265000	26.413100	0.000725	20.735396
1420.394813	-3.001800	3.402400	-10.211000	26.378984	0.000725	20.755162
1421.400908	-3.002500	3.401100	-10.208000	26.363341	0.000723	20.748449
1422.395287	-3.013500	3.400800	-10.248000	26.324133	0.000722	20.746976
1423.396192	-2.991100	3.401000	-10.171000	26.296693	0.000723	20.771558
1424.399698	-2.995100	3.400400	-10.183000	26.297389	0.000721	20.754712
1425.396625	-3.009800	3.397500	-10.225000	26.285916	0.000719	20.764520
1426.396378	-2.998100	3.399300	-10.191000	26.305558	0.000719	20.745853
1427.397765	-3.000800	3.398100	-10.197000	26.283557	0.000719	20.771633
1428.396761	-3.004300	3.399300	-10.211000	26.245861	0.000722	20.764570
1429.397638	-3.013600	3.398200	-10.238000	26.240273	0.000718	20.751368
1430.400126	-3.010900	3.397000	-10.227000	26.253261	0.000719	20.752092
1431.399807	-2.990700	3.398000	-10.161000	26.236299	0.000719	20.748323
1432.400216	-2.989600	3.396000	-10.152000	26.221772	0.000716	20.757907
1433.400193	-2.997400	3.396400	-10.179000	26.210323	0.000717	20.751618
1434.399562	-3.001700	3.396100	-10.192000	26.209454	0.000716	20.763547
1435.401117	-3.015900	3.394300	-10.236000	26.224951	0.000717	20.784809
1436.400162	-2.997100	3.394800	-10.173000	26.227757	0.000717	20.776249
1437.400528	-2.996800	3.395700	-10.174000	26.240794	0.000714	20.764221
1438.400089	-3.005200	3.392800	-10.194000	26.292025	0.000716	20.786781
1439.400648	-3.031500	3.391400	-10.280000	26.275784	0.000713	20.779469
1440.401025	-3.016700	3.393700	-10.236000	26.235679	0.000713	20.780891
1441.400541	-3.009600	3.391600	-10.206000	26.244544	0.000713	20.763247
1442.400026	-3.008700	3.392100	-10.205000	26.262797	0.000715	20.758356
1443.399492	-3.000500	3.392000	-10.176000	26.304813	0.000712	20.784934
1444.400508	-2.988900	3.391800	-10.137000	26.365997	0.000709	20.758231
1445.399991	-2.997900	3.391800	-10.168000	26.392566	0.000708	20.759329
1446.403925	-2.993400	3.391400	-10.151000	26.433907	0.000709	20.766741
1447.402497	-2.996400	3.389800	-10.156000	26.485152	0.000710	20.783636
1448.402688	-3.020600	3.389100	-10.235000	26.493122	0.000710	20.763671
1449.402490	-2.997900	3.389900	-10.160000	26.486965	0.000707	20.759379
1450.402259	-3.010700	3.388600	-10.202000	26.500968	0.000709	20.768238
1451.408232	-2.996700	3.390200	-10.157000	26.508689	0.000708	20.769835
1452.402857	-3.006400	3.388200	-10.185000	26.545979	0.000708	20.770809
1453.402933	-3.000100	3.386800	-10.159000	26.563605	0.000706	20.778570
1454.402781	-3.019100	3.385600	-10.221000	26.543173	0.000707	20.758031
1455.403618	-3.005200	3.386900	-10.177000	26.536271	0.000706	20.772905
1456.417640	-2.994200	3.386400	-10.139000	26.506529	0.000706	20.768612
1457.402813	-2.997700	3.388000	-10.155000	26.497963	0.000705	20.793194
1458.404173	-3.000500	3.386100	-10.159000	26.497218	0.000705	20.775375
1459.403015	-2.995800	3.385500	-10.141000	26.510749	0.000703	20.780916
1460.403441	-2.995400	3.384300	-10.136000	26.476711	0.000699	20.767564
1461.406199	-2.992700	3.384000	-10.127000	26.483985	0.000702	20.772031
1462.406835	-3.001300	3.385200	-10.159000	26.480037	0.000701	20.784185
1463.404754	-2.999800	3.383900	-10.151000	26.501613	0.000702	20.767464
1464.405529	-3.008200	3.383200	-10.176000	26.511320	0.000701	20.784335
1465.404650	-3.011300	3.383200	-10.187000	26.506007	0.000701	20.785632
1466.404294	-3.005900	3.383400	-10.169000	26.516981	0.000700	20.775800
1467.409954	-2.992300	3.382800	-10.122000	26.518421	0.000699	20.778670
1468.407548	-2.992800	3.381900	-10.120000	26.525769	0.000700	20.783686
1469.408391	-3.000600	3.381300	-10.146000	26.537314	0.000697	20.777746
1470.407711	-3.010200	3.381700	-10.178000	26.547195	0.000699	20.785308
1471.409007	-3.026100	3.380500	-10.229000	26.544811	0.000698	20.784335
1472.420630	-2.986200	3.380400	-10.094000	26.552408	0.000695	20.790549
1473.410136	-3.007400	3.379300	-10.162000	26.565318	0.000696	20.774602
1474.409869	-2.984900	3.380500	-10.089000	26.579295	0.000695	20.785333
1475.410764	-2.980500	3.380500	-10.074000	26.591683	0.000695	20.797312
1476.409551	-2.997600	3.378100	-10.125000	26.588008	0.000694	20.793144
1477.410281	-2.992000	3.378600	-10.108000	26.575025	0.000696	20.789101
1478.412236	-2.985700	3.378700	-10.087000	26.613802	0.000694	20.794417
1479.411631	-3.005800	3.377200	-10.150000	26.598584	0.000694	20.808042
1480.412115	-3.003900	3.377100	-10.144000	26.568520	0.000695	20.768338
1481.411447	-3.028500	3.377600	-10.227000	26.542528	0.000693	20.782513
1482.410318	-3.004000	3.376800	-10.143000	26.555686	0.000693	20.790998
1483.415695	-3.004000	3.376600	-10.143000	26.589126	0.000692	20.778145
1484.412775	-2.995900	3.377500	-10.118000	26.600372	0.000689	20.780916
1485.415610	-3.008300	3.375800	-10.154000	26.591832	0.000691	20.788927
1486.412772	-2.995200	3.374900	-10.107000	26.621920	0.000688	20.807793
1487.413663	-3.024100	3.374800	-10.204000	26.646520	0.000689	20.815928
1488.413558	-3.001900	3.376100	-10.134000	26.679288	0.000689	20.794816
1489.415411	-3.009800	3.373900	-10.154000	26.685518	0.000688	20.787329
1490.412342	-3.001700	3.374500	-10.127000	26.697508	0.000687	20.795589
1491.413751	-2.998700	3.373100	-10.113000	26.693437	0.000686	20.796239
1492.413157	-3.007600	3.371700	-10.140000	26.711955	0.000687	20.788303
1493.414553	-3.000200	3.372800	-10.118000	26.721213	0.000683	20.791921
1494.418076	-3.000700	3.372300	-10.118000	26.705948	0.000683	20.814032
1495.413629	-3.016700	3.370400	-10.166000	26.691128	0.000687	20.810987
1496.417878	-2.982600	3.371600	-10.055000	26.717813	0.000682	20.813633
1497.413306	-3.021300	3.369800	-10.180000	26.736007	0.000681	20.785458
1498.413407	-3.007000	3.370300	-10.134000	26.715703	0.000681	20.804399
1499.416326	-2.994300	3.370600	-10.092000	26.703515	0.000682	20.804474
1500.416150	-3.002600	3.369600	-10.116000	26.744596	0.000683	20.803576
1501.416219	-2.990200	3.369300	-10.073000	26.743802	0.000679	20.799932
1502.415437	-3.006800	3.368600	-10.126000	26.741021	0.000682	20.818474
1503.416174	-2.977000	3.369100	-10.028000	26.754500	0.000681	20.822541
1504.417295	-2.979800	3.369500	-10.039000	26.700785	0.000681	20.799358
1505.418154	-2.992700	3.368400	-10.079000	26.663674	0.000676	20.825112
1506.416630	-3.015600	3.367600	-10.153000	26.633662	0.000678	20.808691
1507.417529	-3.027800	3.367000	-10.193000	26.657170	0.000678	20.811462
1508.416865	-3.000300	3.366400	-10.099000	26.673008	0.000677	20.810788
1509.417259	-3.006100	3.365200	-10.114000	26.684650	0.000676	20.813957
1510.420389	-3.001400	3.366700	-10.104000	26.669582	0.000676	20.795964
1511.421217	-2.994000	3.365900	-10.077000	26.623484	0.000677	20.815055
1512.420930	-3.016700	3.365100	-10.150000	26.615838	0.000675	20.815903
1513.420874	-2.980600	3.366400	-10.033000	26.559583	0.000675	20.818624
1514.419941	-3.005600	3.365200	-10.113000	26.588282	0.000674	20.818074
1515.422683	-2.999200	3.363400	-10.087000	26.613430	0.000675	20.818698
1516.424364	-2.986600	3.363700	-10.044000	26.628374	0.000675	20.814756
1517.421031	-3.004500	3.364100	-10.106000	26.628548	0.000673	20.823939
1518.420800	-2.999800	3.363200	-10.088000	26.633314	0.000673	20.825411
1519.421317	-3.002400	3.362100	-10.093000	26.624750	0.000673	20.813009
1520.421263	-3.012200	3.362400	-10.127000	26.672064	0.000670	20.812210
1521.422944	-2.981700	3.363600	-10.028000	26.707934	0.000672	20.806545
1522.421875	-2.990500	3.362000	-10.053000	26.712302	0.000670	20.842705
1523.424057	-2.997200	3.361500	-10.073000	26.788902	0.000669	20.834370
1524.422547	-3.013800	3.360900	-10.128000	26.793469	0.000668	20.826160
1525.425346	-3.022600	3.358700	-10.151000	26.802032	0.000668	20.821968
1526.421988	-3.005100	3.359600	-10.095000	26.806773	0.000667	20.829579
1527.421057	-3.003300	3.359100	-10.088000	26.778602	0.000668	20.832549
1528.421523	-2.997400	3.359600	-10.069000	26.756585	0.000668	20.822742
1529.423012	-3.020600	3.356800	-10.139000	26.776591	0.000668	20.825786
1530.422123	-2.996600	3.358800	-10.063000	26.792278	0.000665	20.847721
1531.426189	-3.012800	3.357100	-10.113000	26.767730	0.000664	20.823515
1532.423389	-3.007900	3.356000	-10.094000	26.734767	0.000664	20.826884
1533.424469	-2.998300	3.356200	-10.062000	26.711831	0.000663	20.823266
1534.424995	-3.005700	3.356700	-10.088000	26.698129	0.000664	20.826086
1535.424982	-2.968200	3.357700	-9.964900	26.686512	0.000661	20.834795
1536.428781	-2.994000	3.356500	-10.049000	26.676608	0.000664	20.826734
1537.429515	-3.015300	3.354600	-10.114000	26.701033	0.000661	20.845600
1538.425992	-3.008700	3.355200	-10.093000	26.726526	0.000660	20.818125
1539.427325	-2.999500	3.354500	-10.061000	26.758025	0.000660	20.831301
1540.427808	-3.001700	3.354600	-10.068000	26.760259	0.000659	20.846349
1541.428769	-2.992500	3.353300	-10.033000	26.783194	0.000659	20.836691
1542.430442	-3.009300	3.354100	-10.093000	26.766613	0.000659	20.837565
1543.429262	-2.994700	3.354800	-10.046000	26.748667	0.000659	20.838962
1544.434181	-3.019500	3.353100	-10.123000	26.762195	0.000657	20.840235
1545.429309	-2.999500	3.352200	-10.053000	26.775524	0.000659	20.846049
1546.430902	-2.999900	3.351800	-10.054000	26.736728	0.000657	20.849718
1547.434985	-3.008200	3.352500	-10.083000	26.726998	0.000655	20.832824
1548.430603	-2.998700	3.350600	-10.047000	26.706768	0.000655	20.841882
1549.430675	-2.996800	3.351300	-10.042000	26.677973	0.000654	20.854659
1550.431723	-3.003500	3.351000	-10.063000	26.629169	0.000655	20.854908
1551.429759	-2.996200	3.351800	-10.041000	26.643716	0.000653	20.842032
1552.435662	-2.987900	3.350300	-10.010000	26.679785	0.000653	20.846524
1553.432971	-2.995600	3.350100	-10.035000	26.686587	0.000654	20.865688
1554.431199	-2.995100	3.349600	-10.031000	26.682367	0.000652	20.852438
1555.431157	-3.022500	3.348400	-10.120000	26.640340	0.000652	20.844802
1556.431692	-2.993000	3.348700	-10.022000	26.654664	0.000651	20.853985
1557.431415	-3.013400	3.347300	-10.086000	26.695597	0.000650	20.842032
1558.435250	-2.979000	3.349300	-9.977300	26.711459	0.000653	20.866512
1559.432765	-2.995600	3.346900	-10.025000	26.704013	0.000649	20.861397
1560.434007	-2.990700	3.347600	-10.010000	26.681299	0.000648	20.858003
1561.432696	-2.985200	3.346800	-9.989000	26.648805	0.000648	20.874647
1562.433484	-2.998200	3.345700	-10.030000	26.660249	0.000647	20.848221
1563.436467	-3.012700	3.345900	-10.079000	26.686363	0.000648	20.864041
1564.433888	-3.011700	3.344300	-10.071000	26.665586	0.000648	20.865439
1565.433303	-3.010500	3.343700	-10.065000	26.649475	0.000647	20.836442
1566.434107	-2.994800	3.345000	-10.017000	26.625024	0.000645	20.880137
1567.434454	-3.006400	3.343700	-10.051000	26.661540	0.000645	20.881758
1568.435791	-3.008400	3.342600	-10.054000	26.699892	0.000642	20.852038
1569.434790	-3.030600	3.342000	-10.128000	26.731466	0.000643	20.883780
1570.436824	-3.020200	3.343100	-10.096000	26.768599	0.000644	20.884603
1571.437363	-3.013800	3.341200	-10.068000	26.798136	0.000643	20.866886
1572.437894	-3.004100	3.341400	-10.037000	26.832636	0.000642	20.874547
1573.436355	-2.999200	3.343200	-10.026000	26.830302	0.000642	20.872201
1574.441573	-2.950700	3.343600	-9.864600	26.828491	0.000639	20.891241
1575.438048	-2.976800	3.340900	-9.944100	26.851225	0.000640	20.885177
1576.441878	-3.005300	3.340400	-10.038000	26.846733	0.000640	20.871652
1577.438786	-2.997800	3.339100	-10.009000	26.844722	0.000639	20.866786
1578.440211	-2.992100	3.339300	-9.990700	26.845616	0.000637	20.889019
1579.438903	-3.014300	3.340300	-10.067000	26.855246	0.000640	20.869780
1580.443118	-3.019100	3.338900	-10.080000	26.848644	0.000637	20.875944
1581.439760	-3.006300	3.338100	-10.035000	26.865471	0.000636	20.862519
1582.439502	-2.980600	3.340200	-9.954300	26.861847	0.000635	20.884478
1583.441310	-3.003600	3.338200	-10.026000	26.847303	0.000637	20.877915
1584.440701	-3.021100	3.337100	-10.080000	26.840031	0.000637	20.881508
1585.442357	-2.988000	3.338000	-9.972700	26.790143	0.000635	20.887772
1586.441179	-3.004500	3.334600	-10.017000	26.816775	0.000635	20.885152
1587.445995	-3.004200	3.336000	-10.022000	26.802752	0.000633	20.894284
1588.441074	-3.017500	3.336200	-10.066000	26.811985	0.000633	20.888869
1589.441285	-3.003400	3.335200	-10.016000	26.849214	0.000633	20.868931
1590.444030	-2.993500	3.335600	-9.984400	26.876118	0.000630	20.884602
1591.444364	-3.025200	3.334500	-10.086000	26.855692	0.000630	20.874496
1592.443698	-3.009700	3.334600	-10.036000	26.815981	0.000629	20.900473
1593.444395	-3.014200	3.333300	-10.047000	26.788231	0.000629	20.882531
1594.444444	-2.970000	3.335300	-9.905300	26.818835	0.000628	20.905239
1595.449900	-2.997500	3.333700	-9.991900	26.840999	0.000627	20.873947
1596.445529	-2.988000	3.332900	-9.956600	26.850505	0.000628	20.898676
1597.447842	-2.997800	3.333300	-9.991300	26.850232	0.000626	20.896031
1598.445604	-3.022600	3.331000	-10.068000	26.843158	0.000627	20.914995
1599.445260	-2.979700	3.333000	-9.930200	26.805630	0.000625	20.896230
1600.444579	-2.997900	3.332500	-9.989400	26.791582	0.000626	20.892537
1601.448794	-3.007900	3.331100	-10.019000	26.788653	0.000622	20.908083
1602.445221	-2.986400	3.332700	-9.952000	26.780859	0.000625	20.920160
1603.445971	-3.013200	3.330500	-10.034000	26.817594	0.000624	20.893086
1604.445237	-3.024000	3.330300	-10.069000	26.803992	0.000623	20.911652
1605.445388	-3.004500	3.330000	-10.004000	26.835861	0.000622	20.883479
1606.448426	-3.015200	3.329200	-10.036000	26.874778	0.000623	20.911701
1607.445341	-3.011800	3.329000	-10.025000	26.870533	0.000623	20.892263
1608.449030	-2.992900	3.328900	-9.960700	26.876118	0.000621	20.908308
1609.445678	-2.980000	3.329200	-9.920000	26.913742	0.000621	20.896829
1610.445928	-3.004300	3.328200	-9.997000	26.896543	0.000622	20.907509
1611.447455	-2.991600	3.327700	-9.954100	26.927814	0.000620	20.906711
1612.448146	-3.017400	3.326900	-10.037000	26.962682	0.000619	20.901945
1613.447848	-2.992100	3.328000	-9.956100	26.988094	0.000618	20.913747
1614.448774	-2.983100	3.328200	-9.927100	27.027575	0.000618	20.919312
1615.449130	-2.987800	3.325900	-9.936300	27.059934	0.000618	20.903966
1616.448491	-3.006700	3.324700	-9.995700	27.056410	0.000619	20.915120
1617.449201	-2.989500	3.325700	-9.941200	27.023431	0.000616	20.917041
1618.448678	-3.020100	3.323600	-10.036000	26.989062	0.000618	20.920884
1619.449128	-3.006800	3.324600	-9.995600	26.943772	0.000617	20.913748
1620.452994	-2.990900	3.324200	-9.939400	26.959207	0.000615	20.909830
1621.450038	-2.976700	3.323300	-9.891900	26.954989	0.000613	20.895632
1622.451778	-2.994500	3.323300	-9.951300	26.955733	0.000612	20.917715
1623.451245	-2.986200	3.323000	-9.922700	26.929104	0.000613	20.907534
1624.452585	-3.013100	3.321300	-10.006000	26.921312	0.000612	20.909181
1625.450871	-3.010500	3.320900	-9.996300	26.848271	0.000610	20.914920
1626.450978	-3.015600	3.320900	-10.013000	26.816899	0.000613	20.917041
1627.454566	-2.991500	3.320300	-9.930600	26.851398	0.000611	20.916642
1628.454193	-3.005500	3.320800	-9.979700	26.865396	0.000609	20.900373
1629.452351	-3.004400	3.320400	-9.974600	26.895799	0.000609	20.908657
1630.452785	-3.005800	3.319600	-9.976900	26.870732	0.000610	20.911901
1631.454137	-2.996400	3.319500	-9.944800	26.859563	0.000611	20.896405
1632.454622	-2.972200	3.319800	-9.865600	26.876192	0.000608	20.905064
1633.456574	-3.006600	3.317900	-9.974000	26.887435	0.000608	20.887447
1634.455776	-3.001400	3.318700	-9.959800	26.887956	0.000606	20.905513
1635.458575	-2.994000	3.318000	-9.933600	26.889669	0.000606	20.896804
1636.456554	-3.000900	3.316800	-9.951500	26.902698	0.000606	20.893311
1637.457385	-2.969500	3.319000	-9.854800	26.934589	0.000604	20.879387
1638.463720	-3.005700	3.315800	-9.964900	26.936599	0.000604	20.896106
1639.456907	-2.986500	3.318200	-9.908400	26.902549	0.000604	20.891739
1640.457475	-3.009600	3.314700	-9.974800	26.923843	0.000605	20.888495
1641.457089	-2.980000	3.315300	-9.878500	26.906321	0.000602	20.894583
1642.456645	-3.025200	3.316300	-10.031000	26.878972	0.000602	20.893161
1643.457795	-2.989000	3.314900	-9.907500	26.820349	0.000602	20.886848
1644.462266	-3.002400	3.315000	-9.952100	26.824196	0.000600	20.905413
1645.458950	-3.012500	3.312900	-9.979200	26.829904	0.000598	20.878913
1646.459920	-2.988800	3.315200	-9.906900	26.820696	0.000600	20.887197
1647.459786	-3.023700	3.313300	-10.017000	26.817792	0.000599	20.892337
1648.459228	-2.990400	3.313000	-9.905800	26.855295	0.000599	20.877889
1649.461421	-3.011500	3.312100	-9.973400	26.861896	0.000598	20.886898
1650.461580	-3.001800	3.311900	-9.939400	26.837226	0.000598	20.883903
1651.466837	-3.035700	3.310400	-10.048000	26.883662	0.000596	20.863740
1652.462670	-3.026800	3.310900	-10.020000	26.909176	0.000594	20.888919
1653.463367	-3.006800	3.310800	-9.953500	26.965362	0.000597	20.890416
1654.464382	-3.028500	3.309900	-10.022000	26.972186	0.000595	20.861245
1655.463098	-3.024500	3.309200	-10.007000	26.969184	0.000596	20.872449
1656.464640	-2.972700	3.309800	-9.837700	26.943548	0.000592	20.894558
1657.465795	-3.009100	3.308400	-9.953900	26.943647	0.000594	20.888020
1658.464065	-3.025900	3.309200	-10.012000	26.936748	0.000592	20.855955
1659.463818	-3.007400	3.307900	-9.947400	26.920269	0.000592	20.859299
1660.467618	-2.995100	3.308800	-9.908400	26.895004	0.000591	20.873248
1661.469898	-2.990500	3.310400	-9.897300	26.925853	0.000591	20.860646
1662.470845	-2.984100	3.307200	-9.868600	26.902648	0.000591	20.857227
1663.466043	-3.000800	3.308400	-9.927000	26.865793	0.000589	20.865213
1664.466038	-3.012900	3.308100	-9.965700	26.889743	0.000591	20.867009
1665.467469	-3.003200	3.306100	-9.928100	26.920021	0.000587	20.879911
1666.466327	-3.004200	3.306300	-9.932000	26.949380	0.000589	20.878613
1667.465377	-2.988100	3.307100	-9.880100	26.996457	0.000587	20.863366
1668.466528	-3.016800	3.307000	-9.974400	27.001867	0.000587	20.856479
1669.466578	-3.005400	3.304500	-9.929800	26.965163	0.000584	20.869829
1670.468308	-3.013300	3.303900	-9.954300	26.923346	0.000583	20.845798
1671.469450	-2.975600	3.304800	-9.833100	26.884432	0.000585	20.889642
1672.469030	-3.004400	3.305000	-9.928900	26.872569	0.000584	20.858276
1673.469953	-3.006800	3.303000	-9.930400	26.875026	0.000583	20.864539
1674.470508	-3.007500	3.304400	-9.936400	26.890512	0.000583	20.839335
1675.469415	-3.002000	3.301800	-9.911300	26.891927	0.000582	20.851663
1676.473661	-2.985000	3.302700	-9.857600	26.916795	0.000583	20.861495
1677.470810	-3.014800	3.302000	-9.954000	26.948610	0.000580	20.854607
1678.471909	-3.010000	3.302300	-9.939600	26.977894	0.000580	20.875045
1679.470006	-2.987400	3.302500	-9.864400	27.017227	0.000580	20.863865
1680.472565	-3.012600	3.300800	-9.943300	27.059934	0.000578	20.869355
1681.472170	-3.020000	3.300600	-9.966100	27.087924	0.000579	20.842978
1682.474655	-2.990500	3.300200	-9.868600	27.072788	0.000578	20.858101
1683.474071	-3.004900	3.299700	-9.914200	27.076113	0.000581	20.848643
1684.474312	-2.975100	3.301900	-9.821900	27.069736	0.000577	20.873048
1685.475218	-2.992000	3.298700	-9.868900	27.053308	0.000576	20.847046
1686.476079	-3.006900	3.298700	-9.917500	27.050455	0.000576	20.863142
1687.476621	-2.988800	3.298800	-9.858600	27.061844	0.000576	20.863691
1688.476389	-3.028000	3.297500	-9.983100	27.090951	0.000575	20.869255
1689.477805	-2.991200	3.297200	-9.862000	27.104475	0.000577	20.853459
1690.475101	-3.014500	3.297000	-9.937600	27.115269	0.000576	20.843453
1691.476273	-2.995200	3.298100	-9.876600	27.111125	0.000573	20.869156
1692.481161	-2.995700	3.296800	-9.874800	27.059859	0.000574	20.839410
1693.478459	-2.983700	3.296300	-9.833300	27.057998	0.000572	20.854133
1694.479866	-3.000600	3.296100	-9.889900	27.079115	0.000572	20.843129
1695.478646	-3.003400	3.294200	-9.892600	27.092539	0.000571	20.852361
1696.478646	-3.017500	3.293900	-9.937900	27.062663	0.000570	20.839859
1697.480178	-3.016500	3.294400	-9.935100	27.080009	0.000571	20.857302
1698.483262	-3.006500	3.293500	-9.901000	27.052266	0.000571	20.819920
1699.480149	-2.992600	3.294400	-9.858100	27.050926	0.000569	20.852711
1700.482090	-2.986600	3.295400	-9.840100	27.023382	0.000569	20.850141
1701.482198	-3.017800	3.292600	-9.934900	26.956602	0.000568	20.844626
1702.482917	-3.002400	3.293500	-9.887400	26.923148	0.000566	20.837539
1703.483060	-3.023000	3.290500	-9.945800	26.906843	0.000567	20.876143
1704.481638	-3.016400	3.291700	-9.928200	26.931437	0.000566	20.844451
1705.481714	-3.007100	3.290300	-9.891700	26.972956	0.000565	20.840683
1706.481568	-3.006400	3.291100	-9.893300	26.956825	0.000562	20.844376
1707.483253	-2.983900	3.291600	-9.820700	26.924861	0.000565	20.836890
1708.482003	-3.007600	3.290600	-9.895600	26.884879	0.000564	20.843628
1709.481879	-3.008000	3.289700	-9.894600	26.858521	0.000563	20.838462
1710.483493	-2.986400	3.290800	-9.826400	26.825958	0.000561	20.837015
1711.484003	-3.000500	3.288700	-9.866200	26.846087	0.000562	20.825960
1712.482913	-3.002500	3.289100	-9.875200	26.854253	0.000562	20.839860
1713.483764	-3.009900	3.288600	-9.897200	26.855345	0.000564	20.829578
1714.484178	-2.965300	3.289900	-9.753800	26.887684	0.000559	20.823215
1715.485326	-3.012100	3.287300	-9.899600	26.898380	0.000559	20.842031
1716.484392	-3.022700	3.287200	-9.935300	26.944119	0.000558	20.836815
1717.491997	-2.971100	3.286300	-9.763000	26.986754	0.000557	20.829903
1718.485758	-2.993800	3.285400	-9.835000	27.047403	0.000558	20.853435
1719.489700	-3.001300	3.286400	-9.862900	27.084525	0.000557	20.843827
1720.487195	-3.006500	3.286200	-9.879400	27.137899	0.000557	20.838238
1721.491240	-3.004900	3.285400	-9.871000	27.130802	0.000557	20.855281
1722.489141	-2.992800	3.285600	-9.832400	27.144697	0.000557	20.828955
1723.488728	-3.004800	3.282600	-9.861800	27.194792	0.000554	20.830028
1724.491921	-2.997100	3.283900	-9.841000	27.220868	0.000555	20.833496
1725.489159	-2.995400	3.283700	-9.833600	27.200747	0.000553	20.832224
1726.490724	-2.989100	3.283700	-9.814100	27.218214	0.000554	20.812809
1727.490730	-2.999200	3.282800	-9.843600	27.240940	0.000553	20.843254
1728.488610	-3.001200	3.281800	-9.848400	27.242578	0.000552	20.828780
1729.490718	-3.000900	3.282800	-9.850100	27.263939	0.000551	20.842680
1730.490282	-2.997700	3.281600	-9.835100	27.237293	0.000552	20.831999
1731.488145	-3.006900	3.281400	-9.866100	27.242181	0.000551	20.823165
1732.488835	-2.994600	3.282100	-9.827900	27.263964	0.000550	20.844127
1733.489928	-3.001300	3.280300	-9.843800	27.256273	0.000546	20.823115
1734.490403	-2.992800	3.279700	-9.814300	27.235482	0.000547	20.846298
1735.490735	-3.000200	3.279400	-9.837800	27.211440	0.000545	20.826858
1736.489736	-2.998300	3.281000	-9.836500	27.211317	0.000548	20.839536
1737.490343	-2.988600	3.280000	-9.801800	27.262029	0.000546	20.846448
1738.490610	-3.018300	3.279300	-9.896600	27.278875	0.000546	20.843953
1739.490215	-2.973500	3.279300	-9.749900	27.212185	0.000545	20.835668
1740.494118	-2.997600	3.278000	-9.824000	27.214989	0.000544	20.850341
1741.491559	-3.016300	3.276800	-9.881900	27.213128	0.000545	20.844202
1742.494552	-3.000200	3.278000	-9.833900	27.218264	0.000542	20.843204
1743.492607	-2.973300	3.278700	-9.747200	27.244216	0.000540	20.835169
1744.493070	-3.040000	3.275000	-9.954300	27.270737	0.000542	20.827233
1745.494655	-3.026900	3.274600	-9.910400	27.274583	0.000541	20.821144
1746.496429	-2.995500	3.275700	-9.811100	27.261012	0.000539	20.814606
1747.492595	-3.017900	3.275000	-9.882700	27.233051	0.000540	20.820620
1748.492478	-2.993300	3.276100	-9.805400	27.170726	0.000540	20.829529
1749.492502	-2.987100	3.275100	-9.782100	27.169981	0.000537	20.840634
1750.492290	-2.993300	3.275500	-9.803600	27.146807	0.000538	20.837240
1751.496663	-2.987700	3.275500	-9.784800	27.135542	0.000535	20.832075
1752.492548	-2.973900	3.275200	-9.738500	27.153680	0.000536	20.819972
1753.496231	-2.999100	3.274000	-9.817900	27.157848	0.000535	20.842656
1754.491974	-2.997400	3.272700	-9.808200	27.197448	0.000537	20.815630
1755.491987	-3.016700	3.270600	-9.865600	27.233151	0.000536	20.823565
1756.496335	-2.987600	3.272100	-9.774600	27.252800	0.000533	20.827209
1757.494532	-3.002800	3.271200	-9.821200	27.228611	0.000532	20.824214
1758.492986	-3.025000	3.270000	-9.890900	27.189657	0.000533	20.843829
1759.494338	-2.998500	3.272000	-9.809800	27.158345	0.000532	20.853586
1760.493957	-3.020200	3.269000	-9.872100	27.156757	0.000531	20.837765
1761.493609	-3.013500	3.270000	-9.853300	27.204321	0.000530	20.818275
1762.496549	-3.016800	3.269000	-9.860700	27.238758	0.000529	20.824938
1763.495684	-3.008500	3.269300	-9.833400	27.235955	0.000527	20.832549
1764.496208	-2.993700	3.268300	-9.784000	27.251362	0.000529	20.804425
1765.500395	-2.987800	3.269300	-9.765800	27.260095	0.000527	20.813210
1766.495614	-2.994800	3.268700	-9.788700	27.269696	0.000525	20.826660
1767.498902	-2.989600	3.267700	-9.767800	27.204644	0.000526	20.814332
1768.499516	-3.003700	3.266700	-9.810700	27.153432	0.000526	20.798386
1769.498065	-3.000900	3.265800	-9.798900	27.162365	0.000525	20.845301
1770.497065	-2.994400	3.266600	-9.779700	27.154202	0.000526	20.837091
1771.498275	-2.979500	3.266600	-9.731800	27.177599	0.000524	20.795192
1772.501962	-2.985400	3.266200	-9.750200	27.173704	0.000524	20.816404
1773.500544	-3.017100	3.265700	-9.851200	27.223004	0.000521	20.825213
1774.497592	-3.001300	3.264900	-9.797700	27.240495	0.000522	20.825263
1775.497751	-3.015900	3.262900	-9.839700	27.259227	0.000521	20.815181
1776.498141	-3.000600	3.264200	-9.793100	27.252577	0.000518	20.826036
1777.498187	-2.971200	3.264200	-9.696700	27.276593	0.000519	20.814158
1778.498903	-2.992700	3.264600	-9.769400	27.295696	0.000518	20.803502
1779.499848	-3.014800	3.261900	-9.833600	27.306240	0.000519	20.824065
1780.500969	-2.988200	3.263000	-9.748900	27.322688	0.000518	20.805997
1781.498629	-3.026600	3.262100	-9.871800	27.298673	0.000516	20.800333
1782.498515	-3.004000	3.262200	-9.796300	27.288973	0.000517	20.803377
1783.499194	-2.990100	3.262700	-9.754800	27.298723	0.000515	20.801805
1784.497231	-3.008000	3.260700	-9.807100	27.293984	0.000514	20.799409
1785.498293	-2.983500	3.262900	-9.732500	27.309738	0.000512	20.809566
1786.497738	-2.997800	3.260300	-9.772800	27.343477	0.000511	20.814108
1787.497737	-3.015800	3.259600	-9.828300	27.308696	0.000513	20.789551
1788.497666	-2.988200	3.259700	-9.739700	27.327178	0.000510	20.832799
1789.500058	-3.004700	3.258100	-9.788800	27.370666	0.000512	20.814906
1790.499494	-2.994100	3.258200	-9.754000	27.393240	0.000510	20.813908
1791.498456	-2.989400	3.260100	-9.744600	27.434046	0.000510	20.828881
1792.499301	-2.962700	3.259400	-9.655500	27.453568	0.000508	20.819598
1793.497936	-2.989000	3.257300	-9.734600	27.412961	0.000507	20.812410
1794.504663	-3.005900	3.256600	-9.788400	27.405569	0.000506	20.799758
1795.499158	-3.002800	3.257100	-9.779300	27.369996	0.000507	20.804749
1796.500283	-2.990200	3.254900	-9.732200	27.354194	0.000507	20.798810
1797.501879	-2.971300	3.258300	-9.680400	27.302121	0.000506	20.794792
1798.501384	-2.991800	3.256500	-9.742300	27.268654	0.000507	20.809965
1799.504941	-3.004000	3.255300	-9.776200	27.250517	0.000504	20.806895
1800.504677	-3.008200	3.256600	-9.795700	27.269051	0.000503	20.800407
1801.504108	-2.990900	3.255500	-9.736000	27.300732	0.000504	20.814257
1802.503513	-2.970700	3.253900	-9.665300	27.348909	0.000501	20.813408
1803.502934	-3.009300	3.252800	-9.787900	27.344146	0.000499	20.791073
1804.503257	-3.009400	3.253700	-9.790300	27.346925	0.000498	20.791972
1805.505901	-3.041500	3.251500	-9.888400	27.370665	0.000501	20.798784
1806.504102	-2.994300	3.253400	-9.741000	27.414846	0.000499	20.798186
1807.506327	-2.991600	3.252400	-9.728800	27.443149	0.000498	20.813383
1808.505125	-2.977900	3.253300	-9.687300	27.433351	0.000498	20.778870
1809.507161	-3.023100	3.251700	-9.828500	27.471403	0.000495	20.808617
1810.507786	-2.991400	3.251500	-9.725600	27.453543	0.000497	20.781640
1811.507808	-2.975500	3.253000	-9.678400	27.419112	0.000493	20.778296
1812.513070	-3.007700	3.248900	-9.770700	27.412663	0.000495	20.791722
1813.510643	-3.004600	3.250300	-9.763900	27.376247	0.000493	20.787804
1814.508325	-3.024400	3.248700	-9.824500	27.388228	0.000493	20.771408
1815.508799	-3.011500	3.249400	-9.784200	27.368110	0.000496	20.806171
1816.511289	-3.004400	3.247700	-9.756700	27.346478	0.000493	20.809066
1817.510224	-3.012100	3.247400	-9.779800	27.388253	0.000493	20.765269
1818.510896	-2.981800	3.247400	-9.681900	27.438510	0.000490	20.784534
1819.511007	-2.994600	3.248100	-9.725000	27.411869	0.000488	20.787604
1820.511307	-3.016000	3.245300	-9.786800	27.365927	0.000489	20.777896
1821.514245	-2.993500	3.245600	-9.714600	27.353672	0.000490	20.795914
1822.511148	-3.022700	3.246100	-9.810200	27.306090	0.000488	20.805896
1823.515008	-3.014400	3.246300	-9.783700	27.329062	0.000487	20.783486
1824.510971	-3.002100	3.246200	-9.743600	27.305619	0.000487	20.785982
1825.511506	-3.009900	3.244900	-9.765900	27.367688	0.000486	20.773504
1826.512317	-3.014700	3.244300	-9.779300	27.424049	0.000484	20.778520
1827.510592	-2.987300	3.243800	-9.689000	27.462845	0.000483	20.784834
1828.510947	-2.993500	3.243500	-9.707200	27.520688	0.000484	20.775226
1829.510899	-2.993000	3.242900	-9.704800	27.524136	0.000481	20.773005
1830.511286	-2.989600	3.243700	-9.696300	27.504045	0.000480	20.796887
1831.511554	-3.004100	3.240800	-9.734800	27.509700	0.000482	20.774128
1832.513454	-2.999400	3.241600	-9.720400	27.484127	0.000482	20.768313
1833.513047	-2.968500	3.244300	-9.629200	27.440520	0.000480	20.789401
1834.512159	-2.997400	3.240500	-9.710900	27.423875	0.000480	20.760327
1835.512989	-2.991000	3.241000	-9.692600	27.388327	0.000476	20.771507
1836.512895	-3.023900	3.240200	-9.796200	27.378182	0.000477	20.790698
1837.516116	-3.004200	3.240000	-9.733000	27.361412	0.000476	20.771932
1838.515274	-3.011600	3.240400	-9.757300	27.339482	0.000476	20.790174
1839.516219	-2.996300	3.240700	-9.707900	27.317303	0.000474	20.778770
1840.515171	-3.015500	3.237200	-9.760200	27.324399	0.000475	20.771208
1841.515659	-2.961500	3.241000	-9.597100	27.367837	0.000476	20.759903
1842.519168	-3.017000	3.237200	-9.764200	27.405990	0.000473	20.744230
1843.521538	-2.999700	3.238300	-9.712300	27.399565	0.000471	20.779967
1844.518413	-2.998500	3.237200	-9.705200	27.402170	0.000472	20.774527
1845.518300	-2.994900	3.237700	-9.695800	27.412514	0.000473	20.754587
1846.516917	-3.012700	3.237400	-9.751800	27.420204	0.000470	20.779868
1847.517651	-2.995600	3.234800	-9.689300	27.398027	0.000470	20.791223
1848.520966	-3.017500	3.235400	-9.761400	27.392718	0.000469	20.759803
1849.518798	-3.018700	3.234500	-9.762600	27.399391	0.000467	20.764145
1850.523305	-2.989600	3.234000	-9.666900	27.461034	0.000468	20.769262
1851.516901	-2.996200	3.235100	-9.691800	27.510271	0.000467	20.767115
1852.518205	-3.003400	3.232800	-9.707400	27.526393	0.000469	20.771008
1853.519557	-3.004000	3.233300	-9.712300	27.525352	0.000467	20.774702
1854.516593	-2.979800	3.235200	-9.639200	27.560126	0.000467	20.752791
1855.522494	-2.990500	3.233800	-9.669800	27.584705	0.000465	20.757607
1856.520386	-3.001900	3.233400	-9.705700	27.579025	0.000464	20.766592
1857.520018	-2.999900	3.231300	-9.691500	27.581282	0.000463	20.772182
1858.525468	-2.983600	3.231800	-9.641300	27.567716	0.000463	20.787455
1859.519681	-3.017100	3.230900	-9.747500	27.581332	0.000464	20.753265
1860.522377	-3.003900	3.230700	-9.703800	27.596387	0.000461	20.764146
1861.520784	-3.022800	3.230000	-9.762600	27.560672	0.000462	20.755237
1862.519773	-2.980800	3.231100	-9.629900	27.525030	0.000460	20.759205
1863.521727	-3.004000	3.228900	-9.697800	27.481449	0.000458	20.774628
1864.524629	-3.021100	3.229400	-9.755500	27.427274	0.000459	20.751893
1865.520374	-3.005100	3.229800	-9.704500	27.378257	0.000457	20.766118
1866.522052	-3.005600	3.227900	-9.701400	27.395696	0.000457	20.751419
1867.521466	-2.982700	3.229000	-9.629800	27.416410	0.000458	20.768938
1868.521912	-3.003600	3.227400	-9.692000	27.465748	0.000455	20.772582
1869.525882	-3.031100	3.225800	-9.776100	27.447120	0.000455	20.781342
1870.521005	-2.993100	3.227800	-9.659800	27.463888	0.000455	20.766917
1871.524427	-3.006800	3.226300	-9.700400	27.477332	0.000455	20.770012
1872.520943	-2.969400	3.227200	-9.581500	27.479366	0.000454	20.781541
1873.520955	-3.024100	3.223100	-9.745900	27.479590	0.000451	20.774654
1874.522620	-2.980000	3.226000	-9.612700	27.513919	0.000450	20.770312
1875.522141	-2.989000	3.224900	-9.638300	27.540111	0.000448	20.776750
1876.522356	-3.010400	3.223100	-9.700500	27.542542	0.000450	20.781567
1877.523913	-3.008700	3.223200	-9.696200	27.540261	0.000450	20.777849
1878.522869	-2.988500	3.223000	-9.630500	27.529868	0.000449	20.777350
1879.524107	-2.999300	3.222800	-9.665400	27.534531	0.000447	20.787257
1880.526369	-2.999600	3.222100	-9.663100	27.529347	0.000446	20.786309
1881.524992	-3.005000	3.221600	-9.679200	27.564295	0.000446	20.760779
1882.525370	-3.004100	3.221700	-9.677600	27.590809	0.000445	20.764698
1883.526615	-3.001100	3.222000	-9.668900	27.604177	0.000444	20.777201
1884.524028	-2.995700	3.220900	-9.648200	27.595199	0.000443	20.775279
1885.529722	-3.002300	3.220000	-9.666600	27.594430	0.000441	20.774031
1886.527270	-3.012400	3.220000	-9.699100	27.602491	0.000441	20.770762
1887.526973	-2.993800	3.219800	-9.638300	27.617223	0.000441	20.776577
1888.525565	-3.001600	3.219800	-9.663700	27.634510	0.000440	20.788755
1889.525128	-2.984200	3.221300	-9.611600	27.658566	0.000440	20.772659
1890.525562	-2.996600	3.218300	-9.642800	27.668238	0.000440	20.767218
1891.528953	-2.997300	3.217000	-9.641200	27.646266	0.000441	20.795369
1892.527438	-2.987500	3.217700	-9.612500	27.650556	0.000437	20.772185
1893.526943	-3.002700	3.217300	-9.658800	27.693212	0.000437	20.779547
1894.527458	-3.018300	3.215900	-9.705700	27.711762	0.000435	20.772135
1895.528075	-2.988400	3.216800	-9.612100	27.744670	0.000435	20.779647
1896.530730	-3.016100	3.215300	-9.695900	27.760591	0.000434	20.779073
1897.528068	-2.995600	3.216000	-9.633300	27.802474	0.000434	20.780919
1898.531756	-3.019000	3.215700	-9.707900	27.835032	0.000433	20.787134
1899.529603	-2.971300	3.214300	-9.548000	27.814228	0.000434	20.784214
1900.529454	-2.987400	3.214900	-9.603700	27.787670	0.000429	20.802057
1901.531537	-2.997400	3.213900	-9.632100	27.766939	0.000432	20.781194
1902.528985	-2.989400	3.216000	-9.613400	27.708836	0.000431	20.773458
1903.529249	-2.995600	3.212500	-9.622300	27.687112	0.000430	20.796642
1904.529571	-3.012900	3.210200	-9.671300	27.701471	0.000429	20.780745
1905.532133	-3.011600	3.211600	-9.671600	27.699685	0.000428	20.793647
1906.528095	-2.992100	3.211500	-9.607700	27.729643	0.000426	20.795345
1907.531226	-2.990600	3.211200	-9.603300	27.729867	0.000426	20.798889
1908.529274	-3.023700	3.210600	-9.705700	27.747895	0.000426	20.802806
1909.530383	-2.992400	3.210300	-9.605000	27.757045	0.000426	20.797790
1910.529815	-2.993600	3.210000	-9.608900	27.746134	0.000423	20.778275
1911.529681	-3.000000	3.209200	-9.626800	27.728998	0.000423	20.796118
1912.533026	-2.995000	3.209800	-9.612200	27.671538	0.000421	20.775281
1913.528352	-3.001000	3.207800	-9.625400	27.631064	0.000422	20.796668
1914.531552	-2.996200	3.208400	-9.612100	27.635156	0.000421	20.813587
1915.530230	-3.007200	3.206000	-9.640400	27.670125	0.000421	20.793773
1916.533749	-2.986100	3.208200	-9.578300	27.722551	0.000419	20.812864
1917.535007	-2.999800	3.206100	-9.616400	27.777281	0.000418	20.793498
1918.532359	-2.985000	3.206600	-9.570400	27.802550	0.000418	20.823669
1919.531946	-3.002200	3.205500	-9.623100	27.753649	0.000416	20.799114
1920.531868	-3.011500	3.205200	-9.650400	27.740530	0.000415	20.798714
1921.531492	-3.005900	3.204400	-9.630700	27.744970	0.000416	20.784690
1922.532202	-2.998600	3.203700	-9.605700	27.713028	0.000415	20.812764
1923.533033	-3.011100	3.203400	-9.644400	27.708218	0.000414	20.795121
1924.533119	-3.006000	3.204000	-9.629900	27.701075	0.000412	20.815434
1925.534530	-3.001100	3.204200	-9.615300	27.666728	0.000416	20.798415
1926.532969	-2.996500	3.202500	-9.595300	27.676176	0.000414	20.812190
1927.533505	-3.004400	3.203800	-9.624700	27.699340	0.000410	20.807998
1928.534698	-2.977000	3.202900	-9.534400	27.728230	0.000409	20.812889
1929.533888	-3.000800	3.200800	-9.603100	27.753947	0.000410	20.811741
1930.536294	-2.981100	3.201200	-9.541600	27.776860	0.000408	20.804929
1931.533743	-2.983800	3.201800	-9.551800	27.800492	0.000409	20.814012
1932.534416	-3.020800	3.201100	-9.669000	27.843019	0.000408	20.815560
1933.539184	-2.999900	3.199600	-9.597400	27.884799	0.000408	20.822048
1934.536900	-3.010000	3.198900	-9.627700	27.874336	0.000404	20.808198
1935.533310	-3.001200	3.199700	-9.601500	27.806097	0.000404	20.820601
1936.533311	-2.998100	3.198100	-9.586500	27.797368	0.000404	20.816558
1937.534278	-3.015900	3.198400	-9.644400	27.794963	0.000404	20.823621
1938.534660	-2.989900	3.197500	-9.558700	27.836895	0.000401	20.823147
1939.536535	-2.981600	3.197500	-9.531900	27.839300	0.000401	20.823197
1940.533158	-3.023500	3.195500	-9.660100	27.855591	0.000400	20.804506
1941.536613	-2.980200	3.198900	-9.532500	27.810561	0.000398	20.817508
1942.536562	-3.002200	3.194800	-9.590300	27.769819	0.000398	20.826766
1943.535937	-2.995300	3.195300	-9.570700	27.713502	0.000398	20.824146
1944.543386	-2.993400	3.195800	-9.564700	27.713130	0.000396	20.810496
1945.536507	-2.990700	3.193900	-9.550700	27.689546	0.000397	20.824221
1946.542319	-3.011600	3.192700	-9.613800	27.703732	0.000394	20.813366
1947.539463	-3.010400	3.194300	-9.614300	27.722306	0.000393	20.831583
1948.538635	-3.013100	3.193000	-9.619200	27.749709	0.000392	20.819805
1949.541380	-3.012100	3.193000	-9.617200	27.779839	0.000392	20.836375
1950.539385	-3.005600	3.192900	-9.595000	27.824598	0.000391	20.829263
1951.538098	-3.027800	3.190700	-9.659000	27.868561	0.000392	20.851223
1952.539492	-3.014400	3.190200	-9.615200	27.881827	0.000391	20.805307
1953.540270	-2.982800	3.191400	-9.518100	27.864297	0.000388	20.849777
1954.541147	-2.989800	3.189300	-9.534100	27.908507	0.000387	20.836900
1955.542395	-2.986800	3.191200	-9.530100	27.886192	0.000386	20.818708
1956.541213	-3.004300	3.190000	-9.582000	27.908656	0.000388	20.829938
1957.542367	-2.994400	3.188800	-9.546500	27.901491	0.000385	20.836002
1958.541614	-2.990900	3.187600	-9.533700	27.909202	0.000386	20.818160
1959.544135	-3.005100	3.187900	-9.578900	27.939005	0.000385	20.846259
1960.546351	-3.012400	3.186400	-9.597900	27.939104	0.000383	20.838299
1961.543741	-2.993900	3.189200	-9.546600	27.910393	0.000383	20.828841
1962.543579	-2.999500	3.186300	-9.555600	27.899036	0.000381	20.813144
1963.543955	-3.004000	3.188100	-9.575200	27.905781	0.000381	20.846958
1964.544219	-3.018600	3.185000	-9.612800	27.971559	0.000379	20.843939
1965.546594	-3.004600	3.184500	-9.566100	27.994096	0.000380	20.850502
1966.547856	-2.995500	3.186000	-9.542000	27.988369	0.000378	20.852324
1967.544841	-3.015100	3.183700	-9.597800	28.024789	0.000376	20.831137
1968.546495	-3.026700	3.184000	-9.635800	28.046730	0.000375	20.840895
1969.547852	-2.972500	3.184500	-9.464500	28.034409	0.000377	20.853147
1970.547417	-2.960500	3.185000	-9.428500	27.989708	0.000375	20.841818
1971.549619	-2.974200	3.183600	-9.467400	27.923758	0.000372	20.834706
1972.546302	-2.966900	3.183300	-9.443200	27.887161	0.000373	20.848606
1973.549051	-3.001900	3.182100	-9.550100	27.944783	0.000372	20.853023
1974.547278	-2.990700	3.182000	-9.515800	27.992113	0.000372	20.842342
1975.547881	-3.010300	3.181800	-9.576800	27.969750	0.000371	20.836902
1976.549549	-2.992600	3.180400	-9.516400	27.985915	0.000370	20.853172
1977.548277	-2.976100	3.180500	-9.464200	27.960899	0.000370	20.852649
1978.548201	-2.996700	3.180000	-9.528400	27.983659	0.000367	20.853746
1979.548537	-2.987000	3.178900	-9.494500	28.004906	0.000368	20.852848
1980.548647	-2.946600	3.179700	-9.367900	28.037086	0.000366	20.853472
1981.549671	-3.000100	3.180200	-9.541100	28.042044	0.000365	20.848980
1982.551811	-2.973700	3.179700	-9.453500	28.034954	0.000365	20.845636
1983.549351	-2.988400	3.177600	-9.494500	28.015492	0.000364	20.847383
1984.549656	-2.999000	3.177000	-9.526400	27.993700	0.000364	20.849629
1985.548345	-2.984400	3.177400	-9.480600	27.954552	0.000361	20.846734
1986.549999	-3.021500	3.175200	-9.592600	27.971213	0.000362	20.866822
1987.551651	-3.008500	3.176900	-9.555100	27.943692	0.000360	20.874208
1988.552508	-2.982800	3.174900	-9.469200	27.918054	0.000361	20.858837
1989.553959	-2.987800	3.175400	-9.486700	27.903029	0.000359	20.885437
1990.558406	-2.998700	3.174100	-9.517600	27.927774	0.000358	20.852024
1991.552200	-2.989600	3.173900	-9.487200	27.899261	0.000360	20.853197
1992.556214	-2.976400	3.173000	-9.443300	27.928022	0.000356	20.855118
1993.553083	-2.988300	3.173200	-9.480600	27.955221	0.000357	20.864476
1994.555686	-2.994200	3.171300	-9.494800	27.971039	0.000356	20.866173
1995.555579	-2.992000	3.171200	-9.487700	28.025657	0.000354	20.873260
1996.555144	-2.976300	3.172600	-9.442200	28.026128	0.000354	20.860459
1997.555479	-3.011000	3.168200	-9.539000	28.027789	0.000355	20.882518
1998.555121	-2.996200	3.169400	-9.494700	28.034036	0.000352	20.876479
1999.554529	-3.009500	3.168500	-9.533700	28.063836	0.000352	20.871863
2000.556458	-3.002200	3.170600	-9.515900	28.122960	0.000350	20.878750
2001.556593	-3.001000	3.167700	-9.505400	28.144379	0.000349	20.865699
2002.557003	-2.975100	3.168900	-9.427000	28.118647	0.000348	20.857814
2003.560911	-2.996500	3.167200	-9.489600	28.122985	0.000349	20.867396
2004.556707	-2.994300	3.168500	-9.487000	28.171076	0.000346	20.859860
2005.559042	-3.022100	3.165100	-9.564000	28.220007	0.000349	20.879249
2006.557228	-2.992400	3.167400	-9.477400	28.196534	0.000344	20.877902
2007.558098	-3.000300	3.164700	-9.493500	28.166937	0.000345	20.878451
2008.557661	-3.003700	3.165900	-9.508100	28.168944	0.000344	20.874308
2009.564423	-3.009200	3.163100	-9.517800	28.179851	0.000344	20.884814
2010.560393	-3.003400	3.163800	-9.501200	28.204788	0.000343	20.877677
2011.558145	-3.001600	3.164400	-9.497300	28.151295	0.000343	20.858438
2012.562523	-2.978800	3.164600	-9.425400	28.122812	0.000343	20.884764
2013.560889	-3.009200	3.161800	-9.513800	28.088007	0.000342	20.886711
2014.560874	-3.014900	3.160200	-9.527000	28.087933	0.000340	20.868145
2015.560659	-3.004200	3.160500	-9.493300	28.063043	0.000337	20.902356
2016.561015	-2.991300	3.160600	-9.453500	28.059126	0.000336	20.875656
2017.561479	-3.006400	3.159900	-9.499000	28.052383	0.000337	20.867921
2018.561002	-3.011500	3.159000	-9.512900	28.090462	0.000337	20.889655
2019.562165	-2.998800	3.158900	-9.472100	28.101022	0.000336	20.889381
2020.561357	-2.987000	3.158600	-9.434100	28.162351	0.000336	20.897067
2021.564003	-2.984300	3.158400	-9.424300	28.203029	0.000332	20.876380
2022.561541	-2.985200	3.157700	-9.425400	28.207044	0.000332	20.879000
2023.561588	-3.004100	3.155800	-9.479700	28.195097	0.000333	20.895894
2024.570346	-2.995900	3.153900	-9.447300	28.169813	0.000332	20.897940
2025.562317	-3.017400	3.156100	-9.522700	28.114458	0.000331	20.874933
2026.563901	-3.024600	3.155600	-9.544100	28.122788	0.000331	20.901808
2027.562433	-2.991600	3.154700	-9.437100	28.126680	0.000329	20.883916
2028.561974	-3.019700	3.154900	-9.525100	28.186074	0.000329	20.876854
2029.562886	-2.978100	3.154200	-9.392400	28.174895	0.000328	20.899263
2030.565947	-3.013600	3.151700	-9.497000	28.270202	0.000325	20.906075
2031.564867	-2.982000	3.151400	-9.395500	28.282223	0.000327	20.896842
2032.563115	-2.990900	3.151400	-9.424600	28.304505	0.000326	20.913586
2033.564731	-2.989200	3.151000	-9.417400	28.299623	0.000325	20.897766
2034.564191	-2.994200	3.150200	-9.431500	28.318336	0.000324	20.914709
2035.568825	-3.012500	3.149800	-9.488000	28.345574	0.000324	20.902307
2036.565672	-3.027600	3.149300	-9.533400	28.318633	0.000322	20.896518
2037.569046	-3.007100	3.150000	-9.471600	28.256619	0.000319	20.905676
2038.565971	-2.997300	3.148500	-9.436200	28.217605	0.000322	20.900062
2039.567723	-3.027100	3.147100	-9.526400	28.181737	0.000319	20.908995
2040.572549	-3.024000	3.146400	-9.513600	28.163864	0.000319	20.900012
2041.565214	-3.002100	3.145600	-9.441900	28.186001	0.000318	20.911391
2042.566523	-3.013800	3.145800	-9.479600	28.167162	0.000317	20.920399
2043.567723	-3.014400	3.144600	-9.477200	28.174673	0.000319	20.918952
2044.568085	-3.001900	3.144700	-9.439500	28.181837	0.000318	20.904829
2045.569197	-2.953900	3.146500	-9.292700	28.156255	0.000318	20.929332
2046.572720	-3.016400	3.144400	-9.482600	28.138407	0.000316	20.914211
2047.568512	-2.986900	3.142600	-9.386200	28.128392	0.000313	20.924517
2048.569134	-3.005800	3.141600	-9.441700	28.173681	0.000315	20.924117
2049.570719	-2.993700	3.142100	-9.405400	28.186175	0.000313	20.915359
2050.569980	-2.995200	3.141800	-9.409000	28.247375	0.000311	20.930031
2051.572623	-2.994000	3.141800	-9.405200	28.256274	0.000311	20.925715
2052.570142	-3.002400	3.141700	-9.431400	28.241228	0.000310	20.904405
2053.573348	-3.013500	3.141500	-9.466400	28.285497	0.000309	20.918154
2054.572051	-2.993700	3.140600	-9.401000	28.319824	0.000311	20.941809
2055.573448	-2.985300	3.139000	-9.370000	28.395961	0.000310	20.914636
2056.575099	-2.999500	3.138600	-9.413200	28.445923	0.000308	20.927013
2057.576704	-3.012600	3.137300	-9.448100	28.484483	0.000306	20.907050
2058.574519	-2.997000	3.136600	-9.399600	28.506291	0.000307	20.927113
2059.573736	-2.987000	3.136500	-9.367200	28.522869	0.000306	20.918204
2060.573979	-3.005200	3.134300	-9.417800	28.499674	0.000304	20.932777
2061.574960	-2.997300	3.135800	-9.397200	28.442751	0.000304	20.930456
2062.580149	-3.016200	3.134100	-9.452400	28.367535	0.000303	20.915884
2063.574605	-3.023500	3.133500	-9.473200	28.345849	0.000302	20.918230
2064.575886	-3.019000	3.132900	-9.456200	28.404958	0.000302	20.938865
2065.575624	-2.978700	3.132100	-9.328900	28.404685	0.000300	20.934324
2066.576010	-3.006100	3.132200	-9.414400	28.390807	0.000300	20.924143
2067.579897	-2.982000	3.132200	-9.337600	28.424066	0.000299	20.934873
2068.576251	-2.994800	3.130800	-9.374600	28.416978	0.000300	20.929159
2069.579683	-3.018800	3.129400	-9.446400	28.396086	0.000300	20.929458
2070.578639	-3.019400	3.128500	-9.445100	28.415267	0.000299	20.935971
2071.578622	-3.017600	3.129000	-9.440400	28.370038	0.000297	20.942109
2072.579921	-2.996300	3.128500	-9.372800	28.335811	0.000296	20.919028
2073.583441	-3.011500	3.126900	-9.413700	28.363917	0.000295	20.947798
2074.579568	-3.025500	3.127000	-9.459300	28.385429	0.000295	20.948597
2075.579595	-3.002800	3.126100	-9.386100	28.439852	0.000294	20.964990
2076.578691	-3.012400	3.124100	-9.409400	28.403942	0.000294	20.945428
2077.580105	-2.980600	3.125000	-9.313500	28.372170	0.000294	20.941411
2078.581531	-2.984000	3.125000	-9.324200	28.419505	0.000290	20.935497
2079.584854	-2.994800	3.123000	-9.351400	28.401712	0.000289	20.936071
2080.581005	-2.990000	3.122700	-9.335200	28.419779	0.000291	20.931031
2081.580310	-2.985100	3.123300	-9.322500	28.432120	0.000291	20.917855
2082.580333	-2.967400	3.124400	-9.269900	28.412022	0.000289	20.934125
2083.584075	-3.014000	3.120300	-9.403600	28.412814	0.000288	20.937294
2084.584921	-3.013800	3.120400	-9.403000	28.436879	0.000287	20.940663
2085.582186	-3.012100	3.120200	-9.397500	28.457051	0.000287	20.926838
2086.581047	-2.999000	3.120300	-9.356300	28.496528	0.000286	20.941461
2087.581966	-2.997600	3.118600	-9.347400	28.513676	0.000286	20.940712
2088.582234	-3.021000	3.118500	-9.419300	28.526810	0.000283	20.947300
2089.584898	-2.999900	3.117700	-9.350700	28.497346	0.000284	20.936122
2090.584137	-3.004300	3.116200	-9.360200	28.499353	0.000282	20.934350
2091.585340	-3.031900	3.115100	-9.443400	28.518236	0.000281	20.933451
2092.585709	-2.983400	3.117000	-9.298500	28.559990	0.000280	20.932354
2093.584746	-3.001700	3.115300	-9.349700	28.582961	0.000280	20.926091
2094.593334	-2.995100	3.114000	-9.326100	28.626471	0.000280	20.932454
2095.583872	-2.979000	3.113700	-9.273700	28.634103	0.000278	20.919753
2096.588958	-3.017400	3.112600	-9.390800	28.574090	0.000278	20.923321
2097.586539	-2.980600	3.113800	-9.279900	28.574387	0.000278	20.904183
2098.584405	-2.981600	3.111400	-9.276300	28.516304	0.000277	20.925342
2099.585643	-3.036000	3.109700	-9.440200	28.493555	0.000276	20.918081
2100.588395	-3.028000	3.108200	-9.410000	28.530255	0.000273	20.909996
2101.586507	-2.991300	3.109000	-9.299000	28.527851	0.000275	20.927963
2102.587474	-3.023800	3.108500	-9.398100	28.555209	0.000273	20.911419
2103.586190	-3.008500	3.108600	-9.351000	28.553128	0.000274	20.914065
2104.591232	-3.007300	3.107400	-9.343700	28.519848	0.000274	20.890509
2105.589361	-2.966900	3.106400	-9.214500	28.475986	0.000272	20.912243
2106.588622	-2.983300	3.106700	-9.266500	28.444736	0.000271	20.910172
2107.589165	-2.973700	3.106100	-9.235400	28.435691	0.000268	20.890634
2108.588801	-3.004300	3.103200	-9.322200	28.460895	0.000269	20.916012
2109.589493	-3.009100	3.104300	-9.339100	28.503741	0.000270	20.900366
2110.590402	-2.988600	3.101600	-9.268500	28.541184	0.000269	20.900616
2111.589682	-2.999000	3.102500	-9.303000	28.571316	0.000268	20.906779
2112.590785	-3.011500	3.101600	-9.339200	28.592156	0.000268	20.900741
2113.590112	-3.014300	3.100600	-9.345000	28.618024	0.000267	20.872269
2114.592402	-3.007300	3.099800	-9.321900	28.563462	0.000267	20.901715
2115.592878	-3.005300	3.099500	-9.313800	28.508724	0.000266	20.894953
2116.595699	-2.981300	3.099800	-9.240500	28.493954	0.000266	20.909475
2117.594687	-2.980900	3.099500	-9.238100	28.506568	0.000266	20.899420
2118.594069	-2.989800	3.097100	-9.258600	28.508079	0.000264	20.892882
2119.594583	-2.996600	3.096500	-9.277400	28.464763	0.000266	20.900942
2120.596314	-2.996500	3.095900	-9.275800	28.438767	0.000262	20.885197
2121.600748	-3.015800	3.094700	-9.332000	28.462408	0.000261	20.891934
2122.597476	-3.009300	3.094800	-9.312100	28.477426	0.000260	20.907530
2123.599369	-3.012100	3.092700	-9.314100	28.539155	0.000261	20.890986
2124.597241	-2.988900	3.093300	-9.244500	28.538536	0.000259	20.910749
2125.601573	-3.000200	3.092800	-9.278200	28.528748	0.000259	20.900419
2126.600358	-2.981500	3.091800	-9.216900	28.485679	0.000259	20.917262
2127.602126	-3.016500	3.090100	-9.319200	28.494600	0.000257	20.904437
2128.598320	-3.006800	3.089900	-9.290000	28.444814	0.000258	20.912621
2129.599317	-2.978500	3.090200	-9.203500	28.432919	0.000255	20.893532
2130.601811	-3.004300	3.089400	-9.280400	28.442956	0.000257	20.892260
2131.599554	-3.010200	3.087500	-9.292900	28.453637	0.000256	20.885946
2132.603711	-2.978100	3.087200	-9.191400	28.492098	0.000254	20.882952
2133.600394	-2.967400	3.086300	-9.157400	28.522529	0.000254	20.895105
2134.605071	-2.993400	3.086000	-9.237000	28.562994	0.000253	20.891286
2135.602402	-2.995900	3.085000	-9.241300	28.608587	0.000253	20.909228
2136.602504	-3.011700	3.082500	-9.281600	28.659084	0.000253	20.891811
2137.606754	-3.009500	3.082400	-9.275300	28.677295	0.000252	20.876015
2138.604126	-3.028800	3.081700	-9.333000	28.712502	0.000253	20.873070
2139.602750	-3.016200	3.082300	-9.295900	28.704077	0.000253	20.899196
2140.604547	-3.016300	3.080100	-9.289500	28.677542	0.000253	20.908030
2141.605659	-2.972400	3.079300	-9.150900	28.660149	0.000250	20.879134
2142.608005	-2.989900	3.079000	-9.205000	28.631234	0.000250	20.883202
2143.605755	-2.987700	3.078500	-9.196800	28.623652	0.000249	20.880781
2144.607890	-2.994500	3.077800	-9.215800	28.610470	0.000248	20.902591
2145.607069	-2.986700	3.077000	-9.188800	28.595925	0.000249	20.884624
2146.605126	-2.998200	3.075300	-9.217800	28.585344	0.000249	20.886770
2147.606285	-3.041300	3.073600	-9.345600	28.515094	0.000248	20.884299
2148.609740	-2.992100	3.073800	-9.195400	28.477948	0.000248	20.886246
2149.606039	-3.014700	3.072600	-9.260700	28.489917	0.000248	20.884075
2150.607657	-2.999900	3.070900	-9.211200	28.498639	0.000247	20.877212
2151.608586	-2.997000	3.072000	-9.206300	28.580190	0.000247	20.901018
2152.610120	-3.001300	3.070200	-9.213800	28.606307	0.000247	20.884175
2153.611109	-2.991600	3.070400	-9.184100	28.675361	0.000244	20.876438
2154.609984	-2.952100	3.070500	-9.063300	28.732792	0.000244	20.873119
2155.615145	-3.048800	3.065500	-9.344400	28.759970	0.000241	20.876313
2156.613854	-3.010400	3.067100	-9.232500	28.802557	0.000243	20.875589
2157.613448	-3.008900	3.065500	-9.223000	28.802259	0.000242	20.875764
2158.613943	-2.974400	3.065100	-9.115600	28.804167	0.000241	20.861091
2159.613183	-3.004700	3.063200	-9.203000	28.788089	0.000241	20.907480
2160.613517	-3.018300	3.063100	-9.244100	28.788262	0.000239	20.862139
2161.614487	-3.009300	3.062300	-9.214200	28.786503	0.000239	20.864161
2162.613382	-3.010600	3.060300	-9.212700	28.787965	0.000241	20.870848
2163.615458	-3.000000	3.061200	-9.182500	28.798766	0.000239	20.871771
2164.616203	-2.982500	3.059200	-9.122600	28.737424	0.000240	20.883000
2165.617501	-2.998600	3.058800	-9.171000	28.721815	0.000239	20.851633
2166.616335	-3.036200	3.057700	-9.283100	28.683561	0.000238	20.861939
2167.617198	-3.009500	3.056800	-9.198400	28.653358	0.000239	20.880355
2168.619879	-3.022800	3.054900	-9.233300	28.695503	0.000240	20.868277
2169.616576	-3.017900	3.054700	-9.217900	28.762397	0.000238	20.859319
2170.620214	-3.018200	3.052700	-9.212300	28.731155	0.000237	20.883823
2171.617861	-2.999500	3.053300	-9.156300	28.750083	0.000237	20.867777
2172.617574	-3.010700	3.051200	-9.185000	28.713267	0.000238	20.850135
2173.622046	-2.999400	3.051800	-9.152200	28.692059	0.000238	20.853429
2174.620184	-3.023300	3.050100	-9.220700	28.660964	0.000238	20.873317
2175.618962	-2.996800	3.049600	-9.137400	28.646221	0.000235	20.847090
2176.618483	-3.029500	3.046700	-9.227800	28.674888	0.000234	20.874539
2177.618456	-3.002200	3.047200	-9.146200	28.675210	0.000235	20.865856
2178.616678	-2.998000	3.045500	-9.129600	28.643595	0.000236	20.868626
2179.622340	-3.003900	3.045000	-9.145600	28.577858	0.000234	20.853154
2180.619658	-2.989100	3.045400	-9.102000	28.601869	0.000234	20.852680
2181.622182	-2.990300	3.043700	-9.101000	28.628158	0.000235	20.873941
2182.619728	-3.012800	3.041600	-9.163300	28.638094	0.000234	20.862611
2183.619626	-3.006500	3.040800	-9.141000	28.695329	0.000235	20.880903
2184.620105	-3.041200	3.038900	-9.240700	28.682098	0.000233	20.880379
2185.619027	-3.017500	3.038300	-9.167100	28.692851	0.000234	20.851382
2186.619702	-2.980900	3.037400	-9.053100	28.726224	0.000233	20.840901
2187.621913	-2.999700	3.035900	-9.105700	28.679051	0.000232	20.859767
2188.619711	-2.975700	3.036700	-9.034900	28.732641	0.000232	20.865856
2189.621631	-2.984200	3.036000	-9.058500	28.738240	0.000232	20.853952
2190.623997	-3.020800	3.033500	-9.162500	28.765269	0.000230	20.850359
2191.623400	-3.010100	3.032900	-9.128800	28.789474	0.000233	20.867153
2192.622342	-2.994700	3.032500	-9.080500	28.799730	0.000231	20.848562
2193.623142	-2.998800	3.030600	-9.085200	28.780580	0.000231	20.852979
2194.622358	-3.004600	3.028900	-9.099500	28.735762	0.000229	20.834387
2195.626750	-2.997700	3.027500	-9.073600	28.735440	0.000230	20.853028
2196.624083	-2.986000	3.028600	-9.042500	28.739256	0.000229	20.866354
2197.624681	-3.002900	3.025700	-9.083900	28.793734	0.000228	20.864333
2198.623119	-2.969200	3.026200	-8.983300	28.830250	0.000228	20.865081
2199.623849	-2.992700	3.025700	-9.053700	28.869416	0.000227	20.864233
2200.626926	-3.023800	3.023700	-9.141700	28.820391	0.000230	20.846615
2201.626017	-3.003600	3.021600	-9.074700	28.763559	0.000227	20.838205
2202.623338	-3.005300	3.021400	-9.079300	28.731971	0.000227	20.850483
2203.623785	-2.987400	3.019100	-9.018300	28.705163	0.000226	20.850507
2204.623189	-3.000300	3.019200	-9.057700	28.727313	0.000228	20.857645
2205.623783	-2.999600	3.016800	-9.048000	28.793189	0.000225	20.842448
2206.624195	-3.015700	3.016400	-9.095300	28.823066	0.000226	20.845517
2207.624176	-3.016100	3.014300	-9.090100	28.816229	0.000225	20.832940
2208.627028	-2.996000	3.013300	-9.027200	28.797772	0.000226	20.853228
2209.626380	-2.971100	3.013800	-8.952700	28.767622	0.000223	20.851780
2210.627600	-2.999200	3.011100	-9.029500	28.765120	0.000224	20.846415
2211.629053	-2.989800	3.010800	-9.000900	28.729518	0.000222	20.857969
2212.628591	-3.017300	3.009300	-9.079300	28.696938	0.000224	20.860240
2213.629412	-2.987900	3.008000	-8.986500	28.668420	0.000225	20.846216
2214.628128	-3.001900	3.006100	-9.023200	28.699267	0.000225	20.838879
2215.627811	-2.998300	3.004200	-9.006400	28.750057	0.000223	20.861113
2216.628004	-3.014800	3.003100	-9.052800	28.788433	0.000223	20.853303
2217.631620	-2.987900	3.003900	-8.974100	28.877144	0.000222	20.861587
2218.627390	-3.010000	3.002800	-9.038000	28.931493	0.000222	20.830045
2219.627093	-2.995700	3.001200	-8.990300	28.994532	0.000224	20.865106
2220.627538	-3.009300	2.998000	-9.020900	29.041816	0.000221	20.861538
2221.628242	-3.031100	2.998300	-9.086700	29.058856	0.000222	20.851681
2222.631453	-3.011500	2.996300	-9.022700	29.095388	0.000223	20.869049
2223.627821	-2.986600	2.995900	-8.945700	29.140909	0.000224	20.823882
2224.628590	-3.003900	2.993400	-8.990700	29.111437	0.000223	20.824530
2225.628253	-3.019300	2.993100	-9.036300	29.127510	0.000222	20.844044
2226.627680	-2.997700	2.992400	-8.969800	29.125256	0.000222	20.844618
2227.629640	-3.006000	2.989900	-8.986600	29.142443	0.000219	20.837756
2228.627050	-2.996200	2.989400	-8.955100	29.165154	0.000220	20.838829
2229.629131	-3.016400	2.985700	-9.004100	29.172632	0.000222	20.826926
2230.628196	-2.991800	2.987000	-8.935700	29.157476	0.000220	20.826352
2231.628660	-2.986100	2.985200	-8.912700	29.092960	0.000220	20.818241
2232.629889	-2.980300	2.985500	-8.896200	29.025320	0.000222	20.867202
2233.634638	-2.990100	2.983100	-8.918600	28.965774	0.000221	20.858418
2234.629610	-3.020400	2.980000	-8.999300	28.978580	0.000219	20.842397
2235.632706	-3.006800	2.979300	-8.957000	29.007511	0.000220	20.821286
2236.630110	-3.014900	2.978100	-8.977400	28.998644	0.000221	20.827525
2237.629660	-2.973200	2.978600	-8.854500	29.014892	0.000220	20.819713
2238.631570	-3.020700	2.975400	-8.987000	29.006421	0.000221	20.824455
2239.630663	-2.993800	2.975100	-8.905900	29.016527	0.000221	20.839378
2240.631314	-3.008100	2.971600	-8.937000	28.993466	0.000220	20.827998
2241.633402	-2.990000	2.971800	-8.884800	28.945958	0.000219	20.830868
2242.633437	-3.000600	2.970500	-8.911600	28.904863	0.000221	20.836408
2243.634117	-2.974100	2.970000	-8.831700	28.863619	0.000220	20.816669
2244.637478	-3.004200	2.968000	-8.915200	28.793882	0.000218	20.839353
2245.634318	-3.004300	2.965900	-8.909100	28.767745	0.000219	20.824879
2246.635442	-3.007500	2.963600	-8.912000	28.783749	0.000219	20.811128
2247.636467	-3.004700	2.963000	-8.902300	28.777085	0.000218	20.831441
2248.639337	-3.014000	2.961600	-8.924600	28.785434	0.000217	20.818041
2249.638027	-3.030300	2.958500	-8.964100	28.847615	0.000218	20.851755
2250.637337	-3.013800	2.958500	-8.914900	28.862528	0.000219	20.829794
2251.641200	-3.026900	2.954500	-8.942100	28.848902	0.000218	20.809904
2252.637194	-3.002800	2.954300	-8.870100	28.904070	0.000219	20.829918
2253.638111	-3.035800	2.953100	-8.963600	28.934439	0.000216	20.833487
2254.642563	-2.971100	2.953200	-8.772900	28.944495	0.000219	20.840300
2255.640553	-2.971300	2.950600	-8.765100	28.943182	0.000214	20.847037
2256.641127	-2.986700	2.949400	-8.808900	28.984722	0.000216	20.822981
2257.641797	-3.026800	2.946600	-8.917400	29.012562	0.000215	20.820210
2258.640467	-2.996100	2.946200	-8.826100	29.078618	0.000216	20.817066
2259.641751	-2.996100	2.944200	-8.820000	29.125477	0.000215	20.818289
2260.642443	-3.024600	2.941500	-8.895200	29.142392	0.000217	20.792186
2261.641469	-2.994000	2.942100	-8.807100	29.209826	0.000216	20.814620
2262.647767	-2.994400	2.940500	-8.802900	29.241103	0.000217	20.811051
2263.642444	-2.990200	2.938300	-8.785500	29.262523	0.000217	20.829792
2264.642998	-3.007500	2.936500	-8.830700	29.269011	0.000216	20.836331
2265.646310	-3.029100	2.934100	-8.886600	29.252717	0.000215	20.818014
2266.644064	-3.009600	2.933400	-8.827200	29.222381	0.000215	20.804987
2267.645811	-3.014700	2.931300	-8.836200	29.205046	0.000216	20.816915
2268.643423	-2.988100	2.929700	-8.753200	29.218890	0.000215	20.810477
2269.643058	-3.000500	2.928100	-8.784000	29.290777	0.000217	20.810851
2270.643659	-3.019200	2.925900	-8.832200	29.277479	0.000215	20.798873
2271.648256	-2.993100	2.925400	-8.754500	29.226566	0.000215	20.817265
2272.645557	-2.947700	2.923900	-8.616500	29.196082	0.000214	20.829218
2273.644571	-3.006600	2.921700	-8.783300	29.174115	0.000215	20.815143
2274.645551	-3.019000	2.919600	-8.813300	29.207720	0.000216	20.815343
2275.644647	-2.980700	2.919100	-8.699600	29.181272	0.000216	20.820458
2276.648795	-2.992800	2.918100	-8.732300	29.130354	0.000215	20.811824
2277.644984	-3.004600	2.913800	-8.752900	29.107866	0.000213	20.807182
2278.645971	-2.996600	2.911900	-8.724400	29.045279	0.000211	20.802915
2279.646821	-3.008200	2.912000	-8.758500	29.005179	0.000215	20.813246
2280.644228	-3.010700	2.909100	-8.757500	28.975010	0.000214	20.807980
2281.645590	-2.979900	2.908800	-8.667000	29.033885	0.000213	20.796177
2282.650083	-2.999800	2.906200	-8.717400	29.040499	0.000216	20.795253
2283.650089	-2.989800	2.905700	-8.686600	29.111952	0.000214	20.803239
2284.647429	-3.006000	2.903400	-8.726100	29.113314	0.000214	20.809827
2285.648084	-3.003600	2.902900	-8.717200	29.121636	0.000213	20.801142
2286.647121	-3.009600	2.898500	-8.722700	29.138377	0.000213	20.802839
2287.648573	-2.989100	2.897900	-8.660400	29.179439	0.000211	20.812922
2288.646161	-3.016300	2.895000	-8.731000	29.256800	0.000215	20.786568
2289.649127	-3.005100	2.892700	-8.692400	29.280325	0.000212	20.804586
2290.647142	-3.007400	2.891900	-8.695900	29.331905	0.000211	20.785445
2291.647881	-3.009000	2.890500	-8.696200	29.338714	0.000212	20.800843
2292.653710	-2.982900	2.888500	-8.614800	29.292335	0.000212	20.786818
2293.648911	-2.992300	2.887100	-8.638100	29.211558	0.000214	20.807831
2294.650407	-3.014800	2.883500	-8.691300	29.158016	0.000213	20.800344
2295.647166	-2.975800	2.882800	-8.578000	29.126712	0.000213	20.810999
2296.649352	-2.989800	2.880000	-8.608800	29.130898	0.000211	20.803838
2297.652269	-3.019200	2.878900	-8.690800	29.115939	0.000214	20.796825
2298.651981	-3.003700	2.876500	-8.639100	29.102441	0.000211	20.800294
2299.648476	-3.017700	2.873600	-8.669700	29.160146	0.000214	20.775937
2300.649143	-2.986600	2.874100	-8.582900	29.149720	0.000212	20.809053
2301.649701	-2.998400	2.871100	-8.608400	29.203658	0.000211	20.800818
2302.649805	-3.018800	2.868000	-8.655800	29.235405	0.000213	20.804361
2303.653226	-3.006100	2.866800	-8.616800	29.310931	0.000211	20.777584
2304.650656	-2.992300	2.865600	-8.572500	29.350623	0.000212	20.791035
2305.653741	-3.027300	2.860900	-8.660200	29.388358	0.000212	20.798247
2306.651634	-2.982100	2.861300	-8.531300	29.452732	0.000212	20.791534
2307.650288	-3.014500	2.859200	-8.617800	29.429062	0.000210	20.811298
2308.656140	-3.011400	2.856000	-8.599200	29.433148	0.000210	20.790760
2309.650813	-2.970300	2.857400	-8.485400	29.434114	0.000211	20.795527
2310.650247	-2.986400	2.851500	-8.514300	29.451618	0.000210	20.780927
2311.651402	-2.966900	2.852000	-8.459500	29.444413	0.000211	20.792158
2312.650362	-2.980600	2.849000	-8.490600	29.462388	0.000212	20.793206
2313.651476	-3.017700	2.845700	-8.586800	29.456223	0.000213	20.784147
2314.654437	-2.987200	2.844800	-8.496300	29.460754	0.000211	20.786343
2315.650874	-3.004200	2.842000	-8.536600	29.461818	0.000211	20.795002
2316.650818	-3.034100	2.839800	-8.615100	29.444957	0.000212	20.786068
2317.651423	-2.979700	2.839100	-8.458700	29.449587	0.000213	20.788838
2318.654988	-2.979000	2.837600	-8.451900	29.423763	0.000213	20.790310
2319.654574	-2.996300	2.834900	-8.492500	29.368822	0.000210	20.794203
2320.656210	-3.004500	2.831400	-8.505500	29.359313	0.000210	20.789362
2321.653499	-3.000300	2.827900	-8.483000	29.360774	0.000211	20.799843
2322.652350	-2.991200	2.826100	-8.452500	29.408982	0.000212	20.798645
2323.653144	-2.983800	2.823900	-8.423600	29.397444	0.000211	20.772317
2324.653179	-2.986500	2.822600	-8.428100	29.380335	0.000211	20.774987
2325.652523	-2.995800	2.821000	-8.449700	29.337944	0.000210	20.794378
2326.652595	-3.009800	2.817500	-8.479500	29.368326	0.000210	20.770470
2327.651728	-3.008300	2.815600	-8.468900	29.380384	0.000211	20.778356
2328.653777	-2.994200	2.812900	-8.422000	29.331209	0.000211	20.779054
2329.656771	-2.998500	2.810100	-8.425000	29.337300	0.000211	20.783297
2330.652541	-3.001200	2.808700	-8.427900	29.370257	0.000211	20.799917
2331.658314	-2.974900	2.806700	-8.348400	29.386029	0.000211	20.777407
2332.654696	-3.005900	2.804100	-8.427500	29.370380	0.000212	20.786291
2333.654289	-3.038800	2.800100	-8.507200	29.392491	0.000212	20.791507
2334.657626	-3.038000	2.796900	-8.495000	29.444188	0.000211	20.789086
2335.654164	-3.002500	2.796600	-8.395300	29.490709	0.000211	20.791407
2336.655517	-2.990600	2.794400	-8.355800	29.539826	0.000211	20.787339
2337.655917	-3.013700	2.790900	-8.409800	29.569855	0.000212	20.777307
2338.655814	-2.975700	2.787700	-8.294200	29.578297	0.000211	20.791507
2339.655395	-3.017900	2.785100	-8.404600	29.565969	0.000210	20.808950
2340.658209	-3.015200	2.783800	-8.391800	29.538167	0.000209	20.777606
2341.654454	-3.004700	2.781400	-8.355200	29.472338	0.000214	20.774786
2342.656899	-3.008900	2.776700	-8.354300	29.426708	0.000210	20.801339
2343.657201	-2.980800	2.775300	-8.271100	29.418711	0.000211	20.787588
2344.656837	-3.024300	2.772300	-8.382400	29.385458	0.000210	20.791531
2345.660888	-2.993400	2.769500	-8.289600	29.407841	0.000209	20.766675
2346.657248	-3.002300	2.767100	-8.306700	29.448471	0.000210	20.803834
2347.656770	-2.995500	2.762900	-8.275000	29.485509	0.000210	20.792804
2348.658786	-3.004800	2.760900	-8.295300	29.519228	0.000209	20.785542
2349.659000	-2.996400	2.757300	-8.261200	29.540543	0.000213	20.788536
2350.659446	-3.018800	2.754000	-8.312400	29.489742	0.000212	20.789484
2351.658266	-2.990700	2.752600	-8.230600	29.450922	0.000211	20.784019
2352.658523	-2.995200	2.748100	-8.229900	29.415665	0.000212	20.794950
2353.659042	-2.994000	2.745600	-8.219100	29.432822	0.000213	20.774785
2354.659761	-2.985100	2.742200	-8.183600	29.473253	0.000213	20.789459
2355.660747	-3.021000	2.738500	-8.271200	29.463176	0.000210	20.794475
2356.667346	-2.972800	2.736600	-8.134200	29.488826	0.000212	20.808949
2357.662173	-2.990400	2.731700	-8.167600	29.500932	0.000211	20.803609
2358.662694	-2.977900	2.728700	-8.124400	29.579261	0.000211	20.792004
2359.666187	-2.997400	2.726200	-8.170400	29.581514	0.000211	20.800913
2360.661759	-2.989700	2.722400	-8.137900	29.613349	0.000211	20.797444
2361.668131	-3.030300	2.719400	-8.239900	29.654218	0.000209	20.807352
2362.664758	-3.007700	2.716700	-8.170200	29.665159	0.000210	20.805580
2363.668378	-3.009300	2.712700	-8.162200	29.657337	0.000210	20.791056
2364.665445	-3.011000	2.708900	-8.154200	29.633846	0.000209	20.810521
2365.664529	-3.046000	2.705100	-8.238100	29.596664	0.000211	20.801487
2366.667461	-3.000300	2.701100	-8.103300	29.652213	0.000210	20.804382
2367.668286	-2.986500	2.699600	-8.060900	29.658748	0.000211	20.799591
2368.664768	-2.984900	2.696500	-8.047100	29.674887	0.000208	20.806378
2369.665879	-3.021300	2.690600	-8.127900	29.644911	0.000211	20.804133
2370.666206	-3.010000	2.687600	-8.088700	29.617062	0.000210	20.803559
2371.670593	-3.003600	2.683900	-8.060200	29.677709	0.000209	20.798318
2372.670814	-2.996300	2.681400	-8.033700	29.691595	0.000210	20.777230
2373.668147	-3.002300	2.675900	-8.033300	29.716274	0.000211	20.804008
2374.672571	-2.981100	2.671300	-7.962300	29.682313	0.000209	20.802486
2375.668198	-3.001400	2.667300	-8.004800	29.631444	0.000209	20.821377
2376.668437	-2.995600	2.664800	-7.981700	29.533661	0.000207	20.801986
2377.674886	-2.991400	2.660000	-7.956000	29.498233	0.000210	20.810845
2378.668545	-2.982000	2.656000	-7.918100	29.462681	0.000211	20.807726
2379.668616	-2.986100	2.650900	-7.914700	29.421334	0.000210	20.826267
2380.682075	-2.967700	2.649200	-7.861800	29.421656	0.000211	20.798617
2381.669519	-3.002000	2.642400	-7.930900	29.398159	0.000208	20.795323
2382.672650	-2.975900	2.639000	-7.852600	29.375305	0.000209	20.805480
2383.676057	-3.000900	2.633100	-7.899600	29.398011	0.000210	20.825045
2384.672419	-2.977900	2.630400	-7.831700	29.388206	0.000210	20.803309
2385.671939	-2.967700	2.626800	-7.794700	29.402145	0.000209	20.812143
2386.670412	-2.996700	2.620600	-7.852600	29.451019	0.000209	20.826791
2387.670470	-2.998400	2.615200	-7.840300	29.501996	0.000209	20.820328
2388.674201	-2.981200	2.611700	-7.784200	29.554307	0.000208	20.803359
2389.671788	-3.025000	2.605000	-7.878700	29.568393	0.000208	20.818980
2390.671778	-3.004100	2.600300	-7.810600	29.600501	0.000210	20.803933
2391.673556	-3.036700	2.594500	-7.877500	29.582429	0.000209	20.796621
2392.672934	-2.987700	2.590800	-7.738700	29.596020	0.000209	20.805105
2393.676892	-2.993600	2.585900	-7.740200	29.577206	0.000209	20.794674
2394.676259	-2.963300	2.580800	-7.646700	29.549282	0.000208	20.804931
2395.679712	-3.033800	2.571500	-7.800200	29.492414	0.000208	20.824894
2396.677791	-2.977600	2.569100	-7.648900	29.516429	0.000207	20.801212
2397.676162	-2.970100	2.563100	-7.611600	29.532100	0.000208	20.814164
2398.679500	-2.963400	2.556600	-7.575000	29.563739	0.000210	20.819504
2399.676650	-2.965400	2.552500	-7.568500	29.618844	0.000210	20.817683
2400.678977	-2.982400	2.545100	-7.589400	29.586192	0.000210	20.826492
2401.679116	-2.980300	2.538600	-7.565000	29.593619	0.000209	20.823547
2402.679453	-3.008800	2.531200	-7.614300	29.573666	0.000209	20.821451
2403.680892	-2.984000	2.528000	-7.542700	29.602778	0.000209	20.818082
2404.682976	-2.971700	2.519200	-7.485700	29.629761	0.000213	20.823946
2405.680256	-3.009500	2.513800	-7.564400	29.640726	0.000210	20.824570
2406.680846	-3.022100	2.506200	-7.573200	29.680258	0.000212	20.813216
2407.679783	-2.988900	2.500900	-7.473800	29.676372	0.000212	20.829686
2408.680349	-2.989700	2.494200	-7.456200	29.691001	0.000212	20.826891
