LabVIEW Measurement	
Writer_Version	2
Reader_Version	2
Separator	Tab
Decimal_Separator	.
Multi_Headings	No
X_Columns	One
Time_Pref	Absolute
Operator	admin
Description	Clolumns are: time, Current, Voltage, Power, Battery Temp, and Chamber Temp
Date	2024/08/16
Time	13:06:06.104549407958984375
***End_of_Header***	
	
Channels	6						
Samples	1	1	1	1	1	1	
Date	2024/09/18	2024/09/18	2024/09/18	2024/09/18	2024/09/18	2024/09/18	
Time	21:31:12.4256143569946289063	21:31:12.4322271347045898438	21:31:12.4404082298278808594	21:31:12.4085025787353515625	21:31:12.4085025787353515625	21:31:12.4085025787353515625	
X_Dimension	Time	Time	Time	Time	Time	Time	
X0	0.0000000000000000E+0	0.0000000000000000E+0	0.0000000000000000E+0	0.0000000000000000E+0	0.0000000000000000E+0	0.0000000000000000E+0	
Delta_X	1.000000	1.000000	1.000000	1.000000	1.000000	1.000000	
***End_of_Header***							
X_Value	Untitled	Untitled 1	Untitled 2	Untitled 3	Untitled 4	Untitled 5	Comment
0.000000	0.024960	4.091600	0.102090	21.022717	0.000997	20.849198
1.001162	-3.001000	3.905900	-11.720000	21.024040	0.000995	20.844832
2.000082	-2.993000	3.897800	-11.665000	21.022998	0.000995	20.850427
3.002284	-3.007500	3.893400	-11.708000	20.999349	0.000995	20.844317
3.999270	-2.965400	3.890300	-11.535000	21.024750	0.000992	20.850757
5.001581	-2.985300	3.885500	-11.598000	21.016938	0.000990	20.848634
6.003013	-2.988000	3.883600	-11.603000	21.026004	0.000991	20.822140
7.001984	-3.005200	3.880300	-11.659000	21.042798	0.000990	20.864541
7.999296	-3.005700	3.877600	-11.654000	21.042225	0.000990	20.838839
9.000597	-2.987600	3.875700	-11.577000	21.011540	0.000988	20.838967
10.002055	-3.015800	3.873500	-11.680000	21.060170	0.000988	20.838769
10.999853	-3.005100	3.870800	-11.631000	21.050916	0.000987	20.837574
12.004626	-3.014400	3.869400	-11.663000	21.057305	0.000986	20.846809
13.003767	-2.992200	3.868800	-11.575000	21.063719	0.000985	20.847535
14.003234	-2.981800	3.868100	-11.532000	21.071082	0.000985	20.845890
15.002777	-3.021300	3.865100	-11.677000	21.066391	0.000986	20.848784
16.003381	-3.021800	3.863700	-11.674000	21.061828	0.000983	20.852755
17.003953	-3.007200	3.862400	-11.614000	21.085179	0.000984	20.849085
18.011083	-2.987800	3.863000	-11.541000	21.077747	0.000984	20.857773
19.002454	-3.011400	3.861100	-11.626000	21.088354	0.000982	20.839459
20.003677	-2.981000	3.861300	-11.509000	21.077224	0.000984	20.843973
21.006590	-2.986800	3.861100	-11.531000	21.114598	0.000983	20.871873
22.006453	-3.010300	3.858300	-11.614000	21.119289	0.000981	20.873246
23.005046	-3.008400	3.858900	-11.607000	21.115996	0.000981	20.863314
24.006877	-3.002700	3.857300	-11.580000	21.126754	0.000981	20.857006
25.008317	-2.999000	3.854200	-11.556000	21.131865	0.000979	20.862592
26.005554	-2.997100	3.855000	-11.553000	21.143246	0.000980	20.859278
27.009803	-2.990400	3.855200	-11.527000	21.149833	0.000979	20.869659
28.006974	-2.998400	3.854600	-11.557000	21.139780	0.000978	20.867190
29.005483	-2.995400	3.854100	-11.542000	21.173711	0.000977	20.846605
30.006950	-3.016800	3.851200	-11.617000	21.160760	0.000978	20.850245
31.010740	-2.993900	3.852400	-11.532000	21.166250	0.000978	20.851470
32.008404	-3.001000	3.850600	-11.554000	21.163287	0.000976	20.856566
33.014143	-2.992900	3.849700	-11.521000	21.196689	0.000978	20.857737
34.010032	-2.996000	3.849500	-11.532000	21.192774	0.000975	20.843863
35.010985	-3.002500	3.849300	-11.556000	21.193198	0.000978	20.866572
36.011642	-3.014200	3.848400	-11.599000	21.209694	0.000977	20.847038
37.010988	-3.014500	3.848600	-11.600000	21.219919	0.000979	20.851578
38.011122	-2.990600	3.848700	-11.508000	21.228080	0.000977	20.866853
39.012981	-3.003400	3.846200	-11.551000	21.235590	0.000979	20.846865
40.012313	-3.000000	3.848500	-11.545000	21.229453	0.000978	20.838830
41.015779	-2.999600	3.846300	-11.537000	21.246693	0.000976	20.837111
42.015897	-2.982400	3.846500	-11.471000	21.246244	0.000976	20.846618
43.013160	-2.993400	3.845100	-11.509000	21.251132	0.000977	20.848663
44.012256	-2.994200	3.846100	-11.515000	21.258670	0.000977	20.819696
45.015222	-3.001700	3.844700	-11.538000	21.266530	0.000977	20.841309
46.014678	-2.979700	3.845100	-11.456000	21.284017	0.000976	20.833673
47.014075	-2.996200	3.843600	-11.516000	21.291827	0.000978	20.813512
48.015544	-2.990100	3.843200	-11.490000	21.295372	0.000977	20.852618
49.015764	-3.012700	3.843500	-11.577000	21.291955	0.000976	20.835925
50.014754	-2.979000	3.844600	-11.452000	21.309541	0.000975	20.836922
51.015365	-2.995300	3.844300	-11.512000	21.310963	0.000974	20.827440
52.014966	-3.008400	3.840900	-11.554000	21.300882	0.000976	20.827786
53.017067	-2.994300	3.841600	-11.501000	21.325655	0.000974	20.829810
54.017654	-3.017500	3.840500	-11.588000	21.336782	0.000976	20.829563
55.015916	-3.000700	3.839900	-11.521000	21.337537	0.000974	20.845965
56.021974	-3.008000	3.840900	-11.552000	21.337834	0.000975	20.832037
57.019336	-3.010600	3.839200	-11.556000	21.366170	0.000974	20.832412
58.016362	-3.004000	3.839600	-11.533000	21.357965	0.000974	20.844592
59.016456	-3.001100	3.839200	-11.520000	21.367695	0.000977	20.822085
60.017635	-3.003900	3.839500	-11.533000	21.376828	0.000976	20.822213
61.019216	-3.022800	3.837000	-11.598000	21.390156	0.000975	20.816582
62.016582	-3.005700	3.839900	-11.540000	21.386089	0.000974	20.817728
63.021441	-3.024400	3.836800	-11.603000	21.396816	0.000974	20.820400
64.019336	-3.006400	3.836600	-11.533000	21.388887	0.000974	20.838545
65.019319	-2.987700	3.837100	-11.462000	21.390462	0.000975	20.817836
66.024509	-3.007300	3.836700	-11.537000	21.416605	0.000975	20.809854
67.019701	-2.997400	3.835100	-11.494000	21.413539	0.000976	20.825753
68.020478	-2.984900	3.835700	-11.448000	21.405735	0.000973	20.808935
69.021579	-2.985000	3.836200	-11.450000	21.434149	0.000975	20.817450
70.022983	-2.995300	3.836400	-11.490000	21.422775	0.000973	20.809389
71.020195	-3.017700	3.834600	-11.571000	21.447871	0.000975	20.825016
72.022444	-2.996400	3.835000	-11.489000	21.464062	0.000976	20.811344
73.022009	-2.991200	3.834500	-11.470000	21.478105	0.000978	20.822077
74.025051	-2.992100	3.834100	-11.471000	21.469205	0.000975	20.797050
75.023954	-3.000700	3.832100	-11.498000	21.471007	0.000978	20.813077
76.023662	-2.991800	3.832600	-11.465000	21.478189	0.000976	20.822634
77.024378	-3.004200	3.832000	-11.511000	21.485450	0.000978	20.817572
78.024663	-2.987000	3.832700	-11.447000	21.513037	0.000975	20.807718
79.025951	-2.994300	3.832800	-11.476000	21.516359	0.000975	20.817206
80.028565	-3.019100	3.832100	-11.568000	21.513141	0.000976	20.795968
81.026244	-2.988300	3.832600	-11.451000	21.530357	0.000978	20.818884
82.027999	-2.989600	3.832500	-11.456000	21.515667	0.000976	20.795177
83.027183	-3.002900	3.831400	-11.504000	21.527316	0.000977	20.784074
84.025484	-2.989600	3.829100	-11.446000	21.534404	0.000975	20.806813
85.027427	-3.014100	3.829900	-11.542000	21.555307	0.000977	20.806867
86.028354	-3.006700	3.830300	-11.516000	21.536284	0.000976	20.786883
87.029263	-2.999200	3.829600	-11.485000	21.581097	0.000978	20.817501
88.030129	-2.995500	3.829700	-11.469000	21.561926	0.000977	20.780773
89.028964	-2.976000	3.829500	-11.394000	21.597966	0.000977	20.793605
90.030651	-2.996700	3.829200	-11.474000	21.603075	0.000978	20.802510
91.033063	-3.023700	3.827300	-11.572000	21.600015	0.000978	20.797077
92.033191	-2.993400	3.828600	-11.459000	21.615853	0.000977	20.779735
93.031126	-3.007800	3.828600	-11.513000	21.612136	0.000977	20.800198
94.032006	-3.010600	3.827600	-11.522000	21.627501	0.000978	20.771951
95.033944	-3.016700	3.827100	-11.543000	21.637756	0.000979	20.776050
96.034617	-2.994500	3.828400	-11.461000	21.646709	0.000977	20.775052
97.034648	-2.989900	3.827500	-11.442000	21.655341	0.000978	20.772785
98.033451	-2.987300	3.827100	-11.431000	21.645766	0.000978	20.772686
99.040198	-2.996000	3.827600	-11.467000	21.667516	0.000977	20.802039
100.036239	-3.005500	3.827000	-11.501000	21.652883	0.000980	20.771747
101.040358	-2.979700	3.826700	-11.402000	21.697044	0.000978	20.770424
102.034179	-2.977300	3.826200	-11.391000	21.693807	0.000980	20.788995
103.038186	-3.015000	3.823700	-11.527000	21.691215	0.000981	20.770754
104.036114	-2.990600	3.825800	-11.440000	21.696254	0.000981	20.794289
105.037016	-2.987700	3.825000	-11.426000	21.713513	0.000979	20.783112
106.038478	-3.026400	3.822800	-11.568000	21.701491	0.000981	20.771554
107.038472	-2.994400	3.825100	-11.453000	21.727622	0.000981	20.762619
108.034938	-3.015900	3.823500	-11.531000	21.737507	0.000981	20.760184
109.036335	-2.988700	3.823100	-11.425000	21.749346	0.000980	20.781042
110.036338	-3.011200	3.824200	-11.514000	21.757405	0.000982	20.790056
111.036703	-2.984400	3.824100	-11.412000	21.777702	0.000982	20.777654
112.036989	-2.989200	3.822700	-11.425000	21.783910	0.000982	20.771539
113.036932	-2.994100	3.822100	-11.443000	21.776883	0.000982	20.768773
114.037847	-2.988400	3.823000	-11.423000	21.779321	0.000985	20.764101
115.037340	-2.993700	3.822500	-11.442000	21.789299	0.000983	20.773613
116.037730	-2.997000	3.821900	-11.454000	21.797225	0.000984	20.775856
117.037107	-2.993100	3.823000	-11.441000	21.804212	0.000984	20.770047
118.038666	-3.016600	3.822000	-11.528000	21.798601	0.000986	20.761112
119.039245	-3.008900	3.819100	-11.489000	21.791974	0.000988	20.796205
120.039830	-3.004100	3.820700	-11.476000	21.809547	0.000985	20.764007
121.040175	-3.011200	3.819600	-11.500000	21.823137	0.000985	20.767652
122.039646	-2.984600	3.820700	-11.402000	21.824257	0.000985	20.773515
123.039014	-3.004300	3.820900	-11.478000	21.816233	0.000986	20.784924
124.040390	-2.969100	3.821300	-11.345000	21.832932	0.000985	20.759912
125.037802	-2.997000	3.820400	-11.449000	21.846177	0.000988	20.767953
126.041918	-3.001000	3.819800	-11.461000	21.860433	0.000987	20.768472
127.042858	-2.995400	3.820200	-11.441000	21.880502	0.000989	20.759161
128.041909	-3.018200	3.818200	-11.523000	21.900397	0.000988	20.768170
129.041362	-2.991100	3.818200	-11.419000	21.905282	0.000988	20.774483
130.039970	-3.021700	3.817400	-11.534000	21.917450	0.000989	20.761058
131.042726	-2.981600	3.820700	-11.389000	21.934997	0.000991	20.764397
132.052690	-2.972600	3.819200	-11.351000	21.931661	0.000989	20.762480
133.042164	-2.971500	3.819800	-11.350000	21.929564	0.000988	20.763226
134.044186	-2.981300	3.817300	-11.380000	21.948980	0.000991	20.749945
135.043536	-2.989500	3.818000	-11.412000	21.954072	0.000991	20.769741
136.044362	-2.983100	3.817700	-11.387000	21.975037	0.000990	20.771287
137.046990	-3.024800	3.814800	-11.537000	21.960077	0.000992	20.768640
138.046081	-3.014900	3.815400	-11.502000	21.980366	0.000992	20.767613
139.044136	-2.979000	3.817300	-11.371000	21.979892	0.000994	20.757655
140.045408	-3.008300	3.816100	-11.478000	21.994551	0.000991	20.759527
141.044378	-2.987200	3.816000	-11.398000	21.993101	0.000993	20.751911
142.046206	-3.000400	3.815800	-11.449000	22.023119	0.000992	20.757779
143.049072	-3.003100	3.815000	-11.455000	22.021195	0.000994	20.779087
144.047140	-3.015500	3.814600	-11.502000	22.017361	0.000993	20.781887
145.048022	-3.004500	3.815000	-11.461000	22.036780	0.000995	20.758179
146.047651	-3.003000	3.815700	-11.458000	22.024540	0.000994	20.736441
147.047616	-2.996200	3.814600	-11.428000	22.042287	0.000996	20.760846
148.046471	-3.000500	3.814400	-11.444000	22.053210	0.000996	20.750918
149.049082	-3.023900	3.812800	-11.529000	22.045804	0.000998	20.774325
150.046077	-2.995300	3.813900	-11.423000	22.047393	0.000995	20.775442
151.046642	-3.021600	3.812900	-11.520000	22.071302	0.000998	20.755754
152.049358	-3.015000	3.812100	-11.493000	22.079950	0.000997	20.760619
153.047137	-2.987500	3.813500	-11.392000	22.080676	0.000998	20.753758
154.046530	-2.978800	3.812600	-11.356000	22.084835	0.001000	20.747016
155.047397	-3.008900	3.811700	-11.468000	22.063373	0.000999	20.781008
156.047317	-2.972200	3.813300	-11.333000	22.096177	0.000997	20.765484
157.048019	-2.993600	3.811400	-11.408000	22.066758	0.000999	20.747412
158.050394	-2.977300	3.813200	-11.351000	22.090942	0.000999	20.746493
159.048759	-2.980200	3.813000	-11.362000	22.079023	0.001000	20.751156
160.050662	-3.001000	3.812500	-11.440000	22.081169	0.001000	20.747614
161.052574	-3.007400	3.811200	-11.461000	22.092186	0.000999	20.764334
162.053720	-3.014200	3.810900	-11.485000	22.126982	0.001000	20.748908
163.051634	-2.995900	3.810300	-11.414000	22.115788	0.001002	20.749081
164.052619	-2.985600	3.811800	-11.379000	22.138694	0.001002	20.751151
165.062923	-2.983500	3.810900	-11.368000	22.125013	0.001004	20.751205
166.053866	-2.991300	3.810300	-11.396000	22.134259	0.001002	20.756194
167.050876	-2.984100	3.809800	-11.368000	22.139789	0.001005	20.745135
168.049397	-2.978000	3.810800	-11.347000	22.140938	0.001003	20.743915
169.051557	-2.999200	3.810300	-11.426000	22.158181	0.001004	20.755488
170.053050	-2.994800	3.808200	-11.404000	22.168979	0.001003	20.725995
171.055150	-3.002400	3.808100	-11.432000	22.173513	0.001006	20.754717
172.053230	-3.013400	3.808400	-11.475000	22.181440	0.001005	20.759810
173.053630	-3.020900	3.808300	-11.503000	22.201109	0.001006	20.729240
174.053087	-2.990200	3.808800	-11.388000	22.198144	0.001007	20.730539
175.055536	-3.025900	3.806900	-11.518000	22.189693	0.001008	20.758590
176.054870	-3.006100	3.807400	-11.445000	22.214625	0.001009	20.749886
177.056787	-2.997000	3.806700	-11.408000	22.260984	0.001009	20.733715
178.055600	-3.002500	3.806100	-11.427000	22.245781	0.001010	20.734140
179.054990	-2.998400	3.807100	-11.414000	22.274194	0.001009	20.757374
180.054842	-3.005100	3.805700	-11.436000	22.295627	0.001009	20.739953
181.056716	-2.991800	3.805200	-11.383000	22.307573	0.001009	20.744329
182.056744	-3.008000	3.805400	-11.446000	22.309788	0.001011	20.755082
183.057051	-3.017300	3.804700	-11.478000	22.304308	0.001012	20.737266
184.055686	-3.011400	3.804300	-11.454000	22.320689	0.001012	20.713838
185.058059	-2.993500	3.805600	-11.391000	22.337237	0.001012	20.741316
186.054576	-2.999100	3.805800	-11.412000	22.318395	0.001013	20.758959
187.055548	-3.008600	3.805000	-11.447000	22.331461	0.001011	20.744067
188.053751	-2.974100	3.805000	-11.314000	22.349030	0.001013	20.735107
189.056550	-3.032900	3.802600	-11.532000	22.332309	0.001014	20.738752
190.059627	-2.994100	3.804900	-11.391000	22.352103	0.001016	20.745296
191.056473	-3.008300	3.803600	-11.441000	22.350884	0.001014	20.731273
192.055139	-2.994000	3.802900	-11.385000	22.370022	0.001014	20.732894
193.056749	-2.987700	3.803300	-11.362000	22.382885	0.001016	20.738188
194.055872	-3.032400	3.801300	-11.525000	22.388069	0.001016	20.742431
195.055928	-2.993600	3.802700	-11.383000	22.408360	0.001018	20.720075
196.055953	-3.007400	3.803200	-11.437000	22.417554	0.001017	20.743508
197.054682	-3.016100	3.802800	-11.469000	22.418357	0.001017	20.730087
198.061264	-3.009900	3.802000	-11.442000	22.405050	0.001018	20.711071
199.062424	-3.014700	3.802800	-11.463000	22.397869	0.001019	20.711466
200.057762	-3.011500	3.802200	-11.449000	22.401756	0.001018	20.746180
201.057967	-3.023500	3.800500	-11.491000	22.447664	0.001018	20.726719
202.061263	-2.992700	3.801500	-11.375000	22.425736	0.001018	20.709500
203.058570	-3.014500	3.801800	-11.458000	22.430421	0.001021	20.732685
204.056149	-2.988800	3.802300	-11.362000	22.439264	0.001021	20.724945
205.058541	-2.985300	3.800700	-11.344000	22.466824	0.001023	20.735002
206.057416	-3.003000	3.801000	-11.413000	22.457957	0.001023	20.725173
207.058870	-3.002300	3.799900	-11.406000	22.478138	0.001025	20.732108
208.060235	-3.017300	3.798300	-11.458000	22.440635	0.001024	20.740544
209.058719	-3.004700	3.800200	-11.417000	22.445365	0.001023	20.713037
210.060138	-3.010000	3.799100	-11.433000	22.439112	0.001024	20.717206
211.060822	-3.001800	3.799400	-11.404000	22.429371	0.001025	20.735427
212.060342	-3.004100	3.798500	-11.411000	22.445745	0.001023	20.716736
213.058253	-3.000800	3.797800	-11.395000	22.431235	0.001026	20.743933
214.063176	-3.007900	3.798300	-11.424000	22.490369	0.001024	20.726813
215.058148	-3.008400	3.797900	-11.424000	22.486483	0.001025	20.720075
216.060784	-3.016500	3.796300	-11.451000	22.495380	0.001026	20.720451
217.060873	-3.014300	3.797900	-11.446000	22.503823	0.001028	20.710414
218.060271	-3.043000	3.796200	-11.551000	22.474996	0.001028	20.716158
219.062797	-3.032600	3.796400	-11.512000	22.504301	0.001027	20.718480
220.062315	-3.010700	3.796900	-11.430000	22.516557	0.001030	20.704200
221.060973	-2.997600	3.796100	-11.378000	22.544588	0.001028	20.727534
222.062658	-2.995600	3.796300	-11.372000	22.556197	0.001031	20.721617
223.062175	-3.014300	3.794600	-11.437000	22.546181	0.001031	20.718697
224.064843	-3.000300	3.796600	-11.390000	22.552612	0.001031	20.715181
225.064532	-3.021300	3.794100	-11.461000	22.546926	0.001030	20.708537
226.067114	-3.003200	3.795300	-11.397000	22.565340	0.001032	20.720817
227.065658	-2.984000	3.795500	-11.323000	22.574158	0.001034	20.722061
228.067024	-2.992400	3.795400	-11.356000	22.566134	0.001033	20.705964
229.067907	-2.986000	3.794100	-11.328000	22.559654	0.001033	20.726502
230.064106	-3.013000	3.793000	-11.427000	22.558382	0.001034	20.707683
231.064066	-3.000800	3.793500	-11.383000	22.578142	0.001035	20.717043
232.068355	-2.978600	3.794000	-11.299000	22.592019	0.001035	20.718140
233.068272	-2.998800	3.793600	-11.376000	22.599343	0.001034	20.730691
234.065253	-2.991800	3.793100	-11.347000	22.614714	0.001034	20.696298
235.066643	-3.015400	3.792200	-11.433000	22.631603	0.001036	20.715112
236.067866	-3.001100	3.793300	-11.382000	22.660845	0.001037	20.709314
237.067813	-3.003300	3.792800	-11.389000	22.655495	0.001038	20.709644
238.067114	-2.997500	3.792100	-11.366000	22.676097	0.001037	20.718427
239.069475	-3.007500	3.791700	-11.402000	22.674075	0.001039	20.721618
240.069089	-3.021500	3.790600	-11.452000	22.680130	0.001040	20.721519
241.068740	-2.997600	3.792300	-11.367000	22.717600	0.001040	20.732025
242.070996	-3.007800	3.791300	-11.403000	22.703897	0.001040	20.701228
243.067111	-2.993500	3.791900	-11.350000	22.699711	0.001040	20.716476
244.066563	-3.014200	3.789800	-11.421000	22.698883	0.001039	20.714698
245.068056	-2.998300	3.791000	-11.365000	22.694751	0.001042	20.705817
246.070632	-3.016600	3.789200	-11.430000	22.729331	0.001042	20.716748
247.068867	-3.008700	3.789500	-11.400000	22.712364	0.001043	20.708761
248.073240	-3.036300	3.789000	-11.503000	22.711062	0.001041	20.691809
249.069713	-2.993400	3.789900	-11.343000	22.709548	0.001044	20.695982
250.075379	-3.008400	3.790600	-11.401000	22.689263	0.001044	20.703639
251.078235	-2.964700	3.790700	-11.237000	22.691428	0.001045	20.717662
252.074387	-2.981500	3.790000	-11.299000	22.649297	0.001045	20.712920
253.073034	-2.993300	3.790100	-11.343000	22.683252	0.001047	20.710421
254.074612	-3.020000	3.786500	-11.432000	22.662000	0.001048	20.717109
255.074550	-3.000400	3.788300	-11.365000	22.686541	0.001046	20.704706
256.074434	-3.017400	3.785700	-11.422000	22.675880	0.001045	20.733858
257.083135	-3.005300	3.787700	-11.382000	22.698277	0.001048	20.680897
258.074869	-3.031700	3.787600	-11.481000	22.721718	0.001046	20.721925
259.083930	-3.007100	3.786500	-11.386000	22.747230	0.001047	20.698640
260.074306	-3.004500	3.786700	-11.375000	22.758043	0.001049	20.700463
261.075529	-3.000900	3.788000	-11.364000	22.790649	0.001051	20.685709
262.074929	-3.024800	3.785800	-11.450000	22.772021	0.001048	20.706879
263.076460	-2.992100	3.786500	-11.327000	22.784801	0.001049	20.715889
264.077016	-3.003600	3.786400	-11.372000	22.811706	0.001052	20.702537
265.076390	-3.023600	3.784400	-11.441000	22.827474	0.001052	20.721653
266.076365	-3.003200	3.786800	-11.371000	22.830441	0.001050	20.703762
267.073335	-2.989500	3.786100	-11.318000	22.831211	0.001051	20.719707
268.075134	-3.008400	3.783700	-11.382000	22.857198	0.001050	20.706859
269.076395	-2.984900	3.785000	-11.297000	22.854136	0.001053	20.703318
270.075984	-3.015000	3.783300	-11.405000	22.856926	0.001054	20.715597
271.077340	-3.001200	3.783900	-11.355000	22.876332	0.001052	20.706113
272.076361	-3.017600	3.782600	-11.413000	22.880098	0.001053	20.717474
273.077545	-3.006100	3.783500	-11.372000	22.885255	0.001057	20.686602
274.077848	-2.979400	3.783600	-11.272000	22.885383	0.001054	20.708069
275.075816	-2.991800	3.782600	-11.316000	22.881527	0.001055	20.700887
276.074811	-2.989200	3.782900	-11.307000	22.924546	0.001055	20.698940
277.077601	-2.978000	3.783200	-11.265000	22.920316	0.001057	20.704660
278.077016	-3.024100	3.781100	-11.433000	22.939863	0.001056	20.720452
279.078973	-3.001000	3.781400	-11.347000	22.953075	0.001056	20.727525
280.078701	-2.992400	3.783000	-11.319000	22.966420	0.001057	20.705332
281.079847	-2.982900	3.781800	-11.279000	22.952976	0.001060	20.718890
282.079524	-3.020500	3.779900	-11.416000	22.958577	0.001059	20.685618
283.079916	-2.999600	3.781900	-11.342000	22.934198	0.001058	20.717147
284.082170	-2.994700	3.780000	-11.319000	22.974824	0.001061	20.720392
285.083036	-3.005800	3.779800	-11.359000	22.959237	0.001061	20.709515
286.083306	-2.994100	3.779600	-11.315000	23.008109	0.001060	20.719601
287.083643	-2.994500	3.779200	-11.316000	22.989007	0.001060	20.705203
288.085549	-2.990300	3.779700	-11.301000	23.012471	0.001061	20.707376
289.085989	-2.986300	3.778600	-11.283000	23.023829	0.001063	20.720179
290.084822	-2.980100	3.779600	-11.263000	23.028960	0.001062	20.717734
291.083361	-3.020400	3.778800	-11.411000	23.002612	0.001063	20.718361
292.083344	-3.022100	3.777600	-11.414000	23.023291	0.001063	20.729598
293.085512	-2.999900	3.777600	-11.332000	23.004362	0.001065	20.711105
294.086702	-3.000200	3.777200	-11.331000	23.018140	0.001064	20.698830
295.087607	-2.998100	3.777600	-11.325000	23.033785	0.001064	20.690324
296.087074	-2.993800	3.777700	-11.308000	23.043999	0.001065	20.728536
297.086020	-3.022800	3.776600	-11.415000	23.067364	0.001065	20.723023
298.086838	-3.012000	3.775600	-11.371000	23.056781	0.001067	20.710047
299.087673	-3.019600	3.775500	-11.399000	23.054020	0.001067	20.737154
300.084819	-3.020200	3.776000	-11.403000	23.065402	0.001067	20.708728
301.085128	-2.991200	3.775900	-11.293000	23.049692	0.001067	20.707686
302.087722	-3.010700	3.774400	-11.362000	23.049820	0.001068	20.717772
303.086700	-3.025700	3.774100	-11.418000	23.047355	0.001067	20.700128
304.085396	-2.997800	3.775600	-11.318000	23.047730	0.001067	20.728480
305.086348	-2.998100	3.774400	-11.314000	23.047360	0.001068	20.738068
306.087058	-2.993700	3.774200	-11.299000	23.046216	0.001069	20.716058
307.093037	-3.011400	3.774100	-11.363000	23.098225	0.001071	20.697045
308.089354	-2.987500	3.774100	-11.273000	23.106816	0.001069	20.716561
309.086595	-3.017200	3.773200	-11.383000	23.111154	0.001070	20.725176
310.086303	-3.008600	3.773700	-11.353000	23.120139	0.001072	20.731335
311.090051	-3.007700	3.771800	-11.342000	23.131052	0.001072	20.704810
312.088084	-3.015900	3.771200	-11.373000	23.152621	0.001072	20.699397
313.088155	-2.996600	3.772800	-11.304000	23.179094	0.001072	20.716917
314.088893	-2.989900	3.772600	-11.279000	23.177728	0.001072	20.708436
315.090851	-2.996900	3.772300	-11.302000	23.189035	0.001074	20.735415
316.086977	-3.036200	3.769100	-11.443000	23.202485	0.001072	20.695311
317.089395	-2.997500	3.770800	-11.302000	23.207773	0.001075	20.725269
318.089210	-2.984300	3.771800	-11.253000	23.217779	0.001073	20.708268
319.089373	-3.002700	3.770800	-11.322000	23.217158	0.001073	20.742735
320.090093	-3.010000	3.769500	-11.344000	23.226803	0.001073	20.723002
321.090144	-3.006600	3.768500	-11.328000	23.217690	0.001076	20.721930
322.089868	-3.017700	3.767900	-11.369000	23.216487	0.001074	20.706973
323.092317	-2.985600	3.769800	-11.254000	23.216290	0.001077	20.715311
324.088976	-3.007200	3.769000	-11.332000	23.214328	0.001077	20.725200
325.087854	-2.998000	3.769000	-11.299000	23.219084	0.001077	20.728544
326.091115	-3.006500	3.768600	-11.328000	23.233234	0.001076	20.737508
327.089445	-3.027800	3.766200	-11.402000	23.252983	0.001076	20.720314
328.091885	-3.005400	3.769200	-11.327000	23.237936	0.001077	20.732263
329.091273	-2.994700	3.767500	-11.282000	23.256689	0.001079	20.721184
330.089437	-3.024300	3.766200	-11.388000	23.257389	0.001078	20.712876
331.089073	-3.010700	3.766000	-11.337000	23.289142	0.001079	20.727630
332.093696	-3.002800	3.766800	-11.309000	23.242653	0.001080	20.732722
333.092409	-3.002500	3.766500	-11.308000	23.262647	0.001080	20.719094
334.091110	-3.003800	3.766300	-11.313000	23.257472	0.001081	20.724340
335.092810	-3.006600	3.764700	-11.318000	23.275372	0.001082	20.741806
336.091176	-3.019200	3.765800	-11.369000	23.282425	0.001080	20.728010
337.094388	-3.003700	3.764600	-11.307000	23.298737	0.001081	20.729185
338.095605	-3.014900	3.763300	-11.345000	23.277821	0.001079	20.737148
339.093172	-3.009100	3.764500	-11.325000	23.271922	0.001079	20.738348
340.093062	-3.016500	3.763100	-11.350000	23.248044	0.001083	20.731487
341.097844	-3.008400	3.764600	-11.325000	23.255072	0.001081	20.721934
342.096411	-2.992800	3.763800	-11.263000	23.256816	0.001083	20.722734
343.093251	-2.976500	3.764900	-11.206000	23.257216	0.001083	20.725505
344.096587	-3.000100	3.763300	-11.289000	23.277067	0.001086	20.747772
345.094424	-2.986300	3.763100	-11.237000	23.277121	0.001084	20.719849
346.098589	-3.005000	3.762000	-11.303000	23.293602	0.001086	20.732573
347.099244	-3.003400	3.762000	-11.298000	23.292616	0.001084	20.741543
348.095496	-2.992300	3.762200	-11.256000	23.311890	0.001086	20.738574
349.096837	-2.993800	3.762600	-11.262000	23.328399	0.001086	20.741844
350.098977	-2.994900	3.761300	-11.264000	23.325294	0.001085	20.731620
351.095603	-2.991500	3.761700	-11.252000	23.319065	0.001087	20.722057
352.096246	-2.988400	3.761900	-11.241000	23.317306	0.001088	20.744951
353.105515	-3.002200	3.759400	-11.285000	23.346613	0.001087	20.729278
354.096838	-2.989000	3.760700	-11.240000	23.344425	0.001086	20.747949
355.097470	-3.000900	3.759600	-11.280000	23.329434	0.001089	20.722966
356.104903	-2.994400	3.759200	-11.256000	23.350304	0.001088	20.745306
357.098033	-2.989100	3.759500	-11.236000	23.348540	0.001088	20.744012
358.096462	-2.992600	3.759200	-11.249000	23.348067	0.001089	20.757289
359.100855	-2.999000	3.757200	-11.267000	23.336215	0.001090	20.730711
360.101326	-3.002600	3.758400	-11.284000	23.336663	0.001087	20.743963
361.096692	-3.015600	3.756700	-11.328000	23.335101	0.001090	20.737655
362.105291	-3.016600	3.755700	-11.329000	23.324920	0.001090	20.733141
363.102386	-2.979000	3.757200	-11.192000	23.326309	0.001090	20.725524
364.100055	-2.997100	3.756500	-11.257000	23.341852	0.001092	20.745845
365.104401	-2.992400	3.756500	-11.239000	23.331228	0.001092	20.750369
366.102834	-2.977800	3.756700	-11.186000	23.337102	0.001092	20.758628
367.100816	-2.995500	3.755200	-11.248000	23.368025	0.001094	20.739359
368.101883	-2.998400	3.755500	-11.260000	23.393522	0.001091	20.757329
369.104908	-2.973900	3.756000	-11.169000	23.420363	0.001092	20.741083
370.099733	-2.987700	3.754800	-11.216000	23.447308	0.001093	20.749124
371.103179	-3.002000	3.754700	-11.271000	23.446987	0.001092	20.742639
372.110229	-3.014800	3.754800	-11.318000	23.495631	0.001095	20.751569
373.105411	-3.019300	3.752900	-11.330000	23.500588	0.001095	20.733778
374.108599	-2.976800	3.755200	-11.177000	23.522421	0.001094	20.758509
375.106642	-2.997200	3.754300	-11.251000	23.538257	0.001095	20.761581
376.106183	-2.992700	3.752800	-11.229000	23.553916	0.001094	20.748828
377.109163	-3.011600	3.751400	-11.296000	23.556630	0.001097	20.746808
378.105115	-3.016300	3.751700	-11.315000	23.545879	0.001096	20.762584
379.105229	-2.996600	3.751600	-11.240000	23.548240	0.001094	20.739819
380.107592	-3.001800	3.750900	-11.257000	23.553147	0.001095	20.760386
381.107978	-2.998800	3.751200	-11.248000	23.566859	0.001096	20.767493
382.105739	-3.022800	3.751100	-11.338000	23.552078	0.001095	20.750779
383.109674	-3.006800	3.750500	-11.276000	23.559567	0.001097	20.745958
384.107134	-3.008700	3.750500	-11.283000	23.571249	0.001097	20.765256
385.105406	-3.014900	3.750300	-11.305000	23.593696	0.001096	20.764525
386.107206	-3.008500	3.750300	-11.282000	23.611147	0.001096	20.763053
387.107764	-2.977500	3.750000	-11.165000	23.620981	0.001098	20.757738
388.106322	-3.046800	3.746800	-11.414000	23.613581	0.001098	20.758381
389.110547	-3.001200	3.749100	-11.250000	23.613488	0.001098	20.759235
390.108446	-3.013300	3.747300	-11.289000	23.640348	0.001098	20.756291
391.108835	-3.020100	3.748600	-11.320000	23.648635	0.001099	20.762228
392.111649	-3.017400	3.748300	-11.307000	23.630066	0.001099	20.767321
393.107265	-2.991400	3.747600	-11.208000	23.616646	0.001098	20.763349
394.108226	-2.999700	3.747400	-11.240000	23.626583	0.001100	20.755768
395.109707	-3.008800	3.746400	-11.272000	23.606363	0.001101	20.763473
396.108703	-3.003400	3.746800	-11.253000	23.613586	0.001100	20.780197
397.110165	-3.001000	3.745300	-11.239000	23.600067	0.001100	20.761428
398.117470	-2.986500	3.745100	-11.183000	23.583438	0.001099	20.787907
399.112556	-2.996000	3.746100	-11.222000	23.592302	0.001101	20.758385
400.111276	-2.989800	3.745700	-11.197000	23.607314	0.001099	20.782918
401.117358	-2.993000	3.745700	-11.210000	23.601141	0.001101	20.782894
402.112885	-2.980500	3.746600	-11.165000	23.571318	0.001101	20.762954
403.111808	-2.988100	3.744500	-11.187000	23.587996	0.001101	20.759759
404.109783	-3.012300	3.743400	-11.276000	23.549161	0.001101	20.794797
405.112714	-2.989700	3.743200	-11.190000	23.542908	0.001102	20.759131
406.114720	-3.014400	3.744100	-11.285000	23.555059	0.001101	20.774631
407.117433	-3.002100	3.743200	-11.237000	23.570269	0.001101	20.768541
408.112002	-2.983400	3.742900	-11.165000	23.576693	0.001101	20.785413
409.113001	-3.004000	3.743400	-11.243000	23.581325	0.001102	20.790056
410.118931	-2.975200	3.742600	-11.134000	23.569047	0.001103	20.792920
411.113860	-2.988400	3.742800	-11.185000	23.609482	0.001103	20.771815
412.116155	-3.011700	3.741000	-11.264000	23.596160	0.001103	20.780745
413.113176	-2.977600	3.741300	-11.139000	23.606166	0.001103	20.773233
414.112801	-3.025300	3.739900	-11.312000	23.609334	0.001103	20.788263
415.112860	-3.010500	3.740700	-11.261000	23.629125	0.001103	20.776809
416.119874	-2.996200	3.740600	-11.206000	23.634200	0.001105	20.802285
417.117143	-3.024100	3.738500	-11.304000	23.680954	0.001104	20.777085
418.112863	-3.011300	3.739800	-11.260000	23.708409	0.001104	20.779007
419.114424	-3.004100	3.739900	-11.234000	23.713636	0.001104	20.785670
420.111161	-2.991600	3.740600	-11.189000	23.755751	0.001104	20.807031
421.113781	-2.992100	3.738800	-11.185000	23.754160	0.001105	20.815867
422.114595	-2.987400	3.738000	-11.166000	23.771387	0.001107	20.786198
423.117945	-2.993900	3.738500	-11.192000	23.776564	0.001106	20.772897
424.114245	-2.987100	3.737400	-11.162000	23.811736	0.001106	20.798679
425.116621	-2.984900	3.737200	-11.154000	23.812012	0.001106	20.796111
426.116738	-2.989300	3.737400	-11.171000	23.820923	0.001106	20.783709
427.122958	-2.999900	3.737700	-11.212000	23.816287	0.001107	20.780958
428.116535	-2.976500	3.738300	-11.125000	23.807179	0.001105	20.806438
429.123725	-2.981300	3.737300	-11.140000	23.848951	0.001107	20.798536
430.113853	-2.983700	3.736300	-11.146000	23.828119	0.001106	20.781442
431.113448	-2.999100	3.736300	-11.204000	23.836104	0.001106	20.785655
432.117491	-2.991500	3.737100	-11.178000	23.870624	0.001107	20.794190
433.119336	-2.980300	3.735200	-11.131000	23.866373	0.001109	20.775228
434.117340	-3.022800	3.734800	-11.288000	23.877224	0.001107	20.806024
435.119206	-3.011300	3.735000	-11.246000	23.894898	0.001110	20.810943
436.119199	-2.993000	3.734600	-11.176000	23.888026	0.001107	20.833924
437.122507	-3.010100	3.733900	-11.239000	23.892129	0.001108	20.806745
438.120726	-3.014200	3.732000	-11.248000	23.885036	0.001110	20.779718
439.120231	-3.003700	3.732500	-11.211000	23.899498	0.001107	20.795167
440.119165	-3.015700	3.731700	-11.252000	23.921126	0.001109	20.824441
441.118928	-3.007500	3.731200	-11.220000	23.921229	0.001109	20.804631
442.118055	-3.007800	3.731500	-11.223000	23.949797	0.001108	20.812415
443.118663	-3.005700	3.731400	-11.215000	23.967163	0.001109	20.805648
444.116870	-2.987000	3.731300	-11.145000	23.951112	0.001108	20.818475
445.120703	-2.993400	3.729900	-11.164000	23.968513	0.001109	20.789932
446.120348	-2.988400	3.731900	-11.151000	23.957830	0.001110	20.810513
447.119811	-2.988100	3.730800	-11.147000	23.932124	0.001110	20.783314
448.122746	-2.986800	3.732300	-11.145000	23.939518	0.001110	20.816805
449.121793	-3.003000	3.730200	-11.201000	23.921722	0.001108	20.802280
450.123680	-3.004700	3.729200	-11.204000	23.900074	0.001109	20.832255
451.124008	-3.001000	3.730100	-11.193000	23.913265	0.001108	20.814188
452.120623	-2.979500	3.730600	-11.115000	23.909950	0.001111	20.830778
453.123783	-3.008400	3.729000	-11.217000	23.932006	0.001110	20.796946
454.125073	-3.005000	3.727400	-11.200000	23.929021	0.001109	20.820031
455.122621	-2.991300	3.727200	-11.148000	23.941911	0.001109	20.817783
456.123422	-2.970300	3.728900	-11.074000	23.952186	0.001110	20.806750
457.124156	-2.982000	3.727300	-11.114000	23.958904	0.001110	20.813961
458.131064	-3.005800	3.725900	-11.198000	23.966346	0.001110	20.829484
459.132392	-3.004200	3.727800	-11.198000	23.990110	0.001109	20.809219
460.128985	-2.997000	3.726700	-11.168000	24.010593	0.001108	20.821700
461.128406	-3.005400	3.726500	-11.198000	23.987229	0.001113	20.812020
462.131068	-3.007500	3.724200	-11.199000	23.981732	0.001109	20.834008
463.128217	-2.997700	3.725500	-11.167000	23.999699	0.001109	20.832111
464.127417	-3.003800	3.725800	-11.190000	24.001640	0.001111	20.818411
465.126709	-3.022200	3.723700	-11.252000	23.975709	0.001108	20.835554
466.128582	-3.032400	3.723500	-11.290000	23.973399	0.001109	20.824229
467.128055	-3.016800	3.723300	-11.231000	23.989869	0.001111	20.832684
468.129035	-3.013100	3.723500	-11.218000	24.001812	0.001111	20.822851
469.128157	-2.996000	3.723900	-11.156000	24.016848	0.001111	20.832714
470.127044	-3.002400	3.722500	-11.174000	24.039666	0.001110	20.828096
471.132371	-2.984800	3.723400	-11.112000	24.077065	0.001111	20.832413
472.127593	-2.988000	3.723500	-11.125000	24.056011	0.001112	20.852549
473.132586	-2.984400	3.723300	-11.111000	24.074425	0.001110	20.830239
474.135715	-2.995900	3.721600	-11.148000	24.052032	0.001111	20.832911
475.134206	-3.006900	3.722000	-11.190000	24.035908	0.001111	20.826698
476.130751	-2.976900	3.721400	-11.077000	24.038799	0.001111	20.820115
477.133337	-2.986100	3.721500	-11.112000	24.046369	0.001111	20.833870
478.130613	-3.006300	3.719400	-11.180000	24.057410	0.001111	20.834512
479.130645	-3.004000	3.720100	-11.174000	24.067964	0.001110	20.828501
480.135259	-2.973100	3.722600	-11.065000	24.092775	0.001113	20.841530
481.132041	-2.989800	3.720700	-11.122000	24.086580	0.001112	20.844325
482.132099	-3.005300	3.718300	-11.174000	24.110346	0.001111	20.851566
483.138117	-3.009600	3.719300	-11.193000	24.117659	0.001111	20.838512
484.132782	-2.993400	3.719100	-11.132000	24.108529	0.001110	20.849743
485.132424	-3.014100	3.717600	-11.205000	24.089589	0.001112	20.854455
486.135320	-2.988100	3.718400	-11.110000	24.097380	0.001111	20.851837
487.132572	-2.983000	3.719000	-11.092000	24.075263	0.001110	20.839614
488.132192	-3.017600	3.716600	-11.214000	24.091056	0.001112	20.835539
489.135939	-2.989900	3.717300	-11.113000	24.103427	0.001111	20.846523
490.134708	-2.998600	3.717800	-11.146000	24.085634	0.001112	20.852860
491.134498	-2.994600	3.716400	-11.128000	24.079685	0.001111	20.847842
492.136970	-3.004200	3.716800	-11.165000	24.104373	0.001111	20.854583
493.138831	-3.016200	3.715300	-11.205000	24.123677	0.001113	20.838858
494.136130	-3.039100	3.714500	-11.287000	24.152441	0.001112	20.828827
495.136524	-3.004700	3.716400	-11.165000	24.150727	0.001113	20.856979
496.135543	-2.996900	3.715700	-11.134000	24.158114	0.001113	20.843999
497.138508	-2.992200	3.714300	-11.113000	24.169332	0.001113	20.850983
498.138832	-2.989500	3.715700	-11.106000	24.191373	0.001114	20.840848
499.138325	-3.011600	3.712200	-11.179000	24.179082	0.001111	20.847960
500.137244	-2.983800	3.714000	-11.080000	24.179358	0.001113	20.852504
501.139153	-3.012300	3.713400	-11.183000	24.190299	0.001112	20.844039
502.137006	-3.008700	3.712800	-11.170000	24.190275	0.001111	20.845911
503.139744	-2.993600	3.712400	-11.112000	24.169071	0.001110	20.855937
504.149583	-2.995000	3.712500	-11.118000	24.165614	0.001111	20.860530
505.139051	-3.013600	3.711300	-11.183000	24.147600	0.001111	20.846256
506.137586	-3.005200	3.711600	-11.154000	24.143616	0.001113	20.844632
507.139381	-3.003000	3.712500	-11.148000	24.172424	0.001111	20.837490
508.141333	-3.007600	3.712100	-11.164000	24.180264	0.001111	20.859102
509.137569	-2.995300	3.710700	-11.113000	24.206658	0.001112	20.854282
510.139907	-3.006200	3.710300	-11.152000	24.206155	0.001112	20.840977
511.139693	-2.977800	3.711600	-11.051000	24.222824	0.001113	20.839678
512.139459	-2.996900	3.709900	-11.117000	24.214443	0.001111	20.848341
513.142946	-3.008100	3.708500	-11.154000	24.213320	0.001112	20.840577
514.141219	-2.991600	3.707500	-11.090000	24.228073	0.001111	20.825029
515.143870	-2.986600	3.709300	-11.077000	24.235114	0.001111	20.827824
516.140760	-2.995000	3.708700	-11.106000	24.250561	0.001113	20.821033
517.142127	-2.982800	3.709100	-11.063000	24.253993	0.001112	20.830165
518.138797	-3.003700	3.706900	-11.133000	24.280114	0.001111	20.836927
519.139042	-3.009700	3.706700	-11.154000	24.283325	0.001111	20.825449
520.143585	-3.019400	3.707200	-11.192000	24.288820	0.001113	20.810098
521.144883	-2.987800	3.706500	-11.073000	24.272399	0.001112	20.837248
522.146296	-3.008100	3.705300	-11.144000	24.272896	0.001111	20.828738
523.144012	-3.001200	3.706400	-11.123000	24.277347	0.001113	20.821349
524.142940	-2.996000	3.704800	-11.098000	24.273915	0.001113	20.849674
525.146003	-3.003300	3.705300	-11.127000	24.255953	0.001113	20.826442
526.143952	-3.028000	3.705000	-11.217000	24.237217	0.001112	20.820451
527.138730	-3.013900	3.705300	-11.167000	24.219579	0.001113	20.814613
528.143643	-2.997400	3.704600	-11.103000	24.237138	0.001111	20.811837
529.141598	-3.004400	3.703100	-11.124000	24.232312	0.001112	20.823118
530.143092	-2.982900	3.704500	-11.049000	24.210090	0.001110	20.825958
531.145515	-2.994900	3.703500	-11.091000	24.217781	0.001112	20.824189
532.142964	-3.002700	3.703100	-11.119000	24.199567	0.001111	20.818722
533.149191	-3.002400	3.703000	-11.117000	24.213074	0.001112	20.825632
534.144931	-2.990600	3.702400	-11.072000	24.203447	0.001109	20.832571
535.144002	-2.980700	3.701800	-11.033000	24.181968	0.001111	20.826200
536.145195	-3.007600	3.701100	-11.130000	24.195455	0.001114	20.806063
537.146184	-3.020300	3.701500	-11.179000	24.182588	0.001111	20.828719
538.145573	-3.012800	3.700700	-11.148000	24.206820	0.001111	20.810825
539.147325	-3.006800	3.701300	-11.129000	24.227571	0.001111	20.822629
540.146485	-3.006000	3.701500	-11.125000	24.273590	0.001112	20.826590
541.151803	-3.015000	3.700000	-11.154000	24.234804	0.001111	20.811867
542.146236	-2.998400	3.700200	-11.093000	24.257888	0.001110	20.815581
543.148815	-2.984000	3.700400	-11.040000	24.282143	0.001111	20.798186
544.149482	-2.989300	3.698800	-11.055000	24.293114	0.001112	20.828630
545.148884	-3.003300	3.697600	-11.104000	24.301144	0.001110	20.813452
546.148289	-2.996800	3.697700	-11.081000	24.312617	0.001110	20.817374
547.154510	-2.980300	3.699200	-11.024000	24.340002	0.001111	20.808810
548.147994	-2.959400	3.699300	-10.946000	24.355871	0.001112	20.821883
549.150613	-3.001500	3.696400	-11.093000	24.348727	0.001111	20.812820
550.147946	-3.017100	3.697100	-11.154000	24.359923	0.001112	20.828793
551.146742	-3.010100	3.695500	-11.122000	24.316388	0.001109	20.819261
552.150543	-2.988600	3.696400	-11.045000	24.331263	0.001111	20.807629
553.151245	-2.972500	3.696900	-10.987000	24.357407	0.001112	20.812993
554.149847	-3.002300	3.695300	-11.094000	24.376214	0.001111	20.798670
555.149961	-2.990900	3.697300	-11.057000	24.377357	0.001109	20.806928
556.147583	-2.999300	3.694500	-11.079000	24.385392	0.001110	20.791755
557.149100	-2.970700	3.697300	-10.982000	24.358150	0.001109	20.819903
558.151297	-3.033600	3.693600	-11.203000	24.358746	0.001110	20.821923
559.149914	-3.016100	3.693100	-11.138000	24.325960	0.001111	20.813690
560.148910	-2.982400	3.694900	-11.018000	24.306231	0.001109	20.811442
561.149717	-3.016300	3.693200	-11.138000	24.315783	0.001109	20.806800
562.147861	-2.996300	3.693200	-11.065000	24.308589	0.001110	20.807170
563.150155	-3.005300	3.692500	-11.096000	24.291972	0.001108	20.817053
564.152813	-2.989500	3.692100	-11.036000	24.324035	0.001108	20.786629
565.149322	-3.001900	3.692800	-11.083000	24.327866	0.001109	20.798058
566.149899	-3.010500	3.691600	-11.112000	24.336300	0.001109	20.810786
567.152170	-2.989300	3.692600	-11.037000	24.326625	0.001110	20.799658
568.150845	-3.007800	3.690900	-11.101000	24.316950	0.001110	20.794694
569.151914	-2.989400	3.691100	-11.033000	24.320677	0.001108	20.799855
570.159654	-3.009400	3.690700	-11.107000	24.340652	0.001108	20.803772
571.149835	-2.987900	3.691800	-11.029000	24.356570	0.001108	20.794136
572.152204	-3.014800	3.690800	-11.125000	24.370075	0.001109	20.805787
573.153982	-3.004100	3.689800	-11.084000	24.380208	0.001109	20.787029
574.152069	-3.005700	3.689700	-11.088000	24.388691	0.001109	20.793168
575.155248	-3.016200	3.688300	-11.123000	24.390527	0.001108	20.792639
576.157177	-3.014600	3.689500	-11.121000	24.426073	0.001107	20.786574
577.155367	-3.006700	3.688400	-11.088000	24.436343	0.001109	20.808731
578.155850	-3.012000	3.687600	-11.106000	24.433808	0.001108	20.800972
579.159688	-2.990800	3.688200	-11.030000	24.434531	0.001107	20.796482
580.152814	-3.001700	3.686400	-11.064000	24.408335	0.001107	20.810030
581.158989	-2.984400	3.686300	-10.999000	24.393018	0.001107	20.782811
582.156500	-3.012200	3.685200	-11.100000	24.371720	0.001108	20.792738
583.157077	-2.987700	3.686400	-11.013000	24.354576	0.001108	20.787868
584.154871	-3.008400	3.685600	-11.086000	24.349456	0.001106	20.789844
585.155812	-3.009900	3.684000	-11.087000	24.380080	0.001107	20.803970
586.156066	-2.985700	3.686900	-11.006000	24.398065	0.001107	20.795460
587.153634	-3.014500	3.684100	-11.105000	24.369632	0.001106	20.790644
588.157176	-3.010000	3.683000	-11.085000	24.385722	0.001106	20.768853
589.156018	-2.967000	3.684800	-10.931000	24.396893	0.001108	20.794758
590.156754	-2.985600	3.683800	-10.997000	24.395628	0.001106	20.794437
591.155891	-3.001700	3.683600	-11.056000	24.398242	0.001106	20.779990
592.156122	-2.982500	3.684300	-10.988000	24.400896	0.001108	20.804464
593.155718	-2.998700	3.684100	-11.046000	24.436919	0.001105	20.789869
594.157717	-3.034900	3.681300	-11.170000	24.433556	0.001106	20.778909
595.159221	-2.981200	3.683200	-10.980000	24.451915	0.001104	20.789266
596.155422	-3.007500	3.680800	-11.070000	24.441064	0.001107	20.784070
597.161507	-2.986500	3.682000	-10.994000	24.450743	0.001104	20.783349
598.160241	-2.982000	3.681600	-10.978000	24.451885	0.001106	20.785443
599.156209	-2.998300	3.680400	-11.034000	24.464420	0.001103	20.795173
600.160049	-2.993200	3.680700	-11.015000	24.499264	0.001106	20.798838
601.156124	-3.010900	3.680800	-11.081000	24.522323	0.001104	20.786886
602.157115	-2.994700	3.681300	-11.022000	24.523539	0.001104	20.784787
603.159558	-3.013500	3.678900	-11.085000	24.492446	0.001106	20.784885
604.155996	-3.017800	3.678700	-11.099000	24.485303	0.001105	20.774400
605.156619	-3.025200	3.677900	-11.125000	24.505177	0.001107	20.797658
606.160535	-3.036500	3.677900	-11.167000	24.532410	0.001106	20.779462
607.157732	-2.993000	3.678500	-11.009000	24.537209	0.001103	20.792813
608.160151	-3.011500	3.677800	-11.074000	24.550092	0.001104	20.797678
609.159414	-3.002600	3.677400	-11.041000	24.535221	0.001105	20.773748
610.159759	-2.985100	3.676200	-10.973000	24.546434	0.001104	20.794482
611.159629	-3.012100	3.676700	-11.074000	24.526438	0.001106	20.781532
612.158958	-3.003400	3.676600	-11.041000	24.515387	0.001104	20.802686
613.159220	-3.011000	3.675900	-11.065000	24.512802	0.001103	20.783498
614.158878	-3.013900	3.676000	-11.079000	24.539887	0.001104	20.770844
615.159515	-3.016100	3.675600	-11.085000	24.546302	0.001105	20.779650
616.159125	-3.013000	3.675300	-11.073000	24.533247	0.001104	20.785992
617.162581	-3.008600	3.675000	-11.056000	24.565456	0.001106	20.782273
618.161764	-3.016000	3.674300	-11.082000	24.572091	0.001104	20.779922
619.160137	-3.005600	3.673800	-11.041000	24.576866	0.001104	20.778075
620.160779	-3.031100	3.673600	-11.133000	24.615665	0.001103	20.775753
621.161386	-3.014000	3.674600	-11.074000	24.603576	0.001102	20.780219
622.160559	-3.001600	3.674500	-11.028000	24.596113	0.001101	20.788378
623.160303	-3.002400	3.672800	-11.027000	24.591235	0.001104	20.778268
624.161108	-2.991700	3.674500	-10.992000	24.615306	0.001102	20.782506
625.160303	-3.007500	3.672600	-11.045000	24.593544	0.001102	20.773472
626.165131	-3.021100	3.672300	-11.093000	24.620627	0.001102	20.779784
627.167253	-3.000000	3.671300	-11.013000	24.653823	0.001104	20.769471
628.164339	-3.009200	3.671900	-11.049000	24.631318	0.001104	20.757321
629.169914	-3.005300	3.670700	-11.030000	24.612934	0.001103	20.778229
630.166625	-2.995900	3.670800	-10.996000	24.563935	0.001101	20.762729
631.169574	-2.983900	3.672700	-10.958000	24.576542	0.001103	20.767792
632.169903	-3.011900	3.669400	-11.051000	24.556744	0.001102	20.767842
633.167754	-2.990900	3.669700	-10.974000	24.527468	0.001100	20.772608
634.168591	-2.982600	3.669000	-10.942000	24.550300	0.001101	20.755686
635.166047	-2.993500	3.669400	-10.983000	24.542783	0.001101	20.772801
636.179049	-3.010700	3.667900	-11.041000	24.535621	0.001102	20.775572
637.170999	-3.011900	3.667900	-11.046000	24.571827	0.001101	20.769699
638.173483	-2.991600	3.668000	-10.971000	24.568671	0.001100	20.776016
639.175991	-2.993700	3.669300	-10.984000	24.573392	0.001099	20.777434
640.171978	-2.993500	3.667300	-10.977000	24.602868	0.001099	20.771448
641.168231	-2.981700	3.667600	-10.935000	24.619673	0.001099	20.766973
642.169094	-3.001400	3.666400	-11.004000	24.623006	0.001098	20.774110
643.168192	-2.999900	3.666500	-10.998000	24.629045	0.001100	20.783016
644.170906	-2.992500	3.667300	-10.971000	24.660360	0.001099	20.761332
645.171419	-3.016500	3.666800	-11.060000	24.683485	0.001099	20.775054
646.168749	-2.996100	3.666600	-10.985000	24.666321	0.001097	20.752615
647.168584	-3.035400	3.664000	-11.120000	24.688628	0.001097	20.759826
648.168961	-2.978000	3.667600	-10.920000	24.689943	0.001097	20.771577
649.171550	-3.009600	3.663800	-11.026000	24.696661	0.001098	20.772629
650.169142	-2.986600	3.664400	-10.943000	24.701180	0.001098	20.766258
651.175782	-3.003800	3.665500	-11.009000	24.676284	0.001096	20.737007
652.169694	-3.001900	3.663000	-10.996000	24.705954	0.001096	20.767729
653.173246	-2.979800	3.665300	-10.921000	24.705300	0.001094	20.748106
654.173218	-3.018000	3.663700	-11.056000	24.681128	0.001097	20.763680
655.173035	-3.009300	3.663300	-11.021000	24.667317	0.001096	20.762623
656.173670	-2.997900	3.662900	-10.980000	24.666569	0.001094	20.759027
657.174640	-2.984900	3.663100	-10.933000	24.688300	0.001095	20.756652
658.175979	-2.997300	3.661800	-10.975000	24.726848	0.001096	20.763092
659.173114	-2.997800	3.661500	-10.975000	24.742288	0.001095	20.763888
660.173774	-3.001000	3.661600	-10.987000	24.763525	0.001096	20.751060
661.177858	-2.974500	3.662600	-10.894000	24.769781	0.001094	20.752597
662.181469	-3.006600	3.660800	-11.006000	24.751354	0.001093	20.752123
663.171086	-3.013200	3.660900	-11.030000	24.739341	0.001092	20.764249
664.177364	-2.996000	3.660200	-10.963000	24.741127	0.001094	20.754662
665.174827	-2.997500	3.659500	-10.968000	24.752940	0.001094	20.752291
666.173027	-2.999900	3.660600	-10.980000	24.751468	0.001093	20.761720
667.180221	-2.973000	3.661100	-10.884000	24.757109	0.001093	20.750311
668.174394	-2.989900	3.660300	-10.942000	24.742141	0.001093	20.770853
669.173853	-3.004100	3.658300	-10.988000	24.767803	0.001093	20.770053
670.178674	-3.004700	3.658000	-10.989000	24.743530	0.001092	20.745693
671.173650	-3.011400	3.657700	-11.013000	24.741483	0.001092	20.764502
672.176371	-2.986900	3.658600	-10.926000	24.723606	0.001094	20.733760
673.177938	-3.012600	3.657900	-11.019000	24.708506	0.001092	20.760807
674.176054	-2.991900	3.658300	-10.944000	24.673959	0.001091	20.762176
675.179967	-2.984300	3.658700	-10.918000	24.661122	0.001090	20.766839
676.179576	-3.026700	3.655600	-11.064000	24.637279	0.001090	20.770414
677.176272	-2.989200	3.656900	-10.931000	24.636009	0.001088	20.759183
678.177534	-3.001900	3.656300	-10.975000	24.669278	0.001089	20.757479
679.180643	-3.018700	3.654200	-11.030000	24.658937	0.001090	20.733350
680.179497	-2.984200	3.655700	-10.908000	24.649255	0.001089	20.764414
681.183887	-2.999400	3.654800	-10.961000	24.642546	0.001090	20.757681
682.180181	-2.998700	3.654200	-10.957000	24.654330	0.001088	20.754333
683.177746	-2.997700	3.655800	-10.958000	24.682007	0.001089	20.737534
684.178755	-2.997800	3.654800	-10.955000	24.698643	0.001087	20.739056
685.178838	-3.000000	3.653700	-10.961000	24.724631	0.001088	20.735736
686.178726	-2.986900	3.653500	-10.912000	24.748556	0.001088	20.747892
687.178023	-2.987000	3.653400	-10.911000	24.750293	0.001087	20.748687
688.181258	-2.977400	3.654600	-10.880000	24.782024	0.001088	20.754926
689.178818	-3.001000	3.653600	-10.963000	24.796769	0.001086	20.754076
690.180897	-3.011500	3.653200	-11.001000	24.816518	0.001087	20.739283
691.185032	-3.003900	3.652300	-10.971000	24.796321	0.001087	20.746988
692.184272	-3.009000	3.651100	-10.985000	24.756086	0.001088	20.735060
693.182109	-3.002600	3.651900	-10.963000	24.755840	0.001086	20.735761
694.180891	-2.996100	3.651700	-10.940000	24.777525	0.001086	20.729073
695.187005	-3.004100	3.651300	-10.968000	24.774509	0.001086	20.733158
696.185100	-2.989500	3.651500	-10.915000	24.775754	0.001086	20.754797
697.181048	-3.007700	3.650000	-10.977000	24.744171	0.001086	20.730689
698.182513	-3.000100	3.650600	-10.951000	24.728997	0.001085	20.743437
699.180986	-3.021000	3.649800	-11.024000	24.726733	0.001085	20.749226
700.182758	-2.981100	3.649900	-10.880000	24.754680	0.001084	20.746451
701.183276	-2.992200	3.649700	-10.920000	24.781817	0.001087	20.754719
702.181026	-3.001900	3.649700	-10.953000	24.762815	0.001085	20.742287
703.187783	-2.989200	3.647900	-10.903000	24.775592	0.001085	20.728556
704.186426	-3.007400	3.648600	-10.972000	24.809630	0.001084	20.739956
705.186025	-2.987400	3.648500	-10.898000	24.859109	0.001083	20.736508
706.187742	-2.991800	3.648400	-10.914000	24.862638	0.001085	20.734834
707.190544	-3.015200	3.646800	-10.995000	24.853288	0.001084	20.733036
708.187427	-3.021900	3.646000	-11.017000	24.826053	0.001084	20.723721
709.188834	-3.001000	3.647700	-10.945000	24.832244	0.001082	20.744634
710.188226	-2.991200	3.647300	-10.909000	24.778153	0.001083	20.732548
711.189015	-2.976000	3.648000	-10.855000	24.744981	0.001083	20.736717
712.188363	-2.987500	3.646100	-10.892000	24.734039	0.001082	20.726685
713.189435	-2.988900	3.646800	-10.898000	24.765839	0.001082	20.729674
714.190022	-3.004300	3.645600	-10.952000	24.756833	0.001081	20.741025
715.192527	-3.005600	3.644400	-10.953000	24.794729	0.001082	20.735908
716.190365	-2.981900	3.644900	-10.868000	24.834785	0.001082	20.746236
717.191433	-2.982300	3.644700	-10.869000	24.847418	0.001080	20.732361
718.192740	-3.008200	3.644500	-10.963000	24.885159	0.001081	20.725669
719.191309	-2.995600	3.644700	-10.917000	24.892463	0.001081	20.727783
720.194059	-3.018300	3.642200	-10.991000	24.889924	0.001080	20.736141
721.193940	-2.996000	3.642900	-10.912000	24.888999	0.001081	20.735687
722.194802	-2.992700	3.642100	-10.899000	24.908491	0.001077	20.734388
723.195824	-2.994400	3.643800	-10.910000	24.926714	0.001080	20.728970
724.195477	-2.996500	3.641700	-10.911000	24.959507	0.001081	20.728693
725.197982	-3.013700	3.642000	-10.974000	24.953533	0.001079	20.745458
726.195366	-2.985700	3.641400	-10.871000	24.942393	0.001079	20.736646
727.198792	-2.993900	3.640500	-10.899000	24.941443	0.001078	20.728581
728.199274	-2.998800	3.642100	-10.921000	24.944002	0.001076	20.733994
729.197795	-3.006200	3.643100	-10.950000	24.959961	0.001078	20.754280
730.196861	-2.985600	3.641300	-10.870000	24.963263	0.001077	20.733412
731.197915	-3.006000	3.640100	-10.941000	24.961398	0.001077	20.723479
732.195471	-2.998600	3.639700	-10.912000	24.980338	0.001076	20.745810
733.200997	-2.987500	3.639100	-10.870000	24.980063	0.001077	20.728463
734.200949	-3.010700	3.639200	-10.955000	25.002531	0.001076	20.716876
735.197798	-2.986300	3.639400	-10.867000	24.996415	0.001076	20.738239
736.201084	-3.006500	3.638600	-10.938000	24.968417	0.001076	20.740956
737.203790	-3.004300	3.639100	-10.932000	24.959909	0.001075	20.715346
738.201520	-3.014600	3.636800	-10.962000	24.946377	0.001073	20.724049
739.204401	-2.992600	3.638300	-10.887000	24.926310	0.001074	20.714813
740.205553	-2.980700	3.638500	-10.844000	24.892267	0.001074	20.727587
741.198729	-3.004300	3.638600	-10.930000	24.929041	0.001073	20.729883
742.203756	-2.986800	3.637800	-10.864000	24.919564	0.001073	20.734122
743.203362	-3.011900	3.635900	-10.950000	24.945173	0.001073	20.731850
744.203654	-2.986700	3.637100	-10.862000	24.943796	0.001072	20.734735
745.203224	-3.019700	3.635800	-10.977000	24.936907	0.001072	20.733036
746.204245	-3.030000	3.635100	-11.013000	24.939840	0.001074	20.758741
747.216257	-2.981500	3.635200	-10.836000	24.928000	0.001071	20.738796
748.204361	-3.034000	3.635300	-11.029000	24.919615	0.001073	20.759305
749.205061	-2.985600	3.636400	-10.855000	24.873092	0.001072	20.748172
750.203688	-2.993200	3.636000	-10.882000	24.857649	0.001073	20.745949
751.205735	-2.986800	3.634200	-10.854000	24.860800	0.001071	20.748163
752.205864	-3.001200	3.634500	-10.907000	24.886877	0.001070	20.740196
753.204339	-3.000600	3.632700	-10.899000	24.913029	0.001070	20.729933
754.207330	-2.995400	3.634300	-10.885000	24.953335	0.001070	20.744311
755.210867	-2.999000	3.633200	-10.895000	24.975636	0.001070	20.747729
756.203543	-3.015000	3.631900	-10.950000	25.004965	0.001068	20.727854
757.207877	-3.011000	3.631600	-10.933000	25.009639	0.001068	20.735391
758.210433	-2.988900	3.632400	-10.856000	24.976588	0.001068	20.758168
759.204294	-2.996800	3.633000	-10.887000	24.957323	0.001068	20.746891
760.207276	-2.976400	3.633900	-10.814000	24.980712	0.001070	20.731960
761.206954	-3.028800	3.629900	-10.993000	25.009749	0.001067	20.754469
762.203302	-2.994900	3.631900	-10.876000	25.007136	0.001068	20.739992
763.204060	-2.997100	3.631800	-10.884000	25.036990	0.001068	20.738664
764.209033	-2.979900	3.632200	-10.822000	25.030898	0.001067	20.738713
765.206795	-2.991300	3.632200	-10.863000	25.026268	0.001067	20.738808
766.209328	-3.002300	3.630000	-10.896000	25.044194	0.001066	20.748266
767.207154	-3.013600	3.628100	-10.932000	25.044760	0.001066	20.745990
768.204206	-2.985700	3.630400	-10.838000	25.044711	0.001065	20.747837
769.209383	-3.012500	3.628000	-10.928000	25.044111	0.001068	20.760512
770.208484	-2.983700	3.629700	-10.828000	25.052166	0.001066	20.752001
771.208817	-2.998000	3.628500	-10.877000	25.047738	0.001066	20.746608
772.211355	-3.007600	3.626500	-10.905000	25.035082	0.001065	20.750974
773.212960	-3.010000	3.628000	-10.918000	25.022098	0.001064	20.738415
774.212442	-2.989500	3.629500	-10.849000	25.017999	0.001063	20.751844
775.208611	-2.981200	3.627900	-10.814000	25.010613	0.001065	20.745379
776.212393	-3.001700	3.627200	-10.886000	25.038311	0.001063	20.742361
777.210327	-3.017700	3.626800	-10.943000	25.049918	0.001061	20.748797
778.210621	-2.990500	3.626900	-10.846000	25.049643	0.001062	20.735244
779.209852	-3.019000	3.625100	-10.943000	25.066298	0.001062	20.759550
780.208431	-2.995700	3.627100	-10.864000	25.112838	0.001059	20.749370
781.208562	-2.991100	3.625300	-10.842000	25.134639	0.001061	20.761773
782.213685	-3.000500	3.625700	-10.878000	25.140278	0.001061	20.773123
783.209781	-2.993300	3.624300	-10.848000	25.167184	0.001062	20.737071
784.211975	-2.982700	3.625700	-10.813000	25.187612	0.001061	20.745725
785.210084	-2.994200	3.623800	-10.848000	25.163799	0.001060	20.744579
786.213747	-2.999300	3.622700	-10.865000	25.197205	0.001061	20.734019
787.211051	-2.993000	3.624500	-10.847000	25.213785	0.001062	20.729327
788.210452	-2.999900	3.622400	-10.865000	25.204142	0.001060	20.759476
789.209135	-3.054700	3.621700	-11.063000	25.239386	0.001061	20.764040
790.211868	-2.992200	3.623500	-10.841000	25.225484	0.001058	20.742970
791.211558	-3.015600	3.623000	-10.923000	25.184896	0.001059	20.763863
792.210829	-3.019400	3.620600	-10.930000	25.131521	0.001058	20.735408
793.213209	-3.003700	3.620300	-10.873000	25.127816	0.001059	20.758717
794.215133	-3.003000	3.621100	-10.873000	25.149843	0.001056	20.780829
795.208657	-2.993000	3.620900	-10.837000	25.143428	0.001058	20.760164
796.213245	-3.017000	3.621600	-10.924000	25.181011	0.001056	20.742417
797.219808	-3.007600	3.619700	-10.886000	25.188189	0.001058	20.770488
798.212698	-2.992500	3.619700	-10.831000	25.179068	0.001057	20.767494
799.216902	-2.990500	3.619400	-10.823000	25.189134	0.001055	20.754366
800.222640	-2.995500	3.618900	-10.840000	25.199997	0.001057	20.767169
801.214638	-2.997400	3.619200	-10.847000	25.221299	0.001055	20.757261
802.218696	-2.983600	3.620500	-10.801000	25.207372	0.001056	20.760823
803.219511	-3.022100	3.617800	-10.932000	25.240678	0.001055	20.759647
804.215984	-2.983800	3.619000	-10.798000	25.252037	0.001055	20.757301
805.217869	-2.986500	3.618400	-10.806000	25.243532	0.001055	20.753503
806.219800	-3.003800	3.618100	-10.865000	25.264956	0.001053	20.765531
807.215254	-2.987400	3.617800	-10.807000	25.227347	0.001054	20.780403
808.219650	-2.986600	3.617400	-10.803000	25.191675	0.001054	20.774461
809.217685	-3.007400	3.616000	-10.874000	25.188344	0.001054	20.771592
810.222106	-2.986400	3.616900	-10.801000	25.173103	0.001052	20.770515
811.221839	-2.991000	3.616200	-10.816000	25.140362	0.001050	20.783165
812.219616	-2.988300	3.615900	-10.804000	25.137429	0.001052	20.751771
813.220998	-3.002900	3.615500	-10.856000	25.132579	0.001052	20.770136
814.220928	-2.972000	3.615700	-10.745000	25.174191	0.001050	20.771608
815.219683	-2.981200	3.615300	-10.777000	25.184651	0.001050	20.759823
816.219886	-2.986900	3.614800	-10.796000	25.169090	0.001050	20.766486
817.221822	-3.020600	3.612500	-10.911000	25.214151	0.001049	20.792759
818.219632	-2.985300	3.615100	-10.791000	25.175102	0.001050	20.771574
819.219888	-2.997800	3.613200	-10.831000	25.140517	0.001048	20.765777
820.220712	-3.002900	3.613500	-10.849000	25.129958	0.001048	20.771298
821.218583	-3.025200	3.612100	-10.926000	25.093280	0.001047	20.764824
822.220278	-3.031600	3.611500	-10.947000	25.073067	0.001048	20.780096
823.223146	-3.000200	3.612400	-10.835000	25.083828	0.001047	20.768613
824.222637	-3.004700	3.612300	-10.852000	25.052530	0.001046	20.761377
825.221286	-2.982300	3.612600	-10.772000	25.044250	0.001046	20.767289
826.225235	-2.993300	3.612600	-10.812000	25.113832	0.001045	20.774550
827.222418	-2.996700	3.610800	-10.819000	25.119072	0.001046	20.772699
828.221658	-3.012200	3.609700	-10.872000	25.119372	0.001045	20.771103
829.225115	-2.991500	3.609500	-10.797000	25.170058	0.001046	20.778364
830.221695	-2.997600	3.611700	-10.823000	25.205156	0.001047	20.787995
831.222786	-3.000700	3.610400	-10.833000	25.215394	0.001044	20.778359
832.222217	-2.980400	3.611200	-10.762000	25.257476	0.001046	20.786944
833.221398	-2.987400	3.608800	-10.779000	25.288743	0.001046	20.789413
834.223230	-3.023100	3.607600	-10.905000	25.270001	0.001042	20.764905
835.220688	-3.022100	3.606600	-10.899000	25.267787	0.001043	20.764580
836.223595	-3.000900	3.608300	-10.826000	25.278920	0.001043	20.795672
837.225161	-2.979700	3.608600	-10.751000	25.256050	0.001044	20.776504
838.223242	-2.990000	3.608600	-10.789000	25.286197	0.001041	20.775003
839.222361	-2.996300	3.608000	-10.809000	25.293851	0.001042	20.772731
840.226125	-2.992300	3.608400	-10.797000	25.290320	0.001041	20.798583
841.224496	-2.991700	3.608000	-10.792000	25.258206	0.001040	20.811385
842.226528	-2.994600	3.607100	-10.800000	25.212646	0.001041	20.779868
843.225583	-2.996000	3.606900	-10.804000	25.196460	0.001040	20.760299
844.224611	-2.998500	3.606300	-10.813000	25.175975	0.001038	20.797106
845.227549	-2.971700	3.607700	-10.720000	25.185770	0.001039	20.771378
846.225139	-3.017300	3.606200	-10.879000	25.176452	0.001038	20.790947
847.223426	-2.992400	3.605900	-10.789000	25.197927	0.001040	20.789747
848.223101	-3.003400	3.606400	-10.830000	25.226215	0.001039	20.775472
849.223910	-3.004700	3.605600	-10.833000	25.265315	0.001037	20.787702
850.246456	-3.011900	3.604900	-10.856000	25.289847	0.001037	20.781513
851.226458	-3.005300	3.605100	-10.833000	25.297600	0.001036	20.793091
852.224287	-3.024500	3.602300	-10.893000	25.354519	0.001036	20.781014
853.226739	-3.005200	3.603800	-10.828000	25.325142	0.001036	20.794192
854.232034	-3.021000	3.600900	-10.877000	25.344175	0.001035	20.785801
855.227883	-2.999600	3.603200	-10.807000	25.358223	0.001036	20.789475
856.227614	-3.012900	3.603200	-10.855000	25.347317	0.001036	20.787059
857.230915	-3.000400	3.603400	-10.811000	25.372365	0.001035	20.791821
858.230557	-3.015600	3.600400	-10.856000	25.319948	0.001035	20.788976
859.226787	-2.987000	3.602600	-10.761000	25.281696	0.001034	20.809364
860.236283	-3.018200	3.600500	-10.865000	25.246054	0.001033	20.808668
861.227126	-3.008300	3.601100	-10.833000	25.227385	0.001035	20.785657
862.228881	-2.998400	3.600200	-10.794000	25.223981	0.001034	20.785558
863.234746	-3.003600	3.600400	-10.813000	25.221324	0.001032	20.788106
864.229053	-2.981100	3.600600	-10.732000	25.217192	0.001034	20.804821
865.231670	-3.002800	3.600700	-10.811000	25.242424	0.001034	20.790798
866.231739	-3.006600	3.599700	-10.822000	25.276899	0.001033	20.784160
867.228221	-3.012900	3.598400	-10.840000	25.339309	0.001033	20.798933
868.228034	-2.992600	3.599000	-10.769000	25.343806	0.001033	20.765515
869.234319	-3.005900	3.596900	-10.810000	25.352655	0.001030	20.799057
870.227656	-2.995000	3.598700	-10.777000	25.366054	0.001030	20.813459
871.229147	-2.995300	3.597800	-10.775000	25.361032	0.001030	20.786605
872.233551	-3.006600	3.597900	-10.816000	25.367269	0.001030	20.792868
873.230306	-3.003800	3.596000	-10.801000	25.400866	0.001030	20.813800
874.229621	-2.996600	3.596900	-10.777000	25.385381	0.001029	20.820063
875.234336	-3.008600	3.595800	-10.817000	25.428352	0.001029	20.824805
876.231034	-2.994800	3.596100	-10.769000	25.405957	0.001028	20.817016
877.237814	-2.992500	3.595600	-10.759000	25.354634	0.001028	20.801044
878.237238	-2.985400	3.597100	-10.738000	25.349715	0.001026	20.807484
879.237374	-2.995900	3.594800	-10.768000	25.364846	0.001027	20.809401
880.236107	-3.012300	3.594700	-10.828000	25.383759	0.001026	20.795675
881.239275	-3.007500	3.594100	-10.809000	25.392004	0.001026	20.791152
882.238779	-2.997900	3.593500	-10.772000	25.417704	0.001024	20.790406
883.237816	-3.008100	3.592800	-10.806000	25.460940	0.001024	20.801579
884.242790	-2.995200	3.592700	-10.760000	25.463404	0.001023	20.813062
885.238364	-3.006200	3.593600	-10.802000	25.494665	0.001024	20.805574
886.239900	-2.992100	3.593500	-10.749000	25.480923	0.001023	20.818327
887.241671	-2.999100	3.592100	-10.772000	25.452933	0.001022	20.804919
888.241863	-3.009700	3.592700	-10.812000	25.441100	0.001022	20.807734
889.241513	-3.006700	3.591700	-10.798000	25.430761	0.001020	20.818689
890.242654	-3.011600	3.591800	-10.816000	25.441219	0.001020	20.818759
891.242981	-2.995600	3.590700	-10.756000	25.458689	0.001020	20.828242
892.243079	-2.989600	3.589900	-10.730000	25.467932	0.001019	20.800539
893.248527	-3.015900	3.589900	-10.826000	25.514450	0.001020	20.824494
894.242729	-2.992600	3.590300	-10.743000	25.534301	0.001019	20.813135
895.242500	-2.989300	3.589200	-10.727000	25.543547	0.001017	20.807248
896.242661	-2.956500	3.590800	-10.613000	25.523417	0.001019	20.824016
897.248003	-3.008100	3.587600	-10.791000	25.513079	0.001017	20.816479
898.246589	-2.981400	3.590200	-10.701000	25.469738	0.001016	20.825112
899.244064	-3.005100	3.589100	-10.784000	25.481567	0.001017	20.803801
900.252090	-3.000900	3.588800	-10.769000	25.508131	0.001016	20.825261
901.244003	-3.008000	3.588000	-10.792000	25.541329	0.001015	20.829202
902.243421	-3.007900	3.587800	-10.791000	25.528434	0.001013	20.833795
903.243217	-3.006400	3.587500	-10.784000	25.500724	0.001013	20.830151
904.245505	-3.028500	3.585800	-10.859000	25.515484	0.001013	20.823162
905.245839	-2.995900	3.587500	-10.745000	25.502884	0.001013	20.828526
906.246643	-3.011000	3.586300	-10.797000	25.486087	0.001012	20.817823
907.246342	-3.015200	3.586300	-10.813000	25.496853	0.001011	20.806823
908.246044	-3.007500	3.585500	-10.782000	25.484326	0.001013	20.826485
909.248626	-2.979300	3.586700	-10.685000	25.521627	0.001012	20.834072
910.247750	-3.017700	3.583800	-10.814000	25.529702	0.001011	20.858776
911.245979	-2.998900	3.585600	-10.751000	25.521881	0.001010	20.831483
912.249580	-2.985800	3.583500	-10.699000	25.529933	0.001009	20.838619
913.249780	-2.996800	3.583900	-10.737000	25.572848	0.001009	20.838096
914.247646	-2.984500	3.584400	-10.696000	25.572700	0.001008	20.827990
915.249621	-3.015900	3.582000	-10.802000	25.566045	0.001006	20.840747
916.249636	-2.973100	3.583400	-10.653000	25.578095	0.001009	20.819184
917.250956	-2.993700	3.583600	-10.727000	25.593905	0.001008	20.834588
918.254291	-2.981300	3.585100	-10.687000	25.598404	0.001007	20.839580
919.249729	-2.982600	3.583500	-10.687000	25.586877	0.001008	20.828477
920.255289	-3.007900	3.582200	-10.774000	25.558303	0.001006	20.842454
921.253550	-2.984100	3.582300	-10.689000	25.556040	0.001005	20.842553
922.252494	-2.998300	3.581800	-10.739000	25.565783	0.001005	20.825311
923.253992	-3.005200	3.580400	-10.758000	25.558459	0.001005	20.831706
924.254763	-3.004700	3.580400	-10.756000	25.556698	0.001004	20.835153
925.259398	-3.006300	3.581200	-10.765000	25.558611	0.001004	20.832807
926.255543	-3.020600	3.579600	-10.810000	25.580058	0.001003	20.831587
927.257846	-3.008400	3.579500	-10.768000	25.561748	0.001003	20.836431
928.256778	-3.006600	3.578700	-10.758000	25.566326	0.001002	20.830598
929.259325	-2.993700	3.579800	-10.716000	25.534372	0.001000	20.828380
930.258715	-3.004700	3.578500	-10.751000	25.510547	0.001002	20.842386
931.257298	-2.978500	3.580800	-10.665000	25.467999	0.001001	20.837116
932.258787	-3.020200	3.577600	-10.804000	25.446185	0.001002	20.853616
933.269674	-2.985400	3.578400	-10.682000	25.480284	0.001000	20.848030
934.260850	-2.989500	3.577000	-10.691000	25.504537	0.001001	20.840617
935.261749	-2.992800	3.576700	-10.704000	25.469478	0.000999	20.839075
936.262877	-3.020800	3.575800	-10.801000	25.492647	0.000999	20.832945
937.258238	-3.014000	3.575200	-10.774000	25.473756	0.000998	20.841001
938.259851	-3.017700	3.576700	-10.791000	25.483101	0.000997	20.846592
939.258707	-3.005400	3.576600	-10.748000	25.485811	0.000999	20.825606
940.258842	-2.998200	3.576000	-10.721000	25.490414	0.000997	20.843504
941.261095	-3.019400	3.573900	-10.789000	25.538180	0.000995	20.842634
942.259944	-3.008300	3.574600	-10.752000	25.560095	0.000996	20.852315
943.259638	-2.989100	3.575300	-10.686000	25.552516	0.000997	20.839488
944.263586	-2.988400	3.573900	-10.679000	25.578935	0.000995	20.848002
945.257757	-2.985200	3.574200	-10.669000	25.579982	0.000994	20.856640
946.256829	-2.995300	3.573900	-10.704000	25.577022	0.000994	20.835650
947.260743	-2.984800	3.573600	-10.665000	25.583661	0.000992	20.845636
948.261006	-2.999700	3.573500	-10.717000	25.583012	0.000994	20.865372
949.257765	-3.004100	3.574400	-10.737000	25.561245	0.000990	20.856314
950.262688	-3.002300	3.573500	-10.727000	25.529612	0.000993	20.838297
951.265414	-3.007500	3.572700	-10.744000	25.533910	0.000991	20.860631
952.259804	-3.019300	3.570500	-10.779000	25.549191	0.000990	20.867916
953.263051	-2.983600	3.571400	-10.655000	25.559981	0.000989	20.841295
954.263694	-3.010100	3.570600	-10.746000	25.577002	0.000990	20.849854
955.263214	-3.018700	3.570900	-10.778000	25.585771	0.000990	20.873832
956.266559	-3.005600	3.570200	-10.729000	25.627243	0.000989	20.866646
957.261616	-2.976000	3.569600	-10.622000	25.637806	0.000990	20.857815
958.264248	-3.013900	3.568700	-10.755000	25.647995	0.000988	20.862358
959.262647	-3.013800	3.569100	-10.756000	25.670828	0.000987	20.869169
960.266480	-2.999000	3.570600	-10.707000	25.683550	0.000987	20.882894
961.262083	-3.003900	3.569700	-10.721000	25.720667	0.000987	20.845735
962.265727	-3.012000	3.568800	-10.748000	25.716648	0.000987	20.863509
963.265453	-3.003400	3.567400	-10.713000	25.731352	0.000986	20.863579
964.264479	-2.997700	3.566700	-10.690000	25.748744	0.000985	20.870142
965.266424	-2.992500	3.568100	-10.677000	25.738905	0.000983	20.881121
966.265431	-3.016000	3.567100	-10.758000	25.749688	0.000983	20.864927
967.273051	-2.993200	3.566500	-10.674000	25.747102	0.000983	20.864226
968.263342	-3.002100	3.566500	-10.706000	25.744073	0.000983	20.880622
969.268624	-3.000400	3.567600	-10.703000	25.713590	0.000982	20.856644
970.272143	-3.003300	3.566200	-10.708000	25.674707	0.000983	20.859316
971.266146	-2.995800	3.566300	-10.682000	25.648566	0.000983	20.873836
972.268977	-3.019600	3.565000	-10.764000	25.670183	0.000982	20.859988
973.264363	-2.997700	3.565800	-10.688000	25.684400	0.000982	20.867154
974.266674	-3.017400	3.564600	-10.755000	25.667877	0.000981	20.872369
975.268155	-3.004300	3.564200	-10.706000	25.689046	0.000980	20.872295
976.268214	-2.998800	3.563500	-10.685000	25.686567	0.000979	20.862693
977.270655	-2.993900	3.565400	-10.673000	25.720807	0.000981	20.883806
978.272458	-3.015400	3.561800	-10.739000	25.694371	0.000978	20.877168
979.269562	-3.013200	3.563600	-10.736000	25.663091	0.000977	20.873252
980.272474	-3.005500	3.562000	-10.703000	25.663538	0.000979	20.890295
981.269157	-2.992000	3.563400	-10.660000	25.608902	0.000978	20.862450
982.268130	-2.996200	3.562000	-10.671000	25.614050	0.000976	20.878525
983.272474	-2.997800	3.560700	-10.673000	25.617749	0.000974	20.878921
984.269620	-3.013400	3.561500	-10.731000	25.633185	0.000976	20.869769
985.270755	-3.000900	3.560500	-10.683000	25.672693	0.000973	20.875310
986.268057	-3.024400	3.560600	-10.767000	25.689442	0.000973	20.872692
987.276704	-2.976100	3.561500	-10.598000	25.750732	0.000975	20.885889
988.273169	-2.983100	3.560800	-10.622000	25.748622	0.000974	20.879977
989.277256	-2.999700	3.558100	-10.672000	25.729917	0.000974	20.873991
990.275392	-2.999900	3.559200	-10.677000	25.746640	0.000971	20.867555
991.273996	-2.987800	3.559100	-10.633000	25.744112	0.000972	20.847473
992.277093	-2.985400	3.560700	-10.628000	25.752141	0.000972	20.856960
993.272195	-3.005500	3.557900	-10.691000	25.760539	0.000970	20.878671
994.273253	-3.025000	3.556500	-10.757000	25.774081	0.000969	20.867144
995.274136	-3.003700	3.558300	-10.687000	25.772915	0.000969	20.854120
996.273095	-2.995500	3.557200	-10.654000	25.784844	0.000968	20.881747
997.272197	-2.973800	3.558700	-10.581000	25.782390	0.000968	20.861265
998.277328	-3.003800	3.557400	-10.685000	25.811356	0.000969	20.863335
999.271732	-3.007100	3.555700	-10.690000	25.832605	0.000969	20.860499
1000.276177	-3.021300	3.554600	-10.738000	25.845846	0.000966	20.862420
1001.277043	-2.976200	3.555800	-10.581000	25.823592	0.000965	20.853342
1002.274162	-2.997300	3.555000	-10.654000	25.799868	0.000965	20.843735
1003.272851	-2.989400	3.555200	-10.627000	25.748765	0.000965	20.856413
1004.273926	-3.039400	3.554100	-10.800000	25.709957	0.000964	20.854418
1005.276428	-3.007000	3.553500	-10.685000	25.725367	0.000964	20.853301
1006.271106	-3.010600	3.553000	-10.695000	25.733220	0.000963	20.855025
1007.277491	-3.009200	3.553200	-10.690000	25.728799	0.000964	20.849636
1008.272606	-3.012000	3.553400	-10.702000	25.747037	0.000963	20.840929
1009.273876	-2.997500	3.553500	-10.650000	25.753503	0.000963	20.841259
1010.278585	-2.981700	3.552800	-10.593000	25.716682	0.000960	20.843630
1011.277824	-3.020100	3.552000	-10.726000	25.690821	0.000961	20.820974
1012.274879	-2.983900	3.553600	-10.602000	25.721264	0.000960	20.844438
1013.276667	-2.980700	3.551800	-10.585000	25.766282	0.000958	20.841293
1014.276282	-2.987300	3.551400	-10.608000	25.775830	0.000960	20.841400
1015.274781	-3.002200	3.550500	-10.658000	25.789991	0.000960	20.835237
1016.275499	-3.009500	3.549200	-10.680000	25.829424	0.000957	20.838338
1017.273624	-2.978900	3.550000	-10.574000	25.815814	0.000957	20.832727
1018.275661	-3.037800	3.549200	-10.779000	25.841401	0.000955	20.829981
1019.277464	-3.017700	3.547700	-10.704000	25.853082	0.000956	20.820379
1020.276086	-2.990800	3.549900	-10.616000	25.847123	0.000954	20.819608
1021.276867	-3.006200	3.549800	-10.670000	25.847300	0.000953	20.819311
1022.278186	-3.000300	3.547900	-10.643000	25.844920	0.000953	20.826403
1023.279911	-3.017900	3.548300	-10.708000	25.846316	0.000953	20.815003
1024.275043	-3.009900	3.547400	-10.676000	25.845873	0.000954	20.843481
1025.278528	-3.000700	3.547600	-10.644000	25.852653	0.000952	20.838913
1026.278134	-3.001100	3.547300	-10.645000	25.840041	0.000952	20.805381
1027.275056	-3.000100	3.547700	-10.642000	25.850975	0.000952	20.826796
1028.274778	-2.997800	3.545900	-10.628000	25.845213	0.000951	20.821956
1029.274625	-3.001200	3.545200	-10.639000	25.845989	0.000948	20.818469
1030.279661	-3.006500	3.545700	-10.660000	25.840457	0.000952	20.816231
1031.281431	-3.014300	3.545600	-10.686000	25.840309	0.000949	20.805177
1032.274889	-2.996400	3.544800	-10.621000	25.838175	0.000947	20.826740
1033.275423	-3.025200	3.543400	-10.719000	25.852340	0.000951	20.816314
1034.282046	-2.991700	3.544500	-10.602000	25.840195	0.000947	20.807907
1035.277490	-3.039600	3.542800	-10.767000	25.840799	0.000948	20.828902
1036.278007	-2.992500	3.542700	-10.599000	25.848750	0.000947	20.818871
1037.279289	-3.002500	3.542500	-10.635000	25.823742	0.000947	20.808923
1038.274378	-2.991600	3.542100	-10.596000	25.821633	0.000945	20.812968
1039.276412	-2.989400	3.543300	-10.591000	25.829411	0.000945	20.816988
1040.281495	-2.998100	3.544500	-10.626000	25.822434	0.000943	20.818040
1041.279681	-3.005300	3.540000	-10.637000	25.848772	0.000944	20.796609
1042.276886	-3.008800	3.540800	-10.652000	25.842813	0.000944	20.809114
1043.288560	-2.997800	3.541300	-10.615000	25.850542	0.000943	20.795067
1044.277492	-2.982300	3.541300	-10.559000	25.866447	0.000942	20.803933
1045.275949	-3.017500	3.538500	-10.677000	25.877632	0.000941	20.797625
1046.277980	-3.029600	3.537700	-10.717000	25.868561	0.000940	20.778555
1047.275553	-2.995700	3.539400	-10.602000	25.875350	0.000941	20.807661
1048.279187	-3.012400	3.539200	-10.660000	25.900695	0.000941	20.789974
1049.280208	-2.997900	3.539300	-10.610000	25.897917	0.000940	20.794769
1050.277304	-3.011000	3.540000	-10.658000	25.883334	0.000939	20.793396
1051.282115	-2.997300	3.538100	-10.603000	25.853352	0.000936	20.776079
1052.280176	-3.002400	3.538000	-10.621000	25.855373	0.000938	20.794230
1053.278771	-3.006100	3.539100	-10.638000	25.856902	0.000937	20.780120
1054.280535	-3.004000	3.536100	-10.622000	25.846724	0.000937	20.789336
1055.279199	-2.985100	3.538000	-10.560000	25.852368	0.000936	20.806859
1056.278630	-3.019000	3.536000	-10.675000	25.864768	0.000937	20.797979
1057.277799	-3.001100	3.536600	-10.613000	25.900172	0.000936	20.792293
1058.279117	-3.004500	3.537100	-10.626000	25.895747	0.000933	20.799228
1059.278366	-2.987500	3.536700	-10.565000	25.898908	0.000933	20.781066
1060.276360	-3.005700	3.534600	-10.623000	25.924946	0.000935	20.777826
1061.285903	-3.007600	3.533100	-10.625000	25.935899	0.000935	20.780770
1062.279861	-3.022900	3.533500	-10.680000	25.960417	0.000932	20.783116
1063.279527	-3.012500	3.532800	-10.640000	25.944449	0.000933	20.768496
1064.282896	-3.009800	3.533100	-10.632000	25.974059	0.000931	20.800615
1065.278873	-3.021700	3.532100	-10.672000	25.963126	0.000933	20.783941
1066.294184	-3.005400	3.534000	-10.619000	25.912227	0.000932	20.803455
1067.287115	-3.012700	3.531700	-10.638000	25.958681	0.000931	20.787536
1068.280581	-2.968100	3.533000	-10.485000	25.915014	0.000929	20.786341
1069.280379	-2.980300	3.533300	-10.530000	25.940447	0.000928	20.790080
1070.282314	-3.002500	3.532100	-10.604000	25.973336	0.000929	20.790880
1071.279750	-2.991400	3.530700	-10.561000	25.945137	0.000929	20.765869
1072.280778	-2.983400	3.532300	-10.537000	25.925093	0.000928	20.801208
1073.282362	-3.003300	3.530500	-10.603000	25.919277	0.000927	20.767864
1074.283772	-2.989200	3.532200	-10.557000	25.928245	0.000926	20.783511
1075.283095	-2.993000	3.530500	-10.567000	25.933087	0.000925	20.789325
1076.285470	-3.014300	3.531000	-10.642000	25.942601	0.000925	20.787976
1077.285359	-3.013400	3.527400	-10.629000	25.856670	0.000926	20.784628
1078.285225	-3.017800	3.528400	-10.647000	25.881632	0.000923	20.789790
1079.284392	-2.989200	3.528100	-10.546000	25.895148	0.000924	20.778711
1080.284203	-2.974900	3.528900	-10.497000	25.917356	0.000924	20.792012
1081.285097	-3.000000	3.526400	-10.578000	25.923221	0.000922	20.795534
1082.286864	-3.000000	3.528000	-10.584000	25.955929	0.000925	20.779082
1083.288544	-2.984500	3.528300	-10.529000	25.985638	0.000923	20.800394
1084.286194	-3.007600	3.527600	-10.609000	25.968623	0.000921	20.805585
1085.289098	-2.990800	3.526100	-10.544000	25.960895	0.000919	20.767001
1086.293220	-2.999000	3.527100	-10.576000	25.969788	0.000921	20.787790
1087.288555	-3.001800	3.523700	-10.576000	25.964322	0.000919	20.776133
1088.290799	-3.003500	3.525600	-10.587000	25.891662	0.000917	20.766675
1089.289409	-3.003000	3.522600	-10.577000	25.844438	0.000917	20.773763
1090.290099	-2.981800	3.523600	-10.504000	25.791690	0.000917	20.776726
1091.289312	-2.986100	3.523800	-10.521000	25.803339	0.000916	20.777522
1092.288817	-2.991200	3.524200	-10.540000	25.776408	0.000916	20.758056
1093.287518	-3.007300	3.522000	-10.590000	25.774245	0.000914	20.777695
1094.292951	-2.997400	3.521900	-10.556000	25.772135	0.000914	20.771308
1095.290246	-3.002400	3.524000	-10.578000	25.798540	0.000914	20.770805
1096.296355	-3.023100	3.521200	-10.644000	25.832501	0.000914	20.761771
1097.292689	-3.026700	3.521200	-10.656000	25.834807	0.000914	20.789693
1098.292226	-2.993900	3.522800	-10.545000	25.828897	0.000912	20.783756
1099.295358	-3.007600	3.519700	-10.585000	25.830362	0.000911	20.777167
1100.293006	-3.010700	3.519500	-10.595000	25.798466	0.000913	20.756980
1101.290797	-3.016200	3.520100	-10.617000	25.823031	0.000912	20.786872
1102.298093	-2.994700	3.521200	-10.544000	25.838505	0.000910	20.787243
1103.295348	-3.016000	3.517900	-10.609000	25.850831	0.000908	20.768331
1104.295287	-2.984600	3.520000	-10.504000	25.857985	0.000910	20.780259
1105.295542	-2.980000	3.518900	-10.485000	25.859794	0.000910	20.781603
1106.298468	-2.990600	3.520000	-10.526000	25.847227	0.000908	20.777039
1107.294418	-3.030400	3.516600	-10.655000	25.809736	0.000906	20.781104
1108.293314	-2.987100	3.518600	-10.510000	25.816743	0.000908	20.767279
1109.295715	-3.023400	3.515800	-10.628000	25.794578	0.000906	20.788636
1110.294951	-3.018500	3.515300	-10.610000	25.813385	0.000906	20.777656
1111.295025	-2.973200	3.518100	-10.459000	25.846997	0.000906	20.765427
1112.295040	-2.993500	3.516100	-10.524000	25.854549	0.000905	20.765427
1113.296446	-2.989800	3.515600	-10.510000	25.853777	0.000903	20.779825
1114.295171	-3.026600	3.514300	-10.635000	25.881276	0.000905	20.764775
1115.295314	-2.979400	3.516100	-10.475000	25.866787	0.000901	20.760651
1116.297586	-2.983600	3.513900	-10.482000	25.860897	0.000902	20.764692
1117.296440	-2.972700	3.515100	-10.449000	25.883204	0.000901	20.777144
1118.296109	-3.000500	3.514500	-10.544000	25.906405	0.000900	20.770580
1119.298146	-2.985700	3.515800	-10.496000	25.901808	0.000900	20.768807
1120.299648	-2.977800	3.513800	-10.462000	25.876817	0.000899	20.765512
1121.301563	-3.008800	3.512700	-10.569000	25.866261	0.000899	20.772452
1122.301410	-2.993200	3.513900	-10.517000	25.841486	0.000900	20.751357
1123.308362	-3.001600	3.512100	-10.541000	25.871813	0.000898	20.765701
1124.316839	-2.985900	3.513700	-10.490000	25.886396	0.000899	20.764229
1125.306388	-2.999700	3.510800	-10.530000	25.940103	0.000900	20.771717
1126.309381	-3.008000	3.510500	-10.559000	25.916829	0.000898	20.763982
1127.301815	-3.020900	3.510200	-10.603000	25.897591	0.000898	20.765519
1128.301791	-2.992900	3.511400	-10.508000	25.917169	0.000897	20.759581
1129.311918	-2.972700	3.510800	-10.435000	25.904396	0.000894	20.757655
1130.302034	-3.001000	3.511400	-10.537000	25.933088	0.000896	20.770833
1131.301636	-2.988900	3.510400	-10.491000	25.905714	0.000893	20.764669
1132.312938	-3.003200	3.509500	-10.539000	25.919195	0.000895	20.774894
1133.303003	-3.003100	3.508700	-10.535000	25.873289	0.000892	20.772399
1134.312037	-2.985000	3.509000	-10.472000	25.878609	0.000891	20.760673
1135.307065	-2.992000	3.507700	-10.494000	25.867974	0.000892	20.753309
1136.310900	-2.999700	3.506800	-10.518000	25.872867	0.000892	20.757750
1137.303429	-2.975700	3.508700	-10.440000	25.901132	0.000890	20.760541
1138.313456	-2.997800	3.505500	-10.507000	25.904814	0.000889	20.750489
1139.312509	-2.983600	3.505800	-10.458000	25.941009	0.000888	20.779265
1140.305103	-2.987800	3.506000	-10.473000	25.966888	0.000890	20.757374
1141.305957	-2.995800	3.505200	-10.500000	25.987605	0.000889	20.742626
1142.306799	-3.000800	3.505100	-10.517000	25.989645	0.000887	20.754633
1143.307020	-2.981700	3.506000	-10.452000	26.019131	0.000889	20.767662
1144.307835	-2.992800	3.504800	-10.488000	26.050283	0.000886	20.771460
1145.318735	-3.007000	3.502100	-10.530000	26.053331	0.000886	20.770256
1146.306595	-3.009500	3.503100	-10.540000	26.027507	0.000885	20.765173
1147.309693	-2.976300	3.504400	-10.429000	26.021195	0.000887	20.757408
1148.310079	-3.007100	3.503400	-10.534000	26.027606	0.000882	20.751046
1149.306035	-3.000400	3.501100	-10.504000	25.967920	0.000884	20.757936
1150.317833	-3.018200	3.501500	-10.568000	25.953741	0.000882	20.745114
1151.308848	-3.013900	3.499900	-10.548000	25.940796	0.000883	20.730686
1152.312485	-2.983300	3.501500	-10.444000	25.921323	0.000882	20.748581
1153.318659	-3.009100	3.500000	-10.530000	25.896903	0.000882	20.741592
1154.312452	-2.989800	3.499900	-10.463000	25.910914	0.000880	20.749505
1155.311526	-3.017900	3.499000	-10.558000	25.915162	0.000880	20.742392
1156.322437	-2.993300	3.499400	-10.473000	25.935658	0.000879	20.750655
1157.310837	-2.986700	3.499300	-10.450000	25.938018	0.000879	20.753500
1158.320969	-3.023600	3.498400	-10.576000	25.942443	0.000879	20.735185
1159.316235	-2.996900	3.497700	-10.480000	25.907866	0.000877	20.758770
1160.310423	-2.998200	3.497800	-10.486000	25.882580	0.000878	20.745696
1161.325474	-3.002600	3.497600	-10.501000	25.888440	0.000875	20.758222
1162.315229	-3.002200	3.498600	-10.502000	25.879251	0.000876	20.741878
1163.318195	-3.018400	3.497700	-10.556000	25.893863	0.000875	20.742332
1164.313002	-2.978800	3.498500	-10.420000	25.937958	0.000876	20.749172
1165.318899	-2.987100	3.498200	-10.447000	25.960111	0.000875	20.737763
1166.317664	-2.994200	3.496600	-10.468000	25.922580	0.000874	20.748896
1167.313313	-2.988400	3.495400	-10.445000	25.912270	0.000873	20.742332
1168.327055	-3.002800	3.494900	-10.494000	25.885043	0.000872	20.732522
1169.323263	-2.995000	3.494700	-10.465000	25.844205	0.000871	20.765941
1170.316747	-2.996000	3.493600	-10.465000	25.846692	0.000871	20.745680
1171.312715	-3.018900	3.493600	-10.546000	25.847931	0.000873	20.732226
1172.312509	-3.000600	3.493700	-10.483000	25.913337	0.000870	20.723488
1173.325989	-3.001600	3.493200	-10.484000	25.918258	0.000871	20.738390
1174.318877	-2.990800	3.492800	-10.446000	25.914433	0.000869	20.734547
1175.319775	-2.973200	3.494300	-10.388000	25.884723	0.000869	20.733149
1176.313748	-2.980900	3.491200	-10.405000	25.868080	0.000867	20.749622
1177.312546	-2.996600	3.492400	-10.465000	25.856280	0.000868	20.738716
1178.313276	-3.010200	3.490300	-10.505000	25.853625	0.000866	20.741264
1179.314197	-3.010700	3.491100	-10.509000	25.813273	0.000866	20.761422
1180.329662	-2.992200	3.490300	-10.442000	25.806792	0.000867	20.727410
1181.325570	-2.987000	3.490600	-10.424000	25.793251	0.000865	20.711910
1182.316878	-3.006800	3.489900	-10.492000	25.756712	0.000864	20.758660
1183.312742	-2.982000	3.488400	-10.401000	25.792385	0.000864	20.748501
1184.320747	-3.019400	3.487700	-10.530000	25.822968	0.000863	20.738444
1185.311397	-2.970900	3.487500	-10.360000	25.836617	0.000861	20.742197
1186.312242	-2.993700	3.488600	-10.442000	25.889476	0.000862	20.752624
1187.321140	-3.010700	3.486200	-10.495000	25.887539	0.000862	20.753523
1188.313593	-2.992100	3.486700	-10.431000	25.905824	0.000862	20.722578
1189.317233	-3.014500	3.485500	-10.507000	25.912628	0.000861	20.731785
1190.316242	-2.992100	3.487500	-10.434000	25.929698	0.000859	20.730442
1191.317935	-3.021000	3.485100	-10.528000	25.900882	0.000860	20.726149
1192.313900	-2.996100	3.485600	-10.442000	25.910524	0.000859	20.723506
1193.320509	-3.031100	3.482800	-10.555000	25.899147	0.000857	20.718715
1194.315890	-3.010000	3.483700	-10.485000	25.878605	0.000856	20.720365
1195.318406	-2.972700	3.485500	-10.360000	25.904732	0.000858	20.724327
1196.314909	-2.981300	3.483200	-10.384000	25.930027	0.000856	20.725082
1197.321309	-2.998400	3.482000	-10.438000	25.969701	0.000855	20.717050
1198.319638	-2.978800	3.484700	-10.379000	26.009217	0.000854	20.700325
1199.330153	-2.978600	3.483400	-10.374000	26.016354	0.000854	20.753966
1200.323435	-2.995800	3.482500	-10.432000	26.020400	0.000854	20.735271
1201.317248	-3.006700	3.481500	-10.466000	26.015509	0.000854	20.728934
1202.321667	-3.015500	3.480900	-10.495000	26.027331	0.000853	20.746503
1203.320766	-2.988100	3.481500	-10.402000	26.031534	0.000852	20.714688
1204.320917	-3.005900	3.480200	-10.461000	26.042364	0.000850	20.747856
1205.314878	-3.002200	3.481000	-10.450000	26.034818	0.000851	20.719884
1206.318040	-2.968900	3.481200	-10.334000	26.062739	0.000852	20.719015
1207.333112	-3.001400	3.479800	-10.443000	26.060360	0.000849	20.726107
1208.318736	-2.984700	3.479800	-10.384000	26.022478	0.000849	20.717444
1209.317599	-2.994000	3.478000	-10.412000	25.990018	0.000850	20.718022
1210.321059	-2.977300	3.479300	-10.358000	26.021765	0.000847	20.729056
1211.325817	-2.994400	3.478600	-10.415000	26.018039	0.000847	20.717251
1212.324791	-2.994100	3.477500	-10.410000	26.048316	0.000848	20.727283
1213.323122	-3.010000	3.477400	-10.466000	26.070201	0.000847	20.735521
1214.315733	-2.992800	3.477000	-10.405000	26.026165	0.000846	20.718777
1215.316665	-3.010300	3.476400	-10.464000	26.003964	0.000845	20.706428
1216.336070	-3.004400	3.476600	-10.444000	26.018692	0.000845	20.736875
1217.319201	-3.009600	3.473500	-10.452000	26.031557	0.000843	20.745533
1218.320227	-2.996800	3.474400	-10.412000	26.037073	0.000843	20.694173
1219.320496	-2.989700	3.475200	-10.388000	26.045395	0.000844	20.723400
1220.321370	-2.988000	3.472400	-10.375000	26.092611	0.000843	20.704457
1221.316961	-3.000700	3.473800	-10.423000	26.114642	0.000843	20.720431
1222.333345	-3.007300	3.473100	-10.444000	26.083571	0.000842	20.702486
1223.323473	-3.011900	3.471700	-10.456000	26.059799	0.000842	20.713215
1224.326570	-3.014800	3.472300	-10.467000	26.047308	0.000841	20.722002
1225.324585	-2.973600	3.473800	-10.328000	26.085931	0.000841	20.728092
1226.329183	-2.987900	3.471300	-10.370000	26.094749	0.000840	20.721305
1227.334847	-2.993500	3.472700	-10.394000	26.098647	0.000840	20.707677
1228.323387	-2.988400	3.469500	-10.368000	26.106694	0.000838	20.728092
1229.335446	-2.992100	3.470500	-10.384000	26.099099	0.000839	20.726625
1230.327072	-3.032700	3.469400	-10.520000	26.092763	0.000839	20.729742
1231.322411	-3.003900	3.470000	-10.422000	26.056176	0.000838	20.703410
1232.332876	-2.981700	3.469100	-10.343000	26.052425	0.000838	20.730937
1233.339573	-3.001500	3.468400	-10.409000	26.034816	0.000836	20.717986
1234.321520	-2.968700	3.469700	-10.299000	26.050915	0.000835	20.721359
1235.324895	-3.003500	3.466900	-10.412000	26.074334	0.000835	20.735881
1236.326464	-2.988300	3.468900	-10.364000	26.076645	0.000835	20.740574
1237.325879	-2.998100	3.467000	-10.393000	26.069094	0.000836	20.723977
1238.328686	-3.000900	3.466100	-10.400000	26.052179	0.000833	20.745864
1239.327741	-3.002300	3.466100	-10.405000	26.029600	0.000832	20.745464
1240.326310	-2.987900	3.466500	-10.356000	26.016037	0.000833	20.727569
1241.333147	-2.977600	3.465400	-10.318000	26.013407	0.000831	20.716865
1242.330014	-2.980100	3.465600	-10.327000	26.043060	0.000830	20.736702
1243.329894	-2.982700	3.466200	-10.337000	26.052027	0.000831	20.740021
1244.336129	-3.002600	3.463000	-10.397000	26.075647	0.000829	20.724398
1245.330694	-2.995100	3.465200	-10.377000	26.080666	0.000830	20.718060
1246.341765	-3.012700	3.462700	-10.431000	26.088565	0.000829	20.736430
1247.332146	-3.004100	3.462600	-10.401000	26.111934	0.000829	20.734306
1248.338968	-2.997400	3.462900	-10.379000	26.111594	0.000828	20.729223
1249.329205	-3.010200	3.461800	-10.419000	26.142365	0.000827	20.748289
1250.325958	-3.009100	3.460700	-10.412000	26.184362	0.000826	20.730744
1251.331119	-3.015300	3.459400	-10.430000	26.187021	0.000827	20.740055
1252.331610	-3.018000	3.458800	-10.438000	26.198497	0.000825	20.718870
1253.347673	-3.015200	3.460400	-10.432000	26.199490	0.000826	20.722238
1254.334414	-2.997900	3.458700	-10.367000	26.211817	0.000825	20.741264
1255.329942	-3.011600	3.459100	-10.416000	26.197952	0.000825	20.738237
1256.338112	-3.001400	3.458300	-10.378000	26.167438	0.000824	20.730808
1257.338861	-2.999300	3.460300	-10.377000	26.129688	0.000823	20.717530
1258.330401	-3.008100	3.457900	-10.400000	26.150352	0.000822	20.718854
1259.332233	-2.956500	3.460300	-10.229000	26.170293	0.000821	20.725616
1260.334158	-2.999200	3.457600	-10.369000	26.166577	0.000820	20.729468
1261.331134	-2.992300	3.457200	-10.343000	26.164616	0.000820	20.739826
1262.332814	-3.018000	3.454900	-10.426000	26.193080	0.000820	20.748989
1263.336790	-2.994000	3.455900	-10.346000	26.178108	0.000821	20.749591
1264.334641	-2.998400	3.454200	-10.356000	26.176692	0.000819	20.743901
1265.331433	-2.982200	3.456300	-10.306000	26.182979	0.000818	20.721293
1266.334915	-3.011600	3.454600	-10.402000	26.176077	0.000817	20.745654
1267.334136	-3.000900	3.454000	-10.365000	26.187673	0.000818	20.738339
1268.331264	-3.003100	3.454300	-10.371000	26.177871	0.000817	20.740344
1269.333432	-2.994900	3.452500	-10.339000	26.162579	0.000816	20.717390
1270.335350	-2.984800	3.454000	-10.309000	26.188950	0.000817	20.743416
1271.335912	-2.995900	3.452600	-10.343000	26.190198	0.000817	20.739454
1272.337742	-3.000600	3.451700	-10.355000	26.201646	0.000814	20.725352
1273.344104	-3.008300	3.453200	-10.387000	26.195393	0.000814	20.750839
1274.338702	-3.012200	3.450900	-10.392000	26.189136	0.000813	20.745500
1275.338655	-3.002700	3.451400	-10.362000	26.207293	0.000815	20.730553
1276.343547	-2.997300	3.451900	-10.344000	26.215171	0.000811	20.750799
1277.346307	-3.022500	3.449600	-10.425000	26.222499	0.000813	20.754370
1278.337750	-2.989300	3.450400	-10.314000	26.251011	0.000810	20.732761
1279.337714	-2.977700	3.450100	-10.273000	26.247212	0.000810	20.730839
1280.351517	-2.991300	3.449700	-10.319000	26.212177	0.000809	20.750636
1281.343030	-3.006400	3.447900	-10.365000	26.152300	0.000808	20.736460
1282.344545	-3.001600	3.447000	-10.345000	26.115626	0.000810	20.721893
1283.346506	-3.001400	3.447500	-10.347000	26.093324	0.000809	20.732676
1284.344027	-3.010700	3.446500	-10.375000	26.070775	0.000808	20.747953
1285.353900	-3.008000	3.445200	-10.362000	26.062133	0.000808	20.756340
1286.343586	-2.980400	3.446100	-10.270000	26.060526	0.000807	20.742870
1287.343874	-3.022000	3.445900	-10.413000	26.067801	0.000808	20.739274
1288.348754	-2.977000	3.446400	-10.258000	26.053176	0.000805	20.741176
1289.360592	-3.017000	3.444600	-10.391000	26.059586	0.000806	20.757574
1290.352118	-3.002900	3.444500	-10.343000	26.102407	0.000805	20.744648
1291.352520	-2.993700	3.444600	-10.310000	26.127117	0.000803	20.741028
1292.345739	-2.993100	3.445400	-10.310000	26.113260	0.000804	20.749864
1293.356592	-3.005400	3.442900	-10.346000	26.147270	0.000803	20.741363
1294.349329	-2.979300	3.444300	-10.261000	26.151340	0.000803	20.771058
1295.349081	-3.015900	3.443200	-10.383000	26.185413	0.000804	20.756932
1296.363944	-2.991500	3.442900	-10.298000	26.212235	0.000802	20.742158
1297.346826	-2.985200	3.442500	-10.275000	26.217130	0.000801	20.753716
1298.352552	-3.000300	3.441600	-10.325000	26.225673	0.000801	20.745705
1299.348687	-2.989200	3.441700	-10.286000	26.191232	0.000800	20.761357
1300.347836	-2.992200	3.440300	-10.293000	26.190259	0.000799	20.754689
1301.354847	-3.025300	3.439100	-10.404000	26.214353	0.000800	20.748080
1302.353619	-3.014600	3.439000	-10.367000	26.240058	0.000798	20.754946
1303.357248	-2.996000	3.440900	-10.308000	26.272020	0.000798	20.757193
1304.350975	-2.996600	3.439700	-10.307000	26.285727	0.000798	20.770969
1305.355808	-2.998100	3.438600	-10.308000	26.295709	0.000795	20.738799
1306.355799	-3.003300	3.439600	-10.329000	26.336412	0.000796	20.772120
1307.351312	-3.002300	3.439000	-10.324000	26.325015	0.000798	20.764933
1308.352918	-3.006100	3.438800	-10.336000	26.361249	0.000796	20.762468
1309.352629	-3.007100	3.436600	-10.332000	26.341557	0.000793	20.766385
1310.350895	-2.995700	3.436400	-10.293000	26.386003	0.000793	20.764587
1311.353853	-2.993600	3.437100	-10.288000	26.386155	0.000794	20.754783
1312.351426	-3.006300	3.436300	-10.330000	26.398652	0.000794	20.770188
1313.355912	-3.002100	3.434800	-10.311000	26.405826	0.000791	20.754165
1314.353418	-3.019300	3.435400	-10.372000	26.402622	0.000791	20.758531
1315.356236	-3.009500	3.434600	-10.335000	26.365456	0.000790	20.765273
1316.363005	-2.995700	3.434900	-10.289000	26.367121	0.000791	20.752722
1317.360213	-3.021600	3.433400	-10.373000	26.366453	0.000788	20.749206
1318.353929	-2.998300	3.433700	-10.295000	26.409512	0.000790	20.753601
1319.355437	-2.989900	3.433500	-10.263000	26.406386	0.000789	20.763737
1320.362177	-3.014800	3.432900	-10.349000	26.419527	0.000790	20.781211
1321.353122	-3.005400	3.432000	-10.314000	26.387447	0.000787	20.742804
1322.357707	-3.013100	3.431200	-10.338000	26.384267	0.000787	20.768533
1323.355179	-3.005200	3.431100	-10.310000	26.391771	0.000787	20.779868
1324.366999	-2.998800	3.430300	-10.285000	26.376728	0.000786	20.756214
1325.358886	-3.019900	3.430100	-10.357000	26.371293	0.000787	20.761183
1326.353219	-3.004500	3.430300	-10.305000	26.329633	0.000786	20.761988
1327.356991	-2.998400	3.430900	-10.286000	26.336233	0.000785	20.768147
1328.354095	-3.005700	3.429900	-10.309000	26.309896	0.000783	20.769653
1329.366729	-2.993100	3.430200	-10.266000	26.304259	0.000783	20.766359
1330.363480	-2.994200	3.428100	-10.263000	26.302032	0.000783	20.758431
1331.360394	-2.994300	3.427600	-10.262000	26.297191	0.000782	20.763523
1332.355320	-3.012700	3.427100	-10.323000	26.305836	0.000782	20.771263
1333.362752	-2.992300	3.428300	-10.258000	26.309385	0.000780	20.778623
1334.366012	-2.998200	3.427800	-10.276000	26.314083	0.000781	20.770542
1335.362291	-2.977300	3.428700	-10.206000	26.355080	0.000781	20.768596
1336.362268	-3.013900	3.424800	-10.321000	26.356972	0.000779	20.795154
1337.365733	-2.968700	3.426500	-10.171000	26.374354	0.000779	20.768052
1338.358821	-3.002200	3.425100	-10.282000	26.313788	0.000779	20.771194
1339.357941	-2.989400	3.425900	-10.240000	26.304824	0.000779	20.774513
1340.361868	-2.977000	3.425100	-10.195000	26.289627	0.000779	20.754973
1341.365895	-3.011200	3.422400	-10.305000	26.315154	0.000778	20.769722
1342.360559	-2.992200	3.423600	-10.243000	26.340140	0.000779	20.763064
1343.365223	-2.984800	3.424500	-10.221000	26.347418	0.000778	20.806889
1344.360224	-2.986400	3.424500	-10.225000	26.327401	0.000777	20.772547
1345.360855	-2.996600	3.422100	-10.253000	26.322934	0.000777	20.767583
1346.364539	-2.993300	3.422500	-10.243000	26.332198	0.000776	20.785428
1347.367963	-2.991000	3.421300	-10.232000	26.303742	0.000775	20.782435
1348.362054	-3.005000	3.420300	-10.277000	26.286211	0.000773	20.784732
1349.362086	-2.974400	3.421700	-10.177000	26.242926	0.000774	20.769682
1350.368230	-2.995400	3.420800	-10.245000	26.235352	0.000772	20.761597
1351.364583	-2.980300	3.420200	-10.192000	26.267810	0.000771	20.798482
1352.362823	-2.995400	3.419100	-10.240000	26.270346	0.000771	20.797238
1353.361351	-3.005900	3.419100	-10.275000	26.286142	0.000772	20.782292
1354.370624	-3.015000	3.416900	-10.302000	26.241363	0.000770	20.770482
1355.367650	-2.992300	3.418600	-10.228000	26.249360	0.000770	20.800330
1356.363896	-2.989800	3.418500	-10.219000	26.234851	0.000768	20.800922
1357.373186	-3.000600	3.417100	-10.252000	26.243949	0.000768	20.798685
1358.369649	-3.019300	3.415500	-10.311000	26.251247	0.000768	20.807442
1359.364637	-2.992300	3.415700	-10.220000	26.277222	0.000768	20.791820
1360.363402	-2.995500	3.415800	-10.231000	26.306696	0.000768	20.804844
1361.374098	-3.006500	3.415100	-10.266000	26.332198	0.000767	20.784954
1362.375874	-3.000200	3.415100	-10.245000	26.352558	0.000765	20.793089
1363.368667	-2.992500	3.413900	-10.215000	26.362146	0.000765	20.786604
1364.364831	-3.009200	3.412200	-10.267000	26.367213	0.000765	20.786006
1365.369208	-3.009100	3.413100	-10.269000	26.365793	0.000763	20.786475
1366.365897	-3.006100	3.413700	-10.261000	26.339771	0.000766	20.794936
1367.369649	-3.011000	3.411600	-10.271000	26.334154	0.000764	20.775540
1368.370493	-2.989200	3.413600	-10.203000	26.326138	0.000762	20.793563
1369.370789	-3.017900	3.413800	-10.302000	26.313001	0.000762	20.797905
1370.369446	-2.988800	3.414000	-10.202000	26.314318	0.000763	20.805866
1371.368280	-2.979900	3.413200	-10.170000	26.336326	0.000762	20.808069
1372.371552	-3.031100	3.410300	-10.335000	26.378211	0.000762	20.807017
1373.373640	-2.995300	3.411800	-10.218000	26.385809	0.000760	20.810860
1374.369963	-2.980500	3.412500	-10.170000	26.406916	0.000760	20.806943
1375.369952	-2.997800	3.409300	-10.219000	26.396340	0.000760	20.831401
1376.375411	-3.010100	3.408700	-10.259000	26.426833	0.000759	20.807047
1377.375756	-3.012600	3.409100	-10.269000	26.401805	0.000758	20.819824
1378.375302	-2.994300	3.408600	-10.206000	26.367611	0.000758	20.811062
1379.375507	-2.997600	3.408300	-10.216000	26.349959	0.000757	20.795218
1380.370386	-2.997200	3.408000	-10.213000	26.377720	0.000755	20.790876
1381.370223	-3.010200	3.407800	-10.257000	26.388625	0.000756	20.780499
1382.377534	-3.006100	3.407100	-10.241000	26.438307	0.000756	20.811467
1383.377047	-3.007600	3.407000	-10.246000	26.449383	0.000756	20.829238
1384.377968	-2.991600	3.406000	-10.189000	26.467240	0.000754	20.799297
1385.375530	-2.975900	3.406500	-10.136000	26.468547	0.000752	20.810568
1386.369095	-2.994700	3.404600	-10.194000	26.459290	0.000753	20.831134
1387.377010	-2.996400	3.406600	-10.205000	26.426370	0.000753	20.822703
1388.376595	-2.979800	3.404500	-10.143000	26.416911	0.000751	20.798023
1389.379135	-2.991600	3.405000	-10.186000	26.436577	0.000750	20.820160
1390.373020	-2.980600	3.404000	-10.145000	26.427889	0.000751	20.826600
1391.374633	-2.998300	3.403800	-10.203000	26.441889	0.000751	20.824550
1392.370549	-2.998900	3.402800	-10.204000	26.448798	0.000749	20.817744
1393.373708	-3.006100	3.404600	-10.232000	26.466749	0.000751	20.825355
1394.373795	-3.019400	3.402000	-10.270000	26.482591	0.000749	20.809985
1395.373549	-3.029300	3.400600	-10.300000	26.498458	0.000749	20.833519
1396.374078	-2.995100	3.402600	-10.190000	26.505534	0.000748	20.817873
1397.374958	-2.985000	3.400900	-10.150000	26.527011	0.000746	20.831401
1398.374027	-3.025000	3.398400	-10.280000	26.543128	0.000746	20.819626
1399.371883	-2.981900	3.401200	-10.140000	26.524107	0.000745	20.819473
1400.373606	-2.997300	3.398800	-10.186000	26.537615	0.000745	20.839688
1401.379822	-2.999500	3.399400	-10.195000	26.555490	0.000746	20.832527
1402.372355	-3.007700	3.398700	-10.221000	26.594174	0.000746	20.828738
1403.375797	-2.986000	3.397400	-10.144000	26.600060	0.000744	20.822328
1404.380939	-3.012000	3.398300	-10.235000	26.565676	0.000745	20.843713
1405.375581	-3.003300	3.397400	-10.203000	26.523748	0.000742	20.828595
1406.379383	-3.020400	3.397500	-10.261000	26.430518	0.000742	20.828768
1407.374173	-2.989900	3.397900	-10.158000	26.424689	0.000741	20.830971
1408.382648	-3.003300	3.397000	-10.201000	26.438169	0.000742	20.837406
1409.380653	-2.999500	3.396200	-10.186000	26.443063	0.000742	20.837584
1410.378187	-3.022200	3.397000	-10.265000	26.451633	0.000739	20.837663
1411.380418	-3.002900	3.395400	-10.194000	26.439943	0.000740	20.842508
1412.386122	-2.995200	3.395600	-10.169000	26.411121	0.000738	20.852894
1413.381753	-2.992100	3.394100	-10.154000	26.360367	0.000737	20.845980
1414.381006	-3.002200	3.394100	-10.188000	26.332708	0.000739	20.826718
1415.389525	-2.990700	3.394400	-10.150000	26.293150	0.000738	20.832008
1416.384864	-2.975200	3.394500	-10.098000	26.279969	0.000737	20.822555
1417.377686	-3.008400	3.392300	-10.204000	26.258491	0.000736	20.838428
1418.379069	-3.006300	3.391500	-10.195000	26.263111	0.000736	20.812726
1419.393118	-2.988900	3.392300	-10.139000	26.280097	0.000735	20.827424
1420.387478	-3.001600	3.390800	-10.176000	26.315831	0.000734	20.857645
1421.386480	-2.988000	3.391000	-10.132000	26.359192	0.000735	20.845274
1422.389501	-2.992000	3.390800	-10.144000	26.366834	0.000734	20.841574
1423.381533	-3.015500	3.390600	-10.224000	26.409200	0.000735	20.866609
1424.386112	-2.989700	3.389600	-10.133000	26.427181	0.000735	20.860026
1425.380526	-3.004500	3.389400	-10.182000	26.489627	0.000733	20.843135
1426.384923	-2.995400	3.388500	-10.149000	26.523444	0.000731	20.861952
1427.382473	-3.003400	3.389300	-10.178000	26.551348	0.000732	20.849699
1428.387711	-3.028100	3.387400	-10.256000	26.515257	0.000732	20.852776
1429.383270	-3.017800	3.386100	-10.216000	26.485416	0.000730	20.859764
1430.386363	-3.006600	3.387300	-10.182000	26.489067	0.000729	20.847787
1431.379409	-3.001000	3.386900	-10.162000	26.492394	0.000730	20.866777
1432.378779	-3.012100	3.386200	-10.199000	26.530102	0.000728	20.872437
1433.380852	-3.000500	3.386500	-10.160000	26.496069	0.000728	20.856248
1434.388235	-2.995500	3.386500	-10.143000	26.441176	0.000727	20.845644
1435.391962	-3.009800	3.385300	-10.188000	26.456920	0.000728	20.846770
1436.384330	-2.983400	3.385800	-10.100000	26.465559	0.000726	20.867306
1437.384080	-3.035500	3.382900	-10.266000	26.451785	0.000726	20.892340
1438.387801	-2.989600	3.385200	-10.119000	26.497263	0.000724	20.864086
1439.389826	-2.993400	3.384500	-10.130000	26.500742	0.000724	20.859048
1440.385142	-3.009200	3.383200	-10.180000	26.475795	0.000725	20.881386
1441.394431	-2.983900	3.384200	-10.097000	26.438896	0.000722	20.840982
1442.389909	-3.027600	3.381800	-10.238000	26.394703	0.000723	20.852040
1443.390549	-3.007400	3.382900	-10.171000	26.421593	0.000723	20.889021
1444.386482	-3.008700	3.383100	-10.177000	26.407269	0.000721	20.867987
1445.385248	-3.020000	3.380700	-10.209000	26.395327	0.000721	20.854089
1446.390435	-2.989200	3.382500	-10.110000	26.396472	0.000721	20.865197
1447.389319	-2.987300	3.381600	-10.100000	26.398507	0.000721	20.845906
1448.391820	-2.991300	3.381500	-10.115000	26.447751	0.000719	20.839451
1449.386618	-2.985900	3.380900	-10.094000	26.441392	0.000717	20.861034
1450.394546	-2.987200	3.379900	-10.095000	26.443908	0.000717	20.859295
1451.387728	-2.989000	3.379200	-10.100000	26.443166	0.000720	20.870877
1452.393757	-2.989900	3.379400	-10.103000	26.434080	0.000715	20.885925
1453.387519	-2.983000	3.378900	-10.079000	26.444734	0.000715	20.858702
1454.391764	-3.000300	3.378300	-10.135000	26.472542	0.000714	20.858204
1455.403139	-3.001400	3.378400	-10.139000	26.478557	0.000716	20.845758
1456.395224	-2.976400	3.379400	-10.057000	26.511528	0.000716	20.852820
1457.397586	-2.995600	3.376300	-10.113000	26.550709	0.000714	20.844790
1458.387575	-2.988600	3.375700	-10.088000	26.569808	0.000713	20.845970
1459.399176	-3.022700	3.374900	-10.201000	26.584057	0.000713	20.847966
1460.390742	-2.984600	3.376300	-10.076000	26.584008	0.000713	20.828951
1461.390717	-2.990900	3.375800	-10.095000	26.571302	0.000710	20.841782
1462.394386	-2.995100	3.376100	-10.110000	26.564826	0.000710	20.845230
1463.397639	-2.992000	3.375500	-10.099000	26.592857	0.000710	20.838320
1464.391482	-2.989700	3.374600	-10.088000	26.562723	0.000709	20.838374
1465.391523	-3.006900	3.374200	-10.146000	26.573872	0.000710	20.823503
1466.393823	-2.990900	3.373300	-10.087000	26.577149	0.000710	20.839599
1467.398140	-2.999200	3.372000	-10.113000	26.594203	0.000708	20.840147
1468.395147	-2.983600	3.373300	-10.063000	26.596694	0.000708	20.828902
1469.400076	-2.993800	3.372900	-10.095000	26.596026	0.000706	20.814006
1470.399520	-3.003000	3.372300	-10.126000	26.584087	0.000706	20.815280
1471.394200	-2.996000	3.372200	-10.102000	26.551570	0.000707	20.844706
1472.399727	-2.974200	3.372300	-10.028000	26.528181	0.000706	20.811240
1473.405597	-2.997800	3.371900	-10.107000	26.521282	0.000704	20.816159
1474.396914	-2.999600	3.370300	-10.108000	26.470464	0.000704	20.812495
1475.397376	-3.004400	3.369900	-10.123000	26.445167	0.000703	20.832586
1476.397947	-2.994700	3.369800	-10.090000	26.402886	0.000705	20.805738
1477.400083	-2.988900	3.369900	-10.071000	26.403186	0.000705	20.833066
1478.409250	-2.980900	3.369600	-10.044000	26.412700	0.000701	20.816550
1479.399708	-3.021300	3.368000	-10.174000	26.426460	0.000703	20.810465
1480.400478	-3.006100	3.368500	-10.125000	26.463850	0.000700	20.807269
1481.402314	-3.010200	3.367100	-10.134000	26.484656	0.000701	20.826285
1482.398579	-2.992100	3.368500	-10.078000	26.504792	0.000699	20.815231
1483.400923	-3.002400	3.367000	-10.108000	26.517106	0.000700	20.812436
1484.407488	-3.024300	3.365600	-10.177000	26.547448	0.000701	20.809744
1485.408602	-2.964700	3.365900	-9.978000	26.500429	0.000698	20.815113
1486.401143	-2.966700	3.367400	-9.989400	26.520541	0.000698	20.813517
1487.400353	-2.980800	3.366400	-10.034000	26.526673	0.000698	20.806405
1488.408891	-2.999200	3.366000	-10.094000	26.539188	0.000697	20.808554
1489.406085	-2.997600	3.365300	-10.087000	26.477988	0.000695	20.814841
1490.404435	-2.985400	3.365400	-10.046000	26.449119	0.000696	20.812851
1491.404859	-2.996500	3.363200	-10.077000	26.471187	0.000696	20.782401
1492.405620	-3.006100	3.365300	-10.115000	26.499466	0.000696	20.811774
1493.407164	-3.033600	3.362000	-10.197000	26.512257	0.000694	20.809932
1494.409330	-2.992200	3.363700	-10.063000	26.514389	0.000692	20.826774
1495.405457	-3.004500	3.363200	-10.104000	26.501751	0.000693	20.799846
1496.409712	-3.013400	3.362500	-10.132000	26.510075	0.000689	20.795411
1497.413535	-3.008300	3.361800	-10.112000	26.514669	0.000692	20.821840
1498.403666	-3.017900	3.361600	-10.144000	26.521445	0.000690	20.810159
1499.406433	-2.989300	3.361700	-10.048000	26.538009	0.000692	20.795515
1500.403802	-2.991200	3.360900	-10.052000	26.532354	0.000690	20.811167
1501.408054	-3.009200	3.360000	-10.109000	26.487118	0.000690	20.796518
1502.405865	-2.984700	3.361600	-10.032000	26.451389	0.000690	20.814185
1503.403331	-3.021600	3.359400	-10.150000	26.411192	0.000688	20.816931
1504.408272	-3.003200	3.358700	-10.086000	26.420504	0.000687	20.794522
1505.406196	-2.982300	3.360000	-10.020000	26.378797	0.000687	20.795278
1506.405737	-2.982400	3.360200	-10.020000	26.339959	0.000687	20.817884
1507.408510	-3.004200	3.357900	-10.086000	26.290842	0.000685	20.783222
1508.404194	-3.036100	3.356200	-10.188000	26.351017	0.000687	20.791065
1509.404281	-2.993900	3.357800	-10.052000	26.392410	0.000684	20.806115
1510.406822	-3.021300	3.356600	-10.139000	26.398917	0.000684	20.785627
1511.405311	-3.003300	3.357300	-10.082000	26.455154	0.000684	20.790468
1512.405798	-3.012900	3.357200	-10.114000	26.513324	0.000683	20.818116
1513.405349	-3.025000	3.353600	-10.144000	26.551837	0.000682	20.790448
1514.412927	-3.010800	3.353800	-10.097000	26.573829	0.000683	20.785529
1515.415688	-3.000200	3.355100	-10.064000	26.579372	0.000682	20.792048
1516.414969	-3.012300	3.354600	-10.104000	26.586747	0.000682	20.791401
1517.408627	-3.023400	3.353800	-10.139000	26.604155	0.000681	20.780451
1518.408270	-2.985200	3.354900	-10.014000	26.623066	0.000680	20.785711
1519.405794	-2.989400	3.352100	-10.020000	26.591763	0.000678	20.786961
1520.408447	-2.984700	3.354100	-10.010000	26.596957	0.000679	20.796924
1521.410407	-3.003100	3.352100	-10.064000	26.607157	0.000679	20.783469
1522.413397	-2.996000	3.354100	-10.047000	26.604744	0.000677	20.781992
1523.411728	-3.000900	3.350900	-10.055000	26.609736	0.000678	20.807873
1524.414502	-3.003900	3.351900	-10.067000	26.608419	0.000677	20.779049
1525.413254	-3.002300	3.351300	-10.060000	26.618349	0.000676	20.800410
1526.411194	-2.999900	3.349600	-10.048000	26.626594	0.000675	20.777878
1527.408989	-3.004000	3.350400	-10.064000	26.579121	0.000675	20.765718
1528.414003	-2.993500	3.350000	-10.026000	26.550402	0.000675	20.803705
1529.412275	-3.007200	3.348300	-10.068000	26.560303	0.000675	20.789475
1530.411163	-3.001700	3.349100	-10.052000	26.582246	0.000674	20.784032
1531.422498	-3.005000	3.348600	-10.062000	26.635766	0.000672	20.774771
1532.411937	-2.991100	3.348500	-10.015000	26.680150	0.000674	20.780984
1533.414238	-3.026300	3.348600	-10.133000	26.705442	0.000673	20.790764
1534.417848	-3.020000	3.346100	-10.104000	26.707328	0.000671	20.780807
1535.408583	-3.013400	3.347300	-10.086000	26.667092	0.000674	20.790142
1536.415296	-2.986800	3.346700	-9.995000	26.653011	0.000671	20.796849
1537.420166	-3.010800	3.346000	-10.072000	26.663662	0.000670	20.801393
1538.415226	-3.015400	3.344900	-10.085000	26.674431	0.000668	20.776657
1539.412783	-2.993300	3.346300	-10.016000	26.669243	0.000668	20.771916
1540.414296	-2.977900	3.346000	-9.963400	26.684930	0.000667	20.781997
1541.414366	-2.978100	3.346700	-9.965600	26.711980	0.000669	20.806820
1542.414002	-3.010400	3.343900	-10.066000	26.730826	0.000668	20.772187
1543.415510	-2.990700	3.344700	-10.002000	26.748020	0.000668	20.777146
1544.412437	-3.009500	3.343900	-10.063000	26.771030	0.000665	20.811661
1545.416582	-3.006500	3.342600	-10.048000	26.810963	0.000666	20.784007
1546.412187	-2.990900	3.343100	-9.997500	26.821736	0.000665	20.761647
1547.418962	-3.009700	3.343600	-10.063000	26.815458	0.000664	20.788052
1548.422521	-2.987800	3.342500	-9.985600	26.850271	0.000663	20.781329
1549.418669	-2.994900	3.341600	-10.006000	26.857379	0.000661	20.783261
1550.423810	-2.985700	3.342300	-9.977700	26.842009	0.000662	20.780134
1551.419549	-3.024500	3.340300	-10.102000	26.815345	0.000663	20.756169
1552.411659	-3.005900	3.339200	-10.037000	26.736367	0.000660	20.778232
1553.423386	-3.007200	3.341800	-10.048000	26.679550	0.000661	20.791761
1554.414820	-2.981800	3.340700	-9.960800	26.634296	0.000659	20.802691
1555.421127	-2.982300	3.339300	-9.957800	26.620618	0.000660	20.777561
1556.419917	-3.000600	3.339000	-10.017000	26.644697	0.000658	20.782327
1557.417238	-3.005100	3.338400	-10.031000	26.692633	0.000656	20.776939
1558.422457	-2.992200	3.338200	-9.987500	26.698318	0.000657	20.786921
1559.423565	-2.999000	3.338700	-10.012000	26.675703	0.000656	20.776514
1560.415614	-3.010700	3.337300	-10.046000	26.691543	0.000656	20.764936
1561.416972	-2.993000	3.336900	-9.986500	26.721702	0.000657	20.782930
1562.416243	-2.987400	3.336300	-9.965500	26.772042	0.000654	20.773323
1563.418688	-3.000500	3.336200	-10.009000	26.792021	0.000654	20.775867
1564.423356	-2.993300	3.335300	-9.982600	26.814933	0.000655	20.778040
1565.419671	-2.995900	3.336000	-9.992700	26.845113	0.000653	20.783256
1566.424492	-2.983800	3.335600	-9.951900	26.827641	0.000653	20.767584
1567.419351	-2.963400	3.334900	-9.881500	26.842377	0.000650	20.770547
1568.418640	-3.015800	3.333700	-10.052000	26.824389	0.000653	20.774746
1569.421747	-3.003800	3.334500	-10.015000	26.816421	0.000651	20.781433
1570.430683	-3.008900	3.333700	-10.030000	26.812501	0.000651	20.765164
1571.427411	-2.998100	3.333300	-9.992100	26.838064	0.000650	20.778065
1572.424911	-3.001200	3.332600	-10.000000	26.806768	0.000649	20.785478
1573.430959	-3.006400	3.331600	-10.015000	26.842529	0.000648	20.783977
1574.427088	-3.001000	3.332100	-9.998900	26.810339	0.000645	20.771051
1575.427870	-3.014400	3.331700	-10.041000	26.797847	0.000649	20.764180
1576.428586	-3.029600	3.331400	-10.091000	26.789241	0.000647	20.795357
1577.421074	-2.987700	3.330700	-9.949900	26.809445	0.000646	20.770626
1578.425470	-2.998700	3.330900	-9.987300	26.833521	0.000643	20.762116
1579.424271	-2.996200	3.328500	-9.972300	26.855134	0.000644	20.773417
1580.424096	-2.997300	3.329400	-9.977900	26.857074	0.000644	20.757350
1581.425405	-2.983100	3.330400	-9.934400	26.869929	0.000645	20.762215
1582.425748	-3.004300	3.328400	-9.998400	26.899239	0.000643	20.766556
1583.423141	-2.986400	3.327900	-9.937100	26.920905	0.000642	20.776963
1584.425770	-2.978100	3.329300	-9.914300	26.883207	0.000643	20.751383
1585.424458	-3.005800	3.328100	-10.002000	26.848090	0.000641	20.783404
1586.426078	-2.983300	3.328900	-9.930100	26.854368	0.000641	20.756525
1587.427392	-3.003900	3.326400	-9.991100	26.836355	0.000640	20.750267
1588.425795	-2.995900	3.326100	-9.963400	26.870981	0.000638	20.763272
1589.426726	-3.014100	3.326900	-10.026000	26.858838	0.000640	20.758174
1590.422753	-2.978000	3.327400	-9.907800	26.832067	0.000639	20.740739
1591.423395	-3.010300	3.326400	-10.012000	26.781754	0.000638	20.744681
1592.426506	-3.007600	3.324900	-9.999300	26.756936	0.000635	20.768567
1593.424990	-2.992100	3.325300	-9.949000	26.757157	0.000635	20.766418
1594.431908	-2.984800	3.325700	-9.925100	26.825391	0.000634	20.765322
1595.427418	-2.995500	3.325000	-9.959600	26.828329	0.000632	20.764482
1596.427622	-2.996800	3.323800	-9.959200	26.861835	0.000633	20.755972
1597.427716	-2.997000	3.322800	-9.957300	26.882613	0.000630	20.770227
1598.428038	-2.988200	3.322500	-9.926900	26.896784	0.000632	20.760294
1599.429168	-2.992800	3.324300	-9.947400	26.881100	0.000632	20.754955
1600.426693	-3.001100	3.322400	-9.970000	26.907860	0.000634	20.760526
1601.438213	-3.006000	3.320900	-9.982000	26.846539	0.000631	20.748653
1602.430708	-3.015000	3.319800	-10.008000	26.814079	0.000631	20.742567
1603.434287	-2.983500	3.321000	-9.906300	26.798767	0.000630	20.753251
1604.431304	-3.021400	3.320100	-10.031000	26.800310	0.000630	20.751957
1605.437194	-3.009700	3.319400	-9.989600	26.794233	0.000627	20.780936
1606.429462	-2.994700	3.320900	-9.944600	26.783117	0.000629	20.754585
1607.430906	-2.990700	3.319700	-9.927500	26.747378	0.000628	20.739515
1608.435850	-3.011100	3.317900	-9.989800	26.712227	0.000626	20.734522
1609.431934	-3.003100	3.317200	-9.960600	26.678575	0.000626	20.752373
1610.434922	-2.978000	3.319200	-9.883800	26.619544	0.000628	20.751824
1611.428073	-3.004600	3.317000	-9.963600	26.636431	0.000625	20.744144
1612.428364	-2.982300	3.317700	-9.894200	26.683773	0.000624	20.756176
1613.432750	-2.994100	3.318500	-9.935000	26.704299	0.000625	20.767329
1614.430146	-2.984100	3.316700	-9.896600	26.710263	0.000624	20.747246
1615.429088	-3.005200	3.316700	-9.966900	26.747698	0.000625	20.747424
1616.428240	-2.996000	3.317000	-9.936300	26.802330	0.000622	20.735970
1617.434402	-3.005800	3.314700	-9.961500	26.811609	0.000620	20.730126
1618.436609	-3.006100	3.315300	-9.965300	26.823753	0.000622	20.748027
1619.427660	-3.007500	3.313700	-9.964900	26.827825	0.000619	20.734577
1620.433699	-2.996400	3.314900	-9.932500	26.848250	0.000619	20.730932
1621.436921	-2.998300	3.313800	-9.935300	26.863738	0.000619	20.737022
1622.431233	-2.976900	3.314400	-9.865700	26.849395	0.000618	20.758637
1623.436122	-2.993400	3.313100	-9.916500	26.866297	0.000617	20.735802
1624.434014	-2.998700	3.311000	-9.927800	26.856664	0.000617	20.756463
1625.434772	-3.003300	3.311000	-9.942300	26.844576	0.000616	20.720599
1626.434447	-2.987000	3.311200	-9.888500	26.826233	0.000616	20.727287
1627.438827	-3.016700	3.310600	-9.986400	26.848771	0.000616	20.726714
1628.437350	-3.010300	3.309900	-9.962600	26.883563	0.000615	20.721868
1629.432168	-3.019500	3.310500	-9.995000	26.880965	0.000614	20.739171
1630.437195	-3.013500	3.309400	-9.971000	26.918885	0.000616	20.741739
1631.444046	-2.968000	3.310200	-9.824100	26.941984	0.000612	20.744105
1632.430782	-2.997400	3.309800	-9.919000	26.913516	0.000611	20.756255
1633.434062	-3.002700	3.309100	-9.935600	26.902591	0.000613	20.715397
1634.441310	-2.984300	3.309700	-9.876200	26.886632	0.000612	20.730645
1635.435586	-3.007900	3.308600	-9.951100	26.881912	0.000612	20.734907
1636.441158	-3.001800	3.308600	-9.930500	26.911570	0.000611	20.742919
1637.447278	-2.998200	3.307800	-9.916500	26.904050	0.000611	20.723502
1638.439123	-2.991600	3.307900	-9.894700	26.900125	0.000609	20.733307
1639.436688	-3.003700	3.306500	-9.930100	26.917268	0.000608	20.743907
1640.440857	-3.017100	3.306300	-9.974700	26.917012	0.000607	20.749814
1641.438160	-2.983600	3.306800	-9.864900	26.957686	0.000607	20.731444
1642.444932	-2.987300	3.306900	-9.878200	26.952941	0.000607	20.748485
1643.444200	-3.006100	3.305400	-9.935300	26.947455	0.000606	20.752451
1644.439616	-3.008900	3.304700	-9.942900	26.932764	0.000605	20.746213
1645.439231	-3.019700	3.302400	-9.971000	26.925460	0.000603	20.745980
1646.443030	-3.026400	3.302600	-9.992300	26.913593	0.000606	20.733098
1647.441868	-2.992400	3.304000	-9.884900	26.915872	0.000602	20.768108
1648.444341	-2.989600	3.303000	-9.873300	26.939866	0.000603	20.738655
1649.442169	-2.993300	3.302200	-9.882700	26.937631	0.000604	20.740201
1650.447538	-3.009300	3.303000	-9.938700	26.973240	0.000601	20.736654
1651.441175	-3.003300	3.302600	-9.915800	26.976339	0.000601	20.745461
1652.444164	-2.974500	3.301900	-9.821100	26.965043	0.000602	20.720823
1653.443520	-3.001100	3.301700	-9.907900	27.007149	0.000601	20.746572
1654.446227	-2.996000	3.301000	-9.888500	26.982803	0.000599	20.744374
1655.444192	-3.008000	3.301400	-9.928300	26.944580	0.000599	20.757147
1656.450317	-3.011800	3.299900	-9.937500	26.930557	0.000598	20.736881
1657.442199	-3.014200	3.300000	-9.946500	26.928617	0.000597	20.718333
1658.453550	-3.011900	3.299500	-9.936700	26.915635	0.000597	20.734678
1659.450107	-3.004500	3.298000	-9.907600	26.922354	0.000596	20.744754
1660.445780	-2.986400	3.299100	-9.851500	26.910124	0.000596	20.738145
1661.441869	-2.992000	3.298400	-9.867800	26.871776	0.000594	20.720922
1662.446762	-3.009500	3.299000	-9.927200	26.896346	0.000595	20.738516
1663.445065	-3.012700	3.298100	-9.936400	26.921013	0.000595	20.741035
1664.447408	-2.997600	3.296800	-9.880700	26.951559	0.000595	20.743302
1665.444710	-2.981100	3.298100	-9.830300	26.921352	0.000592	20.750385
1666.442552	-2.986000	3.297200	-9.844200	26.873186	0.000591	20.730400
1667.453608	-2.984800	3.296700	-9.837400	26.838535	0.000593	20.736811
1668.445315	-2.999800	3.296000	-9.885400	26.824486	0.000592	20.748765
1669.447921	-3.020800	3.294700	-9.951200	26.845977	0.000590	20.757571
1670.447470	-3.012500	3.294200	-9.922800	26.836521	0.000587	20.762762
1671.443859	-3.011800	3.293700	-9.919000	26.837789	0.000588	20.733216
1672.452100	-2.999100	3.294200	-9.878900	26.889655	0.000588	20.739375
1673.443416	-3.002900	3.293400	-9.888200	26.936343	0.000588	20.742699
1674.460489	-2.970000	3.293900	-9.782400	26.993740	0.000587	20.732613
1675.444253	-2.995000	3.293200	-9.861600	27.014186	0.000585	20.742743
1676.457344	-3.006700	3.290700	-9.892900	27.028955	0.000586	20.754277
1677.447491	-2.998400	3.291400	-9.868000	27.026401	0.000582	20.750760
1678.447300	-2.988400	3.291900	-9.837500	27.000763	0.000584	20.764333
1679.450651	-2.987000	3.292200	-9.833200	26.995479	0.000583	20.751906
1680.448893	-2.979300	3.291900	-9.805700	27.014265	0.000583	20.759893
1681.451042	-3.000000	3.290500	-9.870000	27.052779	0.000581	20.737933
1682.447204	-2.984200	3.289900	-9.816200	27.054965	0.000582	20.760994
1683.447446	-3.005600	3.289100	-9.884800	27.046699	0.000581	20.759794
1684.451401	-3.002700	3.287600	-9.870400	27.049823	0.000580	20.762461
1685.452290	-3.002100	3.287800	-9.868500	27.079555	0.000579	20.763913
1686.455765	-3.017800	3.287300	-9.919100	27.085085	0.000579	20.733912
1687.447412	-2.999200	3.287400	-9.858500	27.111413	0.000576	20.735735
1688.448131	-3.004900	3.286500	-9.873500	27.103084	0.000577	20.759601
1689.447536	-3.014300	3.286100	-9.902600	27.117787	0.000578	20.762061
1690.449619	-3.000400	3.286500	-9.858900	27.114517	0.000578	20.761617
1691.453750	-3.002900	3.286400	-9.866700	27.133178	0.000575	20.761419
1692.460185	-2.999200	3.284600	-9.850400	27.137053	0.000575	20.742082
1693.459334	-2.963000	3.286600	-9.737200	27.136900	0.000574	20.752360
1694.451960	-2.992600	3.286000	-9.832500	27.137033	0.000574	20.753916
1695.452941	-2.985800	3.285800	-9.808700	27.124776	0.000573	20.750123
1696.455806	-2.977000	3.285200	-9.779700	27.147827	0.000572	20.766195
1697.449474	-3.020300	3.282700	-9.913900	27.193634	0.000571	20.752998
1698.450568	-2.986300	3.282400	-9.801400	27.201569	0.000571	20.753867
1699.463109	-3.016200	3.283300	-9.902000	27.200106	0.000570	20.747653
1700.459023	-2.979000	3.284700	-9.784100	27.228096	0.000569	20.760160
1701.454491	-3.004600	3.283000	-9.862700	27.235785	0.000569	20.763627
1702.455184	-3.016600	3.282300	-9.900600	27.201746	0.000567	20.747881
1703.456272	-2.978500	3.282600	-9.776600	27.192794	0.000568	20.762111
1704.462876	-2.994800	3.282600	-9.829100	27.137613	0.000568	20.756870
1705.464447	-3.001700	3.280500	-9.846400	27.148584	0.000568	20.757473
1706.454666	-3.011300	3.281800	-9.880400	27.138188	0.000565	20.768354
1707.465295	-3.014300	3.280300	-9.886700	27.099877	0.000567	20.744522
1708.459643	-2.992100	3.280000	-9.812400	27.095040	0.000566	20.762417
1709.461641	-2.999400	3.279400	-9.835700	27.023671	0.000562	20.761765
1710.456629	-2.995600	3.278600	-9.819800	27.019825	0.000563	20.766907
1711.454894	-3.002200	3.278700	-9.842300	27.018391	0.000562	20.773526
1712.455482	-2.993200	3.279900	-9.814800	27.021618	0.000560	20.768710
1713.460877	-3.020100	3.277100	-9.896000	27.041641	0.000562	20.762294
1714.470450	-3.026800	3.276800	-9.917300	27.048272	0.000563	20.784609
1715.456912	-3.024800	3.276500	-9.908700	27.095045	0.000560	20.760526
1716.461227	-2.993800	3.277100	-9.809100	27.083087	0.000561	20.778371
1717.458850	-2.970800	3.277600	-9.735700	27.074109	0.000558	20.768868
1718.464397	-3.006400	3.275900	-9.847300	27.076369	0.000559	20.772563
1719.475925	-3.005500	3.277200	-9.848200	27.043365	0.000558	20.777779
1720.459943	-3.002700	3.275300	-9.833800	27.057014	0.000557	20.770167
1721.465256	-2.994000	3.276100	-9.807700	27.071757	0.000556	20.778831
1722.460766	-2.997800	3.274400	-9.815400	27.132649	0.000556	20.774163
1723.462238	-3.027700	3.272400	-9.906700	27.176620	0.000556	20.765283
1724.465961	-2.996700	3.273800	-9.808700	27.220810	0.000554	20.778436
1725.458444	-2.963100	3.273700	-9.699400	27.261521	0.000553	20.797575
1726.464703	-3.043000	3.270200	-9.950400	27.286858	0.000554	20.769007
1727.460077	-2.994400	3.272000	-9.796600	27.308094	0.000553	20.772825
1728.466784	-2.990300	3.273700	-9.788100	27.308241	0.000551	20.781982
1729.474445	-2.998700	3.271800	-9.810600	27.324445	0.000554	20.784057
1730.472299	-3.003000	3.271200	-9.822200	27.310402	0.000550	20.771827
1731.460651	-2.991800	3.273100	-9.791400	27.289795	0.000550	20.775754
1732.473793	-3.016300	3.268900	-9.858700	27.262101	0.000550	20.794365
1733.459955	-3.035500	3.269200	-9.921100	27.296016	0.000548	20.779641
1734.474733	-3.002400	3.271000	-9.818500	27.285449	0.000549	20.793668
1735.466375	-3.016400	3.268700	-9.859400	27.253341	0.000548	20.793140
1736.460753	-3.017200	3.268900	-9.861200	27.214564	0.000545	20.790645
1737.467753	-2.996200	3.268700	-9.792800	27.221487	0.000547	20.772953
1738.466033	-3.007700	3.268000	-9.828100	27.209231	0.000546	20.775324
1739.474171	-2.996800	3.267200	-9.790100	27.153505	0.000545	20.802252
1740.466393	-3.000400	3.267400	-9.802000	27.114420	0.000544	20.797555
1741.468776	-3.004200	3.265900	-9.810400	27.054102	0.000542	20.772455
1742.467463	-2.990200	3.266100	-9.765600	27.094054	0.000544	20.771383
1743.462146	-3.001500	3.266800	-9.804800	27.150475	0.000544	20.793041
1744.468359	-2.998300	3.266600	-9.793000	27.183725	0.000543	20.785232
1745.465432	-3.051100	3.263700	-9.955400	27.219548	0.000541	20.781908
1746.488500	-3.010900	3.264200	-9.827300	27.262494	0.000542	20.805191
1747.474818	-3.005100	3.265300	-9.811900	27.284619	0.000541	20.798049
1748.473807	-2.985600	3.263900	-9.744400	27.279655	0.000539	20.808228
1749.465378	-3.012800	3.263300	-9.829800	27.274126	0.000538	20.783701
1750.476733	-3.014400	3.262400	-9.833400	27.233856	0.000540	20.807206
1751.469739	-3.019900	3.262000	-9.849500	27.232565	0.000539	20.786467
1752.473132	-2.996100	3.263000	-9.775100	27.231170	0.000536	20.804030
1753.466582	-3.008600	3.261000	-9.809700	27.227704	0.000537	20.789638
1754.470237	-2.995100	3.263300	-9.771600	27.247100	0.000536	20.813888
1755.473953	-3.013000	3.261700	-9.827100	27.288974	0.000538	20.794369
1756.482461	-2.991800	3.261700	-9.757600	27.327822	0.000534	20.791247
1757.467799	-3.013200	3.261600	-9.826600	27.347422	0.000534	20.789627
1758.471233	-3.014200	3.259900	-9.824800	27.335977	0.000534	20.806563
1759.466095	-3.010300	3.259700	-9.811800	27.322087	0.000532	20.819143
1760.470035	-2.993900	3.258900	-9.756100	27.271272	0.000533	20.800271
1761.475777	-3.018100	3.258700	-9.832700	27.284765	0.000532	20.798671
1762.471234	-2.998800	3.257900	-9.767000	27.270899	0.000530	20.827870
1763.479603	-3.005800	3.257900	-9.791800	27.290397	0.000531	20.794853
1764.474766	-2.995000	3.257400	-9.755200	27.270398	0.000531	20.793702
1765.473714	-3.016600	3.258200	-9.827400	27.231965	0.000528	20.803407
1766.469051	-2.998700	3.259300	-9.771400	27.215908	0.000528	20.812386
1767.474097	-3.002900	3.258100	-9.781600	27.205660	0.000529	20.811561
1768.488179	-2.980600	3.258000	-9.709100	27.224982	0.000526	20.812979
1769.474517	-3.001500	3.257200	-9.775200	27.206769	0.000527	20.815996
1770.471194	-2.993300	3.257300	-9.748900	27.189744	0.000525	20.810726
1771.473635	-3.001700	3.257900	-9.778200	27.194257	0.000525	20.831386
1772.472587	-2.998200	3.255400	-9.759800	27.225979	0.000524	20.815878
1773.471584	-3.011800	3.254700	-9.801300	27.266298	0.000524	20.811388
1774.473626	-2.998200	3.253400	-9.752500	27.337125	0.000523	20.829055
1775.475905	-2.992100	3.254400	-9.736900	27.329456	0.000522	20.811383
1776.474461	-2.990100	3.254900	-9.731800	27.338584	0.000521	20.823409
1777.479783	-3.003400	3.253100	-9.769500	27.317967	0.000521	20.820214
1778.483396	-2.998300	3.252700	-9.752100	27.338205	0.000521	20.823503
1779.476699	-3.007300	3.252500	-9.780100	27.373203	0.000519	20.810346
1780.484615	-3.003200	3.252000	-9.765800	27.360825	0.000520	20.827291
1781.472503	-3.023600	3.250500	-9.827600	27.376698	0.000518	20.829035
1782.476947	-3.004000	3.251000	-9.764800	27.417104	0.000520	20.833174
1783.475650	-3.008400	3.250300	-9.777400	27.448069	0.000517	20.822125
1784.486279	-2.979000	3.249500	-9.678700	27.477009	0.000516	20.826585
1785.477986	-3.003800	3.250900	-9.764400	27.494520	0.000516	20.829504
1786.475693	-3.039300	3.246700	-9.866400	27.527735	0.000514	20.831154
1787.481771	-2.970100	3.249200	-9.648700	27.555657	0.000515	20.836013
1788.481328	-2.990500	3.249000	-9.714600	27.556099	0.000513	20.836932
1789.475593	-3.010700	3.246200	-9.772400	27.570836	0.000511	20.836586
1790.475794	-2.981700	3.247200	-9.680100	27.608063	0.000512	20.836586
1791.476269	-2.979300	3.247200	-9.673200	27.581596	0.000511	20.832240
1792.475675	-3.003100	3.246000	-9.746600	27.551411	0.000510	20.835534
1793.477294	-2.986600	3.246600	-9.695200	27.478757	0.000511	20.850628
1794.475407	-2.998900	3.247600	-9.737000	27.441352	0.000511	20.846662
1795.480302	-2.987000	3.246000	-9.693900	27.421361	0.000509	20.834137
1796.480390	-3.010100	3.245300	-9.768200	27.392060	0.000509	20.833109
1797.482171	-3.022400	3.243600	-9.800000	27.409131	0.000506	20.834635
1798.491927	-3.039700	3.242900	-9.855100	27.433640	0.000507	20.839377
1799.477499	-3.001200	3.243500	-9.733600	27.452786	0.000504	20.841095
1800.476923	-2.999900	3.244500	-9.731800	27.461245	0.000506	20.851502
1801.480609	-2.995900	3.244400	-9.719500	27.496292	0.000504	20.835554
1802.481698	-3.011400	3.242200	-9.762200	27.530474	0.000503	20.831065
1803.477024	-3.004100	3.244100	-9.744300	27.526434	0.000504	20.855922
1804.476990	-3.008400	3.243500	-9.756500	27.551612	0.000502	20.857073
1805.487203	-3.003000	3.242100	-9.734900	27.550626	0.000501	20.847546
1806.477745	-3.014100	3.241200	-9.767700	27.600799	0.000501	20.849665
1807.484313	-2.988900	3.240500	-9.684600	27.600057	0.000500	20.840859
1808.501027	-3.009300	3.239600	-9.747700	27.631973	0.000501	20.862066
1809.479590	-3.002400	3.240200	-9.727900	27.612084	0.000500	20.861493
1810.480088	-2.994000	3.239600	-9.698100	27.620345	0.000500	20.841832
1811.480229	-3.015600	3.237700	-9.762800	27.586048	0.000498	20.856633
1812.480203	-3.014300	3.238200	-9.759700	27.588380	0.000497	20.858505
1813.482502	-2.981700	3.238100	-9.654300	27.565043	0.000495	20.841190
1814.479153	-2.994500	3.239200	-9.699400	27.538825	0.000496	20.842785
1815.484175	-2.997300	3.236300	-9.699600	27.528830	0.000497	20.848850
1816.492798	-2.983200	3.237600	-9.657500	27.524171	0.000496	20.852223
1817.490663	-2.993500	3.237700	-9.691000	27.552619	0.000494	20.854292
1818.492979	-3.022200	3.235500	-9.777500	27.584816	0.000493	20.862506
1819.479614	-2.994100	3.235200	-9.685300	27.604112	0.000491	20.850154
1820.485158	-2.992000	3.236900	-9.684100	27.605771	0.000491	20.856090
1821.485493	-3.011800	3.234000	-9.738400	27.611946	0.000490	20.865622
1822.494745	-2.997200	3.233900	-9.691900	27.604235	0.000490	20.865449
1823.504761	-3.014900	3.234500	-9.749600	27.577178	0.000489	20.867622
1824.488909	-2.994600	3.234600	-9.685600	27.570850	0.000487	20.878325
1825.496785	-3.013100	3.231500	-9.736100	27.585857	0.000487	20.880147
1826.491779	-2.995100	3.233600	-9.684000	27.627948	0.000488	20.882197
1827.488166	-3.006200	3.232800	-9.718400	27.639822	0.000486	20.867119
1828.491406	-2.976400	3.232500	-9.620600	27.624002	0.000485	20.862106
1829.487765	-3.007400	3.229600	-9.712700	27.642826	0.000484	20.864926
1830.491248	-2.978800	3.234600	-9.633800	27.661105	0.000482	20.853922
1831.485749	-2.985300	3.230900	-9.644200	27.720721	0.000482	20.863652
1832.489518	-2.980900	3.230900	-9.629700	27.714395	0.000482	20.880043
1833.489179	-3.001000	3.230000	-9.692900	27.729674	0.000482	20.871712
1834.490421	-2.996000	3.231200	-9.679500	27.745669	0.000482	20.877851
1835.496421	-3.008000	3.229100	-9.712500	27.754130	0.000481	20.882098
1836.489399	-2.974300	3.228000	-9.599700	27.720378	0.000478	20.879426
1837.505502	-3.006200	3.228700	-9.705300	27.720309	0.000480	20.878883
1838.490082	-3.011900	3.227200	-9.719000	27.722390	0.000477	20.884770
1839.489433	-3.010500	3.227700	-9.715500	27.728864	0.000477	20.870897
1840.489713	-3.008900	3.226700	-9.707700	27.744118	0.000478	20.862540
1841.500397	-2.993200	3.227800	-9.660500	27.749571	0.000475	20.881303
1842.501674	-2.999200	3.226900	-9.677300	27.752771	0.000476	20.893057
1843.496822	-2.995800	3.226600	-9.665200	27.742518	0.000473	20.884637
1844.499355	-3.017900	3.226100	-9.733800	27.756845	0.000473	20.871554
1845.506526	-3.003300	3.223700	-9.681100	27.743907	0.000471	20.886034
1846.498846	-2.998800	3.224600	-9.667500	27.738131	0.000472	20.881170
1847.490200	-2.993300	3.224100	-9.649000	27.705595	0.000471	20.898213
1848.491621	-2.981400	3.224400	-9.611700	27.710513	0.000470	20.874241
1849.505315	-2.995700	3.224000	-9.658000	27.714356	0.000469	20.875737
1850.491515	-2.993000	3.223300	-9.645600	27.771245	0.000467	20.895053
1851.489878	-2.964800	3.223900	-9.557300	27.785183	0.000469	20.884425
1852.512103	-2.994300	3.223800	-9.651300	27.826281	0.000466	20.913454
1853.494313	-3.016600	3.221800	-9.718100	27.789306	0.000466	20.886203
1854.503962	-2.988800	3.221700	-9.628400	27.737257	0.000466	20.896411
1855.499594	-2.994200	3.220800	-9.641800	27.692279	0.000462	20.893349
1856.495314	-2.987400	3.221300	-9.621900	27.698483	0.000463	20.882050
1857.500262	-2.990600	3.221300	-9.632300	27.739653	0.000463	20.904985
1858.506967	-2.986600	3.220600	-9.617300	27.755177	0.000462	20.887892
1859.493634	-3.012700	3.218900	-9.697300	27.768502	0.000461	20.881388
1860.501295	-3.010100	3.218600	-9.687600	27.790342	0.000461	20.892935
1861.500040	-3.008100	3.217300	-9.675700	27.818645	0.000462	20.898659
1862.497142	-3.012100	3.218800	-9.694600	27.839827	0.000461	20.907173
1863.507440	-2.965000	3.220200	-9.547000	27.827558	0.000460	20.886767
1864.501713	-2.989500	3.218600	-9.621700	27.892774	0.000458	20.903563
1865.496808	-3.008700	3.216200	-9.676400	27.892901	0.000459	20.870504
1866.502494	-2.990000	3.216900	-9.617600	27.885216	0.000455	20.895958
1867.499248	-2.993900	3.217500	-9.632000	27.894644	0.000455	20.898333
1868.500848	-2.993600	3.216500	-9.628000	27.911088	0.000454	20.893548
1869.502713	-2.980200	3.216500	-9.584500	27.941140	0.000453	20.884915
1870.506263	-3.021600	3.214700	-9.712300	27.962294	0.000454	20.892931
1871.503138	-3.008700	3.213300	-9.666200	27.954482	0.000451	20.908300
1872.516734	-2.974900	3.212600	-9.555200	27.960047	0.000452	20.907263
1873.500828	-2.988600	3.213400	-9.602400	27.922189	0.000452	20.890022
1874.506914	-3.012900	3.212600	-9.678200	27.894247	0.000449	20.893667
1875.500447	-2.992000	3.212600	-9.610800	27.874220	0.000448	20.879676
1876.504669	-3.019000	3.212000	-9.696000	27.825111	0.000448	20.904691
1877.518029	-3.009800	3.211300	-9.664200	27.761604	0.000447	20.907160
1878.513195	-2.992000	3.211000	-9.606500	27.731204	0.000447	20.864243
1879.503817	-3.005200	3.211000	-9.648400	27.714467	0.000446	20.881065
1880.500379	-3.015500	3.210400	-9.680300	27.730890	0.000444	20.870091
1881.502923	-2.999700	3.209700	-9.627700	27.737418	0.000443	20.852953
1882.501061	-2.978600	3.210600	-9.560400	27.774149	0.000442	20.858149
1883.504150	-2.999300	3.210200	-9.626700	27.807925	0.000443	20.853260
1884.510278	-2.998500	3.208400	-9.618900	27.803940	0.000442	20.870111
1885.502415	-2.990200	3.208900	-9.593900	27.803572	0.000440	20.870215
1886.510546	-3.023500	3.208300	-9.699300	27.846873	0.000440	20.871119
1887.503074	-3.012900	3.207200	-9.661800	27.851687	0.000440	20.847517
1888.502873	-3.042300	3.205600	-9.750500	27.883704	0.000438	20.860299
1889.502139	-2.991900	3.207900	-9.596200	27.926304	0.000437	20.862872
1890.506208	-3.009500	3.208400	-9.654300	27.943116	0.000436	20.873629
1891.514667	-3.019800	3.207200	-9.684100	27.970640	0.000436	20.875254
1892.515155	-3.012500	3.206900	-9.659700	28.016534	0.000435	20.865500
1893.516361	-2.991400	3.204600	-9.584400	28.021176	0.000435	20.836509
1894.506395	-3.018100	3.204000	-9.667700	28.015136	0.000433	20.868360
1895.510365	-2.991300	3.205100	-9.586500	28.015986	0.000432	20.845034
1896.508689	-3.013900	3.205500	-9.660500	28.020195	0.000430	20.844056
1897.515056	-3.000300	3.203200	-9.609900	28.037041	0.000432	20.845840
1898.507185	-2.981500	3.204000	-9.552500	28.045941	0.000430	20.848161
1899.510303	-2.986300	3.202100	-9.560600	28.091857	0.000429	20.831320
1900.508306	-2.986600	3.201100	-9.559200	28.070641	0.000429	20.840309
1901.517927	-2.997300	3.201100	-9.592900	28.087731	0.000430	20.865097
1902.514447	-2.972200	3.202600	-9.517000	28.070451	0.000428	20.882788
1903.516107	-3.008000	3.200400	-9.625900	28.036914	0.000425	20.879376
1904.515231	-3.018100	3.198200	-9.651800	28.076707	0.000425	20.844044
1905.513649	-3.014400	3.199500	-9.643600	28.076540	0.000426	20.835342
1906.514790	-3.026800	3.199700	-9.683900	28.115286	0.000425	20.850637
1907.514113	-2.985900	3.201000	-9.556700	28.097594	0.000424	20.838044
1908.517269	-2.960300	3.198400	-9.466800	28.024639	0.000422	20.844736
1909.511691	-2.985800	3.198900	-9.550000	27.984207	0.000421	20.845289
1910.512317	-2.991400	3.199000	-9.568400	28.000277	0.000420	20.838232
1911.520602	-2.985600	3.197100	-9.544500	27.995567	0.000419	20.852930
1912.525988	-3.010700	3.198100	-9.626900	28.026485	0.000422	20.853706
1913.513498	-2.988100	3.196900	-9.551100	28.031451	0.000417	20.836894
1914.517264	-2.994300	3.195600	-9.567000	28.032472	0.000418	20.834129
1915.512179	-3.005200	3.195900	-9.603900	28.073226	0.000418	20.854763
1916.519477	-3.003000	3.194100	-9.589800	28.060940	0.000419	20.849983
1917.516098	-2.994400	3.195200	-9.566500	28.070764	0.000416	20.834742
1918.527715	-2.976100	3.195500	-9.509200	28.062182	0.000416	20.828474
1919.516934	-3.014400	3.192800	-9.623000	28.064768	0.000414	20.836767
1920.515854	-3.016400	3.193100	-9.629700	28.089065	0.000415	20.823768
1921.512821	-2.985700	3.194400	-9.535300	28.110860	0.000415	20.841440
1922.517131	-2.995000	3.192200	-9.558800	28.120849	0.000414	20.820676
1923.521205	-3.014000	3.190300	-9.614900	28.133718	0.000412	20.850701
1924.526342	-2.983700	3.192000	-9.523200	28.151469	0.000411	20.812147
1925.518887	-2.996800	3.190600	-9.560900	28.168694	0.000411	20.832333
1926.524332	-3.004900	3.191600	-9.589500	28.144679	0.000410	20.822855
1927.517097	-3.000900	3.191300	-9.575900	28.134665	0.000411	20.831266
1928.533163	-2.990100	3.190200	-9.537400	28.125716	0.000407	20.829844
1929.515368	-2.990200	3.189000	-9.535300	28.122468	0.000408	20.836057
1930.523351	-3.023800	3.188000	-9.639100	28.066265	0.000407	20.818835
1931.529279	-2.996500	3.187800	-9.551500	28.088311	0.000406	20.839603
1932.520302	-3.023900	3.188300	-9.640000	28.084164	0.000405	20.832585
1933.523363	-2.973200	3.187900	-9.477700	28.079900	0.000403	20.830663
1934.517259	-2.986000	3.187700	-9.517500	28.076878	0.000402	20.816716
1935.527590	-3.006500	3.187000	-9.579700	28.029868	0.000400	20.789309
1936.526345	-2.972300	3.187900	-9.474200	28.009416	0.000401	20.810922
1937.519933	-2.993500	3.185000	-9.532900	27.983557	0.000400	20.813342
1938.520682	-2.997300	3.187700	-9.553400	27.999917	0.000397	20.815110
1939.535684	-2.996500	3.183500	-9.538400	28.012483	0.000398	20.814957
1940.531548	-3.008700	3.185500	-9.582500	28.037105	0.000397	20.831206
1941.523775	-3.018200	3.183400	-9.607000	28.014808	0.000396	20.842901
1942.531139	-3.009300	3.183800	-9.580200	28.038409	0.000395	20.834416
1943.523253	-2.991900	3.184300	-9.526300	28.073590	0.000394	20.821466
1944.523469	-3.033100	3.182500	-9.651200	28.090424	0.000394	20.825610
1945.521378	-2.998800	3.183100	-9.544200	28.106708	0.000392	20.828252
1946.526281	-2.999000	3.182600	-9.543800	28.114715	0.000392	20.807390
1947.523576	-3.000400	3.182700	-9.548800	28.146125	0.000391	20.815302
1948.529034	-3.009200	3.180200	-9.569200	28.113052	0.000390	20.799077
1949.529457	-3.023100	3.178300	-9.607000	28.090821	0.000390	20.835493
1950.523907	-2.989900	3.181400	-9.511300	28.093324	0.000389	20.850813
1951.534004	-2.999200	3.179700	-9.535700	28.100089	0.000390	20.831072
1952.527576	-2.987500	3.180600	-9.499900	28.068678	0.000386	20.818893
1953.531266	-3.010100	3.178500	-9.566900	28.039381	0.000384	20.835868
1954.528084	-3.003300	3.177900	-9.542200	28.042404	0.000385	20.825161
1955.526303	-2.996700	3.179100	-9.524900	28.036580	0.000383	20.823091
1956.530088	-2.983700	3.179300	-9.485000	28.050986	0.000384	20.805350
1957.531336	-2.998100	3.175700	-9.520100	28.073796	0.000382	20.815510
1958.542402	-3.001300	3.176100	-9.531600	28.085022	0.000379	20.826810
1959.527714	-2.979100	3.176300	-9.461600	28.073050	0.000380	20.832303
1960.528211	-2.993300	3.176500	-9.507200	28.106174	0.000379	20.806378
1961.538308	-3.007900	3.174300	-9.546400	28.123846	0.000380	20.810892
1962.534470	-3.004600	3.173500	-9.533600	28.146552	0.000378	20.813836
1963.532701	-3.005300	3.175200	-9.541200	28.144698	0.000377	20.811495
1964.533794	-2.988900	3.174800	-9.487900	28.091842	0.000375	20.825141
1965.530381	-2.993500	3.173500	-9.498900	28.061996	0.000377	20.811218
1966.531945	-3.001400	3.172900	-9.522200	28.009338	0.000376	20.831231
1967.534883	-3.000300	3.172300	-9.517100	27.991168	0.000373	20.816261
1968.538792	-2.998500	3.172100	-9.509900	27.991462	0.000372	20.801384
1969.539658	-2.998100	3.170900	-9.505700	27.988960	0.000373	20.800762
1970.540183	-2.990500	3.170900	-9.481100	27.980132	0.000372	20.798989
1971.537060	-3.020500	3.169600	-9.571400	28.016673	0.000372	20.821071
1972.532870	-3.012600	3.169400	-9.547800	28.064027	0.000368	20.819901
1973.532753	-2.999700	3.168000	-9.501500	28.101390	0.000366	20.806778
1974.538209	-2.999100	3.168000	-9.500100	28.127889	0.000367	20.807376
1975.540374	-3.000300	3.166700	-9.500700	28.155977	0.000367	20.808151
1976.532930	-2.998100	3.167100	-9.494000	28.155305	0.000367	20.825966
1977.540024	-2.992700	3.166800	-9.476100	28.108137	0.000367	20.797449
1978.534656	-2.977400	3.167400	-9.429800	28.119509	0.000365	20.824544
1979.536076	-2.986100	3.166500	-9.454600	28.117135	0.000363	20.813145
1980.550972	-2.998500	3.166400	-9.493000	28.136770	0.000363	20.801617
1981.537993	-3.031900	3.163700	-9.591000	28.149394	0.000361	20.805317
1982.537115	-3.010800	3.165400	-9.529600	28.132457	0.000361	20.776413
1983.546069	-3.006900	3.164600	-9.513900	28.102789	0.000362	20.823833
1984.535545	-3.000800	3.164100	-9.493300	28.043960	0.000360	20.809658
1985.543077	-2.995300	3.163100	-9.473800	28.017239	0.000358	20.805520
1986.539613	-3.004900	3.163000	-9.503700	28.004673	0.000358	20.822742
1987.543203	-2.998900	3.161000	-9.478300	28.067052	0.000357	20.803031
1988.538459	-3.007600	3.162700	-9.510400	28.101259	0.000355	20.792421
1989.540585	-3.012200	3.160300	-9.518500	28.125016	0.000355	20.806854
1990.538945	-3.005200	3.160500	-9.497600	28.135299	0.000356	20.793024
1991.541903	-3.011300	3.158700	-9.510400	28.189914	0.000355	20.800591
1992.542651	-2.996900	3.160400	-9.470900	28.226478	0.000353	20.809428
1993.537709	-3.006100	3.158600	-9.493300	28.269732	0.000350	20.793707
1994.545855	-2.993900	3.158300	-9.455200	28.286342	0.000351	20.800473
1995.550191	-2.980500	3.158100	-9.410300	28.290360	0.000351	20.805467
1996.547693	-2.991200	3.158700	-9.447300	28.310865	0.000348	20.806673
1997.549442	-3.006200	3.156400	-9.487900	28.311611	0.000348	20.795570
1998.541834	-3.000900	3.157400	-9.473400	28.351565	0.000348	20.783642
1999.541440	-3.035900	3.153800	-9.572900	28.348769	0.000347	20.803586
2000.554681	-3.005600	3.155900	-9.484500	28.297793	0.000346	20.819115
2001.550436	-3.018200	3.153200	-9.516300	28.265245	0.000346	20.793931
2002.542767	-3.002600	3.154100	-9.469700	28.200582	0.000343	20.798529
2003.549147	-3.003400	3.153600	-9.470600	28.209757	0.000343	20.787851
2004.544648	-2.981600	3.154400	-9.403800	28.229763	0.000342	20.784760
2005.548954	-3.046200	3.151500	-9.599200	28.291162	0.000341	20.799162
2006.544703	-2.996300	3.151800	-9.442800	28.334840	0.000340	20.790035
2007.554008	-3.004200	3.151800	-9.467800	28.390381	0.000340	20.808503
2008.562417	-3.023400	3.149800	-9.522200	28.397268	0.000341	20.787462
2009.552226	-2.998800	3.149800	-9.444800	28.366464	0.000340	20.787739
2010.551272	-2.989800	3.149900	-9.417000	28.369276	0.000337	20.775397
2011.554852	-3.018100	3.149600	-9.504800	28.332619	0.000337	20.775945
2012.551242	-2.996200	3.150200	-9.437400	28.297967	0.000337	20.771401
2013.553751	-3.003400	3.148400	-9.454300	28.287735	0.000336	20.796660
2014.551526	-3.008600	3.147600	-9.468200	28.307018	0.000336	20.803273
2015.550527	-3.013100	3.146400	-9.479300	28.367653	0.000333	20.789410
2016.557816	-3.044200	3.145100	-9.572400	28.357111	0.000334	20.774528
2017.549569	-3.054000	3.145500	-9.604900	28.327945	0.000333	20.794947
2018.551520	-3.018900	3.144700	-9.491100	28.340360	0.000333	20.770937
2019.550887	-3.018200	3.144300	-9.489500	28.325291	0.000331	20.806973
2020.555303	-2.963400	3.144800	-9.317800	28.342195	0.000331	20.804553
2021.551621	-3.028600	3.143000	-9.518200	28.358529	0.000330	20.787810
2022.554656	-2.999400	3.143300	-9.427400	28.365642	0.000331	20.788807
2023.555248	-3.013100	3.141600	-9.464900	28.386091	0.000329	20.777630
2024.554059	-2.989900	3.141200	-9.390400	28.385297	0.000329	20.781097
2025.557205	-3.012400	3.140700	-9.460200	28.365250	0.000328	20.766601
2026.563378	-2.995300	3.141500	-9.408900	28.388819	0.000326	20.764729
2027.555902	-3.010400	3.139100	-9.448200	28.424134	0.000325	20.792230
2028.553224	-2.992000	3.140200	-9.394600	28.443960	0.000325	20.783745
2029.556654	-3.015100	3.139000	-9.462400	28.441641	0.000325	20.779513
2030.553741	-2.998900	3.138300	-9.409800	28.469985	0.000324	20.764907
2031.554108	-3.005000	3.138100	-9.428800	28.472039	0.000322	20.784995
2032.555141	-3.017900	3.136400	-9.463200	28.507627	0.000321	20.791910
2033.554925	-2.991400	3.136500	-9.381700	28.515680	0.000319	20.756871
2034.565035	-2.992600	3.135000	-9.380800	28.548711	0.000319	20.772592
2035.557639	-2.981800	3.135100	-9.346900	28.553572	0.000318	20.771323
2036.562148	-2.977100	3.135000	-9.331700	28.555087	0.000317	20.778066
2037.564213	-2.985400	3.134700	-9.356800	28.563538	0.000316	20.765713
2038.558143	-2.998000	3.132600	-9.390300	28.580437	0.000317	20.763293
2039.561627	-3.009200	3.131500	-9.422000	28.571841	0.000316	20.773127
2040.559238	-2.997400	3.133300	-9.388700	28.610440	0.000315	20.760793
2041.561166	-3.032700	3.130300	-9.491500	28.614138	0.000315	20.763569
2042.558244	-3.013300	3.130000	-9.430200	28.635275	0.000313	20.797185
2043.558258	-2.979600	3.130700	-9.327500	28.627051	0.000313	20.767091
2044.561532	-3.005300	3.128200	-9.400800	28.632333	0.000310	20.764825
2045.565812	-2.998500	3.128900	-9.381000	28.607259	0.000310	20.768020
2046.560659	-2.991800	3.129100	-9.360800	28.564563	0.000308	20.781919
2047.563552	-3.008000	3.127700	-9.406600	28.446953	0.000311	20.775380
2048.559566	-3.010700	3.127800	-9.415500	28.415509	0.000309	20.777380
2049.559533	-2.993200	3.128200	-9.361300	28.397762	0.000308	20.800288
2050.561771	-2.973100	3.125600	-9.291900	28.406342	0.000306	20.765304
2051.559172	-2.995000	3.124900	-9.358000	28.378407	0.000305	20.763254
2052.560067	-3.006700	3.126000	-9.396600	28.416009	0.000307	20.768875
2053.561692	-3.027200	3.123000	-9.452000	28.430808	0.000306	20.772872
2054.563723	-2.993200	3.122600	-9.345000	28.460711	0.000302	20.753198
2055.560453	-2.986900	3.124300	-9.330600	28.498953	0.000303	20.763259
2056.564703	-3.010200	3.122900	-9.399600	28.503466	0.000301	20.759743
2057.563296	-3.014900	3.120600	-9.406700	28.518361	0.000302	20.758622
2058.564484	-2.977900	3.122500	-9.296500	28.536723	0.000300	20.747242
2059.570704	-3.004100	3.120000	-9.371500	28.568341	0.000302	20.750635
2060.564313	-3.007600	3.121100	-9.384500	28.563510	0.000299	20.761418
2061.567263	-3.000000	3.118300	-9.353600	28.534521	0.000297	20.772526
2062.566712	-2.991200	3.119700	-9.330100	28.457279	0.000297	20.758276
2063.568330	-2.989000	3.118800	-9.320900	28.442487	0.000296	20.759502
2064.567056	-2.998800	3.117600	-9.348100	28.456563	0.000296	20.739063
2065.572871	-2.990400	3.117800	-9.322600	28.480509	0.000294	20.782144
2066.567361	-2.983300	3.117200	-9.298000	28.477610	0.000295	20.761681
2067.574142	-3.005300	3.115600	-9.362400	28.474461	0.000294	20.758984
2068.574945	-3.013200	3.113700	-9.381100	28.543159	0.000294	20.756569
2069.566910	-2.999500	3.115600	-9.343900	28.556140	0.000291	20.753521
2070.568345	-2.991700	3.114200	-9.316300	28.568833	0.000292	20.752553
2071.569257	-2.994700	3.111800	-9.317700	28.598822	0.000291	20.771378
2072.569723	-3.007100	3.112000	-9.356100	28.650333	0.000291	20.736012
2073.573214	-2.987400	3.111700	-9.294900	28.653629	0.000289	20.763988
2074.567187	-2.997700	3.110400	-9.323500	28.687485	0.000287	20.750199
2075.568971	-2.992500	3.111300	-9.308700	28.670562	0.000286	20.747853
2076.573131	-2.986700	3.109600	-9.286100	28.653340	0.000289	20.738092
2077.576810	-2.986400	3.107000	-9.278000	28.643655	0.000286	20.758210
2078.579955	-3.027500	3.105500	-9.401600	28.675428	0.000287	20.735683
2079.573963	-3.025700	3.106000	-9.396400	28.636893	0.000283	20.758512
2080.579104	-2.981000	3.105900	-9.257500	28.638763	0.000285	20.739057
2081.568150	-3.022600	3.106600	-9.388600	28.648918	0.000284	20.753079
2082.572037	-3.006400	3.105600	-9.334500	28.644613	0.000282	20.746847
2083.570227	-3.009000	3.104700	-9.340200	28.596569	0.000281	20.741606
2084.574782	-3.008500	3.103000	-9.333600	28.528803	0.000282	20.757284
2085.572026	-3.010500	3.102200	-9.338000	28.527641	0.000280	20.733353
2086.580584	-2.989900	3.101900	-9.273300	28.601214	0.000280	20.731111
2087.581903	-2.978700	3.102200	-9.238900	28.614970	0.000277	20.726948
2088.579282	-2.978700	3.102200	-9.239900	28.669041	0.000278	20.754855
2089.571937	-2.994900	3.099300	-9.281200	28.715273	0.000280	20.738358
2090.571553	-3.024200	3.097200	-9.364500	28.750382	0.000276	20.738161
2091.572590	-3.021400	3.097700	-9.357800	28.757246	0.000275	20.733696
2092.569951	-3.024500	3.096800	-9.364300	28.778061	0.000274	20.756086
2093.586312	-2.999400	3.097100	-9.288600	28.787633	0.000273	20.745339
2094.570423	-3.008300	3.095800	-9.312700	28.772639	0.000275	20.733553
2095.573993	-3.017500	3.095200	-9.338500	28.796307	0.000273	20.742697
2096.577597	-3.011800	3.094400	-9.318900	28.767050	0.000272	20.727923
2097.574019	-2.967200	3.095700	-9.184400	28.799455	0.000272	20.734488
2098.571790	-3.012600	3.093000	-9.316700	28.823736	0.000271	20.715797
2099.576199	-2.997800	3.092800	-9.270600	28.746123	0.000269	20.748571
2100.571137	-2.991700	3.091900	-9.249400	28.696108	0.000270	20.730434
2101.574243	-3.006200	3.091500	-9.293000	28.693504	0.000268	20.728759
2102.573814	-3.013900	3.090300	-9.312600	28.702228	0.000269	20.720476
2103.572039	-2.997200	3.089600	-9.259300	28.702680	0.000267	20.745115
2104.575938	-2.999000	3.089400	-9.263600	28.640319	0.000265	20.734461
2105.572123	-2.970400	3.089600	-9.176400	28.594201	0.000266	20.745860
2106.581107	-2.989900	3.087300	-9.229000	28.583904	0.000264	20.748765
2107.574106	-3.006300	3.087600	-9.280200	28.558970	0.000265	20.739775
2108.577759	-3.020400	3.085500	-9.318400	28.540418	0.000265	20.734367
2109.573007	-3.020400	3.085200	-9.317200	28.471603	0.000262	20.747096
2110.572810	-3.025400	3.085000	-9.331500	28.446477	0.000264	20.754985
2111.574073	-3.020100	3.084100	-9.312800	28.450091	0.000263	20.725906
2112.579168	-2.980900	3.084200	-9.192400	28.497829	0.000262	20.739367
2113.579707	-2.996800	3.083100	-9.238200	28.542557	0.000260	20.747428
2114.579889	-3.002600	3.081800	-9.251900	28.562038	0.000260	20.752348
2115.586892	-3.000900	3.079300	-9.240200	28.632583	0.000258	20.712917
2116.580215	-3.013300	3.079100	-9.277000	28.668807	0.000258	20.740869
2117.579265	-3.002500	3.078700	-9.243600	28.629739	0.000260	20.739926
2118.587635	-2.996400	3.078600	-9.223900	28.678895	0.000258	20.733011
2119.575616	-2.978800	3.078600	-9.169700	28.659520	0.000255	20.732937
2120.576397	-3.027800	3.075300	-9.310400	28.684372	0.000257	20.739477
2121.581945	-2.966900	3.076600	-9.126800	28.678277	0.000255	20.744717
2122.585975	-3.018900	3.073200	-9.276400	28.660511	0.000254	20.737254
2123.576525	-3.036300	3.073100	-9.329300	28.647212	0.000257	20.740455
2124.584021	-3.014600	3.071800	-9.259200	28.705891	0.000254	20.727011
2125.588503	-3.000900	3.071600	-9.217400	28.701869	0.000256	20.754256
2126.578915	-2.996600	3.070200	-9.198200	28.698182	0.000253	20.729204
2127.586269	-2.999800	3.071100	-9.212000	28.681151	0.000253	20.715367
2128.589868	-2.999200	3.069500	-9.204800	28.669809	0.000253	20.739981
2129.581682	-2.993400	3.068600	-9.184500	28.577016	0.000252	20.733767
2130.578268	-2.992200	3.067500	-9.177600	28.564574	0.000252	20.761541
2131.585696	-3.004800	3.066100	-9.212200	28.587997	0.000251	20.738189
2132.592056	-3.001400	3.065700	-9.200800	28.630534	0.000252	20.744520
2133.587522	-3.006700	3.064000	-9.211600	28.664135	0.000251	20.721938
2134.588769	-3.015500	3.064100	-9.239200	28.648050	0.000249	20.754576
2135.593633	-3.004300	3.063900	-9.204100	28.628210	0.000249	20.726057
2136.586632	-2.987700	3.062000	-9.147600	28.636899	0.000248	20.734809
2137.591540	-3.024200	3.061100	-9.256000	28.625772	0.000248	20.738301
2138.584584	-3.031900	3.061000	-9.278400	28.667676	0.000246	20.762015
2139.584656	-2.979900	3.060200	-9.118300	28.700604	0.000247	20.745394
2140.585458	-3.003600	3.057800	-9.183500	28.731819	0.000248	20.757871
2141.587726	-2.968100	3.059400	-9.079500	28.813596	0.000245	20.746836
2142.590811	-2.997300	3.057200	-9.161900	28.809732	0.000245	20.737254
2143.582085	-2.994800	3.058000	-9.156700	28.855291	0.000245	20.742371
2144.591766	-3.008900	3.055800	-9.194200	28.822019	0.000244	20.751054
2145.596840	-2.986700	3.054900	-9.123300	28.802574	0.000244	20.749010
2146.593716	-3.002000	3.053500	-9.166400	28.841788	0.000243	20.751528
2147.601494	-2.972200	3.053200	-9.073100	28.820808	0.000245	20.738454
2148.591803	-3.023600	3.050800	-9.223000	28.791130	0.000242	20.740326
2149.600558	-3.008100	3.049900	-9.172700	28.785653	0.000242	20.764208
2150.588127	-3.022200	3.049400	-9.214800	28.799510	0.000242	20.758252
2151.583832	-2.988300	3.048400	-9.108600	28.834067	0.000241	20.761768
2152.588053	-3.009500	3.048100	-9.171600	28.848859	0.000240	20.746324
2153.608581	-2.988300	3.046900	-9.104300	28.877100	0.000243	20.743953
2154.597981	-2.978100	3.046100	-9.071000	28.870956	0.000240	20.754360
2155.586373	-2.994400	3.044600	-9.115800	28.831126	0.000240	20.746477
2156.591949	-2.996600	3.042300	-9.115200	28.821810	0.000239	20.761749
2157.587003	-2.995600	3.041700	-9.110600	28.817500	0.000239	20.761201
2158.594011	-3.007900	3.043200	-9.153200	28.831749	0.000238	20.763701
2159.593634	-3.001800	3.041600	-9.129300	28.845252	0.000240	20.746008
2160.593489	-2.991800	3.039600	-9.093100	28.847330	0.000237	20.759008
2161.585149	-3.011000	3.038200	-9.147700	28.860882	0.000240	20.750375
2162.602593	-3.011200	3.038300	-9.148600	28.892966	0.000237	20.768947
2163.594883	-3.019800	3.036700	-9.169500	28.904366	0.000238	20.779483
2164.585948	-3.026100	3.034800	-9.180900	28.931688	0.000235	20.760067
2165.586202	-2.991700	3.035600	-9.080700	28.950562	0.000238	20.756797
2166.588448	-3.017100	3.034100	-9.152800	28.992527	0.000236	20.764937
2167.593297	-2.996600	3.031500	-9.084100	28.988120	0.000236	20.770929
2168.592247	-3.000900	3.030700	-9.093700	28.998571	0.000235	20.774821
2169.590555	-2.996100	3.029600	-9.075200	28.996096	0.000235	20.763317
2170.584158	-3.024300	3.029000	-9.158700	29.027137	0.000236	20.753341
2171.585469	-3.004600	3.028000	-9.096000	29.052544	0.000234	20.766138
2172.587248	-3.023400	3.025100	-9.146000	29.020083	0.000234	20.742440
2173.601571	-3.010700	3.026000	-9.108500	29.040063	0.000233	20.777271
2174.593861	-2.994200	3.024600	-9.054000	29.007665	0.000234	20.784457
2175.600931	-2.983000	3.024900	-9.021500	29.015543	0.000234	20.775325
2176.595491	-3.013200	3.022800	-9.107600	28.938960	0.000233	20.764548
2177.593992	-3.024300	3.022000	-9.138200	28.953054	0.000232	20.785387
2178.591559	-3.002600	3.020200	-9.067300	28.877280	0.000233	20.759782
2179.588661	-2.974000	3.021600	-8.984600	28.872323	0.000233	20.764271
2180.599155	-3.012200	3.018800	-9.091700	28.845940	0.000233	20.766617
2181.594357	-3.003200	3.016500	-9.057900	28.837248	0.000233	20.764973
2182.592621	-3.022300	3.015100	-9.110600	28.815811	0.000232	20.769457
2183.591002	-2.987600	3.015100	-9.007000	28.768354	0.000231	20.777603
2184.603038	-3.023800	3.013800	-9.112100	28.773556	0.000231	20.783791
2185.605937	-2.997100	3.011600	-9.025600	28.767486	0.000230	20.781944
2186.593655	-2.995600	3.012100	-9.022600	28.680669	0.000229	20.770836
2187.590253	-2.986700	3.010800	-8.990600	28.662536	0.000230	20.793349
2188.599298	-2.959300	3.010200	-8.907300	28.678542	0.000230	20.766321
2189.599778	-3.011600	3.009200	-9.061800	28.723965	0.000230	20.790737
2190.601655	-2.996800	3.006900	-9.010200	28.772474	0.000228	20.773692
2191.610083	-2.978400	3.005500	-8.951500	28.769968	0.000230	20.783970
2192.605869	-3.002400	3.005500	-9.022800	28.778715	0.000228	20.787566
2193.607005	-2.991300	3.004600	-8.986200	28.752655	0.000230	20.781703
2194.610738	-2.997100	3.002000	-8.996500	28.747349	0.000230	20.767823
2195.602966	-2.980600	3.000700	-8.942700	28.712147	0.000229	20.763660
2196.612652	-3.010900	2.998800	-9.027500	28.695764	0.000228	20.770392
2197.613664	-2.974700	2.999800	-8.922400	28.668093	0.000226	20.795152
2198.617909	-3.007000	2.996300	-9.009000	28.732261	0.000228	20.764480
2199.598204	-3.016800	2.996400	-9.038700	28.732035	0.000229	20.770890
2200.601129	-2.987800	2.995300	-8.948200	28.797386	0.000228	20.773182
2201.604046	-2.994700	2.994200	-8.966100	28.840488	0.000229	20.782462
2202.608454	-2.986200	2.992900	-8.936300	28.861949	0.000226	20.779425
2203.611385	-2.994800	2.991300	-8.956300	28.922610	0.000227	20.770836
2204.612274	-3.022900	2.990700	-9.039800	28.950231	0.000227	20.791551
2205.617284	-2.990100	2.988300	-8.934800	29.008087	0.000225	20.791994
2206.607934	-2.992400	2.987800	-8.940100	29.054695	0.000227	20.802919
2207.635790	-3.014600	2.985600	-8.999300	29.076513	0.000227	20.807359
2208.601539	-3.000000	2.983900	-8.949400	29.053107	0.000225	20.782352
2209.609611	-2.995200	2.983200	-8.933900	29.054225	0.000225	20.803867
2210.609011	-2.985600	2.982800	-8.904200	29.087685	0.000225	20.797753
2211.609392	-3.001500	2.981300	-8.946900	29.089904	0.000224	20.796196
2212.601737	-3.006300	2.978600	-8.952500	29.113830	0.000226	20.801338
2213.616008	-2.988800	2.977700	-8.898700	29.153797	0.000226	20.795143
2214.622272	-2.982100	2.978000	-8.879800	29.213834	0.000226	20.794003
2215.605561	-2.985600	2.976300	-8.885300	29.251818	0.000224	20.786288
2216.618138	-3.000800	2.973500	-8.921600	29.287099	0.000224	20.806671
2217.606853	-3.022400	2.970900	-8.976900	29.258301	0.000222	20.807046
2218.611372	-3.022100	2.970000	-8.974600	29.219842	0.000223	20.793419
2219.609052	-3.003900	2.968700	-8.916900	29.167668	0.000222	20.807699
2220.615109	-2.984600	2.968800	-8.859500	29.158429	0.000223	20.816880
2221.619134	-2.998100	2.966300	-8.892600	29.127324	0.000222	20.813986
2222.605929	-2.985000	2.964500	-8.847600	29.122490	0.000223	20.804848
2223.604438	-2.991400	2.964200	-8.866300	29.132524	0.000222	20.801209
2224.622699	-2.996600	2.960900	-8.871600	29.169771	0.000222	20.803653
2225.602470	-2.989600	2.962400	-8.855000	29.217691	0.000221	20.808795
2226.602986	-2.981100	2.961100	-8.825900	29.227077	0.000223	20.825366
2227.610290	-3.012000	2.956000	-8.901900	29.253205	0.000221	20.798591
2228.603691	-2.982900	2.957400	-8.819900	29.272916	0.000221	20.822249
2229.608257	-3.002500	2.953200	-8.866000	29.277719	0.000221	20.811443
2230.606472	-3.021100	2.951600	-8.916300	29.293844	0.000220	20.797821
2231.616010	-3.007400	2.951100	-8.874000	29.327198	0.000222	20.813893
2232.628415	-3.011500	2.949500	-8.881400	29.312633	0.000221	20.811541
2233.608766	-2.989400	2.949400	-8.816800	29.284507	0.000221	20.807852
2234.621024	-3.005300	2.946400	-8.853400	29.295402	0.000221	20.816461
2235.624962	-2.996000	2.945300	-8.822600	29.318461	0.000219	20.831639
2236.622101	-3.008800	2.943000	-8.853500	29.331756	0.000218	20.820383
2237.626079	-2.976400	2.941900	-8.754700	29.364413	0.000219	20.817261
2238.615496	-2.999600	2.941300	-8.821100	29.348962	0.000221	20.826818
2239.614428	-3.026000	2.939700	-8.894100	29.321009	0.000220	20.834207
2240.629442	-3.010700	2.937200	-8.842200	29.318240	0.000220	20.829521
2241.617815	-2.996800	2.935300	-8.794400	29.320538	0.000218	20.825198
2242.618948	-3.030700	2.932200	-8.886000	29.315314	0.000219	20.812347
2243.624461	-3.041600	2.930600	-8.912400	29.336216	0.000220	20.835309
2244.617362	-2.983600	2.929600	-8.739900	29.320960	0.000220	20.807132
2245.617069	-2.996100	2.929500	-8.775900	29.363894	0.000220	20.821005
2246.615270	-2.979000	2.927800	-8.720300	29.397478	0.000220	20.820715
2247.619843	-3.009500	2.923800	-8.798200	29.433866	0.000218	20.822778
2248.621611	-2.974400	2.925900	-8.700700	29.431612	0.000219	20.832834
2249.622124	-3.006300	2.922100	-8.783400	29.414536	0.000219	20.808036
2250.614402	-3.023600	2.919400	-8.826800	29.367383	0.000218	20.823099
2251.628095	-3.007900	2.918500	-8.777500	29.324547	0.000218	20.822600
2252.634934	-2.997100	2.916900	-8.741300	29.284257	0.000220	20.831307
2253.618490	-2.998300	2.915900	-8.741700	29.192459	0.000219	20.843111
2254.622950	-3.003100	2.914400	-8.749300	29.142357	0.000220	20.837668
2255.619743	-2.997700	2.912800	-8.729900	29.100036	0.000220	20.839595
2256.632734	-2.979100	2.911100	-8.670600	29.131063	0.000219	20.835772
2257.629095	-2.980200	2.910800	-8.674000	29.127995	0.000219	20.833155
2258.630765	-3.009100	2.906600	-8.745800	29.152581	0.000217	20.836591
2259.612566	-3.014400	2.904800	-8.754300	29.189264	0.000217	20.840839
2260.620801	-3.003500	2.903000	-8.718100	29.187058	0.000219	20.850944
2261.638800	-3.025400	2.900200	-8.772400	29.202566	0.000219	20.841442
2262.623583	-2.988300	2.900500	-8.666300	29.210785	0.000219	20.849251
2263.629038	-3.004400	2.896600	-8.701400	29.206948	0.000218	20.829737
2264.636462	-2.987900	2.897600	-8.657000	29.284110	0.000216	20.839220
2265.628773	-2.982900	2.896300	-8.637800	29.322146	0.000216	20.844835
2266.636912	-2.957000	2.894300	-8.557300	29.335123	0.000217	20.846535
2267.665306	-3.033500	2.890300	-8.766600	29.322543	0.000218	20.850451
2268.628436	-3.018600	2.887900	-8.715900	29.307768	0.000216	20.840302
2269.620546	-2.984300	2.888300	-8.619100	29.333344	0.000219	20.841423
2270.630155	-3.025500	2.884200	-8.724900	29.349449	0.000218	20.836792
2271.625200	-2.990100	2.884500	-8.624200	29.345704	0.000218	20.838233
2272.637650	-3.010400	2.881900	-8.674300	29.347336	0.000218	20.852679
2273.637785	-3.008200	2.880700	-8.665000	29.368243	0.000216	20.853836
2274.626454	-3.007100	2.877200	-8.651000	29.382783	0.000218	20.854266
2275.629027	-2.976900	2.877200	-8.563700	29.404515	0.000218	20.828756
2276.638772	-3.000500	2.873800	-8.620300	29.434207	0.000217	20.853466
2277.624408	-3.007100	2.871500	-8.633600	29.438446	0.000219	20.848256
2278.644575	-2.997400	2.870800	-8.604700	29.495463	0.000217	20.855941
2279.636786	-3.019200	2.867200	-8.655400	29.507986	0.000219	20.858133
2280.636184	-3.030800	2.864600	-8.680900	29.544034	0.000220	20.856538
2281.640853	-2.987000	2.865900	-8.559000	29.565671	0.000217	20.847530
2282.639053	-2.968500	2.863200	-8.498000	29.565872	0.000217	20.851052
2283.637973	-2.993000	2.861000	-8.561700	29.571321	0.000218	20.846113
2284.643323	-2.991300	2.859000	-8.551000	29.564333	0.000218	20.867043
2285.652216	-2.979100	2.857500	-8.511700	29.599194	0.000218	20.861883
2286.635048	-3.022200	2.853200	-8.621700	29.616200	0.000213	20.863379
2287.632059	-2.979800	2.852700	-8.499600	29.599585	0.000217	20.852795
2288.648102	-2.983200	2.851400	-8.505400	29.542544	0.000217	20.876372
2289.636659	-3.003400	2.847000	-8.548800	29.513460	0.000218	20.849426
2290.634633	-2.957100	2.846400	-8.414900	29.524901	0.000215	20.854321
2291.628221	-2.991900	2.845400	-8.512300	29.528341	0.000217	20.867745
2292.648873	-2.981500	2.842000	-8.472600	29.506306	0.000216	20.881568
2293.629402	-2.964800	2.840100	-8.419200	29.519526	0.000216	20.863127
2294.636891	-2.998600	2.837400	-8.506400	29.533069	0.000215	20.861132
2295.639167	-3.021400	2.833600	-8.560100	29.599708	0.000215	20.871409
2296.632790	-2.992500	2.834300	-8.480600	29.641573	0.000215	20.873785
2297.637193	-3.024600	2.829500	-8.557400	29.656569	0.000217	20.868515
2298.636937	-3.018400	2.828200	-8.535700	29.670782	0.000219	20.875731
2299.636504	-3.006900	2.825800	-8.495500	29.701645	0.000216	20.869389
2300.634562	-2.983900	2.824600	-8.427700	29.684244	0.000217	20.863225
2301.636364	-2.998900	2.821400	-8.459600	29.651597	0.000216	20.869192
2302.638779	-3.001400	2.820700	-8.464400	29.653410	0.000215	20.879554
2303.649240	-2.998400	2.818600	-8.450600	29.629589	0.000215	20.859808
2304.636693	-2.990600	2.816200	-8.421400	29.596916	0.000216	20.877603
2305.643999	-3.002800	2.811500	-8.441700	29.552574	0.000217	20.877000
2306.651483	-2.975300	2.810800	-8.361200	29.541457	0.000217	20.877646
2307.645392	-3.010000	2.808700	-8.453300	29.476304	0.000215	20.873138
2308.653500	-3.012100	2.805100	-8.447500	29.405516	0.000218	20.888557
2309.635862	-2.952100	2.803600	-8.275300	29.374981	0.000217	20.872955
2310.639539	-2.987600	2.800900	-8.367300	29.381739	0.000216	20.886402
2311.645846	-2.986500	2.798200	-8.355500	29.383743	0.000216	20.873250
2312.646477	-2.990500	2.795400	-8.358500	29.385497	0.000217	20.901569
2313.660416	-3.001200	2.793900	-8.384500	29.384654	0.000216	20.874643
2314.639609	-2.971500	2.790800	-8.291200	29.395988	0.000215	20.891280
2315.652895	-2.994500	2.786900	-8.344000	29.409258	0.000214	20.890905
2316.650542	-3.014500	2.784400	-8.392500	29.496920	0.000215	20.901977
2317.652623	-3.024300	2.783300	-8.415900	29.515711	0.000215	20.881091
2318.644829	-2.986600	2.780900	-8.304200	29.472606	0.000215	20.905443
2319.654921	-3.012900	2.775900	-8.361800	29.454970	0.000215	20.890039
2320.656579	-2.966800	2.776800	-8.235400	29.499231	0.000215	20.897194
2321.644441	-3.031800	2.770800	-8.398400	29.551638	0.000215	20.885539
2322.640121	-3.053200	2.767700	-8.448600	29.588998	0.000216	20.896646
2323.647516	-2.999200	2.764600	-8.291100	29.641445	0.000218	20.894517
2324.644073	-3.012300	2.761800	-8.319000	29.655176	0.000217	20.887498
2325.645252	-3.000900	2.759500	-8.280100	29.629529	0.000215	20.868755
2326.648996	-2.976500	2.757500	-8.206100	29.661560	0.000213	20.885399
2327.678046	-3.001900	2.753200	-8.264300	29.703064	0.000213	20.886939
2328.650254	-2.998500	2.751600	-8.249900	29.710760	0.000215	20.898964
2329.656410	-3.009100	2.748000	-8.267400	29.698159	0.000215	20.880573
2330.653550	-2.998100	2.745500	-8.230700	29.664653	0.000216	20.877139
2331.652635	-2.994100	2.742500	-8.210500	29.633147	0.000217	20.878092
2332.651379	-2.984100	2.739100	-8.172500	29.643165	0.000215	20.867804
2333.659417	-2.983400	2.736400	-8.162200	29.672790	0.000215	20.878703
2334.647924	-2.990700	2.732000	-8.169500	29.677988	0.000216	20.885366
2335.664479	-2.971900	2.729200	-8.110300	29.686423	0.000214	20.865897
2336.662876	-3.016000	2.725600	-8.219400	29.715998	0.000215	20.871531
2337.646779	-3.002500	2.723100	-8.175300	29.772304	0.000215	20.887522
2338.650962	-3.027000	2.718700	-8.227000	29.784501	0.000215	20.896026
2339.656201	-3.002700	2.716500	-8.156100	29.752199	0.000215	20.875787
2340.663467	-3.017300	2.711400	-8.179900	29.707889	0.000215	20.896544
2341.649603	-3.019100	2.709100	-8.178400	29.673404	0.000215	20.877900
2342.671109	-3.011300	2.704300	-8.142600	29.671773	0.000215	20.857765
2343.649909	-3.015100	2.700800	-8.141900	29.662660	0.000215	20.879871
2344.646233	-2.989500	2.699900	-8.070100	29.680307	0.000214	20.876799
2345.647666	-2.986600	2.694900	-8.047600	29.706168	0.000215	20.853561
2346.653261	-3.003500	2.691100	-8.081800	29.738917	0.000214	20.860500
2347.647727	-2.987400	2.689000	-8.032200	29.787679	0.000213	20.852766
2348.639946	-3.015700	2.684700	-8.095900	29.865342	0.000215	20.862323
2349.663033	-2.977600	2.680200	-7.979200	29.895167	0.000214	20.859207
2350.630393	-3.025700	2.674700	-8.090700	29.889916	0.000215	20.855808
2351.638878	-3.011300	2.672200	-8.046000	29.840762	0.000215	20.858875
2352.641350	-2.981500	2.669300	-7.957900	29.802893	0.000216	20.857201
2353.637926	-3.014500	2.663400	-8.027800	29.755798	0.000215	20.847175
2354.656022	-2.985600	2.660400	-7.941300	29.750057	0.000213	20.852292
2355.650176	-3.023900	2.655600	-8.029600	29.736419	0.000214	20.863197
2356.653039	-3.019100	2.652600	-8.007300	29.751835	0.000213	20.859774
2357.660869	-2.996500	2.647400	-7.931700	29.797236	0.000214	20.853394
2358.656278	-3.029500	2.643200	-8.006400	29.827009	0.000215	20.849275
2359.664245	-3.013000	2.638900	-7.949800	29.809683	0.000213	20.834176
2360.664646	-3.026600	2.633900	-7.970900	29.818892	0.000215	20.864798
2361.655648	-2.990300	2.629500	-7.862500	29.804741	0.000213	20.864754
2362.660875	-2.969400	2.625200	-7.793900	29.829542	0.000213	20.845665
2363.644633	-3.042800	2.619500	-7.968500	29.874013	0.000214	20.853523
2364.661703	-3.016900	2.616200	-7.891700	29.842018	0.000214	20.854452
2365.662671	-3.018000	2.610200	-7.876500	29.849346	0.000215	20.832444
2366.655971	-2.997900	2.605700	-7.810700	29.855984	0.000213	20.859050
2367.641654	-2.993600	2.600000	-7.782600	29.903897	0.000211	20.849519
2368.633985	-3.010200	2.596100	-7.812800	29.937037	0.000211	20.852591
2369.644027	-3.009000	2.589100	-7.789300	29.998264	0.000214	20.851747
2370.646184	-3.013800	2.584800	-7.789400	30.035974	0.000215	20.843785
2371.644391	-3.016900	2.578600	-7.778800	30.052905	0.000212	20.843791
2372.658257	-2.995500	2.573700	-7.707600	30.054139	0.000215	20.858785
2373.668603	-3.023900	2.566600	-7.760600	30.038526	0.000214	20.840669
2374.655244	-3.004800	2.562200	-7.698400	29.977685	0.000214	20.855649
2375.658201	-3.001900	2.556600	-7.673700	29.911040	0.000212	20.836807
2376.673537	-2.982600	2.551400	-7.608500	29.905403	0.000215	20.857675
2377.651834	-2.981500	2.544700	-7.585300	29.899693	0.000216	20.843382
2378.648682	-2.959000	2.539900	-7.514300	29.889421	0.000213	20.812163
2379.650463	-3.028400	2.532600	-7.667500	29.898282	0.000215	20.839589
2380.641344	-3.042100	2.525100	-7.680700	29.914568	0.000217	20.823770
2381.649889	-3.002900	2.519600	-7.565400	29.862869	0.000216	20.807674
2382.641493	-3.009600	2.513000	-7.562200	29.782457	0.000217	20.819527
2383.650545	-3.013400	2.505800	-7.550100	29.799740	0.000218	20.830789
2384.645388	-3.010200	2.499800	-7.524100	29.744248	0.000217	20.827470
