LabVIEW Measurement	
Writer_Version	2
Reader_Version	2
Separator	Tab
Decimal_Separator	.
Multi_Headings	No
X_Columns	One
Time_Pref	Absolute
Operator	admin
Description	Clolumns are: time, Current, Voltage, Power, Battery Temp, and Chamber Temp
Date	2024/08/16
Time	13:06:06.104549407958984375
***End_of_Header***	
	
Channels	6						
Samples	1	1	1	1	1	1	
Date	2024/09/04	2024/09/04	2024/09/04	2024/09/04	2024/09/04	2024/09/04	
Time	09:22:59.7472624778747558594	09:22:59.754283905029296875	09:22:59.7602825164794921875	09:22:59.7314920425415039063	09:22:59.7314920425415039063	09:22:59.7314920425415039063	
X_Dimension	Time	Time	Time	Time	Time	Time	
X0	0.0000000000000000E+0	0.0000000000000000E+0	0.0000000000000000E+0	0.0000000000000000E+0	0.0000000000000000E+0	0.0000000000000000E+0	
Delta_X	1.000000	1.000000	1.000000	1.000000	1.000000	1.000000	
***End_of_Header***							
X_Value	Untitled	Untitled 1	Untitled 2	Untitled 3	Untitled 4	Untitled 5	Comment
0.000000	0.023155	4.102400	0.094979	20.926260	0.000923	20.722853
1.001438	-2.993100	3.932800	-11.770000	20.919001	0.000924	20.751156
2.004481	-3.028200	3.925800	-11.886000	20.928712	0.000921	20.733367
3.001552	-3.002800	3.920700	-11.772000	20.931451	0.000921	20.741796
4.001221	-3.015700	3.917200	-11.812000	20.927012	0.000920	20.745417
5.004985	-3.002000	3.913700	-11.748000	20.950970	0.000918	20.722436
6.003641	-2.995200	3.912000	-11.716000	20.939044	0.000916	20.739433
7.004605	-3.001000	3.909100	-11.731000	20.945461	0.000917	20.742532
8.012177	-3.004400	3.906200	-11.735000	20.951477	0.000918	20.746652
9.006825	-2.985900	3.905800	-11.662000	20.948256	0.000917	20.753388
10.004941	-3.010100	3.901300	-11.742000	20.950431	0.000916	20.729009
11.007279	-3.002200	3.901800	-11.713000	20.939649	0.000917	20.748099
12.005980	-3.001600	3.899100	-11.702000	20.941995	0.000916	20.740013
13.006121	-3.003800	3.896900	-11.704000	20.954224	0.000913	20.760305
14.010138	-3.016600	3.896100	-11.752000	20.962283	0.000913	20.720000
15.004521	-2.988200	3.895100	-11.638000	20.976882	0.000913	20.751672
16.003269	-3.011600	3.893400	-11.725000	20.973228	0.000912	20.740905
17.006615	-2.990800	3.893800	-11.645000	20.971291	0.000911	20.759356
18.004770	-3.019900	3.890900	-11.749000	20.980584	0.000911	20.752056
19.003513	-3.012900	3.891400	-11.724000	20.976244	0.000911	20.739179
20.008047	-2.995100	3.890500	-11.652000	20.997046	0.000909	20.755718
21.005309	-2.992300	3.890200	-11.639000	20.995991	0.000910	20.763673
22.007575	-3.020900	3.886500	-11.739000	20.996220	0.000911	20.754418
23.008991	-2.982700	3.888300	-11.597000	20.996392	0.000908	20.756487
24.009389	-2.997000	3.886100	-11.645000	21.006061	0.000909	20.765684
25.009987	-2.993200	3.885600	-11.630000	21.025719	0.000910	20.751205
26.010393	-2.997100	3.884800	-11.641000	21.001026	0.000910	20.738836
27.008547	-3.000300	3.885100	-11.654000	21.024844	0.000907	20.756021
28.009634	-3.003400	3.883200	-11.661000	21.044476	0.000907	20.761433
29.010422	-2.978200	3.883800	-11.565000	21.051260	0.000906	20.751622
30.009950	-3.014000	3.883400	-11.704000	21.054824	0.000906	20.764196
31.009418	-2.991000	3.883900	-11.616000	21.035510	0.000908	20.755309
32.011934	-3.013900	3.880900	-11.696000	21.055518	0.000905	20.752088
33.010850	-2.981300	3.882300	-11.573000	21.075943	0.000907	20.765880
34.010124	-3.005200	3.879600	-11.658000	21.066961	0.000906	20.766853
35.013038	-3.007900	3.879300	-11.667000	21.086691	0.000904	20.779475
36.010985	-2.977400	3.879900	-11.550000	21.065956	0.000903	20.752570
37.011914	-2.970000	3.881200	-11.526000	21.085636	0.000903	20.758506
38.013791	-3.015800	3.878600	-11.696000	21.101753	0.000901	20.740487
39.012389	-2.993200	3.879900	-11.612000	21.107483	0.000902	20.766133
40.011681	-2.997100	3.876900	-11.617000	21.129410	0.000903	20.746341
41.018737	-2.982700	3.877800	-11.566000	21.118851	0.000902	20.756167
42.012070	-3.013200	3.875300	-11.676000	21.106306	0.000902	20.764482
43.011345	-2.994900	3.875200	-11.604000	21.129623	0.000901	20.773107
44.014099	-2.987100	3.876400	-11.578000	21.129721	0.000901	20.779369
45.010601	-2.986600	3.875700	-11.575000	21.167282	0.000901	20.780432
46.011032	-2.998900	3.874000	-11.616000	21.157173	0.000902	20.759413
47.015318	-3.006200	3.875600	-11.650000	21.158170	0.000899	20.763730
48.012873	-2.989800	3.874500	-11.583000	21.161782	0.000899	20.773033
49.016208	-2.980400	3.874400	-11.547000	21.171638	0.000898	20.780996
50.016377	-3.007700	3.873200	-11.649000	21.171360	0.000898	20.784511
51.011856	-2.998100	3.873400	-11.613000	21.176942	0.000896	20.767809
52.012181	-3.005800	3.872000	-11.638000	21.199040	0.000898	20.769052
53.015816	-2.985800	3.873600	-11.565000	21.187762	0.000897	20.768676
54.014937	-3.005800	3.872200	-11.639000	21.211183	0.000898	20.780252
55.013634	-3.003800	3.871000	-11.625000	21.212532	0.000899	20.778281
56.018153	-3.011700	3.871200	-11.658000	21.216740	0.000896	20.786759
57.017881	-3.015300	3.870300	-11.669000	21.237522	0.000897	20.783841
58.015624	-3.011000	3.869500	-11.650000	21.256701	0.000898	20.769836
59.017862	-3.005300	3.869600	-11.629000	21.252280	0.000897	20.783906
60.017541	-2.992200	3.868800	-11.576000	21.249584	0.000898	20.773147
61.015378	-2.996100	3.869400	-11.593000	21.287868	0.000896	20.792956
62.022351	-3.007000	3.868200	-11.630000	21.262381	0.000898	20.791640
63.017226	-3.018400	3.868300	-11.674000	21.279664	0.000896	20.790912
64.015315	-3.005600	3.868700	-11.627000	21.288244	0.000896	20.761089
65.018569	-2.988600	3.867300	-11.556000	21.288514	0.000894	20.783644
66.015693	-3.001300	3.869500	-11.611000	21.311958	0.000896	20.797141
67.017633	-3.011100	3.867000	-11.643000	21.310332	0.000895	20.797411
68.018489	-2.972500	3.868500	-11.499000	21.324329	0.000895	20.780121
69.019631	-2.985700	3.868200	-11.547000	21.326691	0.000894	20.779639
70.020568	-2.991700	3.867100	-11.568000	21.321927	0.000896	20.807115
71.018749	-3.007900	3.866700	-11.628000	21.343532	0.000896	20.790798
72.020535	-2.990200	3.866600	-11.560000	21.336276	0.000895	20.788280
73.020247	-3.001500	3.867100	-11.606000	21.338932	0.000895	20.773393
74.020830	-2.984600	3.866900	-11.540000	21.348639	0.000895	20.793062
75.020123	-2.990600	3.865000	-11.558000	21.346711	0.000895	20.777856
76.022043	-3.005200	3.865800	-11.615000	21.364695	0.000895	20.794427
77.020545	-2.990800	3.865100	-11.559000	21.363649	0.000895	20.787217
78.020039	-2.992800	3.865100	-11.566000	21.388465	0.000896	20.790708
79.020681	-3.006200	3.864000	-11.615000	21.399332	0.000896	20.788778
80.022038	-3.007600	3.863500	-11.619000	21.378259	0.000896	20.809420
81.021594	-2.993700	3.863300	-11.564000	21.379174	0.000896	20.793267
82.022019	-2.986700	3.863400	-11.539000	21.412814	0.000895	20.822181
83.022121	-2.993000	3.863500	-11.562000	21.408426	0.000895	20.797877
84.021693	-2.996300	3.863600	-11.575000	21.431696	0.000895	20.810728
85.022046	-2.994900	3.863500	-11.570000	21.432276	0.000895	20.796610
86.023022	-3.007500	3.862900	-11.617000	21.431075	0.000895	20.795408
87.022774	-3.001800	3.862300	-11.592000	21.433583	0.000894	20.795073
88.022354	-3.011600	3.862700	-11.631000	21.453242	0.000895	20.793406
89.026245	-3.002200	3.862800	-11.595000	21.467703	0.000897	20.796970
90.025675	-2.980700	3.861400	-11.508000	21.483660	0.000897	20.805824
91.023520	-2.981200	3.863400	-11.517000	21.465309	0.000894	20.812592
92.022404	-2.974200	3.862100	-11.486000	21.508072	0.000897	20.808440
93.023923	-2.974100	3.862700	-11.487000	21.480163	0.000895	20.807066
94.023726	-3.002100	3.860800	-11.590000	21.486046	0.000895	20.801098
95.023884	-2.953400	3.862300	-11.406000	21.494886	0.000895	20.818004
96.024006	-3.004000	3.860700	-11.596000	21.527100	0.000894	20.809936
97.027761	-3.001100	3.860500	-11.585000	21.515564	0.000898	20.806453
98.032286	-2.993700	3.860600	-11.556000	21.522549	0.000894	20.816762
99.028334	-2.991300	3.860000	-11.545000	21.529363	0.000895	20.818364
100.026676	-3.017200	3.858300	-11.641000	21.539388	0.000897	20.815119
101.027613	-3.032300	3.858000	-11.697000	21.557769	0.000896	20.819288
102.027667	-3.008300	3.859600	-11.608000	21.580007	0.000898	20.820677
103.028488	-3.006800	3.859000	-11.602000	21.581862	0.000896	20.801671
104.027873	-2.989700	3.858700	-11.536000	21.585538	0.000896	20.796341
105.029248	-2.991000	3.858800	-11.540000	21.570449	0.000897	20.817751
106.027376	-3.010200	3.858800	-11.615000	21.586012	0.000897	20.801556
107.029045	-3.004600	3.858800	-11.593000	21.589451	0.000896	20.806420
108.029558	-2.999900	3.857900	-11.571000	21.599500	0.000898	20.806993
109.029628	-2.995100	3.858000	-11.554000	21.583079	0.000897	20.834182
110.032693	-3.022300	3.856800	-11.653000	21.617145	0.000897	20.817538
111.031758	-3.010600	3.856900	-11.610000	21.636874	0.000896	20.803142
112.030539	-2.997900	3.856900	-11.561000	21.622104	0.000898	20.829613
113.030074	-2.987700	3.856900	-11.521000	21.629260	0.000898	20.825869
114.034043	-2.996200	3.856100	-11.552000	21.653122	0.000898	20.822721
115.030797	-2.995000	3.857500	-11.552000	21.655638	0.000899	20.826662
116.033298	-3.005900	3.855700	-11.589000	21.670694	0.000897	20.818021
117.033294	-3.003000	3.854000	-11.572000	21.686288	0.000898	20.828885
118.038906	-3.015400	3.854700	-11.622000	21.688779	0.000900	20.809568
119.034448	-3.012100	3.855300	-11.612000	21.692995	0.000898	20.806674
120.034510	-3.020400	3.854900	-11.642000	21.692145	0.000899	20.809617
121.034732	-3.008400	3.854200	-11.593000	21.709871	0.000896	20.833995
122.037722	-3.016900	3.853400	-11.624000	21.708082	0.000898	20.832204
123.034694	-3.006700	3.854100	-11.587000	21.703892	0.000899	20.834649
124.034955	-3.005000	3.854000	-11.579000	21.714797	0.000900	20.827070
125.036653	-3.001900	3.853300	-11.566000	21.722124	0.000899	20.826817
126.035817	-3.004200	3.854200	-11.577000	21.735863	0.000899	20.823498
127.034647	-2.995700	3.853500	-11.543000	21.759306	0.000900	20.816615
128.035622	-3.000400	3.853800	-11.562000	21.737685	0.000902	20.824373
129.035704	-3.019500	3.852600	-11.632000	21.760254	0.000901	20.836529
130.041463	-3.038600	3.852000	-11.704000	21.757117	0.000902	20.837657
131.037382	-2.999800	3.852500	-11.556000	21.778363	0.000903	20.839006
132.035882	-2.993500	3.851700	-11.529000	21.786392	0.000900	20.821912
133.041505	-3.000500	3.853200	-11.560000	21.758171	0.000900	20.834444
134.041645	-3.001700	3.853000	-11.563000	21.804794	0.000901	20.804295
135.037607	-2.980300	3.852700	-11.482000	21.757918	0.000905	20.847941
136.040413	-2.975800	3.853000	-11.464000	21.799812	0.000905	20.827283
137.039229	-3.007400	3.851600	-11.582000	21.787813	0.000905	20.837084
138.040601	-2.998200	3.851000	-11.544000	21.815739	0.000904	20.825206
139.040202	-2.998400	3.850600	-11.545000	21.819758	0.000905	20.819271
140.041478	-2.987400	3.852300	-11.506000	21.828277	0.000904	20.823531
141.039857	-2.998500	3.851600	-11.548000	21.807637	0.000905	20.820416
142.040509	-2.987300	3.850800	-11.503000	21.822396	0.000905	20.820964
143.040294	-2.988700	3.849900	-11.505000	21.802278	0.000905	20.844924
144.040843	-2.982800	3.849800	-11.482000	21.823817	0.000906	20.821438
145.040040	-2.997600	3.849500	-11.538000	21.830850	0.000905	20.824209
146.040287	-2.996700	3.848700	-11.530000	21.819456	0.000906	20.813753
147.040211	-2.999800	3.850400	-11.550000	21.849366	0.000906	20.826147
148.041437	-2.981600	3.849700	-11.477000	21.844490	0.000908	20.825533
149.040871	-3.011900	3.849500	-11.594000	21.868968	0.000906	20.814473
150.040877	-2.992900	3.849100	-11.519000	21.889190	0.000909	20.796308
151.042078	-2.988100	3.849400	-11.501000	21.873207	0.000907	20.798327
152.042902	-2.985200	3.849200	-11.490000	21.880533	0.000906	20.810402
153.041870	-2.998400	3.847700	-11.536000	21.888169	0.000909	20.808088
154.045068	-3.019400	3.848100	-11.618000	21.885368	0.000909	20.815241
155.041781	-3.009500	3.847900	-11.579000	21.915342	0.000908	20.805415
156.042635	-2.999600	3.848000	-11.541000	21.927012	0.000909	20.820416
157.042263	-3.001200	3.846900	-11.544000	21.926457	0.000909	20.810377
158.043635	-3.013700	3.847300	-11.594000	21.947601	0.000911	20.829645
159.042757	-3.008800	3.847200	-11.574000	21.960366	0.000910	20.829147
160.043545	-3.022300	3.845800	-11.621000	21.959288	0.000912	20.798196
161.043759	-3.024700	3.845300	-11.630000	21.953057	0.000909	20.803813
162.047966	-3.018400	3.845800	-11.607000	21.971187	0.000910	20.836185
163.043725	-3.006500	3.846400	-11.563000	21.981575	0.000911	20.807230
164.044349	-3.028200	3.845100	-11.643000	21.992322	0.000911	20.793332
165.045333	-2.988200	3.845000	-11.489000	21.977663	0.000912	20.801892
166.044389	-2.998000	3.845000	-11.526000	21.981306	0.000912	20.810279
167.045313	-2.977400	3.846200	-11.450000	21.985610	0.000911	20.801785
168.045681	-2.987600	3.845300	-11.487000	21.974397	0.000911	20.810949
169.045761	-3.000600	3.845500	-11.537000	21.999427	0.000913	20.796651
170.046750	-2.982800	3.845600	-11.470000	21.999705	0.000913	20.804990
171.049538	-2.976100	3.846100	-11.445000	21.991302	0.000913	20.780931
172.047545	-3.004600	3.844500	-11.550000	22.017132	0.000914	20.805366
173.047196	-2.999000	3.844100	-11.528000	22.036772	0.000916	20.816492
174.049903	-2.992800	3.844700	-11.505000	22.053105	0.000913	20.794910
175.049573	-3.004100	3.842800	-11.542000	22.058168	0.000915	20.800453
176.050258	-3.003400	3.844200	-11.545000	22.067616	0.000914	20.809437
177.054266	-2.982000	3.843700	-11.461000	22.081326	0.000916	20.791869
178.049278	-3.000100	3.843200	-11.529000	22.080657	0.000915	20.782190
179.050343	-3.008500	3.843000	-11.560000	22.086185	0.000917	20.803371
180.053743	-2.971600	3.843700	-11.421000	22.107473	0.000918	20.780113
181.051613	-3.021800	3.841100	-11.606000	22.116840	0.000917	20.785223
182.052398	-2.991500	3.842500	-11.494000	22.106183	0.000918	20.792098
183.056834	-2.988500	3.842800	-11.482000	22.120530	0.000918	20.806936
184.050973	-2.990000	3.843100	-11.490000	22.104583	0.000918	20.787176
185.052701	-3.008400	3.841700	-11.556000	22.095388	0.000920	20.777497
186.055765	-2.983600	3.842200	-11.462000	22.126565	0.000920	20.781683
187.050027	-3.005600	3.841700	-11.546000	22.109597	0.000919	20.769910
188.054897	-2.999000	3.840200	-11.516000	22.122637	0.000921	20.785811
189.061382	-2.987600	3.840400	-11.473000	22.140405	0.000921	20.785108
190.052014	-3.002200	3.840100	-11.528000	22.147028	0.000923	20.795531
191.056818	-3.004400	3.840200	-11.535000	22.141573	0.000922	20.790545
192.054409	-2.996300	3.840000	-11.504000	22.143606	0.000922	20.794477
193.051464	-3.001800	3.838100	-11.520000	22.129872	0.000924	20.795425
194.056085	-3.001600	3.839700	-11.524000	22.123470	0.000926	20.784274
195.058876	-3.008400	3.838200	-11.545000	22.157014	0.000924	20.764278
196.052634	-3.008300	3.840100	-11.551000	22.152809	0.000926	20.771922
197.054705	-2.970300	3.839100	-11.401000	22.131799	0.000927	20.800673
198.057568	-2.992200	3.838400	-11.484000	22.146375	0.000926	20.781601
199.053723	-3.007000	3.838500	-11.541000	22.148563	0.000926	20.794223
200.056542	-3.008800	3.837200	-11.544000	22.128321	0.000927	20.770164
201.058838	-3.004600	3.837800	-11.529000	22.160256	0.000928	20.766575
202.056200	-2.998000	3.839100	-11.508000	22.173165	0.000925	20.765749
203.058342	-2.998300	3.838500	-11.508000	22.178154	0.000927	20.759839
204.060570	-3.015900	3.837700	-11.573000	22.179354	0.000926	20.752505
205.057673	-2.986800	3.837800	-11.462000	22.208087	0.000926	20.780326
206.062324	-2.994200	3.836600	-11.486000	22.221919	0.000928	20.760035
207.062224	-3.024000	3.835300	-11.596000	22.189643	0.000928	20.758064
208.059219	-3.016700	3.836700	-11.573000	22.221478	0.000930	20.773818
209.060525	-2.963100	3.838000	-11.371000	22.216244	0.000932	20.760517
210.061418	-2.996500	3.835900	-11.494000	22.233342	0.000933	20.781903
211.057000	-3.000700	3.835800	-11.509000	22.234664	0.000930	20.769003
212.058966	-2.997700	3.835500	-11.497000	22.252961	0.000933	20.762667
213.061023	-2.988300	3.835300	-11.460000	22.244380	0.000931	20.765929
214.057049	-3.029600	3.833900	-11.614000	22.266278	0.000934	20.782639
215.059509	-3.002800	3.834800	-11.514000	22.269438	0.000935	20.779165
216.060372	-2.977800	3.834900	-11.419000	22.278411	0.000933	20.792891
217.059856	-3.013900	3.835800	-11.560000	22.272434	0.000932	20.782165
218.060589	-3.001700	3.834100	-11.508000	22.272524	0.000934	20.751908
219.063747	-3.002800	3.834800	-11.514000	22.267192	0.000935	20.757476
220.058969	-3.000700	3.834100	-11.503000	22.289228	0.000935	20.752039
221.057885	-3.024900	3.832800	-11.593000	22.307615	0.000935	20.752906
222.060030	-3.001400	3.834200	-11.507000	22.321029	0.000935	20.755432
223.058624	-2.992700	3.833900	-11.472000	22.305206	0.000936	20.751442
224.060940	-2.999200	3.833200	-11.494000	22.320294	0.000935	20.757067
225.061110	-2.981600	3.833300	-11.428000	22.302732	0.000937	20.758923
226.058877	-2.986400	3.832200	-11.443000	22.296454	0.000935	20.745523
227.062749	-3.005800	3.831600	-11.515000	22.305623	0.000936	20.759446
228.060523	-3.021100	3.831000	-11.572000	22.332818	0.000938	20.766763
229.062058	-2.995300	3.832300	-11.478000	22.335561	0.000939	20.761449
230.062006	-3.008900	3.831900	-11.529000	22.325935	0.000940	20.733317
231.059308	-3.014400	3.831600	-11.549000	22.343562	0.000940	20.781315
232.059088	-2.987800	3.831500	-11.446000	22.365563	0.000939	20.762569
233.063035	-2.980600	3.831600	-11.420000	22.374095	0.000939	20.747404
234.060269	-2.986200	3.831900	-11.442000	22.387769	0.000939	20.744501
235.061536	-2.982500	3.832000	-11.427000	22.387940	0.000940	20.744199
236.061269	-2.983700	3.830600	-11.428000	22.361032	0.000940	20.766093
237.060451	-2.997200	3.829800	-11.477000	22.379997	0.000942	20.763272
238.059595	-3.010400	3.830700	-11.531000	22.378732	0.000940	20.754892
239.063139	-3.009900	3.830400	-11.528000	22.407011	0.000941	20.750020
240.060506	-3.009700	3.829500	-11.525000	22.415395	0.000941	20.733285
241.062158	-3.011600	3.830500	-11.533000	22.442228	0.000942	20.762528
242.062950	-3.010100	3.826900	-11.518000	22.447934	0.000942	20.758759
243.062843	-3.000800	3.828900	-11.489000	22.454481	0.000943	20.756781
244.063525	-3.005300	3.828800	-11.506000	22.446489	0.000945	20.736923
245.064789	-2.985300	3.829900	-11.433000	22.468864	0.000944	20.738468
246.062077	-2.995200	3.828300	-11.466000	22.447885	0.000944	20.742114
247.064093	-3.003200	3.828700	-11.498000	22.477313	0.000945	20.752620
248.064512	-3.010900	3.828000	-11.525000	22.451526	0.000949	20.741493
249.064179	-2.993000	3.828000	-11.457000	22.459379	0.000947	20.729916
250.065082	-3.003600	3.828000	-11.497000	22.423468	0.000948	20.714816
251.066390	-2.996100	3.828000	-11.468000	22.451158	0.000948	20.725003
252.068070	-3.015100	3.826800	-11.538000	22.465811	0.000950	20.743945
253.063837	-3.006200	3.825900	-11.499000	22.442105	0.000951	20.733481
254.066154	-2.998100	3.827500	-11.474000	22.423631	0.000948	20.741534
255.067225	-3.027000	3.823700	-11.573000	22.447950	0.000951	20.735067
256.065379	-2.989800	3.825400	-11.436000	22.463403	0.000950	20.740585
257.069097	-3.013400	3.824800	-11.525000	22.481093	0.000951	20.725109
258.069700	-2.979700	3.826900	-11.403000	22.490660	0.000952	20.757925
259.066119	-2.975400	3.824300	-11.378000	22.521752	0.000951	20.730742
260.068921	-2.979700	3.825200	-11.396000	22.517997	0.000952	20.757803
261.069417	-3.004700	3.824800	-11.490000	22.515655	0.000951	20.755930
262.066132	-2.993800	3.824800	-11.450000	22.527050	0.000954	20.749799
263.067058	-2.985200	3.825900	-11.420000	22.510349	0.000955	20.735443
264.068754	-3.004500	3.824200	-11.489000	22.526274	0.000956	20.719623
265.067625	-2.987700	3.825300	-11.426000	22.544044	0.000955	20.743111
266.070457	-3.014300	3.824700	-11.529000	22.556900	0.000956	20.730856
267.073390	-3.003600	3.823100	-11.482000	22.569332	0.000955	20.726237
268.070120	-3.026100	3.822500	-11.566000	22.556411	0.000958	20.754075
269.071385	-3.001500	3.823000	-11.473000	22.562116	0.000958	20.724226
270.071829	-3.005200	3.823400	-11.489000	22.575200	0.000956	20.743021
271.070374	-3.012400	3.822300	-11.513000	22.599116	0.000958	20.721454
272.070744	-3.022400	3.822100	-11.551000	22.591337	0.000958	20.738321
273.075058	-2.998900	3.822300	-11.461000	22.562214	0.000957	20.731911
274.074124	-2.988100	3.822900	-11.422000	22.555235	0.000959	20.718757
275.071386	-3.010500	3.822500	-11.507000	22.552770	0.000960	20.727668
276.072001	-2.991600	3.823000	-11.435000	22.586383	0.000961	20.725297
277.071116	-3.007500	3.819400	-11.485000	22.612477	0.000961	20.722509
278.074238	-2.994600	3.820700	-11.440000	22.614559	0.000962	20.726016
279.074216	-3.003700	3.820500	-11.475000	22.600112	0.000960	20.720081
280.074079	-2.989400	3.822100	-11.425000	22.618101	0.000962	20.727668
281.073775	-2.988600	3.820500	-11.417000	22.594374	0.000959	20.717653
282.077999	-2.992500	3.821300	-11.435000	22.608266	0.000962	20.722558
283.075083	-3.004100	3.820200	-11.476000	22.620191	0.000966	20.705103
284.075568	-3.001900	3.819900	-11.466000	22.637282	0.000964	20.731232
285.079326	-3.003900	3.820000	-11.473000	22.647272	0.000963	20.721324
286.075609	-3.017400	3.818000	-11.520000	22.649263	0.000965	20.732328
287.076629	-3.023500	3.817300	-11.540000	22.644032	0.000966	20.696739
288.080062	-3.017600	3.818300	-11.521000	22.658062	0.000965	20.734503
289.078915	-2.984100	3.820100	-11.398000	22.656732	0.000965	20.718945
290.078339	-3.008200	3.818600	-11.487000	22.665432	0.000965	20.707744
291.084553	-2.988200	3.817700	-11.406000	22.669309	0.000967	20.722534
292.078428	-3.011400	3.817300	-11.493000	22.677266	0.000967	20.707744
293.077265	-2.998300	3.818200	-11.447000	22.677732	0.000968	20.703942
294.080575	-3.009700	3.817200	-11.488000	22.671202	0.000967	20.696928
295.078181	-3.002100	3.818000	-11.461000	22.688440	0.000969	20.705185
296.078306	-2.985600	3.817800	-11.396000	22.731589	0.000969	20.728968
297.077522	-3.009100	3.815600	-11.479000	22.732707	0.000971	20.719656
298.076412	-2.999800	3.816000	-11.445000	22.746010	0.000970	20.711170
299.078397	-2.997600	3.816300	-11.438000	22.751208	0.000970	20.717800
300.077744	-3.020900	3.814300	-11.521000	22.755199	0.000970	20.704727
301.078766	-3.023100	3.815200	-11.533000	22.748613	0.000973	20.706665
302.076946	-3.005700	3.814300	-11.463000	22.755420	0.000972	20.718225
303.079358	-2.994400	3.816000	-11.425000	22.759794	0.000973	20.701743
304.079038	-3.013600	3.815300	-11.496000	22.767841	0.000972	20.696053
305.084269	-2.987400	3.815500	-11.398000	22.759541	0.000975	20.710974
306.080626	-3.003900	3.813700	-11.454000	22.788643	0.000972	20.709306
307.080170	-2.991600	3.814400	-11.409000	22.788463	0.000974	20.703910
308.080192	-3.012500	3.814400	-11.488000	22.796877	0.000972	20.681991
309.081408	-2.989500	3.813300	-11.399000	22.780360	0.000976	20.708120
310.080274	-3.002200	3.813500	-11.447000	22.767008	0.000975	20.703280
311.088172	-3.001400	3.813600	-11.444000	22.765980	0.000976	20.665737
312.083732	-2.986000	3.814100	-11.388000	22.755567	0.000976	20.697034
313.084249	-2.985500	3.812700	-11.382000	22.762365	0.000976	20.693886
314.082866	-3.020600	3.810900	-11.511000	22.757183	0.000976	20.710982
315.085598	-3.005800	3.812500	-11.459000	22.763564	0.000977	20.689398
316.087071	-3.002400	3.812200	-11.444000	22.760969	0.000981	20.683953
317.084156	-2.999400	3.811100	-11.430000	22.792511	0.000979	20.718397
318.088017	-3.015900	3.810000	-11.489000	22.817042	0.000979	20.712151
319.087574	-3.000500	3.810500	-11.431000	22.813680	0.000978	20.691712
320.084465	-2.995300	3.811400	-11.415000	22.808245	0.000982	20.688164
321.087772	-2.992500	3.812200	-11.407000	22.810212	0.000980	20.680176
322.086859	-2.998700	3.810400	-11.425000	22.823514	0.000982	20.690183
323.085097	-3.001300	3.809800	-11.433000	22.837142	0.000984	20.700517
324.090175	-2.996200	3.809800	-11.415000	22.831258	0.000985	20.692251
325.091207	-3.009200	3.809800	-11.464000	22.834294	0.000981	20.663996
326.086992	-3.014400	3.808600	-11.480000	22.812089	0.000983	20.689644
327.087634	-2.997000	3.810100	-11.418000	22.828312	0.000981	20.694516
328.087849	-2.998600	3.809000	-11.420000	22.860285	0.000984	20.692881
329.086374	-2.997300	3.809300	-11.417000	22.858367	0.000984	20.694753
330.086805	-3.001800	3.809900	-11.436000	22.857796	0.000984	20.687068
331.086396	-2.999000	3.808200	-11.420000	22.861574	0.000985	20.706502
332.087320	-3.026100	3.807900	-11.522000	22.845458	0.000986	20.680871
333.090643	-2.998600	3.808600	-11.419000	22.857258	0.000985	20.672777
334.089998	-2.996900	3.808000	-11.412000	22.858465	0.000986	20.698645
335.089242	-2.993300	3.807500	-11.395000	22.861517	0.000984	20.700755
336.092805	-2.998800	3.807200	-11.416000	22.870657	0.000986	20.689521
337.091541	-2.989900	3.806600	-11.379000	22.864202	0.000985	20.678312
338.092882	-2.975300	3.807700	-11.328000	22.829920	0.000988	20.676211
339.094727	-2.996900	3.806200	-11.407000	22.876108	0.000987	20.692612
340.093683	-3.005900	3.806400	-11.441000	22.874043	0.000989	20.707140
341.094179	-2.995800	3.806300	-11.401000	22.896606	0.000987	20.688491
342.095285	-2.986000	3.806200	-11.365000	22.897781	0.000990	20.687297
343.093926	-3.016600	3.804800	-11.476000	22.910380	0.000991	20.687118
344.094454	-2.998000	3.804700	-11.406000	22.904072	0.000988	20.695498
345.096318	-2.991700	3.804600	-11.381000	22.916108	0.000990	20.681476
346.096390	-2.991400	3.805100	-11.381000	22.926912	0.000990	20.702733
347.093937	-3.007100	3.804200	-11.439000	22.967286	0.000991	20.699087
348.095945	-2.992200	3.804200	-11.382000	22.955781	0.000990	20.691827
349.094818	-2.983200	3.803500	-11.346000	22.966813	0.000992	20.694819
350.095167	-3.010100	3.802900	-11.447000	22.972043	0.000993	20.688679
351.097144	-3.011000	3.802400	-11.448000	22.974434	0.000993	20.695817
352.095571	-3.007100	3.802700	-11.434000	22.995754	0.000993	20.675451
353.096575	-2.990000	3.803700	-11.371000	22.977543	0.000995	20.683283
354.108891	-3.002400	3.801800	-11.413000	22.971464	0.000996	20.677666
355.098155	-3.018100	3.801600	-11.473000	22.995926	0.000994	20.700281
356.099730	-3.009400	3.802400	-11.442000	22.989080	0.000994	20.672556
357.101363	-3.010200	3.801700	-11.443000	22.974279	0.000997	20.677642
358.097914	-2.998900	3.802500	-11.402000	22.998618	0.000995	20.706772
359.098881	-3.007400	3.800300	-11.428000	23.000038	0.000998	20.671207
360.100270	-3.006900	3.801200	-11.428000	23.031051	0.000997	20.692800
361.097219	-2.990100	3.801600	-11.366000	23.029827	0.000998	20.682090
362.098278	-2.999100	3.799600	-11.393000	23.042775	0.000998	20.690323
363.100007	-3.013500	3.799900	-11.450000	23.043542	0.000998	20.668804
364.098435	-3.019900	3.800900	-11.477000	23.040360	0.001000	20.705448
365.099990	-3.019800	3.799800	-11.473000	23.062251	0.000998	20.695138
366.102991	-3.003500	3.798900	-11.409000	23.082370	0.001000	20.684003
367.099072	-3.026000	3.797900	-11.491000	23.061672	0.001000	20.695506
368.101189	-2.991400	3.798500	-11.362000	23.069773	0.001000	20.690347
369.102115	-3.002100	3.798900	-11.404000	23.061076	0.001001	20.701074
370.102651	-2.998200	3.798900	-11.387000	23.075615	0.001002	20.691459
371.100780	-3.002900	3.799500	-11.408000	23.039847	0.001004	20.681223
372.104874	-2.989000	3.797900	-11.349000	23.055814	0.001002	20.682997
373.103194	-3.009800	3.796600	-11.426000	23.083341	0.001002	20.676914
374.104027	-2.986500	3.797300	-11.340000	23.070630	0.001003	20.690732
375.109995	-2.990100	3.795900	-11.348000	23.078128	0.001003	20.692081
376.102387	-2.997800	3.795900	-11.379000	23.091402	0.001005	20.679776
377.103080	-2.998100	3.796900	-11.383000	23.089411	0.001006	20.706707
378.105999	-2.981800	3.795900	-11.317000	23.082485	0.001003	20.675108
379.103172	-2.990400	3.795900	-11.349000	23.132390	0.001003	20.688606
380.103777	-2.980100	3.796900	-11.314000	23.134413	0.001004	20.689211
381.107397	-2.987200	3.796400	-11.340000	23.122698	0.001007	20.691222
382.105946	-2.990100	3.796600	-11.351000	23.125545	0.001007	20.704508
383.104479	-3.002400	3.795900	-11.396000	23.100638	0.001007	20.703731
384.106997	-2.999000	3.794500	-11.379000	23.096876	0.001007	20.696169
385.106849	-2.990000	3.794100	-11.343000	23.125186	0.001007	20.683284
386.107813	-2.992000	3.794300	-11.352000	23.114254	0.001007	20.717851
387.109389	-3.000000	3.794900	-11.383000	23.112133	0.001007	20.699128
388.108486	-3.000000	3.794100	-11.381000	23.131061	0.001008	20.695335
389.115961	-2.992300	3.793800	-11.351000	23.112851	0.001007	20.695106
390.113050	-3.022600	3.792200	-11.461000	23.132602	0.001006	20.702096
391.109581	-3.006700	3.793700	-11.405000	23.122535	0.001008	20.710027
392.109430	-3.032700	3.791900	-11.499000	23.133247	0.001010	20.715545
393.112536	-2.989200	3.792600	-11.335000	23.167487	0.001010	20.692007
394.111857	-2.997500	3.791800	-11.365000	23.159198	0.001009	20.688917
395.111690	-2.980400	3.792300	-11.302000	23.184692	0.001012	20.708302
396.112866	-2.996200	3.791500	-11.359000	23.186087	0.001010	20.682196
397.112075	-3.001600	3.790500	-11.376000	23.184097	0.001011	20.701066
398.109965	-3.022900	3.789600	-11.454000	23.162029	0.001010	20.690331
399.122372	-3.024800	3.790500	-11.464000	23.172839	0.001013	20.702587
400.112300	-2.999600	3.789900	-11.366000	23.170179	0.001013	20.699922
401.112646	-2.983700	3.791600	-11.312000	23.165839	0.001012	20.719756
402.113379	-3.007900	3.790100	-11.398000	23.130229	0.001016	20.684543
403.112404	-2.978400	3.790000	-11.287000	23.169600	0.001014	20.692702
404.112909	-2.995800	3.788900	-11.350000	23.158089	0.001014	20.676424
405.113602	-3.000600	3.788200	-11.366000	23.205560	0.001014	20.703609
406.112368	-2.995300	3.789600	-11.350000	23.227969	0.001013	20.713264
407.112986	-3.000800	3.788600	-11.367000	23.242188	0.001013	20.688157
408.114943	-3.008100	3.787400	-11.391000	23.249309	0.001015	20.713314
409.113227	-3.024100	3.786600	-11.449000	23.255207	0.001015	20.692196
410.113826	-3.003600	3.786800	-11.373000	23.263503	0.001016	20.694820
411.114630	-3.011100	3.787300	-11.402000	23.295945	0.001015	20.679441
412.112634	-3.014200	3.785400	-11.409000	23.282347	0.001016	20.703748
413.112284	-3.000100	3.787000	-11.361000	23.291564	0.001017	20.708719
414.113958	-3.009600	3.786400	-11.395000	23.307691	0.001017	20.724408
415.113991	-3.012000	3.785500	-11.401000	23.322585	0.001016	20.694763
416.113639	-3.009500	3.786300	-11.393000	23.301288	0.001018	20.721784
417.114763	-3.007000	3.786400	-11.384000	23.322080	0.001018	20.701843
418.112272	-2.992700	3.785200	-11.327000	23.321403	0.001018	20.707329
419.114105	-3.004700	3.784900	-11.372000	23.307511	0.001018	20.704787
420.113962	-2.989600	3.784100	-11.312000	23.292543	0.001018	20.715390
421.117264	-2.973700	3.785300	-11.255000	23.279835	0.001017	20.734898
422.112910	-2.971800	3.784800	-11.247000	23.277893	0.001017	20.708768
423.116820	-3.005200	3.784200	-11.371000	23.293319	0.001019	20.707632
424.116271	-2.989700	3.783500	-11.311000	23.280993	0.001018	20.704288
425.115208	-3.016800	3.782400	-11.410000	23.312977	0.001019	20.712162
426.117603	-2.989800	3.783300	-11.311000	23.329960	0.001019	20.715432
427.116537	-3.009400	3.782700	-11.382000	23.318777	0.001020	20.699481
428.118810	-2.985000	3.782800	-11.290000	23.333916	0.001020	20.703749
429.116977	-3.015200	3.781800	-11.401000	23.344667	0.001020	20.712628
430.118342	-2.989800	3.782800	-11.309000	23.359773	0.001019	20.731563
431.117443	-2.995500	3.781200	-11.326000	23.372661	0.001019	20.735945
432.121588	-2.993800	3.781500	-11.320000	23.365630	0.001021	20.720363
433.117509	-2.979500	3.782300	-11.268000	23.351862	0.001021	20.716994
434.119620	-2.972700	3.781000	-11.239000	23.321723	0.001021	20.731833
435.118773	-2.992000	3.781200	-11.313000	23.345280	0.001022	20.724148
436.117880	-3.002300	3.780400	-11.349000	23.350566	0.001021	20.723282
437.120309	-3.018300	3.779900	-11.407000	23.340883	0.001024	20.714526
438.121477	-2.995500	3.780600	-11.324000	23.358877	0.001019	20.723552
439.122047	-3.016000	3.779500	-11.398000	23.346545	0.001022	20.720200
440.120450	-2.997300	3.778900	-11.326000	23.377091	0.001022	20.740386
441.121153	-2.982700	3.778500	-11.269000	23.407025	0.001021	20.713488
442.120615	-2.992400	3.777800	-11.303000	23.389408	0.001021	20.743721
443.122648	-3.000500	3.778900	-11.337000	23.391430	0.001023	20.742430
444.122747	-2.993400	3.778400	-11.309000	23.411161	0.001025	20.721901
445.122424	-3.004700	3.778600	-11.353000	23.416691	0.001023	20.726970
446.123462	-2.982900	3.778200	-11.267000	23.427196	0.001023	20.727542
447.124809	-3.002600	3.778500	-11.345000	23.448059	0.001025	20.716211
448.126120	-2.991800	3.777400	-11.301000	23.449299	0.001023	20.731679
449.126661	-2.993200	3.777800	-11.306000	23.384686	0.001024	20.736617
450.127206	-2.993600	3.774900	-11.299000	23.411700	0.001026	20.721493
451.130489	-2.999200	3.776700	-11.325000	23.406863	0.001026	20.720438
452.125418	-3.014500	3.776100	-11.382000	23.409302	0.001028	20.729996
453.127806	-3.003400	3.775600	-11.339000	23.429725	0.001026	20.732448
454.128131	-2.986500	3.776800	-11.278000	23.414506	0.001027	20.739953
455.126866	-3.014200	3.773500	-11.373000	23.426593	0.001027	20.750647
456.128714	-2.991200	3.774500	-11.289000	23.402002	0.001027	20.758242
457.130097	-3.005300	3.773600	-11.340000	23.400975	0.001025	20.733503
458.129880	-3.000000	3.773800	-11.321000	23.414865	0.001027	20.743158
459.130424	-2.989000	3.774300	-11.280000	23.394278	0.001027	20.744336
460.129750	-2.985800	3.773800	-11.267000	23.445654	0.001028	20.742725
461.129674	-2.970800	3.774400	-11.212000	23.446128	0.001026	20.736087
462.132756	-3.013500	3.772600	-11.367000	23.470905	0.001027	20.735792
463.130082	-2.994800	3.772500	-11.297000	23.491213	0.001028	20.750459
464.131571	-2.983200	3.771200	-11.250000	23.504906	0.001029	20.733365
465.132364	-2.994300	3.771900	-11.294000	23.496123	0.001030	20.738311
466.133864	-3.002700	3.771400	-11.323000	23.498651	0.001030	20.748432
467.134468	-3.001600	3.770300	-11.316000	23.523150	0.001028	20.752127
468.134983	-3.025000	3.769300	-11.401000	23.546972	0.001028	20.744238
469.136722	-3.016000	3.769400	-11.368000	23.549729	0.001029	20.723293
470.135322	-3.013700	3.770100	-11.361000	23.566414	0.001028	20.761357
471.137557	-2.997200	3.770900	-11.301000	23.566284	0.001029	20.734673
472.137025	-3.018600	3.769400	-11.377000	23.606512	0.001030	20.735172
473.136697	-3.008100	3.768400	-11.334000	23.556726	0.001029	20.754016
474.138259	-3.003000	3.768800	-11.316000	23.562769	0.001030	20.731624
475.139343	-2.996300	3.768800	-11.290000	23.553880	0.001029	20.754008
476.139169	-2.981400	3.768500	-11.234000	23.566676	0.001030	20.755455
477.139430	-3.022000	3.767200	-11.384000	23.598195	0.001029	20.741532
478.141068	-2.991400	3.768800	-11.272000	23.617758	0.001029	20.753559
479.139034	-3.013000	3.766000	-11.345000	23.623303	0.001028	20.737306
480.139168	-3.022200	3.766700	-11.383000	23.626174	0.001031	20.745874
481.144594	-2.984700	3.768300	-11.246000	23.660611	0.001031	20.754319
482.139889	-2.989800	3.767500	-11.264000	23.673951	0.001029	20.764849
483.138142	-2.981100	3.766900	-11.229000	23.639173	0.001030	20.738991
484.139001	-3.008500	3.765000	-11.326000	23.629346	0.001030	20.750477
485.140413	-2.992200	3.766200	-11.268000	23.626631	0.001031	20.752970
486.143125	-2.981900	3.766100	-11.229000	23.646863	0.001031	20.741484
487.141541	-3.005300	3.765800	-11.316000	23.653215	0.001031	20.745482
488.142932	-2.990700	3.765100	-11.260000	23.665357	0.001031	20.759552
489.144069	-3.011900	3.762600	-11.331000	23.661802	0.001031	20.772109
490.142893	-2.978100	3.765000	-11.212000	23.650630	0.001029	20.751425
491.142723	-2.995600	3.764500	-11.276000	23.651494	0.001030	20.761775
492.149219	-2.984800	3.763000	-11.231000	23.618419	0.001029	20.748531
493.142470	-2.997600	3.764600	-11.284000	23.631198	0.001032	20.761342
494.143088	-2.991700	3.763700	-11.258000	23.620205	0.001030	20.754589
495.142115	-2.983200	3.763400	-11.225000	23.644351	0.001032	20.754614
496.141938	-2.982600	3.764500	-11.226000	23.655107	0.001032	20.770139
497.142728	-2.998500	3.762000	-11.280000	23.649578	0.001031	20.752742
498.143784	-2.997500	3.762300	-11.277000	23.642337	0.001032	20.761129
499.141780	-3.026800	3.762100	-11.386000	23.642761	0.001032	20.770564
500.143298	-3.003600	3.762000	-11.298000	23.661883	0.001033	20.765078
501.142913	-2.995800	3.761300	-11.267000	23.671138	0.001032	20.761555
502.144936	-2.989500	3.761500	-11.244000	23.684087	0.001032	20.751777
503.143529	-3.006900	3.760300	-11.305000	23.699221	0.001033	20.765528
504.144205	-2.988500	3.760800	-11.239000	23.687422	0.001032	20.758440
505.144575	-3.012600	3.759300	-11.324000	23.689265	0.001034	20.762658
506.145072	-3.018000	3.758200	-11.341000	23.674905	0.001032	20.776237
507.146581	-3.009000	3.759000	-11.310000	23.702165	0.001035	20.773220
508.143490	-3.004800	3.759200	-11.294000	23.673144	0.001033	20.771152
509.145278	-3.002400	3.759500	-11.287000	23.663114	0.001033	20.775321
510.144140	-3.005000	3.757900	-11.292000	23.654177	0.001034	20.767784
511.145643	-2.999200	3.757700	-11.269000	23.666351	0.001032	20.765764
512.144007	-3.002200	3.757400	-11.280000	23.663758	0.001033	20.767432
513.146327	-3.008400	3.755800	-11.297000	23.668015	0.001034	20.770277
514.146885	-3.010400	3.756200	-11.306000	23.684038	0.001035	20.778755
515.145464	-3.015300	3.756100	-11.325000	23.688645	0.001035	20.770572
516.146828	-3.027600	3.755600	-11.369000	23.733704	0.001032	20.769754
517.147490	-2.997100	3.755900	-11.255000	23.724303	0.001035	20.784510
518.146926	-2.994700	3.755100	-11.245000	23.755320	0.001034	20.777201
519.150168	-2.994800	3.755700	-11.245000	23.766865	0.001035	20.786881
520.148736	-2.981800	3.755700	-11.197000	23.769507	0.001035	20.782891
521.148947	-3.020100	3.753400	-11.335000	23.765300	0.001034	20.770612
522.148970	-2.985600	3.755800	-11.212000	23.766523	0.001034	20.783218
523.150005	-3.001300	3.753600	-11.264000	23.785096	0.001034	20.793780
524.148650	-3.020700	3.753300	-11.335000	23.797359	0.001035	20.766721
525.147840	-2.994400	3.753800	-11.239000	23.785471	0.001035	20.787044
526.149296	-3.018300	3.752000	-11.323000	23.779870	0.001033	20.791859
527.149871	-3.008300	3.752800	-11.288000	23.775435	0.001034	20.769394
528.149193	-3.015300	3.752500	-11.314000	23.769189	0.001035	20.772615
529.150698	-3.002600	3.751600	-11.264000	23.774179	0.001034	20.761496
530.160201	-2.985600	3.752900	-11.204000	23.774179	0.001035	20.797058
531.152773	-2.983500	3.752000	-11.194000	23.785284	0.001036	20.769311
532.151831	-2.987600	3.751000	-11.205000	23.778011	0.001034	20.788572
533.151053	-2.995000	3.750500	-11.232000	23.786205	0.001036	20.792047
534.152154	-3.010900	3.750800	-11.292000	23.764777	0.001035	20.796641
535.155589	-3.003600	3.750000	-11.262000	23.752082	0.001034	20.774903
536.152392	-3.009000	3.750700	-11.285000	23.739590	0.001035	20.773759
537.156278	-2.986700	3.750500	-11.200000	23.763758	0.001035	20.790877
538.152262	-3.003400	3.750400	-11.262000	23.777171	0.001034	20.805274
539.153496	-3.015200	3.748900	-11.303000	23.737699	0.001034	20.787983
540.152465	-2.990900	3.749000	-11.212000	23.760676	0.001036	20.769769
541.156320	-2.997300	3.748700	-11.233000	23.780913	0.001035	20.795750
542.152443	-2.999800	3.748600	-11.244000	23.783449	0.001034	20.782645
543.156342	-3.015800	3.747500	-11.300000	23.790118	0.001034	20.800712
544.154036	-2.996500	3.747700	-11.229000	23.821427	0.001036	20.780421
545.153612	-3.010400	3.747000	-11.279000	23.810600	0.001037	20.780470
546.153504	-2.972000	3.748800	-11.141000	23.817921	0.001036	20.783544
547.157497	-3.009100	3.747800	-11.276000	23.831774	0.001036	20.777519
548.154449	-2.999400	3.746200	-11.235000	23.856763	0.001035	20.783136
549.154929	-2.997100	3.746100	-11.226000	23.848472	0.001035	20.789046
550.159788	-3.000400	3.745400	-11.236000	23.843718	0.001036	20.806566
551.156687	-2.997600	3.745600	-11.227000	23.823132	0.001036	20.796355
552.156194	-2.990500	3.746200	-11.201000	23.815068	0.001036	20.789218
553.161946	-3.009700	3.745700	-11.273000	23.814644	0.001037	20.800647
554.157814	-3.000300	3.744500	-11.233000	23.810209	0.001036	20.787191
555.161578	-2.989500	3.745300	-11.196000	23.849907	0.001036	20.807555
556.163597	-3.012000	3.743000	-11.273000	23.819879	0.001035	20.798309
557.163044	-3.004800	3.744100	-11.250000	23.852761	0.001037	20.788131
558.159769	-3.005800	3.742200	-11.247000	23.849320	0.001035	20.784208
559.163290	-2.994100	3.743500	-11.207000	23.863506	0.001035	20.790846
560.162583	-3.010800	3.742400	-11.267000	23.859650	0.001035	20.817325
561.161514	-3.000600	3.743500	-11.231000	23.855215	0.001033	20.808136
562.164454	-3.011900	3.741200	-11.266000	23.895580	0.001034	20.806885
563.162978	-2.994100	3.741700	-11.202000	23.891422	0.001035	20.797975
564.159974	-2.984400	3.743200	-11.170000	23.905656	0.001035	20.796127
565.164248	-3.013700	3.740300	-11.271000	23.904637	0.001035	20.810752
566.160981	-3.000800	3.741900	-11.228000	23.889212	0.001035	20.797181
567.160594	-3.008400	3.740000	-11.250000	23.916956	0.001033	20.797501
568.162049	-3.009700	3.740400	-11.256000	23.947193	0.001036	20.794631
569.162461	-2.992000	3.740800	-11.192000	23.975440	0.001036	20.813000
570.163384	-2.999800	3.739000	-11.214000	23.957718	0.001036	20.808504
571.164070	-3.006600	3.739000	-11.239000	23.979990	0.001034	20.811872
572.164629	-2.987000	3.740200	-11.171000	23.967028	0.001034	20.810728
573.164912	-3.005600	3.738000	-11.234000	23.976712	0.001034	20.804792
574.167451	-2.989300	3.739300	-11.177000	23.976916	0.001034	20.814006
575.163581	-2.999500	3.738700	-11.212000	23.980226	0.001035	20.816850
576.164689	-3.004200	3.738200	-11.230000	23.980649	0.001034	20.820120
577.164977	-2.987400	3.738500	-11.167000	23.998266	0.001033	20.804122
578.163809	-3.001200	3.737000	-11.214000	23.993741	0.001034	20.817602
579.165705	-3.004700	3.738400	-11.231000	24.023129	0.001035	20.810090
580.169978	-2.989700	3.738000	-11.175000	24.006312	0.001036	20.819777
581.164770	-3.009800	3.736900	-11.246000	24.022713	0.001033	20.817259
582.166455	-3.016500	3.734900	-11.266000	23.997018	0.001034	20.807138
583.167503	-3.004900	3.735100	-11.222000	24.025484	0.001035	20.830943
584.167743	-3.008600	3.735800	-11.239000	24.034989	0.001035	20.815346
585.167155	-2.980500	3.735500	-11.132000	24.027131	0.001033	20.834965
586.168821	-2.998400	3.735500	-11.200000	24.048358	0.001034	20.818795
587.168840	-3.019100	3.735200	-11.276000	24.035502	0.001035	20.809222
588.169593	-2.996700	3.734400	-11.188000	24.032486	0.001037	20.819948
589.171229	-2.988800	3.733300	-11.157000	24.040784	0.001036	20.821631
590.170685	-3.004200	3.734900	-11.219000	24.048692	0.001034	20.809173
591.170376	-3.006700	3.733600	-11.224000	24.045341	0.001036	20.820986
592.170346	-2.991000	3.733700	-11.167000	24.073162	0.001034	20.827550
593.170930	-2.998400	3.732900	-11.191000	24.065915	0.001034	20.810326
594.174011	-3.001600	3.733000	-11.203000	24.079871	0.001033	20.822425
595.173625	-2.990800	3.734700	-11.168000	24.054251	0.001035	20.822809
596.171679	-2.980400	3.733100	-11.126000	24.063233	0.001033	20.818541
597.170754	-3.007100	3.731800	-11.221000	24.054422	0.001035	20.820610
598.171065	-3.009600	3.731700	-11.229000	24.038771	0.001034	20.819612
599.173925	-3.005600	3.731400	-11.214000	24.012889	0.001034	20.829218
600.170887	-3.010000	3.731300	-11.231000	23.989705	0.001034	20.829675
601.171745	-3.001000	3.731100	-11.196000	23.978871	0.001035	20.831139
602.172016	-3.001500	3.729600	-11.194000	23.957472	0.001034	20.833387
603.173146	-2.990100	3.730900	-11.154000	23.967906	0.001035	20.822040
604.173460	-3.000600	3.729700	-11.190000	23.971738	0.001036	20.838210
605.171939	-3.019800	3.730000	-11.263000	23.978700	0.001035	20.834286
606.173442	-3.011700	3.728700	-11.228000	24.013549	0.001034	20.817078
607.173513	-3.017700	3.728800	-11.251000	24.020332	0.001034	20.825302
608.171870	-3.005500	3.728700	-11.205000	24.029918	0.001034	20.828277
609.173193	-3.014700	3.728300	-11.238000	24.045170	0.001033	20.834090
610.172157	-3.017100	3.727200	-11.244000	24.064089	0.001035	20.828408
611.174191	-3.002900	3.726700	-11.190000	24.073806	0.001032	20.844317
612.173474	-3.008500	3.726600	-11.211000	24.050101	0.001035	20.809639
613.172122	-3.019600	3.727200	-11.253000	24.062043	0.001032	20.824934
614.174157	-2.982600	3.727300	-11.116000	24.050003	0.001034	20.818549
615.174469	-2.972400	3.727300	-11.078000	24.056639	0.001032	20.813824
616.174453	-2.999500	3.726400	-11.177000	24.062459	0.001034	20.816816
617.172766	-2.974000	3.727000	-11.084000	24.054593	0.001032	20.841643
618.173836	-2.997800	3.726500	-11.171000	24.038094	0.001032	20.811822
619.172678	-2.990000	3.725500	-11.139000	24.047925	0.001033	20.828319
620.174048	-2.984500	3.724600	-11.115000	24.019297	0.001033	20.799608
621.173233	-2.984000	3.725700	-11.117000	24.017585	0.001033	20.812590
622.174030	-2.991500	3.725400	-11.143000	24.003824	0.001033	20.809696
623.173064	-3.006400	3.724500	-11.195000	23.993170	0.001034	20.823193
624.176645	-3.007500	3.724800	-11.201000	24.015539	0.001033	20.824289
625.176067	-2.996900	3.723500	-11.157000	24.014349	0.001032	20.831155
626.175081	-3.021400	3.722600	-11.246000	24.013028	0.001032	20.809917
627.174720	-3.019900	3.723000	-11.242000	23.992991	0.001032	20.812108
628.174453	-2.978100	3.724500	-11.091000	23.985817	0.001031	20.803966
629.176787	-2.984400	3.721900	-11.107000	24.007371	0.001031	20.813253
630.175834	-2.979700	3.723000	-11.093000	24.020699	0.001031	20.805757
631.178440	-3.019400	3.721100	-11.234000	24.046402	0.001029	20.803083
632.178524	-3.001900	3.721900	-11.171000	24.049010	0.001029	20.791949
633.178946	-3.011600	3.720500	-11.204000	24.031174	0.001031	20.796347
634.179515	-2.990800	3.722200	-11.132000	24.026471	0.001029	20.812493
635.178773	-2.998800	3.720800	-11.157000	24.024254	0.001030	20.803631
636.188247	-3.010400	3.719900	-11.197000	24.035789	0.001031	20.819941
637.180003	-2.983100	3.721000	-11.100000	24.047486	0.001032	20.793266
638.189025	-3.014100	3.718900	-11.209000	24.088692	0.001030	20.813728
639.185819	-3.006800	3.719800	-11.183000	24.107676	0.001031	20.807163
640.182699	-3.002700	3.718000	-11.162000	24.097919	0.001029	20.801171
641.183176	-2.986000	3.718900	-11.104000	24.091545	0.001028	20.802839
642.186759	-3.025700	3.717700	-11.248000	24.075242	0.001030	20.801662
643.181511	-3.027200	3.718200	-11.255000	24.096745	0.001029	20.803787
644.184353	-2.997400	3.718300	-11.144000	24.128192	0.001031	20.789808
645.183990	-3.016500	3.718300	-11.215000	24.131249	0.001030	20.784813
646.186140	-3.023600	3.717000	-11.237000	24.103307	0.001028	20.809420
647.184093	-3.003200	3.717500	-11.163000	24.144005	0.001028	20.807090
648.184582	-3.007400	3.716100	-11.175000	24.146972	0.001028	20.794893
649.182298	-3.007600	3.716500	-11.176000	24.144641	0.001030	20.797770
650.185458	-2.978100	3.717100	-11.069000	24.163714	0.001030	20.793193
651.185949	-3.010200	3.716300	-11.186000	24.180032	0.001029	20.793912
652.182663	-2.991700	3.715700	-11.116000	24.196276	0.001029	20.801671
653.187013	-3.002400	3.714700	-11.152000	24.195803	0.001028	20.786972
654.185320	-3.010200	3.715100	-11.183000	24.185859	0.001029	20.796912
655.183979	-3.001700	3.714700	-11.149000	24.179770	0.001028	20.790805
656.185602	-2.958900	3.716100	-10.994000	24.162019	0.001029	20.779164
657.184561	-3.001000	3.713500	-11.143000	24.140175	0.001028	20.782859
658.187628	-2.995700	3.714000	-11.125000	24.130996	0.001029	20.777922
659.186730	-3.017400	3.713200	-11.203000	24.112730	0.001028	20.787577
660.186751	-3.009400	3.714200	-11.175000	24.110146	0.001027	20.802529
661.184746	-3.013800	3.713200	-11.189000	24.126970	0.001030	20.769615
662.186578	-3.003200	3.713500	-11.152000	24.094920	0.001027	20.781568
663.188762	-2.998400	3.712800	-11.131000	24.108426	0.001028	20.789898
664.185741	-2.992700	3.713100	-11.111000	24.122845	0.001027	20.767375
665.186728	-3.010800	3.711600	-11.174000	24.124410	0.001026	20.786015
666.188539	-2.993800	3.712400	-11.113000	24.119854	0.001027	20.790928
667.187220	-2.988300	3.711200	-11.089000	24.090494	0.001028	20.774758
668.186292	-2.978100	3.712600	-11.055000	24.095800	0.001027	20.789563
669.187200	-2.996500	3.709800	-11.116000	24.118338	0.001028	20.771389
670.185990	-2.991300	3.711200	-11.099000	24.111548	0.001028	20.783546
671.188959	-3.003400	3.710300	-11.142000	24.098245	0.001027	20.779687
672.188619	-3.001500	3.711900	-11.140000	24.083426	0.001026	20.786162
673.188076	-3.021100	3.708400	-11.202000	24.043101	0.001025	20.789816
674.189737	-2.986200	3.709100	-11.074000	24.052059	0.001026	20.762290
675.187723	-2.992500	3.707900	-11.094000	24.043949	0.001025	20.769329
676.189516	-2.994200	3.709500	-11.106000	24.048424	0.001026	20.775714
677.190853	-3.011900	3.708500	-11.168000	24.093321	0.001025	20.762421
678.191302	-3.019600	3.706400	-11.191000	24.117155	0.001023	20.773049
679.189851	-2.994900	3.708100	-11.103000	24.129382	0.001023	20.754964
680.191837	-3.004500	3.707400	-11.138000	24.173738	0.001023	20.791868
681.189788	-3.009000	3.707800	-11.156000	24.211858	0.001023	20.786480
682.189777	-3.026600	3.706400	-11.217000	24.215664	0.001024	20.779866
683.191189	-3.022600	3.706800	-11.203000	24.227115	0.001026	20.779498
684.189705	-3.008100	3.707100	-11.150000	24.209225	0.001024	20.756338
685.191814	-2.972400	3.708600	-11.022000	24.214947	0.001023	20.776302
686.193694	-2.991700	3.707200	-11.090000	24.210318	0.001023	20.772133
687.191898	-2.991800	3.705700	-11.086000	24.207384	0.001021	20.769189
688.192091	-2.999300	3.705900	-11.114000	24.221467	0.001023	20.767195
689.193461	-3.006800	3.705600	-11.141000	24.261802	0.001025	20.766876
690.190088	-3.002200	3.706300	-11.126000	24.245176	0.001022	20.763475
691.191699	-2.984400	3.706300	-11.060000	24.281175	0.001022	20.754065
692.193584	-3.003600	3.704000	-11.125000	24.306064	0.001023	20.762911
693.191941	-2.987700	3.704600	-11.067000	24.310856	0.001022	20.755864
694.191266	-3.013100	3.704000	-11.159000	24.317155	0.001022	20.761235
695.192961	-3.025200	3.703200	-11.202000	24.337651	0.001020	20.766148
696.194098	-2.980700	3.704800	-11.042000	24.317359	0.001023	20.761913
697.193303	-2.994800	3.703600	-11.091000	24.351905	0.001021	20.755790
698.195647	-2.989400	3.704200	-11.071000	24.345092	0.001021	20.761284
699.196744	-3.008200	3.701700	-11.134000	24.310962	0.001022	20.769721
700.202312	-3.003800	3.700700	-11.115000	24.318500	0.001022	20.759739
701.196847	-2.983800	3.702200	-11.045000	24.341766	0.001020	20.758896
702.201355	-3.006500	3.701500	-11.126000	24.328279	0.001019	20.775239
703.195395	-2.981300	3.702100	-11.036000	24.349451	0.001019	20.759967
704.197200	-3.006300	3.700400	-11.123000	24.362017	0.001020	20.760719
705.199562	-3.009200	3.701600	-11.137000	24.374983	0.001018	20.754285
706.196937	-3.007000	3.699700	-11.125000	24.394931	0.001020	20.753435
707.200463	-3.011100	3.700000	-11.140000	24.391998	0.001020	20.769933
708.199291	-2.981200	3.700600	-11.032000	24.397922	0.001019	20.752642
709.197598	-2.975200	3.699900	-11.006000	24.399690	0.001019	20.752519
710.200435	-2.981300	3.700900	-11.033000	24.404074	0.001017	20.752176
711.199967	-3.008800	3.698800	-11.128000	24.419679	0.001019	20.757874
712.198634	-2.991200	3.700400	-11.068000	24.426418	0.001019	20.739978
713.198764	-2.990800	3.699400	-11.063000	24.412288	0.001020	20.768951
714.199994	-2.998100	3.699100	-11.089000	24.364681	0.001018	20.752012
715.198184	-3.016400	3.698200	-11.155000	24.358463	0.001021	20.738661
716.199309	-2.985900	3.699900	-11.046000	24.329957	0.001017	20.744204
717.199926	-3.030200	3.696200	-11.199000	24.332051	0.001018	20.752469
718.200854	-2.999700	3.697500	-11.090000	24.354576	0.001017	20.723855
719.201844	-2.994300	3.697200	-11.069000	24.359677	0.001015	20.757898
720.201416	-3.004000	3.696000	-11.101000	24.370296	0.001017	20.740100
721.200334	-2.994700	3.697900	-11.073000	24.387213	0.001015	20.741424
722.201610	-2.992600	3.695200	-11.057000	24.397277	0.001017	20.744408
723.202728	-2.991300	3.695400	-11.053000	24.404040	0.001015	20.745029
724.200567	-3.022900	3.693700	-11.165000	24.410731	0.001016	20.757905
725.200079	-3.005400	3.695400	-11.106000	24.457805	0.001016	20.737328
726.204026	-3.002600	3.696300	-11.097000	24.464145	0.001014	20.747482
727.199366	-3.004800	3.694900	-11.101000	24.453503	0.001013	20.742020
728.204883	-3.005700	3.694800	-11.103000	24.451409	0.001014	20.727117
729.202385	-2.991200	3.694000	-11.047000	24.423035	0.001013	20.745593
730.200437	-3.018100	3.692700	-11.143000	24.410779	0.001015	20.749419
731.201898	-3.015100	3.692100	-11.131000	24.420509	0.001013	20.733575
732.201245	-2.993700	3.693200	-11.055000	24.441980	0.001014	20.741840
733.198813	-2.994200	3.692800	-11.056000	24.437474	0.001014	20.741113
734.201571	-2.977500	3.693100	-10.993000	24.396233	0.001013	20.723445
735.201925	-3.002000	3.691700	-11.080000	24.357916	0.001015	20.743802
736.202317	-3.001100	3.692200	-11.080000	24.305743	0.001013	20.745519
737.202107	-3.010700	3.690300	-11.109000	24.302263	0.001010	20.736338
738.202698	-3.038000	3.690700	-11.211000	24.288539	0.001012	20.698860
739.201967	-3.005500	3.691500	-11.094000	24.316199	0.001012	20.742731
740.203414	-3.015400	3.690000	-11.126000	24.325733	0.001012	20.734277
741.204113	-2.994900	3.691200	-11.054000	24.351608	0.001012	20.748380
742.205382	-2.995300	3.691600	-11.057000	24.353783	0.001012	20.727328
743.204317	-2.987000	3.691100	-11.024000	24.384155	0.001012	20.731244
744.205400	-3.015900	3.688600	-11.123000	24.397365	0.001012	20.727900
745.204541	-2.982000	3.689800	-11.002000	24.389509	0.001010	20.731399
746.203655	-2.962300	3.692200	-10.936000	24.402988	0.001011	20.719790
747.205397	-3.000900	3.688900	-11.069000	24.422121	0.001011	20.711009
748.206186	-2.999400	3.688900	-11.062000	24.471599	0.001012	20.718449
749.207563	-2.996700	3.688800	-11.053000	24.484139	0.001009	20.730557
750.210569	-3.004300	3.688200	-11.079000	24.490609	0.001009	20.723297
751.208035	-2.992100	3.689100	-11.037000	24.497144	0.001010	20.702825
752.208046	-3.000800	3.687400	-11.064000	24.496704	0.001008	20.718032
753.206865	-2.987300	3.688700	-11.019000	24.507647	0.001009	20.731857
754.208797	-2.991200	3.686800	-11.026000	24.501642	0.001007	20.717770
755.207403	-3.000400	3.686700	-11.060000	24.491008	0.001011	20.717059
756.209286	-3.014300	3.686600	-11.112000	24.499711	0.001011	20.708720
757.210593	-3.002200	3.687200	-11.069000	24.498195	0.001010	20.716209
758.212404	-3.020400	3.685500	-11.131000	24.535057	0.001009	20.710044
759.210968	-2.984300	3.685700	-10.998000	24.555402	0.001009	20.696317
760.211461	-2.994900	3.685100	-11.036000	24.561538	0.001009	20.717174
761.212183	-2.984200	3.686000	-10.999000	24.576733	0.001008	20.711083
762.214978	-3.019400	3.684100	-11.123000	24.548257	0.001008	20.727556
763.213982	-2.997200	3.684100	-11.040000	24.578077	0.001007	20.720019
764.217856	-2.999300	3.683600	-11.047000	24.577678	0.001007	20.701599
765.218503	-3.024200	3.683300	-11.137000	24.592743	0.001008	20.698222
766.212867	-3.006600	3.683800	-11.075000	24.573116	0.001007	20.714566
767.216372	-3.026200	3.682100	-11.141000	24.593061	0.001007	20.693800
768.216595	-3.010200	3.683100	-11.086000	24.561448	0.001006	20.703332
769.215194	-3.012000	3.682500	-11.091000	24.536394	0.001007	20.700479
770.216119	-2.993100	3.683000	-11.022000	24.491547	0.001009	20.715702
771.217516	-2.991300	3.683400	-11.017000	24.495482	0.001006	20.699735
772.217083	-2.986400	3.682800	-10.997000	24.519080	0.001006	20.707764
773.218453	-3.006400	3.681100	-11.066000	24.525028	0.001006	20.719422
774.219546	-2.992900	3.681000	-11.016000	24.493234	0.001004	20.698427
775.218326	-3.020000	3.681900	-11.118000	24.498033	0.001005	20.699449
776.218876	-2.990000	3.680700	-11.004000	24.448882	0.001003	20.709407
777.220043	-3.004300	3.680800	-11.057000	24.470321	0.001002	20.701518
778.217792	-3.016800	3.679600	-11.100000	24.448255	0.001002	20.702139
779.221892	-3.002900	3.680000	-11.049000	24.454847	0.001004	20.695002
780.220446	-3.012900	3.679700	-11.086000	24.471763	0.001003	20.692533
781.219707	-2.966200	3.681600	-10.919000	24.461113	0.001002	20.716463
782.221466	-3.020800	3.677800	-11.109000	24.468642	0.000999	20.704576
783.221074	-3.015100	3.679500	-11.093000	24.488247	0.001001	20.707650
784.221117	-2.990800	3.679400	-11.003000	24.461407	0.001002	20.693522
785.220387	-2.987300	3.679400	-10.990000	24.459174	0.001001	20.714043
786.219820	-3.012300	3.677300	-11.077000	24.477850	0.000999	20.702434
787.219768	-3.017100	3.676800	-11.093000	24.463615	0.000999	20.695264
788.218720	-2.998400	3.677500	-11.025000	24.487139	0.001000	20.693261
789.223439	-2.981200	3.678700	-10.965000	24.509661	0.001000	20.704952
790.223750	-3.016200	3.677400	-11.090000	24.505375	0.000999	20.701600
791.222400	-3.019100	3.676100	-11.098000	24.484010	0.000999	20.701502
792.220931	-2.990000	3.678500	-10.997000	24.464128	0.001000	20.692460
793.223804	-2.975200	3.677800	-10.941000	24.487808	0.001000	20.682076
794.225677	-3.015200	3.676600	-11.085000	24.483978	0.000998	20.700521
795.223807	-3.003800	3.675000	-11.039000	24.496160	0.000996	20.695199
796.222795	-2.997200	3.674700	-11.012000	24.495557	0.000999	20.690800
797.222685	-3.019500	3.674800	-11.094000	24.488818	0.000997	20.698739
798.222675	-2.981600	3.675800	-10.959000	24.464169	0.000996	20.695820
799.223515	-2.969300	3.675300	-10.912000	24.457569	0.000997	20.686353
800.225163	-2.999500	3.673800	-11.019000	24.420852	0.000998	20.688397
801.226987	-2.999400	3.673900	-11.018000	24.417942	0.000995	20.701126
802.228856	-2.997400	3.673900	-11.011000	24.410250	0.000994	20.697202
803.239381	-3.008900	3.672100	-11.048000	24.462630	0.000996	20.674359
804.229548	-3.004500	3.674100	-11.037000	24.458678	0.000995	20.668497
805.228207	-3.013500	3.672700	-11.067000	24.481877	0.000994	20.697938
806.230877	-2.993400	3.672900	-10.993000	24.481632	0.000995	20.693425
807.230004	-2.978900	3.673800	-10.943000	24.505254	0.000994	20.695788
808.227414	-3.006100	3.672500	-11.040000	24.524337	0.000994	20.671784
809.229906	-2.995400	3.673200	-11.002000	24.506819	0.000995	20.701626
810.231877	-2.990900	3.670800	-10.977000	24.493187	0.000993	20.694587
811.229550	-2.971900	3.672500	-10.913000	24.509899	0.000994	20.698078
812.233222	-2.994500	3.671200	-10.992000	24.491394	0.000993	20.685201
813.231009	-2.993000	3.671000	-10.986000	24.501115	0.000993	20.712500
814.231989	-2.993900	3.670900	-10.989000	24.474821	0.000992	20.684220
815.234090	-2.984200	3.669800	-10.950000	24.449259	0.000994	20.685601
816.231958	-3.002400	3.669300	-11.015000	24.457905	0.000995	20.669144
817.232020	-2.991200	3.669700	-10.976000	24.493407	0.000993	20.705714
818.235219	-2.979700	3.669700	-10.933000	24.506737	0.000992	20.674989
819.232374	-3.017900	3.669600	-11.073000	24.498997	0.000990	20.671964
820.232706	-3.005100	3.670200	-11.028000	24.478332	0.000991	20.692011
821.238712	-2.977900	3.669800	-10.926000	24.507952	0.000993	20.689011
822.233675	-2.978500	3.668500	-10.925000	24.493928	0.000990	20.693434
823.234846	-3.004200	3.667000	-11.015000	24.503723	0.000991	20.689036
824.236929	-3.005500	3.667600	-11.022000	24.503071	0.000992	20.685062
825.235082	-2.980700	3.668300	-10.933000	24.504692	0.000992	20.703286
826.236232	-3.007400	3.668100	-11.029000	24.514812	0.000991	20.672185
827.238951	-3.029100	3.667300	-11.106000	24.514951	0.000990	20.678015
828.238786	-3.031900	3.665700	-11.112000	24.511056	0.000991	20.688807
829.238676	-3.004800	3.667600	-11.019000	24.536845	0.000991	20.678170
830.242441	-3.005000	3.666600	-11.017000	24.586236	0.000990	20.689322
831.239028	-3.001900	3.666500	-11.006000	24.588322	0.000989	20.677663
832.238413	-2.994300	3.665400	-10.974000	24.600584	0.000989	20.683329
833.239858	-2.992200	3.668000	-10.975000	24.584118	0.000989	20.679609
834.243867	-3.020300	3.664700	-11.067000	24.605049	0.000988	20.671687
835.238850	-3.005200	3.665100	-11.013000	24.568907	0.000988	20.681891
836.241677	-2.999900	3.664100	-10.990000	24.547585	0.000987	20.693215
837.238931	-3.002000	3.664500	-11.000000	24.546419	0.000986	20.686829
838.239893	-2.997500	3.663600	-10.981000	24.521715	0.000988	20.675318
839.242187	-2.969300	3.665100	-10.882000	24.539413	0.000989	20.689282
840.242338	-2.981400	3.663800	-10.922000	24.590874	0.000986	20.686862
841.238725	-2.979300	3.664000	-10.914000	24.600920	0.000985	20.693624
842.241865	-3.008600	3.662700	-11.018000	24.607128	0.000985	20.688948
843.240357	-3.015600	3.661200	-11.040000	24.608375	0.000985	20.694466
844.239635	-3.023900	3.661500	-11.071000	24.631171	0.000984	20.675613
845.242710	-3.013200	3.660400	-11.029000	24.636011	0.000982	20.680944
846.240626	-2.985200	3.664200	-10.937000	24.658766	0.000984	20.681018
847.241858	-3.026000	3.660800	-11.077000	24.663239	0.000984	20.689300
848.243502	-3.002400	3.661500	-10.992000	24.692975	0.000982	20.686897
849.238331	-3.004500	3.661900	-11.001000	24.696503	0.000982	20.695653
850.240856	-2.999200	3.659600	-10.975000	24.698987	0.000983	20.692456
851.248661	-3.002700	3.660900	-10.991000	24.702686	0.000982	20.698539
852.247432	-3.022100	3.660600	-11.061000	24.696397	0.000982	20.702186
853.242095	-3.008600	3.659500	-11.008000	24.698426	0.000980	20.692367
854.250899	-3.000400	3.660400	-10.981000	24.644689	0.000980	20.701981
855.247509	-2.997300	3.659900	-10.969000	24.622651	0.000981	20.691721
856.242723	-2.981100	3.660100	-10.910000	24.637837	0.000980	20.693209
857.246119	-2.998800	3.659400	-10.973000	24.657635	0.000983	20.705015
858.247042	-3.004100	3.659400	-10.991000	24.678499	0.000980	20.705563
859.245303	-3.003900	3.657700	-10.986000	24.637291	0.000981	20.691239
860.245482	-2.998800	3.658900	-10.971000	24.604621	0.000980	20.676948
861.245841	-3.006700	3.658100	-10.998000	24.598030	0.000981	20.691199
862.247144	-3.013900	3.657500	-11.021000	24.590599	0.000981	20.694174
863.246766	-3.025500	3.656500	-11.061000	24.634213	0.000977	20.700952
864.249650	-2.984200	3.659000	-10.918000	24.648796	0.000979	20.706577
865.246983	-3.016600	3.655400	-11.026000	24.656503	0.000979	20.690602
866.248371	-2.986700	3.658200	-10.923000	24.688186	0.000978	20.676874
867.248947	-2.992600	3.657800	-10.946000	24.724985	0.000977	20.691518
868.249573	-2.994800	3.656300	-10.949000	24.739836	0.000978	20.690773
869.248876	-2.995300	3.656100	-10.950000	24.767932	0.000977	20.696211
870.247691	-2.998900	3.655400	-10.961000	24.750874	0.000977	20.707068
871.248632	-3.009800	3.656200	-11.003000	24.733042	0.000976	20.699604
872.247285	-3.004000	3.655300	-10.979000	24.723966	0.000975	20.699980
873.248905	-3.009500	3.654700	-10.997000	24.746671	0.000974	20.710436
874.247993	-2.995300	3.654700	-10.945000	24.718752	0.000977	20.677201
875.247984	-2.996300	3.654700	-10.950000	24.732202	0.000974	20.704926
876.249105	-3.000400	3.652900	-10.959000	24.733319	0.000975	20.695614
877.248925	-2.983700	3.654700	-10.904000	24.730574	0.000976	20.700446
878.259189	-2.994500	3.653600	-10.940000	24.701066	0.000975	20.715407
879.252362	-2.988700	3.653700	-10.919000	24.707184	0.000973	20.704002
880.251566	-2.981400	3.653200	-10.890000	24.723795	0.000975	20.694592
881.251654	-2.989400	3.651300	-10.913000	24.730239	0.000975	20.702955
882.252147	-3.000300	3.653700	-10.961000	24.740903	0.000974	20.692319
883.252759	-2.990100	3.652400	-10.920000	24.738215	0.000973	20.692940
884.252374	-3.009800	3.651700	-10.991000	24.744561	0.000973	20.698361
885.258984	-3.010800	3.650800	-10.990000	24.736944	0.000973	20.711581
886.250885	-2.992000	3.651700	-10.923000	24.727861	0.000973	20.711001
887.253345	-2.995100	3.651100	-10.934000	24.711013	0.000971	20.699309
888.252228	-3.014600	3.649300	-11.000000	24.721734	0.000971	20.701059
889.254915	-3.013500	3.649300	-10.996000	24.732871	0.000970	20.689474
890.252530	-2.983100	3.651500	-10.892000	24.713123	0.000970	20.675820
891.252867	-2.983200	3.651000	-10.891000	24.713498	0.000970	20.690896
892.251284	-3.016700	3.647600	-11.002000	24.646311	0.000973	20.705980
893.256065	-3.004200	3.648400	-10.959000	24.644437	0.000968	20.691297
894.257766	-2.999000	3.649300	-10.943000	24.639149	0.000971	20.696423
895.253664	-3.011900	3.649700	-10.990000	24.623401	0.000969	20.724719
896.258321	-2.995500	3.650100	-10.933000	24.640942	0.000970	20.683521
897.258687	-2.996400	3.647600	-10.928000	24.635572	0.000969	20.708956
898.257544	-3.009300	3.648000	-10.976000	24.677106	0.000969	20.683774
899.254516	-2.999000	3.647000	-10.937000	24.688128	0.000968	20.706217
900.256882	-3.015800	3.646300	-10.995000	24.668429	0.000967	20.688819
901.259137	-2.997900	3.646400	-10.931000	24.714434	0.000969	20.702268
902.268453	-3.004600	3.646600	-10.955000	24.732512	0.000967	20.701917
903.261057	-2.978800	3.646300	-10.860000	24.731469	0.000966	20.699447
904.266795	-2.993500	3.646400	-10.914000	24.773601	0.000967	20.712806
905.260281	-2.986600	3.646200	-10.887000	24.795026	0.000966	20.712496
906.261553	-3.017000	3.644500	-10.994000	24.822387	0.000967	20.713877
907.261659	-3.053700	3.643600	-11.124000	24.836382	0.000966	20.690936
908.259855	-3.000300	3.644700	-10.934000	24.810145	0.000965	20.716764
909.263266	-3.010800	3.645000	-10.974000	24.771549	0.000966	20.699840
910.265159	-3.001700	3.644200	-10.938000	24.772665	0.000966	20.714238
911.264565	-2.990500	3.644800	-10.899000	24.747477	0.000965	20.697968
912.267857	-3.043700	3.642000	-11.084000	24.754743	0.000963	20.724228
913.264773	-2.984100	3.643300	-10.870000	24.765847	0.000963	20.720672
914.265997	-2.996500	3.642900	-10.915000	24.772584	0.000962	20.704672
915.269836	-2.992900	3.642400	-10.901000	24.753709	0.000962	20.710861
916.266835	-3.013600	3.643400	-10.979000	24.745278	0.000962	20.719945
917.268802	-3.000300	3.642700	-10.928000	24.716855	0.000963	20.726984
918.269177	-2.997000	3.641700	-10.913000	24.699136	0.000961	20.709676
919.266325	-2.993200	3.641600	-10.899000	24.701450	0.000963	20.711998
920.267094	-3.004900	3.642700	-10.944000	24.756699	0.000961	20.703905
921.270227	-3.024200	3.641300	-11.010000	24.766891	0.000961	20.709865
922.268430	-3.003300	3.641000	-10.933000	24.759575	0.000960	20.722913
923.269042	-3.019000	3.640700	-10.991000	24.800461	0.000961	20.715580
924.269265	-3.002500	3.640100	-10.928000	24.807515	0.000958	20.723608
925.269238	-3.017500	3.640200	-10.982000	24.811931	0.000961	20.708124
926.268725	-3.014600	3.639900	-10.972000	24.824459	0.000959	20.733501
927.267658	-3.014800	3.639100	-10.969000	24.786882	0.000959	20.715703
928.270716	-3.004900	3.639500	-10.935000	24.773026	0.000958	20.723609
929.268299	-3.016200	3.639400	-10.976000	24.801871	0.000958	20.729798
930.267205	-3.034500	3.637500	-11.037000	24.811093	0.000958	20.714396
931.267819	-3.020700	3.638800	-10.990000	24.817430	0.000956	20.721231
932.278769	-3.020200	3.637600	-10.984000	24.828615	0.000958	20.732456
933.268839	-2.986200	3.639000	-10.865000	24.831694	0.000957	20.745978
934.268862	-3.004300	3.637800	-10.928000	24.827067	0.000956	20.730429
935.270411	-3.019900	3.637500	-10.983000	24.812266	0.000954	20.726954
936.268239	-2.999400	3.637300	-10.909000	24.795608	0.000956	20.721141
937.267460	-3.004200	3.636100	-10.922000	24.805123	0.000956	20.718836
938.274211	-3.013700	3.635000	-10.954000	24.807510	0.000957	20.722654
939.270497	-2.993000	3.637900	-10.887000	24.813595	0.000955	20.711691
940.270441	-2.998300	3.638200	-10.906000	24.834537	0.000957	20.736978
941.269413	-2.996600	3.635800	-10.894000	24.853330	0.000954	20.719801
942.272396	-3.019400	3.634700	-10.973000	24.902715	0.000953	20.735703
943.271970	-2.991700	3.634300	-10.870000	24.894480	0.000953	20.718902
944.273026	-3.004900	3.633500	-10.916000	24.901070	0.000953	20.730732
945.271804	-3.002800	3.634000	-10.911000	24.918476	0.000952	20.735875
946.272897	-2.995900	3.635900	-10.892000	24.919071	0.000953	20.723194
947.272779	-3.010800	3.633000	-10.938000	24.914119	0.000951	20.749520
948.275583	-2.994000	3.634000	-10.879000	24.916847	0.000953	20.728550
949.272115	-3.014100	3.632200	-10.946000	24.921270	0.000953	20.746740
950.272344	-3.007200	3.633000	-10.923000	24.914167	0.000951	20.743404
951.275595	-2.990500	3.633500	-10.863000	24.919332	0.000952	20.737208
952.272197	-2.994100	3.632700	-10.874000	24.929781	0.000950	20.746274
953.278950	-2.966700	3.633900	-10.780000	24.898643	0.000952	20.747738
954.274968	-2.994200	3.633800	-10.880000	24.862266	0.000948	20.742048
955.273762	-2.990600	3.631700	-10.860000	24.834718	0.000947	20.726253
956.273235	-3.012600	3.631200	-10.937000	24.814948	0.000948	20.750509
957.273498	-3.011800	3.631500	-10.936000	24.846333	0.000949	20.734117
958.272962	-2.999500	3.631700	-10.892000	24.865581	0.000946	20.721666
959.273472	-3.011900	3.631500	-10.936000	24.872464	0.000947	20.743748
960.273725	-3.010300	3.630400	-10.928000	24.859268	0.000946	20.724813
961.274709	-3.027900	3.629900	-10.990000	24.853175	0.000947	20.740036
962.274448	-2.995600	3.629300	-10.871000	24.844826	0.000946	20.733553
963.275117	-3.006300	3.629800	-10.910000	24.912286	0.000947	20.764276
964.273166	-2.992500	3.629400	-10.859000	24.884567	0.000945	20.742145
965.275365	-2.982200	3.630400	-10.824000	24.879020	0.000944	20.756493
966.276561	-2.983800	3.628800	-10.826000	24.925765	0.000944	20.722802
967.272768	-2.989500	3.629200	-10.848000	24.920936	0.000942	20.734550
968.275023	-3.003000	3.627400	-10.892000	24.911838	0.000944	20.748179
969.276220	-2.989000	3.628800	-10.844000	24.920006	0.000941	20.740256
970.278122	-3.011200	3.626600	-10.920000	24.910232	0.000941	20.747516
971.273894	-2.996400	3.627500	-10.868000	24.896931	0.000941	20.744597
972.274638	-2.996600	3.627600	-10.869000	24.880201	0.000942	20.733495
973.274687	-3.015600	3.626500	-10.934000	24.887409	0.000940	20.759697
974.274540	-2.982900	3.626600	-10.817000	24.903749	0.000940	20.742905
975.275443	-3.008700	3.625000	-10.906000	24.894406	0.000938	20.741588
976.275616	-3.006000	3.625200	-10.896000	24.871110	0.000939	20.747605
977.274362	-3.009700	3.625700	-10.912000	24.909849	0.000939	20.752347
978.275056	-2.991100	3.626000	-10.844000	24.890154	0.000938	20.730208
979.276546	-3.003300	3.624100	-10.882000	24.889413	0.000938	20.726144
980.277353	-3.006200	3.623500	-10.892000	24.879247	0.000938	20.742021
981.276150	-2.999600	3.625200	-10.873000	24.884493	0.000938	20.752502
982.276512	-3.006100	3.624100	-10.893000	24.854004	0.000937	20.764577
983.279930	-2.997000	3.623600	-10.859000	24.861938	0.000938	20.753573
984.278862	-2.989000	3.623200	-10.829000	24.916617	0.000938	20.748709
985.276423	-2.972700	3.624300	-10.772000	24.902494	0.000938	20.776259
986.279881	-2.980700	3.623400	-10.799000	24.890487	0.000937	20.753303
987.277173	-3.001400	3.622600	-10.872000	24.915705	0.000939	20.746370
988.276712	-2.992800	3.622700	-10.841000	24.953424	0.000937	20.755306
989.276199	-3.001000	3.621900	-10.868000	24.948944	0.000935	20.778785
990.277146	-2.992500	3.622000	-10.837000	24.954914	0.000936	20.750638
991.278256	-2.987300	3.621700	-10.817000	24.986435	0.000936	20.780854
992.279567	-3.006400	3.620700	-10.885000	24.983730	0.000934	20.752534
993.278318	-3.014400	3.620400	-10.913000	25.000239	0.000933	20.749665
994.282243	-3.015200	3.620500	-10.915000	24.989937	0.000934	20.785317
995.279553	-3.011100	3.620200	-10.899000	25.026090	0.000935	20.750008
996.278545	-2.998900	3.620100	-10.855000	25.034177	0.000936	20.762394
997.283790	-2.981700	3.620000	-10.793000	25.071159	0.000932	20.755895
998.279089	-2.992700	3.619000	-10.828000	25.072959	0.000932	20.767184
999.281420	-2.993800	3.620000	-10.836000	25.078700	0.000931	20.746869
1000.284889	-2.997000	3.620700	-10.849000	25.099907	0.000930	20.747294
1001.281903	-3.001200	3.618800	-10.860000	25.102545	0.000931	20.755158
1002.282489	-2.985900	3.619300	-10.805000	25.126903	0.000932	20.765860
1003.282715	-2.979800	3.617300	-10.777000	25.104353	0.000931	20.756974
1004.280873	-3.002100	3.617300	-10.858000	25.148133	0.000931	20.758249
1005.282947	-3.006300	3.616300	-10.870000	25.143483	0.000929	20.765435
1006.280839	-2.977700	3.618000	-10.771000	25.173165	0.000930	20.753507
1007.281898	-3.009500	3.617300	-10.885000	25.143605	0.000928	20.743746
1008.285431	-3.010000	3.616100	-10.883000	25.128271	0.000929	20.755379
1009.282773	-2.994300	3.617000	-10.829000	25.113832	0.000926	20.747523
1010.283038	-3.012100	3.615800	-10.889000	25.071493	0.000926	20.771403
1011.284806	-3.008500	3.614700	-10.874000	25.099182	0.000926	20.768852
1012.285594	-2.985800	3.614500	-10.791000	25.080093	0.000926	20.756328
1013.284388	-3.001400	3.614400	-10.848000	25.101869	0.000928	20.776292
1014.283496	-2.989800	3.614600	-10.806000	25.089833	0.000925	20.774166
1015.284177	-2.975600	3.616000	-10.758000	25.106470	0.000924	20.762892
1016.284794	-2.981100	3.614100	-10.772000	25.120559	0.000925	20.760914
1017.284106	-2.996300	3.614600	-10.829000	25.093220	0.000924	20.771403
1018.286307	-2.979100	3.615800	-10.770000	25.097293	0.000926	20.775965
1019.289859	-2.999300	3.613700	-10.838000	25.127970	0.000924	20.790639
1020.286301	-2.993200	3.614000	-10.815000	25.092447	0.000926	20.778213
1021.288366	-2.989400	3.612500	-10.797000	25.090305	0.000921	20.770847
1022.289816	-3.015100	3.612400	-10.891000	25.080948	0.000923	20.772360
1023.286854	-3.009600	3.613200	-10.873000	25.099703	0.000924	20.799722
1024.286936	-2.993700	3.612000	-10.812000	25.109036	0.000923	20.753614
1025.295305	-2.999400	3.611400	-10.830000	25.132709	0.000923	20.784966
1026.287222	-3.017000	3.611700	-10.894000	25.153736	0.000921	20.757710
1027.286150	-2.993800	3.610500	-10.808000	25.098564	0.000921	20.767284
1028.288023	-2.987900	3.611000	-10.788000	25.114134	0.000921	20.771060
1029.287403	-3.010900	3.609100	-10.865000	25.111065	0.000923	20.782204
1030.288953	-2.982000	3.611700	-10.769000	25.108630	0.000920	20.783552
1031.286268	-2.998600	3.609400	-10.821000	25.122327	0.000919	20.791139
1032.286902	-3.017300	3.609900	-10.891000	25.147531	0.000921	20.778983
1033.286864	-2.993500	3.610000	-10.806000	25.131815	0.000920	20.792603
1034.287486	-3.000800	3.609500	-10.831000	25.167865	0.000918	20.795603
1035.291009	-3.001600	3.608600	-10.831000	25.137133	0.000918	20.786561
1036.290511	-3.009200	3.608300	-10.857000	25.095299	0.000918	20.767799
1037.288666	-3.012900	3.609000	-10.872000	25.104599	0.000918	20.807955
1038.293386	-3.003600	3.607200	-10.834000	25.055377	0.000918	20.787943
1039.288989	-3.017100	3.608200	-10.886000	25.050695	0.000916	20.793674
1040.290002	-2.971800	3.607900	-10.721000	25.035856	0.000918	20.780201
1041.292572	-3.001900	3.606600	-10.825000	24.995208	0.000916	20.793453
1042.291579	-3.011500	3.606400	-10.860000	24.975001	0.000915	20.772222
1043.290629	-2.983800	3.607900	-10.763000	25.003018	0.000917	20.800818
1044.295231	-3.002900	3.605900	-10.827000	25.015495	0.000915	20.808127
1045.290674	-2.977900	3.608200	-10.743000	25.055426	0.000915	20.804587
1046.291842	-3.001500	3.605600	-10.821000	25.024234	0.000915	20.787027
1047.291813	-3.001300	3.605400	-10.820000	25.051924	0.000913	20.802494
1048.291656	-2.993900	3.605800	-10.795000	25.060801	0.000914	20.809034
1049.295119	-3.012000	3.604200	-10.855000	25.069629	0.000913	20.788498
1050.291602	-3.017600	3.603900	-10.874000	25.089215	0.000913	20.781133
1051.295334	-3.006600	3.604200	-10.834000	25.083009	0.000911	20.798136
1052.295179	-2.994000	3.604600	-10.792000	25.062690	0.000912	20.794810
1053.292965	-2.987100	3.605100	-10.766000	25.038136	0.000912	20.798136
1054.295111	-3.026900	3.602300	-10.901000	25.041540	0.000911	20.813407
1055.295233	-2.997300	3.602500	-10.797000	25.032533	0.000910	20.806263
1056.293349	-2.992000	3.603000	-10.779000	25.054546	0.000909	20.804652
1057.293760	-2.996000	3.602200	-10.791000	25.048576	0.000908	20.792021
1058.292113	-3.002200	3.601900	-10.812000	25.052705	0.000910	20.796166
1059.291392	-3.002700	3.602600	-10.817000	25.078212	0.000908	20.817029
1060.291984	-3.008800	3.601400	-10.835000	25.100241	0.000908	20.795520
1061.301230	-3.002100	3.601200	-10.811000	25.106886	0.000908	20.831588
1062.292089	-2.999300	3.601300	-10.800000	25.091609	0.000906	20.787329
1063.295302	-3.013000	3.600000	-10.845000	25.073171	0.000905	20.795373
1064.295766	-2.988900	3.599000	-10.756000	25.087667	0.000905	20.792381
1065.293963	-2.997200	3.600100	-10.789000	25.081217	0.000903	20.820045
1066.293646	-3.006100	3.599300	-10.817000	25.058545	0.000903	20.824313
1067.301672	-2.992000	3.599400	-10.769000	25.026498	0.000907	20.803050
1068.294154	-2.991300	3.599900	-10.768000	25.045066	0.000903	20.822163
1069.297443	-3.000000	3.597700	-10.791000	25.034902	0.000902	20.804848
1070.295125	-3.003500	3.597400	-10.803000	25.053471	0.000903	20.818746
1071.297527	-2.995700	3.599000	-10.781000	25.045490	0.000902	20.818321
1072.294946	-3.023900	3.596500	-10.874000	25.032541	0.000902	20.802952
1073.295542	-3.025600	3.598000	-10.884000	25.076193	0.000902	20.814527
1074.296449	-3.013500	3.596400	-10.836000	25.042705	0.000900	20.804619
1075.295990	-3.028000	3.596400	-10.888000	25.030570	0.000899	20.819939
1076.306290	-2.999600	3.597000	-10.788000	25.051794	0.000900	20.821330
1077.295514	-3.001800	3.595000	-10.790000	25.044285	0.000900	20.814741
1078.299273	-3.007700	3.596100	-10.815000	25.079760	0.000898	20.806729
1079.294425	-3.004300	3.596600	-10.803000	25.094004	0.000897	20.814389
1080.295509	-3.029500	3.595000	-10.890000	25.113972	0.000897	20.813097
1081.300464	-2.979700	3.595300	-10.712000	25.140072	0.000897	20.820332
1082.295365	-3.008100	3.594000	-10.810000	25.153566	0.000898	20.814438
1083.299013	-2.994800	3.593400	-10.760000	25.160675	0.000897	20.814463
1084.301541	-2.986500	3.594100	-10.733000	25.173004	0.000895	20.836322
1085.298517	-3.011800	3.593400	-10.821000	25.174347	0.000894	20.812542
1086.297437	-3.004600	3.593500	-10.795000	25.185007	0.000894	20.825614
1087.302566	-2.993300	3.594500	-10.758000	25.177890	0.000893	20.830323
1088.297662	-2.986600	3.593600	-10.732000	25.166734	0.000894	20.818649
1089.297044	-3.003600	3.592300	-10.789000	25.190023	0.000894	20.810261
1090.298096	-3.006100	3.592900	-10.800000	25.203923	0.000894	20.808095
1091.300747	-2.986100	3.591300	-10.722000	25.191114	0.000894	20.816572
1092.299402	-3.014500	3.590700	-10.822000	25.192507	0.000893	20.817496
1093.302771	-3.019500	3.590900	-10.841000	25.188753	0.000891	20.813253
1094.304197	-2.990800	3.590700	-10.738000	25.257226	0.000892	20.811349
1095.300927	-3.021500	3.590900	-10.849000	25.260955	0.000891	20.811774
1096.301349	-3.004800	3.591500	-10.791000	25.258374	0.000891	20.805389
1097.303123	-2.987000	3.590300	-10.722000	25.282305	0.000891	20.819459
1098.304148	-3.003300	3.589000	-10.777000	25.301545	0.000893	20.807956
1099.304674	-3.012000	3.590000	-10.812000	25.288737	0.000890	20.812641
1100.304429	-2.967000	3.588700	-10.646000	25.313432	0.000891	20.804245
1101.306069	-3.002200	3.589400	-10.775000	25.278397	0.000889	20.810319
1102.305696	-2.978500	3.589800	-10.691000	25.250362	0.000888	20.809673
1103.303918	-2.998400	3.588300	-10.759000	25.250663	0.000888	20.799070
1104.308702	-3.006100	3.587500	-10.783000	25.270026	0.000887	20.800967
1105.304865	-3.001500	3.588000	-10.769000	25.303972	0.000887	20.803281
1106.304834	-3.005300	3.585800	-10.775000	25.319759	0.000887	20.802537
1107.307557	-3.004700	3.587300	-10.777000	25.335416	0.000886	20.802610
1108.309346	-2.999600	3.587500	-10.759000	25.338819	0.000886	20.806027
1109.307127	-2.991400	3.585700	-10.724000	25.362130	0.000886	20.809044
1110.307776	-3.014000	3.584600	-10.802000	25.364075	0.000884	20.795825
1111.309864	-2.996300	3.586100	-10.744000	25.361584	0.000886	20.793798
1112.307991	-3.006300	3.584900	-10.775000	25.388647	0.000883	20.811963
1113.307539	-2.989000	3.584600	-10.713000	25.381295	0.000884	20.798416
1114.306008	-3.000300	3.584100	-10.752000	25.366404	0.000883	20.796267
1115.308848	-2.993700	3.584800	-10.731000	25.307302	0.000882	20.809943
1116.306410	-2.984800	3.584300	-10.698000	25.315550	0.000882	20.787405
1117.307849	-2.999000	3.584800	-10.749000	25.319059	0.000879	20.777652
1118.310545	-2.989000	3.583800	-10.710000	25.331875	0.000881	20.789572
1119.310368	-3.009800	3.582500	-10.782000	25.362976	0.000880	20.807998
1120.310232	-3.014800	3.583000	-10.802000	25.353328	0.000879	20.797362
1121.308202	-3.014200	3.582400	-10.796000	25.389909	0.000878	20.782884
1122.308811	-3.010100	3.581300	-10.779000	25.403961	0.000879	20.780873
1123.309974	-3.013200	3.580800	-10.789000	25.388965	0.000880	20.789997
1124.315278	-2.983700	3.582400	-10.688000	25.376817	0.000878	20.802929
1125.310231	-2.992800	3.582300	-10.719000	25.354623	0.000877	20.796765
1126.311085	-2.995100	3.581400	-10.726000	25.363791	0.000879	20.776099
1127.312072	-2.999000	3.581600	-10.740000	25.396577	0.000877	20.791476
1128.312351	-3.008800	3.580700	-10.772000	25.389567	0.000877	20.785386
1129.312451	-2.987300	3.581800	-10.699000	25.351667	0.000877	20.780995
1130.310286	-2.980800	3.580300	-10.671000	25.313930	0.000873	20.771553
1131.313417	-3.006600	3.580800	-10.765000	25.288957	0.000876	20.774930
1132.312558	-3.003200	3.580600	-10.752000	25.236064	0.000875	20.768765
1133.313448	-2.993000	3.578900	-10.711000	25.191392	0.000873	20.785083
1134.313830	-3.015500	3.579500	-10.793000	25.174243	0.000876	20.780194
1135.314916	-3.025300	3.577300	-10.821000	25.150424	0.000872	20.756756
1136.313676	-2.985700	3.579100	-10.685000	25.180953	0.000871	20.772232
1137.314466	-2.992600	3.577900	-10.706000	25.224315	0.000872	20.781152
1138.317860	-2.996000	3.576400	-10.713000	25.271371	0.000870	20.763910
1139.314054	-3.017900	3.577700	-10.795000	25.265337	0.000871	20.785827
1140.313514	-2.999800	3.577300	-10.730000	25.330133	0.000869	20.768856
1141.316785	-3.003200	3.575600	-10.736000	25.296400	0.000869	20.757746
1142.316565	-2.996000	3.576600	-10.715000	25.278927	0.000868	20.785721
1143.315779	-3.007000	3.575600	-10.751000	25.240519	0.000867	20.763281
1144.315360	-2.998200	3.574800	-10.717000	25.264637	0.000868	20.768055
1145.318501	-2.990000	3.574900	-10.688000	25.249142	0.000868	20.770516
1146.315138	-3.037000	3.574100	-10.854000	25.214666	0.000866	20.768619
1147.314651	-2.978700	3.574500	-10.647000	25.260501	0.000866	20.771489
1148.318877	-3.026300	3.572500	-10.810000	25.235999	0.000867	20.778658
1149.315988	-2.992100	3.574600	-10.694000	25.245836	0.000866	20.760084
1150.316167	-3.013700	3.573800	-10.770000	25.222898	0.000864	20.743218
1151.323749	-2.988000	3.572900	-10.675000	25.234061	0.000863	20.753952
1152.317560	-2.983100	3.572800	-10.657000	25.239224	0.000863	20.762929
1153.317585	-2.985700	3.572500	-10.666000	25.250901	0.000863	20.751893
1154.323271	-3.007700	3.571600	-10.741000	25.284684	0.000863	20.756414
1155.317738	-2.996700	3.573000	-10.706000	25.324149	0.000863	20.762848
1156.319240	-3.018600	3.570600	-10.777000	25.300821	0.000862	20.768823
1157.323700	-3.002100	3.570700	-10.719000	25.282860	0.000862	20.760273
1158.318752	-2.986700	3.571500	-10.666000	25.274074	0.000863	20.760460
1159.318391	-2.995300	3.570400	-10.694000	25.262292	0.000859	20.760959
1160.321633	-2.989400	3.571100	-10.675000	25.283886	0.000857	20.755613
1161.320429	-2.988600	3.569100	-10.666000	25.280409	0.000860	20.748802
1162.320584	-3.014200	3.568700	-10.756000	25.297435	0.000862	20.753094
1163.325222	-3.005700	3.568500	-10.725000	25.307677	0.000858	20.745835
1164.323623	-3.013400	3.568900	-10.753000	25.339415	0.000859	20.735975
1165.321196	-3.010000	3.568800	-10.741000	25.353036	0.000858	20.733531
1166.328853	-2.985700	3.569700	-10.657000	25.384398	0.000860	20.776876
1167.324809	-2.980700	3.568400	-10.636000	25.372397	0.000858	20.746333
1168.323873	-2.985100	3.569300	-10.654000	25.377014	0.000856	20.732950
1169.328513	-2.986000	3.568900	-10.656000	25.361309	0.000855	20.747527
1170.322142	-3.006400	3.567600	-10.723000	25.337014	0.000857	20.745893
1171.322628	-2.992000	3.566600	-10.670000	25.325558	0.000855	20.733916
1172.331333	-3.002200	3.567200	-10.708000	25.323645	0.000855	20.744797
1173.323359	-2.996500	3.567100	-10.688000	25.326902	0.000855	20.740006
1174.323336	-2.977200	3.567300	-10.618000	25.330728	0.000854	20.751910
1175.325296	-3.005200	3.565300	-10.714000	25.347403	0.000853	20.754902
1176.324844	-3.007000	3.565400	-10.720000	25.354511	0.000853	20.763462
1177.323390	-2.990500	3.566000	-10.664000	25.363508	0.000853	20.772021
1178.325202	-3.032700	3.563800	-10.806000	25.325323	0.000854	20.760707
1179.325706	-3.021200	3.564300	-10.767000	25.285263	0.000852	20.734709
1180.329421	-3.002000	3.564600	-10.700000	25.275704	0.000850	20.745975
1181.328565	-3.004300	3.563600	-10.706000	25.266829	0.000849	20.752238
1182.331801	-3.006000	3.563900	-10.712000	25.254673	0.000850	20.747619
1183.330078	-3.013700	3.562200	-10.734000	25.243566	0.000848	20.728880
1184.329488	-2.980800	3.563700	-10.622000	25.231710	0.000849	20.737841
1185.332297	-2.983700	3.563100	-10.630000	25.256407	0.000849	20.751257
1186.328246	-3.000700	3.563600	-10.691000	25.254861	0.000845	20.748282
1187.330261	-3.008100	3.561500	-10.712000	25.302982	0.000847	20.732111
1188.332477	-3.016900	3.560300	-10.740000	25.294807	0.000846	20.738602
1189.328365	-2.992700	3.561000	-10.656000	25.292544	0.000844	20.750554
1190.329870	-3.006200	3.560800	-10.704000	25.329647	0.000845	20.723796
1191.330237	-2.996000	3.561700	-10.670000	25.340061	0.000845	20.720501
1192.329880	-2.989700	3.560800	-10.645000	25.347030	0.000845	20.734612
1193.332614	-2.990600	3.560400	-10.646000	25.339621	0.000844	20.735233
1194.333683	-2.995100	3.561000	-10.664000	25.296370	0.000845	20.743017
1195.329547	-2.997000	3.560400	-10.669000	25.310342	0.000846	20.725750
1196.330031	-3.002900	3.559600	-10.688000	25.297812	0.000844	20.737825
1197.331254	-3.030800	3.558800	-10.785000	25.298064	0.000844	20.742820
1198.333270	-3.020700	3.558600	-10.748000	25.342332	0.000841	20.733214
1199.335012	-3.000700	3.559000	-10.678000	25.346875	0.000842	20.720231
1200.329839	-3.000200	3.557600	-10.673000	25.346802	0.000841	20.739125
1201.333343	-2.973400	3.557800	-10.578000	25.379679	0.000840	20.718081
1202.335279	-2.971400	3.558500	-10.572000	25.331870	0.000840	20.719389
1203.331522	-2.980800	3.558500	-10.607000	25.312361	0.000838	20.739157
1204.335721	-2.997500	3.556500	-10.660000	25.301923	0.000837	20.713028
1205.331553	-2.996300	3.557300	-10.657000	25.268743	0.000837	20.742305
1206.332261	-2.995300	3.556300	-10.650000	25.290166	0.000838	20.720190
1207.335185	-2.985400	3.557400	-10.619000	25.288056	0.000836	20.736566
1208.331872	-3.016100	3.554100	-10.719000	25.291492	0.000836	20.722945
1209.332712	-3.011600	3.555100	-10.705000	25.320421	0.000836	20.738715
1210.331336	-3.031400	3.553800	-10.772000	25.329027	0.000835	20.713690
1211.335479	-2.983600	3.554400	-10.604000	25.363150	0.000835	20.719977
1212.334325	-3.000200	3.554900	-10.664000	25.392248	0.000835	20.706520
1213.337582	-2.988400	3.554800	-10.622000	25.378016	0.000833	20.710248
1214.335472	-3.029000	3.553400	-10.762000	25.356416	0.000835	20.719854
1215.335658	-2.983300	3.555400	-10.605000	25.366130	0.000836	20.722969
1216.335842	-2.992900	3.553800	-10.635000	25.383984	0.000834	20.727147
1217.336923	-2.997400	3.552900	-10.648000	25.390668	0.000831	20.726272
1218.338060	-3.002400	3.552800	-10.666000	25.391669	0.000833	20.712103
1219.335582	-2.971900	3.551900	-10.554000	25.419228	0.000834	20.720336
1220.340044	-3.014900	3.552600	-10.710000	25.420914	0.000830	20.706855
1221.336023	-3.013500	3.551600	-10.702000	25.428835	0.000829	20.702955
1222.337461	-3.029600	3.550500	-10.756000	25.436251	0.000831	20.733638
1223.343555	-2.983900	3.551800	-10.598000	25.434982	0.000829	20.733311
1224.340296	-3.006600	3.550400	-10.674000	25.424422	0.000829	20.727449
1225.341364	-2.986500	3.550700	-10.603000	25.431008	0.000826	20.718889
1226.340221	-2.991500	3.551500	-10.623000	25.434216	0.000828	20.718317
1227.341882	-3.007600	3.548500	-10.672000	25.448080	0.000828	20.706160
1228.338474	-3.019000	3.547900	-10.710000	25.443481	0.000827	20.718137
1229.342819	-2.988600	3.548700	-10.605000	25.452802	0.000827	20.710427
1230.342875	-3.012300	3.547800	-10.686000	25.447731	0.000827	20.701066
1231.339031	-2.997100	3.549100	-10.636000	25.417665	0.000825	20.697902
1232.344079	-3.026700	3.547700	-10.736000	25.420091	0.000823	20.684690
1233.341341	-2.990500	3.547400	-10.607000	25.449049	0.000825	20.715194
1234.338885	-3.001700	3.547100	-10.646000	25.469003	0.000825	20.715316
1235.338072	-2.997800	3.546500	-10.630000	25.453177	0.000823	20.699897
1236.339925	-3.001900	3.546600	-10.644000	25.426808	0.000823	20.703290
1237.339545	-2.992600	3.546600	-10.613000	25.464964	0.000822	20.720270
1238.340139	-2.985000	3.546500	-10.584000	25.451337	0.000820	20.686669
1239.340158	-2.991900	3.544300	-10.604000	25.402212	0.000820	20.671477
1240.341405	-2.991800	3.545100	-10.604000	25.374474	0.000820	20.701949
1241.341701	-3.011800	3.544600	-10.674000	25.395080	0.000820	20.702251
1242.342711	-3.014600	3.544400	-10.684000	25.423111	0.000819	20.703371
1243.340160	-3.016600	3.544200	-10.690000	25.458794	0.000820	20.719290
1244.341353	-2.982700	3.545400	-10.573000	25.437570	0.000818	20.704614
1245.341985	-2.997700	3.542500	-10.618000	25.422492	0.000819	20.707966
1246.342098	-3.003700	3.542000	-10.637000	25.408766	0.000817	20.705088
1247.343336	-3.008800	3.542900	-10.659000	25.387517	0.000817	20.701769
1248.345585	-3.010700	3.543000	-10.666000	25.409556	0.000816	20.696398
1249.345141	-2.999000	3.543400	-10.625000	25.436545	0.000818	20.695523
1250.345807	-2.995000	3.542200	-10.608000	25.456328	0.000817	20.695948
1251.349031	-2.996000	3.542500	-10.613000	25.473578	0.000816	20.694305
1252.347455	-2.994300	3.542600	-10.607000	25.450393	0.000814	20.707059
1253.347129	-3.003700	3.541300	-10.635000	25.501998	0.000814	20.719527
1254.347049	-2.998700	3.541200	-10.618000	25.502397	0.000813	20.689580
1255.348258	-2.993800	3.540800	-10.600000	25.523619	0.000814	20.700936
1256.347873	-3.021000	3.540900	-10.696000	25.502544	0.000812	20.711540
1257.351066	-2.984400	3.539600	-10.562000	25.484154	0.000813	20.693545
1258.349191	-2.990400	3.539300	-10.583000	25.470591	0.000813	20.680872
1259.349107	-3.008400	3.539400	-10.647000	25.456198	0.000811	20.697715
1260.354017	-3.031900	3.537200	-10.723000	25.457313	0.000812	20.702628
1261.351593	-3.004600	3.539200	-10.632000	25.433175	0.000811	20.704942
1262.351789	-3.007500	3.538400	-10.641000	25.444613	0.000809	20.702203
1263.351780	-3.004000	3.538400	-10.629000	25.481614	0.000810	20.678191
1264.351751	-2.986700	3.538200	-10.567000	25.511727	0.000809	20.712227
1265.365073	-3.003900	3.537300	-10.624000	25.505483	0.000807	20.713070
1266.351635	-2.998400	3.537100	-10.605000	25.499272	0.000807	20.692131
1267.355607	-3.018900	3.535800	-10.674000	25.464608	0.000807	20.699996
1268.352414	-3.003800	3.535600	-10.619000	25.446780	0.000807	20.688731
1269.352451	-2.987600	3.536300	-10.564000	25.388024	0.000804	20.697536
1270.355834	-2.995000	3.536600	-10.591000	25.406342	0.000804	20.690799
1271.357262	-2.986400	3.536000	-10.559000	25.386086	0.000804	20.686106
1272.355479	-2.999700	3.535200	-10.602000	25.387838	0.000805	20.688339
1273.358786	-3.004100	3.533300	-10.613000	25.400563	0.000805	20.690211
1274.357236	-3.000300	3.534500	-10.604000	25.444607	0.000803	20.677539
1275.361930	-3.007200	3.533200	-10.624000	25.469054	0.000802	20.683597
1276.357734	-3.008200	3.533300	-10.627000	25.495358	0.000801	20.685830
1277.362038	-3.005200	3.532900	-10.616000	25.490718	0.000803	20.695870
1278.364030	-3.009400	3.533100	-10.631000	25.544780	0.000803	20.695633
1279.357725	-3.007500	3.533100	-10.625000	25.565781	0.000804	20.694439
1280.365879	-3.012300	3.531500	-10.636000	25.517664	0.000801	20.683100
1281.360037	-3.010400	3.531700	-10.632000	25.519560	0.000799	20.689272
1282.361351	-3.008200	3.529900	-10.618000	25.519178	0.000803	20.694579
1283.364079	-3.001600	3.530700	-10.596000	25.526229	0.000801	20.669414
1284.364568	-2.984300	3.531500	-10.538000	25.526229	0.000799	20.688382
1285.360663	-2.978900	3.531800	-10.520000	25.555550	0.000798	20.694121
1286.363068	-3.000100	3.529900	-10.589000	25.578481	0.000798	20.698659
1287.361194	-3.035200	3.528700	-10.707000	25.594876	0.000796	20.691416
1288.362371	-3.006300	3.530100	-10.611000	25.584164	0.000796	20.673069
1289.362459	-2.986400	3.530100	-10.541000	25.555469	0.000795	20.693566
1290.362518	-3.007500	3.527600	-10.606000	25.537496	0.000796	20.691637
1291.364241	-3.016000	3.527300	-10.637000	25.520751	0.000794	20.693313
1292.363814	-3.013700	3.527500	-10.630000	25.486780	0.000794	20.690966
1293.365048	-3.002100	3.529100	-10.594000	25.470417	0.000793	20.686388
1294.363928	-3.000200	3.527800	-10.583000	25.440629	0.000794	20.686821
1295.366449	-2.975400	3.528800	-10.499000	25.462667	0.000793	20.689986
1296.371389	-2.990700	3.527200	-10.547000	25.482596	0.000792	20.715690
1297.365256	-3.016500	3.525700	-10.635000	25.490077	0.000792	20.678155
1298.366777	-3.013500	3.526700	-10.627000	25.464051	0.000792	20.697540
1299.369634	-2.993300	3.526100	-10.554000	25.481725	0.000790	20.695848
1300.367603	-3.002300	3.526600	-10.586000	25.500107	0.000793	20.689651
1301.370421	-3.009600	3.524400	-10.606000	25.517389	0.000789	20.708430
1302.367759	-3.008000	3.525700	-10.604000	25.529332	0.000788	20.693395
1303.370766	-3.010600	3.524900	-10.611000	25.520483	0.000789	20.685457
1304.371704	-3.010300	3.525200	-10.611000	25.518766	0.000786	20.702226
1305.369071	-2.988900	3.526200	-10.538000	25.531066	0.000788	20.691344
1306.370160	-3.033200	3.522600	-10.683000	25.535381	0.000786	20.697100
1307.367703	-3.011000	3.522100	-10.604000	25.519206	0.000787	20.697451
1308.369928	-3.008800	3.523000	-10.599000	25.536024	0.000786	20.686839
1309.371681	-3.011600	3.522700	-10.608000	25.534583	0.000784	20.679228
1310.369843	-3.002500	3.522300	-10.575000	25.579233	0.000783	20.715537
1311.368405	-2.986600	3.524800	-10.524000	25.551328	0.000783	20.690355
1312.367215	-3.005100	3.521200	-10.581000	25.537832	0.000782	20.709994
1313.372530	-3.004500	3.522000	-10.581000	25.542969	0.000782	20.707566
1314.369084	-3.021300	3.521000	-10.637000	25.558452	0.000783	20.701303
1315.368200	-3.011000	3.519600	-10.595000	25.548211	0.000782	20.711409
1316.370067	-3.018400	3.520200	-10.624000	25.496299	0.000782	20.706217
1317.369604	-2.982900	3.519700	-10.497000	25.524849	0.000782	20.695057
1318.369199	-2.989500	3.519900	-10.521000	25.518368	0.000781	20.689972
1319.372381	-3.015300	3.519500	-10.612000	25.528601	0.000782	20.705939
1320.390503	-2.998900	3.519200	-10.553000	25.551386	0.000781	20.703691
1321.371236	-2.994900	3.519400	-10.539000	25.535732	0.000777	20.711204
1322.376366	-3.020700	3.517600	-10.624000	25.547235	0.000778	20.704738
1323.370841	-3.001500	3.518400	-10.560000	25.550613	0.000777	20.700544
1324.370473	-3.015200	3.518200	-10.606000	25.526079	0.000778	20.686335
1325.371125	-3.017500	3.516200	-10.609000	25.476730	0.000779	20.698892
1326.372072	-3.015600	3.516000	-10.602000	25.436839	0.000778	20.704828
1327.373092	-2.995700	3.518100	-10.538000	25.419172	0.000778	20.690406
1328.372983	-2.989900	3.517100	-10.513000	25.391165	0.000775	20.707804
1329.379417	-3.000600	3.516000	-10.548000	25.388829	0.000775	20.695973
1330.376589	-3.003600	3.516400	-10.561000	25.375729	0.000776	20.707951
1331.374194	-2.995600	3.514900	-10.529000	25.417511	0.000773	20.700118
1332.388297	-3.020100	3.514300	-10.613000	25.403288	0.000773	20.706700
1333.377157	-2.977200	3.514600	-10.463000	25.433867	0.000774	20.702318
1334.373879	-2.992800	3.514300	-10.517000	25.434160	0.000772	20.713993
1335.378977	-3.017700	3.513700	-10.602000	25.478667	0.000772	20.711270
1336.376424	-2.989900	3.514300	-10.506000	25.508585	0.000773	20.720452
1337.375525	-2.990100	3.512600	-10.501000	25.534406	0.000772	20.682843
1338.379011	-3.010700	3.511800	-10.572000	25.561489	0.000770	20.683489
1339.380173	-2.987300	3.512800	-10.492000	25.598893	0.000773	20.708253
1340.379096	-2.991900	3.513400	-10.511000	25.590720	0.000771	20.691984
1341.381678	-3.013900	3.511300	-10.582000	25.616434	0.000768	20.705956
1342.382786	-2.983000	3.512800	-10.477000	25.617517	0.000770	20.698034
1343.380930	-3.010800	3.511300	-10.571000	25.595857	0.000769	20.711369
1344.380750	-2.991000	3.511500	-10.502000	25.606488	0.000769	20.715408
1345.380554	-3.000000	3.510800	-10.531000	25.628684	0.000766	20.726322
1346.380718	-2.971400	3.511800	-10.433000	25.633983	0.000768	20.701770
1347.383302	-2.996500	3.509000	-10.513000	25.680110	0.000766	20.696890
1348.380634	-2.999500	3.509100	-10.525000	25.686776	0.000766	20.711646
1349.380402	-3.001900	3.508700	-10.533000	25.689340	0.000765	20.697151
1350.379780	-2.993300	3.509500	-10.504000	25.650027	0.000766	20.684217
1351.379737	-3.016400	3.507100	-10.577000	25.640194	0.000764	20.707534
1352.380136	-3.015500	3.507500	-10.575000	25.600016	0.000764	20.702743
1353.380457	-2.981500	3.508400	-10.459000	25.551166	0.000764	20.717696
1354.382541	-3.015400	3.507200	-10.575000	25.524881	0.000763	20.731128
1355.383063	-3.020400	3.506100	-10.589000	25.484593	0.000761	20.705841
1356.379496	-3.001100	3.506200	-10.522000	25.490039	0.000761	20.718423
1357.389104	-2.992600	3.505800	-10.491000	25.497170	0.000762	20.716575
1358.381668	-3.010800	3.505000	-10.551000	25.539045	0.000761	20.717377
1359.381401	-3.012900	3.504200	-10.556000	25.560511	0.000760	20.710485
1360.385283	-3.007800	3.503100	-10.535000	25.588944	0.000759	20.728135
1361.383931	-2.991000	3.505500	-10.484000	25.647616	0.000760	20.720679
1362.386678	-3.000200	3.504200	-10.512000	25.643815	0.000758	20.708326
1363.381914	-3.017100	3.502000	-10.565000	25.610841	0.000761	20.738273
1364.382088	-3.002700	3.503900	-10.520000	25.577100	0.000758	20.715765
1365.381877	-2.994400	3.503700	-10.489000	25.511871	0.000757	20.683446
1366.382226	-2.982500	3.503600	-10.448000	25.484591	0.000759	20.723384
1367.380167	-2.984200	3.501800	-10.449000	25.476858	0.000757	20.710402
1368.386762	-3.001900	3.502500	-10.513000	25.428272	0.000754	20.709503
1369.382487	-3.010300	3.501500	-10.540000	25.414212	0.000756	20.725257
1370.382467	-3.033300	3.500400	-10.617000	25.438864	0.000754	20.716819
1371.386114	-3.007100	3.501200	-10.528000	25.456310	0.000755	20.721537
1372.382498	-3.002800	3.500700	-10.510000	25.471102	0.000755	20.711734
1373.381387	-3.001800	3.500900	-10.508000	25.490811	0.000752	20.705447
1374.382005	-3.002300	3.500900	-10.509000	25.500660	0.000753	20.723400
1375.383476	-3.022900	3.497800	-10.571000	25.487408	0.000752	20.728584
1376.384648	-2.998900	3.500400	-10.497000	25.531945	0.000752	20.719729
1377.381032	-3.009500	3.500000	-10.532000	25.539678	0.000751	20.720383
1378.382705	-3.021400	3.497400	-10.566000	25.549023	0.000753	20.716965
1379.383545	-2.988000	3.498900	-10.452000	25.574193	0.000752	20.719009
1380.389035	-2.968300	3.499300	-10.386000	25.589528	0.000750	20.731093
1381.388038	-2.998500	3.499200	-10.491000	25.582569	0.000749	20.725999
1382.381448	-3.008300	3.496700	-10.518000	25.592190	0.000751	20.712428
1383.385917	-2.976700	3.496800	-10.408000	25.613533	0.000748	20.739554
1384.382059	-2.994500	3.496800	-10.471000	25.587363	0.000750	20.745989
1385.386066	-2.987500	3.496400	-10.445000	25.544561	0.000750	20.722917
1386.386447	-2.979500	3.497200	-10.419000	25.542787	0.000746	20.729670
1387.384962	-2.995600	3.494300	-10.466000	25.580142	0.000745	20.751539
1388.384910	-2.989200	3.496800	-10.452000	25.584579	0.000746	20.732761
1389.385354	-2.986500	3.495600	-10.438000	25.577904	0.000747	20.712305
1390.386042	-2.997800	3.494300	-10.473000	25.608893	0.000746	20.726359
1391.388251	-3.009000	3.493000	-10.507000	25.626084	0.000744	20.730348
1392.384676	-2.979900	3.493300	-10.408000	25.652082	0.000744	20.709517
1393.388439	-3.000700	3.493200	-10.481000	25.671877	0.000742	20.726081
1394.387014	-3.003000	3.494000	-10.491000	25.681197	0.000745	20.722639
1395.385094	-2.989100	3.494500	-10.445000	25.683834	0.000744	20.740935
1396.389342	-3.002900	3.492200	-10.486000	25.691729	0.000743	20.732270
1397.385358	-2.995700	3.492500	-10.461000	25.697768	0.000743	20.745448
1398.389256	-3.005400	3.491500	-10.491000	25.712077	0.000740	20.741328
1399.388422	-2.990900	3.491600	-10.442000	25.725352	0.000740	20.739962
1400.387174	-3.001600	3.491000	-10.478000	25.717847	0.000741	20.722941
1401.389091	-2.980100	3.491900	-10.405000	25.715470	0.000741	20.744262
1402.391347	-3.011700	3.489000	-10.506000	25.707511	0.000740	20.759976
1403.389002	-2.972900	3.489300	-10.373000	25.703001	0.000738	20.743592
1404.391141	-3.008500	3.490400	-10.500000	25.684037	0.000739	20.750623
1405.389917	-2.995900	3.490200	-10.455000	25.664486	0.000737	20.740943
1406.390204	-2.985200	3.489100	-10.414000	25.641280	0.000738	20.725696
1407.393238	-3.016400	3.489000	-10.524000	25.683890	0.000737	20.732457
1408.390943	-2.995400	3.488200	-10.447000	25.715389	0.000736	20.744655
1409.394235	-3.018300	3.487000	-10.524000	25.745487	0.000735	20.735057
1410.392691	-2.996400	3.487400	-10.448000	25.743021	0.000735	20.729260
1411.392055	-2.995600	3.488700	-10.450000	25.772198	0.000736	20.740076
1412.395146	-2.982700	3.487200	-10.401000	25.783974	0.000734	20.738155
1413.396584	-2.991100	3.486600	-10.427000	25.756946	0.000736	20.721910
1414.393775	-2.982800	3.486600	-10.399000	25.738609	0.000734	20.748538
1415.394209	-2.993900	3.485900	-10.436000	25.711799	0.000734	20.755274
1416.393986	-3.001600	3.484700	-10.459000	25.713394	0.000732	20.736013
1417.393290	-3.000000	3.484000	-10.451000	25.695423	0.000733	20.761586
1418.396537	-2.994400	3.484100	-10.433000	25.682286	0.000730	20.744123
1419.393017	-2.994500	3.484600	-10.434000	25.680503	0.000732	20.744703
1420.394339	-2.981700	3.484800	-10.390000	25.685909	0.000734	20.747287
1421.396273	-3.001700	3.483600	-10.455000	25.701495	0.000733	20.743975
1422.393977	-2.991000	3.483400	-10.418000	25.737282	0.000730	20.749101
1423.395907	-2.997900	3.482300	-10.439000	25.750410	0.000730	20.740951
1424.393381	-2.996000	3.481800	-10.430000	25.773646	0.000730	20.758601
1425.399630	-2.986400	3.481400	-10.395000	25.759582	0.000727	20.763915
1426.393763	-3.025700	3.480200	-10.529000	25.740456	0.000728	20.758454
1427.395839	-2.991000	3.480400	-10.410000	25.711758	0.000729	20.762345
1428.399787	-3.004900	3.479900	-10.456000	25.723088	0.000728	20.744801
1429.396036	-3.014700	3.479400	-10.488000	25.704555	0.000727	20.750842
1430.395239	-2.992600	3.480600	-10.414000	25.708087	0.000726	20.745381
1431.395147	-2.993200	3.479700	-10.414000	25.721899	0.000725	20.745030
1432.395749	-2.981600	3.480500	-10.376000	25.729672	0.000728	20.775597
1433.396937	-3.024300	3.478000	-10.517000	25.753177	0.000725	20.753688
1434.404244	-3.013500	3.478800	-10.483000	25.753153	0.000725	20.744180
1435.397046	-2.960800	3.478900	-10.299000	25.727084	0.000725	20.763040
1436.398087	-2.971800	3.477300	-10.333000	25.714314	0.000723	20.749265
1437.400696	-3.021300	3.476000	-10.501000	25.716731	0.000724	20.750270
1438.401745	-2.996600	3.476400	-10.417000	25.697816	0.000723	20.763515
1439.404572	-3.002300	3.476300	-10.436000	25.706582	0.000721	20.778484
1440.399999	-2.997100	3.476200	-10.418000	25.725912	0.000721	20.758070
1441.401194	-3.004700	3.475600	-10.443000	25.742312	0.000720	20.778811
1442.402639	-3.018400	3.475400	-10.488000	25.766208	0.000721	20.765829
1443.401970	-3.006800	3.474800	-10.446000	25.781085	0.000720	20.762281
1444.404071	-3.001000	3.474500	-10.426000	25.826107	0.000722	20.762460
1445.405184	-3.003000	3.472800	-10.428000	25.776446	0.000720	20.769475
1446.403754	-3.007800	3.473200	-10.446000	25.765142	0.000719	20.756697
1447.405016	-2.993000	3.474000	-10.396000	25.734499	0.000720	20.761480
1448.403103	-3.007000	3.472900	-10.442000	25.720646	0.000717	20.767954
1449.403512	-2.977600	3.473800	-10.342000	25.722454	0.000717	20.759338
1450.405766	-2.975100	3.473800	-10.333000	25.747448	0.000718	20.783970
1451.406306	-2.992200	3.471200	-10.386000	25.770481	0.000716	20.763956
1452.404026	-2.985600	3.472200	-10.366000	25.836491	0.000717	20.763409
1453.405075	-2.997400	3.471000	-10.403000	25.847966	0.000715	20.765927
1454.408349	-3.001400	3.472000	-10.420000	25.872486	0.000715	20.778231
1455.405157	-3.006300	3.469600	-10.430000	25.877832	0.000717	20.774592
1456.405094	-2.998000	3.469700	-10.400000	25.858602	0.000716	20.763809
1457.409987	-2.998400	3.470100	-10.404000	25.826978	0.000715	20.785147
1458.406623	-2.994800	3.469600	-10.389000	25.791608	0.000714	20.773325
1459.407092	-3.005700	3.469000	-10.425000	25.800268	0.000715	20.754996
1460.409336	-3.007100	3.469200	-10.431000	25.784975	0.000714	20.757179
1461.409702	-3.025500	3.467900	-10.491000	25.798762	0.000715	20.772450
1462.409814	-3.013900	3.468700	-10.454000	25.763782	0.000714	20.782358
1463.409706	-3.001000	3.469600	-10.410000	25.750785	0.000713	20.765035
1464.411246	-3.011800	3.467100	-10.441000	25.765670	0.000712	20.775246
1465.411038	-3.024400	3.465700	-10.480000	25.771579	0.000712	20.767905
1466.411230	-2.985400	3.467100	-10.350000	25.765125	0.000710	20.790345
1467.409619	-3.027600	3.465400	-10.491000	25.773923	0.000710	20.787329
1468.414194	-2.992700	3.466100	-10.372000	25.770187	0.000711	20.777413
1469.409418	-3.027800	3.464500	-10.489000	25.798135	0.000711	20.780356
1470.409146	-3.006900	3.465000	-10.417000	25.807958	0.000712	20.799706
1471.415106	-3.000600	3.463900	-10.392000	25.819506	0.000709	20.778115
1472.411618	-3.015700	3.463800	-10.445000	25.805223	0.000710	20.778467
1473.410388	-3.019100	3.464300	-10.458000	25.827954	0.000710	20.803197
1474.412218	-2.997800	3.463300	-10.382000	25.852344	0.000708	20.775541
1475.411225	-3.009200	3.461800	-10.417000	25.848145	0.000708	20.782702
1476.411805	-3.008700	3.462600	-10.416000	25.824845	0.000707	20.788220
1477.416861	-3.004000	3.461500	-10.397000	25.804223	0.000708	20.798799
1478.414376	-2.989200	3.464200	-10.353000	25.774257	0.000707	20.789561
1479.415052	-3.016000	3.460500	-10.436000	25.734499	0.000706	20.794671
1480.412871	-2.994100	3.460300	-10.360000	25.715446	0.000706	20.792128
1481.414725	-2.987000	3.461400	-10.337000	25.724261	0.000707	20.791499
1482.416341	-2.989300	3.460300	-10.343000	25.716781	0.000708	20.781141
1483.414252	-2.990100	3.459900	-10.344000	25.735419	0.000706	20.806500
1484.415102	-2.987100	3.459200	-10.332000	25.727875	0.000704	20.787069
1485.413702	-2.993800	3.459100	-10.355000	25.773461	0.000705	20.787339
1486.414460	-2.985300	3.460200	-10.328000	25.773884	0.000704	20.790609
1487.415595	-2.990600	3.457900	-10.340000	25.775813	0.000704	20.798237
1488.414312	-3.028900	3.457300	-10.470000	25.811062	0.000700	20.812307
1489.418217	-3.038100	3.456500	-10.500000	25.803338	0.000705	20.801229
1490.419065	-3.024800	3.457300	-10.456000	25.840596	0.000703	20.796930
1491.416668	-2.997400	3.456700	-10.360000	25.836063	0.000701	20.804705
1492.418594	-3.010200	3.456600	-10.404000	25.797707	0.000700	20.809798
1493.418312	-3.021800	3.455200	-10.440000	25.778143	0.000701	20.803422
1494.419523	-2.986300	3.454900	-10.316000	25.750317	0.000700	20.811033
1495.419288	-2.993900	3.455900	-10.345000	25.792451	0.000701	20.808785
1496.419888	-2.997900	3.454900	-10.356000	25.812195	0.000698	20.813919
1497.418147	-3.012700	3.454300	-10.406000	25.850819	0.000698	20.794872
1498.424888	-3.007500	3.454500	-10.387000	25.850770	0.000698	20.820901
1499.420877	-2.988200	3.455400	-10.324000	25.874094	0.000697	20.811140
1500.419967	-2.984800	3.452400	-10.303000	25.874639	0.000697	20.820697
1501.418258	-3.002500	3.452200	-10.364000	25.877732	0.000696	20.806261
1502.418428	-3.020000	3.452200	-10.425000	25.875397	0.000695	20.820510
1503.419607	-3.000400	3.452600	-10.358000	25.879474	0.000695	20.820812
1504.421980	-2.980200	3.452200	-10.286000	25.873614	0.000695	20.823460
1505.419734	-2.994000	3.450100	-10.329000	25.850283	0.000692	20.809032
1506.428704	-3.001500	3.450200	-10.355000	25.864737	0.000694	20.815490
1507.419913	-2.988000	3.451700	-10.313000	25.873648	0.000693	20.802632
1508.421900	-3.008400	3.450800	-10.380000	25.884284	0.000693	20.818532
1509.420506	-2.994500	3.450600	-10.332000	25.861083	0.000692	20.820829
1510.419971	-2.981900	3.450600	-10.288000	25.834520	0.000692	20.831604
1511.420115	-3.005200	3.450200	-10.367000	25.828066	0.000692	20.825595
1512.424069	-2.989500	3.449900	-10.313000	25.825511	0.000691	20.822554
1513.420590	-2.988400	3.450000	-10.308000	25.814329	0.000690	20.824597
1514.423618	-3.009300	3.448600	-10.377000	25.784843	0.000688	20.835282
1515.420001	-2.988200	3.447700	-10.302000	25.788270	0.000690	20.848206
1516.425547	-3.022100	3.446100	-10.414000	25.765018	0.000689	20.834333
1517.425259	-2.989400	3.447900	-10.305000	25.726236	0.000690	20.825725
1518.420270	-3.009600	3.446000	-10.369000	25.714980	0.000688	20.825325
1519.423461	-3.002400	3.446600	-10.347000	25.727677	0.000689	20.843293
1520.420504	-2.992000	3.446300	-10.309000	25.749594	0.000688	20.816471
1521.420914	-2.996200	3.445300	-10.322000	25.789449	0.000686	20.813830
1522.419705	-2.998600	3.445500	-10.331000	25.788920	0.000686	20.848386
1523.421093	-2.971700	3.445500	-10.237000	25.819260	0.000686	20.839033
1524.419194	-2.983000	3.444300	-10.273000	25.841990	0.000688	20.826779
1525.424366	-2.993900	3.445000	-10.313000	25.880800	0.000687	20.821196
1526.425780	-2.988000	3.444700	-10.292000	25.863343	0.000684	20.834953
1527.420659	-3.006700	3.442900	-10.350000	25.861326	0.000684	20.826762
1528.421857	-2.991400	3.442900	-10.298000	25.833330	0.000684	20.847003
1529.423389	-3.002400	3.442400	-10.334000	25.847246	0.000684	20.829215
1530.423205	-2.980400	3.442400	-10.258000	25.855222	0.000683	20.853346
1531.421817	-2.998100	3.441600	-10.316000	25.888261	0.000683	20.824424
1532.423615	-3.020900	3.439700	-10.389000	25.882898	0.000683	20.831364
1533.423184	-3.004700	3.441800	-10.341000	25.894153	0.000681	20.838403
1534.422199	-3.024700	3.439700	-10.402000	25.902274	0.000682	20.809578
1535.423449	-3.008000	3.440100	-10.347000	25.911372	0.000681	20.830571
1536.422700	-3.024500	3.439600	-10.402000	25.938673	0.000680	20.850411
1537.422803	-2.990800	3.440100	-10.287000	25.950937	0.000681	20.830964
1538.424795	-3.016100	3.439100	-10.372000	25.965526	0.000680	20.824284
1539.424342	-2.999400	3.439800	-10.316000	25.952832	0.000680	20.827652
1540.423742	-3.000300	3.439400	-10.318000	25.938365	0.000679	20.838248
1541.426390	-2.994700	3.437500	-10.293000	25.886748	0.000678	20.802515
1542.425806	-2.999300	3.437800	-10.309000	25.909452	0.000677	20.819633
1543.427365	-3.004600	3.436600	-10.325000	25.902893	0.000677	20.819683
1544.425675	-3.015800	3.435600	-10.360000	25.916116	0.000675	20.825854
1545.425685	-3.011300	3.436600	-10.347000	25.909826	0.000675	20.807682
1546.432253	-2.991400	3.437700	-10.282000	25.932440	0.000674	20.818546
1547.427068	-3.009000	3.435700	-10.337000	25.953451	0.000679	20.808834
1548.427882	-2.994700	3.435900	-10.288000	25.959464	0.000676	20.823884
1549.425322	-3.000200	3.435100	-10.305000	25.950440	0.000674	20.839474
1550.427378	-3.008600	3.434200	-10.332000	25.928884	0.000673	20.833465
1551.435230	-3.013200	3.433600	-10.344000	25.900296	0.000672	20.820393
1552.428174	-2.983300	3.434400	-10.245000	25.877959	0.000673	20.826402
1553.430326	-3.000400	3.434300	-10.303000	25.862610	0.000670	20.822363
1554.426272	-3.002000	3.432500	-10.304000	25.866858	0.000671	20.809087
1555.426476	-3.006300	3.433400	-10.320000	25.885445	0.000669	20.804051
1556.427754	-2.995500	3.432800	-10.281000	25.888106	0.000669	20.806724
1557.435094	-2.992000	3.433800	-10.272000	25.898392	0.000670	20.803307
1558.430212	-3.011400	3.432400	-10.336000	25.905870	0.000669	20.807975
1559.434403	-2.998300	3.431400	-10.288000	25.886421	0.000670	20.808351
1560.432892	-3.005500	3.430400	-10.309000	25.878649	0.000670	20.799121
1561.431179	-3.002900	3.431200	-10.303000	25.850385	0.000670	20.823833
1562.432977	-3.020300	3.429400	-10.356000	25.891872	0.000669	20.809560
1563.434100	-2.998800	3.431400	-10.288000	25.921713	0.000668	20.808717
1564.431136	-3.006400	3.430000	-10.310000	25.903053	0.000666	20.802300
1565.431135	-2.991400	3.430200	-10.260000	25.920874	0.000665	20.820203
1566.431077	-3.018000	3.428700	-10.347000	25.939134	0.000666	20.794451
1567.431894	-3.009400	3.428600	-10.317000	25.940599	0.000667	20.799242
1568.435149	-2.984400	3.429900	-10.236000	25.974913	0.000663	20.799577
1569.433346	-3.000100	3.426800	-10.279000	25.960405	0.000666	20.805863
1570.433162	-3.003900	3.427100	-10.293000	25.936636	0.000666	20.791467
1571.431384	-2.992700	3.426300	-10.253000	25.862013	0.000665	20.785254
1572.431662	-3.012900	3.426400	-10.321000	25.846982	0.000664	20.807613
1573.434525	-3.006100	3.426300	-10.298000	25.885792	0.000662	20.812460
1574.433846	-3.032400	3.424700	-10.384000	25.866660	0.000662	20.801301
1575.435530	-2.995200	3.427600	-10.266000	25.839039	0.000661	20.792047
1576.432347	-3.036000	3.423500	-10.391000	25.828834	0.000661	20.785114
1577.433685	-3.027000	3.424000	-10.363000	25.849284	0.000661	20.787166
1578.436314	-3.020300	3.422800	-10.337000	25.813061	0.000661	20.793453
1579.433774	-3.031800	3.424000	-10.380000	25.814827	0.000661	20.801391
1580.433127	-2.998500	3.423300	-10.264000	25.799267	0.000659	20.773906
1581.433106	-3.016700	3.421800	-10.322000	25.826554	0.000660	20.798472
1582.434358	-3.005500	3.424600	-10.291000	25.821712	0.000659	20.795030
1583.437209	-2.982500	3.423600	-10.210000	25.812142	0.000658	20.809124
1584.435778	-2.994200	3.423900	-10.251000	25.790216	0.000656	20.796583
1585.433718	-2.987900	3.422300	-10.225000	25.764856	0.000656	20.787230
1586.433888	-2.997500	3.421700	-10.254000	25.740351	0.000657	20.795807
1587.434381	-2.988800	3.421000	-10.223000	25.731430	0.000655	20.807709
1588.435945	-2.979100	3.423200	-10.197000	25.724626	0.000655	20.782383
1589.438020	-3.011000	3.420200	-10.297000	25.697953	0.000654	20.787835
1590.439459	-3.017800	3.420100	-10.320000	25.707265	0.000656	20.787705
1591.439881	-3.013400	3.420500	-10.307000	25.714924	0.000655	20.788759
1592.437675	-3.004400	3.420500	-10.276000	25.769763	0.000654	20.769874
1593.437392	-2.987700	3.419400	-10.216000	25.802382	0.000652	20.783199
1594.441803	-2.993800	3.418800	-10.234000	25.818529	0.000654	20.784246
1595.440823	-3.013400	3.417900	-10.298000	25.851952	0.000653	20.785578
1596.442089	-2.992900	3.418800	-10.231000	25.872028	0.000651	20.785357
1597.439575	-3.016900	3.417700	-10.310000	25.887009	0.000652	20.785234
1598.439764	-3.034800	3.415300	-10.364000	25.870099	0.000650	20.792428
1599.438853	-3.007400	3.416300	-10.273000	25.832883	0.000650	20.781596
1600.443432	-2.993500	3.416900	-10.228000	25.821636	0.000650	20.774565
1601.443274	-2.994900	3.416300	-10.230000	25.827203	0.000650	20.763561
1602.442125	-3.009000	3.416000	-10.277000	25.836146	0.000649	20.772071
1603.442690	-3.008000	3.415400	-10.273000	25.840004	0.000649	20.791593
1604.442719	-2.990100	3.415300	-10.212000	25.831385	0.000647	20.770608
1605.448299	-3.004000	3.414100	-10.255000	25.847962	0.000649	20.780148
1606.443175	-2.985800	3.415800	-10.197000	25.820536	0.000648	20.771564
1607.445919	-2.988900	3.414000	-10.203000	25.819348	0.000647	20.781276
1608.445263	-3.001900	3.413800	-10.247000	25.837634	0.000645	20.768825
1609.445615	-2.984800	3.415100	-10.193000	25.843380	0.000645	20.762268
1610.446273	-3.035600	3.412700	-10.358000	25.837243	0.000645	20.764164
1611.446619	-2.988700	3.413500	-10.200000	25.866516	0.000646	20.776500
1612.447165	-2.986800	3.413000	-10.193000	25.888878	0.000646	20.783318
1613.448897	-3.009300	3.413000	-10.269000	25.922193	0.000647	20.776958
1614.449475	-2.983500	3.411900	-10.179000	25.943139	0.000643	20.755800
1615.452044	-2.987700	3.412100	-10.193000	25.917807	0.000644	20.764016
1616.450805	-3.002800	3.410800	-10.241000	25.942545	0.000643	20.772273
1617.450341	-2.989500	3.411100	-10.197000	25.948615	0.000640	20.769362
1618.450615	-2.994300	3.410800	-10.212000	25.917318	0.000642	20.755938
1619.450607	-3.008700	3.408200	-10.252000	25.928995	0.000642	20.761506
1620.449561	-2.996100	3.409300	-10.214000	25.923315	0.000640	20.756273
1621.455945	-3.011600	3.408300	-10.263000	25.957118	0.000641	20.785017
1622.451327	-2.998900	3.408700	-10.220000	25.991480	0.000640	20.753632
1623.449679	-3.000500	3.408300	-10.225000	26.011212	0.000641	20.768715
1624.453873	-3.010400	3.406900	-10.254000	26.000878	0.000640	20.778722
1625.453424	-2.997800	3.408000	-10.215000	26.022514	0.000640	20.772484
1626.452609	-3.008200	3.408400	-10.252000	26.037445	0.000639	20.759510
1627.454451	-3.013400	3.406700	-10.265000	26.052358	0.000637	20.764537
1628.452414	-3.001700	3.406600	-10.223000	26.077419	0.000637	20.767431
1629.455654	-2.988800	3.407800	-10.185000	26.092251	0.000637	20.770006
1630.454146	-2.996600	3.406700	-10.206000	26.093398	0.000636	20.768788
1631.453789	-3.006200	3.405700	-10.237000	26.046280	0.000638	20.774077
1632.458313	-3.015800	3.405500	-10.269000	26.015214	0.000634	20.764675
1633.455343	-2.982800	3.405500	-10.157000	25.978907	0.000635	20.777036
1634.459815	-3.007600	3.403700	-10.236000	26.005010	0.000633	20.775286
1635.456858	-3.015000	3.404100	-10.262000	25.981396	0.000635	20.748242
1636.456885	-2.991500	3.404700	-10.185000	25.966098	0.000634	20.742356
1637.462107	-3.001300	3.402100	-10.210000	25.941109	0.000633	20.769408
1638.459721	-3.020200	3.402900	-10.277000	25.947130	0.000633	20.763129
1639.458938	-3.008500	3.402300	-10.235000	25.948188	0.000632	20.758502
1640.458327	-2.979500	3.404000	-10.141000	25.984073	0.000632	20.753302
1641.456761	-2.996300	3.401600	-10.191000	25.981314	0.000632	20.755272
1642.461947	-3.008800	3.400600	-10.230000	26.010257	0.000630	20.754953
1643.460485	-2.994900	3.401200	-10.185000	26.027800	0.000630	20.748870
1644.457589	-3.021500	3.400700	-10.275000	26.032739	0.000628	20.750988
1645.458658	-3.006700	3.399800	-10.220000	26.036888	0.000629	20.743303
1646.460105	-3.008100	3.399900	-10.226000	25.982208	0.000630	20.751903
1647.458504	-2.995000	3.399700	-10.182000	25.987872	0.000628	20.748110
1648.461894	-3.002700	3.400600	-10.210000	25.941026	0.000628	20.755574
1649.458645	-3.006100	3.399300	-10.218000	25.905977	0.000628	20.742648
1650.460606	-2.985600	3.399100	-10.147000	25.859055	0.000628	20.759996
1651.462618	-3.021800	3.397100	-10.264000	25.810291	0.000627	20.747995
1652.459894	-2.982700	3.398500	-10.135000	25.800834	0.000626	20.761255
1653.460648	-2.995900	3.397100	-10.176000	25.847563	0.000627	20.746081
1654.462980	-2.984200	3.399400	-10.143000	25.871961	0.000626	20.747831
1655.462602	-3.018900	3.396400	-10.252000	25.866102	0.000626	20.731987
1656.462154	-2.991400	3.395600	-10.156000	25.809184	0.000626	20.733131
1657.461751	-3.002200	3.397400	-10.198000	25.826306	0.000623	20.751281
1658.466287	-3.016100	3.395100	-10.239000	25.830115	0.000626	20.741830
1659.464265	-3.019700	3.395700	-10.253000	25.860096	0.000624	20.759619
1660.469760	-2.985600	3.396300	-10.139000	25.884102	0.000622	20.727310
1661.464435	-2.984300	3.395100	-10.132000	25.924619	0.000621	20.755212
1662.465335	-2.996700	3.393900	-10.169000	25.948917	0.000623	20.738371
1663.467142	-2.995400	3.395600	-10.170000	25.970644	0.000622	20.740758
1664.468798	-3.001400	3.395000	-10.189000	26.005380	0.000620	20.733932
1665.464761	-2.979000	3.393900	-10.109000	26.023387	0.000620	20.753920
1666.466162	-2.989300	3.393000	-10.142000	26.058269	0.000620	20.748663
1667.465250	-2.976300	3.393900	-10.100000	26.034697	0.000619	20.736359
1668.465482	-2.984200	3.393200	-10.125000	26.078536	0.000619	20.746742
1669.468182	-2.969300	3.393900	-10.077000	26.087600	0.000619	20.780032
1670.467358	-3.002800	3.391800	-10.184000	26.116980	0.000618	20.740325
1671.465225	-2.986000	3.392800	-10.129000	26.122528	0.000617	20.736416
1672.466037	-2.979100	3.392000	-10.104000	26.152729	0.000617	20.728829
1673.475074	-2.976000	3.390500	-10.089000	26.145854	0.000617	20.730930
1674.475637	-2.985200	3.391800	-10.124000	26.133788	0.000615	20.724970
1675.466929	-2.998700	3.390300	-10.166000	26.145064	0.000615	20.744837
1676.466604	-2.999200	3.389800	-10.166000	26.147106	0.000615	20.735034
1677.467181	-2.993100	3.390700	-10.148000	26.144307	0.000615	20.729851
1678.466048	-2.990400	3.389700	-10.135000	26.173067	0.000614	20.738361
1679.472311	-2.989700	3.389000	-10.131000	26.128141	0.000613	20.721193
1680.468575	-2.986000	3.389700	-10.121000	26.110584	0.000614	20.728207
1681.467037	-3.000300	3.387700	-10.163000	26.066453	0.000614	20.736023
1682.470303	-3.003200	3.388600	-10.176000	26.042661	0.000611	20.724920
1683.469602	-3.003400	3.387000	-10.171000	26.042441	0.000610	20.737028
1684.469765	-3.010100	3.388400	-10.198000	26.004589	0.000610	20.725550
1685.471958	-3.033000	3.385900	-10.268000	26.000741	0.000612	20.701767
1686.470950	-2.973000	3.387400	-10.070000	26.027274	0.000610	20.722263
1687.472616	-3.000400	3.386200	-10.159000	26.039496	0.000611	20.729801
1688.470758	-3.003700	3.386100	-10.170000	26.039699	0.000607	20.728108
1689.470992	-2.993700	3.385200	-10.133000	26.026387	0.000610	20.721846
1690.478085	-3.008300	3.384000	-10.178000	26.062034	0.000611	20.714512
1691.470697	-3.013700	3.384600	-10.199000	26.042392	0.000609	20.729391
1692.474704	-3.006100	3.384300	-10.173000	26.028975	0.000608	20.727765
1693.470218	-2.989700	3.384700	-10.118000	25.986777	0.000609	20.711920
1694.469987	-3.020900	3.383000	-10.219000	25.924079	0.000608	20.719107
1695.474019	-3.022400	3.382000	-10.221000	25.900260	0.000607	20.702763
1696.474493	-3.004400	3.382800	-10.162000	25.939386	0.000606	20.722630
1697.472671	-2.985800	3.383000	-10.100000	25.924608	0.000607	20.722009
1698.472586	-2.975900	3.382800	-10.066000	25.932453	0.000604	20.718036
1699.472069	-3.012600	3.382000	-10.187000	25.981341	0.000605	20.699820
1700.473777	-2.992300	3.382300	-10.119000	25.964798	0.000606	20.740575
1701.477650	-2.993000	3.381700	-10.120000	25.962211	0.000604	20.707628
1702.471765	-3.025300	3.380400	-10.226000	25.950811	0.000605	20.727944
1703.477504	-3.008400	3.380500	-10.169000	25.973595	0.000603	20.712901
1704.474294	-3.011800	3.380000	-10.178000	25.968175	0.000602	20.713621
1705.473570	-3.007100	3.378300	-10.158000	25.978900	0.000603	20.722025
1706.480979	-2.993200	3.379200	-10.113000	26.029414	0.000601	20.706394
1707.473077	-3.008300	3.379500	-10.165000	25.992188	0.000601	20.697441
1708.475128	-2.992100	3.378500	-10.108000	26.002408	0.000602	20.722409
1709.475304	-2.965500	3.379800	-10.020000	26.007909	0.000602	20.706124
1710.474606	-3.012400	3.377900	-10.174000	26.041066	0.000599	20.726162
1711.476480	-2.995100	3.378100	-10.117000	26.050269	0.000600	20.735884
1712.478379	-3.018900	3.376900	-10.193000	26.077200	0.000597	20.707465
1713.478290	-2.998000	3.378100	-10.127000	26.079853	0.000599	20.710605
1714.478253	-3.005600	3.376100	-10.146000	26.079349	0.000599	20.719107
1715.485908	-3.003600	3.376500	-10.141000	26.084149	0.000598	20.711602
1716.477499	-3.023300	3.375500	-10.203000	26.103464	0.000599	20.707776
1717.484447	-3.000600	3.376500	-10.131000	26.121738	0.000595	20.718078
1718.478794	-2.997200	3.375600	-10.116000	26.119330	0.000597	20.710441
1719.478705	-2.993800	3.375400	-10.103000	26.145056	0.000596	20.696935
1720.478866	-2.995900	3.374300	-10.109000	26.155925	0.000597	20.711652
1721.483500	-2.992600	3.375100	-10.099000	26.157495	0.000597	20.719394
1722.480085	-2.982600	3.374500	-10.065000	26.151825	0.000595	20.732663
1723.481192	-2.993400	3.374400	-10.100000	26.144251	0.000597	20.685220
1724.480130	-3.028000	3.372300	-10.210000	26.120551	0.000595	20.715462
1725.485301	-2.993500	3.372500	-10.095000	26.056942	0.000593	20.727415
1726.481267	-3.034300	3.373300	-10.233000	26.019562	0.000594	20.723049
1727.481514	-3.013900	3.372700	-10.164000	25.986103	0.000592	20.714089
1728.481207	-3.002100	3.373700	-10.127000	25.945914	0.000592	20.712118
1729.488017	-3.000900	3.372100	-10.118000	25.936890	0.000589	20.700206
1730.484389	-3.003100	3.371600	-10.123000	25.942781	0.000589	20.713238
1731.482101	-3.009700	3.370200	-10.142000	25.923202	0.000591	20.703052
1732.488856	-2.993800	3.371300	-10.092000	25.910508	0.000590	20.701678
1733.481740	-3.005300	3.369800	-10.126000	25.949804	0.000589	20.708440
1734.482765	-3.001800	3.370500	-10.116000	25.975289	0.000590	20.700378
1735.483782	-2.984400	3.371100	-10.059000	26.029611	0.000589	20.720343
1736.483715	-2.992600	3.370500	-10.086000	26.050929	0.000590	20.692448
1737.484551	-2.985100	3.369800	-10.058000	26.081009	0.000589	20.716983
1738.487832	-2.996600	3.367600	-10.090000	26.067869	0.000587	20.696192
1739.485850	-3.008900	3.367900	-10.133000	26.059863	0.000586	20.695260
1740.485638	-2.982800	3.368900	-10.047000	26.069008	0.000585	20.713933
1741.487006	-3.010600	3.368300	-10.140000	26.080359	0.000587	20.721071
1742.485766	-3.016900	3.366900	-10.156000	26.101944	0.000584	20.700084
1743.490965	-3.018500	3.366900	-10.162000	26.130599	0.000584	20.673398
1744.488737	-3.006100	3.365900	-10.117000	26.139785	0.000585	20.706339
1745.489748	-2.990000	3.365700	-10.062000	26.160921	0.000583	20.703869
1746.488379	-2.982300	3.366800	-10.040000	26.184474	0.000584	20.734176
1747.488967	-2.995100	3.365800	-10.080000	26.178640	0.000581	20.712192
1748.491138	-3.010000	3.366400	-10.132000	26.182831	0.000582	20.702177
1749.488661	-2.999200	3.366100	-10.094000	26.204983	0.000582	20.700256
1750.490294	-3.022000	3.364800	-10.168000	26.192813	0.000582	20.730227
1751.491415	-3.001000	3.364600	-10.096000	26.215014	0.000579	20.700378
1752.490997	-3.014500	3.363800	-10.139000	26.222694	0.000580	20.705251
1753.490480	-3.010000	3.365100	-10.128000	26.228201	0.000581	20.683757
1754.493440	-3.026000	3.362700	-10.174000	26.210475	0.000580	20.711939
1755.490563	-3.014300	3.362700	-10.135000	26.211166	0.000577	20.692718
1756.490816	-2.986900	3.364200	-10.048000	26.242479	0.000579	20.690518
1757.491576	-3.003800	3.363700	-10.103000	26.233277	0.000578	20.700239
1758.490290	-3.000100	3.363200	-10.089000	26.204837	0.000578	20.711963
1759.496754	-2.992900	3.362800	-10.063000	26.211695	0.000577	20.690404
1760.492829	-2.987200	3.363600	-10.047000	26.154201	0.000578	20.697590
1761.493119	-2.988800	3.361100	-10.044000	26.130534	0.000575	20.694671
1762.491946	-2.993800	3.361100	-10.061000	26.077087	0.000573	20.696920
1763.489858	-2.982700	3.361500	-10.025000	26.044232	0.000574	20.714644
1764.493414	-2.987200	3.360700	-10.038000	26.040758	0.000573	20.697876
1765.492914	-3.015600	3.360500	-10.133000	26.025656	0.000573	20.712102
1766.492391	-2.991600	3.359600	-10.049000	26.030750	0.000572	20.704416
1767.495555	-2.994300	3.360700	-10.062000	26.041482	0.000572	20.704294
1768.498626	-3.013200	3.358400	-10.118000	26.064142	0.000573	20.692921
1769.493448	-3.003500	3.359000	-10.087000	26.090813	0.000572	20.700753
1770.495017	-3.009100	3.358900	-10.107000	26.140467	0.000570	20.709395
1771.495298	-3.004100	3.358600	-10.089000	26.150401	0.000570	20.720800
1772.498274	-2.996000	3.359500	-10.064000	26.143030	0.000569	20.704857
1773.495345	-2.988800	3.357500	-10.035000	26.169861	0.000569	20.702421
1774.495952	-2.990900	3.357600	-10.041000	26.168494	0.000568	20.695831
1775.499529	-3.004900	3.356100	-10.083000	26.179330	0.000568	20.710514
1776.495171	-3.028900	3.355600	-10.163000	26.206300	0.000567	20.711062
1777.495356	-3.033400	3.355700	-10.178000	26.193137	0.000567	20.712060
1778.495213	-3.001200	3.354600	-10.066000	26.165923	0.000567	20.690876
1779.497614	-2.993400	3.355300	-10.043000	26.176499	0.000566	20.692495
1780.496520	-2.995200	3.355200	-10.049000	26.173855	0.000568	20.692208
1781.497900	-2.993100	3.355700	-10.042000	26.161122	0.000566	20.705968
1782.498119	-2.987500	3.353900	-10.019000	26.183788	0.000567	20.704562
1783.497222	-3.010200	3.354100	-10.096000	26.210171	0.000564	20.673698
1784.498262	-2.990000	3.354500	-10.029000	26.225051	0.000565	20.707619
1785.498299	-3.009200	3.353200	-10.089000	26.257705	0.000564	20.709140
1786.501460	-2.997500	3.352700	-10.048000	26.273535	0.000565	20.704185
1787.499014	-3.012400	3.351600	-10.095000	26.274796	0.000563	20.708298
1788.497962	-2.989200	3.352000	-10.018000	26.217086	0.000562	20.723324
1789.502007	-2.983400	3.353000	-10.002000	26.185521	0.000563	20.719106
1790.498834	-3.022700	3.352100	-10.131000	26.136055	0.000562	20.727723
1791.499725	-3.038100	3.350900	-10.179000	26.136283	0.000562	20.725581
1792.505739	-3.003600	3.350100	-10.061000	26.135234	0.000559	20.717888
1793.501342	-2.998700	3.351300	-10.048000	26.159486	0.000559	20.715230
1794.501967	-2.996600	3.350400	-10.039000	26.192370	0.000559	20.701331
1795.501688	-3.003100	3.349900	-10.060000	26.214246	0.000559	20.711935
1796.502613	-3.010100	3.349000	-10.079000	26.198878	0.000559	20.688430
1797.503680	-2.995000	3.349200	-10.031000	26.139903	0.000559	20.720683
1798.507699	-2.958700	3.350300	-9.911100	26.120434	0.000557	20.697325
1799.504186	-2.991500	3.349600	-10.020000	26.124705	0.000556	20.694030
1800.502046	-2.998000	3.347500	-10.035000	26.157387	0.000557	20.702688
1801.505845	-3.009700	3.348800	-10.078000	26.175871	0.000556	20.713202
1802.508645	-3.013500	3.347700	-10.087000	26.204817	0.000556	20.704830
1803.503940	-3.017800	3.347200	-10.099000	26.215368	0.000556	20.708321
1804.500465	-3.007500	3.347200	-10.066000	26.203352	0.000555	20.697668
1805.503953	-3.024400	3.345600	-10.117000	26.194859	0.000555	20.722326
1806.502664	-3.023900	3.346300	-10.118000	26.233037	0.000551	20.714223
1807.502534	-3.010300	3.345400	-10.068000	26.228791	0.000553	20.712327
1808.507496	-2.995800	3.345900	-10.022000	26.244191	0.000552	20.714052
1809.503363	-2.998100	3.346800	-10.032000	26.265008	0.000552	20.711738
1810.503091	-2.995300	3.344700	-10.018000	26.244093	0.000553	20.704944
1811.503508	-3.005200	3.345000	-10.052000	26.282921	0.000551	20.707454
1812.504904	-3.003400	3.344500	-10.045000	26.301663	0.000549	20.696891
1813.508339	-3.015600	3.343800	-10.082000	26.294692	0.000551	20.731612
1814.504941	-2.990900	3.344100	-10.001000	26.341261	0.000551	20.713454
1815.504519	-3.002100	3.343500	-10.036000	26.346329	0.000549	20.710961
1816.504987	-3.001200	3.344100	-10.035000	26.358091	0.000547	20.719938
1817.503864	-3.027400	3.342100	-10.117000	26.358425	0.000548	20.716953
1818.506533	-2.986000	3.342000	-9.978600	26.371805	0.000548	20.721867
1819.506264	-2.986900	3.343100	-9.984500	26.366258	0.000546	20.692581
1820.505333	-2.998100	3.342500	-10.020000	26.356228	0.000545	20.713797
1821.507105	-3.018700	3.341100	-10.085000	26.352348	0.000545	20.718907
1822.506689	-2.984600	3.340800	-9.969600	26.321014	0.000546	20.710650
1823.507019	-2.971100	3.342400	-9.929800	26.298400	0.000546	20.725856
1824.507575	-3.015000	3.338900	-10.066000	26.307592	0.000546	20.718024
1825.509301	-3.013700	3.340400	-10.066000	26.326741	0.000544	20.721621
1826.512897	-3.029500	3.339300	-10.116000	26.318598	0.000545	20.700634
1827.508710	-2.986600	3.340600	-9.975300	26.326245	0.000544	20.712587
1828.508605	-2.976900	3.340100	-9.941900	26.340707	0.000544	20.724278
1829.514741	-2.991200	3.339500	-9.988100	26.359758	0.000541	20.714025
1830.509274	-2.985900	3.340000	-9.971700	26.369161	0.000542	20.731538
1831.507515	-2.979800	3.339200	-9.949400	26.368144	0.000541	20.725774
1832.508210	-2.999000	3.337200	-10.006000	26.351436	0.000541	20.727474
1833.510140	-3.013300	3.337800	-10.056000	26.360644	0.000542	20.724400
1834.512265	-3.030500	3.337700	-10.114000	26.355666	0.000539	20.735045
1835.516063	-3.024200	3.336800	-10.090000	26.340886	0.000539	20.728725
1836.514081	-2.972200	3.337500	-9.918700	26.313270	0.000537	20.705711
1837.514750	-3.010300	3.336200	-10.042000	26.288378	0.000538	20.730957
1838.514918	-2.996400	3.336500	-9.996200	26.278161	0.000538	20.721163
1839.515481	-3.002200	3.336600	-10.016000	26.255366	0.000537	20.749466
1840.522742	-3.005900	3.334600	-10.022000	26.209899	0.000537	20.713731
1841.515084	-2.991600	3.335300	-9.977600	26.217896	0.000536	20.717026
1842.516632	-2.998600	3.333800	-9.996000	26.246776	0.000537	20.737988
1843.514902	-3.023300	3.334000	-10.079000	26.272458	0.000536	20.725389
1844.514819	-3.003700	3.333300	-10.011000	26.254431	0.000536	20.737620
1845.517022	-3.002600	3.334000	-10.010000	26.244132	0.000535	20.720631
1846.517446	-3.010600	3.333900	-10.036000	26.213251	0.000532	20.717574
1847.516822	-3.002200	3.333500	-10.007000	26.236526	0.000533	20.740964
1848.517377	-3.002600	3.332600	-10.005000	26.235191	0.000532	20.724449
1849.518018	-2.989400	3.332400	-9.960200	26.250461	0.000532	20.721301
1850.518606	-2.991600	3.332400	-9.967700	26.294299	0.000531	20.732641
1851.519171	-2.988600	3.332200	-9.957300	26.308527	0.000531	20.730818
1852.518253	-2.995800	3.331600	-9.980100	26.333532	0.000529	20.713273
1853.518502	-3.000000	3.331500	-9.994000	26.356349	0.000531	20.736205
1854.517544	-2.971000	3.331600	-9.897200	26.392733	0.000531	20.732469
1855.517613	-3.006400	3.329400	-10.009000	26.403331	0.000530	20.721784
1856.522518	-2.999000	3.330100	-9.985300	26.425780	0.000529	20.740555
1857.520205	-2.998700	3.330500	-9.987000	26.447131	0.000529	20.728823
1858.524200	-3.023500	3.328200	-10.062000	26.393603	0.000530	20.744250
1859.519125	-3.009600	3.328800	-10.017000	26.395458	0.000527	20.731415
1860.519592	-3.025800	3.327500	-10.067000	26.387641	0.000528	20.739680
1861.522010	-2.990100	3.329000	-9.953700	26.429855	0.000526	20.760772
1862.523522	-3.020500	3.327000	-10.048000	26.422234	0.000524	20.717074
1863.521966	-3.021300	3.327600	-10.052000	26.396734	0.000528	20.752139
1864.521729	-2.994200	3.326900	-9.960400	26.322868	0.000525	20.751869
1865.522900	-3.002600	3.328100	-9.991800	26.288027	0.000525	20.735821
1866.523537	-2.994600	3.327400	-9.963400	26.264916	0.000526	20.740571
1867.531473	-2.999100	3.328600	-9.981600	26.275020	0.000522	20.743138
1868.524431	-3.012000	3.325600	-10.016000	26.307681	0.000521	20.731864
1869.527456	-2.997400	3.326500	-9.970000	26.344530	0.000522	20.748035
1870.524213	-3.012800	3.324300	-10.014000	26.360253	0.000522	20.757674
1871.522517	-3.013300	3.323900	-10.015000	26.349979	0.000522	20.748770
1872.526785	-3.012200	3.325000	-10.014000	26.324397	0.000520	20.735387
1873.522301	-2.992600	3.325500	-9.949500	26.355560	0.000521	20.746792
1874.522153	-2.970200	3.324300	-9.873200	26.352981	0.000520	20.737562
1875.523501	-2.986800	3.323600	-9.926000	26.370095	0.000519	20.754763
1876.524863	-2.984500	3.323500	-9.917200	26.371584	0.000518	20.755311
1877.524010	-3.002100	3.322700	-9.972900	26.344106	0.000520	20.724849
1878.527786	-3.026800	3.322500	-10.055000	26.316913	0.000518	20.747781
1879.526018	-2.994500	3.322200	-9.947200	26.341048	0.000518	20.753545
1880.526058	-2.998000	3.322500	-9.958900	26.358406	0.000518	20.751550
1881.525416	-3.016700	3.321500	-10.019000	26.325462	0.000516	20.763012
1882.529769	-2.992500	3.320700	-9.936300	26.343024	0.000516	20.750789
1883.530057	-3.010700	3.320100	-9.994300	26.341088	0.000516	20.751215
1884.526131	-2.993000	3.320600	-9.936400	26.297536	0.000515	20.763396
1885.524852	-2.991900	3.320300	-9.933300	26.330961	0.000513	20.736294
1886.526736	-2.996300	3.320500	-9.947700	26.343821	0.000516	20.745426
1887.527846	-2.998300	3.320200	-9.953700	26.357137	0.000515	20.751697
1888.530879	-2.997500	3.320300	-9.951800	26.351451	0.000512	20.741715
1889.526810	-3.011700	3.318900	-9.995500	26.318849	0.000512	20.763477
1890.532992	-3.017400	3.317000	-10.007000	26.330717	0.000512	20.769715
1891.527489	-3.028200	3.317200	-10.045000	26.291728	0.000511	20.770835
1892.529112	-2.992700	3.318600	-9.929500	26.297943	0.000513	20.750528
1893.530717	-3.017000	3.317000	-10.006000	26.321541	0.000510	20.747691
1894.530846	-3.024200	3.316200	-10.027000	26.348059	0.000510	20.769601
1895.529407	-2.991200	3.316600	-9.920100	26.369216	0.000510	20.763837
1896.530786	-2.988800	3.318300	-9.916700	26.406014	0.000508	20.760518
1897.530545	-3.018400	3.315200	-10.006000	26.443527	0.000508	20.755547
1898.529409	-3.017800	3.314400	-10.001000	26.462803	0.000507	20.767810
1899.533723	-3.002800	3.316100	-9.956400	26.465707	0.000506	20.771677
1900.531981	-2.997100	3.316100	-9.938000	26.485349	0.000507	20.768660
1901.529274	-3.010800	3.315800	-9.980200	26.481672	0.000506	20.759749
1902.532938	-2.998300	3.314800	-9.936700	26.483836	0.000507	20.760501
1903.531042	-3.015500	3.313100	-9.989700	26.534854	0.000505	20.752988
1904.535115	-3.006200	3.312600	-9.955500	26.525372	0.000506	20.767164
1905.533344	-2.982800	3.315200	-9.887400	26.536920	0.000507	20.740365
1906.533091	-3.003300	3.312800	-9.948400	26.537001	0.000503	20.780277
1907.532554	-3.010200	3.311500	-9.967500	26.518231	0.000501	20.752874
1908.532877	-3.008900	3.312100	-9.963900	26.511253	0.000503	20.789008
1909.532907	-2.990400	3.311500	-9.902200	26.503916	0.000503	20.776892
1910.535130	-2.990900	3.312100	-9.904900	26.494718	0.000501	20.779501
1911.533285	-2.990100	3.312200	-9.902900	26.490383	0.000501	20.776091
1912.535113	-3.003100	3.310400	-9.940900	26.496589	0.000501	20.777587
1913.536043	-2.996600	3.311100	-9.921500	26.538864	0.000500	20.800167
1914.536834	-2.981400	3.311300	-9.871200	26.548851	0.000499	20.777963
1915.538017	-3.017000	3.310500	-9.986600	26.543158	0.000499	20.776508
1916.537841	-3.019000	3.309800	-9.989700	26.536115	0.000499	20.765635
1917.540143	-2.991300	3.310500	-9.900800	26.547086	0.000497	20.763387
1918.538443	-2.996100	3.308600	-9.912000	26.549371	0.000499	20.775642
1919.538651	-2.987700	3.310700	-9.890700	26.571720	0.000496	20.774399
1920.541843	-2.992200	3.309300	-9.901000	26.566206	0.000499	20.792090
1921.540651	-3.006400	3.308700	-9.946000	26.576900	0.000496	20.788142
1922.542274	-3.005100	3.306800	-9.936500	26.574900	0.000495	20.781389
1923.540900	-3.011300	3.305900	-9.954500	26.556325	0.000493	20.783580
1924.542238	-2.992300	3.307400	-9.896000	26.519093	0.000493	20.780767
1925.545306	-3.001800	3.306000	-9.922900	26.491928	0.000495	20.779541
1926.545835	-3.008800	3.306300	-9.946700	26.481404	0.000493	20.802154
1927.543268	-3.000300	3.305400	-9.913600	26.479712	0.000492	20.780539
1928.544216	-3.010200	3.305200	-9.948200	26.494661	0.000492	20.795090
1929.543025	-3.013700	3.305100	-9.959600	26.525705	0.000491	20.783146
1930.541638	-3.010500	3.305400	-9.949800	26.518222	0.000492	20.775625
1931.545515	-2.989800	3.304400	-9.878100	26.503152	0.000491	20.787504
1932.545278	-2.987000	3.305100	-9.870500	26.468813	0.000490	20.778593
1933.542195	-3.014600	3.303100	-9.956800	26.485552	0.000489	20.797788
1934.541659	-3.004000	3.301900	-9.917700	26.506608	0.000488	20.806625
1935.541731	-3.005300	3.302700	-9.924400	26.550949	0.000488	20.799987
1936.543080	-2.975800	3.304400	-9.832100	26.597719	0.000485	20.808121
1937.542317	-2.984100	3.304600	-9.859000	26.569321	0.000487	20.790479
1938.541546	-2.980900	3.302900	-9.844100	26.583870	0.000484	20.793725
1939.542786	-3.005300	3.303000	-9.925700	26.594694	0.000487	20.798442
1940.542809	-3.003900	3.300600	-9.914100	26.613390	0.000486	20.787365
1941.542958	-3.000800	3.302200	-9.907900	26.599704	0.000486	20.801107
1942.546982	-3.003100	3.301300	-9.913300	26.577770	0.000485	20.804663
1943.543586	-2.994300	3.302100	-9.886400	26.616074	0.000487	20.789114
1944.546326	-2.995600	3.301000	-9.887300	26.623002	0.000483	20.819787
1945.544612	-2.998600	3.299500	-9.892900	26.642219	0.000483	20.805914
1946.545481	-2.996200	3.300400	-9.887900	26.667533	0.000483	20.800069
1947.550710	-3.005600	3.299400	-9.916200	26.701378	0.000483	20.799954
1948.547079	-2.985600	3.299600	-9.849900	26.720519	0.000481	20.801655
1949.549512	-2.990300	3.299300	-9.864300	26.740303	0.000479	20.802104
1950.546525	-3.004800	3.298800	-9.911700	26.743970	0.000478	20.797731
1951.548452	-3.002800	3.297800	-9.900900	26.755094	0.000478	20.786629
1952.547285	-2.991600	3.299000	-9.868600	26.724097	0.000479	20.817105
1953.550953	-3.024900	3.297000	-9.972000	26.733261	0.000477	20.816361
1954.547516	-3.000900	3.296300	-9.890800	26.675551	0.000478	20.809077
1955.546689	-3.008500	3.295200	-9.912800	26.680634	0.000476	20.810868
1956.547683	-3.002300	3.296000	-9.894600	26.679666	0.000478	20.817481
1957.546851	-3.010500	3.295300	-9.918600	26.728252	0.000477	20.831240
1958.550458	-2.991400	3.295400	-9.856400	26.769778	0.000473	20.822255
1959.550279	-2.982200	3.296100	-9.828800	26.780975	0.000476	20.815021
1960.550409	-2.995700	3.294100	-9.866200	26.816823	0.000474	20.802701
1961.548253	-2.997000	3.294100	-9.871100	26.804554	0.000473	20.840624
1962.548884	-3.015100	3.292900	-9.927900	26.775519	0.000473	20.825656
1963.551186	-2.998100	3.294000	-9.874900	26.772543	0.000472	20.821242
1964.549051	-2.984300	3.295000	-9.832300	26.779495	0.000472	20.848145
1965.549901	-2.980000	3.294900	-9.817800	26.765900	0.000472	20.814563
1966.550597	-2.998300	3.293100	-9.873200	26.741750	0.000472	20.828689
1967.554487	-3.021300	3.291100	-9.942300	26.760549	0.000472	20.807287
1968.550090	-3.031300	3.290800	-9.974400	26.730195	0.000471	20.840305
1969.553038	-2.997500	3.291500	-9.864600	26.731960	0.000469	20.829752
1970.550638	-3.026000	3.290000	-9.954800	26.704085	0.000469	20.828754
1971.551016	-3.018100	3.290200	-9.929400	26.671989	0.000469	20.828730
1972.551507	-3.000400	3.290300	-9.870800	26.686179	0.000468	20.827822
1973.550832	-2.977600	3.290100	-9.796100	26.672103	0.000467	20.822680
1974.551792	-3.007800	3.289100	-9.892100	26.699710	0.000466	20.818667
1975.549504	-2.996400	3.289900	-9.857000	26.715120	0.000465	20.820408
1976.554138	-2.986600	3.290300	-9.825500	26.723137	0.000466	20.842692
1977.551216	-2.988800	3.287800	-9.825100	26.730635	0.000465	20.849755
1978.551573	-3.000900	3.288900	-9.868300	26.704297	0.000463	20.828967
1979.554852	-2.989000	3.288200	-9.825900	26.736326	0.000463	20.841728
1980.553832	-2.996700	3.287300	-9.849800	26.729716	0.000462	20.820383
1981.552680	-2.995800	3.287100	-9.845700	26.753337	0.000463	20.833700
1982.552650	-3.011600	3.285700	-9.893800	26.792756	0.000463	20.821650
1983.552684	-2.981900	3.287300	-9.801300	26.795781	0.000460	20.818054
1984.552707	-2.996500	3.286400	-9.846700	26.801375	0.000461	20.834109
1985.554406	-2.998600	3.286100	-9.852200	26.826865	0.000463	20.840297
1986.554346	-2.994900	3.285300	-9.838100	26.793805	0.000462	20.830765
1987.557571	-2.996200	3.286900	-9.847600	26.802066	0.000462	20.869415
1988.554465	-3.025500	3.284100	-9.933600	26.809986	0.000457	20.840395
1989.555226	-3.010900	3.285000	-9.890200	26.788813	0.000458	20.837600
1990.559648	-3.019400	3.285000	-9.918100	26.815327	0.000458	20.811628
1991.555689	-2.986200	3.282500	-9.801000	26.803408	0.000458	20.843739
1992.554510	-2.997300	3.284500	-9.844100	26.813856	0.000457	20.836226
1993.553925	-2.991800	3.283600	-9.822500	26.823084	0.000459	20.818479
1994.554187	-2.979200	3.284500	-9.783000	26.831873	0.000456	20.838221
1995.554833	-2.995300	3.283600	-9.834700	26.856363	0.000454	20.834395
1996.557391	-2.998200	3.281300	-9.836100	26.854761	0.000453	20.839897
1997.557422	-3.013700	3.282200	-9.890900	26.831321	0.000454	20.828656
1998.554885	-3.008200	3.281700	-9.870900	26.837077	0.000454	20.836815
1999.557298	-3.006000	3.280100	-9.858200	26.790667	0.000452	20.832351
2000.555375	-3.034600	3.279600	-9.951400	26.772079	0.000452	20.816983
2001.559734	-3.001000	3.280600	-9.843400	26.745865	0.000451	20.846575
2002.555537	-2.990600	3.281600	-9.812600	26.715681	0.000451	20.832826
2003.557382	-3.014300	3.279000	-9.882300	26.699719	0.000451	20.831003
2004.555367	-3.004100	3.280300	-9.853300	26.660776	0.000450	20.832629
2005.555667	-3.000700	3.278500	-9.835400	26.640047	0.000450	20.822223
2006.557912	-3.002500	3.279800	-9.846500	26.665240	0.000448	20.824790
2007.560997	-2.993800	3.278300	-9.814200	26.633964	0.000448	20.808522
2008.556046	-2.978200	3.278600	-9.762900	26.669729	0.000447	20.832621
2009.556110	-2.994400	3.277800	-9.814800	26.692148	0.000446	20.825288
2010.555256	-2.973200	3.277500	-9.743900	26.739937	0.000446	20.823073
2011.556387	-2.984600	3.277400	-9.780400	26.756216	0.000444	20.828060
2012.557037	-3.008400	3.275400	-9.851800	26.793350	0.000443	20.796643
2013.556365	-3.020300	3.275000	-9.890800	26.793968	0.000442	20.802006
2014.557611	-3.000500	3.275500	-9.827200	26.802253	0.000443	20.833569
2015.558524	-2.978000	3.275400	-9.752900	26.824540	0.000442	20.820416
2016.559134	-3.011900	3.275100	-9.862800	26.865940	0.000443	20.824111
2017.560551	-3.001100	3.275700	-9.829400	26.897290	0.000443	20.808693
2018.560602	-3.003900	3.274300	-9.834300	26.935208	0.000442	20.809838
2019.562840	-2.990600	3.275100	-9.794200	26.930680	0.000441	20.799595
2020.567212	-2.982200	3.275200	-9.766400	26.943493	0.000439	20.813427
2021.561141	-3.009300	3.273600	-9.848700	26.921526	0.000438	20.803666
2022.565275	-2.975900	3.273700	-9.741300	26.898965	0.000440	20.809429
2023.562555	-3.014100	3.272400	-9.862700	26.906046	0.000439	20.801851
2024.565510	-3.016800	3.271900	-9.869500	26.884843	0.000436	20.790488
2025.565142	-2.979400	3.271900	-9.747900	26.875339	0.000439	20.807009
2026.563742	-2.975100	3.271500	-9.731900	26.834362	0.000436	20.805162
2027.568983	-3.004300	3.270300	-9.822500	26.832296	0.000436	20.808301
2028.565542	-3.019000	3.270800	-9.873100	26.850265	0.000434	20.824945
2029.564764	-2.997600	3.269800	-9.800400	26.831622	0.000434	20.829433
2030.565898	-2.997300	3.270000	-9.800300	26.834305	0.000431	20.807950
2031.567153	-3.013100	3.269200	-9.849700	26.836630	0.000432	20.806969
2032.567168	-2.989000	3.270800	-9.775700	26.863591	0.000434	20.806102
2033.568570	-2.985200	3.270100	-9.761000	26.887738	0.000431	20.811416
2034.567551	-3.010700	3.267300	-9.835600	26.900965	0.000430	20.809070
2035.571303	-2.992700	3.270000	-9.785100	26.866168	0.000430	20.789253
2036.569013	-2.984200	3.268900	-9.754000	26.825410	0.000428	20.821291
2037.566722	-2.986800	3.268000	-9.759700	26.805205	0.000430	20.782484
2038.572825	-2.979100	3.267900	-9.735100	26.812458	0.000429	20.813010
2039.566629	-2.966000	3.270000	-9.697600	26.783658	0.000426	20.799701
2040.567194	-3.018100	3.265800	-9.855700	26.749264	0.000428	20.793570
2041.566706	-3.020600	3.266400	-9.865500	26.757427	0.000424	20.781863
2042.567801	-2.994600	3.267800	-9.784400	26.732432	0.000426	20.788975
2043.567923	-2.984200	3.267600	-9.750700	26.715746	0.000425	20.808236
2044.572326	-2.989000	3.265200	-9.758300	26.656442	0.000423	20.795556
2045.568475	-2.980400	3.264900	-9.729800	26.643105	0.000423	20.791632
2046.569572	-2.996700	3.262500	-9.775600	26.671437	0.000422	20.782656
2047.569439	-2.993400	3.265000	-9.772200	26.699491	0.000422	20.782885
2048.569014	-2.975300	3.264900	-9.713100	26.720552	0.000420	20.787463
2049.572155	-3.017500	3.262300	-9.842900	26.726740	0.000418	20.796529
2050.568829	-3.016300	3.261900	-9.838700	26.760217	0.000420	20.789883
2051.572285	-3.008300	3.262800	-9.814700	26.797749	0.000418	20.783048
2052.570240	-2.997100	3.262800	-9.778200	26.814434	0.000417	20.802669
2053.570326	-3.009500	3.261300	-9.813800	26.818751	0.000418	20.789940
2054.572380	-3.015900	3.261000	-9.833800	26.844517	0.000415	20.802096
2055.571321	-3.019500	3.260800	-9.843700	26.866998	0.000416	20.783449
2056.572822	-2.996900	3.261300	-9.772500	26.898144	0.000414	20.801491
2057.572609	-2.978000	3.261200	-9.710800	26.941501	0.000415	20.791036
2058.572899	-3.010300	3.259400	-9.810600	26.955102	0.000414	20.773892
2059.572878	-2.997700	3.259700	-9.771400	26.963695	0.000412	20.795810
2060.574666	-3.052100	3.257600	-9.941300	26.988905	0.000414	20.791289
2061.573834	-2.989800	3.259800	-9.744900	27.006602	0.000411	20.783956
2062.574093	-3.028400	3.257900	-9.864800	26.992506	0.000412	20.787798
2063.574649	-3.030500	3.256400	-9.867100	27.019829	0.000411	20.760746
2064.573128	-3.019000	3.257300	-9.832700	27.011984	0.000411	20.773721
2065.578026	-2.991700	3.258200	-9.745700	27.021471	0.000409	20.776623
2066.574472	-3.004200	3.256200	-9.781700	26.996091	0.000409	20.780972
2067.578208	-2.994500	3.257400	-9.752800	26.952858	0.000407	20.777326
2068.574625	-3.005300	3.256200	-9.785100	26.969792	0.000408	20.806208
2069.575277	-3.000700	3.256700	-9.771900	26.956509	0.000406	20.787635
2070.579209	-2.979400	3.255100	-9.698000	26.940111	0.000407	20.768300
2071.580538	-2.992800	3.255600	-9.742300	26.934924	0.000405	20.778732
2072.579371	-2.987700	3.255900	-9.726800	26.981604	0.000406	20.763558
2073.576765	-3.013300	3.254300	-9.805000	27.016081	0.000403	20.769306
2074.576303	-2.996300	3.254000	-9.749200	27.024616	0.000405	20.769829
2075.579260	-2.984100	3.254900	-9.711700	27.039785	0.000404	20.776549
2076.579862	-2.998100	3.253400	-9.752900	27.064066	0.000405	20.772993
2077.576499	-3.015000	3.253900	-9.809500	27.019414	0.000402	20.768390
2078.579425	-2.990100	3.252600	-9.724300	27.021267	0.000403	20.758400
2079.583517	-2.996800	3.252200	-9.745200	27.006960	0.000399	20.784789
2080.579950	-2.995900	3.251500	-9.740300	26.983141	0.000400	20.764155
2081.581555	-3.001000	3.250700	-9.754500	26.969816	0.000399	20.778732
2082.580848	-3.010200	3.249200	-9.778700	26.946688	0.000400	20.775862
2083.580012	-3.003600	3.250000	-9.761200	26.938574	0.000400	20.755849
2084.583700	-2.993400	3.249400	-9.726000	26.879412	0.000398	20.767482
2085.579430	-3.022300	3.248100	-9.815200	26.867769	0.000396	20.770000
2086.586851	-2.995000	3.248600	-9.728200	26.848964	0.000396	20.756781
2087.582214	-2.988000	3.249700	-9.709600	26.862363	0.000394	20.760770
2088.582365	-3.023400	3.247400	-9.815400	26.872672	0.000394	20.787258
2089.581884	-2.984900	3.248900	-9.696400	26.886770	0.000394	20.759233
2090.583754	-3.007500	3.247500	-9.766000	26.894136	0.000392	20.772804
2091.584318	-2.994900	3.248700	-9.728300	26.911339	0.000391	20.740790
2092.588297	-2.990600	3.247200	-9.709700	26.932509	0.000392	20.771088
2093.581598	-3.018600	3.245000	-9.794200	26.966589	0.000390	20.758416
2094.583545	-2.989000	3.247600	-9.705000	26.967548	0.000388	20.764122
2095.583453	-3.023400	3.244500	-9.807600	26.920550	0.000390	20.777554
2096.583752	-3.011200	3.244000	-9.766300	26.942606	0.000390	20.765120
2097.583079	-2.981900	3.245000	-9.675500	26.966353	0.000389	20.768611
2098.583213	-2.991200	3.245400	-9.706300	27.001594	0.000388	20.756160
2099.583072	-2.986500	3.244000	-9.687400	27.005513	0.000389	20.731650
2100.583270	-3.007900	3.242700	-9.751700	26.977426	0.000386	20.760304
2101.585325	-3.015200	3.241800	-9.772300	26.992213	0.000386	20.749570
2102.583456	-3.012600	3.242700	-9.768100	27.041517	0.000383	20.743676
2103.584123	-3.040000	3.241500	-9.852800	27.045963	0.000383	20.755260
2104.584561	-3.005900	3.242700	-9.746100	27.051588	0.000384	20.755702
2105.584583	-3.004800	3.241500	-9.739300	27.065017	0.000385	20.761146
2106.584562	-2.993800	3.241700	-9.702700	27.079730	0.000384	20.757451
2107.589650	-2.999300	3.241100	-9.720600	27.094151	0.000381	20.769583
2108.585433	-3.007300	3.241000	-9.745300	27.133248	0.000381	20.750584
2109.587911	-3.015300	3.239500	-9.766200	27.108579	0.000381	20.759438
2110.587049	-3.003600	3.240100	-9.731100	27.095581	0.000379	20.749211
2111.585984	-2.991700	3.238700	-9.687900	27.095971	0.000378	20.752448
2112.592144	-2.982000	3.239700	-9.660200	27.111708	0.000378	20.733661
2113.587008	-2.993300	3.237800	-9.690300	27.148326	0.000378	20.753895
2114.589225	-3.033500	3.237300	-9.818800	27.122218	0.000377	20.755612
2115.588014	-2.990600	3.237300	-9.680500	27.074333	0.000374	20.731633
2116.587720	-2.994300	3.236500	-9.690300	27.059376	0.000375	20.754999
2117.590091	-2.980600	3.238500	-9.651100	27.080039	0.000376	20.739743
2118.588374	-2.960300	3.236500	-9.579900	27.109050	0.000373	20.763705
2119.588935	-3.003900	3.235900	-9.718700	27.138255	0.000372	20.752775
2120.589396	-3.016400	3.234800	-9.756600	27.163884	0.000370	20.748205
2121.589626	-3.006100	3.236800	-9.728700	27.171654	0.000371	20.753176
2122.590773	-2.998900	3.234800	-9.700300	27.148847	0.000372	20.725968
2123.590861	-2.984800	3.234200	-9.652400	27.204629	0.000370	20.754099
2124.590963	-2.978600	3.234900	-9.635000	27.217129	0.000371	20.739171
2125.594113	-2.958200	3.234800	-9.568400	27.220340	0.000369	20.745245
2126.592498	-2.981000	3.233000	-9.635500	27.215894	0.000367	20.748360
2127.593032	-3.009400	3.232000	-9.725000	27.162006	0.000366	20.755326
2128.592247	-2.995100	3.232400	-9.680900	27.152512	0.000366	20.740087
2129.589940	-3.019800	3.233100	-9.761500	27.190909	0.000365	20.751205
2130.591293	-3.021800	3.230600	-9.761100	27.171963	0.000365	20.735942
2131.590499	-2.995500	3.231100	-9.677700	27.137134	0.000365	20.738370
2132.590957	-3.008800	3.231700	-9.721800	27.091200	0.000365	20.745752
2133.593565	-2.992300	3.232000	-9.669600	27.100206	0.000364	20.751017
2134.590827	-3.002100	3.229900	-9.695400	27.093094	0.000364	20.736277
2135.591677	-3.016200	3.229300	-9.739700	27.088696	0.000363	20.735173
2136.590778	-3.008700	3.229600	-9.716100	27.071805	0.000362	20.744738
2137.592309	-2.998800	3.229000	-9.681500	27.101352	0.000360	20.737945
2138.593294	-3.003800	3.227600	-9.694200	27.150139	0.000358	20.726319
2139.593838	-3.004200	3.227600	-9.694900	27.161729	0.000360	20.725174
2140.592416	-3.029100	3.226600	-9.772700	27.166135	0.000359	20.743831
2141.594319	-3.010300	3.226700	-9.711200	27.190015	0.000358	20.746987
2142.594541	-2.997100	3.226500	-9.668900	27.205815	0.000357	20.723523
2143.597653	-3.002200	3.226500	-9.685100	27.240203	0.000356	20.737724
2144.597115	-2.987000	3.224800	-9.631600	27.270778	0.000357	20.742874
2145.593501	-3.019900	3.224400	-9.736800	27.297216	0.000355	20.719206
2146.594987	-2.981800	3.226000	-9.617800	27.326692	0.000354	20.722305
2147.593991	-2.978000	3.227400	-9.609700	27.317217	0.000355	20.725101
2148.594625	-2.981700	3.223200	-9.609700	27.311064	0.000353	20.741673
2149.599915	-3.008100	3.222200	-9.692100	27.239317	0.000352	20.714072
2150.595802	-2.999700	3.222000	-9.664200	27.206222	0.000352	20.730570
2151.598304	-3.014200	3.220500	-9.706900	27.236489	0.000354	20.743945
2152.596374	-2.985800	3.222000	-9.619600	27.254711	0.000352	20.735721
2153.595413	-2.997600	3.221100	-9.654200	27.223721	0.000352	20.727782
2154.599267	-2.992300	3.221000	-9.637900	27.181749	0.000348	20.712118
2155.597777	-2.983000	3.221500	-9.608900	27.137223	0.000350	20.732769
2156.597509	-3.002700	3.219500	-9.666300	27.116496	0.000347	20.716189
2157.596672	-2.998000	3.219500	-9.651100	27.104652	0.000346	20.736996
2158.597131	-2.963600	3.221000	-9.544700	27.106871	0.000346	20.734960
2159.597847	-2.980300	3.219600	-9.594200	27.114244	0.000347	20.704915
2160.599026	-2.995000	3.218300	-9.637800	27.128412	0.000347	20.727226
2161.596892	-2.982800	3.217900	-9.596800	27.121072	0.000345	20.715576
2162.600008	-3.042600	3.215400	-9.781800	27.160274	0.000345	20.718495
2163.598546	-3.025300	3.216800	-9.730800	27.196826	0.000344	20.731551
2164.597307	-3.003300	3.217400	-9.661000	27.232409	0.000343	20.704752
2165.598840	-3.014100	3.214600	-9.688200	27.252159	0.000341	20.732205
2166.596512	-3.013700	3.215800	-9.690500	27.280710	0.000340	20.708766
2167.597730	-2.993400	3.216600	-9.628200	27.308797	0.000340	20.711889
2168.598429	-2.982700	3.215000	-9.588800	27.325262	0.000341	20.709485
2169.598672	-2.987400	3.214600	-9.600700	27.306594	0.000341	20.709673
2170.598312	-2.966600	3.214700	-9.536000	27.314120	0.000339	20.722460
2171.600145	-3.007800	3.214100	-9.666400	27.306334	0.000340	20.709886
2172.599339	-2.990200	3.213100	-9.606600	27.342287	0.000340	20.714284
2173.602629	-2.994200	3.213100	-9.619900	27.356078	0.000337	20.715355
2174.601854	-2.998600	3.211800	-9.629400	27.378231	0.000335	20.720571
2175.600291	-3.000800	3.211200	-9.634700	27.355160	0.000336	20.713957
2176.605321	-2.964300	3.212000	-9.519700	27.358760	0.000335	20.718527
2177.600780	-3.024500	3.210700	-9.710000	27.297313	0.000335	20.704130
2178.603466	-3.004400	3.211200	-9.646200	27.268316	0.000334	20.733759
2179.601185	-2.979700	3.210000	-9.564100	27.287073	0.000334	20.715641
2180.600583	-3.016700	3.209500	-9.680500	27.325384	0.000331	20.696805
2181.601605	-2.990200	3.209800	-9.595500	27.322612	0.000333	20.710613
2182.603393	-3.001200	3.208100	-9.627000	27.356891	0.000332	20.713802
2183.600977	-3.001600	3.208400	-9.629200	27.329431	0.000330	20.699454
2184.601441	-2.974800	3.208600	-9.544100	27.303660	0.000331	20.693444
2185.602737	-3.006600	3.206600	-9.639800	27.300377	0.000328	20.709583
2186.603054	-3.026800	3.205200	-9.700800	27.333161	0.000329	20.703680
2187.610008	-2.996000	3.208600	-9.611000	27.312340	0.000328	20.700754
2188.607005	-2.997900	3.205700	-9.608500	27.308967	0.000326	20.695464
2189.605353	-3.020600	3.205200	-9.679800	27.294160	0.000327	20.709019
2190.606949	-2.999300	3.205800	-9.614900	27.269470	0.000327	20.686078
2191.605465	-3.000700	3.204900	-9.615800	27.291803	0.000326	20.707122
2192.605191	-2.992900	3.204600	-9.590200	27.308000	0.000324	20.706346
2193.606784	-3.014600	3.203100	-9.654100	27.234936	0.000324	20.694965
2194.605096	-3.011800	3.203700	-9.647700	27.220104	0.000323	20.700909
2195.605091	-3.014600	3.202200	-9.651600	27.168272	0.000324	20.712314
2196.607317	-2.997900	3.202100	-9.598200	27.195989	0.000323	20.687558
2197.605677	-2.977300	3.203800	-9.537500	27.249582	0.000321	20.691678
2198.608644	-2.991000	3.201700	-9.575700	27.278483	0.000322	20.696093
2199.608786	-3.005700	3.202000	-9.623800	27.323059	0.000320	20.708218
2200.610393	-3.019300	3.200000	-9.660700	27.381067	0.000318	20.693551
2201.608508	-3.013300	3.199800	-9.641700	27.420724	0.000318	20.708316
2202.610271	-3.014500	3.198800	-9.641700	27.444265	0.000317	20.693117
2203.613042	-2.986300	3.200300	-9.556400	27.414986	0.000315	20.699699
2204.610300	-2.953300	3.198700	-9.445900	27.388121	0.000315	20.716770
2205.613366	-3.013600	3.195800	-9.629600	27.358061	0.000316	20.698857
2206.611856	-2.986100	3.197500	-9.547000	27.349675	0.000315	20.705594
2207.610939	-3.007900	3.196500	-9.613800	27.353348	0.000315	20.692218
2208.613052	-3.024800	3.195200	-9.664000	27.400879	0.000312	20.700206
2209.611987	-2.998600	3.196800	-9.585000	27.440860	0.000313	20.699176
2210.613554	-3.008300	3.195400	-9.611600	27.480896	0.000312	20.683977
2211.611177	-3.008100	3.194400	-9.608500	27.451570	0.000312	20.698571
2212.611750	-3.025700	3.195100	-9.665800	27.448921	0.000311	20.709657
2213.610991	-2.995100	3.193700	-9.564800	27.446264	0.000310	20.697974
2214.613643	-2.962200	3.195500	-9.463800	27.488680	0.000311	20.698448
2215.610486	-2.972000	3.194300	-9.492500	27.522092	0.000309	20.704563
2216.611608	-3.001700	3.192400	-9.580900	27.542454	0.000309	20.689013
2217.611849	-3.012800	3.193600	-9.620800	27.526325	0.000308	20.687010
2218.613090	-3.014500	3.191200	-9.618700	27.499146	0.000308	20.700917
2219.617868	-3.035100	3.190500	-9.682400	27.440510	0.000306	20.696453
2220.612719	-2.999900	3.190900	-9.571200	27.414556	0.000305	20.704956
2221.611137	-3.023500	3.190000	-9.643700	27.434717	0.000305	20.698685
2222.614462	-3.023700	3.188900	-9.640100	27.406064	0.000305	20.703525
2223.613475	-2.993300	3.189900	-9.546600	27.393736	0.000303	20.684958
2224.616762	-3.010900	3.188700	-9.599600	27.420333	0.000304	20.710769
2225.612224	-3.011800	3.188100	-9.601200	27.404796	0.000303	20.676169
2226.613086	-2.988000	3.186800	-9.520300	27.391721	0.000302	20.692414
2227.611986	-3.012100	3.186700	-9.597200	27.442607	0.000302	20.694295
2228.613426	-3.009000	3.187700	-9.590900	27.409786	0.000301	20.712011
2229.618992	-3.002900	3.186600	-9.568000	27.405983	0.000299	20.704866
2230.616004	-3.010000	3.186100	-9.589000	27.399116	0.000300	20.713606
2231.617079	-2.997700	3.184800	-9.545000	27.429963	0.000299	20.701964
2232.616987	-2.978100	3.185900	-9.486400	27.457030	0.000296	20.691736
2233.617621	-2.997200	3.184600	-9.543900	27.471811	0.000297	20.708504
2234.617069	-2.979100	3.186600	-9.492300	27.491857	0.000298	20.713499
2235.619809	-3.004400	3.184600	-9.566600	27.506231	0.000295	20.715159
2236.617650	-2.993800	3.183800	-9.531300	27.472177	0.000298	20.701285
2237.618649	-3.004300	3.181600	-9.556100	27.461776	0.000295	20.706943
2238.618567	-3.016400	3.181400	-9.594700	27.454536	0.000296	20.716729
2239.617300	-3.016400	3.181800	-9.595200	27.448636	0.000293	20.698939
2240.621168	-3.007600	3.181000	-9.566300	27.477881	0.000292	20.696118
2241.621241	-2.984200	3.180400	-9.487800	27.509823	0.000293	20.696486
2242.619995	-2.991300	3.179500	-9.510100	27.468927	0.000291	20.721250
2243.620768	-2.978100	3.179300	-9.467000	27.455901	0.000290	20.710515
2244.620953	-3.002900	3.178200	-9.543300	27.507320	0.000291	20.716255
2245.618655	-2.970000	3.179000	-9.440300	27.506694	0.000291	20.693338
2246.623479	-2.989700	3.177600	-9.499400	27.497082	0.000290	20.700737
2247.620958	-2.979600	3.178500	-9.469400	27.529592	0.000291	20.693616
2248.626710	-3.006400	3.176100	-9.547300	27.559289	0.000291	20.697892
2249.620021	-2.962500	3.178900	-9.416000	27.568909	0.000292	20.714211
2250.618476	-3.003400	3.174700	-9.532700	27.598451	0.000290	20.691302
2251.628218	-2.978900	3.176600	-9.462300	27.627229	0.000288	20.697500
2252.622179	-3.020500	3.174400	-9.586600	27.623012	0.000289	20.694679
2253.621091	-3.037800	3.173700	-9.640200	27.597760	0.000288	20.692030
2254.623250	-2.981900	3.174400	-9.464600	27.581519	0.000289	20.721209
2255.624247	-3.008300	3.172500	-9.542800	27.567300	0.000287	20.722550
2256.622765	-2.993400	3.174000	-9.499900	27.599459	0.000286	20.727880
2257.627170	-2.976700	3.171600	-9.440000	27.572021	0.000287	20.700745
2258.623897	-2.985800	3.171300	-9.466900	27.515917	0.000287	20.721585
2259.624050	-2.997000	3.170900	-9.502200	27.516388	0.000285	20.699298
2260.624694	-3.000700	3.171300	-9.513100	27.521645	0.000285	20.709330
2261.625593	-2.989400	3.169000	-9.472000	27.501380	0.000283	20.721659
2262.632176	-2.985200	3.169200	-9.459700	27.475541	0.000282	20.716050
2263.626197	-3.012800	3.167900	-9.542300	27.493271	0.000283	20.716819
2264.626795	-2.986900	3.168100	-9.462400	27.434554	0.000281	20.715592
2265.625868	-3.012800	3.167300	-9.541800	27.495376	0.000278	20.708504
2266.625285	-2.981500	3.167300	-9.441700	27.526975	0.000281	20.734609
2267.631253	-2.991800	3.167800	-9.476500	27.553862	0.000278	20.704760
2268.626386	-3.002200	3.167400	-9.508100	27.587336	0.000278	20.721847
2269.626386	-2.982600	3.166300	-9.442400	27.623410	0.000279	20.718789
2270.628316	-2.987200	3.165300	-9.454100	27.667160	0.000278	20.731044
2271.627051	-3.003500	3.165400	-9.506800	27.683749	0.000278	20.740152
2272.630215	-3.005800	3.162900	-9.505800	27.673302	0.000276	20.712093
2273.629940	-2.998200	3.163900	-9.484600	27.661124	0.000277	20.702209
2274.630936	-3.000900	3.162100	-9.487900	27.657240	0.000277	20.713475
2275.631524	-3.003900	3.163100	-9.499500	27.613693	0.000276	20.731772
2276.630061	-3.021100	3.161600	-9.551000	27.645029	0.000277	20.706877
2277.630626	-2.995700	3.161300	-9.468300	27.651342	0.000274	20.716549
2278.633496	-2.985400	3.162600	-9.440600	27.645257	0.000275	20.725599
2279.632612	-3.002300	3.159300	-9.484300	27.672855	0.000274	20.721127
2280.632346	-3.018900	3.159800	-9.538000	27.681694	0.000273	20.724806
2281.631462	-2.995800	3.157300	-9.458500	27.719089	0.000271	20.726875
2282.633041	-2.996500	3.159100	-9.463900	27.746246	0.000272	20.714848
2283.635409	-2.975800	3.158400	-9.397300	27.757879	0.000272	20.723711
2284.634571	-3.018400	3.156100	-9.524400	27.784110	0.000271	20.713123
2285.634446	-2.970500	3.156900	-9.375400	27.774045	0.000270	20.726229
2286.633250	-2.998500	3.155500	-9.459900	27.741827	0.000270	20.735058
2287.632798	-2.978300	3.155300	-9.396400	27.756108	0.000268	20.717661
2288.633834	-3.016400	3.155300	-9.516600	27.750154	0.000268	20.731110
2289.631999	-3.005600	3.152900	-9.475300	27.778781	0.000269	20.726728
2290.632746	-3.026100	3.151400	-9.535800	27.796506	0.000267	20.719909
2291.634490	-3.001500	3.152400	-9.461000	27.798488	0.000264	20.710998
2292.633250	-3.010300	3.151800	-9.486000	27.821818	0.000265	20.744910
2293.634449	-2.990300	3.152000	-9.424200	27.818300	0.000265	20.728093
2294.635139	-2.984800	3.150400	-9.402700	27.858492	0.000263	20.729663
2295.634591	-3.001100	3.150400	-9.452800	27.875802	0.000263	20.733808
2296.637649	-2.983100	3.150500	-9.396300	27.875997	0.000262	20.720253
2297.637034	-2.992300	3.149300	-9.423100	27.878052	0.000262	20.739391
2298.635791	-3.005200	3.147500	-9.458100	27.935201	0.000261	20.740961
2299.642276	-3.004400	3.148400	-9.457400	27.934584	0.000260	20.732753
2300.637091	-3.032400	3.145500	-9.537800	27.961533	0.000260	20.757508
2301.641596	-3.017600	3.145700	-9.491800	27.981894	0.000262	20.748605
2302.637174	-3.005800	3.144800	-9.451700	27.991413	0.000259	20.727839
2303.637752	-2.986200	3.146100	-9.392700	28.008290	0.000260	20.737241
2304.639820	-3.011700	3.143400	-9.465700	28.034847	0.000261	20.749276
2305.639806	-3.011400	3.143200	-9.463400	28.038713	0.000257	20.720449
2306.637318	-3.001200	3.143300	-9.433200	28.021804	0.000259	20.751794
2307.637423	-2.990400	3.141200	-9.392100	27.976558	0.000258	20.741337
2308.639567	-3.035000	3.140000	-9.528600	27.909916	0.000259	20.742065
2309.638496	-3.018500	3.139600	-9.475800	27.892136	0.000257	20.748826
2310.643387	-2.978900	3.140900	-9.353900	27.855666	0.000255	20.740569
2311.640700	-2.998800	3.139800	-9.414200	27.860604	0.000255	20.718985
2312.644182	-2.996900	3.138600	-9.403600	27.844806	0.000254	20.760934
2313.640381	-2.994300	3.137600	-9.393900	27.825489	0.000255	20.733432
2314.639067	-2.977600	3.138300	-9.343700	27.775077	0.000253	20.748605
2315.641409	-2.976600	3.137200	-9.337500	27.760552	0.000251	20.752954
2316.640154	-2.987500	3.137400	-9.372000	27.748301	0.000251	20.748213
2317.641344	-3.006100	3.135400	-9.424500	27.716416	0.000250	20.760696
2318.640945	-2.971300	3.136000	-9.317900	27.689290	0.000251	20.723915
2319.639555	-2.979900	3.133900	-9.337100	27.674675	0.000252	20.746668
2320.640270	-3.016400	3.132400	-9.446500	27.629365	0.000250	20.732843
2321.648286	-2.991500	3.134000	-9.374700	27.612653	0.000251	20.746847
2322.640646	-2.986400	3.131800	-9.350400	27.614164	0.000249	20.736988
2323.644301	-2.988700	3.131600	-9.359200	27.620388	0.000249	20.733293
2324.641372	-2.988900	3.131800	-9.359500	27.678274	0.000247	20.738435
2325.640928	-2.979400	3.130900	-9.327500	27.702751	0.000249	20.743152
2326.643817	-2.984900	3.130800	-9.343400	27.724483	0.000249	20.733726
2327.640688	-2.992000	3.129200	-9.361800	27.762396	0.000247	20.754336
2328.646294	-3.015200	3.128100	-9.431100	27.820526	0.000248	20.744558
2329.644461	-3.003000	3.129000	-9.395100	27.882560	0.000247	20.731600
2330.644960	-3.038000	3.125600	-9.494000	27.906635	0.000248	20.750142
2331.646054	-3.000500	3.125300	-9.376200	27.944809	0.000247	20.757271
2332.646446	-3.014200	3.125900	-9.421100	27.921946	0.000245	20.749905
2333.644899	-3.001300	3.125700	-9.380400	27.922408	0.000248	20.760803
2334.645239	-3.010900	3.124100	-9.405200	27.952192	0.000243	20.755219
2335.645510	-3.015900	3.123000	-9.417100	27.935087	0.000244	20.747485
2336.645804	-3.014700	3.121700	-9.409300	27.924878	0.000245	20.766607
2337.648317	-2.995200	3.121200	-9.347400	27.922295	0.000243	20.747886
2338.647244	-2.993400	3.122100	-9.343700	27.921011	0.000244	20.743749
2339.651269	-3.009000	3.120200	-9.387100	27.934234	0.000242	20.755162
2340.647450	-3.006200	3.118800	-9.374500	27.940302	0.000242	20.763165
2341.646699	-3.007000	3.118000	-9.374600	27.966065	0.000243	20.747371
2342.652296	-2.989300	3.118100	-9.320000	28.009809	0.000243	20.767220
2343.647656	-3.004700	3.116700	-9.362600	28.061769	0.000243	20.753617
2344.646855	-2.970600	3.117600	-9.259700	28.078458	0.000241	20.769943
2345.647401	-3.007800	3.114400	-9.366600	28.105826	0.000241	20.752448
2346.649570	-3.002500	3.114400	-9.349300	28.115449	0.000240	20.758816
2347.648150	-3.019100	3.114100	-9.400300	28.124772	0.000241	20.785271
2348.651247	-3.000200	3.112800	-9.338000	28.152268	0.000240	20.762217
2349.648114	-3.000800	3.111300	-9.335300	28.150579	0.000238	20.764310
2350.648539	-2.985800	3.112600	-9.292700	28.163141	0.000240	20.760835
2351.647680	-2.966200	3.111800	-9.229100	28.161923	0.000238	20.773834
2352.651858	-3.016500	3.110200	-9.379700	28.130773	0.000238	20.756699
2353.655929	-3.012400	3.108700	-9.363800	28.110918	0.000240	20.763264
2354.649875	-3.019600	3.107100	-9.380900	28.072847	0.000237	20.781363
2355.653201	-2.997000	3.106900	-9.310700	27.985582	0.000236	20.763697
2356.650023	-2.982600	3.106100	-9.262500	27.919931	0.000238	20.764473
2357.653232	-2.994500	3.105900	-9.299000	27.901307	0.000236	20.766591
2358.654866	-3.010700	3.103400	-9.342300	27.890723	0.000238	20.755464
2359.653259	-2.991400	3.105600	-9.289400	27.900072	0.000237	20.765822
2360.654660	-2.994200	3.103000	-9.289700	27.927128	0.000237	20.782148
2361.654854	-3.019500	3.102400	-9.366000	27.959957	0.000235	20.768725
2362.655941	-2.980500	3.101700	-9.243500	27.937824	0.000235	20.767310
2363.657221	-2.993900	3.101400	-9.284100	27.948538	0.000235	20.780464
2364.656301	-2.983800	3.101300	-9.252000	27.979304	0.000234	20.781086
2365.655001	-3.012300	3.099100	-9.334300	28.012651	0.000237	20.759650
2366.656895	-3.004500	3.098500	-9.308800	27.999738	0.000235	20.769411
2367.658978	-3.000400	3.097700	-9.292600	27.969842	0.000233	20.781045
2368.657390	-2.983200	3.096700	-9.237100	27.980928	0.000234	20.793152
2369.666394	-2.985400	3.097300	-9.245600	27.999941	0.000233	20.767719
2370.660352	-2.970200	3.096700	-9.196800	28.001711	0.000234	20.775191
2371.660799	-3.007900	3.093500	-9.304200	27.977712	0.000233	20.779957
2372.657844	-2.996100	3.092500	-9.263600	27.990284	0.000234	20.775543
2373.659718	-2.995100	3.091600	-9.258900	27.943648	0.000232	20.767956
2374.661123	-2.981300	3.092000	-9.217200	27.934438	0.000232	20.780971
2375.662344	-3.009600	3.090600	-9.300600	27.894021	0.000231	20.785811
2376.659327	-2.994700	3.089500	-9.250300	27.880976	0.000232	20.766517
2377.660861	-2.983500	3.089600	-9.216800	27.907732	0.000230	20.782067
2378.660032	-2.989800	3.087600	-9.230000	27.945898	0.000231	20.764057
2379.660207	-2.974900	3.088600	-9.185700	27.955295	0.000231	20.787266
2380.663655	-3.008000	3.085600	-9.278300	27.975852	0.000232	20.770499
2381.660519	-2.995100	3.084900	-9.238400	27.980766	0.000232	20.790144
2382.660473	-3.026200	3.083700	-9.330800	27.999210	0.000233	20.782631
2383.661247	-3.003300	3.083000	-9.257800	28.040021	0.000233	20.768709
2384.660575	-3.018200	3.081100	-9.297800	28.070459	0.000231	20.775641
2385.661771	-2.977100	3.082000	-9.174200	28.067495	0.000231	20.793046
2386.662785	-3.028100	3.080800	-9.327800	28.080586	0.000229	20.778723
2387.659344	-3.002400	3.080300	-9.247000	28.073123	0.000229	20.764098
2388.660478	-2.977000	3.078400	-9.162800	28.089113	0.000232	20.773557
2389.662616	-2.976300	3.078600	-9.161800	28.088691	0.000230	20.810116
2390.660844	-2.999800	3.075800	-9.224800	28.063435	0.000231	20.786114
2391.661059	-2.962600	3.076800	-9.114200	28.065619	0.000229	20.780252
2392.661806	-3.002200	3.073800	-9.227200	28.090754	0.000228	20.781372
2393.661991	-3.014500	3.074100	-9.265200	28.114508	0.000228	20.782051
2394.659962	-2.975300	3.073700	-9.144800	28.133169	0.000229	20.779500
2395.662129	-2.961300	3.073900	-9.101600	28.125576	0.000228	20.780391
2396.664093	-2.988000	3.071100	-9.175100	28.067999	0.000228	20.783596
2397.662130	-2.989300	3.069100	-9.172500	28.057360	0.000228	20.790904
2398.665263	-2.984800	3.069100	-9.158900	28.044317	0.000228	20.799586
2399.665304	-2.978400	3.067100	-9.134200	28.072993	0.000227	20.801900
2400.662889	-2.972700	3.067600	-9.118200	28.103812	0.000228	20.792147
2401.664597	-2.986900	3.065900	-9.156400	28.122953	0.000227	20.782966
2402.666412	-2.997400	3.063300	-9.181700	28.151603	0.000228	20.787152
2403.666811	-2.984100	3.064100	-9.142400	28.159366	0.000229	20.804924
2404.664473	-2.988100	3.063500	-9.152600	28.169890	0.000226	20.808407
2405.665999	-2.975700	3.063100	-9.113500	28.116871	0.000224	20.815723
2406.668339	-3.010100	3.060200	-9.210400	28.082682	0.000224	20.797428
2407.669514	-2.983500	3.060400	-9.128400	28.014869	0.000227	20.812617
2408.669897	-3.000500	3.059000	-9.177600	28.015461	0.000224	20.797567
2409.665494	-3.007400	3.057900	-9.195800	28.022746	0.000225	20.792572
2410.666361	-2.986300	3.058400	-9.132500	28.036496	0.000225	20.808309
2411.669808	-2.980800	3.056800	-9.110400	28.081577	0.000226	20.799161
2412.667347	-2.996500	3.054500	-9.151200	28.128946	0.000225	20.818397
2413.668743	-3.009400	3.051900	-9.182900	28.141306	0.000225	20.795278
2414.666925	-3.005700	3.052400	-9.172700	28.209078	0.000226	20.813246
2415.670897	-3.011700	3.050700	-9.186900	28.246649	0.000223	20.828787
2416.667451	-2.998500	3.050600	-9.146200	28.262953	0.000222	20.819598
2417.668932	-3.000700	3.049500	-9.150100	28.250295	0.000224	20.822500
2418.667738	-3.004500	3.047800	-9.155000	28.224766	0.000223	20.809600
2419.667861	-3.001700	3.047700	-9.147700	28.177888	0.000222	20.823097
2420.668634	-3.012000	3.046200	-9.174200	28.163353	0.000223	20.831697
2421.667660	-2.971200	3.045900	-9.047900	28.139438	0.000222	20.832277
2422.678056	-3.017100	3.043100	-9.180900	28.172350	0.000224	20.830798
2423.668335	-3.019400	3.041300	-9.180900	28.164993	0.000224	20.825762
2424.669886	-2.991500	3.040600	-9.095300	28.156337	0.000223	20.834117
2425.668057	-3.006200	3.039900	-9.137700	28.171262	0.000224	20.825435
2426.668993	-2.979500	3.039500	-9.055100	28.144107	0.000224	20.832711
2427.673246	-2.997900	3.038800	-9.109000	28.116351	0.000223	20.837959
2428.669859	-3.000900	3.036400	-9.111200	28.108985	0.000222	20.831018
2429.669005	-3.003200	3.035500	-9.114700	28.150880	0.000223	20.815821
2430.669046	-3.019100	3.033900	-9.158700	28.182533	0.000222	20.840575
2431.674209	-2.999100	3.033700	-9.097300	28.205018	0.000223	20.836659
2432.675886	-2.999600	3.031800	-9.092600	28.242686	0.000222	20.826694
2433.668630	-2.987000	3.031100	-9.053200	28.248167	0.000221	20.840746
2434.670054	-2.986400	3.030600	-9.049300	28.295610	0.000221	20.834460
2435.670155	-2.976500	3.030400	-9.018500	28.330734	0.000223	20.839479
2436.670646	-3.003600	3.027200	-9.091500	28.314966	0.000222	20.829294
2437.670410	-3.021800	3.025500	-9.141400	28.250822	0.000221	20.837730
2438.674394	-3.017600	3.025400	-9.128300	28.200998	0.000221	20.843992
2439.671926	-2.999400	3.024000	-9.069700	28.199999	0.000222	20.842512
2440.673367	-2.987700	3.023200	-9.030900	28.172732	0.000220	20.830234
2441.671208	-2.989900	3.021800	-9.034200	28.162817	0.000221	20.822623
2442.676313	-2.998900	3.020400	-9.057200	28.138544	0.000222	20.829956
2443.675143	-3.015900	3.018300	-9.101700	28.134931	0.000221	20.810671
2444.672077	-3.039800	3.016500	-9.168600	28.148809	0.000222	20.848823
2445.676667	-3.022700	3.015500	-9.114100	28.173422	0.000220	20.840411
2446.672308	-3.007600	3.016200	-9.069600	28.232017	0.000220	20.835866
2447.672637	-2.986600	3.015900	-9.005900	28.270659	0.000221	20.852959
2448.675027	-3.021500	3.011000	-9.096500	28.309940	0.000222	20.856949
2449.672024	-3.025700	3.010200	-9.107400	28.323703	0.000220	20.850417
2450.674245	-3.007400	3.010800	-9.053600	28.324441	0.000219	20.850687
2451.673243	-3.036900	3.009000	-9.136200	28.323126	0.000221	20.852681
2452.674989	-3.020500	3.007100	-9.082300	28.280613	0.000220	20.853025
2453.675735	-3.015400	3.006200	-9.063900	28.300092	0.000220	20.860308
2454.675281	-3.015000	3.006700	-9.063900	28.331221	0.000221	20.862728
2455.674502	-3.011800	3.003700	-9.045500	28.351291	0.000219	20.857807
2456.678411	-2.979300	3.002700	-8.944600	28.374633	0.000221	20.846223
2457.678034	-2.992800	3.002200	-8.984000	28.439411	0.000219	20.861665
2458.679106	-3.016000	2.999800	-9.046600	28.435173	0.000219	20.848864
2459.683976	-2.977900	3.000000	-8.932300	28.479328	0.000219	20.863930
2460.679935	-2.995600	2.997800	-8.978700	28.450038	0.000218	20.867625
2461.684735	-3.003000	2.996900	-8.997400	28.429661	0.000219	20.864649
2462.680893	-2.995900	2.995100	-8.971100	28.423402	0.000220	20.851709
2463.679885	-3.010200	2.993800	-9.010900	28.394873	0.000220	20.843845
2464.683505	-3.000700	2.992300	-8.978000	28.416728	0.000220	20.865377
2465.683149	-2.969400	2.991800	-8.882900	28.363908	0.000219	20.853442
2466.681806	-2.974200	2.989700	-8.890800	28.309405	0.000218	20.856409
2467.680129	-2.993800	2.987200	-8.941700	28.285258	0.000219	20.833046
2468.682618	-2.978400	2.987800	-8.898400	28.299126	0.000218	20.856965
2469.681805	-3.009200	2.985400	-8.981800	28.280613	0.000217	20.828370
2470.686292	-2.981500	2.984900	-8.897300	28.300831	0.000218	20.862001
2471.680795	-3.016200	2.982500	-8.995200	28.304387	0.000217	20.850409
2472.689349	-2.996600	2.981500	-8.932700	28.348263	0.000218	20.842905
2473.681704	-3.022000	2.979400	-9.002000	28.378206	0.000217	20.853614
2474.682752	-3.020000	2.979300	-8.996000	28.407766	0.000218	20.846395
2475.681537	-2.989900	2.978200	-8.904000	28.444177	0.000218	20.845128
2476.681657	-3.026000	2.975700	-9.003300	28.456614	0.000218	20.832049
2477.682610	-3.012000	2.974800	-8.959000	28.458725	0.000219	20.848872
2478.682370	-3.015000	2.972900	-8.962400	28.462012	0.000219	20.844597
2479.683808	-3.023000	2.970600	-8.978200	28.495215	0.000217	20.852902
2480.681598	-3.015700	2.970600	-8.957100	28.529464	0.000216	20.847090
2481.686084	-3.003900	2.968100	-8.914700	28.530755	0.000216	20.844123
2482.684578	-3.016500	2.966300	-8.945100	28.562153	0.000216	20.852036
2483.684259	-3.000100	2.964500	-8.892200	28.533653	0.000217	20.822860
2484.686295	-3.008300	2.964100	-8.915400	28.560042	0.000215	20.824307
2485.684779	-3.016400	2.962000	-8.933300	28.570425	0.000218	20.845668
2486.688561	-2.984200	2.961100	-8.834500	28.561455	0.000217	20.828100
2487.684744	-2.995300	2.959000	-8.862000	28.560310	0.000218	20.834060
2488.689689	-3.014300	2.957900	-8.914800	28.528530	0.000217	20.835719
2489.686714	-2.986700	2.957200	-8.830900	28.514032	0.000216	20.832972
2490.687516	-2.980800	2.955400	-8.808900	28.485758	0.000216	20.835793
2491.689886	-3.008300	2.954100	-8.884800	28.475675	0.000216	20.834648
2492.691038	-3.007500	2.953500	-8.882200	28.448983	0.000215	20.831002
2493.688668	-2.984600	2.951900	-8.809300	28.409373	0.000216	20.841850
2494.686985	-2.993900	2.949200	-8.828600	28.366311	0.000216	20.823620
2495.694377	-2.994400	2.948100	-8.826900	28.358477	0.000216	20.831378
2496.690358	-3.005000	2.947200	-8.855500	28.310696	0.000215	20.818830
2497.690371	-3.020100	2.943800	-8.889400	28.308024	0.000213	20.812347
2498.688054	-2.986400	2.945200	-8.794600	28.346988	0.000218	20.810328
2499.693810	-2.999100	2.942200	-8.823200	28.363202	0.000216	20.829024
2500.691454	-3.011300	2.939900	-8.852500	28.356009	0.000216	20.834583
2501.691052	-2.991700	2.939500	-8.793600	28.347638	0.000216	20.814301
2502.693942	-2.995800	2.936800	-8.797600	28.371848	0.000215	20.817816
2503.691618	-3.003800	2.934900	-8.814600	28.392348	0.000216	20.813328
2504.691490	-2.969700	2.935100	-8.715100	28.426828	0.000216	20.814857
2505.691710	-2.954200	2.933600	-8.665300	28.495889	0.000217	20.836986
2506.691479	-3.000200	2.930900	-8.791600	28.518943	0.000217	20.808521
2507.692838	-2.986300	2.930700	-8.750100	28.436351	0.000217	20.804058
2508.695276	-2.986400	2.928400	-8.744200	28.441157	0.000215	20.812216
2509.691942	-2.986100	2.926900	-8.738400	28.449307	0.000215	20.819950
2510.692423	-3.000600	2.924600	-8.774000	28.404729	0.000214	20.819157
2511.694455	-3.013400	2.922300	-8.805300	28.356252	0.000214	20.812069
2512.693032	-3.011200	2.921500	-8.796000	28.368000	0.000215	20.825795
2513.695709	-2.996900	2.919000	-8.747200	28.370127	0.000216	20.824143
2514.694830	-2.999500	2.918000	-8.751600	28.411549	0.000218	20.818437
2515.696764	-3.026700	2.916000	-8.825000	28.441238	0.000217	20.828419
2516.692618	-3.024800	2.913300	-8.809700	28.453196	0.000216	20.816753
2517.693616	-2.980000	2.914800	-8.685300	28.492715	0.000216	20.818143
2518.695352	-3.021000	2.911500	-8.794900	28.503795	0.000216	20.805120
2519.696824	-3.011800	2.909500	-8.762000	28.546389	0.000215	20.820988
2520.693520	-3.005600	2.909100	-8.742600	28.583233	0.000216	20.811153
2521.695501	-2.974500	2.907100	-8.646200	28.589086	0.000216	20.820841
2522.697828	-3.005300	2.903700	-8.725200	28.613047	0.000214	20.805145
2523.696855	-2.958700	2.904000	-8.590200	28.611708	0.000215	20.802848
2524.699458	-2.993800	2.900600	-8.683000	28.638721	0.000215	20.805398
2525.698014	-3.013600	2.898900	-8.735400	28.645507	0.000216	20.823138
2526.701633	-2.983600	2.898600	-8.646900	28.682226	0.000215	20.807491
2527.699745	-2.984700	2.896200	-8.643600	28.688524	0.000215	20.801033
2528.699818	-2.990100	2.895400	-8.657000	28.713247	0.000213	20.803649
2529.702963	-3.007300	2.892900	-8.698800	28.677153	0.000215	20.797640
2530.701126	-3.002400	2.891800	-8.681700	28.658388	0.000214	20.793912
2531.699689	-2.988000	2.889100	-8.631500	28.617853	0.000214	20.801924
2532.703901	-3.006600	2.887800	-8.681800	28.609013	0.000213	20.802030
2533.702987	-3.017300	2.884300	-8.701300	28.588445	0.000215	20.789375
2534.703495	-3.023400	2.882000	-8.712800	28.562404	0.000213	20.808668
2535.705904	-3.018500	2.880600	-8.692400	28.576796	0.000213	20.795188
2536.704326	-3.000800	2.879700	-8.639300	28.595287	0.000213	20.786784
2537.704150	-2.997400	2.878100	-8.625900	28.601326	0.000215	20.807090
2538.703080	-3.007200	2.876200	-8.648500	28.608299	0.000214	20.778077
2539.702960	-2.986000	2.873800	-8.579800	28.636375	0.000214	20.785492
2540.708611	-3.008100	2.871000	-8.634600	28.592040	0.000213	20.796790
2541.702400	-2.990500	2.870500	-8.583200	28.553792	0.000215	20.809003
2542.703542	-2.981800	2.868300	-8.551500	28.550618	0.000213	20.782573
2543.703259	-2.991100	2.865900	-8.570200	28.588323	0.000214	20.783563
2544.707734	-2.997100	2.864800	-8.584900	28.642642	0.000212	20.784691
2545.708007	-3.000200	2.861700	-8.584800	28.642374	0.000212	20.789637
2546.707114	-2.979400	2.861500	-8.524000	28.685984	0.000214	20.794207
2547.710667	-3.003400	2.859200	-8.586400	28.722946	0.000213	20.797297
2548.712115	-2.998400	2.857200	-8.566000	28.738439	0.000216	20.804368
2549.708482	-2.997500	2.854100	-8.554700	28.768614	0.000214	20.795408
2550.711680	-3.018600	2.851000	-8.604400	28.784610	0.000214	20.798719
2551.711942	-3.004500	2.850400	-8.562900	28.785892	0.000213	20.777726
2552.714429	-3.005400	2.847200	-8.554900	28.793886	0.000212	20.800003
2553.713843	-2.966600	2.846000	-8.441900	28.745443	0.000212	20.789612
2554.712066	-2.997500	2.844900	-8.526900	28.732295	0.000211	20.790593
2555.712917	-2.993000	2.841100	-8.502400	28.716712	0.000213	20.778216
2556.712619	-3.007000	2.838600	-8.534400	28.650255	0.000215	20.800420
2557.711827	-3.024100	2.836500	-8.577200	28.651765	0.000213	20.787241
2558.712947	-3.001000	2.836400	-8.510400	28.663591	0.000211	20.801049
2559.712430	-2.999700	2.831900	-8.493500	28.669256	0.000211	20.764081
2560.713238	-2.985600	2.833200	-8.457700	28.680270	0.000212	20.779916
2561.715402	-3.016600	2.826900	-8.526600	28.667909	0.000212	20.786432
2562.712778	-3.011500	2.825900	-8.509200	28.619687	0.000212	20.763942
2563.719137	-3.006200	2.824000	-8.489200	28.591911	0.000211	20.783383
2564.713774	-3.011300	2.821900	-8.496700	28.560221	0.000212	20.774227
2565.716013	-2.994400	2.820600	-8.444700	28.531103	0.000213	20.798482
2566.720293	-2.979500	2.819400	-8.398500	28.496465	0.000213	20.773556
2567.717659	-2.992300	2.814800	-8.421600	28.505435	0.000213	20.793970
2568.717060	-2.990500	2.813200	-8.411100	28.515915	0.000212	20.777022
2569.718871	-2.958100	2.811000	-8.313400	28.569450	0.000212	20.774038
2570.720245	-2.992400	2.808400	-8.402800	28.604403	0.000213	20.770360
2571.716709	-3.022200	2.805700	-8.478600	28.632309	0.000213	20.791353
2572.720746	-2.947700	2.804800	-8.266500	28.697404	0.000214	20.770621
2573.717359	-2.995500	2.799800	-8.386000	28.731792	0.000214	20.775387
2574.717562	-2.985100	2.798400	-8.352000	28.673899	0.000212	20.757377
2575.719478	-2.986600	2.797000	-8.352800	28.663014	0.000213	20.750207
2576.718190	-2.998300	2.792200	-8.371200	28.600296	0.000211	20.759110
2577.719932	-2.995400	2.790200	-8.357100	28.607528	0.000212	20.780145
2578.717906	-2.979100	2.788100	-8.305600	28.633429	0.000215	20.772567
2579.720622	-2.989200	2.785500	-8.325600	28.621651	0.000213	20.748850
2580.718047	-2.992200	2.781800	-8.323000	28.596140	0.000211	20.758718
2581.718341	-2.965100	2.780700	-8.243600	28.600425	0.000214	20.767302
2582.722993	-2.982400	2.777700	-8.283400	28.652203	0.000212	20.760656
2583.718387	-3.000800	2.775200	-8.327000	28.683338	0.000212	20.779688
2584.723318	-3.007300	2.771500	-8.333900	28.727880	0.000213	20.759119
2585.719933	-2.929300	2.771700	-8.117900	28.745338	0.000213	20.770065
2586.719127	-3.011100	2.765700	-8.326400	28.784391	0.000214	20.774791
2587.724878	-2.964200	2.764500	-8.193700	28.812925	0.000212	20.753273
2588.722741	-2.971700	2.762700	-8.209400	28.839414	0.000212	20.767629
2589.721973	-2.998100	2.757400	-8.266100	28.914745	0.000213	20.772869
2590.721379	-3.017200	2.754200	-8.308500	28.936524	0.000213	20.769207
2591.720743	-2.995300	2.751500	-8.240700	28.957281	0.000211	20.765937
2592.720545	-2.988700	2.747500	-8.210600	28.982135	0.000212	20.745932
2593.723448	-2.995900	2.744700	-8.221700	28.983003	0.000213	20.781421
2594.721295	-3.004900	2.743200	-8.242300	28.993819	0.000214	20.772403
2595.724462	-3.020700	2.738500	-8.271300	28.978914	0.000212	20.770662
2596.722310	-3.018300	2.734500	-8.253000	29.048928	0.000213	20.768659
2597.721385	-2.980300	2.732600	-8.143300	29.065569	0.000211	20.748916
2598.725416	-3.006100	2.729300	-8.203500	29.119085	0.000212	20.753527
2599.725136	-2.999800	2.724400	-8.171700	29.146174	0.000213	20.758064
2600.725954	-3.029400	2.722400	-8.245500	29.189585	0.000213	20.754867
2601.722646	-2.990500	2.719600	-8.132600	29.216097	0.000211	20.745548
2602.722622	-3.001700	2.716700	-8.154200	29.189244	0.000213	20.742196
2603.724046	-3.002000	2.712600	-8.142700	29.130881	0.000214	20.752137
2604.723860	-3.011600	2.707800	-8.153600	29.131603	0.000213	20.752865
2605.721154	-2.991600	2.704700	-8.090400	29.076725	0.000213	20.746406
2606.724205	-3.013300	2.700600	-8.137200	29.077018	0.000213	20.729156
2607.722522	-3.003200	2.697700	-8.101200	29.030689	0.000214	20.742220
2608.721831	-3.013200	2.692900	-8.113200	28.975652	0.000214	20.747461
2609.724715	-3.008500	2.689700	-8.090600	28.960421	0.000212	20.734960
2610.724082	-3.003600	2.685500	-8.065700	28.928199	0.000213	20.761293
2611.728172	-2.987200	2.682400	-8.011200	28.930601	0.000215	20.751385
2612.724910	-3.011000	2.676500	-8.057600	28.979750	0.000213	20.751589
2613.725646	-3.025700	2.674600	-8.090900	29.027484	0.000212	20.767915
2614.727995	-2.991400	2.671500	-7.990300	29.061123	0.000214	20.753919
2615.728087	-2.992700	2.667800	-7.982300	29.047923	0.000212	20.737299
2616.726666	-3.006500	2.663000	-8.005500	29.081099	0.000213	20.758874
2617.726217	-3.026800	2.657400	-8.041900	29.122354	0.000212	20.755399
2618.727742	-2.976200	2.655600	-7.903100	29.136950	0.000214	20.739285
2619.728357	-3.003500	2.650400	-7.958800	29.112359	0.000213	20.751491
2620.733569	-3.011400	2.646600	-7.969300	29.084669	0.000214	20.742081
2621.732633	-2.982600	2.643300	-7.883700	29.040564	0.000213	20.728461
2622.730482	-2.994600	2.637900	-7.898300	29.013163	0.000213	20.743528
2623.730866	-3.000200	2.633200	-7.899800	29.034373	0.000209	20.728862
2624.731318	-3.015800	2.627900	-7.924500	29.060450	0.000211	20.727635
2625.733772	-3.001900	2.623000	-7.873300	29.099962	0.000211	20.757018
2626.731103	-3.000000	2.618400	-7.854100	29.108854	0.000212	20.722354
2627.732860	-2.983400	2.614200	-7.798200	29.127604	0.000214	20.753102
2628.732118	-3.005400	2.610300	-7.843900	29.136999	0.000211	20.731748
2629.731615	-3.003200	2.605300	-7.823500	29.089569	0.000213	20.730423
2630.734198	-3.005400	2.599200	-7.810100	29.035355	0.000213	20.729851
2631.731821	-3.006800	2.594800	-7.801100	29.015492	0.000212	20.722166
2632.732277	-3.041200	2.586200	-7.863700	28.963984	0.000211	20.708676
2633.735590	-2.985800	2.584100	-7.714100	28.991304	0.000213	20.726720
2634.733784	-3.015000	2.577600	-7.770300	28.985852	0.000211	20.718855
2635.733302	-3.027400	2.572500	-7.787100	29.007516	0.000214	20.727407
2636.738635	-3.016300	2.566200	-7.739100	29.018584	0.000213	20.733342
2637.734073	-2.996400	2.562400	-7.676900	29.040629	0.000213	20.745597
2638.734051	-2.970800	2.555100	-7.589200	29.064037	0.000213	20.735043
2639.736904	-3.021000	2.549500	-7.701300	29.079793	0.000213	20.695440
2640.735528	-3.008200	2.544400	-7.653200	29.075087	0.000213	20.728159
2641.736771	-3.007600	2.537700	-7.631300	29.092701	0.000212	20.711767
2642.735918	-3.018300	2.530700	-7.637800	29.151821	0.000215	20.739572
2643.736745	-2.979000	2.527700	-7.529400	29.181619	0.000214	20.711751
2644.734901	-3.002200	2.520600	-7.565900	29.239655	0.000212	20.721398
2645.736237	-2.986400	2.515400	-7.511100	29.265289	0.000213	20.723524
2646.740831	-3.003400	2.507800	-7.531000	29.288871	0.000213	20.725478
2647.741373	-2.997000	2.501400	-7.495400	29.303699	0.000213	20.730465
2648.739515	-2.973800	2.495900	-7.421500	29.273694	0.000214	20.719191
