LabVIEW Measurement	
Writer_Version	2
Reader_Version	2
Separator	Tab
Decimal_Separator	.
Multi_Headings	No
X_Columns	One
Time_Pref	Absolute
Operator	admin
Description	Clolumns are: time, Current, Voltage, Power, Battery Temp, and Chamber Temp
Date	2024/08/16
Time	13:06:06.104549407958984375
***End_of_Header***	
	
Channels	6						
Samples	1	1	1	1	1	1	
Date	2024/08/30	2024/08/30	2024/08/30	2024/08/30	2024/08/30	2024/08/30	
Time	05:39:10.2905321121215820313	05:39:10.2970223426818847656	05:39:10.3046751022338867187	05:39:10.2696552276611328125	05:39:10.2696552276611328125	05:39:10.2696552276611328125	
X_Dimension	Time	Time	Time	Time	Time	Time	
X0	0.0000000000000000E+0	0.0000000000000000E+0	0.0000000000000000E+0	0.0000000000000000E+0	0.0000000000000000E+0	0.0000000000000000E+0	
Delta_X	1.000000	1.000000	1.000000	1.000000	1.000000	1.000000	
***End_of_Header***							
X_Value	Untitled	Untitled 1	Untitled 2	Untitled 3	Untitled 4	Untitled 5	Comment
0.000000	-0.002566	4.109400	-0.010493	21.024866	0.000959	20.798717
1.003354	-2.994800	3.945900	-11.816000	21.015411	0.000960	20.783570
1.993599	-2.983900	3.937900	-11.749000	21.026763	0.000958	20.783070
3.008031	-3.015200	3.932300	-11.856000	21.024367	0.000958	20.788735
4.005138	-3.013500	3.927800	-11.835000	21.036540	0.000958	20.807074
5.002685	-2.992300	3.924900	-11.743000	21.033196	0.000957	20.798040
6.005212	-3.010900	3.920100	-11.802000	21.018128	0.000958	20.783443
6.993780	-2.979900	3.920300	-11.680000	21.039511	0.000955	20.786339
8.001983	-2.992400	3.917700	-11.722000	21.009849	0.000954	20.786542
9.006994	-3.001200	3.915200	-11.749000	21.046530	0.000956	20.790039
9.998818	-2.987900	3.913900	-11.693000	21.030259	0.000953	20.790835
10.999344	-3.002400	3.909700	-11.738000	21.031732	0.000953	20.796102
12.003778	-3.013600	3.910500	-11.783000	21.041815	0.000952	20.806660
13.002817	-2.991900	3.908200	-11.692000	21.034271	0.000949	20.798167
14.001954	-2.994900	3.906700	-11.699000	21.047401	0.000950	20.815567
14.998437	-2.983000	3.906700	-11.653000	21.044929	0.000951	20.783697
16.003828	-2.984900	3.904500	-11.653000	21.051152	0.000948	20.801775
17.000632	-2.982900	3.903700	-11.644000	21.046631	0.000949	20.812426
18.003302	-3.016300	3.902500	-11.768000	21.036854	0.000948	20.789845
19.014368	-3.011800	3.900100	-11.745000	21.045811	0.000946	20.811131
19.998546	-3.025500	3.899300	-11.797000	21.069701	0.000946	20.805155
21.006837	-3.004000	3.899300	-11.712000	21.087552	0.000946	20.801199
22.010463	-3.009700	3.898400	-11.732000	21.087011	0.000946	20.799710
23.000125	-2.999100	3.897300	-11.688000	21.089728	0.000946	20.800531
24.002090	-3.004800	3.896000	-11.707000	21.084692	0.000942	20.822520
24.998497	-3.002100	3.897800	-11.701000	21.095849	0.000943	20.809024
26.014988	-3.014200	3.894700	-11.738000	21.106446	0.000943	20.816305
27.005482	-3.023300	3.893200	-11.769000	21.121666	0.000944	20.835796
28.008850	-2.998200	3.893600	-11.672000	21.112710	0.000942	20.823993
29.001161	-2.996300	3.893800	-11.666000	21.128404	0.000941	20.797492
30.009655	-3.006600	3.892800	-11.702000	21.128378	0.000942	20.802208
31.007866	-2.975800	3.893500	-11.585000	21.128057	0.000940	20.788136
32.012067	-2.995700	3.891100	-11.656000	21.160239	0.000940	20.797094
33.003553	-2.999200	3.890600	-11.668000	21.130783	0.000939	20.793234
34.010061	-3.037700	3.889600	-11.814000	21.147832	0.000941	20.833046
35.005202	-3.010300	3.890400	-11.709000	21.157048	0.000938	20.815239
36.001785	-3.013500	3.889700	-11.721000	21.183204	0.000939	20.817222
37.015677	-2.997600	3.887500	-11.652000	21.182577	0.000939	20.805215
38.002754	-3.014100	3.886700	-11.713000	21.179514	0.000937	20.813530
39.004056	-3.005900	3.886100	-11.680000	21.195706	0.000938	20.811710
40.009781	-2.985700	3.886600	-11.603000	21.197103	0.000937	20.813107
41.013376	-2.999200	3.886300	-11.655000	21.216959	0.000935	20.817798
42.007812	-3.016200	3.883900	-11.713000	21.216984	0.000938	20.810711
43.007376	-2.980600	3.885300	-11.579000	21.216215	0.000936	20.820372
44.003986	-3.012500	3.885300	-11.704000	21.226397	0.000935	20.821549
45.012010	-2.991600	3.884200	-11.619000	21.247379	0.000936	20.822151
46.005750	-2.994800	3.883500	-11.629000	21.239872	0.000936	20.822227
47.011716	-3.007000	3.883200	-11.676000	21.255691	0.000935	20.798224
48.018254	-3.004000	3.883100	-11.664000	21.247964	0.000935	20.819891
49.029986	-3.003000	3.883000	-11.661000	21.256318	0.000933	20.798376
50.013881	-2.993200	3.882600	-11.620000	21.271933	0.000933	20.825851
51.005489	-3.010100	3.881500	-11.682000	21.254295	0.000933	20.810577
52.012566	-2.994400	3.881800	-11.622000	21.262902	0.000934	20.833412
53.015009	-2.977700	3.881600	-11.557000	21.263147	0.000932	20.816114
54.009610	-3.007300	3.880500	-11.669000	21.278899	0.000934	20.822389
55.018972	-3.007400	3.879700	-11.667000	21.268615	0.000933	20.809730
56.007186	-3.006000	3.880800	-11.665000	21.292246	0.000932	20.827207
57.007961	-2.997900	3.880800	-11.633000	21.283216	0.000932	20.824811
58.010182	-2.978000	3.882000	-11.560000	21.308631	0.000932	20.823210
59.012959	-2.974200	3.880800	-11.541000	21.315495	0.000933	20.835293
60.016160	-3.003500	3.877600	-11.644000	21.296731	0.000932	20.830745
61.014270	-2.990900	3.879100	-11.601000	21.302765	0.000932	20.827299
62.010927	-2.973200	3.880500	-11.536000	21.330661	0.000931	20.833870
63.017200	-2.992200	3.878600	-11.605000	21.328393	0.000932	20.826386
64.012094	-2.998000	3.876200	-11.620000	21.336501	0.000933	20.831178
65.018018	-2.997600	3.875700	-11.617000	21.345337	0.000930	20.830061
66.016262	-3.006300	3.876200	-11.652000	21.342738	0.000931	20.839789
67.010692	-2.996800	3.877100	-11.616000	21.355534	0.000930	20.818453
68.020945	-3.004700	3.875300	-11.642000	21.337093	0.000929	20.821813
69.012062	-2.990300	3.876800	-11.592000	21.357201	0.000931	20.843827
70.015565	-2.992300	3.876000	-11.597000	21.369895	0.000929	20.828079
71.020784	-3.002100	3.874700	-11.632000	21.359612	0.000930	20.834386
72.018807	-2.982400	3.875700	-11.558000	21.395512	0.000932	20.837587
73.015744	-2.993500	3.876100	-11.602000	21.402131	0.000931	20.848002
74.012786	-3.011600	3.874900	-11.668000	21.413699	0.000930	20.843929
75.019285	-3.018800	3.874100	-11.694000	21.410432	0.000930	20.834971
76.013267	-3.010400	3.874100	-11.661000	21.422795	0.000929	20.863461
77.013986	-2.996800	3.873200	-11.606000	21.464608	0.000930	20.849822
78.012444	-2.987500	3.874600	-11.574000	21.439788	0.000928	20.854385
79.022859	-2.983100	3.874800	-11.558000	21.434499	0.000929	20.844826
80.014646	-2.995700	3.871900	-11.598000	21.448436	0.000930	20.851658
81.021911	-3.002400	3.873100	-11.626000	21.430072	0.000929	20.849880
82.016346	-3.014100	3.871900	-11.669000	21.451050	0.000930	20.836257
83.017355	-2.994400	3.871400	-11.591000	21.470394	0.000928	20.844232
84.020471	-2.974600	3.872200	-11.517000	21.470546	0.000929	20.843436
85.016407	-2.996400	3.872500	-11.601000	21.466933	0.000928	20.855467
86.024120	-3.010100	3.872400	-11.656000	21.483729	0.000926	20.836712
87.016513	-2.997000	3.873000	-11.606000	21.485548	0.000927	20.857972
88.018874	-2.993000	3.871000	-11.584000	21.483755	0.000926	20.850962
89.018353	-2.987800	3.870300	-11.562000	21.494129	0.000929	20.849963
90.016396	-2.989900	3.871000	-11.572000	21.509064	0.000928	20.861587
91.018377	-2.995700	3.870500	-11.594000	21.502878	0.000928	20.846863
92.029891	-2.974600	3.870400	-11.512000	21.528880	0.000928	20.853915
93.018977	-3.009800	3.869300	-11.645000	21.529293	0.000928	20.857648
94.024475	-2.993600	3.869900	-11.584000	21.531570	0.000928	20.853762
95.026968	-2.981000	3.869700	-11.534000	21.540885	0.000927	20.838902
96.019690	-2.983600	3.870200	-11.547000	21.555101	0.000930	20.850755
97.023230	-2.996300	3.869000	-11.592000	21.549955	0.000931	20.865046
98.031882	-2.980200	3.869100	-11.529000	21.561607	0.000928	20.847783
99.029055	-3.016900	3.868000	-11.668000	21.598904	0.000929	20.841957
100.017275	-2.987600	3.868400	-11.555000	21.603810	0.000927	20.843074
101.023016	-3.009300	3.866700	-11.635000	21.596805	0.000930	20.845072
102.022656	-3.008100	3.866300	-11.629000	21.589866	0.000927	20.863258
103.020989	-2.990500	3.867600	-11.565000	21.612482	0.000929	20.868346
104.032457	-3.002100	3.866500	-11.605000	21.616391	0.000928	20.865619
105.025876	-3.012200	3.867400	-11.648000	21.628312	0.000929	20.851946
106.022126	-2.980000	3.867700	-11.524000	21.630926	0.000928	20.869734
107.025921	-3.021000	3.866000	-11.677000	21.639328	0.000928	20.866762
108.033063	-3.000100	3.866600	-11.599000	21.644759	0.000929	20.874567
109.026371	-3.003900	3.865200	-11.609000	21.645462	0.000927	20.865788
110.022267	-2.997900	3.866000	-11.589000	21.666080	0.000927	20.874567
111.025017	-3.009000	3.865100	-11.629000	21.674100	0.000927	20.870265
112.036012	-2.982700	3.865600	-11.529000	21.688880	0.000926	20.864668
113.033221	-3.002300	3.864300	-11.600000	21.686342	0.000929	20.869715
114.029433	-3.010400	3.865000	-11.633000	21.686062	0.000929	20.848573
115.027017	-2.992500	3.865700	-11.567000	21.685166	0.000929	20.865693
116.024797	-3.003800	3.864700	-11.607000	21.693093	0.000928	20.873152
117.038254	-2.981700	3.865300	-11.524000	21.712315	0.000927	20.868207
118.036473	-2.988800	3.864400	-11.550000	21.704133	0.000932	20.869976
119.037937	-3.020900	3.864200	-11.671000	21.709768	0.000930	20.884623
120.028132	-2.981100	3.866500	-11.525000	21.723380	0.000929	20.864583
121.043056	-3.016800	3.864100	-11.655000	21.717001	0.000929	20.866733
122.027902	-2.984500	3.863900	-11.530000	21.722881	0.000930	20.869298
123.037856	-3.008800	3.863600	-11.624000	21.701189	0.000930	20.879831
124.028991	-3.007200	3.863200	-11.616000	21.740191	0.000928	20.888043
125.032405	-3.003900	3.863800	-11.605000	21.713634	0.000930	20.875691
126.030779	-3.016400	3.861300	-11.646000	21.720470	0.000929	20.882058
127.041422	-2.993600	3.862500	-11.562000	21.722432	0.000930	20.865057
128.031514	-3.006800	3.860700	-11.608000	21.748245	0.000931	20.872398
129.031831	-2.974800	3.861900	-11.488000	21.769539	0.000930	20.860993
130.032577	-2.991800	3.862500	-11.555000	21.773675	0.000932	20.887891
131.031869	-2.999800	3.861100	-11.581000	21.789732	0.000931	20.879780
132.031348	-2.991900	3.861100	-11.551000	21.798208	0.000932	20.882574
133.035159	-3.001700	3.862200	-11.592000	21.827621	0.000931	20.884512
134.038503	-3.012600	3.859400	-11.626000	21.831319	0.000931	20.886316
135.035865	-3.008700	3.860300	-11.613000	21.854344	0.000932	20.881387
136.045604	-3.007700	3.859200	-11.606000	21.828671	0.000932	20.899785
137.036300	-2.989900	3.858800	-11.536000	21.841604	0.000933	20.874326
138.035480	-2.996100	3.859300	-11.562000	21.848955	0.000933	20.903018
139.047275	-2.998500	3.860700	-11.575000	21.837138	0.000932	20.899725
140.036957	-2.999400	3.859900	-11.577000	21.841935	0.000933	20.896466
141.037852	-3.003000	3.858600	-11.586000	21.874587	0.000934	20.889794
142.040254	-2.992900	3.860100	-11.551000	21.869376	0.000933	20.884579
143.043315	-2.984400	3.860800	-11.521000	21.884382	0.000933	20.892486
144.043474	-2.994400	3.860200	-11.556000	21.891834	0.000934	20.869127
145.038320	-2.993400	3.860000	-11.553000	21.864394	0.000933	20.886704
146.042195	-3.017700	3.856400	-11.637000	21.883419	0.000934	20.893892
147.035898	-2.998100	3.858900	-11.569000	21.885329	0.000934	20.903391
148.040853	-2.998000	3.858300	-11.566000	21.898822	0.000935	20.892241
149.036537	-3.007500	3.856900	-11.598000	21.888874	0.000934	20.888922
150.037188	-3.009800	3.858400	-11.612000	21.891344	0.000935	20.896610
151.037549	-2.997600	3.857900	-11.563000	21.901292	0.000934	20.906092
152.036739	-3.002300	3.857800	-11.581000	21.922068	0.000937	20.901284
153.035322	-2.993200	3.858700	-11.549000	21.914683	0.000936	20.914753
154.037654	-2.996000	3.858000	-11.557000	21.927972	0.000936	20.888228
155.043453	-2.999300	3.858200	-11.570000	21.951182	0.000936	20.910037
156.034753	-3.004200	3.856900	-11.585000	21.975543	0.000936	20.899336
157.047385	-2.979000	3.857200	-11.490000	21.984399	0.000937	20.913416
158.045217	-2.993000	3.855000	-11.537000	21.991419	0.000938	20.901478
159.040489	-3.005500	3.855100	-11.586000	21.979552	0.000936	20.916624
160.041402	-3.004200	3.854900	-11.578000	22.004420	0.000938	20.910225
161.045551	-2.995600	3.855100	-11.547000	22.007192	0.000937	20.912052
162.037888	-2.990900	3.856200	-11.532000	22.009325	0.000940	20.907075
163.039384	-3.012200	3.855000	-11.611000	22.020617	0.000938	20.896094
164.041446	-3.000500	3.854400	-11.563000	22.008480	0.000940	20.898169
165.053155	-3.022300	3.854000	-11.647000	22.027966	0.000940	20.920993
166.045863	-2.983300	3.854700	-11.498000	22.040341	0.000939	20.923898
167.042195	-3.001600	3.854800	-11.570000	22.059665	0.000940	20.897727
168.041105	-3.000900	3.853800	-11.563000	22.059894	0.000940	20.912179
169.051228	-3.001900	3.853600	-11.567000	22.059548	0.000941	20.927952
170.048781	-3.018600	3.852900	-11.629000	22.096592	0.000941	20.930424
171.043386	-2.999400	3.852500	-11.554000	22.084100	0.000940	20.930246
172.051054	-3.018200	3.854400	-11.633000	22.090375	0.000942	20.909503
173.043245	-3.004000	3.852900	-11.573000	22.119596	0.000942	20.925479
174.043092	-3.000700	3.855100	-11.567000	22.124577	0.000943	20.921932
175.045065	-3.003600	3.853000	-11.572000	22.116026	0.000943	20.933285
176.046018	-3.030400	3.851300	-11.669000	22.137119	0.000943	20.930694
177.047477	-2.970200	3.853400	-11.444000	22.119113	0.000944	20.942063
178.045039	-3.016200	3.850600	-11.613000	22.124052	0.000945	20.915717
179.047633	-3.002100	3.852000	-11.563000	22.128264	0.000944	20.944587
180.056720	-2.965700	3.853700	-11.428000	22.122015	0.000944	20.921737
181.052375	-2.990600	3.852000	-11.519000	22.135444	0.000944	20.927595
182.044304	-2.996600	3.852300	-11.543000	22.148832	0.000945	20.923930
183.050808	-3.016400	3.850700	-11.613000	22.146693	0.000945	20.939804
184.050853	-2.994700	3.851100	-11.531000	22.172079	0.000944	20.933453
185.052506	-3.025000	3.850400	-11.646000	22.180791	0.000948	20.949286
186.047401	-2.980900	3.851600	-11.480000	22.174152	0.000946	20.933631
187.048520	-3.012300	3.849800	-11.596000	22.159099	0.000946	20.939896
188.054658	-3.004200	3.851900	-11.571000	22.169873	0.000945	20.935986
189.047697	-3.003200	3.849200	-11.558000	22.180960	0.000947	20.948506
190.047174	-3.009000	3.849600	-11.583000	22.178474	0.000949	20.948389
191.060889	-3.002700	3.849400	-11.557000	22.175928	0.000947	20.930195
192.064372	-2.997800	3.850200	-11.542000	22.183954	0.000949	20.952452
193.049788	-3.000400	3.850200	-11.550000	22.186592	0.000947	20.931388
194.054671	-3.002600	3.849300	-11.557000	22.197062	0.000947	20.958462
195.056042	-2.996300	3.849700	-11.533000	22.219844	0.000950	20.926749
196.048491	-3.005500	3.849900	-11.568000	22.216182	0.000950	20.968596
197.055466	-3.009200	3.849900	-11.584000	22.222879	0.000950	20.935003
198.066894	-2.983800	3.849200	-11.484000	22.217180	0.000950	20.951106
199.058138	-2.998800	3.847400	-11.536000	22.224799	0.000951	20.954940
200.052614	-2.990800	3.848500	-11.510000	22.239158	0.000951	20.937077
201.062338	-3.015900	3.847600	-11.603000	22.231699	0.000950	20.953314
202.049167	-2.994300	3.847500	-11.520000	22.252341	0.000950	20.944112
203.060657	-3.008700	3.847600	-11.575000	22.257872	0.000951	20.946804
204.050235	-3.017000	3.845900	-11.602000	22.266996	0.000951	20.952147
205.058036	-3.021200	3.845300	-11.616000	22.287924	0.000954	20.952239
206.056181	-2.976700	3.848100	-11.453000	22.310520	0.000953	20.953053
207.058223	-2.992100	3.847100	-11.509000	22.328683	0.000955	20.941844
208.057906	-2.989500	3.846500	-11.499000	22.284711	0.000953	20.950444
209.058062	-3.003700	3.848700	-11.559000	22.269008	0.000955	20.932827
210.055901	-3.018200	3.846300	-11.608000	22.291350	0.000955	20.949031
211.052396	-3.015700	3.845600	-11.596000	22.302063	0.000955	20.928467
212.057715	-2.988500	3.848100	-11.499000	22.285480	0.000956	20.928932
213.056540	-3.010800	3.844700	-11.575000	22.290683	0.000957	20.935089
214.058543	-2.998600	3.846400	-11.533000	22.307238	0.000957	20.918476
215.055688	-2.998100	3.846100	-11.530000	22.306503	0.000956	20.940498
216.063959	-3.017100	3.843300	-11.594000	22.309538	0.000956	20.939270
217.068266	-2.992400	3.845200	-11.504000	22.306401	0.000957	20.931388
218.067774	-2.983600	3.846100	-11.473000	22.314207	0.000957	20.943944
219.059144	-2.996200	3.845100	-11.519000	22.318586	0.000958	20.915616
220.059556	-2.987300	3.844500	-11.484000	22.324650	0.000957	20.933065
221.064351	-3.014400	3.843000	-11.584000	22.327033	0.000958	20.937348
222.059059	-3.025700	3.843400	-11.628000	22.342288	0.000959	20.912796
223.064882	-3.019900	3.842500	-11.602000	22.353626	0.000959	20.904711
224.059846	-3.007100	3.842800	-11.554000	22.363967	0.000958	20.908902
225.058700	-2.991400	3.843000	-11.494000	22.369472	0.000960	20.930058
226.060479	-2.997300	3.842500	-11.516000	22.379990	0.000960	20.928264
227.063283	-3.023400	3.841900	-11.614000	22.346972	0.000960	20.911323
228.064558	-3.006900	3.843600	-11.556000	22.370308	0.000964	20.927103
229.060978	-3.014300	3.840900	-11.577000	22.364085	0.000963	20.905227
230.079175	-2.993700	3.840900	-11.497000	22.382256	0.000962	20.925791
231.061158	-2.992800	3.842000	-11.497000	22.362614	0.000963	20.920347
232.065818	-2.972100	3.842900	-11.421000	22.382196	0.000963	20.908189
233.065160	-2.991300	3.842300	-11.493000	22.382288	0.000965	20.905911
234.065642	-2.997800	3.841800	-11.516000	22.395876	0.000965	20.910983
235.074443	-3.021200	3.840400	-11.603000	22.393982	0.000968	20.906242
236.072802	-3.015600	3.840300	-11.580000	22.410291	0.000965	20.907875
237.064792	-2.985100	3.841400	-11.465000	22.423997	0.000968	20.919702
238.058741	-3.012200	3.839700	-11.565000	22.414155	0.000968	20.908425
239.068199	-3.014300	3.839200	-11.571000	22.415499	0.000969	20.912142
240.066549	-3.001000	3.840000	-11.524000	22.415363	0.000967	20.906790
241.064847	-3.002500	3.840300	-11.530000	22.414553	0.000969	20.916883
242.064254	-2.993600	3.840400	-11.496000	22.421493	0.000966	20.919091
243.062816	-2.999600	3.839000	-11.515000	22.417908	0.000968	20.901279
244.064003	-2.988700	3.840400	-11.477000	22.410349	0.000970	20.882330
245.067906	-2.978600	3.840400	-11.438000	22.442174	0.000971	20.910405
246.065117	-3.013800	3.839900	-11.572000	22.427073	0.000969	20.914248
247.069108	-2.985400	3.839200	-11.461000	22.427461	0.000969	20.904680
248.068329	-3.009500	3.838500	-11.550000	22.435882	0.000971	20.887985
249.072630	-3.022400	3.838700	-11.600000	22.464942	0.000971	20.890533
250.070265	-3.019200	3.838100	-11.586000	22.462870	0.000973	20.897467
251.078866	-2.976200	3.840000	-11.428000	22.471138	0.000970	20.876826
252.061911	-3.015900	3.837300	-11.572000	22.469743	0.000972	20.908143
253.073050	-3.000400	3.837900	-11.513000	22.485367	0.000973	20.892497
254.060613	-3.021500	3.837400	-11.594000	22.453772	0.000975	20.906373
255.062370	-2.990800	3.836900	-11.474000	22.502538	0.000974	20.891202
256.063342	-3.007300	3.835500	-11.533000	22.486584	0.000973	20.896560
257.075183	-2.998600	3.839000	-11.511000	22.495259	0.000977	20.879171
258.062719	-2.985000	3.837200	-11.453000	22.494455	0.000975	20.868409
259.061852	-2.998000	3.837000	-11.502000	22.496451	0.000975	20.889372
260.067494	-2.988500	3.835900	-11.462000	22.514696	0.000978	20.895790
261.064928	-2.986200	3.836400	-11.455000	22.521324	0.000979	20.882515
262.062493	-3.004900	3.835500	-11.524000	22.534174	0.000979	20.906762
263.076608	-3.009600	3.836400	-11.545000	22.541377	0.000978	20.891692
264.068197	-3.001600	3.834300	-11.509000	22.562309	0.000979	20.888475
265.063867	-3.004100	3.834300	-11.517000	22.566891	0.000979	20.893538
266.071738	-2.994200	3.835800	-11.485000	22.575514	0.000979	20.888424
267.071132	-2.993000	3.836500	-11.481000	22.575565	0.000980	20.881363
268.066737	-2.998100	3.835300	-11.498000	22.601644	0.000980	20.875241
269.070643	-3.022700	3.834000	-11.589000	22.613174	0.000981	20.873988
270.066961	-3.003400	3.834000	-11.513000	22.602219	0.000980	20.902842
271.072652	-2.991100	3.835200	-11.470000	22.616758	0.000980	20.877103
272.073652	-2.991400	3.834200	-11.468000	22.637664	0.000981	20.881446
273.085400	-2.989900	3.833900	-11.462000	22.650960	0.000982	20.884807
274.073160	-3.007100	3.832100	-11.523000	22.659650	0.000983	20.884501
275.066814	-2.980900	3.833800	-11.427000	22.640495	0.000984	20.868636
276.082045	-2.989600	3.834000	-11.460000	22.632641	0.000983	20.869304
277.071908	-3.002600	3.831700	-11.504000	22.631339	0.000984	20.873689
278.081297	-2.997900	3.833300	-11.491000	22.637680	0.000984	20.875299
279.076324	-2.968800	3.832400	-11.377000	22.613324	0.000987	20.889310
280.069093	-3.022300	3.831400	-11.579000	22.626926	0.000984	20.860735
281.076034	-2.993700	3.830400	-11.466000	22.594429	0.000984	20.875128
282.071536	-2.989000	3.832300	-11.453000	22.637026	0.000985	20.871799
283.089882	-3.001400	3.830500	-11.496000	22.634955	0.000989	20.872095
284.078681	-3.012700	3.830900	-11.541000	22.658523	0.000987	20.873890
285.081433	-2.986200	3.831200	-11.439000	22.635047	0.000987	20.884041
286.082717	-2.991500	3.830000	-11.457000	22.656019	0.000988	20.884658
287.075187	-3.014500	3.828800	-11.541000	22.648563	0.000991	20.869130
288.076141	-2.989400	3.830700	-11.449000	22.644979	0.000990	20.866489
289.075905	-2.985000	3.830300	-11.432000	22.655038	0.000989	20.870400
290.073853	-3.026600	3.828500	-11.586000	22.659737	0.000988	20.887908
291.074245	-3.005200	3.828100	-11.502000	22.680785	0.000990	20.875326
292.078154	-3.014500	3.828900	-11.541000	22.668004	0.000991	20.862051
293.078895	-3.008000	3.828500	-11.515000	22.643480	0.000992	20.875893
294.073016	-3.006100	3.827900	-11.506000	22.677758	0.000992	20.895052
295.089796	-3.009200	3.828900	-11.521000	22.673691	0.000991	20.876756
296.080371	-3.009400	3.828000	-11.519000	22.682879	0.000992	20.876002
297.073758	-2.992900	3.828300	-11.457000	22.675128	0.000995	20.879616
298.077414	-2.990700	3.828500	-11.449000	22.694206	0.000994	20.847993
299.081466	-3.018000	3.827700	-11.552000	22.674924	0.000994	20.863293
300.081987	-2.978600	3.827400	-11.399000	22.679598	0.000993	20.871293
301.093470	-2.985200	3.827300	-11.425000	22.708820	0.000995	20.876381
302.076221	-2.986000	3.826500	-11.425000	22.713299	0.000996	20.866644
303.078348	-3.014300	3.826000	-11.531000	22.715202	0.000998	20.875187
304.082586	-3.014900	3.826900	-11.537000	22.689784	0.000997	20.872486
305.087689	-2.999200	3.824900	-11.471000	22.721871	0.000996	20.847256
306.081539	-2.990500	3.826700	-11.442000	22.742038	0.000996	20.857973
307.078373	-2.996200	3.827000	-11.465000	22.773592	0.000998	20.854969
308.078773	-2.988500	3.824300	-11.428000	22.769914	0.000996	20.879258
309.080837	-3.001900	3.824900	-11.481000	22.789963	0.001000	20.875634
310.095711	-2.991200	3.825100	-11.439000	22.773498	0.000999	20.834486
311.083041	-3.002400	3.826100	-11.486000	22.776903	0.001000	20.878199
312.079821	-2.991500	3.823900	-11.437000	22.769321	0.001001	20.863018
313.077563	-3.004500	3.824200	-11.489000	22.753227	0.001001	20.836466
314.087867	-2.964600	3.823600	-11.335000	22.776986	0.001002	20.865481
315.090861	-2.999700	3.825200	-11.473000	22.764747	0.001001	20.851324
316.093287	-3.010300	3.823300	-11.509000	22.784560	0.001003	20.851731
317.088827	-2.982900	3.823800	-11.405000	22.803163	0.001003	20.844762
318.090484	-3.013500	3.822900	-11.519000	22.789706	0.001004	20.861153
319.102710	-2.993400	3.823600	-11.445000	22.796695	0.001002	20.862939
320.084445	-2.997300	3.822400	-11.454000	22.788633	0.001005	20.854388
321.088773	-3.001100	3.823100	-11.473000	22.786308	0.001003	20.858223
322.105051	-2.993800	3.822400	-11.442000	22.792849	0.001003	20.843914
323.085525	-3.001100	3.822700	-11.471000	22.825584	0.001008	20.861059
324.081460	-3.014400	3.821300	-11.518000	22.844288	0.001006	20.871261
325.088402	-2.996500	3.822800	-11.453000	22.842182	0.001006	20.843548
326.086302	-3.013300	3.820600	-11.512000	22.857353	0.001007	20.834091
327.083866	-2.995000	3.820300	-11.439000	22.888946	0.001007	20.844878
328.089789	-2.990800	3.821100	-11.428000	22.869050	0.001007	20.868092
329.082874	-3.004600	3.822100	-11.484000	22.892469	0.001009	20.854571
330.092886	-2.994800	3.820200	-11.440000	22.904664	0.001007	20.869158
331.098094	-3.000500	3.821000	-11.463000	22.910225	0.001009	20.866196
332.084435	-2.988900	3.820600	-11.419000	22.918608	0.001009	20.839508
333.090132	-3.026000	3.819600	-11.556000	22.879250	0.001008	20.845121
334.085757	-2.999800	3.819800	-11.456000	22.869066	0.001009	20.814531
335.092810	-3.004800	3.818700	-11.473000	22.889230	0.001010	20.858439
336.094850	-3.003200	3.818800	-11.467000	22.908492	0.001010	20.843597
337.089657	-2.996700	3.818900	-11.443000	22.893887	0.001010	20.852673
338.090475	-2.997800	3.818600	-11.446000	22.891622	0.001011	20.830490
339.091978	-3.010600	3.817100	-11.490000	22.898941	0.001010	20.857736
340.101295	-2.986200	3.817900	-11.400000	22.887928	0.001011	20.850971
341.091866	-2.999700	3.818000	-11.451000	22.877338	0.001013	20.837991
342.109513	-3.005700	3.818000	-11.475000	22.875715	0.001014	20.829253
343.087090	-2.975300	3.816900	-11.354000	22.880245	0.001014	20.842799
344.094689	-3.009500	3.817800	-11.489000	22.868025	0.001012	20.838618
345.088831	-3.000100	3.817200	-11.451000	22.856901	0.001015	20.870146
346.092649	-3.018400	3.815900	-11.517000	22.868810	0.001016	20.836085
347.100863	-3.000400	3.814900	-11.445000	22.841679	0.001016	20.842570
348.094872	-2.992000	3.815500	-11.416000	22.876036	0.001017	20.849488
349.101629	-2.994100	3.816900	-11.426000	22.890953	0.001016	20.838828
350.090050	-3.003300	3.816700	-11.461000	22.925629	0.001018	20.821886
351.092996	-2.999400	3.815000	-11.442000	22.907864	0.001018	20.844865
352.095405	-3.023400	3.814600	-11.532000	22.927707	0.001018	20.826813
353.097073	-2.978900	3.814900	-11.363000	22.973368	0.001018	20.829413
354.094153	-3.019200	3.814300	-11.515000	22.961038	0.001017	20.857361
355.091286	-3.009300	3.813900	-11.476000	22.977399	0.001016	20.856209
356.093376	-3.011100	3.813600	-11.482000	22.967858	0.001019	20.833375
357.100069	-2.993200	3.813500	-11.412000	22.972632	0.001021	20.844796
358.093681	-3.024800	3.813600	-11.535000	22.995424	0.001019	20.830648
359.092465	-3.010500	3.813100	-11.479000	22.982148	0.001020	20.839157
360.093587	-2.994500	3.813100	-11.417000	23.015503	0.001021	20.844127
361.093373	-3.014000	3.813000	-11.492000	22.994595	0.001022	20.827921
362.096520	-2.987900	3.812300	-11.390000	23.027147	0.001023	20.847259
363.102381	-3.009100	3.812300	-11.471000	23.001373	0.001024	20.830444
364.106261	-2.996300	3.812700	-11.423000	22.986635	0.001023	20.824687
365.095250	-2.993300	3.812200	-11.410000	22.987827	0.001022	20.835364
366.092162	-3.003900	3.811400	-11.449000	23.028372	0.001022	20.835211
367.100629	-2.967600	3.812700	-11.312000	23.027223	0.001023	20.835008
368.095756	-2.982300	3.811000	-11.364000	23.009764	0.001023	20.832688
369.099967	-2.998900	3.811700	-11.429000	23.020201	0.001024	20.832713
370.094625	-2.987100	3.811300	-11.383000	23.050960	0.001023	20.834136
371.114054	-2.988100	3.811900	-11.389000	23.033114	0.001023	20.824315
372.100118	-3.014700	3.809500	-11.484000	23.037135	0.001024	20.847784
373.098842	-2.989100	3.810700	-11.390000	23.074697	0.001028	20.821884
374.104694	-2.975900	3.809800	-11.337000	23.071156	0.001027	20.820233
375.103585	-2.999200	3.810100	-11.425000	23.080468	0.001026	20.819132
376.104064	-3.010500	3.809100	-11.466000	23.076310	0.001028	20.846734
377.111885	-3.002000	3.808700	-11.433000	23.093904	0.001026	20.823112
378.105814	-3.010500	3.807900	-11.461000	23.081499	0.001028	20.832968
379.113844	-3.010000	3.808600	-11.464000	23.101948	0.001029	20.830699
380.103230	-3.021400	3.808200	-11.506000	23.125945	0.001029	20.832933
381.102026	-2.997500	3.808800	-11.417000	23.122446	0.001030	20.812358
382.097822	-2.992800	3.808700	-11.396000	23.138991	0.001028	20.828936
383.098691	-2.997200	3.807400	-11.411000	23.107364	0.001032	20.825694
384.106190	-3.018700	3.805700	-11.486000	23.111124	0.001031	20.828513
385.105214	-3.005500	3.806800	-11.440000	23.114741	0.001030	20.817913
386.111174	-2.998600	3.805900	-11.411000	23.089662	0.001033	20.821706
387.101879	-2.979900	3.807200	-11.343000	23.097849	0.001032	20.818057
388.113074	-3.014200	3.806600	-11.473000	23.096776	0.001032	20.822197
389.106996	-2.995400	3.805500	-11.398000	23.063617	0.001033	20.832119
390.101263	-2.995800	3.807000	-11.404000	23.091164	0.001033	20.804246
391.105476	-2.968700	3.807100	-11.301000	23.123672	0.001035	20.828284
392.106975	-2.996500	3.805800	-11.403000	23.091739	0.001034	20.818572
393.116090	-2.988200	3.805100	-11.369000	23.092406	0.001036	20.823508
394.105180	-2.968200	3.806000	-11.296000	23.121541	0.001034	20.814770
395.113342	-2.999300	3.805300	-11.412000	23.126899	0.001034	20.814923
396.106851	-3.009300	3.804000	-11.446000	23.140764	0.001035	20.824075
397.112791	-2.997000	3.803900	-11.398000	23.139014	0.001036	20.812365
398.109268	-2.986600	3.804300	-11.360000	23.131393	0.001035	20.817530
399.106328	-3.005200	3.804400	-11.432000	23.144321	0.001036	20.820527
400.108433	-3.006600	3.802700	-11.432000	23.156691	0.001037	20.795464
401.108856	-3.011100	3.802600	-11.449000	23.180974	0.001037	20.811264
402.111123	-3.004700	3.803500	-11.426000	23.182486	0.001036	20.813253
403.111962	-3.009500	3.801200	-11.438000	23.193588	0.001039	20.801145
404.123916	-2.992500	3.802600	-11.378000	23.204150	0.001037	20.805565
405.107596	-3.000700	3.800700	-11.404000	23.169432	0.001038	20.792585
406.108901	-3.002300	3.801900	-11.412000	23.159241	0.001038	20.812719
407.117457	-2.993700	3.800000	-11.375000	23.164151	0.001039	20.832337
408.116157	-2.986300	3.801600	-11.350000	23.165443	0.001036	20.803761
409.117739	-2.999700	3.801100	-11.401000	23.187885	0.001038	20.806335
410.110848	-2.985800	3.800900	-11.347000	23.152388	0.001038	20.809171
411.110724	-2.994100	3.801400	-11.381000	23.169067	0.001038	20.808815
412.115414	-2.970400	3.800400	-11.287000	23.156021	0.001037	20.799061
413.112424	-2.995200	3.800200	-11.381000	23.196790	0.001041	20.809569
414.110754	-3.033700	3.798900	-11.524000	23.208247	0.001039	20.800188
415.107262	-2.998700	3.800400	-11.395000	23.218377	0.001040	20.812236
416.119124	-2.996200	3.800200	-11.385000	23.208076	0.001041	20.796224
417.122310	-3.006600	3.799500	-11.422000	23.224992	0.001043	20.807485
418.110145	-2.991000	3.798500	-11.360000	23.197076	0.001041	20.816494
419.116848	-2.992200	3.798400	-11.363000	23.215148	0.001041	20.802362
420.119416	-3.010200	3.798100	-11.433000	23.202990	0.001042	20.803928
421.117466	-3.008400	3.798100	-11.425000	23.221696	0.001044	20.809872
422.109999	-3.012900	3.796200	-11.437000	23.229207	0.001044	20.815028
423.108945	-2.969800	3.797500	-11.277000	23.191938	0.001045	20.796173
424.118782	-3.010800	3.797000	-11.430000	23.215578	0.001045	20.797577
425.117033	-2.981600	3.798600	-11.326000	23.205000	0.001045	20.805469
426.113196	-2.980800	3.797700	-11.317000	23.214209	0.001043	20.802843
427.119844	-3.002000	3.795700	-11.393000	23.212164	0.001045	20.806958
428.117435	-2.998500	3.795000	-11.378000	23.213254	0.001046	20.777704
429.120597	-2.987500	3.796700	-11.342000	23.189275	0.001046	20.813418
430.121046	-2.999200	3.794500	-11.380000	23.174286	0.001046	20.793182
431.111012	-3.005400	3.795000	-11.403000	23.193940	0.001045	20.807187
432.122865	-3.000900	3.795100	-11.387000	23.195544	0.001047	20.806898
433.114818	-2.991700	3.794900	-11.352000	23.203842	0.001047	20.805730
434.109070	-2.976300	3.795000	-11.294000	23.184315	0.001045	20.810819
435.118210	-2.991300	3.793200	-11.345000	23.230862	0.001046	20.799617
436.109631	-3.009500	3.793500	-11.415000	23.233345	0.001048	20.813960
437.112199	-2.996400	3.793800	-11.366000	23.260821	0.001048	20.798821
438.116716	-2.980200	3.794000	-11.305000	23.286132	0.001049	20.807118
439.125822	-3.016800	3.791600	-11.438000	23.301027	0.001048	20.802605
440.111817	-2.992800	3.792900	-11.350000	23.296128	0.001048	20.809075
441.117880	-3.006500	3.791400	-11.397000	23.314291	0.001048	20.802148
442.112220	-3.004000	3.792200	-11.392000	23.316420	0.001049	20.796696
443.122673	-3.010100	3.790500	-11.409000	23.289393	0.001050	20.799007
444.121402	-2.997600	3.792100	-11.367000	23.321810	0.001051	20.801623
445.112169	-3.008900	3.789200	-11.400000	23.320787	0.001050	20.806762
446.136824	-2.999700	3.791200	-11.371000	23.335031	0.001050	20.815822
447.127629	-2.999300	3.790900	-11.369000	23.320238	0.001050	20.822332
448.119998	-2.971700	3.792400	-11.269000	23.370183	0.001052	20.805060
449.130779	-2.986200	3.791500	-11.321000	23.354444	0.001051	20.824847
450.121166	-2.992200	3.790800	-11.342000	23.378410	0.001051	20.805719
451.121440	-3.008900	3.788900	-11.400000	23.413721	0.001050	20.803654
452.125431	-3.015500	3.788000	-11.421000	23.408762	0.001050	20.826184
453.125996	-2.997900	3.788800	-11.356000	23.395761	0.001051	20.811256
454.134126	-3.009400	3.788600	-11.401000	23.377835	0.001052	20.815100
455.138174	-2.992100	3.789500	-11.337000	23.392669	0.001051	20.811002
456.130291	-3.004500	3.788200	-11.381000	23.375528	0.001051	20.806624
457.124092	-3.009000	3.787500	-11.395000	23.359367	0.001053	20.818875
458.126004	-2.998400	3.788100	-11.356000	23.361901	0.001053	20.807665
459.128986	-2.992700	3.787800	-11.335000	23.377783	0.001052	20.821686
460.122828	-3.013200	3.787200	-11.410000	23.344835	0.001053	20.805734
461.130954	-3.003400	3.787400	-11.374000	23.332551	0.001051	20.800535
462.137524	-2.983600	3.786800	-11.297000	23.323630	0.001052	20.801076
463.127860	-3.006100	3.785800	-11.379000	23.339293	0.001054	20.822938
464.131526	-2.991300	3.787200	-11.328000	23.362998	0.001055	20.833894
465.130435	-2.980500	3.786400	-11.283000	23.341176	0.001055	20.811549
466.131081	-3.006000	3.785200	-11.378000	23.387141	0.001055	20.813996
467.139103	-2.987300	3.786000	-11.309000	23.372323	0.001056	20.837551
468.127695	-3.021600	3.783800	-11.432000	23.384082	0.001056	20.830844
469.134223	-3.025800	3.782700	-11.445000	23.377045	0.001056	20.796291
470.129178	-3.007000	3.783500	-11.375000	23.408850	0.001056	20.837177
471.130364	-3.007700	3.783600	-11.379000	23.434395	0.001058	20.817263
472.138413	-3.003200	3.783600	-11.362000	23.415067	0.001056	20.825864
473.130260	-3.005700	3.784100	-11.373000	23.445342	0.001056	20.827287
474.129823	-3.016100	3.783000	-11.408000	23.461366	0.001058	20.808735
475.130381	-2.991600	3.782100	-11.314000	23.479865	0.001057	20.816847
476.139129	-3.019000	3.782700	-11.418000	23.499952	0.001057	20.824179
477.132747	-2.965800	3.783300	-11.219000	23.498727	0.001056	20.810623
478.140749	-2.977800	3.783100	-11.264000	23.486977	0.001058	20.813070
479.133090	-2.966100	3.782900	-11.219000	23.508128	0.001058	20.818149
480.129858	-3.019400	3.781100	-11.415000	23.490820	0.001060	20.826404
481.140185	-2.995900	3.781500	-11.327000	23.489772	0.001058	20.822035
482.130041	-3.028600	3.779400	-11.445000	23.540706	0.001058	20.801968
483.138247	-3.015000	3.780500	-11.397000	23.522385	0.001058	20.831019
484.130573	-2.977800	3.779800	-11.254000	23.556719	0.001059	20.833193
485.140470	-3.019000	3.780100	-11.411000	23.582921	0.001059	20.814889
486.130124	-2.994400	3.780600	-11.320000	23.597152	0.001059	20.825836
487.127195	-2.985600	3.779400	-11.282000	23.550951	0.001059	20.823144
488.137700	-2.997700	3.778900	-11.326000	23.555266	0.001059	20.827469
489.136194	-3.013500	3.779200	-11.387000	23.567294	0.001060	20.821509
490.130193	-3.010400	3.778400	-11.373000	23.563408	0.001059	20.819985
491.135314	-3.017500	3.779000	-11.401000	23.551279	0.001059	20.826792
492.135169	-3.012500	3.776700	-11.376000	23.543381	0.001060	20.828832
493.135874	-3.016800	3.778300	-11.398000	23.530382	0.001060	20.818172
494.134810	-3.005400	3.777600	-11.352000	23.527509	0.001060	20.836155
495.134765	-3.013200	3.776600	-11.377000	23.507043	0.001061	20.841243
496.137174	-3.020100	3.777100	-11.406000	23.495411	0.001059	20.816782
497.134522	-2.985200	3.777600	-11.276000	23.528894	0.001061	20.819051
498.135550	-2.996800	3.775800	-11.314000	23.513589	0.001061	20.822201
499.137746	-2.989100	3.776700	-11.287000	23.517170	0.001062	20.817256
500.141543	-2.972800	3.774800	-11.221000	23.508621	0.001063	20.830972
501.136957	-3.002300	3.775200	-11.333000	23.516739	0.001061	20.829152
502.148810	-2.994200	3.774300	-11.300000	23.531225	0.001061	20.839879
503.140254	-3.007900	3.773700	-11.350000	23.542247	0.001061	20.832911
504.136389	-3.005800	3.773500	-11.341000	23.554368	0.001061	20.820405
505.142986	-2.993900	3.773200	-11.296000	23.566843	0.001062	20.833385
506.135148	-3.006100	3.774100	-11.343000	23.551107	0.001063	20.814292
507.139461	-3.006600	3.773000	-11.342000	23.527854	0.001062	20.833655
508.150437	-3.032500	3.771400	-11.435000	23.531537	0.001063	20.835924
509.143076	-3.004500	3.773200	-11.336000	23.538378	0.001063	20.848472
510.155467	-3.003200	3.773600	-11.332000	23.547289	0.001063	20.813783
511.137730	-3.000200	3.772700	-11.318000	23.547010	0.001062	20.850012
512.139615	-2.993300	3.771100	-11.287000	23.532921	0.001063	20.823562
513.138999	-2.992800	3.772600	-11.289000	23.546173	0.001062	20.838742
514.140186	-3.006600	3.773000	-11.343000	23.572146	0.001065	20.824476
515.140936	-3.004500	3.770300	-11.327000	23.609183	0.001062	20.854491
516.134810	-3.002600	3.770700	-11.320000	23.603101	0.001065	20.832748
517.138955	-2.982800	3.770700	-11.247000	23.606936	0.001064	20.844178
518.139615	-2.975100	3.770500	-11.216000	23.601775	0.001066	20.848013
519.137465	-2.997100	3.771800	-11.303000	23.623379	0.001063	20.854972
520.140635	-3.003600	3.769700	-11.322000	23.604401	0.001066	20.860602
521.150784	-3.005900	3.770600	-11.333000	23.576942	0.001065	20.849672
522.144358	-2.983300	3.768400	-11.240000	23.592331	0.001066	20.854193
523.146562	-3.005000	3.767300	-11.320000	23.606436	0.001065	20.846522
524.145056	-3.003200	3.769300	-11.318000	23.613378	0.001066	20.849214
525.151724	-3.001900	3.767700	-11.309000	23.623978	0.001065	20.838503
526.151398	-2.974800	3.767400	-11.207000	23.607744	0.001067	20.840247
527.147774	-3.011400	3.767500	-11.343000	23.647837	0.001066	20.826861
528.151787	-2.982200	3.769100	-11.239000	23.648360	0.001068	20.852515
529.144830	-3.004700	3.767200	-11.318000	23.647431	0.001066	20.854902
530.146881	-3.018500	3.766500	-11.368000	23.657557	0.001066	20.848459
531.145808	-3.013700	3.764600	-11.344000	23.644854	0.001066	20.850423
532.144743	-2.987200	3.767000	-11.252000	23.669905	0.001066	20.870794
533.153962	-3.004000	3.765800	-11.312000	23.661745	0.001065	20.867355
534.146512	-3.012200	3.765000	-11.341000	23.643300	0.001065	20.853606
535.144661	-3.004800	3.763800	-11.308000	23.650157	0.001068	20.870437
536.157143	-3.022600	3.764200	-11.376000	23.644364	0.001067	20.872215
537.150671	-2.999700	3.763500	-11.289000	23.637961	0.001066	20.854418
538.145522	-2.995200	3.763400	-11.271000	23.672276	0.001065	20.853257
539.148078	-3.012400	3.762700	-11.333000	23.693727	0.001068	20.852004
540.150506	-3.010300	3.763300	-11.328000	23.711048	0.001068	20.861783
541.151878	-3.017100	3.764400	-11.356000	23.728445	0.001066	20.857414
542.163278	-2.999800	3.763700	-11.288000	23.741383	0.001066	20.862324
543.161907	-2.997200	3.761500	-11.273000	23.757716	0.001067	20.859260
544.158718	-2.998000	3.761200	-11.276000	23.746315	0.001068	20.857787
545.152644	-2.989700	3.763600	-11.251000	23.773516	0.001066	20.871307
546.151868	-3.001700	3.761300	-11.289000	23.776817	0.001067	20.852808
547.148565	-2.997500	3.762200	-11.275000	23.771235	0.001066	20.869021
548.150177	-3.006200	3.760200	-11.303000	23.791342	0.001067	20.867844
549.161819	-2.980400	3.760300	-11.206000	23.772400	0.001069	20.884413
550.162797	-2.983400	3.761200	-11.219000	23.811549	0.001067	20.854441
551.155875	-3.013600	3.760200	-11.331000	23.794449	0.001068	20.873330
552.155376	-2.995200	3.760800	-11.262000	23.778083	0.001069	20.868300
553.153827	-3.019100	3.759800	-11.350000	23.790269	0.001068	20.867243
554.155973	-3.002200	3.760100	-11.288000	23.773379	0.001067	20.872593
555.169362	-3.005800	3.758500	-11.296000	23.772687	0.001066	20.871899
556.174808	-3.013800	3.757800	-11.323000	23.764182	0.001069	20.861476
557.158461	-3.004500	3.757600	-11.289000	23.778023	0.001068	20.856861
558.162107	-2.994800	3.759800	-11.258000	23.815957	0.001069	20.863127
559.154810	-3.009300	3.756900	-11.305000	23.809445	0.001069	20.889313
560.157743	-3.002300	3.757500	-11.280000	23.818455	0.001067	20.868477
561.173171	-3.017400	3.756000	-11.332000	23.834736	0.001066	20.861094
562.160814	-2.998500	3.756500	-11.262000	23.847369	0.001069	20.844838
563.159178	-3.034400	3.755200	-11.393000	23.842573	0.001066	20.864684
564.172051	-2.998000	3.756500	-11.261000	23.850653	0.001066	20.878950
565.163888	-3.020600	3.756100	-11.345000	23.833798	0.001067	20.883386
566.163647	-2.996200	3.754200	-11.248000	23.869534	0.001069	20.862321
567.168367	-2.991900	3.755500	-11.235000	23.880140	0.001067	20.877696
568.160302	-2.992400	3.754600	-11.235000	23.873292	0.001068	20.898329
569.160249	-3.020100	3.754400	-11.338000	23.882064	0.001069	20.892901
570.170712	-3.004700	3.754700	-11.281000	23.883010	0.001068	20.883893
571.166242	-3.006700	3.754000	-11.286000	23.886818	0.001067	20.884393
572.176826	-3.007300	3.753600	-11.288000	23.888634	0.001068	20.886213
573.160583	-3.013500	3.752900	-11.308000	23.874988	0.001068	20.888177
574.159481	-3.005000	3.753700	-11.278000	23.880392	0.001069	20.897863
575.167619	-3.014100	3.752700	-11.309000	23.848980	0.001069	20.895763
576.174246	-2.988800	3.753800	-11.218000	23.829094	0.001069	20.872031
577.172305	-2.984000	3.753400	-11.199000	23.829533	0.001069	20.884324
578.160431	-3.016400	3.752800	-11.319000	23.809731	0.001069	20.897185
579.163166	-2.987800	3.752200	-11.209000	23.831948	0.001069	20.896702
580.159731	-2.996600	3.751300	-11.239000	23.823258	0.001069	20.899843
581.163976	-2.993800	3.751600	-11.230000	23.841253	0.001067	20.896550
582.172519	-3.032800	3.750000	-11.372000	23.853025	0.001068	20.903611
583.165021	-2.982600	3.751900	-11.190000	23.879252	0.001068	20.886762
584.162215	-3.012200	3.750200	-11.294000	23.875047	0.001071	20.896770
585.162186	-3.002900	3.750400	-11.261000	23.896579	0.001069	20.909825
586.171936	-3.007700	3.749700	-11.277000	23.868544	0.001069	20.900681
587.169309	-3.005100	3.749500	-11.266000	23.889807	0.001070	20.897820
588.166977	-3.000200	3.748500	-11.245000	23.849613	0.001069	20.897345
589.164059	-3.004800	3.749800	-11.266000	23.843406	0.001071	20.908190
590.150772	-3.007700	3.747400	-11.270000	23.869887	0.001069	20.898234
591.164554	-3.006100	3.748200	-11.267000	23.866476	0.001069	20.902399
592.172001	-3.006400	3.748300	-11.268000	23.896215	0.001068	20.901874
593.149429	-3.009400	3.747200	-11.276000	23.900817	0.001070	20.887998
594.153151	-2.999900	3.748100	-11.243000	23.890287	0.001070	20.918214
595.149810	-3.003400	3.746800	-11.252000	23.882316	0.001068	20.911170
596.151096	-3.003800	3.747100	-11.254000	23.880180	0.001069	20.903339
597.150949	-2.973600	3.746700	-11.139000	23.867657	0.001070	20.903584
598.168774	-2.997200	3.746000	-11.227000	23.859669	0.001072	20.917858
599.180346	-3.003000	3.746100	-11.247000	23.861324	0.001069	20.894389
600.171614	-3.005300	3.745900	-11.257000	23.835426	0.001069	20.917731
601.175015	-3.006600	3.745300	-11.260000	23.895674	0.001068	20.916029
602.170469	-3.015200	3.744200	-11.288000	23.865453	0.001067	20.912753
603.171156	-2.993000	3.744900	-11.207000	23.851689	0.001069	20.916969
604.174657	-2.973700	3.746300	-11.140000	23.849519	0.001069	20.911474
605.172926	-2.979800	3.744800	-11.157000	23.852693	0.001068	20.905649
606.177603	-3.003800	3.743900	-11.245000	23.857498	0.001070	20.909044
607.170994	-2.994800	3.744100	-11.211000	23.894297	0.001070	20.934086
608.171316	-2.976700	3.744000	-11.144000	23.881437	0.001068	20.902228
609.171062	-2.996700	3.743000	-11.216000	23.920523	0.001070	20.918187
610.153077	-3.011800	3.742200	-11.270000	23.913455	0.001069	20.910152
611.168529	-2.983100	3.743000	-11.163000	23.914097	0.001070	20.934975
612.181350	-3.002200	3.741300	-11.231000	23.909014	0.001068	20.910914
613.157629	-3.006300	3.741200	-11.246000	23.936270	0.001069	20.927338
614.176202	-3.022300	3.740500	-11.304000	23.930013	0.001070	20.934340
615.174506	-3.011700	3.740300	-11.264000	23.940550	0.001069	20.934000
616.180542	-2.999400	3.741300	-11.219000	23.955909	0.001070	20.945607
617.176298	-2.999500	3.741000	-11.220000	23.957724	0.001069	20.918982
618.159127	-3.016100	3.740200	-11.280000	23.986710	0.001069	20.931452
619.156158	-3.011100	3.740300	-11.261000	23.987309	0.001068	20.919727
620.160647	-3.008200	3.740000	-11.249000	24.012174	0.001068	20.942289
621.156457	-2.987300	3.739000	-11.168000	24.007209	0.001068	20.929725
622.159496	-3.003400	3.738800	-11.228000	24.015365	0.001069	20.951652
623.176034	-2.986800	3.738000	-11.164000	23.999813	0.001070	20.948858
624.158177	-3.011900	3.737800	-11.257000	24.029768	0.001069	20.940019
625.177386	-2.997000	3.738300	-11.203000	24.041833	0.001069	20.950221
626.177543	-3.027900	3.736900	-11.314000	24.059149	0.001069	20.947198
627.175114	-3.011600	3.737000	-11.254000	24.070242	0.001069	20.937936
628.174539	-2.990800	3.737000	-11.176000	24.062922	0.001067	20.935337
629.173189	-3.009200	3.736100	-11.240000	24.054083	0.001069	20.933110
630.179564	-2.982500	3.737700	-11.148000	24.053956	0.001068	20.942939
631.160378	-3.040500	3.734900	-11.354000	24.072471	0.001069	20.941119
632.158859	-3.008600	3.736000	-11.239000	24.085151	0.001069	20.943405
633.167223	-3.003000	3.735900	-11.218000	24.071212	0.001067	20.948391
634.160150	-3.017300	3.734800	-11.268000	24.069743	0.001069	20.952607
635.160470	-3.003900	3.734500	-11.217000	24.054243	0.001069	20.962190
636.165998	-3.004100	3.735000	-11.218000	24.068148	0.001068	20.951007
637.159825	-2.991600	3.733700	-11.169000	24.060380	0.001067	20.941322
638.159020	-3.012400	3.734000	-11.247000	24.047202	0.001068	20.957026
639.181585	-3.011200	3.733700	-11.242000	24.032064	0.001068	20.956543
640.186049	-3.008800	3.734000	-11.234000	24.016528	0.001069	20.960404
641.182582	-3.000700	3.732700	-11.200000	24.025368	0.001068	20.970216
642.163397	-2.971800	3.734100	-11.096000	24.025512	0.001068	20.941914
643.185282	-2.994200	3.732500	-11.175000	24.021257	0.001066	20.953766
644.163325	-3.000000	3.733200	-11.198000	24.010677	0.001068	20.967337
645.161618	-2.982500	3.732400	-11.131000	24.028272	0.001066	20.963646
646.161823	-3.000800	3.733100	-11.200000	23.994602	0.001067	20.957855
647.189463	-2.982800	3.732600	-11.132000	24.000512	0.001064	20.959040
648.162876	-3.005900	3.730300	-11.212000	23.996771	0.001066	20.951497
649.162738	-2.992500	3.732000	-11.167000	23.964307	0.001066	20.941228
650.160885	-3.010600	3.729900	-11.228000	23.973012	0.001066	20.949956
651.161524	-2.967100	3.731700	-11.070000	24.020428	0.001064	20.939661
652.164575	-2.967600	3.731100	-11.071000	24.030138	0.001065	20.952716
653.164921	-2.979300	3.730200	-11.112000	24.028947	0.001065	20.950574
654.165284	-2.991400	3.730100	-11.157000	24.033835	0.001065	20.931771
655.164124	-2.998400	3.729200	-11.180000	24.028989	0.001065	20.932601
656.163985	-2.985600	3.728800	-11.132000	24.008904	0.001064	20.948491
657.185775	-3.004500	3.728900	-11.203000	24.003677	0.001065	20.946095
658.167052	-3.007000	3.728000	-11.209000	23.965252	0.001066	20.925582
659.191991	-2.995000	3.728700	-11.167000	24.000883	0.001065	20.931441
660.195238	-3.009100	3.727900	-11.217000	24.013606	0.001064	20.923339
661.184618	-3.011800	3.726800	-11.224000	24.001533	0.001064	20.939678
662.187616	-3.004500	3.728600	-11.202000	24.034924	0.001064	20.915795
663.170369	-2.983800	3.726900	-11.120000	24.035819	0.001064	20.928071
664.166884	-3.001500	3.727100	-11.184000	24.073170	0.001063	20.921434
665.168220	-3.016400	3.724300	-11.233000	24.086973	0.001064	20.922001
666.166301	-3.000200	3.727600	-11.183000	24.121687	0.001063	20.935479
667.166714	-2.991200	3.725400	-11.142000	24.108940	0.001063	20.919850
668.167109	-3.005400	3.725900	-11.197000	24.106373	0.001063	20.915380
669.173021	-2.995300	3.725400	-11.158000	24.083655	0.001061	20.915829
670.169501	-3.012900	3.726200	-11.225000	24.079112	0.001063	20.940194
671.167090	-3.011600	3.724100	-11.215000	24.085706	0.001063	20.915041
672.168197	-2.996500	3.724600	-11.160000	24.069311	0.001064	20.925624
673.169657	-2.994400	3.724900	-11.153000	24.096504	0.001063	20.922076
674.188857	-3.003000	3.723600	-11.180000	24.109707	0.001061	20.907345
675.188270	-2.995800	3.723100	-11.153000	24.138866	0.001064	20.925683
676.201941	-2.972800	3.724400	-11.070000	24.144750	0.001061	20.897448
677.190209	-2.970300	3.724200	-11.062000	24.170059	0.001060	20.910029
678.198254	-3.003900	3.722900	-11.183000	24.147358	0.001062	20.908124
679.191705	-3.009100	3.721800	-11.198000	24.152457	0.001062	20.917030
680.199238	-2.988400	3.722300	-11.123000	24.158122	0.001061	20.913229
681.192125	-2.998800	3.722300	-11.161000	24.157826	0.001062	20.893020
682.189674	-3.039600	3.720400	-11.308000	24.116418	0.001061	20.920239
683.192943	-3.009900	3.720700	-11.198000	24.091893	0.001062	20.898489
684.189999	-3.000000	3.721200	-11.162000	24.101568	0.001062	20.911510
685.186890	-2.975600	3.721900	-11.074000	24.097592	0.001060	20.897092
686.195226	-2.987900	3.720900	-11.117000	24.103923	0.001061	20.902493
687.187302	-2.988800	3.720700	-11.120000	24.086633	0.001060	20.896059
688.197620	-3.007500	3.719000	-11.184000	24.076182	0.001062	20.911653
689.188870	-2.994500	3.720000	-11.139000	24.079558	0.001060	20.914566
690.200991	-2.991500	3.720300	-11.129000	24.074105	0.001062	20.896770
691.200284	-2.989200	3.719500	-11.117000	24.114256	0.001061	20.893417
692.191476	-3.014000	3.719500	-11.209000	24.156686	0.001061	20.902781
693.199813	-2.990300	3.719500	-11.121000	24.170024	0.001060	20.892452
694.173593	-2.999800	3.719400	-11.156000	24.180922	0.001060	20.896744
695.200110	-2.958300	3.719700	-11.002000	24.170935	0.001060	20.904745
696.190903	-2.990300	3.718200	-11.118000	24.154744	0.001058	20.901782
697.192534	-3.008100	3.717100	-11.181000	24.176389	0.001057	20.911636
698.173630	-2.995200	3.717400	-11.133000	24.151798	0.001057	20.903094
699.176738	-2.986800	3.718500	-11.106000	24.174093	0.001058	20.903644
700.178154	-2.997800	3.716500	-11.140000	24.148708	0.001058	20.892409
701.176376	-3.023800	3.716200	-11.237000	24.172767	0.001058	20.897574
702.177129	-2.980300	3.717000	-11.076000	24.140621	0.001058	20.913219
703.177261	-3.003600	3.715900	-11.159000	24.160721	0.001055	20.889759
704.202483	-3.004300	3.715200	-11.159000	24.126185	0.001058	20.885467
705.200557	-2.993800	3.715300	-11.123000	24.183809	0.001056	20.884942
706.196105	-2.997900	3.714600	-11.135000	24.150168	0.001059	20.880598
707.195607	-2.979000	3.715600	-11.068000	24.208087	0.001057	20.877525
708.208558	-2.986300	3.715100	-11.093000	24.181234	0.001058	20.906539
709.198499	-2.983600	3.714900	-11.082000	24.216722	0.001058	20.882393
710.200931	-2.996000	3.713000	-11.123000	24.268661	0.001056	20.895609
711.209073	-2.981700	3.713200	-11.070000	24.237884	0.001059	20.900299
712.198436	-3.001600	3.712700	-11.142000	24.276916	0.001058	20.885873
713.197824	-2.998900	3.713000	-11.134000	24.291181	0.001055	20.902077
714.199533	-2.973300	3.714300	-11.042000	24.305842	0.001056	20.896870
715.209993	-2.983100	3.713200	-11.076000	24.280318	0.001057	20.915835
716.214886	-2.997800	3.711900	-11.126000	24.275641	0.001056	20.892654
717.199636	-3.020300	3.711600	-11.209000	24.292151	0.001055	20.885509
718.204436	-3.014800	3.711100	-11.187000	24.283424	0.001055	20.884340
719.208829	-2.999500	3.711100	-11.130000	24.306307	0.001055	20.874104
720.216953	-3.012400	3.710900	-11.178000	24.335359	0.001056	20.870531
721.213689	-3.029900	3.709900	-11.239000	24.346112	0.001053	20.873732
722.205974	-3.005000	3.710300	-11.149000	24.331181	0.001056	20.890521
723.204598	-3.011200	3.709300	-11.169000	24.356021	0.001054	20.886516
724.182511	-3.010800	3.709500	-11.167000	24.331367	0.001052	20.886440
725.183750	-3.004500	3.708700	-11.142000	24.341377	0.001055	20.892688
726.184119	-3.019600	3.708200	-11.196000	24.338406	0.001054	20.870743
727.186295	-2.985000	3.710500	-11.075000	24.316832	0.001054	20.877550
728.182705	-2.990000	3.709500	-11.090000	24.323230	0.001052	20.879226
729.186566	-2.978400	3.709400	-11.047000	24.324015	0.001052	20.889496
730.184905	-2.978300	3.708500	-11.044000	24.328117	0.001053	20.877965
731.183739	-2.992600	3.708100	-11.096000	24.314561	0.001052	20.882858
732.189210	-3.001500	3.708100	-11.130000	24.314435	0.001054	20.880835
733.183189	-2.994200	3.708400	-11.103000	24.306171	0.001052	20.880132
734.185073	-3.002200	3.708100	-11.130000	24.344576	0.001054	20.874561
735.186096	-2.992900	3.706800	-11.093000	24.347133	0.001051	20.883290
736.184876	-2.975100	3.706400	-11.025000	24.331012	0.001051	20.879920
737.185396	-3.007500	3.705500	-11.143000	24.327306	0.001053	20.887108
738.205865	-2.998700	3.706800	-11.115000	24.296625	0.001051	20.875772
739.185830	-2.976700	3.707200	-11.034000	24.328665	0.001051	20.878041
740.183511	-3.032800	3.704100	-11.233000	24.328260	0.001051	20.890909
741.184914	-2.999200	3.705300	-11.112000	24.342246	0.001052	20.867957
742.184279	-2.995700	3.705200	-11.099000	24.349513	0.001051	20.861497
743.188313	-2.972700	3.705100	-11.013000	24.371601	0.001051	20.841457
744.184104	-3.004000	3.703800	-11.125000	24.384506	0.001052	20.886168
745.183517	-3.019200	3.704100	-11.183000	24.405328	0.001050	20.871022
746.184639	-3.008000	3.703400	-11.138000	24.421591	0.001051	20.879277
747.206861	-2.990600	3.703400	-11.076000	24.429255	0.001051	20.881749
748.212872	-3.007400	3.704100	-11.138000	24.414747	0.001050	20.868143
749.186606	-3.001300	3.701600	-11.109000	24.410721	0.001052	20.867424
750.204209	-3.003900	3.701400	-11.117000	24.407632	0.001048	20.865747
751.203205	-2.989700	3.703800	-11.071000	24.417355	0.001048	20.875026
752.220683	-3.003400	3.701700	-11.117000	24.441391	0.001047	20.870692
753.219395	-2.985300	3.702800	-11.052000	24.432580	0.001049	20.866594
754.214079	-3.023700	3.700000	-11.185000	24.437509	0.001049	20.870116
755.218837	-2.991800	3.700500	-11.070000	24.417127	0.001044	20.866738
756.204540	-2.994200	3.699800	-11.078000	24.399015	0.001047	20.867534
757.212878	-2.990100	3.700600	-11.064000	24.411033	0.001046	20.865366
758.206520	-2.974600	3.701900	-11.011000	24.369086	0.001046	20.874967
759.215918	-3.018400	3.700300	-11.167000	24.377070	0.001044	20.862589
760.206872	-3.009800	3.700200	-11.136000	24.397166	0.001047	20.856671
761.209509	-3.000000	3.699300	-11.097000	24.394356	0.001045	20.863808
762.209210	-2.989100	3.697800	-11.051000	24.411928	0.001045	20.868634
763.211308	-3.023000	3.697900	-11.178000	24.387865	0.001045	20.857772
764.216029	-3.018300	3.698100	-11.161000	24.386641	0.001045	20.851329
765.213714	-3.010900	3.698000	-11.133000	24.382489	0.001045	20.851430
766.225531	-3.002100	3.697800	-11.101000	24.339874	0.001045	20.861785
767.220333	-2.982300	3.700000	-11.034000	24.331636	0.001044	20.860633
768.218536	-2.980300	3.698500	-11.022000	24.342600	0.001044	20.870683
769.209767	-3.022200	3.695700	-11.168000	24.312704	0.001043	20.855867
770.215588	-3.006800	3.696800	-11.113000	24.357852	0.001043	20.858957
771.194498	-3.017500	3.697200	-11.155000	24.355295	0.001045	20.855443
772.209637	-3.019000	3.695500	-11.155000	24.401656	0.001042	20.852167
773.228448	-3.013800	3.697200	-11.142000	24.398702	0.001043	20.861057
774.221666	-3.011000	3.695600	-11.127000	24.399352	0.001041	20.858390
775.225242	-2.988500	3.696100	-11.044000	24.406729	0.001043	20.852514
776.212785	-2.993900	3.695800	-11.064000	24.382286	0.001041	20.855968
777.197858	-3.011000	3.695200	-11.124000	24.336430	0.001042	20.870658
778.195935	-3.011000	3.694700	-11.124000	24.338304	0.001042	20.845986
779.221921	-2.984300	3.694400	-11.024000	24.367837	0.001041	20.872292
780.200113	-2.999200	3.693300	-11.075000	24.359886	0.001040	20.860049
781.197147	-2.983700	3.694300	-11.021000	24.407024	0.001042	20.861819
782.195873	-3.004300	3.693700	-11.096000	24.414392	0.001042	20.851193
783.213435	-2.994400	3.694800	-11.062000	24.401428	0.001040	20.844826
784.197161	-2.991500	3.693800	-11.048000	24.385029	0.001040	20.849711
785.201160	-3.018100	3.691900	-11.141000	24.374201	0.001039	20.832685
786.216161	-2.999500	3.693400	-11.078000	24.360502	0.001040	20.861615
787.215232	-2.985400	3.692500	-11.022000	24.379307	0.001039	20.860565
788.217169	-3.004100	3.692300	-11.092000	24.426672	0.001040	20.847391
789.214260	-2.973900	3.692300	-10.978000	24.428503	0.001039	20.866771
790.219738	-2.990600	3.692100	-11.040000	24.448176	0.001039	20.842887
791.217181	-2.984700	3.690200	-11.013000	24.443771	0.001038	20.872131
792.216639	-2.995100	3.693100	-11.060000	24.443374	0.001038	20.836173
793.217689	-2.983300	3.690800	-11.009000	24.439365	0.001039	20.832151
794.227818	-3.016700	3.689800	-11.131000	24.380649	0.001039	20.849110
795.226407	-2.990200	3.691000	-11.036000	24.407716	0.001036	20.863935
796.233539	-2.998300	3.690600	-11.064000	24.405201	0.001036	20.854300
797.203744	-3.018400	3.690600	-11.137000	24.414274	0.001037	20.852023
798.200468	-3.003400	3.690800	-11.083000	24.401285	0.001037	20.849897
799.200577	-3.009600	3.688400	-11.100000	24.392499	0.001037	20.853885
800.200830	-3.004300	3.689500	-11.084000	24.387950	0.001038	20.852167
801.200097	-3.012300	3.688100	-11.107000	24.426697	0.001037	20.844572
802.219231	-3.010500	3.688800	-11.104000	24.450852	0.001037	20.839881
803.220078	-2.996100	3.687800	-11.047000	24.463156	0.001036	20.851752
804.200006	-3.027000	3.688100	-11.163000	24.438403	0.001036	20.855367
805.202962	-3.007100	3.686600	-11.083000	24.460557	0.001036	20.849144
806.201154	-3.003200	3.686100	-11.069000	24.436555	0.001035	20.834073
807.201920	-3.016700	3.686900	-11.120000	24.423667	0.001035	20.853386
808.201447	-2.981400	3.687700	-10.993000	24.383096	0.001034	20.833074
809.201418	-2.975900	3.687800	-10.973000	24.379931	0.001032	20.853132
810.201166	-2.975100	3.686500	-10.966000	24.380978	0.001035	20.862242
811.200561	-3.002400	3.686300	-11.067000	24.352838	0.001034	20.834962
812.202257	-3.013800	3.684200	-11.101000	24.370394	0.001032	20.849254
813.203589	-3.003300	3.684500	-11.064000	24.360224	0.001035	20.834310
814.204594	-3.014000	3.684600	-11.104000	24.351581	0.001032	20.838916
815.203514	-3.006200	3.684400	-11.074000	24.347580	0.001031	20.849601
816.201674	-3.005000	3.684400	-11.070000	24.352079	0.001031	20.839416
817.202607	-3.010700	3.683100	-11.088000	24.368622	0.001033	20.844631
818.205305	-3.016300	3.683300	-11.109000	24.382396	0.001032	20.835216
819.202793	-3.000600	3.684600	-11.054000	24.372749	0.001030	20.835022
820.224626	-2.992100	3.684400	-11.023000	24.365051	0.001032	20.845791
821.218894	-3.007300	3.683300	-11.076000	24.372538	0.001030	20.816793
822.204477	-3.003700	3.681700	-11.057000	24.393208	0.001028	20.834683
823.229109	-3.021400	3.681800	-11.122000	24.412662	0.001030	20.838078
824.226861	-3.033100	3.680900	-11.163000	24.424866	0.001029	20.819976
825.224901	-2.993500	3.682000	-11.020000	24.430580	0.001030	20.832346
826.206606	-2.986200	3.682500	-10.996000	24.410088	0.001028	20.814159
827.205584	-2.981700	3.682100	-10.977000	24.432293	0.001027	20.835962
828.207357	-3.012500	3.680700	-11.087000	24.448151	0.001029	20.825793
829.203846	-2.984100	3.682500	-10.988000	24.450624	0.001029	20.804566
830.205355	-2.980100	3.680600	-10.967000	24.423499	0.001027	20.826191
831.204617	-2.985700	3.680200	-10.988000	24.462203	0.001029	20.823769
832.205800	-3.004100	3.681400	-11.058000	24.454785	0.001027	20.817275
833.222490	-3.036400	3.679000	-11.169000	24.463520	0.001028	20.824616
834.227126	-2.996500	3.679900	-11.026000	24.447046	0.001026	20.820891
835.208854	-3.007800	3.680100	-11.067000	24.459249	0.001027	20.819384
836.208190	-3.037400	3.678500	-11.172000	24.436614	0.001025	20.828917
837.207586	-2.986100	3.679900	-10.988000	24.436935	0.001028	20.815963
838.210227	-2.988300	3.678800	-10.992000	24.461663	0.001024	20.833659
839.208189	-3.007800	3.678700	-11.064000	24.466533	0.001026	20.835699
840.207133	-3.002600	3.679000	-11.045000	24.475057	0.001026	20.832871
841.205468	-2.981200	3.677600	-10.962000	24.453198	0.001026	20.805253
842.225738	-3.008800	3.676900	-11.062000	24.470305	0.001027	20.820518
843.232837	-3.008300	3.677700	-11.063000	24.461646	0.001024	20.802348
844.230851	-3.007300	3.675700	-11.053000	24.491522	0.001026	20.831373
845.225364	-3.007200	3.677600	-11.058000	24.515995	0.001023	20.817521
846.211675	-2.975500	3.678500	-10.945000	24.509649	0.001026	20.826327
847.228402	-3.016000	3.675600	-11.083000	24.557447	0.001024	20.826395
848.238609	-3.016700	3.674300	-11.084000	24.576848	0.001023	20.809825
849.225355	-3.008100	3.675700	-11.056000	24.572038	0.001025	20.817327
850.224800	-3.004100	3.675100	-11.039000	24.584898	0.001024	20.807471
851.212018	-2.990400	3.676100	-10.992000	24.616880	0.001025	20.818698
852.211846	-2.989700	3.673600	-10.982000	24.608096	0.001022	20.798031
853.211205	-3.020900	3.675000	-11.100000	24.595531	0.001022	20.803441
854.212049	-2.983900	3.674700	-10.964000	24.585827	0.001020	20.831162
855.214149	-3.004600	3.673900	-11.037000	24.546283	0.001022	20.798124
856.211201	-3.012700	3.673900	-11.068000	24.561026	0.001023	20.828562
857.225478	-2.985700	3.675000	-10.971000	24.587540	0.001019	20.817234
858.212434	-2.989200	3.672800	-10.978000	24.610172	0.001020	20.803433
859.230679	-3.001500	3.672200	-11.022000	24.596586	0.001018	20.816353
860.235186	-3.007500	3.672300	-11.044000	24.599320	0.001019	20.818148
861.227624	-3.016500	3.672400	-11.076000	24.588696	0.001016	20.815075
862.239730	-3.025800	3.672200	-11.110000	24.569920	0.001018	20.814253
863.232340	-3.017600	3.670400	-11.075000	24.532697	0.001017	20.799191
864.238974	-3.000200	3.672500	-11.017000	24.502552	0.001019	20.806405
865.240770	-2.986100	3.671400	-10.962000	24.502468	0.001017	20.803475
866.218887	-3.003100	3.671700	-11.025000	24.441764	0.001018	20.814169
867.214022	-2.982300	3.670800	-10.946000	24.444979	0.001018	20.801274
868.215573	-2.998800	3.669800	-11.004000	24.413026	0.001017	20.789607
869.213927	-2.975900	3.670700	-10.922000	24.404797	0.001015	20.806007
870.233924	-3.008700	3.669900	-11.040000	24.413921	0.001016	20.812789
871.231430	-3.026700	3.668400	-11.101000	24.393615	0.001017	20.792892
872.233546	-2.999700	3.670200	-11.009000	24.393885	0.001013	20.797905
873.215748	-2.991900	3.669900	-10.979000	24.403042	0.001016	20.805195
874.214983	-2.987200	3.669800	-10.961000	24.422378	0.001016	20.789031
875.233351	-2.977100	3.669000	-10.922000	24.470383	0.001013	20.785983
876.242849	-3.006600	3.668300	-11.027000	24.473084	0.001014	20.814771
877.233375	-2.996400	3.667700	-10.989000	24.518124	0.001016	20.812070
878.243772	-2.967300	3.669500	-10.888000	24.554614	0.001014	20.799844
879.248584	-3.016900	3.666900	-11.061000	24.541804	0.001014	20.795052
880.242644	-2.996900	3.667600	-10.991000	24.539264	0.001014	20.814788
881.237079	-2.987600	3.667800	-10.956000	24.562141	0.001014	20.791750
882.245240	-2.985500	3.666300	-10.944000	24.549669	0.001012	20.781606
883.218102	-2.999800	3.668600	-11.004000	24.512884	0.001013	20.798752
884.219158	-2.994500	3.667300	-10.981000	24.515390	0.001013	20.785620
885.220723	-2.982500	3.667000	-10.935000	24.513837	0.001013	20.783114
886.220019	-3.011100	3.665200	-11.035000	24.506436	0.001012	20.804137
887.222651	-3.003700	3.664700	-11.006000	24.504293	0.001011	20.800564
888.224492	-3.001400	3.664700	-10.998000	24.517855	0.001012	20.821757
889.220230	-2.994600	3.665400	-10.974000	24.492588	0.001012	20.795933
890.249896	-2.995600	3.665400	-10.979000	24.478933	0.001012	20.813528
891.249570	-3.004200	3.666300	-11.013000	24.493027	0.001011	20.800167
892.239498	-2.974500	3.665300	-10.902000	24.466392	0.001009	20.800472
893.241580	-3.000900	3.663100	-10.992000	24.437774	0.001010	20.785511
894.237292	-3.002500	3.663100	-10.998000	24.432026	0.001012	20.798711
895.222714	-2.975800	3.664500	-10.904000	24.433546	0.001009	20.796442
896.222558	-2.982900	3.664100	-10.928000	24.476427	0.001008	20.783987
897.224788	-3.012100	3.663300	-11.032000	24.497306	0.001009	20.813469
898.222731	-2.992000	3.664100	-10.962000	24.503332	0.001009	20.801023
899.248292	-2.993600	3.663000	-10.965000	24.534666	0.001008	20.813494
900.245003	-2.993000	3.661900	-10.958000	24.504344	0.001008	20.818634
901.253682	-2.999200	3.661900	-10.981000	24.516649	0.001009	20.818651
902.224881	-2.996200	3.661700	-10.970000	24.522691	0.001007	20.782040
903.243402	-2.973000	3.663900	-10.892000	24.523290	0.001008	20.805874
904.246580	-2.982800	3.661600	-10.920000	24.512413	0.001008	20.815823
905.241715	-2.993000	3.660600	-10.955000	24.551755	0.001006	20.793183
906.248306	-2.999700	3.659900	-10.977000	24.568591	0.001006	20.809126
907.252233	-3.023100	3.659400	-11.062000	24.556422	0.001004	20.805926
908.242744	-2.996400	3.660100	-10.966000	24.578051	0.001006	20.817196
909.256049	-2.991200	3.659200	-10.945000	24.545182	0.001005	20.814562
910.226344	-2.982000	3.660600	-10.914000	24.573553	0.001006	20.794665
911.227650	-3.010700	3.659700	-11.017000	24.602970	0.001005	20.794309
912.228809	-3.011800	3.658700	-11.018000	24.610134	0.001003	20.798653
913.228937	-3.007100	3.659400	-11.003000	24.618564	0.001005	20.817543
914.228510	-3.003400	3.659400	-10.990000	24.644098	0.001003	20.803810
915.230285	-3.008700	3.657100	-11.002000	24.605484	0.001005	20.813428
916.228837	-2.994200	3.659000	-10.955000	24.608936	0.001002	20.808830
917.227722	-3.006500	3.656000	-10.990000	24.628032	0.001004	20.829888
918.232071	-2.989900	3.657300	-10.933000	24.635609	0.001004	20.798611
919.228621	-3.016200	3.655700	-11.025000	24.641583	0.001002	20.816934
920.229913	-2.996700	3.657500	-10.959000	24.652941	0.001004	20.838287
921.229551	-3.014200	3.656700	-11.021000	24.648469	0.001002	20.801084
922.233014	-2.998100	3.657500	-10.965000	24.664830	0.000999	20.830777
923.229968	-3.019400	3.654600	-11.033000	24.667016	0.001000	20.814478
924.229225	-2.986500	3.656600	-10.919000	24.686136	0.001002	20.814699
925.232818	-2.993000	3.655800	-10.940000	24.693350	0.000999	20.812455
926.232908	-3.005000	3.654600	-10.980000	24.699409	0.001002	20.799094
927.229258	-2.984200	3.655500	-10.907000	24.748236	0.000997	20.822962
928.233558	-3.014600	3.654300	-11.015000	24.713491	0.000998	20.822234
929.231923	-3.006300	3.652600	-10.980000	24.705822	0.001001	20.806478
930.231673	-3.019700	3.654300	-11.033000	24.700725	0.000998	20.813217
931.233491	-3.005000	3.653500	-10.977000	24.701324	0.000999	20.836103
932.230477	-2.994100	3.653600	-10.938000	24.688668	0.000997	20.817713
933.231925	-2.972100	3.653700	-10.858000	24.695409	0.000999	20.809305
934.233808	-2.993500	3.653300	-10.935000	24.712429	0.000998	20.820220
935.233982	-2.997600	3.653500	-10.949000	24.720866	0.000998	20.823471
936.232609	-3.003600	3.652700	-10.971000	24.716892	0.000996	20.809526
937.238341	-2.985700	3.652900	-10.905000	24.726831	0.000998	20.826612
938.236641	-3.031800	3.650600	-11.067000	24.710791	0.000995	20.828534
939.234025	-3.024400	3.650300	-11.039000	24.699907	0.000995	20.819982
940.238013	-3.007000	3.651900	-10.979000	24.707509	0.000994	20.824292
941.238447	-3.019800	3.650400	-11.021000	24.699899	0.000993	20.832302
942.235442	-3.006900	3.651800	-10.980000	24.729320	0.000993	20.823420
943.243926	-2.988000	3.650100	-10.906000	24.731160	0.000995	20.816731
944.237072	-3.012400	3.650600	-10.995000	24.734585	0.000994	20.831074
945.235313	-2.998700	3.650400	-10.945000	24.766174	0.000993	20.827213
946.241949	-2.995100	3.650500	-10.933000	24.769203	0.000992	20.825037
947.239862	-2.998200	3.650200	-10.944000	24.763854	0.000993	20.862816
948.238766	-3.005800	3.648800	-10.967000	24.759653	0.000993	20.833470
949.242584	-3.008600	3.648000	-10.975000	24.754033	0.000993	20.819771
950.240767	-2.988400	3.649600	-10.905000	24.721803	0.000992	20.841480
951.238292	-2.985900	3.649800	-10.897000	24.724696	0.000991	20.842961
952.241023	-2.984600	3.648000	-10.887000	24.714867	0.000992	20.849218
953.240326	-2.979700	3.648400	-10.870000	24.739040	0.000991	20.835544
954.237572	-2.997200	3.648300	-10.934000	24.727793	0.000991	20.826629
955.242741	-2.978900	3.648700	-10.868000	24.723152	0.000991	20.845679
956.241562	-3.004900	3.648200	-10.962000	24.686719	0.000991	20.838042
957.239413	-3.006100	3.646100	-10.959000	24.680526	0.000991	20.859327
958.240345	-2.982000	3.647100	-10.874000	24.637669	0.000988	20.826756
959.242691	-2.989100	3.647400	-10.902000	24.617037	0.000990	20.838296
960.244701	-3.011100	3.645600	-10.975000	24.623628	0.000988	20.824521
961.242812	-3.001400	3.647100	-10.946000	24.636302	0.000989	20.837238
962.241990	-3.003300	3.645700	-10.947000	24.667346	0.000989	20.835671
963.239729	-3.004900	3.646300	-10.956000	24.703476	0.000987	20.859598
964.247039	-2.995500	3.645300	-10.919000	24.715660	0.000988	20.834842
965.240532	-3.015600	3.643900	-10.987000	24.707619	0.000987	20.846687
966.239565	-3.011200	3.644000	-10.971000	24.664553	0.000987	20.834766
967.240721	-2.989300	3.645100	-10.894000	24.640597	0.000986	20.848660
968.240526	-3.012000	3.644700	-10.976000	24.618464	0.000987	20.843995
969.239988	-2.996900	3.644600	-10.922000	24.608186	0.000984	20.854070
970.242078	-2.997100	3.642900	-10.916000	24.628008	0.000987	20.824174
971.240479	-2.991300	3.644300	-10.899000	24.672603	0.000985	20.851378
972.240114	-2.993900	3.643000	-10.905000	24.667582	0.000985	20.855822
973.241478	-2.986900	3.643000	-10.880000	24.702118	0.000984	20.856339
974.240517	-2.990400	3.644100	-10.896000	24.703477	0.000983	20.841108
975.242540	-2.995000	3.640800	-10.902000	24.739345	0.000982	20.862401
976.243057	-2.995700	3.641400	-10.907000	24.766015	0.000984	20.859295
977.242598	-3.006900	3.642500	-10.951000	24.784821	0.000984	20.851141
978.242945	-3.009100	3.641500	-10.957000	24.773262	0.000982	20.862300
979.241899	-3.014700	3.640200	-10.972000	24.793477	0.000983	20.855560
980.243073	-3.019000	3.640300	-10.989000	24.830768	0.000982	20.851734
981.243489	-2.998400	3.640300	-10.913000	24.819952	0.000982	20.852733
982.243565	-2.991500	3.639400	-10.886000	24.867273	0.000982	20.840007
983.246461	-3.001000	3.639900	-10.923000	24.852281	0.000980	20.879013
984.246269	-3.000200	3.638600	-10.915000	24.873212	0.000980	20.870623
985.245137	-3.015600	3.639500	-10.974000	24.895669	0.000979	20.863765
986.245962	-3.003600	3.639100	-10.929000	24.947500	0.000978	20.866949
987.252222	-3.001300	3.639100	-10.921000	24.923635	0.000979	20.852479
988.245787	-3.004300	3.637900	-10.928000	24.890869	0.000978	20.861318
989.247580	-2.999400	3.639200	-10.914000	24.886533	0.000977	20.862656
990.246820	-2.985500	3.639000	-10.863000	24.880788	0.000978	20.850252
991.247693	-2.978400	3.637800	-10.833000	24.899955	0.000978	20.862377
992.248781	-2.977500	3.638500	-10.832000	24.883168	0.000978	20.866864
993.247969	-3.010400	3.637300	-10.949000	24.887858	0.000977	20.854977
994.249313	-2.988200	3.637700	-10.869000	24.891115	0.000977	20.847341
995.250362	-3.016600	3.637600	-10.971000	24.898699	0.000978	20.879132
996.250265	-3.019800	3.635800	-10.978000	24.896826	0.000977	20.853073
997.249870	-3.002300	3.635600	-10.914000	24.912467	0.000976	20.892476
998.250785	-2.996600	3.635200	-10.893000	24.891799	0.000977	20.866992
999.252684	-2.999200	3.635900	-10.904000	24.890669	0.000974	20.888142
1000.252832	-3.007100	3.635000	-10.930000	24.857100	0.000975	20.871996
1001.251026	-2.993200	3.635700	-10.880000	24.808953	0.000976	20.863030
1002.251997	-2.994200	3.634700	-10.882000	24.819820	0.000975	20.881521
1003.252485	-2.996300	3.634900	-10.890000	24.797065	0.000976	20.873385
1004.251832	-3.004600	3.634000	-10.918000	24.811206	0.000974	20.874774
1005.252756	-2.986600	3.634300	-10.853000	24.861412	0.000974	20.883435
1006.255235	-3.003900	3.632600	-10.911000	24.894398	0.000974	20.888092
1007.255645	-3.000400	3.633400	-10.900000	24.908900	0.000973	20.875620
1008.254122	-3.005000	3.632000	-10.914000	24.932487	0.000971	20.889811
1009.251704	-2.992400	3.632600	-10.869000	24.926573	0.000972	20.886246
1010.251780	-3.003800	3.631900	-10.909000	24.952126	0.000971	20.881547
1011.252976	-3.014300	3.632800	-10.949000	24.977804	0.000972	20.883613
1012.252950	-3.018800	3.631900	-10.963000	24.992170	0.000972	20.895661
1013.252276	-3.022200	3.631500	-10.974000	24.976083	0.000969	20.881412
1014.256209	-3.023400	3.629100	-10.972000	24.957905	0.000969	20.884029
1015.254428	-3.017000	3.630600	-10.952000	24.950093	0.000972	20.868603
1016.255861	-2.984100	3.631500	-10.836000	24.964881	0.000970	20.894824
1017.255696	-2.993000	3.630600	-10.865000	24.945606	0.000969	20.889702
1018.257837	-3.007800	3.629800	-10.916000	24.934319	0.000968	20.874581
1019.257058	-3.016100	3.630100	-10.948000	24.943438	0.000968	20.897009
1020.257088	-2.989000	3.630700	-10.849000	24.960546	0.000968	20.871508
1021.257239	-2.999000	3.629900	-10.884000	24.959626	0.000967	20.874378
1022.261412	-2.995800	3.628000	-10.868000	24.931029	0.000968	20.891192
1023.257836	-2.977600	3.629400	-10.805000	24.955299	0.000967	20.898956
1024.257242	-2.990600	3.627600	-10.848000	24.977569	0.000968	20.890490
1025.261213	-2.978500	3.629400	-10.809000	24.993107	0.000965	20.899447
1026.258536	-3.004100	3.627600	-10.895000	24.962149	0.000966	20.861738
1027.258757	-2.977700	3.628700	-10.804000	24.963895	0.000964	20.890041
1028.260883	-2.994700	3.627200	-10.861000	24.952878	0.000965	20.893682
1029.261846	-3.009400	3.627100	-10.914000	24.963339	0.000966	20.896594
1030.261062	-3.005500	3.626400	-10.897000	24.970129	0.000963	20.882074
1031.261994	-2.996400	3.627600	-10.868000	24.978084	0.000964	20.890058
1032.259502	-3.002600	3.628100	-10.893000	24.968543	0.000964	20.892810
1033.259473	-3.006900	3.626000	-10.901000	24.961500	0.000964	20.905179
1034.261762	-3.009000	3.625500	-10.908000	24.941414	0.000961	20.906830
1035.259710	-3.008600	3.624300	-10.903000	24.962351	0.000961	20.896552
1036.261209	-2.995100	3.626600	-10.861000	24.946906	0.000964	20.899541
1037.264714	-2.995700	3.625900	-10.860000	24.919026	0.000963	20.903799
1038.261734	-2.986700	3.624200	-10.822000	24.908194	0.000963	20.914737
1039.261674	-3.002700	3.626000	-10.887000	24.939787	0.000960	20.904248
1040.262627	-2.994900	3.625100	-10.854000	24.938175	0.000959	20.899312
1041.269595	-3.031100	3.621200	-10.974000	24.929849	0.000961	20.897593
1042.261633	-2.995400	3.624300	-10.855000	24.952018	0.000959	20.913205
1043.261835	-2.992700	3.623100	-10.840000	24.926686	0.000959	20.899634
1044.265279	-3.005200	3.624300	-10.892000	24.924611	0.000963	20.905138
1045.264024	-2.984300	3.623100	-10.810000	24.929040	0.000959	20.896307
1046.265294	-3.014700	3.621900	-10.918000	24.901750	0.000958	20.905900
1047.264050	-2.970600	3.624300	-10.765000	24.915728	0.000958	20.909972
1048.265903	-2.985800	3.623200	-10.817000	24.934481	0.000956	20.907931
1049.265847	-2.981300	3.623400	-10.801000	24.945212	0.000957	20.909219
1050.264615	-2.985400	3.623600	-10.817000	24.971911	0.000957	20.915628
1051.264479	-2.997800	3.620300	-10.852000	24.964403	0.000956	20.904774
1052.265580	-2.987400	3.623000	-10.823000	24.976356	0.000954	20.900177
1053.264580	-2.992900	3.621600	-10.838000	24.968553	0.000956	20.907517
1054.265021	-3.018000	3.620300	-10.926000	25.009322	0.000955	20.910980
1055.264469	-3.009400	3.620800	-10.894000	25.029887	0.000956	20.912182
1056.267037	-3.008000	3.620700	-10.890000	25.061797	0.000955	20.913393
1057.265773	-2.985000	3.620000	-10.805000	25.072416	0.000953	20.925474
1058.268771	-2.996300	3.618800	-10.842000	25.104401	0.000953	20.918228
1059.268166	-2.986300	3.619500	-10.808000	25.119245	0.000952	20.917009
1060.267085	-3.003800	3.619500	-10.872000	25.140179	0.000953	20.929488
1061.268498	-2.999200	3.617500	-10.849000	25.154315	0.000953	20.919024
1062.268128	-2.995400	3.619300	-10.840000	25.127688	0.000951	20.913157
1063.268661	-3.000700	3.617800	-10.855000	25.109934	0.000949	20.947487
1064.269778	-2.996500	3.617600	-10.838000	25.108813	0.000951	20.941620
1065.270131	-2.998100	3.618100	-10.846000	25.111975	0.000951	20.909237
1066.270631	-2.985000	3.616700	-10.795000	25.092584	0.000951	20.924857
1067.270611	-2.986800	3.618300	-10.805000	25.144186	0.000948	20.918813
1068.270881	-2.994300	3.615400	-10.824000	25.138738	0.000947	20.918559
1069.270473	-3.007300	3.616900	-10.876000	25.127233	0.000949	20.934509
1070.270164	-2.978900	3.617300	-10.774000	25.128988	0.000948	20.938641
1071.272927	-3.000100	3.615700	-10.847000	25.143900	0.000952	20.933697
1072.271698	-3.005200	3.615600	-10.864000	25.146413	0.000945	20.928634
1073.272753	-3.005100	3.615100	-10.862000	25.107034	0.000947	20.939361
1074.270312	-3.003400	3.615200	-10.857000	25.103424	0.000948	20.937160
1075.276436	-3.009100	3.614400	-10.875000	25.050825	0.000947	20.956902
1076.273645	-2.974200	3.613400	-10.745000	25.096364	0.000947	20.925807
1077.273729	-3.006700	3.614400	-10.866000	25.112474	0.000946	20.951933
1078.273336	-3.008200	3.612900	-10.867000	25.087170	0.000946	20.946447
1079.274539	-3.023200	3.613200	-10.923000	25.090055	0.000946	20.941282
1080.274457	-2.983400	3.613900	-10.780000	25.043444	0.000945	20.948072
1081.273332	-2.985700	3.611700	-10.782000	25.005258	0.000945	20.931555
1082.276431	-3.014400	3.612100	-10.887000	25.038223	0.000944	20.939513
1083.273030	-3.013700	3.612000	-10.885000	25.036088	0.000943	20.928837
1084.272951	-2.992200	3.611500	-10.804000	25.061866	0.000942	20.941435
1085.274159	-2.987300	3.611100	-10.787000	25.067416	0.000944	20.936101
1086.275613	-2.999500	3.610500	-10.828000	25.080962	0.000940	20.947801
1087.275842	-3.004300	3.610000	-10.843000	25.105852	0.000942	20.954294
1088.277460	-2.976300	3.610900	-10.745000	25.135010	0.000942	20.955589
1089.275771	-2.994100	3.610100	-10.808000	25.130413	0.000941	20.968991
1090.276935	-3.001900	3.610800	-10.838000	25.100927	0.000939	20.963573
1091.276810	-3.019000	3.609000	-10.895000	25.125015	0.000941	20.964047
1092.276589	-3.004900	3.607800	-10.840000	25.100690	0.000937	20.951483
1093.277308	-3.001600	3.608900	-10.832000	25.115779	0.000940	20.950983
1094.276649	-3.006300	3.608100	-10.846000	25.085524	0.000939	20.959966
1095.277604	-2.989100	3.610300	-10.790000	25.071574	0.000938	20.963979
1096.279070	-3.002600	3.609500	-10.837000	25.090450	0.000937	20.974391
1097.278093	-3.021200	3.606400	-10.894000	25.116850	0.000936	20.962014
1098.277340	-3.017700	3.605800	-10.880000	25.131619	0.000936	20.935592
1099.278607	-3.018200	3.606800	-10.885000	25.156659	0.000936	20.959305
1100.278409	-3.007000	3.607300	-10.846000	25.138484	0.000934	20.953861
1101.277608	-3.003900	3.607400	-10.836000	25.139496	0.000935	20.945870
1102.277855	-3.017200	3.606600	-10.879000	25.106315	0.000934	20.943855
1103.277658	-3.026100	3.605700	-10.910000	25.099407	0.000934	20.930758
1104.278062	-3.008800	3.605800	-10.848000	25.116259	0.000933	20.955732
1105.278069	-3.008200	3.606000	-10.846000	25.098387	0.000934	20.961497
1106.280977	-3.001000	3.605300	-10.818000	25.132235	0.000932	20.940477
1107.279436	-3.000500	3.604800	-10.815000	25.139403	0.000933	20.939613
1108.278773	-2.998000	3.605400	-10.807000	25.154787	0.000930	20.945099
1109.279728	-3.014300	3.603700	-10.861000	25.174819	0.000930	20.923486
1110.278670	-2.997600	3.604400	-10.803000	25.148404	0.000930	20.939166
1111.281312	-2.997000	3.602700	-10.796000	25.109538	0.000931	20.943770
1112.280440	-2.988300	3.603900	-10.768000	25.104478	0.000930	20.923520
1113.280379	-3.000000	3.602700	-10.807000	25.068201	0.000931	20.936889
1114.281379	-3.022700	3.602300	-10.888000	25.056341	0.000930	20.921193
1115.282161	-2.988600	3.602100	-10.763000	25.079478	0.000929	20.946786
1116.282368	-2.992100	3.602500	-10.778000	25.099367	0.000930	20.931665
1117.282241	-3.032500	3.601600	-10.921000	25.115426	0.000928	20.929769
1118.282853	-2.952200	3.603200	-10.637000	25.130364	0.000929	20.935755
1119.294669	-3.015600	3.601000	-10.858000	25.156864	0.000928	20.918738
1120.284093	-3.011300	3.601800	-10.845000	25.175554	0.000928	20.920905
1121.285016	-3.003700	3.601200	-10.814000	25.188248	0.000926	20.916580
1122.285691	-2.994100	3.601100	-10.782000	25.182310	0.000926	20.922946
1123.286173	-3.004700	3.600800	-10.818000	25.159412	0.000927	20.925088
1124.287815	-3.005300	3.601100	-10.821000	25.170174	0.000924	20.914082
1125.287246	-2.992600	3.600600	-10.773000	25.147756	0.000926	20.919077
1126.288854	-2.990500	3.599500	-10.763000	25.157025	0.000925	20.916529
1127.289286	-2.999100	3.598800	-10.791000	25.165923	0.000925	20.916927
1128.288503	-2.985500	3.598800	-10.744000	25.155178	0.000923	20.892392
1129.290282	-3.010300	3.598700	-10.831000	25.159555	0.000923	20.910535
1130.289205	-2.987600	3.599700	-10.753000	25.145217	0.000923	20.907995
1131.288903	-3.011400	3.598100	-10.834000	25.144653	0.000924	20.911222
1132.287846	-3.007500	3.597100	-10.817000	25.135619	0.000922	20.899783
1133.289692	-3.008300	3.597700	-10.822000	25.095286	0.000921	20.908131
1134.290652	-3.019500	3.596600	-10.859000	25.069029	0.000921	20.907852
1135.290100	-2.998300	3.597900	-10.786000	25.081715	0.000920	20.907310
1136.293531	-2.993500	3.598600	-10.771000	25.080535	0.000918	20.909918
1137.291923	-3.005700	3.594800	-10.804000	25.043818	0.000920	20.903407
1138.289416	-2.995200	3.596000	-10.770000	25.009976	0.000921	20.901206
1139.291574	-3.010000	3.594300	-10.818000	25.023084	0.000917	20.900613
1140.293534	-3.011100	3.593900	-10.820000	25.028002	0.000917	20.888956
1141.290569	-3.003200	3.593500	-10.790000	25.074437	0.000918	20.911383
1142.289941	-3.007600	3.594300	-10.810000	25.111600	0.000917	20.901749
1143.290403	-2.975400	3.596200	-10.698000	25.161421	0.000917	20.902925
1144.292057	-3.001600	3.594900	-10.790000	25.161413	0.000917	20.890590
1145.293883	-3.007000	3.592600	-10.801000	25.164845	0.000918	20.911104
1146.293540	-2.974100	3.592900	-10.685000	25.195899	0.000916	20.896762
1147.293670	-2.990000	3.591800	-10.737000	25.192585	0.000916	20.880160
1148.295214	-2.997200	3.591800	-10.765000	25.226286	0.000915	20.901665
1149.296677	-2.998000	3.591600	-10.766000	25.233320	0.000915	20.912044
1150.296095	-3.006900	3.591200	-10.798000	25.231042	0.000914	20.889845
1151.295522	-2.999700	3.590800	-10.770000	25.169333	0.000914	20.899489
1152.294201	-3.000900	3.591700	-10.777000	25.149791	0.000911	20.905001
1153.294198	-3.001400	3.592300	-10.781000	25.142369	0.000913	20.905136
1154.293953	-2.998100	3.591800	-10.767000	25.148281	0.000913	20.889736
1155.295262	-2.971600	3.591400	-10.672000	25.173862	0.000910	20.908302
1156.295479	-3.003400	3.590300	-10.782000	25.198168	0.000909	20.900463
1157.294290	-3.012300	3.589000	-10.811000	25.244326	0.000910	20.899387
1158.293816	-3.012200	3.589400	-10.809000	25.252826	0.000912	20.881845
1159.295100	-3.012800	3.589900	-10.814000	25.263992	0.000909	20.895425
1160.297824	-3.015900	3.588300	-10.821000	25.251511	0.000909	20.885740
1161.294726	-2.981900	3.588000	-10.698000	25.282377	0.000909	20.885909
1162.297326	-2.988400	3.588400	-10.722000	25.271692	0.000907	20.907896
1163.299411	-2.983100	3.588000	-10.702000	25.263959	0.000907	20.897762
1164.296021	-3.020700	3.586600	-10.832000	25.261539	0.000907	20.885376
1165.297050	-3.009400	3.586600	-10.793000	25.261749	0.000907	20.878476
1166.299798	-3.015200	3.587900	-10.817000	25.288364	0.000906	20.890972
1167.296028	-2.985600	3.588200	-10.712000	25.299589	0.000906	20.892285
1168.297197	-3.004100	3.586700	-10.774000	25.278371	0.000904	20.880940
1169.299809	-2.998400	3.586100	-10.751000	25.270858	0.000904	20.891413
1170.295765	-2.993000	3.587600	-10.736000	25.281399	0.000903	20.883031
1171.298548	-3.022700	3.585600	-10.837000	25.302296	0.000904	20.882676
1172.298033	-2.997900	3.584700	-10.746000	25.304236	0.000902	20.874667
1173.299095	-2.995200	3.584800	-10.736000	25.301571	0.000903	20.865828
1174.300223	-2.999700	3.584200	-10.751000	25.296099	0.000902	20.883565
1175.299661	-2.975800	3.584500	-10.665000	25.312299	0.000904	20.879443
1176.297031	-3.003900	3.583500	-10.764000	25.313193	0.000901	20.861849
1177.298092	-3.020700	3.582900	-10.822000	25.307501	0.000901	20.908762
1178.301873	-3.006400	3.583600	-10.773000	25.310081	0.000901	20.865363
1179.299409	-3.007100	3.582900	-10.773000	25.289277	0.000900	20.885725
1180.299888	-3.009600	3.583000	-10.782000	25.259416	0.000900	20.877556
1181.302094	-3.011400	3.581900	-10.785000	25.231155	0.000900	20.856296
1182.301971	-3.000600	3.582300	-10.748000	25.188405	0.000898	20.896825
1183.301157	-2.989400	3.582200	-10.707000	25.201823	0.000898	20.872840
1184.304623	-3.012300	3.581400	-10.787000	25.185672	0.000899	20.860419
1185.300880	-2.997600	3.581700	-10.736000	25.165481	0.000897	20.877132
1186.301521	-3.006500	3.581600	-10.768000	25.152122	0.000896	20.870834
1187.304513	-3.014400	3.580700	-10.792000	25.132344	0.000897	20.866151
1188.302649	-3.001400	3.580800	-10.746000	25.137607	0.000896	20.860530
1189.302785	-3.008400	3.579500	-10.767000	25.150723	0.000896	20.876541
1190.305056	-2.998700	3.580200	-10.735000	25.163998	0.000894	20.882755
1191.302260	-2.996500	3.580800	-10.729000	25.170484	0.000896	20.878835
1192.302791	-2.994400	3.579200	-10.717000	25.158297	0.000894	20.872765
1193.305016	-3.000000	3.580000	-10.739000	25.170307	0.000894	20.872020
1194.304440	-2.980200	3.580900	-10.670000	25.180546	0.000892	20.873764
1195.303575	-3.007900	3.577200	-10.759000	25.206573	0.000892	20.868599
1196.308141	-2.996400	3.576900	-10.717000	25.220936	0.000891	20.858364
1197.305423	-2.986200	3.578300	-10.685000	25.232717	0.000891	20.857390
1198.303889	-2.976400	3.578800	-10.651000	25.267294	0.000890	20.871241
1199.306126	-3.020000	3.576200	-10.798000	25.285038	0.000889	20.876254
1200.305497	-2.964400	3.577900	-10.606000	25.267531	0.000890	20.880013
1201.307419	-3.012300	3.576100	-10.771000	25.225254	0.000890	20.877871
1202.311469	-2.987700	3.576100	-10.683000	25.189706	0.000889	20.873477
1203.307353	-3.007000	3.575300	-10.751000	25.149982	0.000887	20.873426
1204.306329	-3.016900	3.574000	-10.782000	25.141404	0.000887	20.876669
1205.308412	-3.000800	3.575200	-10.727000	25.148337	0.000888	20.863715
1206.306873	-3.001600	3.575500	-10.731000	25.137575	0.000886	20.863343
1207.308121	-3.022300	3.574300	-10.802000	25.121145	0.000885	20.861548
1208.311573	-2.989500	3.575800	-10.688000	25.113512	0.000885	20.868109
1209.309584	-2.991900	3.575800	-10.696000	25.123744	0.000884	20.877432
1210.310378	-2.999300	3.574100	-10.718000	25.129917	0.000883	20.872250
1211.316384	-3.009200	3.572300	-10.748000	25.113234	0.000883	20.886795
1212.311093	-2.988500	3.574200	-10.680000	25.121281	0.000884	20.850305
1213.311172	-2.998000	3.573700	-10.713000	25.127666	0.000884	20.868568
1214.314490	-2.999200	3.574000	-10.718000	25.113370	0.000880	20.863700
1215.312518	-2.991300	3.572000	-10.684000	25.146331	0.000882	20.864546
1216.313137	-2.992100	3.571500	-10.685000	25.121417	0.000882	20.857553
1217.314686	-3.022700	3.572200	-10.796000	25.158932	0.000882	20.842584
1218.312262	-2.996600	3.572700	-10.704000	25.188409	0.000881	20.853210
1219.311799	-2.985500	3.571900	-10.662000	25.214706	0.000879	20.846894
1220.313999	-3.021100	3.570700	-10.787000	25.244527	0.000878	20.850755
1221.313029	-3.006900	3.571000	-10.737000	25.228192	0.000878	20.863278
1222.314745	-2.986300	3.572400	-10.667000	25.241239	0.000877	20.864522
1223.314662	-3.006600	3.570700	-10.735000	25.287993	0.000878	20.853618
1224.314198	-2.998200	3.570500	-10.704000	25.310703	0.000877	20.850816
1225.313169	-3.001000	3.569900	-10.713000	25.277646	0.000876	20.847971
1226.315207	-2.981300	3.569100	-10.638000	25.277292	0.000877	20.847141
1227.317617	-3.009500	3.568200	-10.737000	25.244799	0.000876	20.868097
1228.313926	-2.992200	3.569500	-10.679000	25.266844	0.000876	20.857988
1229.315866	-2.972600	3.568700	-10.607000	25.203129	0.000874	20.861350
1230.314453	-3.006300	3.567100	-10.723000	25.194325	0.000875	20.867683
1231.316155	-3.005400	3.567300	-10.720000	25.176799	0.000875	20.861468
1232.316182	-3.008600	3.566500	-10.729000	25.175678	0.000875	20.833791
1233.315186	-2.987400	3.567600	-10.657000	25.196704	0.000873	20.840201
1234.315716	-3.006700	3.565600	-10.720000	25.212357	0.000872	20.859708
1235.317674	-3.007700	3.565700	-10.723000	25.231991	0.000873	20.852394
1236.316502	-2.998200	3.565800	-10.690000	25.233450	0.000872	20.854333
1237.317925	-2.990600	3.566100	-10.663000	25.231334	0.000871	20.818544
1238.319727	-3.009200	3.566300	-10.731000	25.233637	0.000869	20.849779
1239.318482	-3.013900	3.564400	-10.741000	25.275838	0.000868	20.855638
1240.318173	-2.986900	3.565900	-10.650000	25.280636	0.000868	20.856188
1241.321613	-3.010700	3.564700	-10.731000	25.300715	0.000869	20.842684
1242.320355	-2.991300	3.564200	-10.661000	25.309064	0.000868	20.839213
1243.318754	-3.002000	3.563500	-10.696000	25.335906	0.000868	20.858576
1244.321765	-3.010700	3.563400	-10.726000	25.337373	0.000864	20.815955
1245.318964	-3.020700	3.561300	-10.757000	25.369898	0.000867	20.848612
1246.319371	-2.987200	3.563300	-10.642000	25.376585	0.000868	20.830671
1247.323007	-3.009800	3.561000	-10.717000	25.397582	0.000864	20.836581
1248.319158	-3.016700	3.561200	-10.742000	25.429641	0.000865	20.836530
1249.318869	-3.014800	3.560500	-10.734000	25.423073	0.000864	20.862650
1250.323786	-2.980700	3.562100	-10.617000	25.422103	0.000863	20.842237
1251.320426	-2.998200	3.560500	-10.674000	25.423393	0.000862	20.841162
1252.319220	-2.996100	3.560600	-10.667000	25.405998	0.000861	20.823695
1253.324893	-2.998400	3.560200	-10.675000	25.394978	0.000862	20.842026
1254.321214	-3.004900	3.560400	-10.698000	25.390129	0.000862	20.823408
1255.323874	-3.016700	3.560800	-10.740000	25.377178	0.000860	20.842171
1256.326729	-3.015400	3.559500	-10.731000	25.340226	0.000859	20.839681
1257.322778	-3.023400	3.559300	-10.760000	25.336112	0.000859	20.828912
1258.326552	-2.995600	3.558500	-10.659000	25.317222	0.000860	20.836025
1259.328117	-3.002100	3.560100	-10.686000	25.251629	0.000857	20.838446
1260.322190	-3.020500	3.557000	-10.743000	25.274121	0.000857	20.828786
1261.326054	-2.976200	3.558600	-10.590000	25.258774	0.000858	20.833291
1262.326982	-2.990300	3.557200	-10.637000	25.299842	0.000858	20.840385
1263.323472	-3.001900	3.557600	-10.679000	25.311067	0.000858	20.831742
1264.325873	-3.019400	3.556700	-10.738000	25.318530	0.000858	20.832596
1265.327494	-2.992700	3.558700	-10.649000	25.357811	0.000855	20.835053
1266.325038	-2.998300	3.557600	-10.666000	25.407898	0.000857	20.829396
1267.328710	-3.022500	3.556400	-10.748000	25.399290	0.000857	20.822175
1268.329948	-3.020200	3.555200	-10.736000	25.412865	0.000855	20.842444
1269.325840	-2.972100	3.557800	-10.573000	25.385596	0.000853	20.831184
1270.326518	-2.986200	3.556300	-10.619000	25.424417	0.000854	20.831285
1271.329976	-3.008700	3.554000	-10.691000	25.437310	0.000853	20.825740
1272.332351	-3.006000	3.554600	-10.684000	25.437934	0.000851	20.825418
1273.330472	-2.997100	3.553300	-10.648000	25.467007	0.000852	20.801982
1274.332530	-2.986200	3.553200	-10.609000	25.430641	0.000851	20.828526
1275.331351	-2.993700	3.553500	-10.636000	25.467269	0.000850	20.806987
1276.333714	-2.994200	3.553600	-10.639000	25.431459	0.000850	20.809908
1277.335063	-3.018000	3.552500	-10.720000	25.450912	0.000850	20.812372
1278.332747	-3.000400	3.553400	-10.661000	25.422952	0.000850	20.810848
1279.331926	-3.007300	3.553200	-10.685000	25.403365	0.000848	20.800663
1280.338521	-3.004800	3.552100	-10.672000	25.374484	0.000849	20.834725
1281.333419	-3.001400	3.553000	-10.661000	25.399259	0.000846	20.812661
1282.333508	-2.997400	3.552000	-10.647000	25.402387	0.000846	20.807742
1283.333546	-3.018500	3.550600	-10.717000	25.420340	0.000845	20.827666
1284.336754	-2.999100	3.550900	-10.648000	25.421732	0.000845	20.799191
1285.334579	-2.996200	3.550700	-10.638000	25.422593	0.000845	20.822815
1286.335973	-3.018500	3.549200	-10.713000	25.422272	0.000845	20.822967
1287.333766	-3.034900	3.549700	-10.773000	25.390897	0.000844	20.810903
1288.338406	-3.006400	3.549600	-10.671000	25.371874	0.000845	20.831630
1289.338545	-3.011100	3.550200	-10.689000	25.352952	0.000844	20.808364
1290.338777	-3.004400	3.547900	-10.658000	25.363266	0.000844	20.811607
1291.334199	-2.990100	3.548800	-10.610000	25.376851	0.000842	20.801067
1292.337686	-3.012500	3.548100	-10.688000	25.385714	0.000843	20.804751
1293.342597	-3.000000	3.549300	-10.647000	25.382873	0.000841	20.800001
1294.334195	-3.018900	3.547300	-10.708000	25.348149	0.000841	20.787420
1295.341920	-3.001300	3.547200	-10.645000	25.384646	0.000839	20.808419
1296.342130	-2.994200	3.548200	-10.623000	25.360302	0.000840	20.792511
1297.334784	-2.998700	3.547300	-10.636000	25.367782	0.000838	20.821832
1298.337369	-2.991500	3.546100	-10.606000	25.374840	0.000839	20.808056
1299.334441	-2.981600	3.546800	-10.574000	25.340638	0.000837	20.796000
1300.334902	-3.003300	3.544800	-10.646000	25.378408	0.000838	20.803104
1301.339962	-2.993400	3.547400	-10.617000	25.395670	0.000839	20.790566
1302.340348	-3.017000	3.545600	-10.696000	25.361646	0.000836	20.787695
1303.336006	-3.012600	3.545600	-10.679000	25.385367	0.000835	20.788281
1304.340350	-2.967400	3.545600	-10.521000	25.367297	0.000835	20.822293
1305.339746	-3.004200	3.543800	-10.645000	25.389061	0.000833	20.792465
1306.340181	-2.990000	3.543700	-10.594000	25.390698	0.000834	20.786047
1307.341557	-3.013900	3.543100	-10.678000	25.380622	0.000833	20.794896
1308.338757	-3.001900	3.544300	-10.638000	25.391425	0.000833	20.798157
1309.338565	-2.980200	3.544900	-10.562000	25.393213	0.000830	20.792840
1310.339415	-2.995200	3.543300	-10.613000	25.407025	0.000830	20.788217
1311.339384	-2.988000	3.543000	-10.585000	25.360615	0.000831	20.773384
1312.339269	-3.008900	3.541600	-10.655000	25.381536	0.000832	20.792969
1313.342318	-3.020800	3.541400	-10.697000	25.385576	0.000831	20.791336
1314.340561	-3.026200	3.539500	-10.710000	25.357935	0.000831	20.770693
1315.340992	-3.025600	3.540100	-10.710000	25.326879	0.000829	20.793090
1316.340698	-2.996100	3.541600	-10.609000	25.301244	0.000829	20.783473
1317.341759	-3.003900	3.540700	-10.634000	25.322116	0.000829	20.763652
1318.341615	-2.997200	3.540300	-10.610000	25.336175	0.000828	20.780138
1319.342338	-3.013000	3.540600	-10.667000	25.333258	0.000826	20.792383
1320.342122	-3.008000	3.539900	-10.647000	25.369831	0.000827	20.774578
1321.341647	-3.012300	3.538800	-10.659000	25.362463	0.000826	20.781403
1322.343068	-3.014000	3.539200	-10.666000	25.429011	0.000827	20.791328
1323.342375	-3.020200	3.539200	-10.688000	25.444982	0.000824	20.776545
1324.342954	-3.019800	3.537900	-10.682000	25.469199	0.000825	20.788536
1325.344300	-3.016000	3.537400	-10.666000	25.442151	0.000824	20.778919
1326.347063	-3.012700	3.537000	-10.654000	25.410391	0.000822	20.756509
1327.342174	-3.001900	3.537600	-10.619000	25.380558	0.000823	20.769227
1328.344149	-3.006700	3.536800	-10.633000	25.424610	0.000823	20.761304
1329.342328	-3.001700	3.536100	-10.613000	25.431433	0.000819	20.756301
1330.342887	-3.025600	3.536300	-10.699000	25.471975	0.000822	20.760977
1331.345507	-2.991000	3.537000	-10.578000	25.472338	0.000819	20.761816
1332.344274	-3.023100	3.534400	-10.683000	25.500527	0.000821	20.757407
1333.356679	-3.007800	3.535800	-10.633000	25.500116	0.000819	20.754149
1334.343512	-2.991400	3.536200	-10.577000	25.497992	0.000820	20.758181
1335.344948	-3.026500	3.534500	-10.697000	25.458906	0.000819	20.759233
1336.345777	-3.008800	3.535900	-10.638000	25.448814	0.000818	20.755262
1337.345631	-3.007600	3.532600	-10.622000	25.477897	0.000819	20.773088
1338.344224	-2.993700	3.533000	-10.575000	25.438227	0.000818	20.743682
1339.344493	-3.004600	3.534200	-10.618000	25.408496	0.000817	20.777840
1340.345892	-3.024400	3.532400	-10.682000	25.434149	0.000817	20.740536
1341.346657	-2.994700	3.533600	-10.581000	25.431485	0.000815	20.761095
1342.345410	-3.027900	3.533300	-10.696000	25.409674	0.000816	20.745831
1343.345637	-3.022800	3.531300	-10.672000	25.396967	0.000813	20.753935
1344.346702	-3.022600	3.530800	-10.671000	25.410672	0.000816	20.758213
1345.346691	-3.000100	3.530700	-10.591000	25.423497	0.000814	20.751651
1346.347719	-3.014200	3.530100	-10.640000	25.439511	0.000817	20.753507
1347.349134	-3.006300	3.530700	-10.614000	25.448602	0.000816	20.754101
1348.348054	-3.006600	3.530100	-10.613000	25.462338	0.000814	20.751299
1349.347452	-3.012600	3.528600	-10.629000	25.451124	0.000811	20.739564
1350.349484	-3.002400	3.530400	-10.599000	25.441623	0.000812	20.740929
1351.349362	-2.987200	3.530600	-10.545000	25.398502	0.000812	20.751208
1352.351133	-2.967800	3.530500	-10.477000	25.395881	0.000814	20.754741
1353.355957	-3.016800	3.528500	-10.643000	25.387237	0.000814	20.761235
1354.353588	-3.023700	3.529000	-10.668000	25.422991	0.000810	20.748772
1355.351593	-3.041900	3.527600	-10.729000	25.393033	0.000811	20.751881
1356.355659	-2.991300	3.528000	-10.551000	25.368276	0.000809	20.731763
1357.351099	-3.026400	3.526200	-10.670000	25.327733	0.000808	20.751273
1358.353057	-3.015800	3.527900	-10.638000	25.331122	0.000808	20.754201
1359.355680	-3.007500	3.528100	-10.610000	25.325793	0.000808	20.726091
1360.352029	-3.025200	3.526400	-10.666000	25.345595	0.000809	20.738387
1361.352903	-2.981000	3.528000	-10.516000	25.364163	0.000806	20.746600
1362.359818	-2.997600	3.525900	-10.568000	25.359880	0.000806	20.757947
1363.352964	-2.986400	3.526900	-10.531000	25.358928	0.000804	20.754146
1364.352359	-2.998800	3.526000	-10.573000	25.368852	0.000805	20.740877
1365.355618	-2.996300	3.526000	-10.564000	25.358557	0.000805	20.745239
1366.351945	-2.999400	3.524800	-10.572000	25.359419	0.000804	20.729033
1367.352645	-2.987900	3.524700	-10.530000	25.394110	0.000806	20.758179
1368.358717	-2.987300	3.524700	-10.527000	25.366199	0.000804	20.736316
1369.355799	-3.010800	3.523400	-10.606000	25.394499	0.000803	20.745767
1370.353459	-2.992200	3.524100	-10.542000	25.361621	0.000803	20.740254
1371.357482	-2.980300	3.524500	-10.503000	25.362129	0.000802	20.718952
1372.357646	-3.007500	3.522400	-10.592000	25.412511	0.000802	20.737300
1373.354946	-2.998900	3.521800	-10.560000	25.407883	0.000801	20.733601
1374.358291	-3.001400	3.522300	-10.571000	25.383869	0.000801	20.736040
1375.357433	-3.014100	3.523200	-10.618000	25.379626	0.000801	20.744583
1376.359888	-3.003400	3.520100	-10.571000	25.371288	0.000801	20.740004
1377.360789	-2.992900	3.520300	-10.535000	25.369299	0.000800	20.739428
1378.359450	-2.978100	3.521200	-10.486000	25.365023	0.000799	20.735135
1379.360343	-2.992900	3.519500	-10.533000	25.308568	0.000799	20.746729
1380.366665	-2.989100	3.519900	-10.520000	25.292198	0.000798	20.760165
1381.359936	-2.987200	3.521000	-10.516000	25.280284	0.000797	20.761953
1382.366996	-2.987900	3.520900	-10.519000	25.277223	0.000795	20.741336
1383.360172	-3.009200	3.519800	-10.590000	25.313215	0.000795	20.746653
1384.358969	-2.991200	3.519300	-10.524000	25.327645	0.000795	20.743598
1385.359527	-2.987700	3.519900	-10.516000	25.317180	0.000794	20.750635
1386.360779	-3.019100	3.517400	-10.618000	25.328312	0.000796	20.754225
1387.359697	-3.002600	3.516800	-10.559000	25.296318	0.000795	20.739171
1388.359481	-2.987800	3.518900	-10.512000	25.297609	0.000796	20.753744
1389.360676	-2.995400	3.518100	-10.537000	25.315612	0.000795	20.759018
1390.360482	-3.025400	3.517800	-10.640000	25.299794	0.000794	20.747402
1391.361208	-2.983600	3.516300	-10.490000	25.320201	0.000794	20.731381
1392.363833	-2.992500	3.518000	-10.526000	25.353571	0.000793	20.714626
1393.367949	-2.997300	3.516600	-10.538000	25.404646	0.000793	20.751214
1394.364137	-3.004700	3.515800	-10.563000	25.434066	0.000792	20.738556
1395.367434	-3.027600	3.515100	-10.642000	25.430000	0.000791	20.763397
1396.363137	-2.978900	3.516200	-10.473000	25.404840	0.000792	20.749038
1397.364563	-3.022600	3.513800	-10.620000	25.417741	0.000790	20.754406
1398.366094	-3.007200	3.514300	-10.568000	25.422041	0.000792	20.777217
1399.362814	-2.995400	3.514200	-10.525000	25.455981	0.000791	20.761985
1400.363923	-2.985000	3.513500	-10.486000	25.459910	0.000791	20.755973
1401.368797	-3.009900	3.513100	-10.572000	25.476090	0.000791	20.758471
1402.364461	-2.982100	3.513200	-10.476000	25.499824	0.000788	20.768555
1403.364386	-2.991600	3.513200	-10.509000	25.512641	0.000788	20.758192
1404.369361	-2.999500	3.511900	-10.534000	25.523331	0.000789	20.771773
1405.367045	-3.014100	3.509700	-10.577000	25.502380	0.000787	20.776811
1406.367125	-3.003600	3.511000	-10.544000	25.500408	0.000790	20.753494
1407.371920	-3.004300	3.511600	-10.547000	25.476328	0.000786	20.744959
1408.366558	-3.015500	3.510000	-10.584000	25.461369	0.000786	20.763129
1409.366851	-2.995600	3.510300	-10.515000	25.501295	0.000786	20.772403
1410.370026	-2.997700	3.510200	-10.522000	25.505998	0.000785	20.763850
1411.373328	-2.980600	3.511000	-10.462000	25.461676	0.000785	20.767230
1412.371057	-2.994000	3.508500	-10.502000	25.466625	0.000785	20.760820
1413.370740	-2.991100	3.509800	-10.496000	25.387862	0.000783	20.783200
1414.368845	-2.999300	3.508500	-10.522000	25.410333	0.000784	20.768779
1415.373930	-3.004400	3.506900	-10.535000	25.408023	0.000783	20.791116
1416.375700	-2.994100	3.510000	-10.508000	25.421547	0.000783	20.763918
1417.373822	-3.015300	3.507900	-10.576000	25.456161	0.000784	20.765486
1418.368526	-2.997100	3.508600	-10.514000	25.442190	0.000783	20.772319
1419.376943	-3.013500	3.505800	-10.563000	25.463683	0.000782	20.785368
1420.370099	-3.009300	3.506700	-10.552000	25.457469	0.000780	20.784818
1421.372662	-3.026600	3.504800	-10.607000	25.488463	0.000780	20.778009
1422.376264	-2.999900	3.506000	-10.516000	25.447629	0.000781	20.774462
1423.368753	-2.987400	3.506800	-10.475000	25.443109	0.000779	20.767552
1424.370266	-2.977200	3.506500	-10.438000	25.399365	0.000777	20.753972
1425.375058	-2.991000	3.507300	-10.488000	25.355492	0.000779	20.780568
1426.369315	-2.990500	3.504300	-10.478000	25.388352	0.000776	20.792701
1427.369914	-3.018600	3.502400	-10.572000	25.391658	0.000776	20.785589
1428.379097	-3.018200	3.503100	-10.573000	25.402764	0.000776	20.759281
1429.370951	-2.993800	3.503300	-10.487000	25.446364	0.000777	20.775562
1430.372141	-3.013100	3.501500	-10.549000	25.482116	0.000774	20.781118
1431.375101	-2.977000	3.503000	-10.427000	25.500758	0.000773	20.771389
1432.374578	-3.018700	3.502100	-10.570000	25.526650	0.000774	20.767046
1433.371637	-2.984400	3.501100	-10.448000	25.537737	0.000773	20.788137
1434.377401	-3.033500	3.501300	-10.619000	25.568790	0.000774	20.762897
1435.387943	-2.997800	3.501600	-10.496000	25.579429	0.000773	20.769789
1436.373370	-3.015300	3.500900	-10.553000	25.579901	0.000774	20.771686
1437.378757	-2.996100	3.501700	-10.490000	25.601737	0.000770	20.777495
1438.376876	-3.025000	3.499800	-10.586000	25.616380	0.000770	20.801210
1439.375288	-2.995600	3.500900	-10.487000	25.630107	0.000770	20.796031
1440.377508	-3.004400	3.499300	-10.512000	25.612571	0.000770	20.783160
1441.373622	-2.986200	3.501300	-10.454000	25.617368	0.000769	20.786081
1442.374634	-2.982500	3.499300	-10.435000	25.635012	0.000770	20.784836
1443.378470	-2.972700	3.498100	-10.398000	25.637102	0.000772	20.777452
1444.376614	-3.009600	3.497400	-10.524000	25.568689	0.000767	20.799306
1445.374363	-3.016400	3.496600	-10.547000	25.586730	0.000768	20.810313
1446.377496	-2.982900	3.498200	-10.433000	25.586082	0.000768	20.784057
1447.376787	-2.995800	3.496600	-10.473000	25.608895	0.000767	20.770933
1448.375680	-3.003600	3.497200	-10.503000	25.617022	0.000768	20.783362
1449.379290	-3.002500	3.496800	-10.498000	25.632493	0.000766	20.765710
1450.377249	-3.022000	3.495200	-10.561000	25.638191	0.000765	20.788502
1451.375348	-3.004100	3.496000	-10.501000	25.613439	0.000764	20.789722
1452.378784	-2.989900	3.496100	-10.453000	25.599225	0.000764	20.794887
1453.375271	-2.999100	3.496500	-10.484000	25.585678	0.000764	20.790764
1454.382056	-3.006400	3.494900	-10.506000	25.547536	0.000763	20.796081
1455.382964	-2.998900	3.494100	-10.478000	25.540984	0.000763	20.790924
1456.377150	-2.997100	3.495400	-10.475000	25.538277	0.000763	20.799111
1457.376646	-3.004200	3.493100	-10.491000	25.553782	0.000761	20.824165
1458.380520	-3.009700	3.494100	-10.514000	25.514090	0.000763	20.800899
1459.377478	-3.023800	3.491400	-10.556000	25.544905	0.000762	20.801026
1460.376805	-3.021700	3.491400	-10.549000	25.523810	0.000763	20.804497
1461.377920	-2.999500	3.493900	-10.479000	25.528802	0.000761	20.810932
1462.377004	-3.014300	3.491700	-10.524000	25.539528	0.000762	20.807005
1463.376923	-2.992100	3.491400	-10.445000	25.533448	0.000759	20.794261
1464.378339	-3.003400	3.491900	-10.486000	25.528896	0.000759	20.806759
1465.380721	-2.975100	3.491300	-10.385000	25.502884	0.000759	20.799603
1466.377518	-2.988500	3.490400	-10.429000	25.511848	0.000758	20.821407
1467.380742	-3.013800	3.489300	-10.514000	25.516173	0.000757	20.825750
1468.382416	-3.007700	3.489500	-10.494000	25.489530	0.000758	20.832185
1469.377353	-2.994700	3.490300	-10.450000	25.464876	0.000759	20.812644
1470.378335	-3.003100	3.489200	-10.478000	25.500220	0.000757	20.811627
1471.381717	-2.999200	3.490600	-10.467000	25.509530	0.000757	20.811967
1472.377231	-2.993800	3.488100	-10.442000	25.534327	0.000760	20.815532
1473.378235	-3.018700	3.487400	-10.526000	25.520635	0.000757	20.796566
1474.380993	-3.013400	3.487100	-10.506000	25.503688	0.000755	20.843557
1475.378805	-3.022600	3.486400	-10.536000	25.521857	0.000755	20.829087
1476.383086	-3.005400	3.487000	-10.479000	25.558212	0.000754	20.828613
1477.380133	-3.017000	3.486800	-10.519000	25.525187	0.000757	20.824371
1478.379531	-2.991400	3.485400	-10.426000	25.565142	0.000753	20.811392
1479.381812	-2.983400	3.487400	-10.403000	25.547598	0.000755	20.805626
1480.378845	-3.022700	3.484200	-10.530000	25.578582	0.000753	20.827733
1481.378813	-2.980200	3.486200	-10.389000	25.588320	0.000752	20.812858
1482.382267	-2.984000	3.483700	-10.394000	25.596295	0.000753	20.810910
1483.382390	-2.956400	3.486700	-10.307000	25.589668	0.000751	20.825117
1484.381320	-2.979700	3.485500	-10.383000	25.606091	0.000751	20.825964
1485.382897	-2.982100	3.484600	-10.391000	25.566011	0.000752	20.841661
1486.386357	-2.982000	3.484800	-10.391000	25.548989	0.000749	20.825515
1487.384962	-2.993900	3.483300	-10.427000	25.487231	0.000752	20.833195
1488.384478	-3.002100	3.483400	-10.457000	25.484945	0.000750	20.828530
1489.383528	-2.977000	3.483300	-10.369000	25.462206	0.000748	20.834618
1490.381060	-2.966500	3.481500	-10.327000	25.447737	0.000749	20.827676
1491.384173	-3.018300	3.481700	-10.507000	25.463918	0.000747	20.824957
1492.383146	-3.004400	3.480800	-10.456000	25.472990	0.000747	20.834542
1493.381008	-2.990700	3.480100	-10.406000	25.505569	0.000746	20.841179
1494.384202	-2.985800	3.481400	-10.394000	25.547262	0.000747	20.836109
1495.381486	-3.030800	3.481100	-10.549000	25.519885	0.000746	20.858874
1496.381330	-3.000900	3.481100	-10.445000	25.489685	0.000745	20.840875
1497.384545	-3.001500	3.480900	-10.447000	25.509390	0.000746	20.836956
1498.382173	-3.019100	3.478800	-10.501000	25.466870	0.000745	20.813223
1499.381169	-2.984100	3.479000	-10.380000	25.492713	0.000744	20.814045
1500.384073	-2.990900	3.479300	-10.404000	25.504931	0.000744	20.832479
1501.386291	-3.008500	3.476900	-10.459000	25.488211	0.000744	20.832283
1502.381092	-2.995900	3.478200	-10.419000	25.485245	0.000742	20.832623
1503.385737	-2.997100	3.477200	-10.420000	25.486794	0.000744	20.842240
1504.383239	-3.012200	3.477500	-10.473000	25.533203	0.000740	20.844748
1505.385194	-2.983100	3.477700	-10.374000	25.552744	0.000740	20.856786
1506.387704	-2.992400	3.476200	-10.400000	25.524156	0.000741	20.847991
1507.387356	-2.982100	3.476700	-10.367000	25.506542	0.000740	20.849743
1508.385442	-3.013300	3.474300	-10.468000	25.499503	0.000738	20.829398
1509.386673	-3.030400	3.474900	-10.529000	25.495261	0.000738	20.841733
1510.391664	-2.979900	3.474200	-10.352000	25.513801	0.000738	20.833325
1511.397802	-3.005700	3.475200	-10.444000	25.502134	0.000737	20.834885
1512.388378	-2.993800	3.473800	-10.399000	25.506831	0.000739	20.833912
1513.387952	-3.019700	3.473700	-10.488000	25.518231	0.000738	20.846782
1514.386187	-2.995700	3.474100	-10.406000	25.508964	0.000739	20.834158
1515.388680	-2.994500	3.472200	-10.397000	25.498325	0.000737	20.841017
1516.390507	-3.012800	3.471300	-10.458000	25.492533	0.000735	20.864597
1517.386729	-3.002900	3.472400	-10.426000	25.539175	0.000736	20.835573
1518.390266	-2.997400	3.471600	-10.404000	25.500358	0.000735	20.856808
1519.388850	-3.011500	3.471200	-10.453000	25.528146	0.000735	20.849153
1520.391527	-3.006100	3.469600	-10.429000	25.521410	0.000735	20.857561
1521.389855	-3.010000	3.471400	-10.448000	25.537953	0.000734	20.881759
1522.392242	-2.978900	3.471400	-10.340000	25.547472	0.000734	20.828733
1523.387977	-2.991300	3.471000	-10.382000	25.559477	0.000732	20.857857
1524.387712	-3.006700	3.468600	-10.428000	25.592594	0.000733	20.847021
1525.393549	-3.011900	3.467800	-10.444000	25.611486	0.000733	20.862201
1526.389809	-3.012300	3.468300	-10.446000	25.596591	0.000731	20.838708
1527.391958	-3.009900	3.468500	-10.439000	25.602476	0.000730	20.857894
1528.393366	-3.009300	3.467100	-10.433000	25.574841	0.000731	20.852899
1529.390049	-3.031700	3.466800	-10.509000	25.575911	0.000731	20.850655
1530.392254	-3.018000	3.467100	-10.463000	25.590025	0.000729	20.857716
1531.396721	-2.999600	3.466700	-10.398000	25.612189	0.000728	20.864803
1532.392992	-3.006600	3.466000	-10.420000	25.641957	0.000728	20.884741
1533.394547	-2.985000	3.466400	-10.346000	25.662596	0.000728	20.872755
1534.394012	-3.020500	3.464800	-10.464000	25.694351	0.000728	20.864347
1535.392867	-2.997200	3.465700	-10.386000	25.688157	0.000728	20.883728
1536.394742	-2.990700	3.465600	-10.364000	25.712899	0.000726	20.870174
1537.399183	-2.983300	3.465500	-10.337000	25.705227	0.000725	20.873373
1538.391661	-2.992100	3.464700	-10.365000	25.679533	0.000726	20.876964
1539.397657	-2.998000	3.465600	-10.388000	25.656595	0.000726	20.881426
1540.395740	-2.996800	3.465000	-10.383000	25.634677	0.000727	20.885017
1541.395733	-2.992900	3.463300	-10.365000	25.618795	0.000724	20.864800
1542.394907	-3.002800	3.464300	-10.401000	25.585123	0.000723	20.883138
1543.395281	-2.986300	3.463500	-10.340000	25.530457	0.000723	20.880395
1544.391822	-3.020700	3.461500	-10.454000	25.516328	0.000724	20.873319
1545.394122	-3.017400	3.462400	-10.447000	25.531444	0.000723	20.900351
1546.397949	-2.995600	3.462100	-10.370000	25.562598	0.000723	20.882802
1547.395691	-3.021100	3.461100	-10.454000	25.555736	0.000724	20.881600
1548.398702	-2.985400	3.460300	-10.329000	25.550644	0.000723	20.887391
1549.396530	-3.003900	3.459800	-10.392000	25.528226	0.000721	20.895223
1550.399374	-3.000200	3.460400	-10.380000	25.499190	0.000722	20.884083
1551.396309	-3.040000	3.458200	-10.512000	25.490327	0.000722	20.881821
1552.401188	-3.010900	3.459000	-10.412000	25.501205	0.000721	20.874253
1553.398526	-3.003700	3.459200	-10.388000	25.549829	0.000720	20.885151
1554.401814	-3.004500	3.458500	-10.389000	25.587481	0.000719	20.872704
1555.400939	-2.991300	3.459500	-10.347000	25.611249	0.000719	20.882350
1556.397924	-3.008300	3.456700	-10.397000	25.643453	0.000721	20.893356
1557.402870	-3.023700	3.458300	-10.456000	25.650459	0.000719	20.878108
1558.401576	-2.976300	3.458800	-10.293000	25.633860	0.000718	20.896997
1559.397531	-2.986900	3.457300	-10.325000	25.641961	0.000718	20.891857
1560.402336	-2.978900	3.455600	-10.293000	25.596040	0.000718	20.886041
1561.398981	-2.967800	3.457100	-10.259000	25.565698	0.000718	20.887337
1562.398178	-2.972800	3.455000	-10.270000	25.532926	0.000718	20.889512
1563.402530	-2.993800	3.455100	-10.343000	25.561777	0.000716	20.904260
1564.404270	-3.007300	3.453500	-10.385000	25.575563	0.000717	20.893924
1565.401430	-3.011000	3.454500	-10.401000	25.606326	0.000717	20.893526
1566.403470	-3.036800	3.452700	-10.485000	25.661317	0.000715	20.882849
1567.407278	-3.004900	3.453200	-10.375000	25.639676	0.000714	20.894778
1568.402911	-3.006900	3.453600	-10.384000	25.645140	0.000715	20.902635
1569.406069	-3.000600	3.453900	-10.362000	25.633752	0.000713	20.904948
1570.406672	-2.988300	3.452900	-10.318000	25.651843	0.000713	20.906522
1571.402324	-2.994000	3.452800	-10.336000	25.651962	0.000713	20.896211
1572.404086	-3.015800	3.450900	-10.406000	25.662946	0.000712	20.907243
1573.405310	-3.009800	3.451800	-10.388000	25.640073	0.000712	20.885694
1574.402641	-3.013500	3.451300	-10.399000	25.605533	0.000712	20.906953
1575.402828	-3.008000	3.450600	-10.379000	25.584457	0.000712	20.927984
1576.408952	-3.012400	3.450300	-10.393000	25.592062	0.000711	20.899588
1577.406985	-3.020200	3.450500	-10.421000	25.616366	0.000709	20.910246
1578.406261	-2.992400	3.449000	-10.320000	25.641557	0.000708	20.908994
1579.408537	-2.989000	3.450500	-10.312000	25.685469	0.000707	20.891459
1580.404637	-2.982600	3.449400	-10.288000	25.710017	0.000709	20.933655
1581.407928	-3.000200	3.448300	-10.344000	25.757997	0.000706	20.927795
1582.406871	-3.017700	3.448200	-10.404000	25.773989	0.000708	20.916359
1583.411870	-2.996100	3.447900	-10.328000	25.798365	0.000708	20.908129
1584.411476	-3.006200	3.448100	-10.364000	25.783707	0.000705	20.922801
1585.411285	-3.008000	3.445900	-10.364000	25.803507	0.000707	20.934154
1586.405892	-2.989700	3.447200	-10.306000	25.840249	0.000709	20.921277
1587.410811	-2.997600	3.446100	-10.329000	25.845567	0.000709	20.938472
1588.410009	-2.994500	3.447700	-10.323000	25.838185	0.000707	20.909722
1589.407739	-2.989600	3.447100	-10.304000	25.798668	0.000705	20.924553
1590.410243	-2.973700	3.445400	-10.245000	25.802268	0.000704	20.941917
1591.407982	-2.974500	3.446800	-10.251000	25.763183	0.000702	20.944856
1592.407221	-2.996900	3.445600	-10.325000	25.798045	0.000704	20.928668
1593.411080	-2.991700	3.443700	-10.302000	25.803406	0.000704	20.928364
1594.407582	-3.002300	3.443600	-10.337000	25.807485	0.000704	20.937201
1595.407605	-2.972900	3.444800	-10.240000	25.792834	0.000702	20.927701
1596.411338	-3.006000	3.443300	-10.349000	25.797782	0.000703	20.929351
1597.407337	-2.989100	3.442500	-10.289000	25.786327	0.000702	20.940603
1598.408822	-2.982000	3.443000	-10.266000	25.774526	0.000701	20.922587
1599.412514	-3.002000	3.441300	-10.329000	25.775319	0.000700	20.947089
1600.413621	-3.004200	3.442400	-10.340000	25.809355	0.000697	20.931494
1601.410633	-2.981900	3.443400	-10.267000	25.813308	0.000700	20.941627
1602.414453	-3.016000	3.440600	-10.376000	25.823062	0.000697	20.925349
1603.412373	-3.016000	3.440300	-10.375000	25.834989	0.000698	20.948232
1604.411923	-3.015600	3.440600	-10.374000	25.849055	0.000697	20.959990
1605.416007	-2.985400	3.441700	-10.274000	25.884059	0.000699	20.941103
1606.414683	-2.985100	3.439900	-10.268000	25.875217	0.000698	20.959245
1607.411708	-3.009600	3.438300	-10.347000	25.888224	0.000696	20.954294
1608.416423	-3.015500	3.438400	-10.367000	25.878017	0.000697	20.955420
1609.413175	-3.004700	3.438000	-10.329000	25.853681	0.000695	20.942355
1610.414454	-3.018600	3.438900	-10.380000	25.802131	0.000694	20.933246
1611.419930	-3.007800	3.438700	-10.342000	25.765261	0.000693	20.943151
1612.420458	-3.005300	3.438500	-10.332000	25.725213	0.000696	20.941331
1613.418056	-2.988500	3.438800	-10.276000	25.685879	0.000693	20.926956
1614.420540	-3.009200	3.437600	-10.342000	25.671075	0.000694	20.940060
1615.420962	-2.998200	3.435800	-10.300000	25.679869	0.000693	20.949365
1616.417452	-3.009500	3.437900	-10.345000	25.712164	0.000692	20.943397
1617.421896	-2.998800	3.437500	-10.307000	25.724269	0.000693	20.943227
1618.417861	-2.996400	3.436800	-10.297000	25.731368	0.000692	20.954149
1619.417805	-3.018900	3.436200	-10.372000	25.762970	0.000691	20.930893
1620.424332	-3.013000	3.435000	-10.349000	25.758866	0.000693	20.950002
1621.417351	-3.024000	3.433500	-10.382000	25.789447	0.000691	20.958434
1622.418573	-3.006700	3.433200	-10.321000	25.816699	0.000690	20.979167
1623.422377	-3.016600	3.432700	-10.353000	25.840671	0.000690	20.956784
1624.419017	-3.007800	3.433600	-10.326000	25.870418	0.000688	20.949210
1625.420455	-3.012700	3.432600	-10.340000	25.887637	0.000689	20.944697
1626.422935	-2.997500	3.433900	-10.293000	25.872364	0.000691	20.951164
1627.426542	-3.007600	3.432600	-10.323000	25.844905	0.000688	20.937332
1628.425231	-2.993500	3.432000	-10.273000	25.831065	0.000689	20.959936
1629.427393	-2.985600	3.431700	-10.245000	25.846667	0.000689	20.966125
1630.420084	-2.976900	3.433100	-10.219000	25.839360	0.000686	20.914220
1631.422822	-3.001300	3.430800	-10.296000	25.838560	0.000686	20.939967
1632.423351	-3.012100	3.430700	-10.332000	25.850216	0.000685	20.929392
1633.419717	-2.997400	3.430100	-10.280000	25.855408	0.000685	20.942666
1634.425241	-3.015700	3.430000	-10.343000	25.863828	0.000684	20.933109
1635.427809	-2.992100	3.430700	-10.264000	25.877239	0.000685	20.930934
1636.423350	-3.013100	3.429100	-10.331000	25.865961	0.000682	20.934303
1637.421724	-2.994000	3.430000	-10.268000	25.841114	0.000683	20.922621
1638.426429	-3.002800	3.429900	-10.298000	25.779776	0.000683	20.929283
1639.422301	-3.005600	3.428900	-10.305000	25.738615	0.000683	20.928715
1640.424787	-3.022100	3.426900	-10.355000	25.735253	0.000682	20.915382
1641.428848	-2.995700	3.428600	-10.270000	25.759093	0.000682	20.937904
1642.424677	-2.994100	3.428100	-10.263000	25.741609	0.000681	20.915129
1643.425788	-2.997400	3.427200	-10.272000	25.779222	0.000681	20.923037
1644.429712	-3.006100	3.428100	-10.304000	25.739602	0.000680	20.918802
1645.425938	-3.006700	3.425300	-10.298000	25.736737	0.000681	20.936786
1646.430241	-3.045700	3.424100	-10.427000	25.733552	0.000678	20.940698
1647.425287	-2.983500	3.425200	-10.219000	25.746921	0.000679	20.916197
1648.432815	-2.999200	3.425600	-10.273000	25.773593	0.000678	20.928288
1649.430363	-2.990600	3.425900	-10.244000	25.783784	0.000680	20.922878
1650.425492	-2.994200	3.425600	-10.256000	25.776999	0.000678	20.909900
1651.428324	-3.001100	3.425200	-10.277000	25.778163	0.000677	20.915336
1652.428357	-2.986900	3.425300	-10.230000	25.772347	0.000677	20.915658
1653.427038	-2.995600	3.421400	-10.247000	25.788075	0.000674	20.910121
1654.429919	-2.981800	3.423200	-10.206000	25.764542	0.000679	20.927257
1655.428216	-3.001600	3.423500	-10.274000	25.728093	0.000676	20.907718
1656.436090	-2.995600	3.422900	-10.253000	25.739718	0.000676	20.904696
1657.434093	-3.009500	3.421000	-10.294000	25.746453	0.000675	20.930424
1658.434569	-3.012200	3.420800	-10.303000	25.743916	0.000674	20.896585
1659.430494	-2.995400	3.421900	-10.248000	25.767763	0.000675	20.899676
1660.435664	-3.018100	3.419800	-10.321000	25.761306	0.000673	20.890346
1661.432993	-3.013200	3.420300	-10.305000	25.789232	0.000673	20.914127
1662.433476	-2.999700	3.420900	-10.261000	25.794248	0.000674	20.896882
1663.434052	-3.023300	3.419900	-10.338000	25.789722	0.000674	20.900396
1664.432145	-2.997500	3.419600	-10.250000	25.755768	0.000670	20.903747
1665.433961	-2.990900	3.420900	-10.231000	25.740032	0.000671	20.903588
1666.436185	-2.985500	3.420100	-10.209000	25.742021	0.000672	20.878087
1667.436332	-3.000600	3.419100	-10.258000	25.764722	0.000670	20.898518
1668.436745	-2.965600	3.421000	-10.144000	25.814117	0.000669	20.896925
1669.439516	-3.005300	3.418000	-10.271000	25.812913	0.000669	20.907570
1670.438850	-3.023900	3.417900	-10.334000	25.833462	0.000669	20.877954
1671.434291	-2.981800	3.416000	-10.185000	25.841605	0.000667	20.897986
1672.436018	-2.981600	3.417500	-10.188000	25.882172	0.000666	20.897013
1673.439245	-3.023900	3.413900	-10.321000	25.871046	0.000667	20.909542
1674.434781	-2.985200	3.417100	-10.200000	25.847024	0.000666	20.895369
1675.436448	-3.003800	3.416200	-10.261000	25.823662	0.000665	20.905091
1676.439219	-2.977000	3.415400	-10.167000	25.812636	0.000666	20.903024
1677.433774	-2.995500	3.415900	-10.231000	25.822094	0.000664	20.917266
1678.438005	-2.987100	3.415400	-10.200000	25.855016	0.000664	20.887277
1679.443414	-2.967000	3.416300	-10.135000	25.848257	0.000664	20.882384
1680.434148	-3.004300	3.414000	-10.256000	25.820383	0.000665	20.905590
1681.438042	-3.004100	3.412600	-10.250000	25.784999	0.000663	20.914616
1682.435743	-2.989900	3.412800	-10.202000	25.754575	0.000662	20.871732
1683.439940	-3.022100	3.411200	-10.308000	25.715092	0.000662	20.887074
1684.436607	-2.989300	3.413500	-10.203000	25.719568	0.000662	20.874501
1685.437895	-2.990300	3.412900	-10.204000	25.728876	0.000662	20.887169
1686.434481	-3.006500	3.410700	-10.253000	25.734075	0.000660	20.887176
1687.437403	-2.996400	3.411000	-10.220000	25.770045	0.000660	20.882529
1688.438701	-2.995800	3.410500	-10.216000	25.776012	0.000659	20.892789
1689.441822	-2.986500	3.410800	-10.185000	25.763764	0.000659	20.889970
1690.439023	-2.978400	3.410900	-10.158000	25.756954	0.000658	20.875069
1691.440378	-2.988200	3.411100	-10.191000	25.762046	0.000659	20.893459
1692.443668	-3.010600	3.409600	-10.263000	25.753033	0.000659	20.886303
1693.435476	-3.025600	3.408000	-10.310000	25.786541	0.000658	20.870176
1694.437210	-3.016600	3.408900	-10.282000	25.808431	0.000657	20.883155
1695.435125	-3.006300	3.408000	-10.245000	25.831679	0.000656	20.883274
1696.438847	-2.998800	3.407700	-10.219000	25.821572	0.000656	20.890191
1697.440057	-2.975900	3.407900	-10.139000	25.837840	0.000655	20.868128
1698.442510	-3.017300	3.408500	-10.284000	25.839822	0.000656	20.902833
1699.434994	-2.996500	3.407400	-10.209000	25.845342	0.000655	20.882301
1700.442101	-3.004900	3.406600	-10.236000	25.850062	0.000654	20.874241
1701.436378	-3.007700	3.404800	-10.240000	25.840748	0.000654	20.889065
1702.437887	-3.013000	3.406700	-10.264000	25.813126	0.000654	20.890241
1703.438509	-3.023400	3.405000	-10.294000	25.775760	0.000653	20.876416
1704.441223	-2.993600	3.405700	-10.195000	25.749722	0.000653	20.860220
1705.438852	-3.007600	3.403600	-10.236000	25.723413	0.000653	20.871251
1706.435591	-3.007000	3.405500	-10.240000	25.674764	0.000651	20.866485
1707.440512	-3.004900	3.405400	-10.232000	25.680598	0.000652	20.868551
1708.441010	-3.023200	3.402800	-10.286000	25.676797	0.000651	20.884646
1709.437396	-3.018500	3.403600	-10.273000	25.687352	0.000651	20.872963
1710.436696	-3.009000	3.404400	-10.242000	25.709716	0.000650	20.863658
1711.442411	-3.014400	3.402800	-10.255000	25.759206	0.000651	20.893926
1712.437198	-3.025000	3.403200	-10.294000	25.755549	0.000648	20.859909
1713.441705	-3.009800	3.402100	-10.238000	25.749740	0.000650	20.871617
1714.443476	-2.992900	3.402500	-10.182000	25.745668	0.000650	20.900241
1715.437337	-2.991100	3.401600	-10.173000	25.753044	0.000649	20.883470
1716.442775	-2.982200	3.401700	-10.144000	25.756954	0.000649	20.867958
1717.445228	-2.998700	3.401300	-10.198000	25.770164	0.000647	20.866528
1718.439894	-2.991700	3.401000	-10.174000	25.812546	0.000646	20.873065
1719.443960	-3.006500	3.400300	-10.222000	25.860868	0.000647	20.880828
1720.445477	-2.994200	3.401200	-10.182000	25.858238	0.000645	20.864436
1721.440934	-3.021000	3.398800	-10.267000	25.868741	0.000645	20.852228
1722.439941	-3.012500	3.398900	-10.238000	25.834882	0.000645	20.871320
1723.443721	-2.982300	3.399700	-10.137000	25.806359	0.000644	20.870643
1724.441236	-2.989600	3.398600	-10.160000	25.765606	0.000643	20.861476
1725.446181	-2.986600	3.398200	-10.148000	25.764568	0.000645	20.883665
1726.446643	-2.980000	3.400100	-10.131000	25.730631	0.000642	20.860484
1727.447135	-2.986600	3.399500	-10.152000	25.737409	0.000643	20.880567
1728.448887	-2.982500	3.397900	-10.133000	25.754107	0.000640	20.855616
1729.445861	-2.983800	3.398500	-10.139000	25.793028	0.000642	20.867683
1730.449705	-2.991200	3.397700	-10.163000	25.835070	0.000642	20.882413
1731.446609	-2.972600	3.398100	-10.099000	25.860079	0.000642	20.874346
1732.450954	-3.012300	3.396600	-10.231000	25.863012	0.000641	20.866862
1733.446599	-2.976600	3.396100	-10.107000	25.857474	0.000640	20.858454
1734.447013	-3.018100	3.394800	-10.245000	25.846611	0.000639	20.857973
1735.447745	-3.020600	3.394600	-10.253000	25.831255	0.000638	20.868150
1736.447608	-3.003700	3.394000	-10.193000	25.781245	0.000637	20.875287
1737.459039	-3.008900	3.393700	-10.210000	25.802991	0.000639	20.849717
1738.448826	-3.019100	3.394000	-10.246000	25.809163	0.000637	20.858762
1739.450752	-3.020700	3.394100	-10.251000	25.840039	0.000636	20.855639
1740.453901	-3.003700	3.394000	-10.193000	25.808904	0.000634	20.860398
1741.450975	-3.007700	3.393800	-10.207000	25.749334	0.000635	20.849399
1742.450964	-3.014500	3.393300	-10.228000	25.733259	0.000636	20.856011
1743.450421	-2.991300	3.392900	-10.148000	25.735014	0.000636	20.848766
1744.454954	-2.982800	3.393900	-10.123000	25.730463	0.000633	20.863634
1745.453422	-3.009500	3.391700	-10.207000	25.752177	0.000632	20.853677
1746.449977	-2.979700	3.391500	-10.105000	25.772720	0.000633	20.873363
1747.449830	-3.002600	3.391300	-10.181000	25.814176	0.000635	20.842461
1748.454170	-2.992700	3.390700	-10.146000	25.849502	0.000632	20.853765
1749.453357	-2.972700	3.390900	-10.079000	25.842962	0.000631	20.854308
1750.458967	-3.002800	3.389600	-10.177000	25.889961	0.000629	20.843674
1751.456535	-3.010300	3.390300	-10.205000	25.879872	0.000632	20.845393
1752.457216	-2.978800	3.391100	-10.100000	25.858078	0.000631	20.879448
1753.453455	-3.024700	3.389500	-10.251000	25.880356	0.000630	20.861999
1754.456828	-3.022200	3.388600	-10.240000	25.910758	0.000630	20.840385
1755.455832	-3.004400	3.389700	-10.183000	25.881066	0.000629	20.873143
1756.453616	-3.007800	3.387600	-10.188000	25.850487	0.000630	20.851909
1757.454580	-3.012100	3.388500	-10.206000	25.812542	0.000628	20.846983
1758.458533	-3.029100	3.387800	-10.260000	25.786379	0.000629	20.854841
1759.459955	-3.009400	3.386600	-10.191000	25.769901	0.000628	20.845402
1760.456237	-3.013500	3.386400	-10.204000	25.778196	0.000627	20.867009
1761.458501	-2.994600	3.387200	-10.142000	25.792130	0.000625	20.855877
1762.458974	-3.021400	3.385000	-10.226000	25.769963	0.000627	20.859688
1763.459774	-3.023800	3.385200	-10.235000	25.761913	0.000626	20.853973
1764.455850	-3.004300	3.385600	-10.171000	25.715500	0.000624	20.841494
1765.456960	-3.009000	3.386100	-10.188000	25.717878	0.000625	20.839615
1766.461250	-2.988400	3.384500	-10.114000	25.707071	0.000624	20.847252
1767.457741	-3.004200	3.384000	-10.166000	25.699046	0.000623	20.837295
1768.462552	-3.004000	3.383700	-10.163000	25.706970	0.000624	20.856159
1769.463289	-3.008400	3.383600	-10.178000	25.733745	0.000623	20.839905
1770.462575	-3.011900	3.384300	-10.192000	25.720427	0.000622	20.852606
1771.459362	-2.998600	3.382900	-10.143000	25.709839	0.000621	20.837705
1772.466479	-2.995900	3.383300	-10.135000	25.685562	0.000622	20.833709
1773.463622	-2.999200	3.382800	-10.144000	25.691126	0.000623	20.836453
1774.460953	-3.017500	3.381300	-10.202000	25.664960	0.000620	20.836250
1775.467149	-3.000800	3.381900	-10.146000	25.667144	0.000620	20.844133
1776.464007	-2.994500	3.381400	-10.124000	25.686870	0.000620	20.835498
1777.464760	-3.012900	3.380800	-10.185000	25.712236	0.000619	20.841061
1778.467407	-2.995000	3.381700	-10.127000	25.754419	0.000620	20.838860
1779.466327	-2.989000	3.379600	-10.100000	25.762299	0.000618	20.821646
1780.462404	-3.003200	3.381000	-10.153000	25.799829	0.000618	20.848437
1781.467281	-2.989100	3.380300	-10.102000	25.794655	0.000616	20.852249
1782.466529	-2.990600	3.380700	-10.110000	25.782011	0.000616	20.845238
1783.463181	-3.009200	3.378600	-10.165000	25.762380	0.000616	20.822201
1784.468182	-2.981700	3.378900	-10.074000	25.777038	0.000615	20.830761
1785.468130	-2.994800	3.380000	-10.122000	25.774149	0.000615	20.836867
1786.464775	-2.993200	3.379100	-10.113000	25.773072	0.000615	20.831518
1787.466655	-2.996200	3.378400	-10.121000	25.768798	0.000615	20.837656
1788.466448	-3.004500	3.376800	-10.145000	25.784199	0.000614	20.829419
1789.471680	-2.992600	3.377200	-10.106000	25.815151	0.000614	20.818785
1790.466194	-2.994000	3.377000	-10.110000	25.845184	0.000613	20.837574
1791.466918	-2.979500	3.377300	-10.061000	25.844240	0.000613	20.829987
1792.465151	-3.002600	3.377000	-10.139000	25.810348	0.000614	20.811116
1793.473319	-2.992400	3.377200	-10.104000	25.802954	0.000611	20.822654
1794.472297	-3.019200	3.375200	-10.190000	25.832879	0.000610	20.816679
1795.467421	-2.992200	3.376400	-10.101000	25.859463	0.000612	20.816831
1796.470185	-2.999300	3.376300	-10.126000	25.876769	0.000610	20.837534
1797.472979	-2.982000	3.376100	-10.066000	25.877190	0.000610	20.820415
1798.471652	-2.979400	3.375800	-10.057000	25.913879	0.000609	20.806064
1799.473725	-2.991000	3.375300	-10.094000	25.959113	0.000609	20.815945
1800.471985	-2.998300	3.373600	-10.114000	25.979948	0.000610	20.832135
1801.468553	-3.003100	3.374200	-10.132000	26.040009	0.000611	20.824201
1802.472857	-2.976700	3.374000	-10.043000	26.041645	0.000607	20.815413
1803.469504	-2.987000	3.374800	-10.080000	26.040475	0.000607	20.815659
1804.469825	-3.008600	3.372600	-10.146000	26.030734	0.000609	20.822468
1805.472708	-3.028100	3.371500	-10.207000	25.995206	0.000608	20.818541
1806.473780	-3.008400	3.372600	-10.145000	26.013114	0.000606	20.819464
1807.470958	-2.992900	3.371200	-10.089000	26.006255	0.000604	20.819685
1808.474543	-3.012100	3.372800	-10.158000	26.010024	0.000605	20.813514
1809.474020	-3.007000	3.370300	-10.133000	25.996715	0.000605	20.817213
1810.473084	-3.001700	3.370200	-10.115000	26.000880	0.000605	20.810018
1811.470522	-2.998600	3.371400	-10.109000	26.033286	0.000603	20.803221
1812.469254	-3.005400	3.370800	-10.128000	25.968403	0.000603	20.806787
1813.471795	-2.986200	3.370900	-10.065000	25.968183	0.000603	20.811781
1814.474909	-2.991400	3.369900	-10.080000	25.921873	0.000603	20.820732
1815.474078	-2.984100	3.369800	-10.055000	25.923113	0.000603	20.819607
1816.471798	-2.992600	3.369100	-10.081000	25.951827	0.000600	20.835178
1817.472232	-3.008100	3.368100	-10.131000	25.975242	0.000601	20.801803
1818.481431	-3.002500	3.368900	-10.114000	26.020473	0.000599	20.819745
1819.476126	-3.002400	3.368200	-10.112000	26.031655	0.000601	20.807746
1820.476585	-3.004200	3.368500	-10.118000	26.011185	0.000599	20.811362
1821.476921	-3.006800	3.368500	-10.128000	25.978438	0.000597	20.808808
1822.475116	-3.017500	3.367300	-10.160000	25.919191	0.000599	20.806658
1823.476616	-3.023000	3.365500	-10.172000	25.879154	0.000596	20.816698
1824.472776	-3.014100	3.365900	-10.144000	25.860105	0.000597	20.795191
1825.474647	-3.006500	3.365100	-10.116000	25.857190	0.000597	20.793685
1826.473566	-3.021000	3.364800	-10.163000	25.857291	0.000597	20.809908
1827.473752	-2.998000	3.365900	-10.090000	25.874056	0.000597	20.819163
1828.479346	-2.996500	3.364600	-10.081000	25.901054	0.000596	20.794601
1829.478198	-3.014700	3.363400	-10.138000	25.929718	0.000594	20.787837
1830.474666	-2.998200	3.364400	-10.086000	25.979080	0.000595	20.794753
1831.475151	-2.994800	3.365000	-10.076000	25.981238	0.000595	20.797396
1832.477320	-2.982500	3.364800	-10.034000	25.963775	0.000594	20.796922
1833.474756	-3.005600	3.362600	-10.106000	25.892897	0.000591	20.784511
1834.477923	-2.984700	3.362500	-10.035000	25.843362	0.000594	20.770785
1835.474869	-2.994100	3.363900	-10.071000	25.801227	0.000594	20.800057
1836.475762	-3.005900	3.363400	-10.109000	25.765352	0.000591	20.797686
1837.479159	-3.002500	3.361600	-10.092000	25.765698	0.000592	20.804672
1838.483463	-2.995000	3.361500	-10.067000	25.762671	0.000592	20.784561
1839.481254	-3.004200	3.362700	-10.101000	25.745249	0.000591	20.776544
1840.480443	-2.996300	3.360500	-10.068000	25.746614	0.000590	20.765114
1841.479139	-3.014200	3.360500	-10.128000	25.759309	0.000589	20.797780
1842.484094	-3.002600	3.359200	-10.085000	25.744877	0.000591	20.788500
1843.481678	-3.011200	3.359200	-10.114000	25.768530	0.000589	20.792344
1844.478210	-3.005200	3.359500	-10.096000	25.773319	0.000589	20.804741
1845.482169	-3.004600	3.360700	-10.096000	25.775460	0.000589	20.773699
1846.481936	-3.010500	3.360700	-10.116000	25.795631	0.000586	20.784953
1847.479637	-2.995000	3.360400	-10.063000	25.801836	0.000588	20.774590
1848.484354	-3.013700	3.358300	-10.120000	25.758679	0.000587	20.791458
1849.483928	-3.008700	3.359000	-10.105000	25.785535	0.000586	20.789984
1850.479105	-3.006000	3.357300	-10.090000	25.787171	0.000584	20.796844
1851.482488	-3.022600	3.357800	-10.148000	25.846444	0.000588	20.783365
1852.482874	-3.020400	3.356400	-10.137000	25.852977	0.000585	20.777125
1853.483993	-3.001300	3.357200	-10.074000	25.899453	0.000585	20.774027
1854.484985	-3.001600	3.356700	-10.075000	25.946254	0.000584	20.779318
1855.479877	-2.993300	3.357100	-10.047000	25.966869	0.000585	20.773476
1856.485956	-2.994600	3.355200	-10.047000	25.998256	0.000581	20.767552
1857.484253	-2.990300	3.355800	-10.033000	25.986489	0.000583	20.773748
1858.485725	-3.022800	3.354900	-10.140000	25.954440	0.000582	20.770947
1859.483987	-2.993600	3.355200	-10.042000	25.948845	0.000580	20.764852
1860.486386	-3.015100	3.355000	-10.114000	25.906745	0.000581	20.771870
1861.480597	-2.992200	3.354400	-10.036000	25.878030	0.000581	20.764833
1862.481759	-3.013500	3.354200	-10.107000	25.885921	0.000581	20.774183
1863.486011	-3.023900	3.352800	-10.137000	25.903781	0.000581	20.774107
1864.489491	-2.999100	3.354000	-10.058000	25.916499	0.000579	20.789255
1865.487345	-3.004700	3.353500	-10.075000	25.960443	0.000580	20.774607
1866.500218	-3.020900	3.352000	-10.125000	25.996783	0.000580	20.762279
1867.482532	-2.982600	3.354500	-10.004000	25.997129	0.000578	20.770213
1868.483166	-3.010200	3.352200	-10.089000	25.966924	0.000578	20.771161
1869.487982	-3.007300	3.351600	-10.078000	25.919840	0.000578	20.759420
1870.486320	-2.982600	3.352600	-9.998600	25.929210	0.000578	20.761248
1871.486647	-3.007500	3.351300	-10.078000	25.940116	0.000575	20.766988
1872.488205	-2.996700	3.350800	-10.041000	25.929607	0.000576	20.774448
1873.486863	-3.020000	3.350800	-10.118000	25.916334	0.000575	20.753527
1874.483423	-2.981600	3.350700	-9.989300	25.920287	0.000575	20.775042
1875.490144	-2.994600	3.349900	-10.030000	25.907518	0.000573	20.756050
1876.489010	-3.009100	3.350100	-10.080000	25.897883	0.000573	20.751587
1877.488155	-3.028900	3.349900	-10.146000	25.893654	0.000573	20.769150
1878.494476	-2.972600	3.349700	-9.955800	25.892559	0.000573	20.771369
1879.492396	-3.003800	3.349300	-10.060000	25.921790	0.000573	20.734825
1880.487142	-3.011900	3.348500	-10.084000	25.921545	0.000572	20.768245
1881.495476	-2.998200	3.349400	-10.041000	25.866272	0.000572	20.766772
1882.491978	-3.019400	3.347500	-10.106000	25.874761	0.000572	20.759179
1883.489597	-2.977900	3.349100	-9.972800	25.852678	0.000572	20.737942
1884.492829	-3.021200	3.346100	-10.109000	25.847926	0.000569	20.751187
1885.491846	-2.997300	3.347700	-10.033000	25.838064	0.000571	20.751712
1886.489721	-2.995300	3.345800	-10.021000	25.865220	0.000570	20.741059
1887.493545	-3.002800	3.345900	-10.046000	25.903797	0.000571	20.744251
1888.497230	-2.994800	3.347200	-10.024000	25.934054	0.000568	20.733396
1889.495070	-3.009700	3.345100	-10.067000	25.952285	0.000567	20.743651
1890.494897	-3.035100	3.343900	-10.148000	25.932084	0.000569	20.761290
1891.494339	-2.997200	3.346200	-10.029000	25.902324	0.000566	20.746091
1892.491477	-2.991200	3.344400	-10.002000	25.904382	0.000566	20.753374
1893.493032	-3.007400	3.345000	-10.058000	25.912135	0.000568	20.756421
1894.493330	-3.005200	3.344100	-10.048000	25.959131	0.000567	20.760960
1895.499845	-2.985300	3.344000	-9.982000	25.972918	0.000566	20.738776
1896.504236	-2.998100	3.344500	-10.026000	25.993853	0.000566	20.753645
1897.498741	-2.981200	3.344400	-9.969700	25.995867	0.000564	20.738598
1898.490667	-3.016900	3.342800	-10.084000	26.019281	0.000566	20.745527
1899.499479	-3.022400	3.341200	-10.097000	26.045294	0.000563	20.744636
1900.497861	-3.007200	3.341200	-10.046000	26.040996	0.000563	20.756914
1901.501258	-2.988900	3.342800	-9.990000	26.045784	0.000562	20.751767
1902.501312	-2.984600	3.341900	-9.972400	26.045507	0.000563	20.737738
1903.498858	-2.994000	3.342200	-10.006000	26.066441	0.000561	20.753082
1904.497326	-2.982600	3.342800	-9.969300	26.037748	0.000562	20.720458
1905.500006	-3.002600	3.340800	-10.029000	26.072155	0.000560	20.755503
1906.493032	-3.011800	3.340200	-10.059000	26.060501	0.000559	20.733836
1907.497862	-2.982100	3.339700	-9.958700	26.079969	0.000560	20.746759
1908.496294	-3.006100	3.339300	-10.037000	26.096057	0.000560	20.751544
1909.493085	-2.989400	3.340000	-9.984000	26.094541	0.000559	20.743382
1910.498052	-2.991000	3.337500	-9.981600	26.063294	0.000558	20.746600
1911.501556	-2.982400	3.338400	-9.954400	26.041749	0.000560	20.739651
1912.494673	-2.990300	3.338800	-9.982800	26.017838	0.000557	20.733646
1913.499018	-2.983800	3.339400	-9.963500	26.014283	0.000556	20.737660
1914.500405	-3.003500	3.337900	-10.025000	25.967629	0.000556	20.751006
1915.506979	-3.008200	3.337200	-10.038000	25.977861	0.000556	20.755122
1916.496860	-2.979200	3.338600	-9.946100	25.948109	0.000553	20.759845
1917.502554	-3.025900	3.335300	-10.091000	25.964099	0.000554	20.743666
1918.496198	-3.008300	3.336700	-10.036000	25.979547	0.000553	20.740694
1919.500954	-2.954200	3.337800	-9.858800	26.008801	0.000553	20.767715
1920.506426	-3.019600	3.334200	-10.067000	26.026464	0.000554	20.757012
1921.498846	-3.015800	3.334400	-10.055000	26.024595	0.000552	20.730477
1922.504509	-2.992000	3.336500	-9.982500	26.009965	0.000552	20.747547
1923.504360	-2.995600	3.336400	-9.993600	26.021782	0.000551	20.742350
1924.499191	-2.986200	3.335300	-9.959300	26.060807	0.000551	20.753110
1925.498689	-3.004700	3.334000	-10.017000	26.085685	0.000551	20.751555
1926.506422	-3.013100	3.333300	-10.043000	26.059662	0.000551	20.759072
1927.499532	-2.982400	3.334100	-9.942500	26.060919	0.000548	20.738050
1928.499067	-2.990200	3.334500	-9.967900	26.048725	0.000551	20.736703
1929.503642	-3.008700	3.332300	-10.025000	26.076021	0.000547	20.742792
1930.503106	-2.993600	3.332100	-9.974600	26.084036	0.000548	20.752269
1931.504276	-3.004500	3.331800	-10.008000	26.115213	0.000546	20.748507
1932.503592	-2.986600	3.333000	-9.953000	26.088611	0.000547	20.736001
1933.503316	-2.989000	3.334100	-9.965100	26.116302	0.000548	20.733479
1934.500517	-2.985200	3.330400	-9.940600	26.100182	0.000545	20.750947
1935.505775	-3.005000	3.330500	-10.006000	26.136341	0.000545	20.749348
1936.502501	-3.004700	3.331000	-10.008000	26.133063	0.000545	20.755063
1937.501278	-2.995100	3.331100	-9.975700	26.119951	0.000547	20.760854
1938.504735	-2.986400	3.331200	-9.947100	26.125160	0.000544	20.760873
1939.507055	-3.001600	3.330300	-9.995100	26.129684	0.000544	20.743133
1940.506534	-2.986700	3.330300	-9.945500	26.154971	0.000541	20.766171
1941.512494	-2.993900	3.329300	-9.965800	26.206447	0.000543	20.750568
1942.510515	-3.004400	3.328900	-9.999800	26.211940	0.000542	20.763674
1943.506793	-2.963800	3.330100	-9.869000	26.212336	0.000541	20.751270
1944.507598	-2.975000	3.330100	-9.906000	26.164062	0.000541	20.744486
1945.511161	-3.003600	3.329400	-9.999700	26.093997	0.000541	20.758958
1946.505804	-3.017000	3.326300	-10.034000	26.070427	0.000541	20.750922
1947.515022	-3.012800	3.326800	-10.021000	26.067847	0.000540	20.756865
1948.509804	-2.987300	3.329000	-9.943000	26.001695	0.000538	20.738764
1949.504465	-2.993300	3.326900	-9.957400	26.011015	0.000537	20.754766
1950.509863	-3.005800	3.326400	-9.997700	26.015526	0.000536	20.758824
1951.508858	-3.004000	3.326200	-9.991200	26.019434	0.000539	20.742836
1952.506085	-3.005100	3.325700	-9.992900	26.024185	0.000536	20.776534
1953.508461	-3.024700	3.325000	-10.055000	26.025047	0.000538	20.758907
1954.509457	-3.000400	3.325800	-9.977600	26.031088	0.000534	20.753597
1955.506926	-2.992100	3.324200	-9.945800	26.068992	0.000536	20.778405
1956.509972	-3.003100	3.323400	-9.980000	26.081784	0.000534	20.772292
1957.516359	-3.020400	3.322400	-10.033000	26.083319	0.000534	20.760557
1958.510270	-2.988500	3.323300	-9.930500	26.079443	0.000533	20.773733
1959.513338	-3.013000	3.322400	-10.009000	26.117717	0.000531	20.773309
1960.510897	-2.977200	3.323700	-9.894400	26.153637	0.000532	20.777160
1961.511863	-2.998000	3.322500	-9.960000	26.141192	0.000531	20.773189
1962.512140	-2.995700	3.323800	-9.956000	26.180635	0.000532	20.782003
1963.509873	-3.015200	3.321400	-10.012000	26.170801	0.000531	20.760741
1964.515709	-3.001500	3.321500	-9.967900	26.185498	0.000530	20.766974
1965.515859	-2.994600	3.322800	-9.949200	26.153908	0.000530	20.768896
1966.514961	-2.991000	3.319400	-9.927500	26.148516	0.000531	20.776755
1967.511146	-2.997000	3.320100	-9.948800	26.100617	0.000531	20.772248
1968.518629	-3.027100	3.318600	-10.045000	26.069678	0.000529	20.761549
1969.521662	-2.981000	3.319400	-9.893000	26.046409	0.000530	20.759982
1970.520290	-3.004400	3.318400	-9.968800	26.019383	0.000529	20.775503
1971.515654	-3.030300	3.317000	-10.051000	26.009700	0.000529	20.792800
1972.514148	-2.995600	3.318700	-9.940000	26.040620	0.000527	20.781667
1973.514943	-2.985900	3.317200	-9.904100	26.088730	0.000527	20.774055
1974.515316	-3.011100	3.317800	-9.989100	26.143488	0.000527	20.776919
1975.518184	-2.996700	3.318200	-9.942800	26.155436	0.000525	20.780864
1976.516540	-2.992200	3.317200	-9.925000	26.176739	0.000526	20.770027
1977.514415	-3.009500	3.316600	-9.979700	26.224169	0.000526	20.773118
1978.517003	-3.015300	3.316100	-9.998300	26.284117	0.000525	20.797800
1979.515637	-3.014400	3.315000	-9.991800	26.308871	0.000525	20.780003
1980.516481	-3.007000	3.315700	-9.969700	26.313495	0.000525	20.775167
1981.517089	-3.022000	3.314600	-10.016000	26.309141	0.000525	20.786913
1982.517212	-3.005400	3.314800	-9.960300	26.323220	0.000524	20.785415
1983.515421	-3.001400	3.315700	-9.949700	26.287834	0.000523	20.775931
1984.519153	-3.021000	3.312900	-10.007000	26.286664	0.000521	20.785661
1985.515781	-3.001600	3.315300	-9.950100	26.298679	0.000521	20.767864
1986.518219	-3.002200	3.315400	-9.953000	26.319917	0.000521	20.804855
1987.516951	-3.004600	3.312800	-9.952400	26.359642	0.000521	20.786932
1988.512857	-3.010900	3.311800	-9.971200	26.331932	0.000518	20.787058
1989.517529	-3.010000	3.312100	-9.968500	26.325918	0.000520	20.772479
1990.519200	-3.012500	3.313200	-9.980000	26.282883	0.000519	20.784232
1991.517169	-2.996800	3.312900	-9.926700	26.198374	0.000518	20.786552
1992.518858	-3.015000	3.313400	-9.988800	26.190824	0.000518	20.776121
1993.519566	-2.987800	3.312900	-9.897900	26.149250	0.000518	20.790295
1994.514927	-3.016600	3.310000	-9.983900	26.153251	0.000517	20.779617
1995.519880	-2.995600	3.311600	-9.919500	26.185489	0.000517	20.801106
1996.518654	-3.021500	3.309900	-10.000000	26.236424	0.000515	20.769312
1997.519228	-3.011500	3.310200	-9.967600	26.260556	0.000514	20.795934
1998.518966	-3.022400	3.310800	-10.006000	26.285336	0.000515	20.801396
1999.519662	-2.978200	3.310500	-9.858200	26.315582	0.000513	20.797653
2000.519975	-3.022800	3.308000	-9.999000	26.324050	0.000516	20.777239
2001.524144	-2.998600	3.308900	-9.921200	26.362938	0.000514	20.785977
2002.522344	-3.000600	3.309500	-9.929300	26.375298	0.000513	20.789390
2003.518713	-3.008900	3.308700	-9.954500	26.368272	0.000513	20.829744
2004.522351	-3.011700	3.308200	-9.961800	26.321017	0.000513	20.793158
2005.523190	-2.998000	3.308200	-9.916400	26.339568	0.000511	20.793784
2006.522882	-2.984300	3.306300	-9.865800	26.302736	0.000513	20.798494
2007.521484	-2.988400	3.307500	-9.883000	26.282675	0.000510	20.800618
2008.523686	-2.990100	3.307700	-9.888900	26.262160	0.000512	20.790433
2009.521082	-3.024000	3.305500	-9.994000	26.276837	0.000510	20.810398
2010.525082	-3.027000	3.305000	-10.002000	26.257190	0.000509	20.827164
2011.525180	-3.004200	3.305300	-9.927800	26.264274	0.000511	20.826696
2012.526289	-3.013000	3.305700	-9.959200	26.275201	0.000508	20.809229
2013.522669	-3.019000	3.303400	-9.972200	26.266306	0.000509	20.820678
2014.526241	-3.016500	3.305100	-9.969100	26.252270	0.000507	20.813211
2015.534772	-3.004400	3.304100	-9.925800	26.213604	0.000509	20.799486
2016.522572	-3.017400	3.303800	-9.968300	26.190062	0.000506	20.806649
2017.522444	-3.022700	3.303000	-9.982800	26.203425	0.000506	20.824818
2018.520938	-3.014900	3.303300	-9.958200	26.178392	0.000506	20.808198
2019.523345	-2.998100	3.303400	-9.903000	26.177574	0.000506	20.804057
2020.526818	-3.001500	3.304100	-9.916900	26.178939	0.000504	20.806851
2021.524475	-2.997600	3.301800	-9.896600	26.223708	0.000504	20.806320
2022.527711	-2.986800	3.302500	-9.863000	26.272659	0.000503	20.813786
2023.525724	-2.995100	3.301800	-9.887800	26.300100	0.000502	20.825242
2024.524459	-3.004900	3.301700	-9.920000	26.282416	0.000502	20.819324
2025.531423	-2.987400	3.302300	-9.864200	26.276931	0.000500	20.810967
2026.530176	-2.988000	3.300900	-9.862500	26.306360	0.000502	20.816360
2027.533050	-3.001100	3.301500	-9.906900	26.331761	0.000502	20.786886
2028.528122	-2.998300	3.301500	-9.898200	26.356521	0.000499	20.828365
2029.529073	-2.984400	3.301300	-9.851900	26.383903	0.000498	20.835970
2030.527119	-3.007200	3.300900	-9.925500	26.340631	0.000497	20.819982
2031.530831	-3.012600	3.298900	-9.937500	26.341367	0.000498	20.833523
2032.528429	-3.032600	3.297800	-10.000000	26.345569	0.000497	20.828264
2033.528017	-2.998100	3.298200	-9.887200	26.347947	0.000497	20.840136
2034.531129	-2.998300	3.298900	-9.889500	26.365057	0.000497	20.835521
2035.533955	-3.001100	3.298300	-9.897500	26.377531	0.000496	20.819135
2036.529076	-2.995400	3.298400	-9.878400	26.414995	0.000496	20.831659
2037.535071	-2.995600	3.298400	-9.880000	26.442332	0.000493	20.845858
2038.529735	-2.983000	3.297400	-9.835200	26.454925	0.000493	20.820109
2039.532137	-2.966900	3.299300	-9.786700	26.495764	0.000492	20.843139
2040.532598	-2.996400	3.295900	-9.873800	26.482858	0.000492	20.834908
2041.533202	-2.999200	3.296000	-9.884500	26.475480	0.000491	20.840294
2042.533146	-3.022700	3.294400	-9.956800	26.398880	0.000492	20.831583
2043.532032	-3.007600	3.296000	-9.912000	26.377550	0.000491	20.840490
2044.539790	-3.002000	3.295500	-9.892400	26.334322	0.000490	20.849202
2045.535756	-2.996900	3.295800	-9.876500	26.306460	0.000486	20.848702
2046.534750	-3.021500	3.293200	-9.949600	26.314708	0.000489	20.837077
2047.533402	-2.999600	3.293700	-9.879400	26.333580	0.000489	20.868369
2048.531397	-3.006700	3.294300	-9.904300	26.350117	0.000487	20.829516
2049.534753	-3.015400	3.293000	-9.928300	26.343311	0.000486	20.855865
2050.535668	-2.983100	3.291200	-9.817600	26.364516	0.000486	20.843038
2051.530820	-3.003500	3.291500	-9.885300	26.360194	0.000486	20.852445
2052.536364	-3.023900	3.291600	-9.952600	26.370567	0.000486	20.854809
2053.545709	-3.011600	3.289600	-9.906300	26.388891	0.000485	20.863741
2054.538816	-2.966600	3.293300	-9.768200	26.367762	0.000485	20.856731
2055.538037	-2.980700	3.290800	-9.806600	26.401383	0.000485	20.860650
2056.537437	-3.001400	3.291300	-9.877200	26.396269	0.000483	20.864045
2057.534533	-3.002000	3.291500	-9.878600	26.362597	0.000482	20.866238
2058.538737	-2.988700	3.291400	-9.836200	26.368925	0.000482	20.851262
2059.537442	-3.014300	3.290400	-9.917400	26.398370	0.000482	20.852880
2060.537559	-3.002400	3.288600	-9.872400	26.430172	0.000479	20.867300
2061.538793	-2.995800	3.290700	-9.856000	26.451369	0.000479	20.866794
2062.537458	-2.984500	3.289800	-9.817200	26.471358	0.000481	20.838523
2063.536009	-2.988700	3.289100	-9.829100	26.461301	0.000479	20.852595
2064.537330	-2.999700	3.287800	-9.861100	26.453872	0.000479	20.870258
2065.537181	-3.004600	3.288700	-9.880400	26.457571	0.000478	20.842208
2066.537040	-2.997400	3.287200	-9.852300	26.485082	0.000478	20.862748
2067.539726	-3.002000	3.287400	-9.867700	26.517455	0.000475	20.867786
2068.539985	-3.002500	3.287200	-9.869100	26.494252	0.000476	20.880972
2069.537310	-2.967200	3.288900	-9.757900	26.469376	0.000474	20.865927
2070.541970	-2.975600	3.286500	-9.777900	26.434989	0.000474	20.853650
2071.539988	-2.971900	3.288100	-9.770700	26.462545	0.000476	20.856691
2072.539001	-2.978600	3.286200	-9.787000	26.476842	0.000474	20.873430
2073.541745	-3.010100	3.284700	-9.885800	26.479974	0.000473	20.870889
2074.539695	-3.023200	3.284200	-9.928000	26.463036	0.000473	20.874252
2075.538364	-3.001800	3.285400	-9.860800	26.434706	0.000471	20.867115
2076.539954	-3.011200	3.283300	-9.884800	26.468514	0.000473	20.873594
2077.543605	-3.027100	3.283400	-9.937400	26.495604	0.000470	20.875693
2078.538417	-3.024300	3.283000	-9.927800	26.545969	0.000469	20.890757
2079.540266	-3.025300	3.281200	-9.925700	26.559051	0.000469	20.864080
2080.541584	-3.003200	3.283500	-9.860100	26.605622	0.000469	20.883866
2081.541514	-3.022200	3.280700	-9.914000	26.601496	0.000469	20.864073
2082.542476	-3.011900	3.280300	-9.878700	26.558296	0.000468	20.860950
2083.543429	-3.020500	3.280800	-9.908300	26.526245	0.000466	20.876147
2084.540873	-3.015300	3.282000	-9.895700	26.479891	0.000468	20.877443
2085.551279	-3.005000	3.280700	-9.858600	26.441133	0.000465	20.899651
2086.546519	-2.972700	3.281400	-9.753800	26.444428	0.000466	20.876412
2087.547339	-3.004800	3.281000	-9.857800	26.466449	0.000467	20.877209
2088.544854	-2.999000	3.279000	-9.832600	26.509150	0.000466	20.866076
2089.547087	-3.002300	3.278600	-9.842300	26.565917	0.000466	20.870981
2090.544158	-2.993000	3.279900	-9.815200	26.609262	0.000463	20.880413
2091.545825	-3.030600	3.278000	-9.932900	26.628676	0.000464	20.892816
2092.544446	-3.012500	3.277800	-9.873400	26.660641	0.000462	20.887967
2093.543465	-2.984000	3.278900	-9.783400	26.698989	0.000462	20.868199
2094.546693	-2.989700	3.276700	-9.795600	26.716540	0.000461	20.879679
2095.547680	-2.976600	3.277800	-9.756100	26.759677	0.000461	20.875633
2096.541336	-2.974800	3.277300	-9.748000	26.744283	0.000459	20.853994
2097.549685	-3.015700	3.275800	-9.877000	26.773894	0.000458	20.860531
2098.548294	-3.018600	3.275400	-9.885700	26.763022	0.000458	20.903176
2099.548284	-3.007600	3.276800	-9.854600	26.759991	0.000457	20.881165
2100.550748	-2.990400	3.277000	-9.797500	26.761871	0.000456	20.867408
2101.551659	-2.990800	3.275900	-9.796400	26.755268	0.000458	20.875469
2102.547760	-3.009900	3.274800	-9.855900	26.746603	0.000458	20.871498
2103.553698	-3.002900	3.276200	-9.836900	26.759884	0.000454	20.881057
2104.547718	-3.019900	3.273700	-9.885900	26.786960	0.000454	20.871296
2105.547014	-2.998400	3.274700	-9.817500	26.799095	0.000455	20.887290
2106.551117	-3.019600	3.271500	-9.877000	26.837916	0.000454	20.873218
2107.548843	-2.977600	3.273600	-9.746300	26.838287	0.000454	20.898719
2108.548215	-2.989500	3.272800	-9.783900	26.822718	0.000453	20.902979
2109.556004	-3.017300	3.272900	-9.873300	26.801076	0.000452	20.881221
2110.555444	-3.017000	3.271900	-9.871100	26.788890	0.000451	20.884615
2111.549168	-3.001200	3.272700	-9.821700	26.738183	0.000451	20.890533
2112.553103	-2.992700	3.271800	-9.789300	26.723726	0.000452	20.907765
2113.554971	-2.995300	3.271200	-9.796900	26.691334	0.000450	20.869987
2114.549912	-2.973300	3.272000	-9.727700	26.672613	0.000448	20.896209
2115.552154	-2.984500	3.272400	-9.765100	26.662463	0.000449	20.917771
2116.555639	-2.986900	3.269200	-9.764200	26.638629	0.000448	20.901873
2117.548219	-3.007400	3.269000	-9.829400	26.617303	0.000446	20.879488
2118.551744	-2.983900	3.269300	-9.754400	26.622190	0.000446	20.897201
2119.553363	-2.964100	3.268700	-9.686200	26.620404	0.000444	20.909629
2120.549685	-3.002800	3.268700	-9.813500	26.618517	0.000445	20.896354
2121.555779	-2.999700	3.268700	-9.804000	26.582217	0.000442	20.896373
2122.555133	-3.004600	3.266600	-9.813700	26.552997	0.000440	20.916785
2123.552009	-2.983000	3.268000	-9.746400	26.554456	0.000442	20.915881
2124.554485	-2.986100	3.268000	-9.757300	26.537179	0.000443	20.919376
2125.556637	-2.994500	3.266200	-9.779200	26.568028	0.000440	20.907713
2126.551697	-2.966700	3.269400	-9.698800	26.590870	0.000441	20.911234
2127.555277	-2.982200	3.267000	-9.741100	26.631604	0.000440	20.902871
2128.562670	-2.990400	3.265900	-9.766300	26.648583	0.000440	20.901923
2129.553963	-2.993700	3.264700	-9.772800	26.707683	0.000439	20.903016
2130.557555	-2.987500	3.263300	-9.748200	26.736446	0.000439	20.921500
2131.562150	-3.005000	3.263700	-9.806900	26.724781	0.000439	20.912618
2132.555282	-2.995200	3.263900	-9.774900	26.757637	0.000440	20.913408
2133.556983	-2.976300	3.265400	-9.717500	26.812518	0.000436	20.921171
2134.560076	-2.968300	3.265400	-9.691900	26.840881	0.000437	20.920766
2135.560588	-2.969400	3.264800	-9.692800	26.838222	0.000436	20.916670
2136.561387	-3.006000	3.260900	-9.801100	26.845295	0.000435	20.910032
2137.561130	-3.008900	3.263600	-9.818600	26.835210	0.000435	20.920279
2138.562541	-3.000200	3.262900	-9.788900	26.805877	0.000435	20.917814
2139.562503	-3.005000	3.261700	-9.800400	26.817221	0.000434	20.902193
2140.561190	-3.011600	3.261800	-9.822700	26.765025	0.000434	20.907560
2141.564277	-3.005800	3.262400	-9.804700	26.735508	0.000431	20.927669
2142.564742	-2.993900	3.260100	-9.759300	26.712392	0.000433	20.921499
2143.559876	-3.014600	3.259100	-9.824000	26.684817	0.000430	20.931234
2144.558690	-2.997200	3.259200	-9.767100	26.683994	0.000431	20.939413
2145.564490	-3.018400	3.258900	-9.834800	26.729792	0.000430	20.930930
2146.561081	-2.997500	3.259300	-9.768300	26.752109	0.000427	20.920178
2147.558529	-2.980400	3.258200	-9.710600	26.831135	0.000428	20.935147
2148.561821	-3.002100	3.258900	-9.782000	26.858090	0.000428	20.919103
2149.559849	-2.991400	3.258500	-9.745600	26.897254	0.000428	20.944256
2150.564676	-2.998200	3.257900	-9.766400	26.889998	0.000427	20.945968
2151.562598	-3.011700	3.256500	-9.806100	26.955825	0.000425	20.939142
2152.562040	-2.999800	3.257400	-9.771300	26.957416	0.000422	20.927466
2153.558782	-3.011300	3.256800	-9.806400	26.971259	0.000424	20.919577
2154.562254	-3.001000	3.257000	-9.773600	26.957359	0.000424	20.916979
2155.561053	-3.013100	3.255300	-9.806900	26.930878	0.000423	20.942504
2156.559973	-3.019300	3.255100	-9.827700	26.883472	0.000422	20.934192
2157.565688	-3.005900	3.254800	-9.781400	26.820880	0.000422	20.940482
2158.563253	-2.999200	3.255400	-9.762900	26.849746	0.000423	20.923989
2159.560526	-3.030000	3.253800	-9.856800	26.856619	0.000421	20.936114
2160.566971	-2.976100	3.255100	-9.686100	26.916952	0.000420	20.940355
2161.563573	-3.005700	3.254300	-9.779600	26.933361	0.000420	20.934097
2162.562918	-2.982500	3.253500	-9.702000	26.991647	0.000419	20.939129
2163.564999	-2.999800	3.252500	-9.756400	27.009275	0.000418	20.954957
2164.566525	-2.975400	3.251900	-9.674300	27.004554	0.000419	20.940728
2165.567458	-2.963500	3.253600	-9.640700	26.974849	0.000418	20.933617
2166.566147	-2.992700	3.251300	-9.727800	26.985895	0.000415	20.949938
2167.568781	-2.998700	3.249900	-9.745100	26.949858	0.000415	20.948788
2168.562886	-2.994200	3.252200	-9.736000	26.957233	0.000413	20.932972
2169.567429	-3.017100	3.249600	-9.802700	26.951870	0.000415	20.935639
2170.567672	-2.973500	3.250500	-9.664500	26.946482	0.000414	20.934963
2171.563744	-2.995500	3.250200	-9.734500	26.883850	0.000413	20.935994
2172.570312	-2.974200	3.248800	-9.662000	26.837580	0.000413	20.917447
2173.571529	-2.981100	3.251200	-9.690200	26.824231	0.000411	20.935317
2174.565312	-3.010200	3.248100	-9.776700	26.847615	0.000412	20.902882
2175.566462	-2.979200	3.249600	-9.679600	26.885365	0.000411	20.927087
2176.572437	-2.994100	3.247700	-9.722000	26.909684	0.000409	20.930677
2177.566220	-3.008400	3.247300	-9.768200	26.925100	0.000407	20.913938
2178.571202	-2.997500	3.248100	-9.735200	26.920335	0.000408	20.924792
2179.572672	-2.990000	3.245200	-9.702500	26.879210	0.000408	20.935121
2180.567081	-2.993300	3.245600	-9.713800	26.893205	0.000407	20.923591
2181.574381	-2.979700	3.245200	-9.668600	26.890206	0.000406	20.906353
2182.566911	-2.997800	3.246100	-9.729800	26.884195	0.000405	20.933971
2183.569572	-3.006400	3.244800	-9.753200	26.864289	0.000405	20.924862
2184.573655	-3.012600	3.243700	-9.770800	26.899681	0.000403	20.921094
2185.570787	-3.015600	3.243000	-9.777900	26.962665	0.000403	20.917573
2186.574530	-2.966200	3.245000	-9.624900	26.964871	0.000403	20.905095
2187.570162	-2.983700	3.242800	-9.674400	26.963834	0.000403	20.904052
2188.570951	-2.998200	3.243100	-9.723400	26.965286	0.000400	20.906460
2189.572958	-2.996700	3.240700	-9.710300	26.948343	0.000402	20.900328
2190.572701	-3.029000	3.240000	-9.812800	26.977696	0.000401	20.926524
2191.570426	-2.998600	3.241300	-9.718600	27.025469	0.000400	20.902496
2192.571805	-2.991200	3.240900	-9.692800	27.051941	0.000399	20.910626
2193.569889	-2.983800	3.240600	-9.668400	27.074968	0.000399	20.903912
2194.570899	-3.003700	3.239600	-9.729500	27.087201	0.000399	20.900094
2195.569802	-3.017600	3.239800	-9.775800	27.092984	0.000398	20.909703
2196.578005	-2.992200	3.239400	-9.691600	27.067122	0.000396	20.909772
2197.572993	-2.999400	3.239600	-9.715900	27.021841	0.000394	20.903116
2198.572743	-3.011500	3.237600	-9.749200	27.015133	0.000397	20.891155
2199.576778	-2.982600	3.238500	-9.658600	27.042656	0.000393	20.914564
2200.574793	-2.992100	3.238600	-9.689500	27.054242	0.000394	20.913887
2201.573443	-3.012500	3.235700	-9.746900	27.033842	0.000395	20.893848
2202.574766	-3.005200	3.236400	-9.724200	27.008885	0.000395	20.893406
2203.580026	-2.956100	3.236400	-9.566300	26.967983	0.000392	20.910120
2204.576350	-2.983200	3.236300	-9.654100	26.929092	0.000392	20.881919
2205.577041	-3.010000	3.234900	-9.736400	26.865898	0.000390	20.925531
2206.582149	-3.002100	3.235900	-9.713000	26.833662	0.000389	20.888854
2207.580591	-3.005500	3.234700	-9.721100	26.799406	0.000389	20.898033
2208.580232	-2.998200	3.233400	-9.693700	26.796011	0.000388	20.882766
2209.590357	-3.007100	3.233900	-9.724200	26.836164	0.000387	20.893266
2210.583944	-2.993000	3.234200	-9.679000	26.811693	0.000387	20.876723
2211.580688	-3.014700	3.231900	-9.741700	26.819533	0.000385	20.901674
2212.584233	-2.992600	3.232300	-9.672000	26.777141	0.000384	20.887975
2213.584993	-2.986500	3.233300	-9.655000	26.777983	0.000385	20.902097
2214.581759	-3.003100	3.231200	-9.702900	26.748467	0.000386	20.889492
2215.587073	-2.973800	3.231500	-9.608500	26.778033	0.000385	20.875123
2216.582861	-2.973000	3.231900	-9.607600	26.818382	0.000382	20.895776
2217.582136	-2.984500	3.231800	-9.643000	26.779366	0.000381	20.879782
2218.590469	-2.988500	3.229200	-9.649200	26.812000	0.000382	20.891256
2219.586337	-2.988700	3.229600	-9.650700	26.791181	0.000381	20.871273
2220.582448	-3.017400	3.227800	-9.738200	26.827116	0.000382	20.890807
2221.587624	-3.021600	3.228300	-9.754000	26.838182	0.000379	20.867322
2222.586906	-3.007600	3.228700	-9.708700	26.834561	0.000379	20.873637
2223.583242	-2.993900	3.228600	-9.663500	26.825915	0.000377	20.885332
2224.585497	-3.002900	3.227100	-9.689200	26.820507	0.000379	20.858086
2225.584040	-3.009500	3.227000	-9.710400	26.840854	0.000376	20.899878
2226.583210	-3.019400	3.227000	-9.742800	26.889922	0.000376	20.878094
2227.587018	-2.969500	3.227000	-9.580500	26.941049	0.000377	20.873555
2228.586902	-3.028900	3.224800	-9.766100	26.965813	0.000375	20.877595
2229.583736	-2.997200	3.225900	-9.667100	26.969805	0.000374	20.887298
2230.587983	-2.982100	3.227600	-9.622900	26.963399	0.000374	20.869477
2231.582916	-3.012000	3.223700	-9.708700	26.961085	0.000374	20.883271
2232.583364	-2.977800	3.225300	-9.603100	26.970742	0.000372	20.886818
2233.585048	-3.001500	3.224900	-9.678900	26.929612	0.000370	20.873435
2234.586693	-3.002700	3.223200	-9.677600	26.892034	0.000369	20.870261
2235.582220	-3.014000	3.223600	-9.714800	26.885306	0.000368	20.872505
2236.588020	-3.007500	3.222900	-9.691900	26.879277	0.000367	20.862176
2237.582342	-2.998300	3.221800	-9.659500	26.856592	0.000369	20.864496
2238.585425	-3.013200	3.221900	-9.706800	26.858648	0.000367	20.876045
2239.591372	-2.991600	3.221900	-9.637700	26.894806	0.000366	20.865463
2240.587890	-2.975100	3.221800	-9.583500	26.940470	0.000366	20.869180
2241.588664	-2.989100	3.220600	-9.625100	27.005633	0.000366	20.860266
2242.594502	-3.006500	3.218300	-9.675000	27.001408	0.000364	20.873086
2243.590325	-2.993700	3.219600	-9.635900	26.964505	0.000365	20.867271
2244.587870	-2.987500	3.219700	-9.617600	26.915711	0.000364	20.874629
2245.593198	-2.992000	3.217700	-9.626100	26.889254	0.000365	20.864148
2246.589090	-2.999700	3.217100	-9.649500	26.887915	0.000363	20.860430
2247.596482	-2.989200	3.216600	-9.613200	26.904193	0.000361	20.872056
2248.594450	-2.982300	3.217400	-9.593600	26.917044	0.000360	20.858900
2249.592521	-3.032100	3.214900	-9.746300	26.889147	0.000360	20.873048
2250.589030	-2.986200	3.216200	-9.603200	26.831019	0.000362	20.857276
2251.595046	-3.016800	3.215800	-9.699800	26.798952	0.000359	20.871500
2252.588768	-3.023500	3.214200	-9.717000	26.782540	0.000360	20.876335
2253.594246	-3.008300	3.216900	-9.677000	26.798229	0.000359	20.855600
2254.590423	-3.012100	3.213900	-9.679700	26.852548	0.000358	20.866120
2255.595066	-3.006400	3.214800	-9.663700	26.864865	0.000357	20.856694
2256.591073	-2.991600	3.213400	-9.612600	26.875359	0.000356	20.834056
2257.593458	-2.994300	3.212700	-9.618400	26.943927	0.000355	20.829036
2258.589857	-3.006500	3.213500	-9.659800	26.966409	0.000355	20.847850
2259.591994	-3.010300	3.211300	-9.665600	27.030483	0.000354	20.877195
2260.593998	-3.025700	3.211400	-9.715700	27.059734	0.000352	20.858723
2261.591040	-3.003200	3.211300	-9.643600	27.030722	0.000356	20.859418
2262.591683	-2.991100	3.213600	-9.611300	27.052504	0.000352	20.846712
2263.594885	-3.013000	3.210600	-9.672400	27.079894	0.000350	20.856239
2264.601008	-2.993400	3.209100	-9.605200	27.083024	0.000351	20.852275
2265.592973	-3.006300	3.208700	-9.645000	27.066045	0.000351	20.856536
2266.593499	-3.018700	3.208700	-9.684900	27.034896	0.000351	20.879736
2267.598413	-2.998700	3.207700	-9.618100	27.010479	0.000349	20.855183
2268.595244	-2.981700	3.208000	-9.564600	26.960625	0.000349	20.847723
2269.604489	-2.976100	3.208200	-9.546600	26.913290	0.000347	20.830945
2270.593846	-2.995800	3.205900	-9.603100	26.941701	0.000351	20.869470
2271.596631	-3.007700	3.205500	-9.640400	26.972199	0.000348	20.841344
2272.594054	-2.977300	3.207500	-9.549200	27.005003	0.000348	20.859159
2273.593342	-3.005400	3.206900	-9.637700	27.055402	0.000346	20.824022
2274.595362	-2.979100	3.205600	-9.549300	27.098607	0.000345	20.864153
2275.598596	-2.992400	3.206700	-9.595200	27.114159	0.000344	20.833328
2276.595409	-2.978100	3.205200	-9.543900	27.134576	0.000345	20.849120
2277.599548	-2.990000	3.204100	-9.578800	27.171272	0.000343	20.852837
2278.599189	-2.994500	3.204700	-9.595800	27.203548	0.000345	20.857326
2279.600039	-2.983900	3.203200	-9.556500	27.253661	0.000340	20.842773
2280.598150	-3.004200	3.203100	-9.621800	27.295859	0.000342	20.846812
2281.598262	-3.015400	3.201700	-9.653000	27.238199	0.000342	20.834333
2282.601021	-3.011700	3.201500	-9.641400	27.192963	0.000342	20.859007
2283.600313	-3.021000	3.202300	-9.673400	27.137360	0.000341	20.868515
2284.605263	-2.996800	3.200900	-9.591500	27.110362	0.000339	20.851320
2285.600087	-2.993800	3.200800	-9.582000	27.141000	0.000337	20.838038
2286.601038	-2.981600	3.199100	-9.537600	27.125712	0.000337	20.852059
2287.604529	-2.974800	3.200100	-9.519200	27.164842	0.000338	20.837361
2288.606641	-2.990500	3.198500	-9.563500	27.198928	0.000337	20.858843
2289.603734	-2.987900	3.197000	-9.551400	27.211436	0.000335	20.866207
2290.606778	-3.013000	3.196500	-9.628700	27.206666	0.000336	20.813521
2291.611390	-2.990500	3.198400	-9.563800	27.230035	0.000335	20.844612
2292.604810	-3.013500	3.197400	-9.633300	27.235641	0.000333	20.846933
2293.608211	-3.011400	3.198400	-9.631800	27.279970	0.000333	20.852641
2294.606502	-2.992700	3.197500	-9.568200	27.298279	0.000334	20.852091
2295.607710	-3.011000	3.195700	-9.620800	27.272422	0.000332	20.822290
2296.608502	-3.003900	3.194400	-9.595000	27.199777	0.000332	20.829352
2297.605456	-2.997800	3.198500	-9.587800	27.130351	0.000333	20.827329
2298.611331	-3.002700	3.195200	-9.593400	27.091397	0.000330	20.827031
2299.610019	-3.005700	3.195100	-9.602400	27.103102	0.000330	20.818889
2300.606778	-3.012800	3.193600	-9.620200	27.148304	0.000327	20.825944
2301.608644	-3.001800	3.193700	-9.586300	27.176420	0.000330	20.833360
2302.612309	-3.010300	3.193600	-9.612700	27.208225	0.000328	20.834055
2303.606988	-3.024900	3.191500	-9.652100	27.252033	0.000329	20.838291
2304.613497	-2.973100	3.193500	-9.493000	27.320753	0.000328	20.813534
2305.612219	-2.999300	3.190100	-9.566000	27.302471	0.000328	20.829756
2306.614436	-2.991200	3.190800	-9.543100	27.274408	0.000326	20.828081
2307.611286	-2.993600	3.190800	-9.550300	27.296557	0.000327	20.826652
2308.615000	-3.022200	3.187700	-9.632400	27.283830	0.000327	20.809109
2309.616057	-3.011200	3.188900	-9.601400	27.315179	0.000327	20.822625
2310.609939	-2.993800	3.187100	-9.540300	27.353377	0.000324	20.821222
2311.614674	-2.992800	3.187400	-9.538800	27.381909	0.000323	20.835699
2312.616639	-3.008000	3.186000	-9.583200	27.390977	0.000325	20.817795
2313.611465	-3.019400	3.187000	-9.621600	27.401246	0.000324	20.822910
2314.618392	-2.991400	3.187100	-9.532800	27.405205	0.000323	20.822625
2315.620753	-3.010100	3.187500	-9.593300	27.397274	0.000322	20.835035
2316.622094	-3.007400	3.185200	-9.578300	27.367543	0.000319	20.818877
2317.617524	-3.002800	3.187000	-9.568700	27.361786	0.000320	20.813560
2318.620183	-2.991700	3.184000	-9.524800	27.372501	0.000319	20.827658
2319.616131	-3.016900	3.184200	-9.605700	27.384033	0.000320	20.833095
2320.620348	-3.019000	3.183200	-9.609100	27.365764	0.000320	20.833208
2321.622365	-2.975100	3.183400	-9.470000	27.355546	0.000319	20.816291
2322.618346	-3.015200	3.182700	-9.595200	27.358248	0.000319	20.800044
2323.620105	-3.008000	3.182800	-9.573100	27.377988	0.000317	20.795719
2324.618828	-3.028400	3.180200	-9.630100	27.394981	0.000316	20.831780
2325.618908	-3.000300	3.180900	-9.542200	27.426358	0.000318	20.821146
2326.621080	-2.993200	3.180700	-9.519800	27.416505	0.000314	20.808863
2327.619934	-3.040300	3.178900	-9.663500	27.397256	0.000315	20.821741
2328.617689	-3.020700	3.178500	-9.600200	27.331187	0.000315	20.814072
2329.619416	-3.009900	3.179500	-9.569200	27.290084	0.000315	20.818245
2330.618966	-2.996800	3.177600	-9.521100	27.249539	0.000313	20.801643
2331.619439	-3.027200	3.177300	-9.616600	27.246635	0.000313	20.821008
2332.624067	-3.011400	3.177600	-9.568100	27.188898	0.000314	20.802762
2333.619477	-3.009400	3.178000	-9.563200	27.164685	0.000312	20.810178
2334.624477	-2.993300	3.175300	-9.504000	27.204008	0.000313	20.818435
2335.624625	-2.986600	3.175500	-9.482500	27.224096	0.000312	20.813036
2336.623115	-2.994800	3.174100	-9.504300	27.246013	0.000311	20.814218
2337.627466	-2.995100	3.174100	-9.504100	27.235410	0.000310	20.802130
2338.630047	-3.002100	3.173700	-9.526700	27.246378	0.000307	20.805102
2339.625568	-2.969600	3.174200	-9.424800	27.261751	0.000310	20.800651
2340.629971	-2.998100	3.173900	-9.514800	27.237993	0.000308	20.801410
2341.629677	-2.993100	3.173400	-9.497100	27.205982	0.000307	20.801928
2342.625268	-3.031300	3.171800	-9.613900	27.195265	0.000308	20.807270
2343.628897	-2.990100	3.172900	-9.486800	27.209099	0.000308	20.810280
2344.626609	-2.991800	3.172100	-9.489100	27.242890	0.000306	20.779782
2345.627213	-2.989100	3.172700	-9.482900	27.300021	0.000305	20.813068
2346.627807	-3.012700	3.169400	-9.548300	27.323891	0.000305	20.812897
2347.627700	-3.010400	3.169500	-9.539800	27.314017	0.000304	20.810551
2348.635302	-3.027800	3.168300	-9.590900	27.345944	0.000307	20.801416
2349.628227	-3.013600	3.167900	-9.546000	27.360549	0.000304	20.813264
2350.631975	-3.021600	3.166700	-9.566600	27.333663	0.000302	20.809926
2351.627333	-3.018200	3.166700	-9.556000	27.345133	0.000302	20.796808
2352.632246	-3.002700	3.165500	-9.502900	27.355685	0.000302	20.787034
2353.633293	-2.995600	3.165500	-9.481700	27.348238	0.000300	20.810362
2354.633269	-3.035600	3.166000	-9.610000	27.360945	0.000301	20.797067
2355.637482	-3.026900	3.164100	-9.576600	27.364414	0.000299	20.790599
2356.633557	-3.017700	3.164200	-9.547600	27.400336	0.000299	20.796390
2357.633948	-3.010500	3.163700	-9.523200	27.403956	0.000300	20.803351
2358.631466	-2.976600	3.163400	-9.414700	27.377065	0.000298	20.809490
2359.636538	-2.986600	3.162200	-9.442100	27.301649	0.000298	20.784834
2360.631629	-3.003700	3.164000	-9.503200	27.282964	0.000297	20.786901
2361.632850	-2.995600	3.160900	-9.467200	27.189879	0.000297	20.781938
2362.631524	-2.987200	3.161900	-9.444800	27.150945	0.000297	20.799204
2363.637865	-3.003900	3.160100	-9.490700	27.132214	0.000296	20.804072
2364.633933	-2.989400	3.159400	-9.443900	27.148563	0.000295	20.817670
2365.639856	-2.998800	3.158700	-9.471300	27.169231	0.000293	20.798629
2366.638567	-3.000300	3.159200	-9.476700	27.198534	0.000295	20.770729
2367.636774	-3.028600	3.155800	-9.556300	27.207962	0.000293	20.791118
2368.636668	-3.007600	3.156700	-9.493200	27.216774	0.000294	20.797611
2369.638799	-3.025300	3.156400	-9.548200	27.177169	0.000295	20.796182
2370.642487	-3.002000	3.154400	-9.468200	27.137940	0.000290	20.781382
2371.639159	-2.996600	3.154800	-9.452600	27.152014	0.000291	20.779416
2372.642491	-2.964800	3.156200	-9.356600	27.190470	0.000292	20.804344
2373.639602	-2.999900	3.155500	-9.465000	27.244556	0.000291	20.772449
2374.641132	-2.987800	3.153800	-9.421800	27.278545	0.000291	20.772499
2375.644331	-3.010200	3.152300	-9.488200	27.310869	0.000291	20.782729
2376.644440	-2.991200	3.152600	-9.428500	27.329899	0.000291	20.788595
2377.641573	-3.010800	3.151600	-9.487600	27.372565	0.000288	20.777462
2378.642461	-2.997200	3.150600	-9.442500	27.420540	0.000289	20.779732
2379.646853	-2.998100	3.150600	-9.444400	27.437778	0.000288	20.778107
2380.641866	-2.993000	3.150300	-9.427900	27.422155	0.000285	20.776141
2381.646224	-2.988000	3.148800	-9.407900	27.424882	0.000288	20.797377
2382.643205	-2.999000	3.147500	-9.438400	27.398985	0.000286	20.781755
2383.642266	-2.986600	3.148200	-9.401200	27.377128	0.000286	20.786320
2384.647798	-3.005300	3.146900	-9.455500	27.342500	0.000286	20.775667
2385.649519	-2.990600	3.146100	-9.407400	27.309134	0.000286	20.769604
2386.647026	-3.010400	3.145300	-9.466700	27.327913	0.000286	20.774744
2387.648973	-3.020000	3.143900	-9.494000	27.351776	0.000285	20.788791
2388.649555	-3.009000	3.142600	-9.455100	27.430915	0.000286	20.789695
2389.647480	-3.017100	3.142500	-9.479400	27.455442	0.000284	20.777386
2390.651785	-2.970600	3.143000	-9.335300	27.478089	0.000284	20.781205
2391.651691	-3.002600	3.141800	-9.432000	27.416418	0.000281	20.779378
2392.647263	-3.007600	3.141400	-9.446700	27.452243	0.000285	20.781755
2393.649622	-2.984200	3.140400	-9.370300	27.427962	0.000285	20.803794
2394.651004	-2.997300	3.139800	-9.409300	27.409159	0.000282	20.780611
2395.648559	-2.987100	3.138600	-9.373200	27.396974	0.000282	20.791586
2396.650889	-3.022600	3.138500	-9.484700	27.382023	0.000282	20.784132
2397.651255	-3.013700	3.137800	-9.455500	27.406979	0.000282	20.806866
2398.647739	-3.002700	3.137400	-9.419500	27.427522	0.000282	20.783436
2399.651653	-2.992300	3.137400	-9.386600	27.435458	0.000281	20.797111
2400.664025	-2.988900	3.135900	-9.371400	27.433523	0.000280	20.807492
2401.656491	-3.006800	3.135400	-9.426300	27.442710	0.000280	20.811993
2402.652721	-3.007800	3.132900	-9.422300	27.463812	0.000280	20.787230
2403.653266	-3.014300	3.134100	-9.447000	27.482770	0.000279	20.767896
2404.649785	-3.014600	3.132600	-9.441000	27.518902	0.000279	20.790024
2405.655258	-3.002300	3.133600	-9.406300	27.474903	0.000278	20.790327
2406.655091	-2.991600	3.131400	-9.366700	27.432511	0.000276	20.789404
2407.651209	-3.008000	3.131700	-9.419200	27.440222	0.000276	20.808541
2408.654318	-2.987600	3.129600	-9.348500	27.466194	0.000278	20.783462
2409.653943	-2.979300	3.130200	-9.325000	27.475249	0.000275	20.789253
2410.652472	-2.994400	3.128900	-9.368100	27.465182	0.000277	20.785763
2411.657652	-3.011000	3.128300	-9.418400	27.506900	0.000275	20.794544
2412.657198	-2.979500	3.127800	-9.318200	27.539047	0.000277	20.785162
2413.661932	-3.030500	3.125500	-9.469900	27.590287	0.000275	20.791674
2414.658719	-3.002800	3.125600	-9.385100	27.615282	0.000275	20.777468
2415.657344	-3.012100	3.125400	-9.412800	27.610569	0.000273	20.796909
2416.656913	-2.989200	3.125200	-9.341200	27.646263	0.000274	20.799634
2417.661150	-3.010000	3.123400	-9.401000	27.648022	0.000274	20.792869
2418.659739	-3.019100	3.122000	-9.424100	27.594698	0.000273	20.780465
2419.655185	-3.034000	3.121000	-9.467900	27.524080	0.000274	20.810406
2420.659039	-3.000800	3.120200	-9.361000	27.519442	0.000273	20.799103
2421.660511	-3.004700	3.119500	-9.371700	27.510828	0.000272	20.793754
2422.655357	-2.994600	3.119600	-9.340400	27.520705	0.000274	20.798951
2423.659355	-3.009400	3.118600	-9.384600	27.547756	0.000272	20.815262
2424.659517	-2.993900	3.118800	-9.336500	27.556490	0.000272	20.789436
2425.654873	-3.009500	3.117500	-9.381000	27.598179	0.000273	20.804357
2426.664344	-2.980600	3.118000	-9.291000	27.588899	0.000271	20.813985
2427.660689	-3.000600	3.116100	-9.349600	27.549365	0.000271	20.804553
2428.662971	-2.987200	3.115800	-9.306500	27.509207	0.000273	20.794020
2429.661738	-2.956900	3.117000	-9.214700	27.501069	0.000269	20.784411
2430.660269	-3.020100	3.111800	-9.396300	27.464353	0.000270	20.792041
2431.663366	-3.012400	3.112300	-9.374400	27.422973	0.000270	20.813947
2432.661887	-3.018300	3.110500	-9.387200	27.347440	0.000271	20.800551
2433.660347	-3.023200	3.109000	-9.398700	27.318292	0.000269	20.801101
2434.658689	-3.002500	3.110700	-9.338700	27.276284	0.000268	20.795354
2435.661973	-3.002800	3.107600	-9.329900	27.316080	0.000268	20.789393
2436.662213	-3.007900	3.108600	-9.349500	27.383325	0.000269	20.792554
2437.659259	-3.018600	3.106500	-9.376000	27.392632	0.000267	20.797649
2438.666307	-3.009500	3.105900	-9.346600	27.425279	0.000269	20.809629
2439.661279	-2.977300	3.107000	-9.249600	27.463323	0.000267	20.796221
2440.659516	-3.015200	3.103800	-9.357100	27.507674	0.000268	20.808125
2441.663295	-3.011500	3.104200	-9.347300	27.532105	0.000267	20.812791
2442.661341	-3.007400	3.104000	-9.333700	27.581291	0.000266	20.812493
2443.661026	-3.000400	3.101900	-9.304200	27.637116	0.000267	20.806077
2444.665162	-3.002700	3.100800	-9.310000	27.625480	0.000266	20.798636
2445.661061	-3.026900	3.100400	-9.383600	27.625009	0.000266	20.814757
2446.660781	-3.019700	3.099600	-9.358800	27.677062	0.000264	20.800754
2447.661492	-2.985600	3.101200	-9.258300	27.742928	0.000266	20.801127
2448.661758	-2.991900	3.097600	-9.266600	27.756642	0.000264	20.834842
2449.660421	-2.985800	3.098100	-9.249000	27.789416	0.000263	20.805236
2450.662772	-3.028800	3.094700	-9.372100	27.804719	0.000264	20.796929
2451.662005	-3.014700	3.095200	-9.329700	27.841467	0.000262	20.821585
2452.659209	-2.995500	3.093400	-9.265200	27.796558	0.000263	20.817640
2453.660503	-3.008400	3.092300	-9.301800	27.754324	0.000263	20.814966
2454.663489	-2.992300	3.092800	-9.253300	27.713432	0.000264	20.816015
2455.659797	-2.984800	3.092500	-9.229800	27.718264	0.000264	20.826093
2456.661705	-3.016700	3.089800	-9.320200	27.749832	0.000264	20.823722
2457.664172	-3.006600	3.089600	-9.288200	27.752182	0.000263	20.804276
2458.661770	-3.027900	3.087800	-9.347900	27.731425	0.000264	20.821794
2459.664033	-3.013900	3.088000	-9.305800	27.706377	0.000261	20.832149
2460.665447	-3.014800	3.087800	-9.308300	27.670240	0.000262	20.818071
2461.663177	-2.987800	3.087600	-9.223900	27.651222	0.000262	20.821693
2462.664791	-3.003600	3.085400	-9.266700	27.609598	0.000261	20.822483
2463.663005	-3.012100	3.085900	-9.294600	27.573237	0.000263	20.827623
2464.663953	-3.003900	3.083100	-9.260200	27.594933	0.000262	20.810573
2465.668097	-3.000000	3.083500	-9.250200	27.643941	0.000259	20.831435
2466.666244	-3.004000	3.082500	-9.258200	27.671440	0.000260	20.812166
2467.668311	-2.985800	3.082900	-9.203400	27.720143	0.000259	20.811389
2468.667503	-2.970900	3.080700	-9.151000	27.803639	0.000260	20.842783
2469.665268	-2.999500	3.080300	-9.238600	27.872022	0.000260	20.838586
2470.668808	-2.999000	3.079100	-9.233300	27.875835	0.000259	20.815397
2471.667702	-3.010300	3.076600	-9.259800	27.883159	0.000262	20.834148
2472.672839	-3.004100	3.075000	-9.235800	27.933536	0.000260	20.816573
2473.669894	-2.995300	3.075100	-9.209200	27.967818	0.000261	20.818837
2474.669423	-3.005500	3.075200	-9.241300	28.003323	0.000259	20.820436
2475.668072	-2.974100	3.073800	-9.139800	27.987778	0.000258	20.833238
2476.670123	-3.016600	3.072700	-9.267900	28.002620	0.000257	20.832530
2477.666346	-3.003000	3.071900	-9.224300	27.980254	0.000258	20.842734
2478.671897	-2.991000	3.070700	-9.183500	27.947625	0.000259	20.831702
2479.665890	-2.994400	3.068700	-9.187600	27.979287	0.000259	20.831329
2480.666037	-2.999300	3.069800	-9.206100	27.971198	0.000258	20.833618
2481.666260	-2.994000	3.067500	-9.182400	27.958604	0.000258	20.828054
2482.669927	-2.988500	3.066700	-9.163800	27.903707	0.000258	20.841078
2483.666217	-3.006400	3.066600	-9.218200	27.823567	0.000258	20.827277
2484.670316	-3.009800	3.064000	-9.220900	27.787735	0.000259	20.831045
2485.671503	-2.999300	3.063400	-9.187100	27.808314	0.000259	20.852229
2486.665548	-3.002100	3.062700	-9.193200	27.819622	0.000258	20.836583
2487.671543	-3.006000	3.061300	-9.200700	27.840923	0.000257	20.858020
2488.670661	-3.007100	3.060300	-9.199900	27.816519	0.000258	20.841995
2489.667518	-3.008600	3.058300	-9.200200	27.825470	0.000258	20.835831
2490.670309	-3.012700	3.057900	-9.211600	27.814088	0.000258	20.832910
2491.670633	-3.018900	3.057700	-9.230700	27.803528	0.000256	20.834136
2492.669720	-3.008700	3.055900	-9.192700	27.751519	0.000257	20.844384
2493.675097	-2.989500	3.056100	-9.135500	27.725749	0.000256	20.844530
2494.672955	-2.995900	3.055200	-9.151400	27.679453	0.000256	20.819280
2495.669350	-2.981500	3.053000	-9.101500	27.701473	0.000255	20.840016
2496.673200	-3.000600	3.051100	-9.154300	27.733262	0.000255	20.850668
2497.672400	-3.003700	3.049800	-9.159700	27.745733	0.000256	20.852786
2498.670402	-2.999200	3.049300	-9.144700	27.755332	0.000255	20.853437
2499.675270	-3.001200	3.048600	-9.148900	27.821959	0.000256	20.841306
2500.674304	-3.019200	3.047000	-9.197600	27.848939	0.000257	20.834794
2501.668846	-2.979400	3.048000	-9.080500	27.885140	0.000255	20.853684
2502.675170	-2.976800	3.045300	-9.064000	27.869417	0.000256	20.835964
2503.675517	-2.997000	3.045300	-9.125300	27.838443	0.000256	20.844145
2504.669833	-2.999000	3.043100	-9.125600	27.845836	0.000254	20.856801
2505.671556	-2.984700	3.041800	-9.077400	27.889669	0.000255	20.852079
2506.674945	-3.003600	3.040100	-9.130500	27.895718	0.000256	20.860063
2507.672175	-3.002200	3.040500	-9.127200	27.874864	0.000253	20.867523
2508.675693	-3.039800	3.037800	-9.233200	27.872377	0.000254	20.855537
2509.676589	-3.009100	3.036800	-9.137800	27.894619	0.000254	20.859431
2510.670094	-3.000500	3.035700	-9.107600	27.929424	0.000253	20.850840
2511.675198	-2.995700	3.036700	-9.096000	27.989521	0.000252	20.866758
2512.676490	-2.983500	3.033700	-9.050900	28.029786	0.000253	20.859400
2513.672041	-2.993900	3.033000	-9.079000	28.032136	0.000253	20.845170
2514.674349	-2.993700	3.031600	-9.074400	28.027174	0.000252	20.859615
2515.672282	-2.981200	3.030600	-9.033400	27.987901	0.000253	20.862757
2516.671347	-2.976300	3.029500	-9.015000	27.926485	0.000253	20.873959
2517.671347	-2.982700	3.027800	-9.030300	27.889683	0.000254	20.884333
2518.674686	-2.977500	3.025800	-9.008500	27.876523	0.000254	20.849279
2519.671510	-2.965300	3.027400	-8.976700	27.864494	0.000254	20.860880
2520.674230	-2.961900	3.023700	-8.954600	27.835819	0.000252	20.874219
2521.678195	-3.005200	3.023400	-9.085100	27.866292	0.000251	20.865059
2522.676678	-3.012900	3.021900	-9.103500	27.877906	0.000254	20.858257
2523.678085	-2.962100	3.022200	-8.950600	27.872912	0.000254	20.849438
2524.675503	-3.006100	3.018800	-9.074000	27.870130	0.000251	20.858491
2525.676422	-2.977800	3.021700	-8.996200	27.900231	0.000250	20.858441
2526.676797	-2.958900	3.019500	-8.933700	27.934715	0.000251	20.882242
2527.684249	-3.024100	3.016600	-9.121000	27.982734	0.000253	20.871306
2528.674576	-2.991800	3.015700	-9.021500	28.026422	0.000252	20.857436
2529.678514	-3.018900	3.012700	-9.093800	28.076421	0.000250	20.864143
2530.683443	-2.992800	3.013500	-9.017900	28.038644	0.000250	20.873531
2531.677914	-3.006200	3.012700	-9.055600	28.036377	0.000250	20.882154
2532.685104	-2.990700	3.009900	-9.000200	28.042727	0.000250	20.873373
2533.681570	-2.988800	3.010100	-8.996100	28.030800	0.000251	20.869903
2534.676159	-3.021600	3.008000	-9.086700	28.050101	0.000250	20.867046
2535.678732	-2.973100	3.007600	-8.939600	28.078532	0.000251	20.862002
2536.680518	-3.020700	3.004100	-9.073600	28.104168	0.000250	20.889229
2537.677727	-3.004900	3.002200	-9.020600	28.121395	0.000250	20.844459
2538.687222	-3.011300	3.000900	-9.035800	28.153868	0.000250	20.880467
2539.680662	-3.030900	3.001500	-9.095300	28.183955	0.000250	20.872350
2540.681870	-2.988600	3.000200	-8.965600	28.207478	0.000250	20.869955
2541.680925	-3.021800	2.998100	-9.059100	28.228345	0.000251	20.871997
2542.681533	-2.980700	2.997400	-8.933100	28.235950	0.000250	20.868748
2543.680519	-3.000300	2.995400	-8.986000	28.266291	0.000249	20.862786
2544.684054	-2.964100	2.996100	-8.879800	28.204069	0.000248	20.887858
2545.687565	-3.013500	2.992500	-9.016700	28.161305	0.000251	20.879419
2546.679309	-3.016500	2.992500	-9.024900	28.146127	0.000250	20.900173
2547.679579	-2.984800	2.991200	-8.926400	28.120938	0.000249	20.897101
2548.686384	-2.988800	2.990200	-8.935700	28.121918	0.000251	20.895717
2549.681059	-3.002000	2.987600	-8.968100	28.111029	0.000250	20.880489
2550.689291	-2.988100	2.987600	-8.926400	28.114842	0.000251	20.906610
2551.684730	-2.999300	2.983900	-8.947800	28.118986	0.000250	20.880913
2552.681409	-3.001800	2.984000	-8.956300	28.159285	0.000249	20.877386
2553.683887	-2.980600	2.983200	-8.891100	28.180323	0.000250	20.905675
2554.685753	-3.002100	2.981600	-8.950400	28.210264	0.000248	20.878448
2555.679667	-2.968100	2.980600	-8.845600	28.174565	0.000251	20.903672
2556.683462	-2.986800	2.979200	-8.897400	28.138488	0.000249	20.888216
2557.686067	-3.006000	2.978200	-8.951500	28.086131	0.000249	20.877236
2558.681975	-3.022400	2.975300	-8.991600	28.088461	0.000249	20.897123
2559.685297	-2.995600	2.975800	-8.913700	28.112005	0.000249	20.874360
2560.684278	-2.999700	2.973200	-8.917800	28.059741	0.000249	20.893818
2561.681869	-2.984900	2.972500	-8.871500	28.035072	0.000248	20.880840
2562.688303	-3.001000	2.969900	-8.912100	28.007921	0.000250	20.906613
2563.687260	-2.981900	2.968800	-8.851900	28.020778	0.000248	20.890633
2564.683296	-2.992300	2.967100	-8.877600	28.070633	0.000248	20.902410
2565.688540	-2.989600	2.965800	-8.865600	28.127280	0.000250	20.886891
2566.691297	-3.001300	2.964500	-8.896700	28.152206	0.000250	20.904396
2567.683255	-3.015200	2.961600	-8.928200	28.145932	0.000249	20.890969
2568.686550	-2.986400	2.960300	-8.839100	28.067073	0.000251	20.910680
2569.688771	-3.003500	2.960600	-8.890900	28.048527	0.000248	20.885849
2570.682220	-2.983000	2.960600	-8.829800	27.966488	0.000248	20.905686
2571.687513	-3.006300	2.957800	-8.892300	27.901724	0.000249	20.891709
2572.687850	-2.996400	2.955500	-8.855300	27.859129	0.000250	20.884401
2573.687820	-2.989900	2.955300	-8.834700	27.847074	0.000247	20.899769
2574.688776	-3.014300	2.952300	-8.897900	27.888998	0.000249	20.911616
2575.687233	-2.990000	2.951700	-8.824500	27.940894	0.000248	20.909321
2576.684893	-2.988800	2.950900	-8.817400	27.958073	0.000248	20.905750
2577.688869	-3.027000	2.947900	-8.921000	27.978002	0.000250	20.925334
2578.691153	-2.993200	2.947600	-8.821800	27.978680	0.000248	20.917008
2579.688269	-2.985100	2.945200	-8.790500	27.960667	0.000248	20.909784
2580.690824	-2.982500	2.943700	-8.777700	27.917804	0.000247	20.921168
2581.689484	-3.040200	2.939700	-8.936000	27.877114	0.000247	20.901079
2582.689209	-3.008700	2.940100	-8.845100	27.854701	0.000251	20.913134
2583.697460	-2.992100	2.939300	-8.793600	27.829455	0.000250	20.922812
2584.694268	-3.019400	2.935900	-8.863700	27.855147	0.000249	20.903626
2585.691563	-2.994800	2.936700	-8.793900	27.871762	0.000248	20.908968
2586.692687	-2.995100	2.935300	-8.791200	27.901687	0.000248	20.905896
2587.696263	-3.001100	2.934400	-8.805200	27.943243	0.000247	20.923539
2588.691221	-2.984300	2.932600	-8.749700	27.975251	0.000247	20.914031
2589.695882	-3.033600	2.928900	-8.882900	27.987945	0.000248	20.911636
2590.704185	-3.015500	2.929100	-8.832100	27.943934	0.000249	20.903848
2591.698667	-3.005200	2.928200	-8.799200	27.939770	0.000249	20.925258
2592.694607	-2.993900	2.924900	-8.756500	28.002498	0.000248	20.911111
2593.698378	-3.044800	2.921900	-8.895500	28.021465	0.000249	20.927357
2594.691476	-3.003600	2.922600	-8.777800	28.058025	0.000249	20.912951
2595.697328	-2.990100	2.921400	-8.734200	28.101289	0.000249	20.927104
2596.699066	-3.004000	2.918400	-8.766000	28.142807	0.000248	20.938552
2597.691103	-3.012400	2.916800	-8.784900	28.148729	0.000248	20.932187
2598.698858	-2.981000	2.916600	-8.692900	28.117964	0.000247	20.925872
2599.697483	-2.987000	2.915200	-8.707000	28.105171	0.000248	20.926745
2600.692530	-3.009900	2.910200	-8.757600	28.096888	0.000250	20.938793
2601.697381	-3.006200	2.909800	-8.746300	28.122297	0.000247	20.928812
2602.695903	-3.021100	2.907500	-8.782800	28.120784	0.000248	20.910221
2603.691984	-3.007200	2.906900	-8.740400	28.120954	0.000246	20.927934
2604.695988	-3.013300	2.906100	-8.755500	28.123479	0.000248	20.931898
2605.698135	-2.991100	2.903800	-8.684400	28.133043	0.000248	20.940103
2606.698197	-3.014400	2.901100	-8.744200	28.125457	0.000248	20.941475
2607.696411	-3.028600	2.898300	-8.776800	28.196827	0.000247	20.944572
2608.696402	-2.992500	2.899500	-8.675600	28.213079	0.000247	20.943865
2609.694331	-3.028300	2.894200	-8.763900	28.288286	0.000248	20.935185
2610.698687	-2.996500	2.894500	-8.672800	28.277719	0.000249	20.927866
2611.699338	-2.994300	2.892300	-8.659000	28.278585	0.000247	20.921627
2612.696690	-2.982300	2.892600	-8.625900	28.314024	0.000247	20.931229
2613.699911	-3.007600	2.888500	-8.686400	28.319525	0.000248	20.943404
2614.702042	-3.037900	2.885800	-8.764100	28.361756	0.000247	20.937089
2615.699243	-2.995100	2.887000	-8.645600	28.368148	0.000246	20.908915
2616.702415	-2.994400	2.884600	-8.636500	28.416002	0.000248	20.940977
2617.703492	-3.014400	2.882100	-8.686900	28.433104	0.000247	20.916001
2618.703150	-3.015500	2.878900	-8.680400	28.417289	0.000247	20.924257
2619.702903	-2.994100	2.878900	-8.618000	28.371168	0.000247	20.924757
2620.700518	-3.003500	2.876600	-8.639100	28.326282	0.000248	20.928872
2621.702860	-3.010600	2.873500	-8.649600	28.287842	0.000247	20.933790
2622.705674	-2.996700	2.872800	-8.608300	28.314528	0.000246	20.929840
2623.706770	-3.018600	2.870600	-8.663900	28.347071	0.000245	20.912349
2624.709082	-3.029200	2.867500	-8.684700	28.358913	0.000249	20.908152
2625.714608	-3.011000	2.865400	-8.627200	28.415130	0.000248	20.919239
2626.707867	-2.994200	2.864700	-8.576500	28.442660	0.000247	20.931787
2627.705289	-3.038100	2.860100	-8.688000	28.489664	0.000250	20.920327
2628.708342	-2.997000	2.862000	-8.576200	28.460051	0.000248	20.897146
2629.707476	-3.004200	2.859300	-8.589000	28.419821	0.000249	20.912584
2630.704389	-2.998000	2.856400	-8.563200	28.402084	0.000249	20.908474
2631.706565	-3.023000	2.854300	-8.626700	28.444111	0.000246	20.901009
2632.707733	-2.996000	2.851800	-8.543200	28.483964	0.000248	20.925491
2633.703737	-3.037300	2.848200	-8.648400	28.542140	0.000247	20.930973
2634.716650	-2.980200	2.849500	-8.490700	28.597049	0.000249	20.894290
2635.707815	-2.988100	2.846500	-8.503500	28.602002	0.000248	20.898329
2636.704360	-2.986200	2.845000	-8.495400	28.571921	0.000248	20.903121
2637.708367	-2.980400	2.843700	-8.473300	28.562850	0.000248	20.913899
2638.708466	-2.999300	2.841900	-8.522700	28.568174	0.000249	20.914519
2639.705513	-2.999300	2.839500	-8.514800	28.559228	0.000247	20.902666
2640.712933	-2.996300	2.836000	-8.496300	28.563466	0.000247	20.915941
2641.714459	-3.012000	2.834000	-8.535200	28.550653	0.000248	20.886920
2642.705026	-2.981700	2.832100	-8.443400	28.584426	0.000247	20.912395
2643.713236	-3.014500	2.828400	-8.525300	28.565243	0.000249	20.903982
2644.710296	-2.969000	2.828700	-8.396900	28.559838	0.000249	20.896169
2645.706825	-3.014600	2.825900	-8.517900	28.550447	0.000245	20.899039
2646.708941	-2.981900	2.824200	-8.420400	28.524081	0.000248	20.909943
2647.712970	-3.032900	2.820100	-8.552200	28.479346	0.000248	20.900455
2648.709039	-2.972900	2.819900	-8.382100	28.413432	0.000247	20.894298
2649.712930	-3.021000	2.813900	-8.500300	28.330574	0.000247	20.906644
2650.716826	-3.016200	2.813900	-8.486000	28.319724	0.000247	20.905676
2651.708072	-3.034200	2.811800	-8.529600	28.340344	0.000248	20.894197
2652.717481	-2.993500	2.810800	-8.413400	28.406043	0.000248	20.875479
2653.715668	-2.987900	2.807500	-8.387800	28.408397	0.000246	20.879746
2654.708893	-3.010600	2.803700	-8.440200	28.453525	0.000247	20.897212
2655.710282	-3.024800	2.801300	-8.471800	28.454416	0.000247	20.882938
2656.716312	-3.018800	2.799500	-8.450200	28.489485	0.000247	20.894544
2657.711401	-2.986400	2.797900	-8.354500	28.452087	0.000247	20.898135
2658.711184	-3.001500	2.794500	-8.386400	28.486289	0.000247	20.899861
2659.713552	-3.003600	2.792000	-8.385000	28.511859	0.000247	20.890524
2660.709204	-2.998300	2.789800	-8.363900	28.563109	0.000247	20.877653
2661.712506	-2.988500	2.787500	-8.329700	28.638184	0.000248	20.899210
2662.708714	-3.006700	2.784700	-8.372100	28.685211	0.000248	20.890625
2663.715191	-2.991300	2.781800	-8.320900	28.699860	0.000247	20.886414
2664.713840	-2.994700	2.779300	-8.322400	28.688687	0.000246	20.887015
2665.711842	-2.975400	2.775700	-8.257200	28.701272	0.000245	20.888311
2666.714139	-3.003800	2.772900	-8.328600	28.702829	0.000246	20.877078
2667.712777	-3.007200	2.770400	-8.330200	28.725675	0.000249	20.890606
2668.714865	-3.025500	2.765800	-8.367000	28.709645	0.000247	20.873512
2669.717337	-3.015400	2.764900	-8.336300	28.671489	0.000248	20.905253
2670.714203	-3.016200	2.761300	-8.327100	28.649734	0.000246	20.892351
2671.716597	-3.005900	2.758700	-8.292000	28.589429	0.000246	20.876660
2672.716718	-2.994900	2.756000	-8.253200	28.615122	0.000246	20.869346
2673.720919	-3.007900	2.753200	-8.280700	28.649118	0.000245	20.880352
2674.719659	-2.999900	2.748600	-8.244300	28.685160	0.000247	20.847429
2675.715212	-3.009800	2.746900	-8.266300	28.718018	0.000248	20.888109
2676.714351	-3.033400	2.741900	-8.315900	28.670347	0.000246	20.885612
2677.719262	-3.018000	2.738500	-8.263700	28.654021	0.000248	20.878652
2678.720099	-2.987700	2.737800	-8.178600	28.680113	0.000248	20.890707
2679.717018	-3.036600	2.733700	-8.300300	28.645722	0.000246	20.871243
2680.718661	-2.990000	2.730300	-8.163100	28.693734	0.000246	20.856539
2681.720520	-3.014300	2.727700	-8.221000	28.726416	0.000246	20.848681
2682.717127	-2.988400	2.725000	-8.142700	28.683999	0.000246	20.858587
2683.717404	-3.003800	2.721200	-8.172500	28.657837	0.000249	20.863056
2684.716440	-3.004600	2.717000	-8.162500	28.658383	0.000248	20.874037
2685.719806	-3.028800	2.713100	-8.216400	28.695918	0.000245	20.873436
2686.716645	-2.993000	2.711700	-8.115300	28.707166	0.000247	20.868645
2687.719497	-2.971900	2.706600	-8.043000	28.714302	0.000247	20.889108
2688.719144	-3.009200	2.705000	-8.138700	28.663235	0.000246	20.874657
2689.718427	-2.987700	2.700600	-8.067500	28.590936	0.000248	20.881496
2690.720675	-2.995900	2.696900	-8.078700	28.543385	0.000249	20.872014
2691.721233	-3.014800	2.691900	-8.114500	28.525073	0.000248	20.865427
2692.725214	-3.005200	2.688800	-8.078500	28.528419	0.000248	20.873537
2693.723078	-2.999700	2.684400	-8.051300	28.576587	0.000247	20.860882
2694.719995	-3.002300	2.681400	-8.049400	28.595148	0.000247	20.879575
2695.726218	-3.008500	2.676300	-8.050600	28.585167	0.000247	20.865730
2696.723914	-3.002600	2.673300	-8.026200	28.533668	0.000246	20.868866
2697.724322	-2.993100	2.670300	-7.991700	28.579562	0.000245	20.874783
2698.723610	-2.973100	2.664700	-7.921200	28.618117	0.000246	20.863353
2699.724979	-3.015800	2.660600	-8.021800	28.603416	0.000246	20.867514
2700.723845	-3.007300	2.657800	-7.991200	28.610860	0.000246	20.862683
2701.723485	-2.998900	2.652400	-7.952300	28.581910	0.000245	20.870984
2702.721166	-2.985800	2.648900	-7.908100	28.618331	0.000247	20.854087
2703.725589	-2.987300	2.644400	-7.898200	28.660060	0.000246	20.869088
2704.727629	-2.991600	2.639600	-7.895900	28.699528	0.000246	20.861426
2705.725870	-2.966400	2.637100	-7.821100	28.721352	0.000246	20.870131
2706.727462	-2.980200	2.631300	-7.840700	28.717391	0.000245	20.856659
2707.728400	-2.997800	2.626800	-7.872600	28.759626	0.000246	20.860320
2708.724445	-2.996200	2.621100	-7.851600	28.785740	0.000246	20.880461
2709.727847	-3.040300	2.615500	-7.950600	28.806822	0.000245	20.871352
2710.724156	-3.026800	2.610000	-7.899000	28.781022	0.000247	20.844416
2711.727641	-3.009800	2.607100	-7.845700	28.751944	0.000248	20.868703
2712.728425	-2.987100	2.603300	-7.775800	28.754837	0.000245	20.871618
2713.730036	-3.003200	2.595700	-7.793400	28.770867	0.000246	20.860264
2714.728642	-2.994700	2.591700	-7.760400	28.794798	0.000249	20.850232
2715.726446	-2.976900	2.588300	-7.704400	28.834161	0.000247	20.872339
2716.730872	-2.983500	2.581900	-7.702000	28.929875	0.000248	20.877725
2717.731038	-2.993100	2.575300	-7.706000	28.975577	0.000247	20.846957
2718.728397	-2.977500	2.571400	-7.654700	29.014462	0.000245	20.871909
2719.732599	-2.987500	2.563500	-7.657300	28.988108	0.000249	20.875702
2720.729030	-3.010100	2.558100	-7.699600	28.914659	0.000248	20.862396
2721.732066	-2.992600	2.554200	-7.642600	28.859151	0.000245	20.884711
2722.729005	-3.015800	2.547000	-7.680100	28.805663	0.000247	20.843159
2723.734304	-2.985000	2.541400	-7.585200	28.763374	0.000248	20.865993
2724.735054	-3.004500	2.535800	-7.618000	28.773824	0.000246	20.865614
2725.731956	-2.987000	2.530700	-7.558300	28.782297	0.000247	20.877467
2726.734876	-3.003000	2.524700	-7.580300	28.801245	0.000248	20.863364
2727.734103	-3.014100	2.517300	-7.587100	28.832380	0.000246	20.856322
2728.731921	-3.021700	2.510800	-7.585700	28.838675	0.000246	20.838956
2729.737338	-2.990200	2.505600	-7.491700	28.897553	0.000247	20.848483
2730.733024	-3.000800	2.499300	-7.499300	28.893041	0.000247	20.853895
