LabVIEW Measurement	
Writer_Version	2
Reader_Version	2
Separator	Tab
Decimal_Separator	.
Multi_Headings	No
X_Columns	One
Time_Pref	Absolute
Operator	admin
Description	Clolumns are: time, Current, Voltage, Power, Battery Temp, and Chamber Temp
Date	2024/08/16
Time	13:06:06.104549407958984375
***End_of_Header***	
	
Channels	6						
Samples	1	1	1	1	1	1	
Date	2024/08/25	2024/08/25	2024/08/25	2024/08/25	2024/08/25	2024/08/25	
Time	05:01:07.6135478019714355469	05:01:07.6185479164123535156	05:01:07.622547149658203125	05:01:07.5925478935241699219	05:01:07.5925478935241699219	05:01:07.5925478935241699219	
X_Dimension	Time	Time	Time	Time	Time	Time	
X0	0.0000000000000000E+0	0.0000000000000000E+0	0.0000000000000000E+0	0.0000000000000000E+0	0.0000000000000000E+0	0.0000000000000000E+0	
Delta_X	1.000000	1.000000	1.000000	1.000000	1.000000	1.000000	
***End_of_Header***							
X_Value	Untitled	Untitled 1	Untitled 2	Untitled 3	Untitled 4	Untitled 5	Comment
0.000000	0.027287	4.106800	0.112070	21.027682	0.000964	20.740840
1.002467	-2.976100	3.951600	-11.759000	21.029727	0.000960	20.742413
1.995892	-2.997100	3.942400	-11.814000	21.014932	0.000962	20.730933
2.995899	-3.023700	3.937200	-11.903000	21.024588	0.000960	20.740591
4.000507	-2.992700	3.933900	-11.771000	21.016404	0.000959	20.722922
4.997375	-3.011700	3.928800	-11.831000	21.007172	0.000960	20.737397
5.998734	-3.015000	3.927400	-11.840000	21.014708	0.000956	20.716957
7.001943	-3.008900	3.925300	-11.810000	21.029329	0.000958	20.740117
7.998610	-2.990400	3.922900	-11.730000	21.041779	0.000955	20.741190
8.995529	-2.994200	3.923500	-11.746000	21.037537	0.000954	20.737421
10.001857	-3.016300	3.918200	-11.817000	21.017427	0.000954	20.732954
10.999257	-3.023400	3.916100	-11.839000	21.040631	0.000954	20.744783
11.999381	-3.023600	3.915200	-11.836000	21.045097	0.000955	20.753044
12.999642	-3.001200	3.914800	-11.747000	21.027756	0.000953	20.760356
13.997529	-2.989000	3.913000	-11.695000	21.056723	0.000950	20.741439
14.998046	-3.016100	3.911600	-11.797000	21.040406	0.000951	20.745507
15.999910	-3.016200	3.910600	-11.793000	21.039508	0.000951	20.749350
16.999332	-2.991100	3.909300	-11.693000	21.043400	0.000950	20.742811
17.999995	-3.006300	3.910300	-11.754000	21.058544	0.000949	20.734251
19.003695	-3.035100	3.905900	-11.854000	21.071717	0.000947	20.740315
20.000881	-2.995400	3.906100	-11.699000	21.073040	0.000949	20.742586
21.005235	-3.008000	3.904600	-11.744000	21.081622	0.000947	20.737420
22.001889	-2.997800	3.905000	-11.705000	21.077855	0.000947	20.757835
23.004951	-3.018900	3.901400	-11.777000	21.099636	0.000948	20.739791
24.000782	-3.006200	3.902800	-11.732000	21.108292	0.000946	20.742760
25.001023	-2.990100	3.903300	-11.670000	21.095170	0.000943	20.746704
26.003059	-3.003200	3.901900	-11.717000	21.115279	0.000945	20.760655
27.000762	-2.994700	3.901300	-11.682000	21.110638	0.000945	20.747478
28.005651	-2.994200	3.898400	-11.672000	21.108742	0.000944	20.729933
29.001248	-3.004100	3.898700	-11.710000	21.115653	0.000942	20.741114
30.005584	-2.980500	3.898600	-11.618000	21.130447	0.000944	20.754016
31.002090	-2.985600	3.898000	-11.637000	21.105698	0.000941	20.736372
32.002556	-2.995200	3.897800	-11.673000	21.140775	0.000941	20.745381
33.003957	-2.970000	3.898400	-11.577000	21.139903	0.000943	20.761104
34.001537	-2.994200	3.896400	-11.666000	21.142098	0.000942	20.763775
35.001341	-2.988300	3.895600	-11.640000	21.145291	0.000943	20.748950
36.005614	-2.989000	3.896200	-11.645000	21.165748	0.000942	20.755663
37.002313	-2.985800	3.895500	-11.630000	21.147162	0.000941	20.775004
38.003980	-2.986900	3.893500	-11.628000	21.150355	0.000939	20.750697
39.004555	-2.989900	3.893600	-11.640000	21.165997	0.000937	20.749748
40.007835	-3.006000	3.892600	-11.700000	21.174255	0.000939	20.763225
41.003212	-2.991500	3.892400	-11.642000	21.175453	0.000939	20.750198
42.005871	-2.995700	3.893100	-11.661000	21.205613	0.000938	20.767093
43.005873	-2.998500	3.890400	-11.665000	21.195859	0.000938	20.757335
44.009644	-2.976700	3.891300	-11.582000	21.186579	0.000938	20.746629
45.008088	-2.990100	3.890100	-11.630000	21.207060	0.000936	20.741987
46.008514	-2.999600	3.890400	-11.668000	21.198229	0.000936	20.754015
47.010398	-2.991300	3.889200	-11.633000	21.208556	0.000936	20.753915
48.007751	-2.993500	3.889600	-11.642000	21.226742	0.000936	20.756460
49.010262	-2.985700	3.889300	-11.611000	21.214443	0.000935	20.753640
50.008810	-3.001400	3.888900	-11.671000	21.236969	0.000933	20.767640
51.009702	-2.992500	3.887800	-11.633000	21.230508	0.000935	20.762599
52.006781	-2.977600	3.888800	-11.577000	21.256677	0.000936	20.742784
53.009016	-2.977000	3.889300	-11.577000	21.241909	0.000933	20.755986
54.006615	-3.012200	3.886800	-11.707000	21.262064	0.000937	20.754338
55.009355	-2.976200	3.888000	-11.571000	21.280000	0.000935	20.760902
56.008389	-2.986200	3.886800	-11.606000	21.288506	0.000934	20.768938
57.009525	-3.001700	3.885400	-11.661000	21.282520	0.000935	20.773854
58.009739	-3.030300	3.886000	-11.775000	21.256651	0.000934	20.754613
59.011694	-3.000200	3.885800	-11.658000	21.295017	0.000934	20.771658
60.009179	-3.017000	3.883700	-11.717000	21.308836	0.000937	20.763198
61.006881	-3.000400	3.886100	-11.659000	21.298808	0.000934	20.765493
62.010996	-2.995600	3.885000	-11.637000	21.299906	0.000934	20.769911
63.012342	-3.013600	3.884100	-11.704000	21.329914	0.000933	20.767690
64.007895	-3.013500	3.884300	-11.705000	21.308337	0.000933	20.762225
65.008673	-3.024800	3.882700	-11.743000	21.356205	0.000933	20.783088
66.008770	-3.004900	3.882800	-11.666000	21.338794	0.000933	20.763298
67.012704	-3.013300	3.883500	-11.699000	21.353810	0.000931	20.765519
68.013235	-3.020400	3.880500	-11.720000	21.345255	0.000931	20.757433
69.009976	-3.004900	3.881900	-11.664000	21.350568	0.000932	20.771758
70.013446	-2.996700	3.881800	-11.631000	21.370123	0.000932	20.767615
71.013216	-2.980600	3.883700	-11.575000	21.349395	0.000930	20.753515
72.029581	-2.985400	3.882200	-11.589000	21.383219	0.000931	20.769338
73.011754	-2.997500	3.880700	-11.632000	21.389853	0.000931	20.756060
74.012875	-2.990400	3.882200	-11.609000	21.400503	0.000931	20.770984
75.015734	-2.982300	3.882200	-11.576000	21.414796	0.000933	20.778172
76.013038	-2.983900	3.881700	-11.582000	21.400179	0.000933	20.776824
77.015143	-2.991200	3.880900	-11.608000	21.403248	0.000930	20.778946
78.015506	-2.988300	3.881900	-11.598000	21.404694	0.000931	20.763323
79.016108	-2.988800	3.880200	-11.596000	21.415369	0.000933	20.781116
80.017100	-3.012900	3.880000	-11.689000	21.427990	0.000931	20.763872
81.016324	-3.008300	3.878900	-11.667000	21.417889	0.000931	20.781267
82.017827	-2.994300	3.879400	-11.615000	21.452707	0.000931	20.782913
83.019417	-2.991300	3.879700	-11.604000	21.455276	0.000931	20.795441
84.015001	-2.989700	3.878600	-11.595000	21.428714	0.000930	20.778821
85.018791	-3.012300	3.879300	-11.684000	21.457895	0.000930	20.765344
86.017923	-2.996200	3.878300	-11.619000	21.463258	0.000930	20.771659
87.019571	-3.025400	3.876800	-11.727000	21.469667	0.000927	20.767640
88.018305	-3.009800	3.876100	-11.665000	21.482112	0.000929	20.786732
89.015777	-2.994700	3.877600	-11.612000	21.481938	0.000930	20.791773
90.016228	-3.013200	3.877900	-11.684000	21.493835	0.000931	20.779495
91.019153	-2.989900	3.877000	-11.591000	21.509497	0.000933	20.788528
92.022083	-2.986400	3.877400	-11.579000	21.501291	0.000931	20.795491
93.017148	-3.003700	3.876800	-11.644000	21.499297	0.000931	20.790650
94.019992	-3.002200	3.876800	-11.638000	21.512590	0.000930	20.789727
95.019826	-2.995400	3.877200	-11.612000	21.530796	0.000930	20.794668
96.020618	-3.004400	3.875900	-11.643000	21.522067	0.000928	20.799683
97.021020	-3.001000	3.876400	-11.632000	21.545361	0.000931	20.785060
98.021842	-3.002300	3.875800	-11.635000	21.550872	0.000930	20.782040
99.023820	-3.001600	3.875500	-11.631000	21.549077	0.000931	20.794942
100.022318	-2.991300	3.874800	-11.590000	21.558179	0.000931	20.803102
101.021624	-2.989700	3.875100	-11.584000	21.573691	0.000929	20.785434
102.018565	-2.987300	3.875800	-11.577000	21.583168	0.000931	20.789228
103.021654	-2.986200	3.875400	-11.571000	21.588479	0.000930	20.795491
104.022229	-3.014700	3.872200	-11.673000	21.584440	0.000933	20.784336
105.022795	-3.010600	3.874500	-11.663000	21.606236	0.000930	20.808992
106.022448	-3.011700	3.872600	-11.662000	21.609976	0.000930	20.809890
107.023656	-3.019100	3.872800	-11.691000	21.624216	0.000930	20.795217
108.021828	-3.008500	3.872900	-11.650000	21.626311	0.000931	20.793046
109.022756	-2.992200	3.871800	-11.583000	21.627957	0.000931	20.816504
110.019308	-3.022700	3.874400	-11.710000	21.650075	0.000931	20.794542
111.021093	-2.991900	3.874300	-11.590000	21.660973	0.000929	20.779844
112.018107	-3.011900	3.873300	-11.665000	21.669502	0.000929	20.793595
113.023072	-3.006200	3.872500	-11.640000	21.656859	0.000930	20.803701
114.021595	-2.993000	3.872900	-11.591000	21.664290	0.000930	20.812087
115.018389	-3.013900	3.872300	-11.669000	21.693839	0.000931	20.808468
116.021841	-3.009000	3.870500	-11.646000	21.675636	0.000928	20.798311
117.022240	-2.985600	3.870900	-11.555000	21.692592	0.000933	20.790625
118.021931	-3.004200	3.871700	-11.630000	21.680798	0.000932	20.818176
119.022433	-2.988700	3.872300	-11.572000	21.692793	0.000932	20.794144
120.021519	-3.006100	3.871400	-11.637000	21.702792	0.000930	20.803203
121.022210	-3.043900	3.868300	-11.773000	21.699002	0.000932	20.797513
122.020221	-2.980200	3.872000	-11.537000	21.694937	0.000933	20.824265
123.024137	-3.008700	3.869900	-11.642000	21.711370	0.000931	20.798985
124.022009	-3.002100	3.869500	-11.615000	21.721294	0.000933	20.810814
125.020328	-2.980900	3.869200	-11.533000	21.720222	0.000932	20.825388
126.019590	-2.986300	3.868900	-11.553000	21.761490	0.000932	20.824015
127.024762	-3.010800	3.868900	-11.647000	21.752638	0.000933	20.819424
128.025466	-2.994800	3.869000	-11.586000	21.748324	0.000935	20.795667
129.024039	-3.021100	3.867000	-11.682000	21.737902	0.000930	20.811314
130.026193	-3.013800	3.869000	-11.658000	21.758747	0.000932	20.817951
131.026345	-3.022400	3.867500	-11.689000	21.766776	0.000932	20.798012
132.021783	-2.988500	3.869600	-11.563000	21.755007	0.000933	20.796191
133.021254	-2.982000	3.868500	-11.535000	21.749721	0.000934	20.815082
134.025852	-2.994900	3.868100	-11.584000	21.765978	0.000934	20.820921
135.025915	-3.003000	3.869500	-11.619000	21.776077	0.000935	20.809692
136.023319	-3.010000	3.867100	-11.638000	21.788619	0.000933	20.800433
137.025873	-2.991400	3.866900	-11.566000	21.796398	0.000935	20.830030
138.026204	-3.020700	3.866600	-11.679000	21.789142	0.000934	20.800009
139.026735	-3.000100	3.867700	-11.603000	21.797346	0.000935	20.834772
140.026668	-2.989900	3.867000	-11.560000	21.816345	0.000935	20.821546
141.037105	-2.996800	3.866900	-11.587000	21.837688	0.000935	20.813510
142.023602	-3.004200	3.866100	-11.613000	21.824174	0.000937	20.821795
143.027161	-2.973700	3.866800	-11.497000	21.839158	0.000936	20.814508
144.022942	-3.008500	3.866100	-11.629000	21.850279	0.000935	20.832751
145.025871	-3.004400	3.866900	-11.617000	21.852772	0.000937	20.820547
146.024153	-3.008200	3.864500	-11.624000	21.868030	0.000938	20.826336
147.029019	-2.988800	3.866100	-11.554000	21.845317	0.000936	20.823043
148.025465	-3.005000	3.865500	-11.614000	21.882964	0.000937	20.828008
149.025514	-2.995900	3.864300	-11.575000	21.859777	0.000936	20.822817
150.029123	-2.986500	3.867600	-11.550000	21.890419	0.000939	20.826461
151.030232	-2.980100	3.865300	-11.518000	21.886006	0.000940	20.832001
152.026731	-2.994900	3.865300	-11.575000	21.909043	0.000941	20.817602
153.030175	-2.981500	3.865100	-11.523000	21.878003	0.000938	20.823516
154.030651	-2.972100	3.865300	-11.486000	21.901538	0.000938	20.852762
155.029763	-2.965400	3.865800	-11.462000	21.895754	0.000939	20.825637
156.030319	-2.994300	3.864200	-11.570000	21.917569	0.000941	20.825662
157.031609	-2.979100	3.864400	-11.511000	21.922779	0.000937	20.844153
158.028238	-3.024300	3.862900	-11.681000	21.930308	0.000941	20.834146
159.027454	-3.027000	3.862700	-11.691000	21.949630	0.000940	20.830728
160.028676	-3.016200	3.861900	-11.647000	21.952821	0.000940	20.836766
161.031132	-2.971500	3.864300	-11.481000	21.958130	0.000938	20.853934
162.031640	-3.013400	3.862600	-11.639000	21.952671	0.000941	20.856056
163.028916	-3.009900	3.862800	-11.625000	21.957033	0.000943	20.840035
164.032979	-3.019900	3.861800	-11.661000	21.975382	0.000943	20.839436
165.031070	-3.004900	3.863000	-11.607000	21.981888	0.000941	20.835044
166.029477	-3.005800	3.862100	-11.607000	21.963590	0.000942	20.852761
167.033783	-3.013400	3.861900	-11.636000	21.994253	0.000942	20.839361
168.033712	-2.990900	3.863000	-11.553000	21.983085	0.000942	20.830077
169.030670	-2.986400	3.863400	-11.535000	22.007316	0.000943	20.862867
170.034666	-3.019700	3.861100	-11.658000	22.008588	0.000944	20.849917
171.029966	-3.001000	3.860800	-11.586000	22.007914	0.000943	20.843079
172.037892	-3.028400	3.859700	-11.688000	21.991860	0.000942	20.852612
173.033375	-2.990000	3.861400	-11.544000	22.010831	0.000942	20.845524
174.032181	-3.007900	3.859300	-11.607000	22.010008	0.000944	20.842330
175.035308	-3.004400	3.860400	-11.598000	22.010183	0.000944	20.847720
176.032756	-3.007900	3.859200	-11.606000	22.039674	0.000942	20.859698
177.036006	-2.998600	3.859300	-11.572000	22.035461	0.000943	20.864964
178.033244	-3.023000	3.859900	-11.667000	22.055927	0.000946	20.850839
179.036515	-3.002600	3.858900	-11.584000	22.064004	0.000947	20.861770
180.039193	-3.005200	3.858100	-11.593000	22.062134	0.000943	20.861320
181.033988	-3.010700	3.858800	-11.616000	22.076991	0.000945	20.866710
182.038183	-3.016700	3.859300	-11.641000	22.085442	0.000946	20.866636
183.041484	-3.001400	3.858600	-11.580000	22.063082	0.000946	20.853261
184.036250	-2.988000	3.858100	-11.527000	22.082126	0.000947	20.832498
185.036714	-3.003900	3.859500	-11.592000	22.098305	0.000946	20.869556
186.036831	-3.003700	3.858400	-11.589000	22.124752	0.000947	20.845774
187.040814	-2.991300	3.859700	-11.545000	22.107527	0.000948	20.871676
188.042115	-2.986800	3.858900	-11.525000	22.094765	0.000949	20.863641
189.043913	-2.975500	3.858800	-11.479000	22.123032	0.000947	20.870604
190.044524	-2.990700	3.858400	-11.539000	22.132455	0.000948	20.839262
191.042736	-2.983200	3.858200	-11.509000	22.152570	0.000948	20.848969
192.044873	-3.007400	3.857400	-11.600000	22.151274	0.000948	20.870429
193.044599	-2.996400	3.856500	-11.554000	22.165980	0.000948	20.862868
194.043990	-2.964100	3.858200	-11.435000	22.174281	0.000949	20.883979
195.042221	-2.984200	3.856800	-11.508000	22.158203	0.000948	20.864565
196.044024	-3.011600	3.857000	-11.613000	22.178268	0.000951	20.883704
197.045959	-2.994500	3.858000	-11.552000	22.163737	0.000952	20.863941
198.046071	-3.014100	3.855200	-11.619000	22.180163	0.000952	20.870429
199.044701	-2.995300	3.856100	-11.548000	22.184699	0.000951	20.867385
200.039801	-2.987900	3.854900	-11.515000	22.202944	0.000952	20.877117
201.055516	-3.018100	3.855100	-11.634000	22.213089	0.000952	20.898177
202.042424	-3.003100	3.853700	-11.572000	22.210521	0.000952	20.874272
203.044331	-2.992500	3.855200	-11.536000	22.209325	0.000951	20.897254
204.045458	-3.026600	3.853400	-11.661000	22.210372	0.000954	20.899725
205.043355	-3.023800	3.853200	-11.650000	22.224977	0.000955	20.874995
206.049401	-3.013500	3.854900	-11.615000	22.216155	0.000955	20.873274
207.045650	-3.008800	3.853800	-11.595000	22.226747	0.000956	20.888146
208.042527	-3.000800	3.853400	-11.563000	22.255410	0.000956	20.868957
209.045712	-3.003100	3.853100	-11.570000	22.262463	0.000956	20.881708
210.042045	-3.018200	3.853300	-11.629000	22.271610	0.000958	20.900348
211.044174	-3.022700	3.852400	-11.643000	22.263660	0.000956	20.883380
212.045309	-3.005500	3.854400	-11.584000	22.262015	0.000958	20.883156
213.047112	-3.023200	3.851700	-11.643000	22.276919	0.000958	20.873423
214.044662	-3.019700	3.851900	-11.631000	22.264034	0.000960	20.898926
215.050096	-3.030200	3.852100	-11.672000	22.284820	0.000958	20.886549
216.048454	-3.002500	3.850500	-11.560000	22.282153	0.000960	20.884354
217.046884	-2.981000	3.852400	-11.483000	22.309818	0.000961	20.884553
218.048300	-2.970300	3.853900	-11.446000	22.301817	0.000959	20.882706
219.051673	-2.980200	3.851600	-11.478000	22.322353	0.000961	20.886200
220.049434	-2.995700	3.852800	-11.541000	22.316072	0.000963	20.881333
221.051359	-3.003600	3.851800	-11.568000	22.334416	0.000962	20.899700
222.048515	-3.017600	3.850500	-11.618000	22.326864	0.000963	20.900673
223.050431	-2.989900	3.851600	-11.515000	22.354552	0.000962	20.891415
224.051126	-2.998600	3.850700	-11.546000	22.368483	0.000963	20.894933
225.052747	-2.996900	3.851800	-11.542000	22.344982	0.000962	20.900797
226.051811	-2.980000	3.850800	-11.474000	22.383536	0.000964	20.900049
227.052515	-3.012800	3.849200	-11.596000	22.375013	0.000963	20.874920
228.056123	-2.980300	3.850600	-11.475000	22.375112	0.000963	20.912001
229.052027	-2.997200	3.850000	-11.537000	22.381442	0.000965	20.911227
230.048779	-3.016100	3.848700	-11.607000	22.379997	0.000964	20.899824
231.054026	-3.001600	3.848800	-11.552000	22.381193	0.000965	20.914297
232.048284	-3.000700	3.850200	-11.553000	22.378078	0.000966	20.914496
233.051561	-3.026500	3.847000	-11.641000	22.385255	0.000965	20.918838
234.052404	-3.010100	3.848600	-11.584000	22.373518	0.000965	20.914672
235.050756	-3.004900	3.849200	-11.565000	22.382290	0.000967	20.901645
236.050151	-3.022100	3.848600	-11.630000	22.390040	0.000969	20.903717
237.057603	-3.014100	3.847700	-11.597000	22.395672	0.000968	20.909356
238.053355	-3.025900	3.845500	-11.636000	22.421913	0.000968	20.895807
239.051023	-3.016100	3.846200	-11.600000	22.432181	0.000968	20.923156
240.051153	-3.022100	3.846700	-11.624000	22.441949	0.000969	20.918714
241.054464	-2.985000	3.847600	-11.485000	22.446584	0.000969	20.914347
242.057257	-3.001700	3.846700	-11.546000	22.446959	0.000972	20.908085
243.050476	-3.009300	3.846300	-11.573000	22.487726	0.000969	20.906712
244.057920	-2.996400	3.846200	-11.524000	22.449849	0.000970	20.935632
245.053353	-3.002800	3.846000	-11.548000	22.473797	0.000972	20.919788
246.051014	-2.992800	3.845700	-11.507000	22.487851	0.000970	20.921535
247.054108	-3.001900	3.846700	-11.546000	22.493882	0.000972	20.905290
248.051015	-2.996600	3.847400	-11.528000	22.488200	0.000973	20.902920
249.051811	-2.995600	3.845600	-11.519000	22.481647	0.000973	20.920537
250.054302	-3.009800	3.844700	-11.570000	22.498119	0.000971	20.896732
251.052529	-2.998000	3.845700	-11.528000	22.492089	0.000974	20.895435
252.049965	-2.995900	3.845400	-11.519000	22.499065	0.000973	20.905740
253.055195	-2.987400	3.845500	-11.487000	22.505445	0.000975	20.913551
254.055537	-2.989400	3.844800	-11.493000	22.505296	0.000976	20.906764
255.055874	-3.001600	3.845000	-11.539000	22.507364	0.000976	20.883233
256.055031	-3.023300	3.843900	-11.620000	22.505471	0.000978	20.904095
257.055718	-2.995100	3.845400	-11.517000	22.505272	0.000975	20.887775
258.055851	-3.019700	3.843700	-11.605000	22.492339	0.000979	20.902323
259.056474	-3.009200	3.843300	-11.564000	22.502880	0.000978	20.899129
260.058412	-2.993800	3.844500	-11.508000	22.499018	0.000979	20.898107
261.053625	-3.008100	3.842000	-11.556000	22.516710	0.000979	20.893540
262.060162	-2.993700	3.843400	-11.505000	22.530689	0.000980	20.886678
263.057568	-3.003000	3.843800	-11.542000	22.552043	0.000978	20.906641
264.053724	-2.994700	3.843200	-11.507000	22.543771	0.000981	20.875599
265.059412	-3.006100	3.842500	-11.550000	22.531685	0.000981	20.898581
266.057615	-3.012700	3.843100	-11.576000	22.546836	0.000981	20.902374
267.057820	-3.002100	3.841800	-11.532000	22.521619	0.000981	20.903198
268.059388	-2.992700	3.841300	-11.495000	22.551919	0.000982	20.897034
269.057977	-3.016700	3.841300	-11.587000	22.566595	0.000983	20.883759
270.061142	-3.003600	3.841900	-11.538000	22.565475	0.000984	20.884534
271.058970	-2.992800	3.841700	-11.495000	22.583215	0.000984	20.879068
272.067502	-2.994900	3.842100	-11.506000	22.589071	0.000985	20.878295
273.061619	-3.023700	3.839700	-11.609000	22.587427	0.000984	20.884235
274.059399	-3.001100	3.842000	-11.529000	22.601031	0.000987	20.877946
275.060501	-3.009400	3.840300	-11.557000	22.602477	0.000986	20.872282
276.061386	-2.995800	3.841100	-11.506000	22.623605	0.000986	20.901029
277.064628	-3.024500	3.838700	-11.609000	22.618074	0.000986	20.876050
278.061277	-2.980400	3.840300	-11.445000	22.650987	0.000988	20.883411
279.069076	-3.000900	3.840100	-11.522000	22.647176	0.000987	20.847354
280.076014	-2.997400	3.838700	-11.505000	22.640573	0.000989	20.875352
281.065077	-2.970100	3.841100	-11.407000	22.663769	0.000987	20.880093
282.062596	-2.977400	3.840100	-11.433000	22.671493	0.000989	20.858907
283.064439	-3.002300	3.837800	-11.521000	22.674632	0.000989	20.864422
284.071816	-2.994800	3.839300	-11.497000	22.684672	0.000989	20.878746
285.068246	-2.998500	3.838100	-11.507000	22.669052	0.000989	20.864523
286.068763	-2.988100	3.838900	-11.471000	22.676576	0.000988	20.862102
287.066779	-3.008000	3.837400	-11.541000	22.633972	0.000992	20.885335
288.067358	-2.996900	3.840000	-11.506000	22.665290	0.000993	20.869763
289.071260	-3.003500	3.837700	-11.526000	22.680538	0.000992	20.857536
290.067909	-2.998100	3.837100	-11.502000	22.655848	0.000993	20.862203
291.072413	-2.994700	3.836400	-11.488000	22.653681	0.000992	20.864774
292.069143	-2.974300	3.837000	-11.411000	22.651438	0.000994	20.857312
293.081290	-2.993700	3.835800	-11.482000	22.660233	0.000994	20.863276
294.069232	-2.990900	3.836700	-11.474000	22.692174	0.000997	20.876777
295.068714	-2.994200	3.837000	-11.488000	22.699375	0.000994	20.863128
296.072603	-3.012500	3.835500	-11.554000	22.690007	0.000995	20.853271
297.068845	-2.999300	3.835500	-11.502000	22.747781	0.000994	20.865149
298.068474	-2.970800	3.836400	-11.396000	22.753911	0.000997	20.872710
299.073391	-2.990500	3.836100	-11.471000	22.744768	0.000996	20.853122
300.070330	-2.984200	3.836100	-11.446000	22.740134	0.000998	20.857014
301.070343	-2.985500	3.836300	-11.452000	22.753586	0.000997	20.852947
302.074325	-3.016700	3.834300	-11.565000	22.767289	0.000998	20.845810
303.073911	-3.004800	3.835300	-11.523000	22.758446	0.001000	20.848331
304.074901	-2.975200	3.836100	-11.413000	22.769308	0.000998	20.833134
305.072878	-3.002600	3.834400	-11.512000	22.768113	0.001000	20.840946
306.073038	-3.002700	3.834200	-11.511000	22.782785	0.001001	20.836204
307.075569	-2.996400	3.834300	-11.488000	22.783857	0.001002	20.854346
308.078519	-3.002100	3.832800	-11.505000	22.778227	0.001001	20.831163
309.074683	-2.996100	3.833800	-11.485000	22.760415	0.001001	20.838924
310.077392	-3.002000	3.834300	-11.509000	22.747335	0.001003	20.839573
311.074236	-3.005300	3.833200	-11.519000	22.736848	0.001004	20.872214
312.077258	-2.994700	3.832700	-11.477000	22.746987	0.001003	20.869568
313.073787	-3.008900	3.832200	-11.529000	22.752492	0.001002	20.854695
314.075210	-3.016400	3.831900	-11.557000	22.762632	0.001006	20.853947
315.078856	-3.003300	3.832900	-11.510000	22.762284	0.001006	20.839374
316.077683	-3.011400	3.832700	-11.541000	22.758447	0.001006	20.851652
317.076640	-2.979700	3.833400	-11.421000	22.761960	0.001004	20.843791
318.078066	-2.999400	3.831900	-11.492000	22.758747	0.001005	20.838202
319.088343	-3.022400	3.832400	-11.581000	22.758971	0.001005	20.846960
320.079561	-2.996700	3.831700	-11.481000	22.753042	0.001007	20.838651
321.079785	-2.996300	3.830400	-11.477000	22.774292	0.001004	20.828170
322.080308	-3.016700	3.830300	-11.554000	22.758024	0.001008	20.821832
323.084260	-3.020800	3.830500	-11.570000	22.751223	0.001008	20.830665
324.080286	-3.008500	3.829700	-11.521000	22.764202	0.001008	20.824701
325.083421	-3.008700	3.830000	-11.520000	22.782936	0.001007	20.847260
326.083333	-3.001400	3.829300	-11.491000	22.796738	0.001008	20.852551
327.080251	-3.006800	3.829800	-11.514000	22.812806	0.001010	20.852525
328.086656	-3.024900	3.828300	-11.579000	22.825958	0.001009	20.830615
329.085862	-3.021000	3.828900	-11.566000	22.832984	0.001010	20.840023
330.085044	-2.993200	3.829600	-11.461000	22.842350	0.001012	20.828070
331.085429	-3.010500	3.828400	-11.524000	22.876228	0.001013	20.837827
332.088684	-2.991500	3.828400	-11.451000	22.874958	0.001012	20.840822
333.085219	-3.021100	3.828200	-11.564000	22.857869	0.001012	20.850728
334.083816	-3.002300	3.829200	-11.494000	22.862577	0.001013	20.825574
335.084155	-2.994200	3.828800	-11.463000	22.884423	0.001016	20.829442
336.083880	-3.010900	3.827700	-11.524000	22.882630	0.001014	20.830491
337.084471	-3.021200	3.826900	-11.561000	22.901262	0.001016	20.833035
338.087356	-3.006500	3.826600	-11.504000	22.900241	0.001016	20.841970
339.084647	-2.998000	3.827200	-11.473000	22.877523	0.001016	20.832961
340.083609	-2.991300	3.828100	-11.450000	22.875132	0.001016	20.830091
341.090094	-2.997300	3.828300	-11.472000	22.855677	0.001017	20.850903
342.082880	-3.001100	3.826100	-11.481000	22.893440	0.001017	20.830889
343.096210	-3.000300	3.826200	-11.478000	22.898845	0.001017	20.814968
344.086605	-2.990500	3.828100	-11.447000	22.888707	0.001017	20.824725
345.088723	-3.006000	3.825500	-11.498000	22.895134	0.001017	20.825473
346.086406	-3.001300	3.825300	-11.480000	22.886340	0.001018	20.831363
347.086742	-3.011300	3.823700	-11.513000	22.912197	0.001020	20.845412
348.087313	-3.019700	3.825100	-11.550000	22.881010	0.001018	20.832186
349.089101	-3.021200	3.823500	-11.550000	22.880163	0.001021	20.830863
350.089025	-2.996900	3.823800	-11.459000	22.915609	0.001022	20.842667
351.093681	-3.007600	3.824400	-11.502000	22.897051	0.001021	20.841144
352.088921	-2.988800	3.825000	-11.431000	22.918697	0.001022	20.815890
353.090172	-3.008300	3.823400	-11.501000	22.922608	0.001021	20.832136
354.095356	-3.008400	3.823200	-11.501000	22.940716	0.001024	20.821829
355.090366	-3.007500	3.823600	-11.497000	22.947416	0.001023	20.826171
356.091055	-3.017600	3.821100	-11.529000	22.941588	0.001024	20.833133
357.093020	-2.989000	3.822000	-11.423000	22.969136	0.001024	20.815690
358.092555	-2.999800	3.823900	-11.469000	22.974566	0.001025	20.827768
359.091275	-3.000600	3.824400	-11.475000	22.965948	0.001024	20.838099
360.092968	-3.023100	3.821600	-11.551000	22.983981	0.001027	20.831037
361.092591	-2.979700	3.822100	-11.387000	22.997207	0.001025	20.835279
362.091707	-2.988200	3.821700	-11.418000	22.998627	0.001026	20.840494
363.093286	-3.007400	3.821000	-11.491000	23.016958	0.001025	20.832783
364.093786	-3.002200	3.820700	-11.469000	22.999598	0.001027	20.823450
365.092501	-2.975300	3.820600	-11.366000	23.018826	0.001028	20.821379
366.091958	-2.987000	3.822100	-11.415000	23.030407	0.001027	20.825396
367.093945	-2.984400	3.819900	-11.398000	23.053395	0.001028	20.815239
368.093327	-2.991500	3.820200	-11.427000	23.049486	0.001029	20.836926
369.092666	-3.010500	3.820300	-11.499000	23.042188	0.001029	20.828665
370.094322	-3.005100	3.819400	-11.477000	23.062810	0.001030	20.831785
371.093126	-2.997400	3.819000	-11.446000	23.063483	0.001032	20.818234
372.092958	-2.998100	3.818900	-11.449000	23.076459	0.001030	20.820805
373.093198	-3.019200	3.817900	-11.526000	23.049859	0.001032	20.818809
374.094316	-3.028700	3.817200	-11.560000	23.034243	0.001031	20.824498
375.097207	-2.993300	3.818200	-11.427000	23.065824	0.001034	20.823900
376.094480	-2.994100	3.818600	-11.431000	23.071378	0.001032	20.824249
377.096888	-3.018200	3.818200	-11.521000	23.058303	0.001032	20.820630
378.096668	-3.022400	3.816700	-11.535000	23.030980	0.001033	20.809375
379.096366	-3.000600	3.816600	-11.451000	23.059921	0.001035	20.843588
380.096127	-3.017400	3.817200	-11.518000	23.065276	0.001032	20.826195
381.097078	-3.010500	3.816100	-11.487000	23.102510	0.001034	20.815140
382.100872	-3.011900	3.816300	-11.494000	23.102958	0.001034	20.820331
383.097125	-3.003000	3.815700	-11.458000	23.103008	0.001033	20.815639
384.096185	-2.981300	3.816500	-11.377000	23.123255	0.001035	20.812694
385.097430	-3.021300	3.815700	-11.526000	23.117975	0.001034	20.839171
386.096585	-2.994700	3.816900	-11.430000	23.104850	0.001036	20.799942
387.097014	-3.001500	3.814800	-11.448000	23.120516	0.001034	20.821803
388.097901	-2.994400	3.815000	-11.422000	23.152741	0.001035	20.805731
389.097987	-2.994700	3.813800	-11.419000	23.139468	0.001036	20.803336
390.103058	-2.995100	3.814900	-11.425000	23.145619	0.001035	20.823250
391.100712	-3.009600	3.812400	-11.473000	23.160710	0.001036	20.828415
392.100205	-3.005400	3.814100	-11.461000	23.146092	0.001038	20.821827
393.104039	-3.000600	3.813100	-11.440000	23.137948	0.001039	20.790908
394.100530	-2.995500	3.812800	-11.420000	23.160038	0.001037	20.809724
395.102195	-2.967900	3.814400	-11.320000	23.166313	0.001037	20.823599
396.100279	-3.012800	3.811100	-11.480000	23.176275	0.001038	20.803709
397.099257	-3.006500	3.811700	-11.459000	23.167857	0.001039	20.813766
398.100874	-3.007400	3.811400	-11.460000	23.162353	0.001036	20.809199
399.099695	-3.006800	3.813400	-11.466000	23.190195	0.001039	20.791580
400.100491	-3.022800	3.811000	-11.519000	23.209843	0.001040	20.815063
401.104795	-3.013000	3.811900	-11.485000	23.188800	0.001039	20.809623
402.108830	-3.006900	3.811100	-11.458000	23.202048	0.001043	20.813890
403.102723	-3.018700	3.809700	-11.499000	23.200629	0.001039	20.815313
404.103255	-3.020900	3.810900	-11.510000	23.208597	0.001043	20.827565
405.099955	-3.005900	3.811000	-11.455000	23.228345	0.001042	20.808475
406.101773	-3.001200	3.810600	-11.436000	23.240771	0.001042	20.807177
407.107115	-3.004500	3.810600	-11.448000	23.248416	0.001042	20.811045
408.105781	-2.979900	3.810100	-11.353000	23.263954	0.001043	20.809073
409.105951	-2.998100	3.809100	-11.418000	23.252101	0.001045	20.808100
410.104379	-3.005600	3.808900	-11.447000	23.245452	0.001046	20.796221
411.103931	-3.021400	3.808100	-11.505000	23.247445	0.001042	20.804856
412.109823	-3.016400	3.807400	-11.484000	23.240348	0.001044	20.808649
413.106776	-3.003800	3.809300	-11.442000	23.226974	0.001045	20.800937
414.104943	-3.005700	3.806800	-11.441000	23.233672	0.001045	20.803856
415.106003	-3.004400	3.807900	-11.439000	23.235092	0.001045	20.775881
416.106258	-2.988600	3.807100	-11.377000	23.198485	0.001047	20.804156
417.106881	-3.007600	3.808100	-11.453000	23.199905	0.001047	20.800362
418.105711	-3.020700	3.805000	-11.493000	23.161529	0.001048	20.792726
419.108603	-3.013800	3.806500	-11.471000	23.176844	0.001049	20.780573
420.104395	-3.010000	3.805600	-11.454000	23.165961	0.001049	20.801435
421.104953	-3.003000	3.806700	-11.431000	23.170816	0.001049	20.779748
422.105464	-3.006800	3.806200	-11.442000	23.181550	0.001048	20.787659
423.105871	-2.996100	3.806100	-11.402000	23.204710	0.001051	20.786686
424.104645	-2.969600	3.807000	-11.305000	23.226898	0.001048	20.768143
425.108591	-3.012500	3.805400	-11.463000	23.207847	0.001048	20.795045
426.109404	-2.981500	3.804900	-11.343000	23.231280	0.001051	20.800984
427.106236	-2.982000	3.806100	-11.349000	23.252422	0.001051	20.802732
428.110948	-2.985200	3.804600	-11.356000	23.262681	0.001052	20.796418
429.107841	-2.995800	3.804800	-11.398000	23.278144	0.001054	20.785362
430.108680	-3.004000	3.804700	-11.427000	23.292462	0.001053	20.772210
431.110160	-2.996600	3.803700	-11.397000	23.288528	0.001051	20.792923
432.112400	-3.001700	3.802900	-11.414000	23.274409	0.001052	20.801059
433.108450	-2.991600	3.803300	-11.377000	23.294105	0.001053	20.782866
434.111939	-3.023500	3.801800	-11.492000	23.319006	0.001054	20.794545
435.111718	-2.992900	3.803600	-11.382000	23.304489	0.001053	20.773358
436.110175	-2.987700	3.802200	-11.357000	23.315619	0.001057	20.780719
437.112929	-3.015100	3.800800	-11.459000	23.346594	0.001055	20.779047
438.116288	-2.988300	3.802700	-11.362000	23.338352	0.001056	20.782641
439.112004	-2.969200	3.802200	-11.288000	23.342585	0.001053	20.785934
440.111287	-3.036900	3.800200	-11.538000	23.366862	0.001056	20.793671
441.113584	-3.005400	3.801600	-11.425000	23.368779	0.001055	20.791325
442.111047	-3.003600	3.801200	-11.417000	23.383195	0.001055	20.775428
443.112173	-3.009900	3.801900	-11.441000	23.383668	0.001056	20.793446
444.114684	-3.013000	3.799700	-11.447000	23.369699	0.001057	20.795567
445.113751	-3.006300	3.799400	-11.421000	23.345099	0.001054	20.784661
446.112832	-2.999000	3.800000	-11.395000	23.330631	0.001055	20.778222
447.115326	-3.014800	3.798700	-11.452000	23.291464	0.001058	20.785908
448.113734	-2.992000	3.799700	-11.368000	23.285089	0.001055	20.798486
449.114092	-3.009400	3.799100	-11.432000	23.268206	0.001056	20.794368
450.112267	-3.007800	3.799000	-11.425000	23.277095	0.001059	20.781465
451.114060	-3.014000	3.798400	-11.448000	23.307847	0.001059	20.803277
452.115275	-3.007500	3.798700	-11.424000	23.313201	0.001058	20.788253
453.114685	-2.988500	3.798500	-11.351000	23.326447	0.001060	20.800107
454.116364	-3.003800	3.798600	-11.409000	23.314196	0.001062	20.793044
455.116581	-2.995900	3.798000	-11.378000	23.324753	0.001061	20.782762
456.116037	-3.015700	3.797600	-11.452000	23.340539	0.001061	20.779143
457.117810	-3.014000	3.797000	-11.443000	23.333169	0.001062	20.793093
458.115129	-3.006200	3.797500	-11.415000	23.345593	0.001060	20.769509
459.117789	-3.027000	3.794900	-11.486000	23.330304	0.001063	20.780265
460.116582	-3.002200	3.796100	-11.396000	23.357445	0.001063	20.783284
461.117812	-3.001300	3.797300	-11.396000	23.339691	0.001062	20.770706
462.116889	-3.000000	3.795200	-11.384000	23.355974	0.001063	20.806466
463.116418	-3.003700	3.795000	-11.397000	23.358813	0.001062	20.786552
464.116856	-3.016900	3.795400	-11.448000	23.367826	0.001063	20.768084
465.117052	-2.998800	3.796100	-11.382000	23.369220	0.001065	20.758101
466.116742	-3.013100	3.794100	-11.432000	23.374797	0.001064	20.765113
467.117959	-3.009200	3.794500	-11.417000	23.391279	0.001064	20.753183
468.117385	-2.994100	3.794300	-11.358000	23.375567	0.001065	20.766360
469.120523	-3.005700	3.792700	-11.399000	23.387642	0.001066	20.775144
470.118084	-3.013100	3.793600	-11.430000	23.402133	0.001066	20.753631
471.117952	-3.004900	3.791900	-11.392000	23.383160	0.001066	20.779186
472.118686	-2.997200	3.793800	-11.369000	23.376337	0.001065	20.776614
473.118436	-2.995400	3.792200	-11.358000	23.361945	0.001065	20.777363
474.119556	-2.989800	3.793500	-11.341000	23.366177	0.001064	20.783501
475.118918	-3.016800	3.792500	-11.439000	23.375613	0.001066	20.764510
476.121820	-3.014400	3.791500	-11.427000	23.371828	0.001065	20.765932
477.122418	-3.000500	3.790600	-11.373000	23.376484	0.001067	20.768701
478.119756	-3.006900	3.790700	-11.397000	23.372126	0.001067	20.773817
479.131427	-3.016100	3.790300	-11.430000	23.402676	0.001067	20.775988
480.121493	-2.990900	3.790100	-11.335000	23.394484	0.001066	20.753551
481.118883	-3.002800	3.789500	-11.378000	23.448188	0.001067	20.769922
482.122141	-2.987200	3.790600	-11.323000	23.451275	0.001067	20.773965
483.120723	-2.995000	3.789000	-11.347000	23.463101	0.001068	20.773016
484.121263	-3.015200	3.788900	-11.423000	23.471217	0.001068	20.766452
485.124090	-3.007300	3.788800	-11.392000	23.497208	0.001069	20.775910
486.121860	-2.998700	3.789600	-11.363000	23.449680	0.001068	20.767150
487.122249	-2.998300	3.788400	-11.358000	23.480377	0.001067	20.769470
488.125267	-3.005100	3.787200	-11.379000	23.446791	0.001067	20.784169
489.126431	-3.012700	3.787400	-11.409000	23.439820	0.001068	20.780500
490.123553	-2.987800	3.787300	-11.315000	23.436781	0.001066	20.783619
491.128593	-2.997700	3.786800	-11.350000	23.452341	0.001068	20.775982
492.128141	-3.004200	3.785800	-11.372000	23.453287	0.001068	20.774085
493.124321	-2.975800	3.787100	-11.269000	23.473030	0.001067	20.779176
494.123963	-2.986100	3.786400	-11.306000	23.485752	0.001067	20.751624
495.127832	-3.000700	3.785900	-11.358000	23.487544	0.001069	20.759110
496.124318	-2.985600	3.786500	-11.304000	23.470340	0.001068	20.776479
497.125808	-2.986600	3.786300	-11.308000	23.486622	0.001069	20.775730
498.129858	-2.991000	3.786200	-11.324000	23.491526	0.001067	20.776379
499.128755	-2.988000	3.783900	-11.305000	23.494464	0.001067	20.765098
500.127782	-2.986800	3.785600	-11.306000	23.479924	0.001069	20.782292
501.130320	-2.999300	3.784600	-11.350000	23.466778	0.001067	20.782392
502.127524	-3.003400	3.782300	-11.358000	23.473998	0.001070	20.771136
503.125444	-2.992200	3.783400	-11.319000	23.488438	0.001071	20.765222
504.129677	-2.983000	3.783200	-11.284000	23.471981	0.001070	20.760105
505.126630	-2.997500	3.782500	-11.338000	23.500736	0.001070	20.778972
506.128505	-2.993600	3.783100	-11.324000	23.493839	0.001069	20.777274
507.131967	-2.972900	3.783500	-11.248000	23.522569	0.001071	20.777149
508.127695	-2.982300	3.783600	-11.283000	23.537406	0.001070	20.787281
509.128032	-2.973300	3.783200	-11.248000	23.543381	0.001068	20.764820
510.131012	-2.987700	3.781500	-11.296000	23.577337	0.001068	20.767566
511.129208	-2.971200	3.783200	-11.240000	23.552865	0.001070	20.775277
512.127808	-3.000800	3.780400	-11.343000	23.553139	0.001070	20.770335
513.128605	-2.989100	3.779900	-11.298000	23.559138	0.001073	20.759753
514.132572	-2.995100	3.779600	-11.318000	23.540367	0.001071	20.782663
515.130156	-2.976800	3.782500	-11.259000	23.536434	0.001072	20.796738
516.135067	-2.987500	3.780100	-11.292000	23.562100	0.001073	20.765568
517.134080	-2.987900	3.779900	-11.293000	23.561876	0.001069	20.755385
518.129530	-2.992300	3.780500	-11.311000	23.582438	0.001072	20.793068
519.130739	-3.003000	3.778300	-11.346000	23.557295	0.001074	20.772130
520.132483	-2.987800	3.780000	-11.292000	23.585425	0.001074	20.763820
521.131330	-3.014700	3.778400	-11.390000	23.587914	0.001074	20.773428
522.131699	-2.997300	3.779600	-11.326000	23.595606	0.001075	20.801527
523.138104	-2.992500	3.778500	-11.305000	23.602427	0.001075	20.757156
524.131698	-3.016300	3.776400	-11.389000	23.577931	0.001074	20.791869
525.131662	-3.005700	3.777000	-11.351000	23.557592	0.001077	20.776696
526.134343	-2.991800	3.777700	-11.300000	23.534987	0.001074	20.769209
527.137206	-3.015600	3.777300	-11.390000	23.537153	0.001075	20.770432
528.134758	-2.988100	3.776100	-11.282000	23.550870	0.001072	20.781812
529.134194	-2.999500	3.775800	-11.324000	23.563268	0.001075	20.773376
530.137676	-2.976500	3.775700	-11.237000	23.572354	0.001075	20.772054
531.136667	-3.006000	3.775400	-11.348000	23.602924	0.001074	20.773775
532.142393	-2.997900	3.776300	-11.318000	23.589381	0.001075	20.774898
533.136711	-2.984100	3.774200	-11.262000	23.623635	0.001074	20.795486
534.137230	-2.987200	3.773700	-11.272000	23.643275	0.001076	20.787675
535.145874	-3.017100	3.774200	-11.387000	23.661248	0.001076	20.798107
536.136607	-2.995800	3.774000	-11.306000	23.680937	0.001075	20.781336
537.136123	-2.966500	3.774400	-11.196000	23.670084	0.001076	20.782310
538.138510	-3.005100	3.774200	-11.341000	23.646038	0.001074	20.776220
539.136600	-2.983100	3.772700	-11.253000	23.654079	0.001075	20.767211
540.136804	-2.989800	3.773600	-11.282000	23.639018	0.001075	20.771079
541.149946	-2.996800	3.772300	-11.304000	23.660003	0.001073	20.790220
542.141562	-2.975500	3.772400	-11.222000	23.667695	0.001074	20.791293
543.143486	-2.990400	3.771200	-11.276000	23.672549	0.001073	20.775771
544.143545	-2.989100	3.770200	-11.268000	23.707073	0.001075	20.799005
545.144627	-2.994400	3.770700	-11.289000	23.709986	0.001074	20.777268
546.145997	-3.009100	3.771100	-11.346000	23.662865	0.001077	20.778866
547.145309	-2.990100	3.771000	-11.275000	23.689649	0.001075	20.763518
548.144583	-2.997800	3.769300	-11.297000	23.689923	0.001076	20.777069
549.147124	-2.990000	3.770400	-11.273000	23.706103	0.001078	20.783333
550.148495	-3.009700	3.770100	-11.345000	23.712102	0.001075	20.783183
551.153363	-2.986900	3.769800	-11.259000	23.688579	0.001075	20.790420
552.155034	-3.019700	3.769500	-11.381000	23.693483	0.001075	20.795337
553.147012	-3.020700	3.768200	-11.382000	23.678921	0.001075	20.793066
554.148602	-2.999400	3.768900	-11.303000	23.681958	0.001076	20.789472
555.150707	-3.005700	3.768400	-11.326000	23.685169	0.001075	20.783208
556.148885	-3.008400	3.768900	-11.337000	23.690098	0.001076	20.789572
557.147270	-2.986200	3.767800	-11.250000	23.666849	0.001076	20.786178
558.150000	-2.992800	3.766700	-11.272000	23.622664	0.001074	20.784556
559.149630	-2.993700	3.767100	-11.277000	23.633468	0.001074	20.782585
560.149034	-2.987300	3.767500	-11.253000	23.630431	0.001076	20.817473
561.153250	-2.977000	3.766400	-11.212000	23.640488	0.001077	20.788674
562.149679	-3.001800	3.766900	-11.306000	23.659257	0.001076	20.808913
563.148942	-2.987000	3.767900	-11.253000	23.685295	0.001076	20.804671
564.156692	-2.998100	3.765900	-11.290000	23.700977	0.001078	20.786728
565.148110	-3.003900	3.764700	-11.308000	23.682234	0.001075	20.799705
566.149425	-3.011800	3.764100	-11.336000	23.715713	0.001076	20.794390
567.153735	-3.021600	3.763200	-11.369000	23.724525	0.001075	20.822664
568.151297	-3.009400	3.764600	-11.328000	23.720219	0.001076	20.833046
569.151807	-2.993300	3.764600	-11.267000	23.720069	0.001076	20.791646
570.155636	-3.042800	3.761700	-11.445000	23.715091	0.001075	20.813681
571.153738	-2.997300	3.762000	-11.275000	23.734009	0.001077	20.796138
572.152214	-2.995800	3.763900	-11.275000	23.750163	0.001073	20.816601
573.155375	-2.990100	3.763900	-11.253000	23.742373	0.001075	20.826334
574.151745	-3.012100	3.762700	-11.331000	23.724750	0.001074	20.824787
575.152913	-2.987700	3.762400	-11.240000	23.696299	0.001074	20.804324
576.154361	-3.015400	3.761400	-11.340000	23.710562	0.001075	20.806770
577.155251	-3.010700	3.761400	-11.323000	23.688484	0.001077	20.847696
578.153143	-3.015400	3.760100	-11.337000	23.656547	0.001076	20.828007
579.159002	-3.005900	3.761000	-11.304000	23.703668	0.001077	20.817401
580.153702	-2.998700	3.760600	-11.277000	23.716960	0.001077	20.820771
581.152915	-2.973400	3.761400	-11.183000	23.735230	0.001075	20.804475
582.153385	-2.994800	3.761200	-11.264000	23.775329	0.001076	20.828557
583.154114	-2.993300	3.761200	-11.258000	23.781801	0.001076	20.826985
584.155406	-3.005900	3.760000	-11.301000	23.795490	0.001077	20.800882
585.154588	-2.987100	3.759100	-11.228000	23.819135	0.001076	20.825064
586.155871	-2.992200	3.759100	-11.247000	23.844895	0.001076	20.818177
587.158475	-2.990000	3.758500	-11.237000	23.826254	0.001077	20.815133
588.154548	-3.025500	3.757300	-11.366000	23.810450	0.001074	20.811614
589.155400	-2.983100	3.759300	-11.212000	23.843154	0.001074	20.806474
590.155856	-3.014800	3.756400	-11.323000	23.827499	0.001074	20.823019
591.155691	-3.020400	3.755800	-11.343000	23.805796	0.001076	20.824492
592.157146	-2.998400	3.757600	-11.266000	23.788548	0.001075	20.838017
593.156242	-3.002600	3.757000	-11.279000	23.788573	0.001074	20.831405
594.155558	-2.988200	3.756000	-11.222000	23.793029	0.001076	20.823070
595.160055	-2.998400	3.756000	-11.260000	23.824713	0.001075	20.854363
596.160311	-3.017500	3.755700	-11.331000	23.842235	0.001075	20.842061
597.157637	-3.029300	3.754300	-11.372000	23.861822	0.001076	20.808597
598.160306	-2.995300	3.754600	-11.245000	23.888253	0.001077	20.812340
599.158107	-2.982900	3.755100	-11.200000	23.895147	0.001076	20.826840
600.160293	-3.006800	3.754400	-11.288000	23.881459	0.001076	20.831132
601.167172	-2.993900	3.754100	-11.239000	23.887631	0.001076	20.834476
602.160891	-2.989100	3.754200	-11.220000	23.901419	0.001076	20.831232
603.162675	-2.984400	3.754500	-11.204000	23.900847	0.001073	20.821650
604.162367	-3.005100	3.753900	-11.280000	23.896367	0.001077	20.843710
605.162424	-3.006300	3.753000	-11.281000	23.919239	0.001074	20.839143
606.162361	-2.987100	3.752400	-11.207000	23.904530	0.001072	20.838619
607.161752	-3.003200	3.753900	-11.272000	23.912047	0.001074	20.834302
608.165655	-3.006100	3.752000	-11.278000	23.923022	0.001075	20.814963
609.164204	-2.997300	3.751100	-11.242000	23.907692	0.001076	20.825195
610.161971	-3.000300	3.751900	-11.255000	23.923047	0.001073	20.830161
611.165864	-3.003700	3.750900	-11.265000	23.918169	0.001073	20.838071
612.163594	-3.007400	3.750900	-11.279000	23.919812	0.001076	20.831658
613.163555	-3.027200	3.749200	-11.348000	23.945147	0.001077	20.849476
614.164934	-2.980700	3.750100	-11.176000	23.963513	0.001076	20.834229
615.164087	-3.002100	3.750200	-11.256000	23.963737	0.001075	20.834928
616.165942	-2.992100	3.750000	-11.220000	23.954529	0.001075	20.847505
617.165915	-3.010300	3.749100	-11.285000	23.970631	0.001073	20.840893
618.175341	-2.999800	3.749300	-11.246000	23.954978	0.001076	20.848429
619.178725	-3.012100	3.748300	-11.289000	23.977077	0.001074	20.836926
620.168807	-3.011800	3.749400	-11.290000	23.972996	0.001076	20.840894
621.171871	-2.997200	3.748700	-11.235000	23.974763	0.001077	20.841717
622.169923	-3.013400	3.746800	-11.290000	23.978845	0.001075	20.862405
623.168303	-2.978800	3.748200	-11.164000	23.990765	0.001076	20.835005
624.172608	-2.985500	3.747900	-11.188000	23.981234	0.001077	20.839672
625.171987	-2.993200	3.746600	-11.212000	23.999077	0.001077	20.853772
626.169054	-2.983800	3.747400	-11.179000	24.004702	0.001075	20.853248
627.172887	-2.979900	3.746700	-11.163000	23.996465	0.001075	20.844989
628.169063	-2.999000	3.746500	-11.234000	24.019857	0.001075	20.839998
629.170245	-2.997100	3.745400	-11.225000	24.018538	0.001075	20.844365
630.169022	-3.005900	3.745500	-11.257000	24.012516	0.001075	20.852550
631.171573	-2.993600	3.746200	-11.214000	24.007042	0.001077	20.852751
632.169619	-3.024100	3.745300	-11.324000	23.968247	0.001077	20.839924
633.170154	-3.004100	3.745700	-11.252000	23.950628	0.001076	20.832688
634.172028	-2.979900	3.745100	-11.159000	23.937140	0.001076	20.858042
635.171500	-2.999300	3.743200	-11.226000	23.949011	0.001077	20.846239
636.171418	-2.967700	3.745000	-11.113000	23.943138	0.001075	20.843195
637.174659	-2.995500	3.743700	-11.213000	23.956253	0.001074	20.867251
638.172342	-2.987700	3.744400	-11.186000	23.969642	0.001078	20.862185
639.178627	-2.992500	3.743600	-11.201000	23.956553	0.001074	20.853327
640.174725	-3.014400	3.743000	-11.282000	24.014137	0.001076	20.854176
641.172480	-2.979800	3.743100	-11.153000	24.001397	0.001076	20.884071
642.171918	-2.993600	3.742900	-11.203000	24.014387	0.001077	20.862012
643.176231	-3.000900	3.741500	-11.226000	24.027576	0.001075	20.852480
644.174704	-2.995400	3.740700	-11.204000	24.060099	0.001076	20.877984
645.172481	-2.990000	3.741500	-11.186000	24.055546	0.001074	20.856823
646.176386	-2.995300	3.740500	-11.203000	24.064877	0.001073	20.857647
647.175994	-3.012900	3.739800	-11.266000	24.079733	0.001074	20.859744
648.174360	-3.019800	3.740600	-11.294000	24.084238	0.001074	20.874692
649.180292	-3.019800	3.739400	-11.291000	24.059131	0.001076	20.862789
650.178615	-2.998200	3.740500	-11.213000	24.063386	0.001074	20.869901
651.176039	-3.016300	3.739000	-11.277000	24.060301	0.001076	20.872496
652.179131	-3.004700	3.739500	-11.234000	24.074012	0.001073	20.877712
653.178514	-3.007900	3.739900	-11.248000	24.078242	0.001071	20.872946
654.175194	-3.014800	3.738000	-11.268000	24.066473	0.001072	20.865885
655.179768	-3.024000	3.737900	-11.303000	24.034399	0.001072	20.887296
656.177974	-3.020900	3.737200	-11.289000	24.046393	0.001075	20.850489
657.175912	-3.016500	3.736300	-11.270000	24.041665	0.001071	20.887945
658.179971	-3.006400	3.737800	-11.235000	24.065977	0.001074	20.868232
659.177681	-3.003900	3.736100	-11.222000	24.047563	0.001072	20.867309
660.175786	-2.991700	3.736300	-11.177000	24.068541	0.001073	20.858001
661.179315	-2.998800	3.735700	-11.202000	24.079639	0.001073	20.872924
662.177000	-2.988200	3.736500	-11.165000	24.088298	0.001074	20.871177
663.177252	-2.985800	3.737100	-11.157000	24.107558	0.001074	20.883380
664.179256	-2.978800	3.737100	-11.132000	24.106015	0.001073	20.896531
665.175860	-2.993300	3.735000	-11.179000	24.111191	0.001075	20.859999
666.176270	-3.003600	3.734100	-11.215000	24.107309	0.001071	20.879812
667.177468	-3.006000	3.732900	-11.220000	24.124056	0.001075	20.885228
668.176248	-2.998400	3.734200	-11.196000	24.122936	0.001074	20.874148
669.176003	-3.000300	3.734000	-11.201000	24.112560	0.001073	20.886975
670.180117	-3.007500	3.733900	-11.229000	24.089719	0.001074	20.883981
671.177185	-2.989400	3.733300	-11.160000	24.087628	0.001073	20.871928
672.177178	-2.987000	3.734300	-11.154000	24.072177	0.001069	20.875397
673.179255	-2.973700	3.734200	-11.103000	24.046049	0.001072	20.878591
674.178198	-2.985400	3.733100	-11.144000	24.047840	0.001071	20.879914
675.181765	-3.008000	3.733100	-11.228000	24.049508	0.001072	20.894861
676.180523	-2.979600	3.732300	-11.119000	24.068221	0.001070	20.870008
677.180235	-3.006900	3.731100	-11.217000	24.059064	0.001070	20.891643
678.183259	-2.996500	3.732100	-11.182000	24.080214	0.001070	20.900052
679.181537	-2.996900	3.731500	-11.182000	24.088974	0.001069	20.890820
680.182298	-3.015200	3.731100	-11.249000	24.134657	0.001068	20.900127
681.187339	-3.021900	3.730400	-11.271000	24.119753	0.001070	20.905567
682.182660	-3.005400	3.730100	-11.209000	24.153568	0.001070	20.899179
683.183218	-3.023300	3.729300	-11.272000	24.164465	0.001069	20.908212
684.193799	-2.992800	3.729400	-11.161000	24.190118	0.001068	20.884632
685.183137	-2.973500	3.731100	-11.094000	24.218854	0.001070	20.895436
686.184282	-2.985300	3.730800	-11.137000	24.211166	0.001068	20.889148
687.183577	-2.988700	3.729600	-11.145000	24.212784	0.001068	20.896934
688.183987	-2.989600	3.729200	-11.146000	24.231294	0.001065	20.904120
689.184705	-2.994200	3.728800	-11.163000	24.213829	0.001069	20.892293
690.184574	-3.002400	3.727000	-11.189000	24.228035	0.001067	20.898481
691.188131	-3.013900	3.727300	-11.233000	24.212660	0.001069	20.879741
692.184523	-3.022500	3.727300	-11.265000	24.210470	0.001070	20.889872
693.189203	-2.996100	3.726400	-11.163000	24.205544	0.001067	20.906267
694.187315	-3.014200	3.725800	-11.228000	24.226443	0.001067	20.889772
695.188755	-2.975400	3.727700	-11.090000	24.208007	0.001065	20.899728
696.187301	-2.994500	3.727700	-11.162000	24.222438	0.001064	20.899031
697.188044	-3.021300	3.724800	-11.252000	24.198254	0.001068	20.892317
698.186782	-2.995500	3.725700	-11.159000	24.196338	0.001068	20.911731
699.187484	-2.994300	3.727200	-11.160000	24.198801	0.001069	20.897608
700.189922	-3.009400	3.725900	-11.212000	24.221741	0.001064	20.898332
701.188179	-3.015400	3.725000	-11.232000	24.233533	0.001065	20.901151
702.189455	-3.001100	3.725800	-11.181000	24.230698	0.001064	20.919641
703.189561	-3.010300	3.724700	-11.210000	24.233782	0.001069	20.908512
704.191115	-2.975400	3.725200	-11.082000	24.228035	0.001066	20.923609
705.190065	-2.997400	3.724600	-11.164000	24.219054	0.001065	20.901800
706.190289	-3.021500	3.723200	-11.247000	24.221219	0.001064	20.900178
707.189613	-2.985000	3.722300	-11.108000	24.233236	0.001066	20.883784
708.190651	-2.999000	3.724100	-11.167000	24.265205	0.001063	20.899729
709.191167	-2.993200	3.723600	-11.144000	24.245426	0.001063	20.902649
710.193001	-2.997600	3.722400	-11.157000	24.234803	0.001062	20.908114
711.192562	-3.013100	3.721800	-11.214000	24.245626	0.001065	20.905694
712.190639	-3.002400	3.722100	-11.174000	24.243984	0.001065	20.911158
713.192241	-2.996300	3.722500	-11.153000	24.234530	0.001062	20.937708
714.192916	-3.007600	3.721700	-11.192000	24.268540	0.001063	20.925831
715.189716	-3.025000	3.720100	-11.251000	24.272571	0.001061	20.907117
716.190192	-3.018500	3.720400	-11.229000	24.291653	0.001062	20.912033
717.192965	-2.986900	3.721000	-11.114000	24.251722	0.001062	20.922712
718.189838	-2.986600	3.719400	-11.107000	24.246374	0.001062	20.926830
719.191063	-3.027400	3.718900	-11.257000	24.209403	0.001062	20.927204
720.192075	-2.999800	3.720200	-11.159000	24.201565	0.001064	20.916499
721.191464	-2.986300	3.720300	-11.108000	24.232616	0.001063	20.930099
722.194118	-2.982400	3.719400	-11.091000	24.204726	0.001062	20.928677
723.190515	-2.984300	3.718700	-11.097000	24.198905	0.001062	20.943699
724.191238	-3.009600	3.717700	-11.187000	24.216595	0.001062	20.925409
725.191437	-3.019500	3.717300	-11.223000	24.239558	0.001063	20.912409
726.199033	-2.998000	3.718200	-11.145000	24.259213	0.001061	20.924536
727.191668	-3.017200	3.718900	-11.218000	24.251824	0.001062	20.916177
728.197047	-2.997400	3.718000	-11.143000	24.217963	0.001062	20.924886
729.192310	-3.003600	3.718000	-11.166000	24.225676	0.001059	20.918872
730.193227	-2.990100	3.717100	-11.114000	24.220726	0.001060	20.941880
731.194078	-2.993300	3.716500	-11.124000	24.219209	0.001061	20.944151
732.191958	-2.995200	3.717200	-11.133000	24.229484	0.001058	20.915106
733.193234	-2.977000	3.717700	-11.067000	24.251926	0.001060	20.947569
734.193997	-3.012300	3.715000	-11.189000	24.220254	0.001060	20.931924
735.194046	-2.993500	3.716900	-11.124000	24.237919	0.001060	20.940633
736.194515	-3.004900	3.715300	-11.163000	24.262575	0.001059	20.940234
737.195719	-3.014600	3.714300	-11.197000	24.285015	0.001059	20.932399
738.195432	-2.999300	3.714900	-11.141000	24.295689	0.001061	20.929830
739.200450	-2.995900	3.714500	-11.127000	24.316387	0.001058	20.930678
740.198401	-2.991200	3.715200	-11.112000	24.303948	0.001060	20.928632
741.206978	-2.988900	3.716000	-11.105000	24.315442	0.001059	20.943953
742.198873	-3.015600	3.713300	-11.196000	24.313900	0.001059	20.936717
743.200021	-2.991400	3.714900	-11.110000	24.309372	0.001060	20.952088
744.197956	-3.006900	3.713000	-11.163000	24.267801	0.001059	20.943106
745.199633	-2.993600	3.713300	-11.115000	24.259318	0.001059	20.962094
746.199797	-2.997700	3.713200	-11.130000	24.255387	0.001058	20.935869
747.199698	-3.000500	3.712000	-11.136000	24.263497	0.001059	20.956804
748.198226	-2.987400	3.713100	-11.091000	24.245958	0.001057	20.946325
749.200711	-3.027400	3.710000	-11.230000	24.237823	0.001056	20.948596
750.199157	-2.980400	3.713400	-11.066000	24.239664	0.001057	20.942383
751.202439	-2.998300	3.710900	-11.125000	24.263523	0.001058	20.919377
752.200486	-3.019000	3.709300	-11.197000	24.281461	0.001058	20.948747
753.203310	-3.018500	3.709900	-11.197000	24.282855	0.001057	20.946351
754.202402	-3.040600	3.708300	-11.274000	24.265390	0.001056	20.930731
755.203170	-2.993000	3.710400	-11.103000	24.292781	0.001055	20.933077
756.202639	-2.989900	3.710100	-11.091000	24.310918	0.001056	20.938941
757.201540	-2.994900	3.710800	-11.112000	24.289672	0.001055	20.940389
758.200832	-3.001600	3.708900	-11.132000	24.313057	0.001053	20.947250
759.200711	-3.008000	3.709800	-11.158000	24.337860	0.001054	20.944631
760.210184	-3.011800	3.709300	-11.171000	24.305296	0.001054	20.924768
761.202375	-2.997700	3.709600	-11.119000	24.290917	0.001055	20.938318
762.199859	-2.998600	3.708500	-11.120000	24.329154	0.001053	20.928786
763.200912	-3.008800	3.707800	-11.155000	24.327636	0.001053	20.948124
764.201881	-2.979500	3.708300	-11.048000	24.332935	0.001055	20.928786
765.203095	-2.980300	3.708400	-11.050000	24.315745	0.001052	20.936197
766.202654	-3.006800	3.707900	-11.148000	24.317834	0.001053	20.932604
767.208213	-2.993100	3.708300	-11.098000	24.282632	0.001053	20.926216
768.200912	-3.004600	3.705700	-11.133000	24.281786	0.001051	20.933427
769.205286	-2.994700	3.706900	-11.100000	24.271311	0.001050	20.920077
770.204479	-2.993700	3.707100	-11.097000	24.255166	0.001051	20.892978
771.207810	-3.001500	3.704800	-11.119000	24.277407	0.001053	20.930931
772.204792	-2.985500	3.707200	-11.067000	24.275865	0.001050	20.928910
773.203977	-2.993300	3.706000	-11.092000	24.286462	0.001053	20.925317
774.205040	-2.988200	3.705900	-11.073000	24.301662	0.001052	20.923969
775.204197	-2.980900	3.706500	-11.048000	24.315818	0.001049	20.909247
776.205808	-2.987400	3.706200	-11.071000	24.339923	0.001049	20.928210
777.209431	-2.988500	3.705000	-11.071000	24.368109	0.001048	20.887263
778.204977	-2.999200	3.703200	-11.106000	24.360571	0.001049	20.918104
779.206970	-3.015000	3.704500	-11.168000	24.360919	0.001047	20.908971
780.205152	-2.997800	3.703900	-11.103000	24.386965	0.001045	20.919452
781.205935	-3.009100	3.703000	-11.142000	24.390472	0.001049	20.920125
782.208515	-2.987700	3.704700	-11.067000	24.386144	0.001046	20.902983
783.210358	-2.982800	3.704900	-11.051000	24.387188	0.001046	20.903082
784.209838	-2.994300	3.702200	-11.084000	24.385024	0.001047	20.897592
785.205996	-3.009200	3.702500	-11.141000	24.390870	0.001048	20.906775
786.209029	-3.002000	3.703100	-11.116000	24.395397	0.001046	20.903256
787.210139	-3.000700	3.702100	-11.106000	24.417885	0.001045	20.887411
788.209679	-2.986700	3.702100	-11.056000	24.428183	0.001043	20.878777
789.210511	-2.996700	3.701100	-11.090000	24.420123	0.001045	20.896769
790.213587	-2.977500	3.701000	-11.018000	24.418133	0.001044	20.886712
791.210754	-2.997300	3.700800	-11.092000	24.390421	0.001044	20.886412
792.215100	-3.008600	3.700900	-11.134000	24.361864	0.001044	20.901385
793.212439	-2.994600	3.700500	-11.080000	24.340047	0.001043	20.870018
794.211883	-3.029800	3.699000	-11.206000	24.335022	0.001045	20.874460
795.209338	-2.998800	3.700200	-11.095000	24.346863	0.001044	20.883019
796.212866	-3.013800	3.699300	-11.146000	24.339599	0.001044	20.880474
797.209149	-3.003800	3.699500	-11.111000	24.366142	0.001043	20.887186
798.212500	-2.999000	3.699500	-11.094000	24.360271	0.001045	20.876082
799.214600	-3.004500	3.699000	-11.113000	24.341863	0.001043	20.859038
800.207781	-2.991500	3.699500	-11.066000	24.340843	0.001044	20.879351
801.212847	-2.995600	3.698900	-11.078000	24.325319	0.001044	20.889856
802.214946	-3.013900	3.697400	-11.143000	24.314597	0.001042	20.881472
803.212103	-3.010900	3.697900	-11.132000	24.313353	0.001042	20.881172
804.212636	-3.000300	3.697700	-11.093000	24.342659	0.001043	20.872164
805.216434	-2.999300	3.697300	-11.088000	24.326662	0.001043	20.882669
806.215950	-3.008900	3.695600	-11.119000	24.361939	0.001043	20.880125
807.216989	-2.997500	3.697100	-11.081000	24.370198	0.001041	20.875134
808.214977	-3.006600	3.696500	-11.113000	24.363531	0.001040	20.876032
809.212826	-3.000700	3.696200	-11.089000	24.348928	0.001042	20.881772
810.215671	-2.978600	3.697500	-11.012000	24.365596	0.001040	20.880000
811.214001	-2.972500	3.697400	-10.990000	24.370745	0.001041	20.871890
812.212465	-3.015100	3.693800	-11.136000	24.366690	0.001040	20.874934
813.215318	-3.004000	3.694600	-11.098000	24.340321	0.001040	20.866974
814.215462	-2.983800	3.695400	-11.024000	24.339799	0.001039	20.868821
815.214586	-2.999600	3.695200	-11.083000	24.339002	0.001040	20.877031
816.219024	-3.000600	3.695800	-11.089000	24.355745	0.001038	20.871541
817.218920	-2.980500	3.694100	-11.009000	24.377910	0.001041	20.865801
818.215043	-2.988900	3.695700	-11.044000	24.402139	0.001039	20.857866
819.220005	-2.991500	3.694800	-11.052000	24.405074	0.001039	20.879301
820.217510	-3.022800	3.691800	-11.157000	24.431093	0.001038	20.845663
821.216631	-2.999700	3.692800	-11.076000	24.433059	0.001036	20.851428
822.218402	-2.987600	3.693700	-11.034000	24.443730	0.001037	20.850280
823.215489	-3.006700	3.693800	-11.105000	24.413904	0.001038	20.838376
824.218238	-3.002900	3.692600	-11.087000	24.416790	0.001035	20.855969
825.217082	-3.013900	3.692600	-11.128000	24.422163	0.001035	20.865152
826.216105	-3.003800	3.692100	-11.089000	24.422760	0.001036	20.874285
827.215137	-3.008800	3.692400	-11.109000	24.418058	0.001037	20.853449
828.221060	-2.994100	3.690400	-11.048000	24.433009	0.001034	20.844740
829.227212	-3.002500	3.690600	-11.080000	24.454823	0.001034	20.852400
830.230022	-2.996700	3.691100	-11.060000	24.471639	0.001036	20.844141
831.219018	-3.011800	3.688900	-11.110000	24.476588	0.001034	20.848632
832.220111	-3.009100	3.690400	-11.104000	24.506761	0.001032	20.837179
833.219706	-2.978500	3.692000	-10.996000	24.522579	0.001034	20.850679
834.220371	-2.992200	3.690100	-11.041000	24.481091	0.001035	20.865003
835.216949	-3.003000	3.690200	-11.079000	24.486240	0.001035	20.869694
836.220901	-2.988400	3.690800	-11.029000	24.498328	0.001035	20.856218
837.217785	-3.001200	3.689100	-11.070000	24.468430	0.001032	20.849930
838.218644	-2.980800	3.689300	-10.996000	24.472335	0.001032	20.839150
839.217750	-3.002400	3.688500	-11.073000	24.438779	0.001033	20.839150
840.220941	-2.991300	3.688600	-11.033000	24.438879	0.001033	20.853474
841.222984	-2.986100	3.688200	-11.012000	24.431690	0.001030	20.852900
842.224427	-2.992300	3.689400	-11.038000	24.440919	0.001031	20.844141
843.223166	-2.991600	3.688600	-11.034000	24.427586	0.001032	20.859687
844.223968	-2.983400	3.686400	-10.997000	24.434202	0.001032	20.840248
845.219705	-2.994400	3.686700	-11.039000	24.423307	0.001031	20.855869
846.224621	-2.983700	3.687400	-11.001000	24.422412	0.001029	20.831738
847.219931	-3.005700	3.685700	-11.077000	24.407436	0.001030	20.841370
848.222166	-2.979100	3.687200	-10.984000	24.426913	0.001027	20.832461
849.222877	-3.013700	3.685700	-11.106000	24.425695	0.001028	20.841195
850.223184	-2.989700	3.686000	-11.019000	24.459375	0.001029	20.826622
851.220446	-3.018000	3.684000	-11.117000	24.463654	0.001028	20.814319
852.222250	-2.979500	3.684800	-10.978000	24.474623	0.001028	20.824850
853.220237	-3.003500	3.683300	-11.061000	24.487010	0.001027	20.842967
854.223380	-2.988000	3.684500	-11.008000	24.504148	0.001030	20.827920
855.226904	-2.995800	3.684200	-11.036000	24.531235	0.001027	20.827595
856.220962	-3.008900	3.684300	-11.085000	24.525464	0.001029	20.856892
857.222071	-3.001300	3.684200	-11.055000	24.564887	0.001029	20.844764
858.221296	-3.001600	3.684900	-11.060000	24.569339	0.001029	20.844963
859.221257	-2.998900	3.684000	-11.046000	24.586998	0.001028	20.830440
860.226097	-2.978200	3.683800	-10.970000	24.577770	0.001026	20.839199
861.222401	-3.028900	3.682200	-11.152000	24.598189	0.001026	20.815117
862.224767	-3.004300	3.682000	-11.061000	24.577123	0.001025	20.814843
863.221536	-3.023700	3.681600	-11.131000	24.599334	0.001026	20.829541
864.222466	-3.011500	3.681000	-11.084000	24.570682	0.001027	20.835880
865.222683	-3.013900	3.681500	-11.094000	24.553247	0.001025	20.823602
866.223069	-2.988900	3.682200	-11.005000	24.540437	0.001025	20.824975
867.225905	-3.014400	3.681400	-11.096000	24.498302	0.001023	20.823951
868.225709	-2.998700	3.679900	-11.034000	24.507704	0.001026	20.815367
869.223456	-2.991800	3.681600	-11.014000	24.529443	0.001026	20.832436
870.229499	-3.003200	3.679800	-11.049000	24.547700	0.001026	20.825623
871.229440	-2.994300	3.679500	-11.017000	24.562697	0.001025	20.812222
872.225473	-3.028500	3.679500	-11.142000	24.552724	0.001020	20.823078
873.236430	-2.998100	3.680100	-11.032000	24.590405	0.001025	20.832910
874.226696	-3.000900	3.680100	-11.042000	24.605949	0.001023	20.838550
875.226186	-2.989200	3.681200	-11.001000	24.589684	0.001026	20.824126
876.229647	-3.010900	3.678300	-11.073000	24.592395	0.001023	20.823528
877.228412	-3.007700	3.678500	-11.063000	24.573393	0.001023	20.817738
878.225226	-2.989000	3.678300	-10.994000	24.603588	0.001024	20.810103
879.233273	-2.998900	3.677300	-11.027000	24.586003	0.001024	20.821856
880.227470	-3.021300	3.675800	-11.104000	24.592196	0.001024	20.829018
881.229234	-3.000100	3.678100	-11.034000	24.631368	0.001022	20.810477
882.229945	-3.024500	3.675900	-11.116000	24.587520	0.001023	20.793032
883.230923	-2.978200	3.677500	-10.951000	24.585656	0.001020	20.828619
884.230185	-3.002200	3.676400	-11.037000	24.565833	0.001021	20.809678
885.229691	-3.002100	3.677900	-11.041000	24.578394	0.001019	20.836031
886.233244	-3.008600	3.677000	-11.060000	24.580333	0.001020	20.806684
887.236643	-2.998400	3.675300	-11.018000	24.594014	0.001021	20.819936
888.231080	-3.015300	3.674100	-11.078000	24.597968	0.001022	20.801619
889.233345	-2.977400	3.676300	-10.944000	24.605280	0.001021	20.817964
890.230746	-3.004300	3.674900	-11.040000	24.585383	0.001019	20.803690
891.236067	-2.999000	3.675000	-11.020000	24.564143	0.001019	20.822682
892.231958	-2.988200	3.674800	-10.979000	24.528973	0.001018	20.815844
893.232594	-3.003900	3.673500	-11.034000	24.497310	0.001020	20.794981
894.233636	-2.988000	3.675200	-10.980000	24.472312	0.001019	20.819213
895.232045	-3.007800	3.673100	-11.048000	24.490943	0.001019	20.802817
896.235071	-3.002000	3.674300	-11.029000	24.513280	0.001017	20.809581
897.232759	-2.999800	3.671800	-11.014000	24.511140	0.001016	20.812650
898.235846	-2.981500	3.674400	-10.955000	24.506091	0.001021	20.810429
899.232475	-3.012500	3.672100	-11.061000	24.498207	0.001017	20.793510
900.232108	-3.019600	3.671500	-11.086000	24.468134	0.001019	20.810754
901.241197	-3.003100	3.672500	-11.028000	24.502187	0.001018	20.789917
902.232529	-3.003700	3.670600	-11.024000	24.513828	0.001016	20.815346
903.237440	-2.983300	3.673000	-10.957000	24.526115	0.001017	20.805864
904.238431	-3.014800	3.671000	-11.065000	24.532781	0.001015	20.787422
905.251122	-2.991800	3.671700	-10.984000	24.538154	0.001016	20.790442
906.237417	-2.972600	3.672500	-10.916000	24.520991	0.001014	20.810206
907.241260	-2.991700	3.671900	-10.984000	24.518555	0.001015	20.806813
908.235014	-3.006700	3.670400	-11.033000	24.525096	0.001014	20.799152
909.255254	-2.986400	3.669800	-10.958000	24.561386	0.001014	20.799053
910.232815	-3.007100	3.669000	-11.032000	24.565739	0.001014	20.804842
911.239954	-3.014400	3.669700	-11.060000	24.556810	0.001012	20.806315
912.239892	-2.988500	3.670100	-10.967000	24.510049	0.001013	20.783106
913.234416	-3.000300	3.669300	-11.009000	24.510944	0.001010	20.786375
914.238417	-2.988400	3.668600	-10.962000	24.505348	0.001013	20.789769
915.237324	-3.002500	3.667100	-11.009000	24.521218	0.001010	20.797157
916.235215	-3.009700	3.668000	-11.039000	24.515298	0.001011	20.810184
917.237439	-2.998200	3.668400	-10.997000	24.573972	0.001011	20.794137
918.237283	-3.000000	3.667600	-11.002000	24.573648	0.001010	20.809934
919.242122	-3.019300	3.667100	-11.070000	24.590910	0.001011	20.805916
920.235364	-3.007200	3.666600	-11.025000	24.583672	0.001010	20.786800
921.238865	-2.997100	3.666700	-10.989000	24.551737	0.001010	20.816872
922.235969	-2.990600	3.666800	-10.964000	24.536689	0.001010	20.776644
923.241706	-2.988900	3.666200	-10.956000	24.555815	0.001008	20.789670
924.238572	-3.001000	3.667400	-11.005000	24.576435	0.001007	20.785228
925.236619	-3.005800	3.665800	-11.018000	24.578623	0.001011	20.794062
926.237047	-3.006500	3.665600	-11.019000	24.568003	0.001004	20.790518
927.245765	-2.990700	3.665700	-10.962000	24.559596	0.001006	20.782084
928.239792	-3.005900	3.664400	-11.013000	24.565590	0.001004	20.780037
929.243328	-2.979100	3.664400	-10.916000	24.546738	0.001007	20.790993
930.244936	-2.968500	3.666200	-10.881000	24.532062	0.001005	20.783381
931.240503	-2.983600	3.665000	-10.934000	24.572952	0.001005	20.762294
932.245935	-2.999200	3.663800	-10.987000	24.567755	0.001007	20.759924
933.245306	-2.997500	3.664000	-10.981000	24.586756	0.001003	20.796532
934.243999	-3.002900	3.663800	-11.000000	24.596530	0.001006	20.803969
935.244718	-2.994400	3.663400	-10.968000	24.631449	0.001003	20.755081
936.248707	-3.008900	3.663200	-11.020000	24.629136	0.001003	20.775994
937.243822	-3.000400	3.663900	-10.992000	24.621376	0.001002	20.773898
938.246867	-2.999200	3.663200	-10.985000	24.578299	0.001002	20.779039
939.251390	-2.999300	3.661600	-10.982000	24.574692	0.001001	20.789170
940.245346	-2.998600	3.660900	-10.976000	24.568499	0.001001	20.760671
941.244773	-3.010500	3.661900	-11.022000	24.544299	0.001000	20.786175
942.248324	-3.001500	3.661300	-10.987000	24.553376	0.001001	20.758299
943.250957	-3.029400	3.660600	-11.088000	24.578572	0.001000	20.754656
944.247303	-3.003300	3.660600	-10.992000	24.602200	0.001000	20.753233
945.252546	-3.014300	3.659500	-11.030000	24.623240	0.001001	20.779561
946.250485	-3.004200	3.660100	-10.995000	24.621822	0.001002	20.757749
947.252367	-3.009100	3.658800	-11.008000	24.659351	0.000999	20.775493
948.248527	-3.019000	3.658600	-11.044000	24.669424	0.000997	20.781333
949.254428	-3.021800	3.659700	-11.058000	24.634679	0.001000	20.783453
950.251388	-2.984200	3.660100	-10.921000	24.633958	0.000997	20.775617
951.252532	-3.008600	3.660300	-11.010000	24.608665	0.000996	20.797179
952.253646	-2.983500	3.659600	-10.918000	24.577127	0.000998	20.768379
953.250820	-2.987900	3.658000	-10.929000	24.583071	0.000998	20.764386
954.254236	-3.027700	3.658300	-11.075000	24.554245	0.000998	20.767231
955.248448	-3.010800	3.658200	-11.012000	24.547678	0.000999	20.762539
956.248404	-3.002100	3.657600	-10.979000	24.528352	0.000996	20.769701
957.252094	-3.008100	3.657000	-10.999000	24.526139	0.000997	20.759420
958.246968	-3.004200	3.657700	-10.988000	24.539396	0.000994	20.768454
959.248074	-3.019600	3.655600	-11.037000	24.567302	0.000994	20.742873
960.256015	-2.984900	3.657700	-10.917000	24.593243	0.000994	20.777438
961.248293	-3.010500	3.656800	-11.007000	24.588891	0.000995	20.762165
962.254840	-3.018800	3.656200	-11.035000	24.597795	0.000994	20.762564
963.251707	-3.026700	3.655300	-11.061000	24.619508	0.000995	20.759220
964.247860	-2.997500	3.656500	-10.959000	24.618115	0.000991	20.753081
965.254404	-3.004100	3.654700	-10.978000	24.626720	0.000993	20.761716
966.258435	-2.997200	3.653800	-10.950000	24.655595	0.000992	20.758447
967.254516	-3.004900	3.655900	-10.985000	24.639951	0.000993	20.756974
968.260756	-2.991400	3.655800	-10.935000	24.689666	0.000994	20.765609
969.257551	-3.022700	3.652200	-11.038000	24.690362	0.000993	20.759670
970.260351	-2.997300	3.653100	-10.948000	24.690363	0.000991	20.759670
971.248690	-3.000300	3.652900	-10.959000	24.692875	0.000994	20.765510
972.259108	-2.988800	3.652300	-10.914000	24.664921	0.000993	20.782979
973.249662	-2.993600	3.652700	-10.933000	24.704240	0.000991	20.762216
974.264980	-2.976500	3.654000	-10.874000	24.696506	0.000991	20.765835
975.261660	-2.998400	3.653000	-10.952000	24.655895	0.000988	20.774396
976.250620	-2.984200	3.652100	-10.897000	24.653830	0.000992	20.770902
977.250832	-2.986700	3.653200	-10.909000	24.675890	0.000990	20.771226
978.258898	-3.005700	3.651000	-10.973000	24.665843	0.000991	20.743125
979.252862	-2.996600	3.650600	-10.939000	24.660770	0.000989	20.748466
980.254072	-2.984800	3.652500	-10.901000	24.686087	0.000991	20.743525
981.257440	-2.982900	3.651000	-10.890000	24.661392	0.000990	20.754307
982.260078	-2.987300	3.650300	-10.904000	24.668580	0.000989	20.752510
983.254922	-3.000300	3.649500	-10.949000	24.667709	0.000989	20.757327
984.256911	-3.000800	3.650200	-10.953000	24.673679	0.000986	20.759998
985.252705	-2.999300	3.649800	-10.945000	24.703273	0.000986	20.768833
986.256846	-2.981100	3.650100	-10.880000	24.724387	0.000987	20.767261
987.257958	-3.011500	3.649100	-10.987000	24.717772	0.000985	20.777693
988.254431	-2.991000	3.648500	-10.912000	24.691761	0.000985	20.777195
989.254460	-2.980800	3.649300	-10.877000	24.700738	0.000985	20.768660
990.254376	-3.014300	3.647200	-10.993000	24.683106	0.000987	20.768036
991.255878	-2.983800	3.648700	-10.886000	24.682684	0.000984	20.779466
992.254868	-3.023100	3.647200	-11.025000	24.656099	0.000983	20.757056
993.260483	-2.976500	3.648400	-10.858000	24.662391	0.000987	20.767638
994.256883	-2.997100	3.646600	-10.928000	24.660451	0.000979	20.760001
995.257981	-2.979600	3.648800	-10.870000	24.617426	0.000982	20.756183
996.259913	-2.987200	3.647500	-10.894000	24.597703	0.000983	20.764369
997.257578	-2.998600	3.647200	-10.935000	24.598102	0.000983	20.769036
998.260026	-2.998600	3.646300	-10.933000	24.616706	0.000980	20.779169
999.260260	-2.979200	3.646000	-10.862000	24.634612	0.000980	20.781015
1000.257521	-3.002300	3.646400	-10.946000	24.649809	0.000983	20.764969
1001.276763	-3.013300	3.644500	-10.981000	24.668785	0.000982	20.762674
1002.263330	-3.007800	3.645500	-10.964000	24.656797	0.000981	20.775301
1003.260479	-3.012400	3.643800	-10.975000	24.655530	0.000982	20.749373
1004.257608	-2.991200	3.644000	-10.899000	24.661174	0.000980	20.762624
1005.261673	-3.006300	3.645700	-10.959000	24.691192	0.000979	20.766193
1006.259757	-3.001400	3.645000	-10.938000	24.720762	0.000980	20.757458
1007.260130	-3.016700	3.642500	-10.987000	24.688805	0.000978	20.766642
1008.266842	-3.003500	3.644200	-10.945000	24.687065	0.000978	20.760154
1009.264766	-2.991300	3.644800	-10.901000	24.657022	0.000978	20.767940
1010.266788	-3.005100	3.643100	-10.946000	24.673212	0.000977	20.762375
1011.265652	-2.988100	3.644000	-10.888000	24.686741	0.000978	20.752717
1012.261076	-3.032800	3.641400	-11.042000	24.694203	0.000977	20.765895
1013.262260	-3.005800	3.642100	-10.947000	24.684677	0.000976	20.765345
1014.273695	-3.009200	3.642100	-10.959000	24.662120	0.000977	20.761202
1015.260431	-3.004100	3.641500	-10.938000	24.664608	0.000974	20.775552
1016.265878	-3.004700	3.640200	-10.936000	24.714520	0.000975	20.759256
1017.264218	-3.006400	3.641900	-10.947000	24.742994	0.000974	20.749897
1018.265677	-2.980700	3.642400	-10.856000	24.780668	0.000975	20.754988
1019.271056	-3.012600	3.641500	-10.968000	24.770051	0.000974	20.768989
1020.266828	-2.995100	3.640300	-10.902000	24.772189	0.000974	20.754065
1021.272658	-2.981400	3.641300	-10.855000	24.778680	0.000973	20.757734
1022.266902	-2.995000	3.639600	-10.899000	24.747172	0.000971	20.772582
1023.269091	-2.983500	3.640100	-10.860000	24.744685	0.000973	20.757758
1024.270113	-3.023200	3.639400	-11.001000	24.743665	0.000970	20.761477
1025.264107	-2.996900	3.639600	-10.907000	24.770771	0.000971	20.774928
1026.268294	-2.985500	3.640000	-10.865000	24.782558	0.000971	20.774903
1027.263783	-2.998400	3.638400	-10.908000	24.824632	0.000970	20.765918
1028.268950	-2.979200	3.639400	-10.842000	24.826994	0.000970	20.761177
1029.268431	-2.987700	3.638500	-10.869000	24.831147	0.000971	20.758706
1030.265879	-3.012800	3.638400	-10.961000	24.834703	0.000970	20.753740
1031.270746	-3.005500	3.636900	-10.930000	24.832887	0.000968	20.772781
1032.269934	-2.997400	3.637700	-10.903000	24.823910	0.000968	20.766617
1033.265996	-3.005600	3.636800	-10.930000	24.818017	0.000967	20.765918
1034.270499	-2.974000	3.637300	-10.816000	24.760923	0.000967	20.769786
1035.268064	-2.994300	3.635800	-10.886000	24.777708	0.000968	20.767191
1036.268059	-2.991700	3.636400	-10.879000	24.784049	0.000968	20.762174
1037.266503	-3.003400	3.635100	-10.917000	24.807623	0.000967	20.786781
1038.275700	-3.007500	3.635200	-10.933000	24.805932	0.000966	20.795041
1039.268565	-3.008300	3.634800	-10.933000	24.817246	0.000967	20.770360
1040.267914	-2.987700	3.635900	-10.862000	24.779772	0.000966	20.757882
1041.268586	-2.995200	3.633400	-10.881000	24.764529	0.000967	20.761551
1042.266225	-2.997900	3.635800	-10.899000	24.742794	0.000964	20.773404
1043.265194	-3.009800	3.634100	-10.937000	24.716110	0.000961	20.771757
1044.268186	-3.001200	3.634600	-10.907000	24.721383	0.000965	20.771833
1045.270801	-2.999400	3.633700	-10.897000	24.722476	0.000963	20.780991
1046.274838	-3.033600	3.631800	-11.016000	24.699821	0.000963	20.768688
1047.271435	-3.005400	3.632100	-10.914000	24.674330	0.000965	20.755436
1048.266733	-3.002700	3.632300	-10.906000	24.662915	0.000962	20.780492
1049.265988	-3.013600	3.631900	-10.944000	24.655056	0.000962	20.780192
1050.273828	-2.999500	3.631800	-10.892000	24.680373	0.000962	20.779518
1051.266722	-2.998800	3.631800	-10.890000	24.714892	0.000962	20.773854
1052.269194	-2.996800	3.632200	-10.884000	24.755276	0.000962	20.786405
1053.268899	-2.989000	3.631500	-10.854000	24.751249	0.000961	20.777148
1054.271929	-2.990400	3.631100	-10.857000	24.745031	0.000960	20.756683
1055.266989	-3.002500	3.630500	-10.899000	24.763457	0.000959	20.783235
1056.275534	-3.010300	3.631200	-10.929000	24.761369	0.000958	20.784459
1057.268226	-3.008600	3.628900	-10.917000	24.772907	0.000958	20.788926
1058.268109	-2.968800	3.629500	-10.774000	24.804837	0.000960	20.785408
1059.273200	-3.004200	3.627900	-10.898000	24.806950	0.000956	20.761450
1060.269064	-3.019900	3.627500	-10.953000	24.850764	0.000958	20.798783
1061.276979	-3.015400	3.629900	-10.945000	24.837113	0.000958	20.780341
1062.272845	-3.001400	3.630300	-10.894000	24.860188	0.000957	20.766041
1063.271450	-3.031800	3.627000	-10.994000	24.846910	0.000955	20.784484
1064.272191	-3.021900	3.627200	-10.959000	24.829603	0.000957	20.800779
1065.277484	-2.998700	3.627600	-10.877000	24.826221	0.000957	20.770832
1066.271347	-2.980200	3.628700	-10.814000	24.824406	0.000956	20.785132
1067.272272	-2.988400	3.627700	-10.840000	24.854195	0.000953	20.790373
1068.281255	-2.992200	3.627000	-10.852000	24.856632	0.000954	20.803250
1069.280639	-2.995300	3.628300	-10.867000	24.856333	0.000955	20.781139
1070.276931	-2.996100	3.626800	-10.864000	24.877743	0.000956	20.778444
1071.275947	-2.992300	3.628000	-10.854000	24.899349	0.000954	20.788750
1072.274824	-2.993100	3.626600	-10.852000	24.900120	0.000952	20.806120
1073.277606	-3.008000	3.626500	-10.907000	24.923543	0.000953	20.776997
1074.280163	-2.995100	3.625600	-10.858000	24.893233	0.000953	20.802526
1075.276452	-3.001300	3.625900	-10.881000	24.908301	0.000953	20.789674
1076.278560	-2.992800	3.625500	-10.849000	24.915636	0.000952	20.802252
1077.281730	-2.982300	3.624900	-10.810000	24.895098	0.000950	20.784958
1078.276829	-2.987300	3.624100	-10.825000	24.892338	0.000949	20.785033
1079.278923	-3.006600	3.624300	-10.896000	24.913696	0.000952	20.819745
1080.279590	-3.002400	3.624200	-10.881000	24.930779	0.000950	20.774303
1081.277827	-2.994400	3.623100	-10.848000	24.940301	0.000951	20.790024
1082.276885	-2.995800	3.625000	-10.859000	24.887440	0.000954	20.784858
1083.283203	-2.978500	3.624100	-10.793000	24.887341	0.000949	20.798036
1084.277981	-3.000000	3.622200	-10.863000	24.855613	0.000949	20.799857
1085.280340	-3.015400	3.620600	-10.916000	24.857155	0.000950	20.797611
1086.286014	-3.009500	3.622400	-10.899000	24.861556	0.000950	20.774053
1087.279760	-2.995900	3.621900	-10.850000	24.875605	0.000947	20.800007
1088.283718	-2.988000	3.622000	-10.821000	24.888882	0.000946	20.801005
1089.282974	-2.982900	3.621300	-10.801000	24.907904	0.000947	20.790225
1090.280278	-2.985600	3.621100	-10.810000	24.966656	0.000947	20.797511
1091.282466	-2.991700	3.621400	-10.833000	24.960863	0.000946	20.811137
1092.284890	-2.992000	3.620800	-10.832000	24.977099	0.000946	20.789975
1093.285747	-3.016500	3.619000	-10.916000	24.997113	0.000944	20.813383
1094.285096	-3.003700	3.618400	-10.868000	24.993309	0.000948	20.789651
1095.283472	-3.004400	3.618600	-10.871000	24.979883	0.000945	20.800830
1096.282736	-3.034700	3.619100	-10.981000	24.961535	0.000941	20.804699
1097.287932	-3.006100	3.619300	-10.878000	24.940525	0.000945	20.813008
1098.282028	-3.002800	3.617700	-10.862000	24.930927	0.000945	20.804324
1099.284834	-3.011800	3.617800	-10.895000	24.908252	0.000945	20.795315
1100.289767	-3.008700	3.618000	-10.885000	24.927148	0.000942	20.812384
1101.293058	-2.975500	3.620100	-10.770000	24.947114	0.000942	20.812983
1102.283676	-2.989400	3.617800	-10.814000	24.936421	0.000943	20.789449
1103.279141	-2.993400	3.616500	-10.824000	24.907431	0.000942	20.819147
1104.285306	-2.979600	3.617500	-10.778000	24.879905	0.000941	20.806220
1105.288252	-2.965000	3.618400	-10.726000	24.863345	0.000940	20.791022
1106.283280	-3.002600	3.617200	-10.860000	24.882317	0.000940	20.815753
1107.286985	-2.998400	3.617100	-10.845000	24.894302	0.000939	20.806918
1108.282655	-2.984000	3.616900	-10.792000	24.885002	0.000938	20.797584
1109.283420	-2.993300	3.616400	-10.824000	24.932095	0.000942	20.815453
1110.297474	-2.997500	3.615500	-10.837000	24.925481	0.000940	20.797908
1111.279783	-2.975400	3.616600	-10.760000	24.914914	0.000939	20.803424
1112.281235	-2.981300	3.615700	-10.778000	24.924412	0.000938	20.799207
1113.284360	-2.999800	3.615100	-10.844000	24.937862	0.000937	20.816974
1114.291352	-3.015500	3.614700	-10.899000	24.950741	0.000938	20.827056
1115.285614	-2.990900	3.614800	-10.809000	24.945221	0.000934	20.802075
1116.285913	-3.005300	3.614300	-10.861000	24.939005	0.000938	20.815750
1117.288649	-3.006500	3.612800	-10.861000	24.927070	0.000935	20.817521
1118.296896	-2.993900	3.613400	-10.817000	24.944326	0.000936	20.837685
1119.287931	-3.000700	3.612600	-10.840000	24.968467	0.000936	20.812131
1120.285448	-3.003300	3.613000	-10.850000	24.949770	0.000933	20.827029
1121.288482	-3.002000	3.612900	-10.845000	24.948774	0.000932	20.797107
1122.288899	-3.005300	3.613000	-10.857000	24.950142	0.000933	20.820290
1123.298503	-3.012300	3.612300	-10.881000	24.949271	0.000931	20.832218
1124.301259	-2.993500	3.611000	-10.809000	24.938406	0.000931	20.817045
1125.296486	-2.983800	3.610400	-10.772000	24.929205	0.000933	20.819190
1126.290080	-2.985100	3.612300	-10.782000	24.932237	0.000930	20.811803
1127.290593	-2.987700	3.611700	-10.790000	24.943302	0.000930	20.818641
1128.303481	-2.992300	3.610500	-10.802000	24.913589	0.000928	20.819638
1129.296794	-2.972900	3.612100	-10.736000	24.940516	0.000929	20.817741
1130.292914	-3.021100	3.608100	-10.899000	24.948323	0.000927	20.809455
1131.294346	-3.007600	3.608900	-10.853000	24.964533	0.000928	20.823355
1132.292079	-3.007900	3.609000	-10.854000	24.975621	0.000929	20.815519
1133.301759	-3.011400	3.609200	-10.867000	24.990215	0.000928	20.840123
1134.292763	-3.008400	3.607500	-10.852000	24.975968	0.000927	20.836255
1135.293987	-2.991700	3.608600	-10.795000	24.959609	0.000924	20.825999
1136.301791	-3.005100	3.606800	-10.838000	24.931960	0.000924	20.806308
1137.300394	-2.986700	3.607400	-10.771000	24.927011	0.000927	20.820781
1138.295762	-3.010300	3.607200	-10.858000	24.906822	0.000923	20.829441
1139.299688	-2.988700	3.607400	-10.779000	24.908015	0.000924	20.827793
1140.305838	-3.001100	3.607000	-10.824000	24.913335	0.000922	20.810848
1141.294978	-3.041700	3.603900	-10.961000	24.916542	0.000923	20.851050
1142.299933	-3.003900	3.606700	-10.832000	24.934294	0.000922	20.819083
1143.299209	-2.981300	3.607000	-10.753000	24.977804	0.000921	20.810597
1144.305389	-3.000100	3.605400	-10.815000	24.978773	0.000923	20.839070
1145.295444	-2.996200	3.605200	-10.799000	24.950727	0.000921	20.843162
1146.301052	-3.001000	3.606900	-10.823000	24.951074	0.000922	20.844459
1147.299891	-3.007200	3.606200	-10.843000	24.907314	0.000919	20.823297
1148.303545	-3.007700	3.605500	-10.844000	24.923972	0.000918	20.832904
1149.305849	-2.997600	3.604200	-10.803000	24.941650	0.000920	20.849698
1150.298081	-2.999400	3.603500	-10.807000	24.953659	0.000919	20.846104
1151.301638	-3.006600	3.602700	-10.829000	24.969495	0.000920	20.825017
1152.303023	-3.010300	3.603400	-10.846000	24.971907	0.000918	20.817954
1153.301334	-3.027800	3.601200	-10.902000	24.998484	0.000918	20.828983
1154.300042	-3.004700	3.601700	-10.822000	24.988414	0.000918	20.828359
1155.304918	-3.008100	3.601500	-10.833000	25.024463	0.000918	20.826137
1156.299123	-3.014300	3.601500	-10.855000	25.031125	0.000917	20.830454
1157.301421	-2.991200	3.601200	-10.771000	25.028987	0.000916	20.833997
1158.299798	-2.998000	3.601400	-10.794000	25.015561	0.000914	20.827159
1159.299032	-2.981300	3.600100	-10.731000	25.036669	0.000916	20.847397
1160.297996	-3.005200	3.601700	-10.823000	25.046463	0.000916	20.844427
1161.300900	-3.006100	3.599400	-10.819000	25.041689	0.000915	20.841057
1162.304927	-3.006400	3.599000	-10.819000	25.023017	0.000915	20.847918
1163.302745	-2.992300	3.599800	-10.771000	24.992063	0.000912	20.836289
1164.302250	-3.012000	3.597700	-10.835000	24.996290	0.000912	20.829152
1165.304606	-3.027100	3.598300	-10.892000	25.011778	0.000913	20.848017
1166.299471	-2.994700	3.599800	-10.779000	24.969934	0.000911	20.855802
1167.309167	-2.964800	3.600600	-10.674000	25.012423	0.000911	20.832544
1168.305326	-2.999700	3.598900	-10.795000	25.018539	0.000912	20.839156
1169.304329	-2.972700	3.598900	-10.697000	25.034624	0.000909	20.842974
1170.312141	-2.997500	3.598700	-10.785000	25.048048	0.000910	20.851708
1171.303730	-3.011700	3.597000	-10.832000	25.037357	0.000908	20.851408
1172.304564	-2.980600	3.597400	-10.722000	25.069775	0.000909	20.838905
1173.303970	-2.980800	3.597900	-10.724000	25.055679	0.000906	20.833290
1174.305266	-2.972700	3.597200	-10.692000	25.039593	0.000908	20.854600
1175.303469	-3.009400	3.595300	-10.818000	25.032110	0.000905	20.840451
1176.311216	-2.994300	3.595200	-10.764000	25.016198	0.000905	20.859091
1177.312475	-3.017900	3.594500	-10.847000	25.007819	0.000905	20.854000
1178.314391	-2.982200	3.596700	-10.726000	24.985740	0.000907	20.847960
1179.304372	-2.991900	3.596600	-10.760000	24.967243	0.000906	20.851678
1180.318135	-3.011100	3.594500	-10.822000	24.949763	0.000903	20.871591
1181.304465	-3.017600	3.594200	-10.845000	24.921816	0.000905	20.853973
1182.309536	-3.008900	3.593700	-10.812000	24.942329	0.000903	20.861284
1183.309049	-2.999600	3.593400	-10.776000	24.909558	0.000904	20.851626
1184.307819	-2.998500	3.593500	-10.773000	24.967936	0.000903	20.849055
1185.312142	-3.021600	3.593600	-10.856000	24.984445	0.000901	20.863254
1186.305328	-3.001300	3.594900	-10.788000	25.040284	0.000901	20.855293
1187.309083	-2.982300	3.592500	-10.712000	25.056741	0.000901	20.861856
1188.312279	-3.011300	3.592100	-10.816000	25.063776	0.000901	20.862753
1189.313062	-3.014900	3.592500	-10.830000	25.047989	0.000901	20.840269
1190.306595	-3.009800	3.591300	-10.808000	25.047666	0.000903	20.855591
1191.308943	-2.983600	3.592000	-10.716000	25.073073	0.000899	20.868766
1192.313133	-2.985000	3.589800	-10.715000	25.084831	0.000899	20.848802
1193.314078	-2.973900	3.591600	-10.680000	25.088485	0.000897	20.866694
1194.312441	-2.999700	3.589900	-10.767000	25.099050	0.000900	20.859282
1195.312962	-3.005100	3.589100	-10.785000	25.061113	0.000896	20.863399
1196.312074	-2.999700	3.589100	-10.764000	25.062877	0.000894	20.857110
1197.316481	-3.005400	3.589200	-10.786000	25.050621	0.000896	20.873255
1198.323075	-2.981400	3.589800	-10.702000	25.087488	0.000896	20.865693
1199.319810	-3.007700	3.588400	-10.791000	25.098426	0.000895	20.864819
1200.314126	-3.007700	3.588200	-10.791000	25.132557	0.000893	20.845978
1201.313812	-2.986600	3.588900	-10.717000	25.126690	0.000893	20.864269
1202.313359	-3.014700	3.587600	-10.814000	25.138523	0.000892	20.856234
1203.315516	-3.011400	3.587200	-10.801000	25.149062	0.000893	20.854486
1204.313768	-2.991000	3.587500	-10.729000	25.164897	0.000893	20.868011
1205.317517	-2.992400	3.587000	-10.733000	25.158656	0.000890	20.856531
1206.319256	-2.992100	3.587300	-10.732000	25.187492	0.000891	20.859875
1207.318723	-2.990600	3.586600	-10.725000	25.162782	0.000889	20.856406
1208.313474	-3.009100	3.585000	-10.787000	25.186471	0.000892	20.856006
1209.316144	-2.980800	3.587400	-10.692000	25.165963	0.000891	20.857229
1210.312764	-3.003800	3.586000	-10.770000	25.199471	0.000890	20.851988
1211.311796	-2.973200	3.584700	-10.657000	25.172078	0.000888	20.858151
1212.325838	-2.977900	3.587000	-10.681000	25.154030	0.000889	20.839085
1213.315874	-2.992600	3.584800	-10.726000	25.164420	0.000887	20.873222
1214.315774	-3.009200	3.582900	-10.781000	25.185922	0.000888	20.866834
1215.317114	-2.994200	3.583400	-10.727000	25.209213	0.000887	20.865561
1216.315073	-3.031700	3.584300	-10.865000	25.219902	0.000888	20.866334
1217.317014	-3.024500	3.582700	-10.835000	25.250823	0.000887	20.849964
1218.322664	-3.000900	3.583300	-10.753000	25.255794	0.000884	20.875342
1219.318682	-3.013900	3.581900	-10.794000	25.278015	0.000884	20.851660
1220.313439	-3.002400	3.582500	-10.755000	25.275703	0.000885	20.855029
1221.315908	-3.002500	3.581900	-10.754000	25.301080	0.000886	20.857749
1222.316760	-2.984500	3.581800	-10.689000	25.300484	0.000883	20.881330
1223.323068	-3.027600	3.581200	-10.841000	25.325512	0.000884	20.866158
1224.325563	-3.001600	3.580800	-10.748000	25.300185	0.000882	20.858272
1225.319673	-2.978500	3.581900	-10.668000	25.293424	0.000883	20.877088
1226.326763	-3.004800	3.580400	-10.758000	25.283731	0.000882	20.858347
1227.321217	-3.001300	3.581000	-10.747000	25.282339	0.000881	20.864536
1228.323201	-3.003900	3.580300	-10.754000	25.284675	0.000880	20.857873
1229.318316	-3.012900	3.579400	-10.784000	25.303317	0.000880	20.846718
1230.324072	-2.991300	3.580400	-10.709000	25.295761	0.000879	20.859046
1231.321157	-3.008000	3.580900	-10.770000	25.310748	0.000879	20.846120
1232.318999	-3.018000	3.578800	-10.799000	25.292952	0.000878	20.868079
1233.324050	-3.011000	3.577800	-10.772000	25.284129	0.000878	20.876763
1234.323602	-2.993900	3.578000	-10.712000	25.291039	0.000876	20.857624
1235.323455	-3.009300	3.576800	-10.762000	25.281594	0.000877	20.888916
1236.326319	-2.989600	3.577700	-10.695000	25.298371	0.000875	20.868304
1237.322639	-3.008400	3.578200	-10.764000	25.289498	0.000875	20.862241
1238.319344	-2.990200	3.577600	-10.697000	25.312961	0.000874	20.871574
1239.322299	-2.989900	3.577500	-10.696000	25.320045	0.000875	20.851187
1240.324110	-3.013000	3.576000	-10.774000	25.323003	0.000874	20.865061
1241.324522	-3.027800	3.575200	-10.825000	25.328347	0.000873	20.846246
1242.326711	-2.992900	3.575900	-10.701000	25.317735	0.000873	20.854556
1243.320662	-3.000800	3.574900	-10.726000	25.273443	0.000873	20.844700
1244.322661	-3.021000	3.574300	-10.797000	25.243268	0.000871	20.872249
1245.328607	-2.995300	3.573100	-10.701000	25.271754	0.000874	20.851538
1246.328981	-2.997000	3.574400	-10.711000	25.270163	0.000870	20.863691
1247.333052	-3.009400	3.574600	-10.756000	25.268324	0.000871	20.844776
1248.328072	-2.998900	3.573400	-10.715000	25.252690	0.000869	20.853261
1249.324115	-3.010100	3.574400	-10.759000	25.269643	0.000871	20.854634
1250.324172	-3.014700	3.572700	-10.769000	25.229202	0.000871	20.841534
1251.332421	-2.984900	3.574400	-10.668000	25.188685	0.000870	20.835944
1252.325621	-2.981900	3.574200	-10.657000	25.183292	0.000865	20.854236
1253.328047	-3.015100	3.573500	-10.774000	25.137106	0.000867	20.842009
1254.331241	-3.032500	3.570300	-10.826000	25.134272	0.000868	20.815458
1255.329755	-2.997800	3.571800	-10.706000	25.132682	0.000867	20.809594
1256.324967	-3.004100	3.572500	-10.729000	25.100415	0.000865	20.833626
1257.334281	-3.027200	3.569600	-10.805000	25.150457	0.000866	20.818904
1258.330431	-3.017500	3.570800	-10.774000	25.144020	0.000866	20.804381
1259.324966	-3.011200	3.569700	-10.748000	25.166467	0.000864	20.822649
1260.332111	-3.004500	3.570100	-10.725000	25.155456	0.000864	20.811120
1261.328840	-2.989000	3.570300	-10.670000	25.172137	0.000863	20.813167
1262.327460	-3.018300	3.568600	-10.770000	25.201395	0.000863	20.851548
1263.333786	-3.030300	3.567600	-10.810000	25.205547	0.000864	20.823475
1264.330540	-3.008500	3.568700	-10.736000	25.208854	0.000861	20.831062
1265.334378	-3.018000	3.567400	-10.766000	25.205798	0.000863	20.824201
1266.331975	-3.023600	3.567200	-10.785000	25.192300	0.000862	20.824401
1267.333569	-3.015600	3.567400	-10.757000	25.195458	0.000862	20.809080
1268.330266	-2.991300	3.568100	-10.673000	25.233764	0.000859	20.819562
1269.330345	-3.002700	3.568300	-10.713000	25.213183	0.000861	20.820711
1270.334714	-2.996800	3.567100	-10.689000	25.267049	0.000858	20.823108
1271.330834	-2.990700	3.566200	-10.665000	25.278235	0.000859	20.817743
1272.336707	-3.013100	3.566500	-10.746000	25.321236	0.000855	20.794062
1273.338091	-2.995200	3.566600	-10.681000	25.321361	0.000857	20.819318
1274.333454	-2.964400	3.567000	-10.572000	25.302671	0.000856	20.812881
1275.341724	-2.989300	3.566600	-10.661000	25.292979	0.000856	20.821167
1276.338996	-2.977500	3.566500	-10.617000	25.310354	0.000854	20.799257
1277.330685	-3.006400	3.565400	-10.718000	25.320123	0.000854	20.810963
1278.337798	-3.000700	3.564200	-10.694000	25.308716	0.000857	20.794294
1279.341278	-3.027600	3.562500	-10.785000	25.299645	0.000851	20.798463
1280.332599	-3.004100	3.564400	-10.707000	25.287964	0.000851	20.816132
1281.333855	-2.984300	3.564500	-10.637000	25.293782	0.000851	20.807749
1282.336276	-3.006800	3.564300	-10.716000	25.254437	0.000851	20.806178
1283.334140	-3.004300	3.564600	-10.708000	25.275343	0.000852	20.800615
1284.341669	-3.011100	3.562500	-10.726000	25.270100	0.000849	20.793929
1285.338304	-2.996700	3.563300	-10.677000	25.299704	0.000848	20.802315
1286.341854	-2.995700	3.562900	-10.672000	25.279399	0.000851	20.798524
1287.337649	-3.028000	3.562700	-10.785000	25.305400	0.000850	20.819887
1288.344946	-2.999700	3.563300	-10.688000	25.321781	0.000850	20.798403
1289.337253	-3.008300	3.561200	-10.713000	25.296232	0.000847	20.786501
1290.353380	-3.009000	3.560700	-10.714000	25.347584	0.000846	20.805819
1291.343978	-3.009400	3.561000	-10.716000	25.329543	0.000847	20.772531
1292.343872	-2.962700	3.562700	-10.554000	25.340455	0.000845	20.805299
1293.342675	-3.008900	3.559800	-10.710000	25.291368	0.000849	20.786833
1294.342774	-3.030300	3.558900	-10.784000	25.286922	0.000845	20.801335
1295.342100	-3.012600	3.558000	-10.718000	25.261199	0.000844	20.777879
1296.345882	-3.014800	3.558600	-10.727000	25.232366	0.000845	20.777381
1297.343202	-3.018800	3.558400	-10.741000	25.235128	0.000843	20.787266
1298.337914	-2.986500	3.560000	-10.630000	25.244973	0.000844	20.772021
1299.340670	-3.003900	3.558200	-10.687000	25.234013	0.000843	20.765284
1300.341611	-3.003600	3.557700	-10.685000	25.223054	0.000843	20.781309
1301.351542	-2.979000	3.558300	-10.599000	25.228550	0.000841	20.779240
1302.347114	-2.984500	3.557200	-10.615000	25.242796	0.000841	20.757506
1303.345994	-2.971100	3.557400	-10.569000	25.272053	0.000842	20.779768
1304.339395	-3.007300	3.555700	-10.691000	25.268377	0.000841	20.778448
1305.343023	-2.994300	3.556300	-10.647000	25.261495	0.000842	20.772961
1306.342703	-3.009500	3.554400	-10.696000	25.277107	0.000840	20.751177
1307.339130	-2.998500	3.555100	-10.659000	25.257101	0.000839	20.766179
1308.344582	-3.003000	3.555200	-10.675000	25.262970	0.000839	20.760217
1309.348959	-2.993400	3.556800	-10.646000	25.278209	0.000838	20.772198
1310.342344	-2.991600	3.553900	-10.630000	25.269562	0.000839	20.784380
1311.344671	-3.005700	3.552500	-10.676000	25.305481	0.000836	20.773976
1312.349017	-2.983100	3.555000	-10.604000	25.287638	0.000836	20.772182
1313.344195	-2.998000	3.552500	-10.649000	25.286125	0.000837	20.746481
1314.341541	-2.985900	3.552700	-10.606000	25.269922	0.000834	20.750601
1315.341525	-2.996000	3.553200	-10.645000	25.234977	0.000834	20.759139
1316.340674	-3.021800	3.551200	-10.730000	25.273805	0.000835	20.750707
1317.347379	-3.020100	3.551800	-10.726000	25.271398	0.000833	20.753505
1318.352742	-3.018700	3.551500	-10.720000	25.290216	0.000830	20.770977
1319.341623	-3.005500	3.550700	-10.671000	25.314900	0.000834	20.753561
1320.346686	-2.996000	3.552800	-10.643000	25.345001	0.000832	20.776672
1321.344512	-2.999200	3.551100	-10.650000	25.367423	0.000830	20.752719
1322.348142	-2.999300	3.551300	-10.650000	25.352165	0.000831	20.765848
1323.350010	-2.987600	3.551300	-10.609000	25.362359	0.000830	20.757117
1324.342410	-2.992800	3.550800	-10.626000	25.359280	0.000829	20.735533
1325.345461	-2.995100	3.550600	-10.634000	25.335572	0.000831	20.758670
1326.349215	-2.986100	3.549600	-10.598000	25.331525	0.000830	20.761245
1327.343998	-3.002300	3.548000	-10.651000	25.323650	0.000828	20.742905
1328.345108	-2.997800	3.548900	-10.637000	25.313761	0.000830	20.741985
1329.345326	-3.005400	3.548800	-10.665000	25.318288	0.000828	20.732305
1330.348418	-2.979600	3.550500	-10.578000	25.303502	0.000828	20.766773
1331.346394	-3.003500	3.548900	-10.658000	25.302364	0.000825	20.733387
1332.353330	-3.001100	3.548300	-10.647000	25.314718	0.000827	20.747214
1333.348458	-3.000100	3.547200	-10.641000	25.320537	0.000826	20.741677
1334.344315	-3.000800	3.547900	-10.646000	25.274535	0.000825	20.737214
1335.345968	-3.016800	3.545800	-10.696000	25.267257	0.000825	20.762624
1336.354580	-2.964400	3.548500	-10.517000	25.277550	0.000825	20.722222
1337.350832	-2.984500	3.547200	-10.586000	25.245836	0.000824	20.744911
1338.353910	-3.017600	3.547500	-10.703000	25.227646	0.000823	20.728070
1339.356824	-3.008300	3.545000	-10.663000	25.188300	0.000822	20.728872
1340.349670	-2.992900	3.547000	-10.615000	25.220194	0.000823	20.734814
1341.359868	-2.998400	3.547200	-10.635000	25.219825	0.000823	20.751513
1342.353892	-2.979400	3.545300	-10.561000	25.232906	0.000822	20.739515
1343.358454	-2.991500	3.546100	-10.607000	25.223785	0.000822	20.737471
1344.353096	-2.999400	3.543500	-10.628000	25.258315	0.000819	20.725670
1345.359126	-2.999500	3.544400	-10.630000	25.311111	0.000818	20.714667
1346.357153	-2.997200	3.543700	-10.620000	25.318247	0.000820	20.724678
1347.351222	-2.980100	3.545300	-10.565000	25.311814	0.000819	20.713002
1348.350070	-3.026700	3.542600	-10.721000	25.318306	0.000818	20.729478
1349.355657	-2.996500	3.543300	-10.616000	25.304516	0.000816	20.721322
1350.358763	-3.004900	3.543100	-10.645000	25.291793	0.000817	20.704753
1351.351644	-3.028400	3.541900	-10.725000	25.299426	0.000816	20.736127
1352.349139	-2.993200	3.541800	-10.601000	25.267019	0.000814	20.722555
1353.357645	-3.002100	3.542100	-10.633000	25.203813	0.000815	20.728798
1354.351703	-2.981200	3.542900	-10.560000	25.209757	0.000814	20.714377
1355.349283	-2.996700	3.542300	-10.614000	25.185649	0.000815	20.730003
1356.349632	-2.984300	3.542700	-10.572000	25.182146	0.000812	20.730754
1357.357261	-3.004700	3.539000	-10.631000	25.200646	0.000813	20.712816
1358.351174	-3.006800	3.539300	-10.641000	25.205073	0.000814	20.713468
1359.357835	-3.028600	3.539500	-10.719000	25.224194	0.000813	20.696153
1360.353691	-3.010600	3.540100	-10.656000	25.213285	0.000809	20.724083
1361.350372	-2.995900	3.539200	-10.600000	25.202128	0.000811	20.730901
1362.350752	-2.991900	3.539700	-10.589000	25.245484	0.000811	20.710891
1363.353852	-2.992200	3.538300	-10.587000	25.249763	0.000809	20.736999
1364.350441	-3.002700	3.539300	-10.626000	25.272882	0.000808	20.696672
1365.352796	-3.008100	3.538600	-10.643000	25.278257	0.000808	20.708233
1366.355801	-3.009100	3.537100	-10.642000	25.290291	0.000809	20.712729
1367.352684	-2.998000	3.538500	-10.607000	25.300288	0.000807	20.713758
1368.357398	-3.018400	3.536000	-10.672000	25.330266	0.000807	20.721098
1369.354413	-3.006900	3.536400	-10.632000	25.382886	0.000805	20.695221
1370.353703	-2.998600	3.536700	-10.605000	25.335794	0.000805	20.706259
1371.358183	-3.018600	3.535100	-10.669000	25.329137	0.000806	20.700048
1372.359886	-2.993800	3.535500	-10.583000	25.320318	0.000807	20.711583
1373.357276	-2.981800	3.536700	-10.543000	25.314458	0.000806	20.700483
1374.355390	-3.005800	3.535200	-10.625000	25.335513	0.000804	20.697915
1375.361020	-3.015700	3.533500	-10.656000	25.340513	0.000803	20.706730
1376.362281	-2.990400	3.532500	-10.562000	25.385307	0.000804	20.733217
1377.358006	-3.001600	3.534000	-10.606000	25.377953	0.000803	20.708287
1378.356616	-2.983200	3.534800	-10.544000	25.412902	0.000803	20.693593
1379.356703	-3.004500	3.532700	-10.613000	25.422570	0.000802	20.686231
1380.354070	-2.983600	3.533500	-10.541000	25.469425	0.000801	20.708153
1381.364705	-2.997300	3.533500	-10.590000	25.467787	0.000801	20.687067
1382.366716	-2.998100	3.533400	-10.592000	25.437994	0.000800	20.697927
1383.357895	-2.998100	3.532900	-10.591000	25.475178	0.000800	20.690696
1384.357298	-2.987500	3.532200	-10.551000	25.438303	0.000800	20.699185
1385.359962	-3.005800	3.531500	-10.613000	25.403911	0.000800	20.694048
1386.359482	-2.992600	3.531200	-10.567000	25.386768	0.000797	20.697698
1387.364454	-2.993300	3.531700	-10.571000	25.352748	0.000798	20.705264
1388.368404	-2.983800	3.532200	-10.538000	25.361551	0.000796	20.697507
1389.361202	-2.997700	3.529400	-10.579000	25.378060	0.000798	20.688952
1390.365873	-2.997600	3.529000	-10.578000	25.369042	0.000797	20.690329
1391.365862	-3.014500	3.528200	-10.635000	25.413285	0.000796	20.690184
1392.364657	-3.013500	3.529800	-10.635000	25.390848	0.000795	20.685198
1393.369441	-3.002700	3.528000	-10.592000	25.398407	0.000794	20.674295
1394.360570	-2.992000	3.528300	-10.556000	25.384072	0.000794	20.685980
1395.363534	-3.022100	3.528600	-10.662000	25.388748	0.000794	20.692573
1396.362499	-3.010000	3.528600	-10.618000	25.390099	0.000795	20.678281
1397.363947	-3.013500	3.527100	-10.627000	25.395842	0.000793	20.696377
1398.363905	-2.992700	3.527500	-10.555000	25.407158	0.000792	20.678815
1399.362684	-3.000700	3.527600	-10.585000	25.415287	0.000792	20.678443
1400.362834	-3.008700	3.526400	-10.608000	25.442529	0.000792	20.676401
1401.361786	-3.008800	3.525400	-10.606000	25.435527	0.000790	20.685492
1402.363760	-2.977600	3.526300	-10.499000	25.424572	0.000790	20.679706
1403.361700	-3.010600	3.525700	-10.614000	25.355611	0.000790	20.682059
1404.367013	-3.001600	3.525900	-10.583000	25.349328	0.000789	20.695666
1405.370673	-2.987100	3.525700	-10.531000	25.348262	0.000789	20.675627
1406.370802	-3.009100	3.525300	-10.607000	25.392309	0.000787	20.661058
1407.370126	-3.014400	3.522900	-10.618000	25.429221	0.000788	20.689117
1408.369075	-3.016500	3.523200	-10.625000	25.411533	0.000789	20.665189
1409.365987	-2.978100	3.525500	-10.498000	25.416732	0.000786	20.687956
1410.372305	-3.024500	3.522700	-10.653000	25.397253	0.000785	20.686413
1411.365598	-3.013100	3.522900	-10.613000	25.408268	0.000785	20.669972
1412.365736	-2.999900	3.522800	-10.568000	25.402881	0.000786	20.658397
1413.375815	-3.012800	3.522600	-10.612000	25.393394	0.000785	20.660725
1414.368692	-3.006900	3.522600	-10.591000	25.419992	0.000785	20.667520
1415.369313	-3.010300	3.521100	-10.598000	25.404812	0.000784	20.664604
1416.374789	-3.014900	3.521000	-10.614000	25.379372	0.000783	20.674147
1417.375337	-2.997300	3.521400	-10.553000	25.381463	0.000783	20.696638
1418.369703	-3.014600	3.519700	-10.609000	25.369168	0.000783	20.656313
1419.373251	-3.022800	3.518700	-10.635000	25.354039	0.000781	20.670521
1420.369580	-3.001700	3.519600	-10.565000	25.326209	0.000783	20.651585
1421.371900	-2.992400	3.519600	-10.531000	25.336430	0.000782	20.678445
1422.372232	-3.012700	3.518800	-10.599000	25.369094	0.000779	20.649600
1423.372213	-3.008300	3.519000	-10.585000	25.350015	0.000780	20.640399
1424.378885	-3.010400	3.519300	-10.593000	25.393911	0.000779	20.652234
1425.371122	-3.023100	3.516700	-10.630000	25.423692	0.000781	20.670760
1426.369782	-3.029500	3.516700	-10.651000	25.429417	0.000776	20.636676
1427.375323	-3.002200	3.518000	-10.560000	25.400766	0.000779	20.646315
1428.373062	-2.976800	3.519000	-10.474000	25.380545	0.000777	20.661574
1429.372758	-2.986600	3.516600	-10.501000	25.379905	0.000778	20.649550
1430.375486	-2.977800	3.516100	-10.469000	25.391421	0.000775	20.650682
1431.372442	-2.994000	3.515700	-10.525000	25.373086	0.000775	20.656929
1432.375891	-2.982300	3.515200	-10.482000	25.405827	0.000774	20.660407
1433.376362	-2.990500	3.515300	-10.511000	25.411226	0.000775	20.643542
1434.373151	-2.989300	3.514600	-10.505000	25.410015	0.000773	20.648490
1435.375877	-3.000100	3.515100	-10.544000	25.451353	0.000772	20.643532
1436.374468	-2.990500	3.514600	-10.510000	25.476984	0.000773	20.655048
1437.377386	-3.005800	3.513300	-10.559000	25.506486	0.000774	20.649586
1438.375434	-2.996600	3.512500	-10.524000	25.496804	0.000773	20.656458
1439.374709	-3.030600	3.512300	-10.643000	25.467641	0.000772	20.642819
1440.372432	-2.979900	3.512500	-10.466000	25.462376	0.000772	20.622355
1441.371133	-3.015600	3.512600	-10.591000	25.466485	0.000771	20.639760
1442.375302	-2.996800	3.512800	-10.525000	25.429415	0.000770	20.640943
1443.371803	-2.994600	3.511100	-10.513000	25.397114	0.000769	20.620832
1444.380411	-3.004300	3.512000	-10.550000	25.400207	0.000770	20.616352
1445.374760	-3.023000	3.509700	-10.609000	25.385025	0.000770	20.632404
1446.376279	-2.993300	3.511200	-10.508000	25.376484	0.000769	20.630939
1447.375454	-3.021800	3.510100	-10.606000	25.344458	0.000769	20.634819
1448.374801	-2.995200	3.510800	-10.514000	25.318990	0.000767	20.619677
1449.381787	-3.013800	3.509100	-10.574000	25.361126	0.000769	20.627846
1450.372940	-3.004600	3.510000	-10.546000	25.382038	0.000766	20.636517
1451.374680	-3.012000	3.508400	-10.566000	25.405728	0.000767	20.638968
1452.375846	-2.988200	3.509600	-10.486000	25.391172	0.000765	20.641896
1453.381324	-3.030100	3.507700	-10.627000	25.393918	0.000766	20.630901
1454.375222	-3.006300	3.508000	-10.544000	25.371109	0.000766	20.607047
1455.376201	-3.031200	3.507100	-10.629000	25.408471	0.000765	20.620858
1456.377969	-3.009400	3.508700	-10.558000	25.414319	0.000764	20.624834
1457.379267	-3.016700	3.506200	-10.576000	25.420689	0.000760	20.635498
1458.376402	-3.010000	3.506100	-10.552000	25.440678	0.000764	20.629965
1459.378478	-3.006700	3.506100	-10.540000	25.431388	0.000764	20.642924
1460.376015	-3.015600	3.505400	-10.570000	25.450062	0.000762	20.628483
1461.384644	-2.977700	3.506800	-10.441000	25.461254	0.000761	20.630239
1462.381072	-2.990100	3.505800	-10.481000	25.408178	0.000761	20.601593
1463.378665	-3.006000	3.506100	-10.537000	25.406196	0.000761	20.620943
1464.382772	-3.006800	3.504600	-10.536000	25.384486	0.000759	20.616213
1465.383127	-2.996600	3.505200	-10.502000	25.378029	0.000761	20.612574
1466.380930	-3.007700	3.504200	-10.539000	25.368992	0.000761	20.629106
1467.384129	-3.023800	3.504100	-10.594000	25.397108	0.000758	20.600910
1468.382918	-2.988600	3.504500	-10.472000	25.393713	0.000759	20.614098
1469.380479	-3.009800	3.503000	-10.543000	25.390263	0.000757	20.619643
1470.380124	-3.014200	3.502700	-10.557000	25.416814	0.000759	20.613112
1471.381985	-3.005100	3.502400	-10.524000	25.441871	0.000757	20.607452
1472.381340	-2.994200	3.503300	-10.489000	25.467128	0.000757	20.618118
1473.379803	-3.008100	3.502600	-10.535000	25.505879	0.000755	20.598708
1474.381112	-3.016300	3.503200	-10.565000	25.496565	0.000757	20.620653
1475.393267	-3.013900	3.500300	-10.548000	25.490955	0.000755	20.596523
1476.386429	-2.998000	3.501000	-10.494000	25.539973	0.000755	20.618251
1477.383824	-3.004200	3.500800	-10.517000	25.526333	0.000757	20.605499
1478.402482	-2.990600	3.500300	-10.467000	25.471248	0.000755	20.606606
1479.400595	-2.969300	3.502100	-10.397000	25.464767	0.000754	20.597251
1480.394308	-2.984600	3.499600	-10.444000	25.427023	0.000752	20.633324
1481.385706	-3.024900	3.498500	-10.582000	25.420715	0.000753	20.619401
1482.395922	-2.983200	3.499700	-10.440000	25.428502	0.000754	20.628170
1483.391646	-2.974600	3.499800	-10.409000	25.437751	0.000752	20.616119
1484.386707	-2.988300	3.498900	-10.454000	25.433835	0.000751	20.605072
1485.386215	-2.994100	3.496500	-10.468000	25.468279	0.000750	20.605048
1486.391095	-2.973500	3.499200	-10.403000	25.462873	0.000750	20.644669
1487.387496	-2.985000	3.498100	-10.442000	25.501196	0.000750	20.618664
1488.391593	-3.000200	3.495400	-10.486000	25.485226	0.000749	20.625387
1489.391119	-2.986300	3.498900	-10.446000	25.509985	0.000748	20.608049
1490.394705	-2.992300	3.495300	-10.458000	25.479273	0.000749	20.608976
1491.389839	-2.996200	3.495200	-10.472000	25.454554	0.000749	20.608809
1492.392303	-2.990000	3.496100	-10.452000	25.417529	0.000746	20.628531
1493.391065	-3.019700	3.494300	-10.551000	25.391117	0.000746	20.623820
1494.388231	-2.984600	3.495900	-10.433000	25.443787	0.000746	20.602264
1495.391383	-3.007100	3.493800	-10.505000	25.459182	0.000746	20.620570
1496.388708	-2.998900	3.493400	-10.476000	25.436869	0.000748	20.643686
1497.397102	-2.966400	3.495100	-10.366000	25.432305	0.000745	20.618711
1498.392778	-2.984600	3.495400	-10.431000	25.437330	0.000744	20.622335
1499.397059	-2.995600	3.493600	-10.465000	25.441413	0.000746	20.619797
1500.392740	-3.004900	3.493700	-10.497000	25.443161	0.000743	20.613490
1501.397948	-3.006800	3.492000	-10.499000	25.420259	0.000744	20.622737
1502.393480	-3.013700	3.491400	-10.521000	25.447226	0.000743	20.615202
1503.391947	-3.027400	3.490700	-10.567000	25.452529	0.000743	20.616734
1504.392992	-3.016200	3.489800	-10.525000	25.429198	0.000742	20.603735
1505.395901	-2.997800	3.490400	-10.463000	25.431566	0.000740	20.630298
1506.398157	-3.004000	3.489200	-10.481000	25.430082	0.000741	20.607468
1507.390719	-2.995200	3.491000	-10.453000	25.453677	0.000740	20.625000
1508.402868	-3.028400	3.489400	-10.566000	25.454578	0.000741	20.614998
1509.395878	-2.996200	3.488700	-10.452000	25.448944	0.000741	20.611710
1510.395331	-2.995200	3.490600	-10.454000	25.462024	0.000739	20.619156
1511.391583	-3.000300	3.488800	-10.466000	25.476270	0.000740	20.621609
1512.391844	-2.990800	3.488200	-10.432000	25.492954	0.000740	20.611809
1513.389589	-2.993600	3.487500	-10.439000	25.507203	0.000740	20.607626
1514.393332	-3.013300	3.486900	-10.506000	25.495107	0.000737	20.625352
1515.391543	-2.991800	3.486900	-10.431000	25.479310	0.000738	20.614229
1516.391925	-3.003900	3.487000	-10.473000	25.486646	0.000737	20.609742
1517.390286	-2.976600	3.487500	-10.379000	25.427557	0.000739	20.626747
1518.395532	-2.994600	3.486100	-10.438000	25.385837	0.000739	20.611879
1519.391979	-3.001300	3.486800	-10.464000	25.334224	0.000736	20.623593
1520.394269	-2.996300	3.484800	-10.441000	25.332462	0.000736	20.587679
1521.394363	-2.983100	3.486600	-10.398000	25.348205	0.000738	20.599694
1522.395367	-2.995600	3.484500	-10.437000	25.364616	0.000736	20.607640
1523.391858	-3.005800	3.484100	-10.472000	25.430334	0.000733	20.617680
1524.395438	-3.000800	3.483700	-10.453000	25.424699	0.000734	20.620083
1525.390532	-2.999100	3.484200	-10.448000	25.396896	0.000733	20.615397
1526.395321	-2.993500	3.483900	-10.428000	25.388999	0.000733	20.620271
1527.400452	-2.981200	3.482900	-10.382000	25.367781	0.000732	20.625993
1528.397605	-2.988100	3.482300	-10.405000	25.345615	0.000731	20.626970
1529.392478	-2.981700	3.484200	-10.387000	25.350517	0.000731	20.632842
1530.398795	-2.984500	3.482700	-10.392000	25.406989	0.000732	20.630750
1531.389886	-3.013200	3.481400	-10.490000	25.428964	0.000731	20.625789
1532.391396	-3.011100	3.480700	-10.479000	25.442932	0.000729	20.624168
1533.404564	-2.989800	3.480400	-10.405000	25.468149	0.000729	20.632895
1534.393044	-2.991100	3.481800	-10.414000	25.507039	0.000731	20.629275
1535.398725	-2.971500	3.480500	-10.342000	25.513977	0.000727	20.651893
1536.399392	-3.001100	3.479200	-10.440000	25.499027	0.000730	20.630712
1537.400694	-2.994400	3.477900	-10.414000	25.478329	0.000728	20.616564
1538.398859	-3.033700	3.477900	-10.549000	25.470979	0.000728	20.631944
1539.400234	-2.986100	3.479400	-10.389000	25.469249	0.000726	20.629733
1540.401592	-2.993000	3.479000	-10.412000	25.498598	0.000728	20.623642
1541.400759	-3.021000	3.477700	-10.505000	25.509366	0.000726	20.617386
1542.392691	-2.999200	3.478100	-10.431000	25.546944	0.000726	20.627150
1543.401841	-2.996000	3.477100	-10.416000	25.549637	0.000725	20.644081
1544.396600	-2.993900	3.476500	-10.406000	25.558512	0.000726	20.644934
1545.403206	-2.974700	3.477100	-10.342000	25.565323	0.000725	20.609569
1546.395586	-2.997100	3.476500	-10.419000	25.583469	0.000725	20.646764
1547.399886	-2.980500	3.477300	-10.362000	25.587648	0.000724	20.632941
1548.401359	-2.993600	3.475700	-10.402000	25.586440	0.000722	20.635996
1549.400824	-2.982000	3.475700	-10.364000	25.586341	0.000723	20.633526
1550.398468	-2.995600	3.473800	-10.405000	25.563461	0.000723	20.638523
1551.395070	-2.987900	3.475600	-10.384000	25.584690	0.000721	20.626176
1552.426993	-2.995700	3.474700	-10.408000	25.542423	0.000724	20.635413
1553.404263	-3.002700	3.472900	-10.427000	25.532660	0.000720	20.636040
1554.406779	-2.986100	3.473300	-10.370000	25.516688	0.000721	20.632328
1555.396903	-2.983800	3.472700	-10.361000	25.513292	0.000721	20.657844
1556.399543	-3.001800	3.472800	-10.423000	25.510311	0.000721	20.654850
1557.401464	-3.028300	3.470800	-10.509000	25.520082	0.000721	20.656128
1558.405019	-2.995900	3.472800	-10.403000	25.566508	0.000720	20.636367
1559.405687	-3.030100	3.470200	-10.514000	25.559208	0.000719	20.649426
1560.400799	-3.008700	3.471900	-10.444000	25.571762	0.000719	20.639748
1561.400843	-2.990800	3.471500	-10.382000	25.585831	0.000720	20.651982
1562.402853	-2.995800	3.470600	-10.396000	25.569261	0.000718	20.657153
1563.402085	-2.965400	3.471700	-10.293000	25.562729	0.000716	20.653437
1564.403430	-2.994200	3.471700	-10.394000	25.566785	0.000718	20.647078
1565.404903	-2.998500	3.469800	-10.404000	25.604358	0.000717	20.646406
1566.404466	-2.987800	3.470300	-10.367000	25.620935	0.000717	20.674438
1567.406897	-2.996500	3.469700	-10.396000	25.674663	0.000715	20.646842
1568.404333	-3.019900	3.467600	-10.471000	25.691386	0.000716	20.663642
1569.404670	-3.010700	3.469300	-10.443000	25.633574	0.000714	20.640186
1570.402832	-3.013700	3.468500	-10.452000	25.649551	0.000714	20.671884
1571.404677	-3.011400	3.467800	-10.441000	25.656214	0.000715	20.656763
1572.404754	-2.981400	3.467100	-10.336000	25.613880	0.000713	20.668774
1573.405875	-3.030900	3.466100	-10.504000	25.623178	0.000715	20.658197
1574.405449	-3.018000	3.466600	-10.461000	25.580142	0.000713	20.664762
1575.407857	-3.006100	3.466000	-10.418000	25.549905	0.000712	20.649566
1576.409235	-2.977800	3.466400	-10.321000	25.532365	0.000712	20.663722
1577.406096	-2.978700	3.466700	-10.325000	25.519001	0.000712	20.652197
1578.407567	-2.976200	3.465800	-10.315000	25.503469	0.000712	20.677379
1579.407720	-3.004400	3.464700	-10.409000	25.520298	0.000710	20.655870
1580.410025	-2.999200	3.463900	-10.388000	25.506384	0.000709	20.666080
1581.405679	-2.991300	3.464100	-10.362000	25.491102	0.000710	20.666855
1582.406463	-2.989800	3.465100	-10.357000	25.489070	0.000712	20.674298
1583.413257	-3.007500	3.464100	-10.418000	25.510744	0.000709	20.669511
1584.409326	-3.026200	3.461800	-10.474000	25.551221	0.000709	20.689299
1585.410789	-2.997600	3.462800	-10.378000	25.566165	0.000707	20.669692
1586.412003	-2.964500	3.463100	-10.265000	25.553171	0.000707	20.669444
1587.409550	-2.997000	3.459600	-10.367000	25.504885	0.000705	20.662678
1588.409333	-3.028100	3.460800	-10.477000	25.484861	0.000706	20.680029
1589.417985	-3.029900	3.459900	-10.482000	25.437795	0.000707	20.674491
1590.411880	-3.015100	3.460200	-10.432000	25.445900	0.000707	20.677889
1591.413815	-3.015000	3.460000	-10.431000	25.453705	0.000707	20.673398
1592.411756	-3.006900	3.461000	-10.406000	25.486137	0.000706	20.676095
1593.410522	-3.008600	3.459200	-10.406000	25.506173	0.000705	20.681517
1594.410530	-3.025000	3.458800	-10.462000	25.526504	0.000705	20.673010
1595.413412	-2.968600	3.460100	-10.271000	25.561397	0.000703	20.697149
1596.412228	-2.994300	3.456800	-10.350000	25.568705	0.000704	20.696427
1597.417387	-2.976800	3.459100	-10.295000	25.535438	0.000703	20.682931
1598.414551	-3.001900	3.457800	-10.379000	25.512331	0.000703	20.652136
1599.412118	-3.000200	3.458000	-10.374000	25.507938	0.000703	20.673805
1600.420145	-2.988200	3.458400	-10.334000	25.468202	0.000701	20.676102
1601.416714	-2.969800	3.457800	-10.269000	25.476976	0.000701	20.684914
1602.417675	-2.994800	3.458100	-10.354000	25.519947	0.000700	20.670692
1603.417844	-2.993600	3.456900	-10.348000	25.514486	0.000702	20.706463
1604.415717	-3.011100	3.454700	-10.401000	25.544358	0.000700	20.684303
1605.415663	-3.012900	3.455800	-10.411000	25.509251	0.000700	20.684608
1606.414779	-3.001300	3.453600	-10.364000	25.529007	0.000698	20.687379
1607.418096	-2.998300	3.455000	-10.358000	25.521757	0.000699	20.696694
1608.414571	-2.994800	3.454600	-10.345000	25.519745	0.000698	20.687086
1609.415017	-2.989800	3.455300	-10.330000	25.526408	0.000699	20.670069
1610.419046	-3.013900	3.452600	-10.404000	25.526039	0.000698	20.675862
1611.416059	-3.002200	3.452600	-10.365000	25.560858	0.000696	20.693762
1612.429201	-3.013500	3.453200	-10.404000	25.567567	0.000699	20.703345
1613.423170	-3.015200	3.452100	-10.408000	25.580392	0.000696	20.690620
1614.416134	-3.003700	3.452700	-10.369000	25.594042	0.000696	20.696743
1615.419229	-2.985300	3.451500	-10.302000	25.591132	0.000695	20.697139
1616.420046	-2.998100	3.450500	-10.344000	25.607286	0.000695	20.709571
1617.423076	-2.991100	3.450800	-10.321000	25.646972	0.000694	20.697745
1618.419443	-2.998500	3.450400	-10.344000	25.659919	0.000695	20.699844
1619.426091	-3.010100	3.451100	-10.387000	25.673659	0.000695	20.691358
1620.418694	-3.006800	3.449600	-10.372000	25.660995	0.000695	20.698553
1621.423707	-3.019300	3.449000	-10.412000	25.690042	0.000693	20.716350
1622.422603	-3.021800	3.447600	-10.417000	25.692727	0.000693	20.716675
1623.425558	-2.989500	3.448700	-10.308000	25.673125	0.000693	20.706944
1624.422629	-3.004200	3.448700	-10.359000	25.669677	0.000693	20.721500
1625.426123	-2.983700	3.447900	-10.286000	25.641351	0.000689	20.711068
1626.424963	-3.015700	3.447400	-10.394000	25.613481	0.000691	20.705835
1627.424170	-2.988000	3.447900	-10.302000	25.586270	0.000691	20.687040
1628.431262	-3.013300	3.448100	-10.389000	25.530489	0.000691	20.719215
1629.426903	-2.997100	3.448300	-10.334000	25.501145	0.000690	20.703971
1630.423398	-3.003600	3.446000	-10.349000	25.511139	0.000689	20.718275
1631.430397	-2.996400	3.445600	-10.323000	25.516033	0.000689	20.719397
1632.424638	-3.004400	3.446700	-10.354000	25.543249	0.000689	20.710692
1633.425465	-2.995800	3.446700	-10.325000	25.532817	0.000690	20.708276
1634.434350	-3.022500	3.444700	-10.411000	25.494006	0.000687	20.716717
1635.427255	-2.979700	3.444500	-10.263000	25.531429	0.000685	20.715418
1636.425792	-2.981800	3.445100	-10.271000	25.550044	0.000686	20.719413
1637.427650	-3.002500	3.444400	-10.340000	25.534590	0.000686	20.704367
1638.427292	-2.971700	3.444200	-10.234000	25.567890	0.000685	20.719318
1639.428937	-2.986900	3.444300	-10.286000	25.554568	0.000686	20.749089
1640.433171	-3.001000	3.443100	-10.332000	25.523513	0.000685	20.706519
1641.429918	-3.000700	3.443300	-10.331000	25.511237	0.000687	20.729755
1642.427421	-3.008000	3.441800	-10.352000	25.476420	0.000684	20.718024
1643.431238	-3.001900	3.442100	-10.332000	25.490417	0.000684	20.731606
1644.427659	-2.998500	3.442800	-10.322000	25.504730	0.000685	20.733177
1645.431019	-3.006000	3.441000	-10.343000	25.549145	0.000685	20.724675
1646.432325	-2.991500	3.441100	-10.293000	25.561991	0.000683	20.735680
1647.428819	-2.996200	3.441500	-10.310000	25.591562	0.000684	20.718436
1648.429088	-3.011500	3.441400	-10.363000	25.599642	0.000681	20.727499
1649.436636	-2.998600	3.440800	-10.317000	25.596735	0.000682	20.725054
1650.434884	-2.971500	3.440100	-10.222000	25.592634	0.000681	20.747963
1651.430227	-3.002700	3.438400	-10.323000	25.578869	0.000681	20.736509
1652.435776	-2.998400	3.438400	-10.308000	25.594453	0.000680	20.741255
1653.427395	-3.018800	3.437500	-10.375000	25.607578	0.000679	20.730254
1654.429117	-3.016500	3.439600	-10.375000	25.602109	0.000679	20.747522
1655.433496	-3.006800	3.437400	-10.334000	25.604671	0.000679	20.728283
1656.427926	-3.011700	3.437100	-10.351000	25.575748	0.000678	20.738591
1657.431542	-2.993200	3.437300	-10.287000	25.618592	0.000676	20.734678
1658.432619	-2.992700	3.436800	-10.285000	25.608481	0.000677	20.747283
1659.435604	-2.995300	3.436400	-10.292000	25.647842	0.000679	20.748883
1660.433871	-2.986700	3.437300	-10.265000	25.637854	0.000679	20.731738
1661.438039	-3.006700	3.435000	-10.327000	25.671258	0.000677	20.724510
1662.435028	-2.979900	3.436600	-10.240000	25.686931	0.000674	20.755901
1663.434295	-2.989900	3.436000	-10.272000	25.673495	0.000675	20.763743
1664.437735	-3.013900	3.434500	-10.351000	25.645892	0.000677	20.746450
1665.433747	-3.009400	3.435300	-10.337000	25.606884	0.000673	20.756585
1666.432399	-3.014600	3.434300	-10.352000	25.610788	0.000675	20.742488
1667.441056	-3.017800	3.431800	-10.355000	25.614467	0.000676	20.759933
1668.437103	-3.000800	3.432800	-10.300000	25.615789	0.000676	20.752252
1669.433308	-3.005600	3.434500	-10.321000	25.596806	0.000672	20.761162
1670.439728	-3.006900	3.432600	-10.321000	25.610698	0.000673	20.769899
1671.438039	-3.006600	3.432100	-10.317000	25.619147	0.000673	20.745667
1672.446183	-2.994600	3.431800	-10.276000	25.635556	0.000673	20.764045
1673.438031	-3.022000	3.431700	-10.369000	25.633668	0.000671	20.755035
1674.438119	-2.990800	3.431300	-10.261000	25.645445	0.000671	20.758804
1675.435648	-2.996300	3.430700	-10.279000	25.624456	0.000670	20.769017
1676.442539	-2.994500	3.430200	-10.271000	25.657654	0.000669	20.773912
1677.440156	-2.989600	3.430800	-10.256000	25.662577	0.000670	20.756570
1678.444320	-3.008700	3.430900	-10.321000	25.676242	0.000669	20.764606
1679.439108	-3.010300	3.428900	-10.319000	25.633089	0.000672	20.759196
1680.441787	-3.005700	3.429400	-10.306000	25.601089	0.000669	20.764041
1681.439530	-2.996100	3.428500	-10.270000	25.577807	0.000667	20.767686
1682.446289	-3.011800	3.427900	-10.323000	25.580816	0.000668	20.766441
1683.439982	-2.983500	3.427600	-10.225000	25.602263	0.000668	20.764272
1684.443832	-3.001100	3.427600	-10.286000	25.605720	0.000670	20.773434
1685.444124	-3.002600	3.429300	-10.295000	25.615191	0.000667	20.771566
1686.444391	-2.985400	3.426900	-10.229000	25.655221	0.000666	20.767674
1687.441674	-3.003600	3.427900	-10.294000	25.658649	0.000667	20.758314
1688.444702	-2.993000	3.426700	-10.255000	25.712195	0.000665	20.757094
1689.442636	-3.000800	3.426600	-10.281000	25.712150	0.000666	20.771274
1690.441150	-2.987600	3.427100	-10.237000	25.719810	0.000665	20.766640
1691.443525	-3.009700	3.425500	-10.309000	25.743089	0.000664	20.789548
1692.439955	-2.998600	3.426400	-10.273000	25.759315	0.000665	20.783561
1693.439763	-2.990400	3.425900	-10.242000	25.722893	0.000662	20.795341
1694.442003	-2.989800	3.424800	-10.238000	25.713279	0.000662	20.782840
1695.442460	-2.999000	3.425200	-10.271000	25.711321	0.000662	20.785615
1696.443487	-3.027800	3.423300	-10.365000	25.716617	0.000662	20.787615
1697.447818	-2.968300	3.425200	-10.166000	25.718682	0.000661	20.783999
1698.445194	-2.991300	3.423900	-10.241000	25.719277	0.000662	20.783648
1699.444038	-2.985600	3.424200	-10.222000	25.725964	0.000662	20.787520
1700.448188	-2.995200	3.422300	-10.250000	25.713222	0.000661	20.797956
1701.445793	-2.982700	3.422300	-10.207000	25.702611	0.000659	20.793461
1702.446630	-3.001800	3.421300	-10.269000	25.687587	0.000658	20.797338
1703.451241	-2.994800	3.420400	-10.243000	25.616818	0.000659	20.794538
1704.447486	-3.012000	3.420500	-10.302000	25.601916	0.000661	20.774830
1705.446646	-3.007300	3.420300	-10.284000	25.582559	0.000660	20.801382
1706.449790	-2.997700	3.419900	-10.250000	25.611313	0.000657	20.807501
1707.446554	-2.993500	3.419100	-10.235000	25.637677	0.000659	20.780400
1708.450903	-3.005300	3.419100	-10.274000	25.618818	0.000658	20.789908
1709.452537	-3.001900	3.419500	-10.264000	25.651151	0.000656	20.796777
1710.452452	-3.006500	3.418000	-10.275000	25.692173	0.000656	20.805737
1711.448680	-3.020200	3.418500	-10.324000	25.708671	0.000656	20.799074
1712.453271	-2.991500	3.419700	-10.228000	25.709143	0.000657	20.814721
1713.451319	-3.008400	3.417900	-10.281000	25.707530	0.000656	20.796031
1714.450440	-3.011300	3.417200	-10.289000	25.717296	0.000652	20.813901
1715.452479	-3.010900	3.417600	-10.289000	25.705400	0.000656	20.787728
1716.451777	-3.008700	3.416000	-10.277000	25.715087	0.000655	20.823062
1717.451473	-2.999800	3.418000	-10.253000	25.721278	0.000655	20.796089
1718.454390	-3.012900	3.414700	-10.287000	25.717296	0.000652	20.796831
1719.454454	-2.996000	3.417600	-10.238000	25.712678	0.000651	20.792667
1720.455028	-2.997400	3.415500	-10.237000	25.722821	0.000651	20.822296
1721.458043	-3.006700	3.414400	-10.265000	25.742746	0.000651	20.810067
1722.458553	-3.004200	3.414700	-10.258000	25.721031	0.000651	20.815756
1723.456824	-3.004400	3.413800	-10.256000	25.747241	0.000651	20.812210
1724.457411	-2.997400	3.413400	-10.230000	25.746346	0.000650	20.790449
1725.458353	-3.026200	3.412000	-10.324000	25.727965	0.000650	20.805651
1726.456275	-3.016700	3.412400	-10.292000	25.748312	0.000650	20.817080
1727.460104	-2.993200	3.412900	-10.214000	25.758000	0.000650	20.809267
1728.457763	-2.992400	3.413000	-10.212000	25.783170	0.000648	20.814161
1729.454908	-3.015000	3.411400	-10.283000	25.792188	0.000650	20.806624
1730.457318	-3.011900	3.411000	-10.273000	25.778646	0.000647	20.821471
1731.457835	-3.017300	3.411500	-10.292000	25.805852	0.000649	20.813237
1732.457367	-3.017400	3.411900	-10.294000	25.817107	0.000648	20.809370
1733.456932	-2.993300	3.410600	-10.207000	25.797035	0.000648	20.809123
1734.459826	-3.010400	3.409600	-10.263000	25.807046	0.000648	20.806851
1735.458463	-3.018100	3.409900	-10.291000	25.785456	0.000648	20.798914
1736.460690	-3.005000	3.410400	-10.247000	25.792664	0.000647	20.799990
1737.459108	-2.995000	3.409200	-10.209000	25.809205	0.000646	20.805226
1738.460451	-2.995100	3.408900	-10.209000	25.819590	0.000648	20.803330
1739.459243	-3.011900	3.408300	-10.265000	25.810921	0.000647	20.799363
1740.461377	-3.004500	3.407700	-10.237000	25.770027	0.000643	20.804278
1741.461499	-2.990000	3.409600	-10.193000	25.743223	0.000643	20.811493
1742.462240	-3.012700	3.407000	-10.263000	25.729114	0.000644	20.797323
1743.471543	-3.002200	3.408500	-10.232000	25.724915	0.000642	20.804010
1744.461586	-3.007300	3.406900	-10.245000	25.732792	0.000643	20.777783
1745.460719	-2.998900	3.407500	-10.218000	25.725038	0.000641	20.776159
1746.461428	-2.980200	3.407900	-10.154000	25.700195	0.000642	20.792932
1747.458442	-2.993500	3.406900	-10.197000	25.721910	0.000643	20.773491
1748.459871	-2.988900	3.407000	-10.183000	25.749511	0.000644	20.778930
1749.466355	-3.012200	3.405200	-10.256000	25.738010	0.000640	20.794878
1750.457713	-3.004000	3.405300	-10.228000	25.729915	0.000638	20.795282
1751.463480	-2.976600	3.405800	-10.136000	25.724817	0.000639	20.789213
1752.460819	-3.015500	3.403800	-10.264000	25.708048	0.000641	20.798923
1753.457992	-3.002500	3.404600	-10.221000	25.750558	0.000639	20.793258
1754.469207	-2.995500	3.405400	-10.198000	25.713516	0.000639	20.792561
1755.459644	-2.994000	3.403800	-10.190000	25.704149	0.000637	20.794532
1756.459124	-3.002800	3.405100	-10.224000	25.647425	0.000638	20.782129
1757.461652	-3.001600	3.403600	-10.214000	25.630704	0.000638	20.789518
1758.464621	-2.984300	3.402600	-10.154000	25.598802	0.000636	20.769331
1759.462901	-2.965500	3.404100	-10.094000	25.585829	0.000636	20.804192
1760.463625	-2.983500	3.402500	-10.150000	25.569826	0.000637	20.774370
1761.465607	-3.005800	3.401800	-10.225000	25.586326	0.000637	20.777190
1762.461877	-2.971800	3.403000	-10.112000	25.574675	0.000634	20.763118
1763.467985	-2.999700	3.400300	-10.199000	25.604792	0.000637	20.777718
1764.461942	-3.027300	3.400400	-10.292000	25.623951	0.000635	20.768037
1765.464724	-2.994100	3.400000	-10.179000	25.639408	0.000632	20.784983
1766.466575	-3.008900	3.400300	-10.229000	25.636177	0.000634	20.778419
1767.464726	-3.011500	3.398900	-10.235000	25.614711	0.000633	20.771558
1768.466097	-3.000500	3.399800	-10.200000	25.586536	0.000631	20.751796
1769.469063	-2.984700	3.400100	-10.147000	25.596273	0.000632	20.783862
1770.466282	-2.976300	3.399300	-10.115000	25.558975	0.000630	20.784810
1771.465281	-3.021100	3.398600	-10.266000	25.548420	0.000633	20.779425
1772.469692	-3.003500	3.398400	-10.205000	25.523392	0.000631	20.783214
1773.467010	-3.006900	3.397800	-10.216000	25.571875	0.000630	20.782592
1774.468303	-2.998100	3.397100	-10.184000	25.572848	0.000631	20.769819
1775.467483	-3.009700	3.398100	-10.226000	25.612010	0.000627	20.782122
1776.468008	-2.974300	3.397500	-10.104000	25.574540	0.000628	20.772940
1777.468617	-2.978800	3.398000	-10.121000	25.586441	0.000626	20.778729
1778.468083	-2.968500	3.397600	-10.084000	25.600088	0.000627	20.779632
1779.468772	-2.997400	3.396600	-10.180000	25.604111	0.000625	20.763758
1780.466330	-2.984300	3.396300	-10.134000	25.636411	0.000626	20.772965
1781.470480	-2.991400	3.396400	-10.158000	25.673785	0.000625	20.769250
1782.471983	-2.985300	3.395500	-10.136000	25.655846	0.000623	20.763086
1783.468172	-2.998300	3.395500	-10.180000	25.659898	0.000626	20.760991
1784.473067	-3.008900	3.395400	-10.214000	25.613332	0.000625	20.755474
1785.471938	-2.991900	3.394300	-10.154000	25.564900	0.000623	20.765630
1786.473432	-3.013900	3.392900	-10.225000	25.584040	0.000623	20.750238
1787.471564	-2.993500	3.393900	-10.158000	25.574696	0.000624	20.767881
1788.473680	-3.004900	3.392200	-10.192000	25.607740	0.000623	20.769774
1789.474327	-3.000200	3.394200	-10.182000	25.652147	0.000622	20.775967
1790.476039	-3.026000	3.390900	-10.260000	25.673096	0.000623	20.752436
1791.474445	-3.003500	3.391100	-10.184000	25.691999	0.000621	20.755775
1792.480321	-2.993600	3.390700	-10.149000	25.722782	0.000620	20.754452
1793.489750	-3.004000	3.391500	-10.187000	25.689963	0.000622	20.760843
1794.475632	-2.990800	3.391000	-10.141000	25.686433	0.000620	20.753029
1795.471844	-2.983200	3.391500	-10.116000	25.654754	0.000618	20.767205
1796.476639	-3.003900	3.391000	-10.186000	25.662804	0.000619	20.769126
1797.476266	-3.010900	3.390100	-10.206000	25.693760	0.000619	20.762286
1798.475004	-3.013300	3.390200	-10.214000	25.681933	0.000619	20.742346
1799.479426	-3.014300	3.389500	-10.215000	25.706600	0.000617	20.759061
1800.477894	-3.018900	3.388800	-10.229000	25.716115	0.000617	20.743488
1801.476204	-2.997400	3.390000	-10.160000	25.733463	0.000617	20.749533
1802.478286	-2.994900	3.389000	-10.148000	25.723073	0.000616	20.744312
1803.476478	-3.015200	3.388500	-10.216000	25.757283	0.000615	20.759234
1804.480639	-3.030700	3.387200	-10.265000	25.782970	0.000616	20.757061
1805.479499	-3.001000	3.386200	-10.162000	25.820486	0.000615	20.758711
1806.476960	-3.007400	3.387300	-10.185000	25.811493	0.000616	20.752522
1807.477956	-3.006400	3.385600	-10.178000	25.799869	0.000614	20.752699
1808.486727	-3.012500	3.386800	-10.202000	25.793429	0.000612	20.759032
1809.478219	-3.021600	3.385200	-10.228000	25.777851	0.000612	20.755239
1810.476878	-3.017900	3.385900	-10.217000	25.756958	0.000612	20.743735
1811.478815	-2.981000	3.385600	-10.092000	25.746824	0.000613	20.747306
1812.480217	-3.009400	3.383500	-10.181000	25.720339	0.000613	20.745834
1813.476951	-3.002300	3.384900	-10.161000	25.698246	0.000613	20.755886
1814.480799	-2.985500	3.385400	-10.106000	25.724239	0.000611	20.748328
1815.478253	-2.999800	3.383900	-10.149000	25.721977	0.000609	20.759807
1816.478240	-2.992900	3.384900	-10.129000	25.722104	0.000610	20.745710
1817.481499	-3.006400	3.384300	-10.174000	25.727966	0.000607	20.752072
1818.479126	-2.983800	3.382700	-10.092000	25.733134	0.000608	20.759634
1819.479977	-2.986200	3.384300	-10.105000	25.764569	0.000608	20.752328
1820.482252	-2.991900	3.383700	-10.123000	25.805858	0.000609	20.744016
1821.482462	-3.016000	3.381100	-10.197000	25.807697	0.000608	20.738750
1822.479898	-2.996200	3.381200	-10.129000	25.777138	0.000605	20.746461
1823.482299	-3.001700	3.382400	-10.152000	25.758732	0.000605	20.742672
1824.479918	-3.001100	3.382400	-10.151000	25.758182	0.000606	20.745912
1825.478988	-3.009500	3.380800	-10.173000	25.787276	0.000604	20.740523
1826.483938	-3.010300	3.379600	-10.173000	25.776694	0.000604	20.752180
1827.480382	-2.998200	3.380800	-10.135000	25.793216	0.000604	20.748861
1828.487343	-3.012100	3.381000	-10.183000	25.810956	0.000602	20.716893
1829.487650	-2.984400	3.380900	-10.089000	25.781366	0.000606	20.746440
1830.482417	-3.003000	3.379600	-10.148000	25.784645	0.000604	20.736932
1831.482899	-2.992600	3.379000	-10.111000	25.748155	0.000602	20.740107
1832.485837	-3.007400	3.379200	-10.161000	25.681564	0.000603	20.730595
1833.484544	-2.965300	3.380300	-10.022000	25.638555	0.000602	20.733865
1834.484587	-2.987300	3.379200	-10.092000	25.616547	0.000601	20.754910
1835.485435	-2.991100	3.377400	-10.102000	25.606953	0.000601	20.739110
1836.488830	-2.977500	3.378400	-10.058000	25.646683	0.000599	20.752461
1837.489390	-3.012600	3.376800	-10.172000	25.670937	0.000601	20.736042
1838.488212	-3.009400	3.377400	-10.164000	25.682188	0.000599	20.751137
1839.486520	-2.976100	3.378100	-10.053000	25.722963	0.000599	20.728080
1840.483297	-3.009600	3.377400	-10.163000	25.740154	0.000599	20.734442
1841.490497	-3.007900	3.374600	-10.150000	25.725693	0.000599	20.735089
1842.490486	-3.007100	3.375600	-10.150000	25.694836	0.000597	20.740132
1843.485593	-3.002400	3.374500	-10.130000	25.704331	0.000597	20.751092
1844.490185	-3.011400	3.375400	-10.163000	25.705472	0.000598	20.730426
1845.487917	-3.006300	3.373500	-10.141000	25.726764	0.000597	20.744227
1846.482673	-3.011800	3.373600	-10.160000	25.762493	0.000596	20.731750
1847.488774	-3.016300	3.372300	-10.171000	25.794916	0.000595	20.729230
1848.487733	-2.966400	3.375300	-10.012000	25.756258	0.000595	20.742557
1849.487865	-2.997200	3.373100	-10.109000	25.759135	0.000596	20.724583
1850.486524	-3.012600	3.373300	-10.162000	25.710493	0.000596	20.734521
1851.488214	-3.016600	3.372600	-10.173000	25.696798	0.000592	20.724558
1852.485529	-2.987900	3.372900	-10.077000	25.683531	0.000594	20.743476
1853.489592	-2.981900	3.372000	-10.054000	25.672624	0.000592	20.709760
1854.488609	-3.003100	3.371800	-10.125000	25.666043	0.000592	20.739662
1855.485146	-3.029500	3.370900	-10.211000	25.665095	0.000592	20.735865
1856.493478	-3.000800	3.372300	-10.118000	25.678313	0.000593	20.723062
1857.488330	-3.000200	3.371700	-10.115000	25.703157	0.000592	20.726678
1858.489218	-2.988000	3.371400	-10.073000	25.735606	0.000592	20.721812
1859.488544	-2.980000	3.369700	-10.041000	25.770887	0.000590	20.732121
1860.491074	-3.006200	3.369700	-10.129000	25.776128	0.000591	20.748766
1861.487401	-3.005500	3.368400	-10.123000	25.788352	0.000591	20.728801
1862.489277	-2.993300	3.370000	-10.087000	25.796869	0.000590	20.751582
1863.491934	-3.022800	3.368300	-10.180000	25.758068	0.000589	20.723037
1864.494218	-2.986200	3.368300	-10.058000	25.735675	0.000589	20.708605
1865.492178	-3.001600	3.367000	-10.106000	25.733389	0.000588	20.745191
1866.491640	-2.993100	3.368800	-10.082000	25.703251	0.000586	20.727721
1867.490218	-2.995300	3.368800	-10.089000	25.707967	0.000589	20.745735
1868.494946	-2.993800	3.367700	-10.081000	25.700090	0.000587	20.735451
1869.495530	-2.995800	3.367300	-10.085000	25.709280	0.000585	20.720974
1870.490796	-2.997000	3.366100	-10.087000	25.721800	0.000585	20.736395
1871.496244	-3.008400	3.365500	-10.123000	25.755715	0.000586	20.703602
1872.493458	-2.999300	3.366100	-10.096000	25.802122	0.000585	20.725089
1873.491076	-2.994900	3.367400	-10.084000	25.834141	0.000585	20.706517
1874.495786	-3.025000	3.365400	-10.179000	25.838414	0.000585	20.729777
1875.493763	-3.001100	3.365900	-10.101000	25.850858	0.000584	20.714302
1876.495619	-3.014500	3.365900	-10.145000	25.874779	0.000582	20.722211
1877.494311	-2.998000	3.365000	-10.087000	25.858927	0.000582	20.721460
1878.495320	-2.993000	3.365600	-10.072000	25.857310	0.000582	20.733112
1879.493590	-2.992000	3.363300	-10.062000	25.877331	0.000584	20.719085
1880.500804	-3.014800	3.364000	-10.142000	25.909578	0.000581	20.719238
1881.496973	-3.020400	3.362500	-10.156000	25.904932	0.000581	20.714570
1882.494447	-2.990400	3.363500	-10.057000	25.913694	0.000579	20.710570
1883.495331	-3.004500	3.363300	-10.103000	25.949043	0.000580	20.728539
1884.495449	-3.019800	3.362300	-10.152000	25.935754	0.000578	20.712343
1885.495831	-2.973700	3.363000	-9.999900	25.903635	0.000578	20.711370
1886.495355	-2.991900	3.360800	-10.054000	25.877253	0.000577	20.703832
1887.494526	-2.999900	3.361200	-10.082000	25.866889	0.000578	20.715707
1888.495142	-3.006700	3.361300	-10.106000	25.839341	0.000577	20.709844
1889.496126	-2.987600	3.361200	-10.042000	25.815961	0.000578	20.729982
1890.496291	-3.001700	3.360000	-10.085000	25.818272	0.000578	20.733726
1891.495651	-2.995300	3.360200	-10.063000	25.824035	0.000576	20.713910
1892.497128	-2.994600	3.360000	-10.060000	25.840531	0.000576	20.710565
1893.498928	-3.002800	3.359900	-10.088000	25.844430	0.000576	20.736769
1894.497901	-2.998400	3.361100	-10.076000	25.837301	0.000574	20.704949
1895.518546	-3.025100	3.359300	-10.162000	25.830220	0.000574	20.718227
1896.504609	-3.034700	3.358000	-10.190000	25.851485	0.000572	20.699284
1897.503609	-3.013600	3.357100	-10.116000	25.860178	0.000573	20.714656
1898.497746	-3.005400	3.356800	-10.087000	25.884772	0.000572	20.703325
1899.501043	-3.008700	3.358000	-10.103000	25.869668	0.000573	20.706170
1900.497086	-2.994600	3.357400	-10.053000	25.860178	0.000573	20.703749
1901.498230	-3.002300	3.357800	-10.080000	25.887304	0.000571	20.707765
1902.498786	-2.976200	3.358500	-9.994800	25.890234	0.000572	20.713080
1903.498250	-2.991300	3.357300	-10.042000	25.936607	0.000570	20.700397
1904.503254	-2.994500	3.357700	-10.054000	25.947786	0.000571	20.696455
1905.499232	-2.993600	3.355900	-10.046000	25.958888	0.000570	20.728947
1906.498734	-2.985400	3.357300	-10.022000	25.953343	0.000570	20.712944
1907.498017	-2.996500	3.355400	-10.053000	25.948303	0.000569	20.711674
1908.499400	-3.007700	3.355000	-10.090000	25.981886	0.000568	20.716964
1909.497447	-3.016300	3.353800	-10.114000	25.944154	0.000568	20.703712
1910.506922	-3.005000	3.353600	-10.075000	25.935856	0.000568	20.714816
1911.500182	-3.010200	3.353800	-10.094000	25.918934	0.000567	20.696392
1912.498536	-2.998400	3.354100	-10.055000	25.890890	0.000564	20.702359
1913.508172	-2.989000	3.354400	-10.026000	25.845303	0.000566	20.710618
1914.501218	-2.993300	3.353700	-10.037000	25.829353	0.000566	20.705027
1915.500531	-3.001300	3.352200	-10.060000	25.826673	0.000565	20.712292
1916.502117	-2.994600	3.353700	-10.042000	25.847015	0.000566	20.720399
1917.501624	-3.007800	3.351300	-10.080000	25.895626	0.000564	20.704272
1918.505609	-2.992300	3.353900	-10.035000	25.910134	0.000564	20.701303
1919.506674	-3.005800	3.352500	-10.076000	25.927971	0.000564	20.694091
1920.503671	-3.003800	3.352600	-10.070000	25.927499	0.000564	20.710214
1921.505133	-2.987400	3.352000	-10.013000	25.944137	0.000561	20.717446
1922.507505	-2.988400	3.350400	-10.012000	25.900887	0.000562	20.694384
1923.508452	-3.003400	3.350500	-10.062000	25.864991	0.000562	20.706688
1924.508589	-3.006100	3.351200	-10.073000	25.870479	0.000560	20.699398
1925.508384	-3.034800	3.348100	-10.159000	25.894801	0.000561	20.699175
1926.509344	-3.008900	3.349100	-10.076000	25.858876	0.000560	20.691060
1927.510707	-3.016600	3.348400	-10.099000	25.893803	0.000560	20.695802
1928.513459	-2.981000	3.349900	-9.984700	25.893528	0.000560	20.714493
1929.512792	-2.999600	3.348600	-10.043000	25.898145	0.000559	20.706329
1930.512150	-2.969600	3.350100	-9.947800	25.922093	0.000558	20.698618
1931.510130	-2.997600	3.348500	-10.037000	25.926686	0.000559	20.707500
1932.511827	-2.996500	3.349100	-10.034000	25.949365	0.000558	20.715586
1933.511630	-3.000100	3.347600	-10.042000	25.950029	0.000557	20.708192
1934.512107	-3.041400	3.345500	-10.173000	25.955619	0.000557	20.718076
1935.512746	-3.000300	3.345800	-10.037000	25.971042	0.000556	20.699904
1936.518540	-2.995900	3.347500	-10.027000	25.926230	0.000554	20.702300
1937.511332	-2.993300	3.346000	-10.015000	25.868323	0.000555	20.700077
1938.513046	-3.008800	3.345700	-10.066000	25.810508	0.000552	20.712649
1939.512066	-3.009700	3.344700	-10.066000	25.785289	0.000554	20.712921
1940.513159	-3.010800	3.346000	-10.073000	25.790059	0.000554	20.713445
1941.514931	-2.975400	3.346500	-9.955900	25.816389	0.000553	20.725196
1942.514447	-2.995900	3.345100	-10.019000	25.872530	0.000553	20.719003
1943.512410	-3.002300	3.344500	-10.040000	25.873872	0.000551	20.699961
1944.515460	-2.981100	3.345100	-9.970800	25.892694	0.000551	20.695635
1945.514247	-3.013600	3.343400	-10.075000	25.923569	0.000553	20.714327
1946.515313	-3.002500	3.344500	-10.039000	25.907596	0.000551	20.695433
1947.516450	-2.985800	3.343600	-9.982300	25.903541	0.000550	20.673814
1948.514523	-2.991000	3.344000	-10.001000	25.915632	0.000550	20.686436
1949.514354	-2.989000	3.342900	-9.990900	25.893896	0.000551	20.722924
1950.515234	-3.022000	3.341600	-10.097000	25.851437	0.000550	20.706822
1951.515017	-2.990500	3.342100	-9.993900	25.812904	0.000548	20.691821
1952.513760	-2.997700	3.342100	-10.017000	25.824450	0.000548	20.695833
1953.516493	-2.996100	3.342100	-10.011000	25.830134	0.000547	20.698224
1954.513511	-2.970100	3.341900	-9.924800	25.874228	0.000546	20.715493
1955.515511	-3.000800	3.341300	-10.025000	25.884579	0.000549	20.718305
1956.516735	-3.010400	3.339200	-10.051000	25.874470	0.000546	20.702459
1957.514435	-2.992300	3.339100	-9.990500	25.830146	0.000546	20.712936
1958.519525	-3.004100	3.339500	-10.031000	25.800754	0.000544	20.714231
1959.517888	-2.983300	3.338900	-9.958800	25.814537	0.000543	20.723809
1960.517715	-3.004700	3.338100	-10.029000	25.843453	0.000542	20.725830
1961.520002	-2.994200	3.337900	-9.993000	25.867299	0.000546	20.721335
1962.519655	-2.994400	3.338300	-9.995600	25.908982	0.000542	20.726225
1963.517703	-3.009300	3.337300	-10.042000	25.924676	0.000543	20.730613
1964.517830	-2.997200	3.338600	-10.006000	25.943432	0.000540	20.725273
1965.516632	-3.002000	3.337000	-10.016000	25.961637	0.000541	20.719381
1966.515358	-2.988700	3.336800	-9.971300	25.981504	0.000540	20.701881
1967.516197	-2.996500	3.336200	-9.994900	26.034878	0.000541	20.706194
1968.518426	-3.014900	3.335500	-10.055000	26.064334	0.000540	20.699753
1969.518390	-3.012000	3.336900	-10.050000	26.064404	0.000539	20.727326
1970.516558	-3.027900	3.335400	-10.098000	26.075160	0.000541	20.717269
1971.520882	-3.022200	3.334300	-10.075000	26.051584	0.000540	20.721083
1972.516101	-3.016100	3.334100	-10.055000	26.020335	0.000538	20.741370
1973.518283	-3.011000	3.334500	-10.039000	25.988169	0.000537	20.714267
1974.520718	-3.009600	3.335600	-10.038000	25.985854	0.000537	20.727590
1975.519861	-3.008900	3.333800	-10.030000	26.008430	0.000539	20.724666
1976.517713	-2.976500	3.333900	-9.922700	25.992511	0.000538	20.723372
1977.518443	-2.969400	3.335500	-9.903400	25.991214	0.000536	20.732027
1978.520363	-2.964300	3.335900	-9.887500	25.982222	0.000537	20.736269
1979.536111	-3.008400	3.332800	-10.025000	25.955493	0.000533	20.730278
1980.519498	-3.000900	3.333000	-10.000000	25.920859	0.000534	20.730571
1981.522868	-2.999900	3.333500	-9.999300	25.871797	0.000533	20.702145
1982.522239	-3.006800	3.332700	-10.021000	25.886154	0.000534	20.720836
1983.520019	-3.028100	3.330300	-10.084000	25.896538	0.000532	20.723207
1984.524386	-2.999600	3.333200	-9.997000	25.898971	0.000533	20.726600
1985.522163	-3.001900	3.332100	-9.999900	25.913274	0.000530	20.744289
1986.524508	-2.990900	3.330800	-9.961400	25.945566	0.000532	20.726468
1987.522099	-2.998000	3.331200	-9.986000	25.975545	0.000528	20.717232
1988.520176	-3.015000	3.330600	-10.041000	26.008507	0.000532	20.735177
1989.520730	-2.987600	3.330300	-9.948900	26.013444	0.000530	20.731602
1990.523577	-2.982100	3.330800	-9.931600	25.996278	0.000528	20.718622
1991.526641	-3.018000	3.328100	-10.044000	25.955415	0.000528	20.735890
1992.523479	-2.994700	3.328700	-9.966500	25.975512	0.000529	20.727157
1993.523577	-3.008800	3.327900	-10.012000	25.939020	0.000526	20.727004
1994.525486	-2.995000	3.329500	-9.971100	25.952657	0.000528	20.732171
1995.524317	-2.999100	3.327200	-9.977000	25.940230	0.000525	20.733437
1996.526386	-2.998200	3.327000	-9.972700	25.939758	0.000527	20.738178
1997.525480	-2.991500	3.327100	-9.951900	25.975430	0.000525	20.721384
1998.523666	-3.017200	3.324900	-10.030000	26.010297	0.000527	20.718956
1999.525022	-3.002600	3.326400	-9.986800	26.035756	0.000526	20.765874
2000.528298	-3.013300	3.326300	-10.020000	26.080437	0.000524	20.742961
2001.525954	-2.987300	3.326500	-9.936300	26.079440	0.000522	20.741960
2002.529810	-2.987500	3.325700	-9.933800	26.103851	0.000523	20.740883
2003.526698	-3.014700	3.325800	-10.025000	26.130527	0.000524	20.748722
2004.526897	-2.989700	3.325400	-9.940700	26.153744	0.000522	20.734591
2005.530796	-2.988800	3.325200	-9.937000	26.166287	0.000523	20.732971
2006.527199	-2.993500	3.325100	-9.952000	26.188957	0.000523	20.748639
2007.527873	-3.006000	3.324200	-9.991500	26.204648	0.000522	20.754449
2008.527817	-3.024700	3.323600	-10.052000	26.166653	0.000519	20.749460
2009.532278	-3.028000	3.321400	-10.056000	26.134266	0.000519	20.736356
2010.528129	-2.995200	3.324200	-9.956100	26.069091	0.000520	20.739622
2011.532250	-2.980700	3.323500	-9.905300	26.022268	0.000519	20.734777
2012.528945	-2.976100	3.323900	-9.891300	25.996110	0.000518	20.752119
2013.527717	-2.981700	3.322600	-9.905700	25.992335	0.000516	20.739317
2014.531355	-2.993600	3.322300	-9.944100	25.973604	0.000517	20.759855
2015.531463	-2.988400	3.323300	-9.930600	25.964063	0.000518	20.743156
2016.530243	-3.027900	3.319100	-10.049000	25.978940	0.000517	20.733920
2017.532414	-3.008500	3.320400	-9.988300	25.982764	0.000516	20.761945
2018.531834	-3.015000	3.320000	-10.009000	25.997990	0.000515	20.742628
2019.532108	-3.003600	3.321000	-9.974400	26.025461	0.000516	20.745572
2020.531559	-3.023400	3.319700	-10.036000	26.040731	0.000516	20.743370
2021.530545	-3.007700	3.320500	-9.986400	26.046074	0.000516	20.768180
2022.532955	-3.015300	3.319800	-10.009000	26.049870	0.000513	20.731215
2023.531392	-3.023900	3.319800	-10.037000	26.070880	0.000515	20.760387
2024.531448	-3.024800	3.318500	-10.037000	26.114217	0.000512	20.752722
2025.532675	-3.010600	3.318100	-9.988500	26.134410	0.000514	20.757839
2026.536966	-3.004100	3.317800	-9.966200	26.144569	0.000512	20.766625
2027.532897	-3.028200	3.316600	-10.042000	26.177719	0.000511	20.752520
2028.535042	-2.987700	3.318900	-9.914800	26.169271	0.000510	20.745453
2029.538693	-3.006000	3.317400	-9.971000	26.186705	0.000511	20.757756
2030.536557	-3.016800	3.316700	-10.003000	26.158812	0.000510	20.777144
2031.535201	-2.984600	3.316900	-9.898100	26.152304	0.000509	20.732196
2032.538664	-2.996000	3.314800	-9.929400	26.102502	0.000508	20.739528
2033.536848	-2.995600	3.316900	-9.934600	26.048733	0.000508	20.760420
2034.537291	-3.008100	3.314900	-9.970900	26.002057	0.000507	20.767104
2035.541056	-3.000600	3.315700	-9.947400	26.023816	0.000507	20.760515
2036.538218	-3.001500	3.314500	-9.947200	26.052796	0.000507	20.763080
2037.537307	-2.993400	3.314500	-9.920700	26.075099	0.000506	20.752298
2038.543832	-3.012100	3.313600	-9.980100	26.104554	0.000506	20.764824
2039.541413	-3.012700	3.312700	-9.979600	26.134033	0.000506	20.753667
2040.538063	-2.994800	3.313700	-9.922900	26.146474	0.000505	20.776126
2041.537986	-3.001300	3.312600	-9.940900	26.153872	0.000506	20.766016
2042.541651	-2.960500	3.314500	-9.810400	26.119601	0.000503	20.748175
2043.537796	-2.993800	3.312000	-9.914700	26.130299	0.000504	20.773149
2044.541313	-2.997000	3.312800	-9.926400	26.069621	0.000504	20.785201
2045.541598	-3.003700	3.312600	-9.948900	26.057126	0.000502	20.785923
2046.538737	-3.008100	3.311100	-9.959200	26.020886	0.000502	20.786022
2047.539389	-3.030300	3.310800	-10.031000	26.049920	0.000499	20.778208
2048.540484	-2.992600	3.311900	-9.910500	26.084714	0.000498	20.776658
2049.540258	-3.024400	3.310400	-10.010000	26.107066	0.000500	20.754072
2050.542885	-2.967200	3.311800	-9.825200	26.133787	0.000502	20.769542
2051.540758	-2.995300	3.309900	-9.913800	26.157455	0.000497	20.767245
2052.541230	-3.020600	3.311200	-10.001000	26.171061	0.000498	20.779495
2053.546947	-2.996300	3.308700	-9.912300	26.156380	0.000498	20.800305
2054.546217	-3.021000	3.309000	-9.995600	26.123099	0.000497	20.783932
2055.542966	-3.038800	3.307300	-10.049000	26.118897	0.000498	20.782081
2056.547530	-3.002800	3.307000	-9.929400	26.150488	0.000496	20.784901
2057.544178	-2.997400	3.307400	-9.912500	26.190868	0.000494	20.817416
2058.542778	-3.005900	3.307400	-9.940200	26.221161	0.000496	20.770095
2059.546954	-2.989800	3.307400	-9.888100	26.275094	0.000495	20.770240
2060.545777	-3.004000	3.305700	-9.929800	26.291061	0.000494	20.788184
2061.546878	-3.013300	3.307800	-9.966400	26.270027	0.000494	20.780321
2062.549018	-2.998700	3.306200	-9.913200	26.259322	0.000493	20.805600
2063.548590	-3.018500	3.306000	-9.977900	26.263463	0.000494	20.781311
2064.548331	-3.007500	3.305200	-9.939000	26.249209	0.000492	20.792592
2065.548258	-2.994600	3.305300	-9.896900	26.230258	0.000492	20.799152
2066.549214	-2.997900	3.306100	-9.910700	26.237459	0.000489	20.773197
2067.548125	-3.016300	3.304900	-9.968000	26.246772	0.000490	20.778763
2068.551136	-3.008300	3.304200	-9.939800	26.230328	0.000489	20.787368
2069.549466	-2.988100	3.306400	-9.879200	26.295214	0.000490	20.778132
2070.549396	-3.010000	3.303400	-9.940500	26.290566	0.000488	20.772513
2071.553552	-2.991400	3.302800	-9.878900	26.317188	0.000488	20.800216
2072.550168	-2.981000	3.303400	-9.846800	26.334969	0.000488	20.780153
2073.550934	-2.981800	3.303000	-9.847400	26.356963	0.000487	20.797041
2074.551323	-3.021200	3.301800	-9.974800	26.337094	0.000486	20.779444
2075.551744	-3.005400	3.300900	-9.919200	26.309779	0.000486	20.783761
2076.554793	-2.999400	3.302400	-9.904100	26.286837	0.000488	20.812861
2077.553019	-3.009200	3.301500	-9.934200	26.317673	0.000485	20.801177
2078.552315	-2.995500	3.301500	-9.888600	26.338186	0.000483	20.801878
2079.549553	-3.008700	3.299800	-9.927500	26.328348	0.000485	20.803845
2080.552445	-3.001900	3.299600	-9.903700	26.356803	0.000482	20.764638
2081.553472	-3.008300	3.299700	-9.924100	26.344287	0.000481	20.790466
2082.554010	-2.983500	3.301500	-9.848700	26.352557	0.000481	20.803993
2083.554194	-2.986300	3.298100	-9.847900	26.381008	0.000480	20.803190
2084.559195	-3.006200	3.297800	-9.912500	26.385500	0.000479	20.817661
2085.553705	-2.995800	3.299800	-9.883700	26.371121	0.000479	20.793253
2086.553726	-2.993200	3.297600	-9.869400	26.339516	0.000479	20.798473
2087.557450	-2.986000	3.298900	-9.848900	26.357066	0.000477	20.796197
2088.554639	-2.987900	3.298200	-9.853800	26.388175	0.000479	20.814660
2089.555008	-3.003800	3.296600	-9.900900	26.414524	0.000480	20.824073
2090.557748	-3.004100	3.297400	-9.904100	26.420801	0.000478	20.804777
2091.555830	-2.976900	3.298500	-9.817400	26.360960	0.000477	20.806748
2092.554735	-3.003900	3.295700	-9.898500	26.337990	0.000478	20.798362
2093.559094	-2.997300	3.296800	-9.881100	26.298556	0.000477	20.831750
2094.555879	-2.971700	3.296100	-9.794300	26.308833	0.000475	20.820268
2095.557642	-2.983500	3.295800	-9.832200	26.344940	0.000473	20.814830
2096.559389	-2.983700	3.295100	-9.830800	26.358671	0.000475	20.813931
2097.558360	-3.004200	3.294400	-9.895400	26.380468	0.000475	20.816871
2098.557715	-2.996300	3.295100	-9.871300	26.375824	0.000474	20.805091
2099.562715	-3.007700	3.294500	-9.908400	26.393177	0.000472	20.822532
2100.557595	-2.978100	3.293500	-9.807600	26.407703	0.000473	20.792562
2101.556843	-2.993900	3.292300	-9.855600	26.411723	0.000473	20.808930
2102.563713	-2.989900	3.292000	-9.841200	26.438113	0.000472	20.810324
2103.557507	-3.017200	3.293200	-9.935100	26.456561	0.000470	20.811796
2104.559015	-2.976900	3.293400	-9.803100	26.495735	0.000472	20.815610
2105.580738	-2.984800	3.292300	-9.826500	26.494077	0.000468	20.818686
2106.558952	-2.997900	3.291400	-9.867100	26.488934	0.000469	20.812093
2107.558513	-2.977300	3.291800	-9.799600	26.477165	0.000469	20.814014
2108.560342	-3.008000	3.290100	-9.895700	26.470233	0.000466	20.825064
2109.558452	-2.997100	3.290400	-9.859000	26.415535	0.000467	20.817029
2110.559498	-2.988500	3.291300	-9.834500	26.395812	0.000468	20.827077
2111.561815	-2.990300	3.291600	-9.841600	26.363411	0.000466	20.833393
2112.560036	-2.997000	3.290200	-9.859700	26.329840	0.000466	20.832371
2113.559680	-2.998100	3.288000	-9.855500	26.310521	0.000465	20.811533
2114.562488	-2.970600	3.290600	-9.773900	26.279948	0.000463	20.842922
2115.561063	-3.018500	3.289600	-9.928300	26.259935	0.000464	20.833241
2116.561622	-3.018700	3.287200	-9.922500	26.240241	0.000464	20.848537
2117.563637	-3.011500	3.288300	-9.901600	26.261473	0.000464	20.843321
2118.562552	-3.013500	3.285800	-9.900600	26.242822	0.000462	20.834536
2119.562815	-2.983200	3.287700	-9.807300	26.241230	0.000462	20.826772
2120.568291	-2.978200	3.286700	-9.787200	26.226550	0.000461	20.837150
2121.564888	-2.983700	3.287300	-9.806900	26.266135	0.000463	20.845635
2122.563622	-2.987700	3.287000	-9.819200	26.286771	0.000459	20.839347
2123.566822	-3.002100	3.285400	-9.861800	26.324935	0.000460	20.839768
2124.563580	-2.988800	3.286300	-9.820800	26.336307	0.000456	20.838395
2125.564854	-3.006900	3.284200	-9.873700	26.366079	0.000457	20.840341
2126.568688	-3.004200	3.284200	-9.866000	26.382739	0.000457	20.833852
2127.564413	-3.005000	3.283200	-9.865400	26.406627	0.000458	20.849325
2128.563840	-3.011100	3.285100	-9.890800	26.432024	0.000455	20.832652
2129.570116	-2.996800	3.283400	-9.838800	26.428447	0.000456	20.833325
2130.566308	-3.014000	3.281700	-9.890000	26.449901	0.000454	20.849198
2131.565142	-3.000300	3.283300	-9.850000	26.438378	0.000454	20.835246
2132.570476	-3.013700	3.282900	-9.892100	26.459160	0.000454	20.833848
2133.566472	-2.987700	3.282500	-9.806200	26.424697	0.000456	20.861797
2134.565397	-2.992700	3.281700	-9.820400	26.369131	0.000452	20.842461
2135.572020	-2.985000	3.281700	-9.794900	26.346556	0.000452	20.837790
2136.566629	-2.996600	3.281000	-9.831100	26.347971	0.000452	20.843479
2137.569026	-2.989200	3.281600	-9.807800	26.404482	0.000452	20.849066
2138.575778	-2.988900	3.280900	-9.804800	26.397676	0.000451	20.848864
2139.568402	-2.997400	3.280200	-9.830400	26.425686	0.000451	20.855679
2140.566455	-2.993500	3.280400	-9.819100	26.446169	0.000453	20.832171
2141.570622	-3.001000	3.280200	-9.841700	26.461215	0.000449	20.847293
2142.568955	-3.029100	3.277700	-9.926900	26.456695	0.000449	20.856026
2143.570304	-3.015600	3.278200	-9.885300	26.443035	0.000447	20.859840
2144.568398	-3.014400	3.276100	-9.874500	26.422204	0.000448	20.872093
2145.569541	-3.013400	3.278600	-9.879100	26.473768	0.000447	20.851850
2146.569111	-3.020000	3.278000	-9.898100	26.498647	0.000447	20.847459
2147.571646	-3.005800	3.278100	-9.853000	26.514238	0.000445	20.844165
2148.570987	-3.026300	3.277000	-9.916500	26.545515	0.000447	20.869913
2149.570278	-3.017900	3.274600	-9.881600	26.566470	0.000446	20.861106
2150.571473	-2.993200	3.275700	-9.803900	26.590698	0.000444	20.854167
2151.570471	-3.006000	3.276200	-9.847500	26.589304	0.000446	20.857033
2152.569254	-3.014700	3.276600	-9.876300	26.618154	0.000442	20.857585
2153.570653	-3.012700	3.274600	-9.864200	26.630488	0.000443	20.871405
2154.572020	-3.020600	3.275400	-9.892500	26.663926	0.000442	20.864718
2155.571393	-2.986500	3.275500	-9.781200	26.680454	0.000442	20.863791
2156.576908	-3.003000	3.274500	-9.831900	26.653296	0.000442	20.870627
2157.572303	-2.988900	3.273700	-9.782600	26.672383	0.000440	20.869901
2158.579377	-3.024100	3.271500	-9.892100	26.683055	0.000441	20.869724
2159.578007	-3.001200	3.273400	-9.824100	26.673598	0.000440	20.874441
2160.573627	-3.006900	3.273600	-9.842500	26.663390	0.000440	20.866550
2161.574641	-2.995400	3.271800	-9.798600	26.662000	0.000440	20.858040
2162.577871	-2.996500	3.273200	-9.806900	26.689056	0.000437	20.881920
2163.572379	-3.007100	3.271600	-9.837300	26.673734	0.000435	20.868888
2164.573826	-2.998700	3.272000	-9.811000	26.655639	0.000436	20.882939
2165.577764	-3.002100	3.270200	-9.815100	26.621503	0.000436	20.860952
2166.574852	-3.018500	3.270800	-9.871300	26.568228	0.000433	20.866192
2167.580167	-3.004200	3.270100	-9.822300	26.539652	0.000434	20.867338
2168.578056	-3.016900	3.268700	-9.859800	26.486295	0.000433	20.874397
2169.578516	-3.017800	3.270900	-9.869400	26.468739	0.000433	20.886147
2170.579154	-2.986400	3.269700	-9.763800	26.499770	0.000433	20.880829
2171.584587	-3.019800	3.268300	-9.868500	26.542967	0.000432	20.879205
2172.579342	-3.027800	3.267200	-9.891600	26.566823	0.000430	20.898916
2173.590401	-2.992700	3.267800	-9.777800	26.553344	0.000431	20.869723
2174.587950	-2.975000	3.267900	-9.720900	26.556248	0.000429	20.900140
2175.584348	-2.991300	3.268600	-9.776500	26.544998	0.000429	20.893099
2176.580567	-3.002100	3.267300	-9.807700	26.530900	0.000428	20.885092
2177.581882	-2.981900	3.267400	-9.741900	26.513763	0.000427	20.868342
2178.583209	-3.001500	3.266900	-9.804500	26.546188	0.000426	20.883864
2179.579545	-3.020500	3.264500	-9.858700	26.579949	0.000424	20.879870
2180.584702	-2.994100	3.267000	-9.780500	26.607007	0.000428	20.874828
2181.581506	-2.991800	3.266300	-9.771700	26.628503	0.000423	20.877945
2182.586500	-3.023500	3.265100	-9.871000	26.660403	0.000423	20.879194
2183.585736	-2.981900	3.264200	-9.732600	26.669586	0.000425	20.867564
2184.581501	-2.993900	3.264600	-9.773400	26.677924	0.000421	20.884005
2185.580283	-3.007100	3.264200	-9.814200	26.695625	0.000423	20.882360
2186.583686	-2.999000	3.264100	-9.788000	26.724711	0.000422	20.880782
2187.581743	-3.012800	3.261700	-9.826400	26.762714	0.000421	20.863515
2188.579808	-2.979100	3.262800	-9.719700	26.795825	0.000420	20.860296
2189.583831	-3.003500	3.263100	-9.800600	26.749509	0.000420	20.868257
2190.582591	-2.986700	3.264200	-9.747100	26.753476	0.000420	20.861813
2191.582283	-2.993200	3.261200	-9.760300	26.722500	0.000417	20.872870
2192.585604	-2.989200	3.261100	-9.747100	26.700334	0.000416	20.852957
2193.581793	-3.021300	3.260400	-9.849600	26.687124	0.000416	20.860539
2194.584285	-3.001700	3.261400	-9.788600	26.635120	0.000415	20.846666
2195.585722	-3.002700	3.259100	-9.784700	26.626081	0.000414	20.857019
2196.595669	-3.009300	3.258400	-9.804700	26.616918	0.000416	20.852550
2197.583622	-3.002100	3.259800	-9.785200	26.621233	0.000413	20.844560
2198.588422	-2.982100	3.257800	-9.714300	26.635362	0.000415	20.858289
2199.586120	-2.994500	3.257600	-9.753900	26.662518	0.000413	20.847182
2200.585450	-3.005100	3.259300	-9.793800	26.683344	0.000412	20.860532
2201.585380	-2.988400	3.258400	-9.735700	26.741326	0.000411	20.840116
2202.587442	-3.005900	3.256700	-9.788800	26.750262	0.000412	20.842462
2203.586720	-2.997000	3.257300	-9.760900	26.748847	0.000410	20.852893
2204.588063	-2.988500	3.257300	-9.733200	26.746686	0.000408	20.858780
2205.590584	-3.007300	3.256200	-9.791400	26.747108	0.000409	20.849722
2206.588441	-2.993500	3.255600	-9.744700	26.741547	0.000407	20.844132
2207.593331	-3.015900	3.254900	-9.815400	26.761330	0.000406	20.855960
2208.588267	-2.994800	3.254400	-9.744600	26.791041	0.000406	20.857383
2209.588518	-2.991600	3.255800	-9.738200	26.726058	0.000405	20.864594
2210.593402	-3.009400	3.255100	-9.794700	26.703374	0.000405	20.856962
2211.591021	-2.993100	3.255000	-9.741400	26.729806	0.000404	20.823319
2212.589190	-2.981000	3.254200	-9.699500	26.749762	0.000404	20.847649
2213.590975	-3.007200	3.251900	-9.777100	26.779301	0.000403	20.852217
2214.592575	-3.008800	3.252500	-9.784800	26.815490	0.000406	20.847826
2215.592319	-2.999200	3.252000	-9.752000	26.815736	0.000403	20.826263
2216.593721	-2.996600	3.251800	-9.742500	26.808592	0.000401	20.818132
2217.592041	-3.023100	3.250000	-9.824000	26.745246	0.000400	20.845006
2218.593306	-3.021500	3.250100	-9.819300	26.699650	0.000399	20.842313
2219.592308	-3.022800	3.251200	-9.826700	26.679370	0.000401	20.839468
2220.597562	-3.005900	3.250600	-9.769600	26.647770	0.000399	20.838046
2221.594383	-2.998800	3.250000	-9.744300	26.667283	0.000401	20.844861
2222.596117	-2.997000	3.250500	-9.740900	26.678054	0.000397	20.844783
2223.602305	-2.970800	3.250500	-9.655200	26.704920	0.000398	20.825326
2224.595037	-2.998400	3.247500	-9.736100	26.696824	0.000397	20.826196
2225.597782	-2.990400	3.249500	-9.715200	26.722387	0.000396	20.830085
2226.596956	-2.985800	3.249900	-9.702200	26.732964	0.000397	20.823174
2227.597217	-2.997000	3.247900	-9.732500	26.698711	0.000395	20.828093
2228.599462	-2.996200	3.248100	-9.730600	26.703251	0.000394	20.820330
2229.598844	-2.973100	3.247400	-9.654100	26.716108	0.000393	20.818557
2230.595973	-2.990600	3.247400	-9.710800	26.728251	0.000394	20.816066
2231.599589	-2.993100	3.244900	-9.709600	26.699527	0.000392	20.807103
2232.595644	-3.022200	3.246300	-9.808600	26.734649	0.000393	20.818231
2233.598983	-2.999600	3.245800	-9.734200	26.751131	0.000393	20.817258
2234.596883	-3.002500	3.244100	-9.740200	26.751307	0.000391	20.839720
2235.597881	-2.980200	3.245600	-9.670900	26.763495	0.000391	20.816413
2236.600003	-2.996400	3.243500	-9.717000	26.775975	0.000390	20.841761
2237.598321	-3.008600	3.242300	-9.752700	26.738545	0.000390	20.828786
2238.600954	-3.024400	3.245000	-9.813100	26.732611	0.000387	20.826139
2239.601643	-3.005800	3.242500	-9.745600	26.676762	0.000389	20.819303
2240.602842	-2.993500	3.242600	-9.705900	26.647741	0.000386	20.819052
2241.600529	-2.978000	3.242800	-9.655500	26.660497	0.000386	20.826659
2242.602699	-2.990500	3.242100	-9.694200	26.649353	0.000385	20.817353
2243.600451	-2.992100	3.241100	-9.697100	26.612211	0.000384	20.794240
2244.602767	-2.992600	3.241100	-9.698400	26.614102	0.000385	20.821745
2245.603083	-2.992400	3.239700	-9.693000	26.626365	0.000383	20.817951
2246.606310	-2.989700	3.240800	-9.687400	26.639843	0.000383	20.805896
2247.601324	-2.994500	3.238800	-9.697400	26.679162	0.000384	20.805121
2248.609043	-3.007700	3.239400	-9.740700	26.706809	0.000384	20.829596
2249.606869	-3.013300	3.238200	-9.757100	26.732428	0.000382	20.812205
2250.603992	-3.034400	3.238000	-9.823300	26.752010	0.000380	20.811030
2251.604187	-3.004600	3.236600	-9.722900	26.736743	0.000382	20.818913
2252.606338	-2.995900	3.237700	-9.698900	26.714819	0.000380	20.805881
2253.605541	-2.999900	3.237500	-9.710000	26.724030	0.000379	20.815615
2254.607018	-2.993200	3.235500	-9.683200	26.756100	0.000379	20.826047
2255.606709	-3.003800	3.236400	-9.719600	26.782731	0.000378	20.808726
2256.610119	-3.006600	3.235500	-9.726900	26.747033	0.000378	20.809819
2257.605097	-2.990700	3.236400	-9.676900	26.767809	0.000378	20.814111
2258.606046	-2.998500	3.234200	-9.697200	26.810277	0.000378	20.807024
2259.609546	-3.000000	3.234800	-9.702200	26.820898	0.000376	20.794944
2260.606987	-2.996300	3.234200	-9.689900	26.818885	0.000375	20.817101
2261.610275	-3.002100	3.233300	-9.706100	26.792796	0.000374	20.818846
2262.609491	-2.990800	3.233000	-9.668500	26.788006	0.000373	20.799805
2263.607532	-2.980600	3.232800	-9.634500	26.756606	0.000374	20.812805
2264.608083	-3.016800	3.230400	-9.744700	26.789861	0.000374	20.822058
2265.612283	-3.007100	3.231600	-9.717000	26.783406	0.000372	20.801344
2266.608206	-3.012900	3.231900	-9.735300	26.809365	0.000372	20.809900
2267.608947	-3.002200	3.231600	-9.700700	26.816709	0.000371	20.807328
2268.611051	-2.994900	3.230400	-9.674000	26.816755	0.000372	20.812115
2269.607955	-3.006900	3.230800	-9.713200	26.822882	0.000372	20.798835
2270.608428	-3.000800	3.229800	-9.690500	26.794439	0.000369	20.809592
2271.612305	-3.000200	3.229000	-9.686800	26.781579	0.000367	20.804249
2272.611968	-2.990800	3.229800	-9.659300	26.814562	0.000368	20.822238
2273.609875	-2.990500	3.228900	-9.655100	26.821780	0.000366	20.784451
2274.614970	-3.032000	3.228300	-9.787100	26.829199	0.000366	20.789539
2275.610234	-3.018500	3.227700	-9.740600	26.864390	0.000366	20.805958
2276.611782	-3.014600	3.228400	-9.730400	26.902361	0.000367	20.788662
2277.614369	-3.055200	3.225100	-9.852600	26.891937	0.000365	20.781974
2278.614721	-2.972200	3.227400	-9.591100	26.910050	0.000364	20.799712
2279.614446	-2.998900	3.228000	-9.678900	26.895305	0.000364	20.795792
2280.614048	-2.971000	3.226200	-9.584800	26.911784	0.000363	20.800982
2281.616268	-2.980300	3.224400	-9.608700	26.923122	0.000363	20.828504
2282.614071	-2.993400	3.225100	-9.653500	26.959803	0.000361	20.795689
2283.616598	-3.013500	3.223900	-9.714200	26.973276	0.000362	20.793116
2284.615545	-2.991000	3.224000	-9.642400	26.956372	0.000362	20.821162
2285.614160	-2.993400	3.222700	-9.646100	26.942993	0.000359	20.802019
2286.618849	-2.991800	3.225300	-9.647600	26.888070	0.000360	20.788990
2287.615801	-2.992400	3.223900	-9.646200	26.850000	0.000357	20.786747
2288.614849	-3.010300	3.223700	-9.703000	26.900527	0.000359	20.778283
2289.619803	-2.988600	3.221400	-9.626000	26.872829	0.000357	20.791209
2290.616956	-2.992500	3.222300	-9.641500	26.877942	0.000358	20.795876
2291.614593	-3.039300	3.220500	-9.785800	26.906502	0.000357	20.805628
2292.618831	-2.995500	3.220200	-9.644500	26.961052	0.000356	20.795048
2293.616712	-2.997700	3.219300	-9.648400	26.929759	0.000355	20.769270
2294.616138	-3.013900	3.219000	-9.701100	26.890593	0.000357	20.805278
2295.620533	-3.003700	3.218400	-9.665900	26.855768	0.000355	20.798710
2296.618960	-2.997100	3.217400	-9.641700	26.793273	0.000353	20.801782
2297.616850	-3.003300	3.219100	-9.666800	26.802754	0.000356	20.783813
2298.620620	-2.989500	3.218500	-9.620000	26.825538	0.000352	20.823317
2299.618236	-2.971700	3.219900	-9.567400	26.847575	0.000351	20.806120
2300.616595	-2.998700	3.217700	-9.647200	26.881549	0.000351	20.796658
2301.620396	-2.995700	3.216100	-9.633200	26.884927	0.000351	20.777296
2302.617575	-3.007700	3.216100	-9.671900	26.948880	0.000349	20.782808
2303.616188	-3.006100	3.214600	-9.662700	26.943521	0.000350	20.796860
2304.620022	-2.992100	3.214700	-9.618000	26.952427	0.000350	20.785427
2305.617777	-3.001200	3.216100	-9.651100	26.899939	0.000349	20.770579
2306.617547	-2.994500	3.214500	-9.624200	26.843972	0.000347	20.778315
2307.623062	-3.022300	3.212500	-9.708100	26.830419	0.000347	20.783654
2308.619147	-2.994000	3.213100	-9.619100	26.796465	0.000346	20.780335
2309.619223	-2.992800	3.212600	-9.613400	26.753398	0.000347	20.769277
2310.619958	-2.999400	3.212200	-9.634000	26.736051	0.000344	20.776492
2311.618095	-3.003500	3.209800	-9.640100	26.760472	0.000346	20.780183
2312.619116	-3.007200	3.210600	-9.653900	26.823940	0.000343	20.772872
2313.618404	-3.003800	3.212300	-9.647500	26.896554	0.000343	20.769546
2314.620255	-3.014800	3.211000	-9.679500	26.952001	0.000343	20.773145
2315.623780	-3.035300	3.209000	-9.739700	26.984209	0.000342	20.779928
2316.620707	-3.016600	3.208500	-9.676800	27.007017	0.000341	20.783898
2317.632214	-3.026800	3.207900	-9.708600	27.065227	0.000342	20.774634
2318.618591	-3.029400	3.206000	-9.711700	27.088305	0.000340	20.780774
2319.618931	-2.997200	3.210500	-9.621400	27.115797	0.000340	20.770017
2320.618588	-2.988300	3.207400	-9.584100	27.069217	0.000337	20.775802
2321.621126	-3.007500	3.206700	-9.642600	27.019089	0.000338	20.787030
2322.620812	-2.996000	3.205600	-9.603200	26.981394	0.000341	20.788003
2323.620126	-2.992300	3.206600	-9.593800	26.975757	0.000341	20.774274
2324.620554	-2.985300	3.207100	-9.573900	26.963448	0.000339	20.776595
2325.621534	-3.009500	3.206800	-9.649200	27.008167	0.000337	20.772253
2326.621876	-3.004000	3.204600	-9.625600	27.024793	0.000337	20.778067
2327.621182	-2.985300	3.205900	-9.569300	26.995060	0.000336	20.788470
2328.621655	-3.012700	3.205200	-9.654600	26.990493	0.000336	20.761591
2329.622562	-3.004300	3.203400	-9.623300	26.938475	0.000336	20.771871
2330.622379	-3.002100	3.203000	-9.614700	26.961998	0.000335	20.753325
2331.623738	-3.014600	3.202700	-9.654500	26.953662	0.000333	20.748262
2332.621619	-2.999900	3.202400	-9.606100	26.977755	0.000333	20.785293
2333.621507	-2.989200	3.201900	-9.568800	26.970707	0.000332	20.765877
2334.623195	-3.001600	3.201200	-9.607900	27.000982	0.000331	20.790158
2335.625623	-2.992600	3.203200	-9.583100	27.014705	0.000332	20.759861
2336.624537	-2.999500	3.201200	-9.599800	27.032945	0.000331	20.767773
2337.623424	-2.975600	3.200400	-9.521600	27.039219	0.000332	20.755590
2338.623273	-3.037000	3.198900	-9.714000	27.072570	0.000329	20.772062
2339.624938	-2.978200	3.199600	-9.527600	27.047632	0.000328	20.769741
2340.626137	-3.013100	3.196700	-9.630400	27.043241	0.000326	20.754893
2341.624241	-2.996700	3.198700	-9.584300	27.060932	0.000328	20.769840
2342.626075	-2.967400	3.198600	-9.490200	27.034800	0.000328	20.768690
2343.624771	-3.000000	3.195000	-9.583000	26.981520	0.000327	20.771061
2344.625445	-2.981300	3.197900	-9.533100	27.001771	0.000326	20.771510
2345.626461	-2.981600	3.197100	-9.529900	27.003632	0.000326	20.758209
2346.626015	-2.994800	3.194200	-9.564700	26.986383	0.000324	20.750346
2347.626964	-2.975200	3.197000	-9.510100	26.971045	0.000325	20.744879
2348.625602	-3.005200	3.193600	-9.595300	27.023903	0.000325	20.756783
2349.625916	-3.007500	3.193900	-9.605200	27.032812	0.000323	20.764794
2350.626290	-3.012800	3.194400	-9.622800	27.021964	0.000323	20.766213
2351.626345	-3.014500	3.192700	-9.623200	26.955137	0.000324	20.754486
2352.627351	-3.003000	3.192800	-9.587600	26.914089	0.000323	20.758729
2353.628288	-3.004100	3.192100	-9.588400	26.895400	0.000322	20.758902
2354.627470	-3.027900	3.191800	-9.664300	26.943197	0.000322	20.750541
2355.627867	-2.987300	3.190600	-9.529500	26.973153	0.000322	20.771655
2356.628306	-3.002300	3.191000	-9.579800	26.982953	0.000321	20.750215
2357.628561	-2.982600	3.191000	-9.516400	26.964785	0.000321	20.764189
2358.627958	-2.984700	3.189800	-9.519500	26.966474	0.000319	20.739334
2359.629889	-2.996500	3.189200	-9.554800	26.946868	0.000318	20.743325
2360.629152	-2.996900	3.187200	-9.550800	26.947958	0.000319	20.756751
2361.629115	-2.985100	3.187600	-9.513800	26.961928	0.000316	20.745194
2362.629035	-3.009900	3.188100	-9.594900	26.970071	0.000318	20.742950
2363.628916	-3.006400	3.187600	-9.582200	26.995282	0.000319	20.746493
2364.631526	-2.986500	3.186900	-9.517000	26.978305	0.000315	20.758818
2365.634252	-3.031400	3.184100	-9.651000	26.936716	0.000314	20.755877
2366.631103	-3.002900	3.185800	-9.565500	26.882658	0.000317	20.755098
2367.631522	-2.993900	3.184600	-9.532800	26.878093	0.000314	20.739603
2368.631354	-3.018000	3.185200	-9.611500	26.884122	0.000314	20.728594
2369.632778	-2.995600	3.183300	-9.535300	26.905366	0.000314	20.729567
2370.632350	-2.997200	3.183400	-9.540500	26.910975	0.000315	20.741372
2371.632337	-2.997900	3.182700	-9.540600	26.937451	0.000314	20.742391
2372.632402	-2.995000	3.182000	-9.528700	26.943085	0.000313	20.724822
2373.633648	-3.006000	3.182100	-9.564200	26.978797	0.000312	20.731811
2374.631855	-3.007600	3.181300	-9.566600	26.992918	0.000312	20.734631
2375.632545	-3.002600	3.180700	-9.549400	26.983709	0.000310	20.724422
2376.633142	-3.001900	3.181500	-9.549500	26.959859	0.000309	20.728414
2377.633767	-2.976300	3.179100	-9.460300	26.945070	0.000312	20.735827
2378.632814	-3.003800	3.179200	-9.548900	26.937969	0.000308	20.736273
2379.633789	-2.965300	3.181600	-9.432000	26.911908	0.000308	20.740413
2380.633475	-3.020900	3.176600	-9.594700	26.922183	0.000309	20.734150
2381.632526	-3.002500	3.177000	-9.537000	26.959905	0.000310	20.726563
2382.635221	-3.000300	3.176400	-9.530000	27.002017	0.000308	20.746153
2383.635960	-3.012100	3.176700	-9.568000	27.020705	0.000308	20.717055
2384.639422	-3.017800	3.174200	-9.577700	27.034899	0.000308	20.742236
2385.633624	-3.012000	3.175500	-9.564000	27.076758	0.000307	20.726011
2386.635511	-2.989800	3.175500	-9.493100	27.099142	0.000307	20.724341
2387.636456	-3.005400	3.174100	-9.538700	27.114598	0.000306	20.743680
2388.637491	-2.973200	3.175000	-9.439200	27.136879	0.000304	20.718198
2389.638911	-2.984000	3.173200	-9.467700	27.117029	0.000305	20.713881
2390.636382	-2.994800	3.173700	-9.503700	27.125142	0.000307	20.752862
2391.637585	-3.000600	3.171600	-9.515800	27.131644	0.000302	20.711984
2392.641972	-2.984200	3.172200	-9.465400	27.122707	0.000303	20.726231
2393.638954	-2.977400	3.172400	-9.443400	27.090181	0.000303	20.738563
2394.637648	-3.010700	3.170800	-9.545900	27.072835	0.000302	20.739136
2395.642309	-3.013400	3.169200	-9.549100	27.063131	0.000301	20.731747
2396.638338	-2.991400	3.169900	-9.481200	27.076853	0.000300	20.743651
2397.638572	-3.009500	3.167600	-9.531900	27.103030	0.000301	20.725880
2398.639419	-3.038500	3.167800	-9.624600	27.112983	0.000301	20.719918
2399.640388	-3.030300	3.167200	-9.595800	27.158885	0.000299	20.735116
2400.636950	-2.996300	3.167300	-9.489700	27.204240	0.000301	20.721938
2401.637713	-3.006000	3.166400	-9.516900	27.179997	0.000300	20.751610
2402.638855	-2.989300	3.165100	-9.459700	27.163423	0.000300	20.716920
2403.639854	-2.978300	3.166700	-9.430600	27.131489	0.000298	20.725105
2404.639872	-3.003600	3.166500	-9.509400	27.125381	0.000300	20.718014
2405.640748	-2.992300	3.163100	-9.464000	27.141861	0.000299	20.727951
2406.640559	-3.017300	3.162900	-9.542500	27.150695	0.000298	20.715972
2407.641709	-3.017700	3.163500	-9.542600	27.208901	0.000298	20.709556
2408.639083	-2.995100	3.162100	-9.470600	27.254824	0.000296	20.708806
2409.639801	-3.003100	3.161200	-9.491600	27.278815	0.000299	20.720611
2410.641229	-3.016400	3.159400	-9.528900	27.301392	0.000296	20.715346
2411.640210	-3.014900	3.160600	-9.528100	27.317467	0.000295	20.721086
2412.641355	-3.001800	3.158500	-9.480600	27.290526	0.000295	20.721011
2413.640805	-3.011000	3.160000	-9.513500	27.266510	0.000296	20.720562
2414.644074	-2.977800	3.158400	-9.404300	27.196370	0.000294	20.718764
2415.644943	-3.010400	3.157900	-9.505500	27.161809	0.000294	20.719090
2416.644812	-2.981800	3.157100	-9.413600	27.173468	0.000295	20.719911
2417.640871	-3.010500	3.155800	-9.499700	27.178305	0.000292	20.737105
2418.644133	-2.998600	3.156100	-9.461500	27.216986	0.000293	20.745665
2419.645840	-3.012300	3.155900	-9.505600	27.202717	0.000292	20.729890
2420.645699	-2.969600	3.155400	-9.368900	27.236732	0.000292	20.739922
2421.648540	-2.987700	3.156100	-9.429500	27.281686	0.000290	20.706903
2422.644448	-2.999000	3.154600	-9.459400	27.309222	0.000292	20.734604
2423.644858	-3.000400	3.153200	-9.459000	27.369182	0.000294	20.734228
2424.645187	-2.989200	3.153100	-9.424400	27.343234	0.000292	20.718081
2425.646795	-2.984700	3.151700	-9.405600	27.323237	0.000290	20.753443
2426.646931	-3.020200	3.151300	-9.516800	27.318671	0.000291	20.743634
2427.645886	-2.996900	3.151400	-9.443400	27.318470	0.000290	20.719249
2428.648483	-2.981600	3.151000	-9.394200	27.341342	0.000290	20.720920
2429.647498	-3.008500	3.149700	-9.474900	27.344068	0.000289	20.722714
2430.648947	-2.990300	3.147700	-9.411000	27.349798	0.000287	20.721366
2431.648155	-2.987800	3.148600	-9.406000	27.337047	0.000287	20.725134
2432.646734	-2.985100	3.148500	-9.397800	27.326818	0.000287	20.719112
2433.647478	-2.977200	3.147500	-9.369400	27.276853	0.000288	20.704886
2434.651487	-3.002500	3.145700	-9.443900	27.259088	0.000287	20.733012
2435.646822	-3.030200	3.143900	-9.525100	27.194830	0.000287	20.730018
2436.650173	-2.991100	3.145600	-9.408500	27.177462	0.000286	20.727721
2437.653064	-3.014100	3.142800	-9.470500	27.209293	0.000287	20.737453
2438.649658	-2.974800	3.144000	-9.352000	27.237348	0.000287	20.740542
2439.651705	-3.009700	3.141600	-9.454000	27.258093	0.000286	20.743865
2440.655222	-2.998500	3.141000	-9.417400	27.265875	0.000284	20.734148
2441.651052	-2.983500	3.140900	-9.368400	27.249678	0.000284	20.724494
2442.650707	-2.986600	3.141100	-9.380000	27.266269	0.000286	20.748770
2443.653789	-3.015700	3.138600	-9.463500	27.243494	0.000283	20.732025
2444.653533	-3.004300	3.138400	-9.427200	27.202655	0.000285	20.740260
2445.651138	-3.006700	3.138100	-9.434200	27.203770	0.000285	20.730949
2446.652992	-2.987000	3.138800	-9.375400	27.244135	0.000283	20.739782
2447.654000	-2.972800	3.137900	-9.327200	27.281997	0.000282	20.738511
2448.654707	-3.012800	3.137400	-9.451200	27.293454	0.000281	20.739131
2449.656424	-2.988700	3.135800	-9.371100	27.295466	0.000282	20.737836
2450.662196	-3.016900	3.135200	-9.457100	27.317466	0.000279	20.723455
2451.656180	-3.030100	3.133600	-9.493700	27.324438	0.000282	20.718614
2452.657699	-2.997300	3.132500	-9.387700	27.330636	0.000282	20.712046
2453.660939	-3.019700	3.131100	-9.453100	27.313590	0.000282	20.753222
2454.659787	-3.004400	3.130700	-9.404700	27.307191	0.000279	20.737302
2455.655284	-2.994400	3.130800	-9.373500	27.265137	0.000279	20.734828
2456.663485	-2.999300	3.130200	-9.386900	27.286943	0.000282	20.757713
2457.658450	-3.005900	3.127800	-9.400100	27.274635	0.000279	20.759082
2458.659843	-3.029500	3.127000	-9.471200	27.298503	0.000278	20.749425
2459.662787	-3.008100	3.128100	-9.409200	27.345188	0.000279	20.761775
2460.658815	-2.982000	3.127300	-9.324800	27.340496	0.000279	20.774599
2461.658710	-3.002700	3.124400	-9.380100	27.330496	0.000280	20.750788
2462.659753	-3.011700	3.123900	-9.406700	27.313625	0.000279	20.741878
2463.659178	-3.001700	3.125600	-9.381000	27.357634	0.000279	20.744897
2464.662287	-2.987800	3.124100	-9.333400	27.346490	0.000277	20.727996
2465.660691	-2.974700	3.123800	-9.291600	27.333391	0.000277	20.739950
2466.663643	-3.010200	3.120900	-9.393800	27.313418	0.000276	20.752102
2467.662917	-2.992800	3.121500	-9.341100	27.335917	0.000276	20.739646
2468.661703	-3.018800	3.119500	-9.414900	27.308751	0.000278	20.772537
2469.663154	-2.994100	3.120200	-9.340400	27.338942	0.000278	20.725145
2470.664084	-2.992700	3.118900	-9.333400	27.336111	0.000273	20.755014
2471.662957	-2.992700	3.117900	-9.329100	27.351040	0.000275	20.738737
2472.667048	-2.978100	3.117200	-9.282800	27.336058	0.000277	20.752116
2473.662036	-2.991700	3.116000	-9.321300	27.355704	0.000275	20.726833
2474.661073	-2.994000	3.115300	-9.326600	27.355429	0.000275	20.734618
2475.664914	-2.996300	3.115600	-9.334100	27.378399	0.000274	20.762941
2476.663750	-2.999300	3.114500	-9.340200	27.403973	0.000275	20.744098
2477.663850	-3.019000	3.113200	-9.397300	27.404069	0.000274	20.766954
2478.663994	-3.009700	3.112600	-9.367200	27.395486	0.000276	20.757846
2479.664336	-3.011500	3.111600	-9.368600	27.407639	0.000274	20.763434
2480.663607	-3.003700	3.111800	-9.345200	27.433241	0.000275	20.759318
2481.664680	-3.002200	3.109300	-9.332700	27.425795	0.000273	20.762259
2482.665231	-2.997600	3.109000	-9.319100	27.453750	0.000274	20.759563
2483.663876	-2.993300	3.107500	-9.300200	27.508937	0.000274	20.760083
2484.664644	-2.972300	3.109800	-9.242100	27.543712	0.000273	20.758087
2485.669035	-3.010300	3.106300	-9.349600	27.563350	0.000272	20.759355
2486.665897	-2.990100	3.106700	-9.286500	27.571713	0.000271	20.738370
2487.665130	-2.983700	3.104800	-9.263100	27.528751	0.000272	20.768165
2488.669418	-3.022800	3.103700	-9.381200	27.525871	0.000273	20.770958
2489.665202	-2.976300	3.104000	-9.237500	27.515451	0.000273	20.754783
2490.666667	-3.027700	3.100300	-9.385800	27.549259	0.000274	20.768884
2491.666926	-2.970800	3.102200	-9.214800	27.540924	0.000272	20.768085
2492.677919	-3.000700	3.099100	-9.298900	27.526287	0.000273	20.739132
2493.664070	-2.983900	3.099500	-9.246100	27.453681	0.000272	20.760916
2494.665584	-3.001400	3.098100	-9.297600	27.404341	0.000271	20.784299
2495.667577	-3.012500	3.097100	-9.328900	27.317565	0.000271	20.768602
2496.666968	-3.001600	3.096100	-9.292100	27.280595	0.000271	20.771242
2497.668098	-2.993100	3.095000	-9.262300	27.266549	0.000272	20.779873
2498.667173	-3.017000	3.094700	-9.336600	27.221717	0.000271	20.760382
2499.667659	-3.008200	3.093800	-9.305700	27.171818	0.000269	20.767092
2500.669075	-3.010900	3.093200	-9.311800	27.178264	0.000270	20.765040
2501.668864	-3.005500	3.090900	-9.288700	27.184962	0.000270	20.768932
2502.668660	-3.009100	3.091500	-9.302000	27.219418	0.000270	20.768501
2503.670090	-3.025300	3.089700	-9.346100	27.270230	0.000270	20.777885
2504.669949	-2.998800	3.089200	-9.261700	27.345198	0.000270	20.775062
2505.668785	-2.966300	3.090700	-9.165400	27.402079	0.000271	20.774910
2506.667310	-2.992300	3.087600	-9.238900	27.501000	0.000270	20.795720
2507.673800	-3.001500	3.087400	-9.265700	27.536145	0.000270	20.768492
2508.674633	-3.011000	3.086500	-9.292600	27.588426	0.000269	20.777473
2509.668996	-2.977300	3.085500	-9.184400	27.652531	0.000269	20.769904
2510.674267	-2.987900	3.085300	-9.217300	27.689010	0.000269	20.767258
2511.677323	-3.001200	3.084000	-9.254900	27.664776	0.000268	20.790287
2512.672237	-2.995600	3.081900	-9.231200	27.615323	0.000269	20.788415
2513.674448	-2.993600	3.083400	-9.229200	27.620376	0.000266	20.787336
2514.687854	-2.986300	3.080600	-9.197600	27.617401	0.000269	20.796671
2515.679327	-2.998300	3.079500	-9.232500	27.625110	0.000267	20.782617
2516.677784	-3.012900	3.078400	-9.273400	27.634384	0.000268	20.789103
2517.678249	-3.006700	3.077100	-9.250700	27.606825	0.000268	20.785554
2518.674966	-2.994800	3.077600	-9.215800	27.598564	0.000268	20.763018
2519.676927	-3.008900	3.075400	-9.252900	27.562722	0.000267	20.799026
2520.674126	-2.984000	3.075100	-9.174800	27.531988	0.000268	20.777586
2521.675179	-3.010000	3.072600	-9.247900	27.501873	0.000265	20.799444
2522.674274	-3.000800	3.071000	-9.214700	27.481833	0.000266	20.807257
2523.683032	-2.999600	3.070200	-9.208500	27.506312	0.000266	20.791108
2524.676857	-2.999700	3.070400	-9.209400	27.545796	0.000267	20.787686
2525.677119	-2.970500	3.069500	-9.115900	27.545892	0.000267	20.792998
2526.681369	-3.010500	3.066600	-9.230900	27.534009	0.000266	20.818026
2527.677804	-2.991900	3.067000	-9.175000	27.522273	0.000267	20.778243
2528.679033	-2.998300	3.066100	-9.191900	27.528474	0.000265	20.809138
2529.679175	-3.031400	3.063400	-9.285700	27.510091	0.000266	20.782582
2530.688623	-3.020700	3.062600	-9.250100	27.549231	0.000267	20.808685
2531.678387	-3.025800	3.062400	-9.264600	27.607514	0.000267	20.792886
2532.677923	-2.994100	3.062900	-9.169600	27.639878	0.000266	20.812649
2533.679894	-3.024400	3.060500	-9.254600	27.635439	0.000266	20.801071
2534.679700	-3.020100	3.059900	-9.239700	27.652847	0.000266	20.812422
2535.677132	-3.007600	3.059200	-9.200000	27.662320	0.000265	20.795403
2536.679192	-3.000800	3.056700	-9.171200	27.665640	0.000264	20.791631
2537.678661	-2.985600	3.056400	-9.124500	27.691633	0.000265	20.797398
2538.678160	-3.030000	3.053200	-9.250700	27.697728	0.000264	20.804480
2539.682250	-2.968600	3.055100	-9.068400	27.727511	0.000263	20.812639
2540.677748	-2.981900	3.054400	-9.106700	27.666703	0.000264	20.817830
2541.679409	-2.977200	3.054700	-9.093400	27.678061	0.000263	20.807448
2542.681136	-3.003900	3.051400	-9.165200	27.629671	0.000266	20.814706
2543.681434	-2.982100	3.052500	-9.102100	27.641975	0.000263	20.810018
2544.679044	-3.004700	3.048900	-9.160600	27.689862	0.000264	20.801306
2545.679105	-2.984600	3.049400	-9.099900	27.709304	0.000264	20.801430
2546.680814	-3.010500	3.045700	-9.168100	27.723394	0.000263	20.810392
2547.678251	-2.997900	3.045100	-9.126800	27.719449	0.000265	20.827285
2548.679166	-2.991600	3.045200	-9.109300	27.696059	0.000263	20.818921
2549.678661	-3.016200	3.042100	-9.175500	27.654297	0.000261	20.806296
2550.681886	-2.974600	3.043000	-9.050800	27.609830	0.000263	20.803277
2551.681287	-3.007600	3.040100	-9.142100	27.630465	0.000265	20.805549
2552.684170	-3.043800	3.038700	-9.248400	27.609380	0.000263	20.803299
2553.680672	-2.979300	3.041000	-9.059200	27.651248	0.000261	20.812236
2554.680521	-3.007600	3.038800	-9.137400	27.623570	0.000264	20.792446
2555.686562	-2.998700	3.035100	-9.101000	27.617918	0.000261	20.815208
2556.684789	-2.961200	3.036800	-8.990900	27.574906	0.000263	20.814130
2557.688433	-2.974800	3.035400	-9.028900	27.543831	0.000262	20.813209
2558.686700	-2.991600	3.033500	-9.073800	27.578630	0.000264	20.807919
2559.689958	-3.009500	3.032000	-9.123600	27.623003	0.000262	20.817480
2560.689549	-2.977400	3.030500	-9.020900	27.657177	0.000263	20.808245
2561.684216	-2.976200	3.030500	-9.018600	27.727111	0.000262	20.823142
2562.686808	-2.978300	3.028500	-9.019000	27.754516	0.000261	20.812788
2563.685917	-2.997100	3.026900	-9.069800	27.696163	0.000262	20.826138
2564.684571	-2.991700	3.026600	-9.053600	27.641180	0.000262	20.824391
2565.684390	-2.975700	3.025800	-9.002400	27.566307	0.000263	20.820650
2566.684565	-3.023600	3.023300	-9.140200	27.572605	0.000263	20.837893
2567.688103	-3.009900	3.021600	-9.093000	27.572630	0.000261	20.822745
2568.687592	-2.983000	3.021500	-9.011100	27.614967	0.000259	20.818878
2569.685807	-3.023300	3.019300	-9.126800	27.647408	0.000260	20.845829
2570.688223	-2.993500	3.018900	-9.035400	27.664248	0.000262	20.831007
2571.687711	-2.962000	3.019700	-8.943000	27.708664	0.000262	20.819277
2572.686916	-2.983900	3.016200	-8.998900	27.765799	0.000260	20.831729
2573.686983	-3.003700	3.014700	-9.053300	27.794789	0.000263	20.807324
2574.686395	-2.987500	3.013900	-9.003400	27.822411	0.000261	20.818053
2575.692525	-2.998800	3.013900	-9.036700	27.839944	0.000262	20.848026
2576.691430	-2.996300	3.011500	-9.022900	27.842919	0.000263	20.814985
2577.689358	-3.023300	3.011000	-9.102200	27.814029	0.000262	20.832377
2578.695207	-3.030900	3.009500	-9.119700	27.769048	0.000260	20.820774
2579.690132	-2.991700	3.008600	-8.999900	27.718063	0.000263	20.812614
2580.689663	-2.999200	3.007600	-9.018700	27.676669	0.000262	20.825962
2581.693684	-3.012800	3.005600	-9.053600	27.685027	0.000260	20.835795
2582.692769	-3.024500	3.002900	-9.081200	27.722845	0.000262	20.830229
2583.690500	-2.998900	3.003900	-9.007400	27.727012	0.000260	20.835844
2584.695068	-2.981600	3.002600	-8.951600	27.788359	0.000262	20.831199
2585.697178	-3.027700	3.001400	-9.086900	27.814715	0.000261	20.828800
2586.692865	-2.990900	3.000100	-8.972100	27.856224	0.000262	20.826005
2587.697986	-2.997400	2.998300	-8.986200	27.835270	0.000261	20.829572
2588.701310	-2.995000	2.996200	-8.972900	27.829964	0.000261	20.845569
2589.695282	-3.008400	2.995300	-9.009800	27.850543	0.000259	20.821236
2590.699767	-3.016100	2.993200	-9.026400	27.870752	0.000262	20.836359
2591.695388	-3.004600	2.993800	-8.993600	27.909383	0.000260	20.870496
2592.691713	-2.978200	2.992100	-8.910000	27.860406	0.000260	20.843015
2593.692984	-2.990700	2.990000	-8.940700	27.790111	0.000260	20.839600
2594.697275	-2.997100	2.990200	-8.960500	27.735404	0.000260	20.850453
2595.694749	-2.998900	2.988900	-8.962500	27.703613	0.000261	20.863031
2596.695977	-2.993500	2.985700	-8.936800	27.681267	0.000259	20.842916
2597.695873	-3.014200	2.985200	-8.997200	27.704380	0.000261	20.832510
2598.700925	-3.040100	2.982600	-9.066600	27.745742	0.000259	20.828615
2599.699190	-3.012200	2.982500	-8.983000	27.779940	0.000260	20.840744
2600.696744	-3.028700	2.979400	-9.022600	27.824227	0.000259	20.850226
2601.701306	-2.966300	2.980600	-8.840100	27.842331	0.000259	20.838575
2602.701047	-2.990300	2.978900	-8.905700	27.860729	0.000261	20.837651
2603.697288	-2.971800	2.979300	-8.852400	27.910069	0.000261	20.850800
2604.699353	-2.992400	2.976300	-8.905500	27.959484	0.000259	20.838423
2605.702067	-3.012900	2.973800	-8.959200	27.991316	0.000259	20.862402
2606.700860	-3.022000	2.972300	-8.981200	28.001286	0.000260	20.860109
2607.702775	-2.998500	2.971700	-8.910200	27.973268	0.000262	20.857512
2608.704096	-2.996400	2.970500	-8.899200	27.908607	0.000259	20.864974
2609.699747	-3.009700	2.968300	-8.932400	27.851479	0.000260	20.852997
2610.703964	-2.991800	2.967600	-8.877600	27.811929	0.000259	20.852548
2611.701278	-3.019900	2.967300	-8.959700	27.845899	0.000258	20.860183
2612.699638	-3.007700	2.964300	-8.915000	27.861323	0.000260	20.857689
2613.703049	-2.975600	2.964300	-8.820200	27.892066	0.000260	20.845008
2614.704920	-2.973600	2.963500	-8.811000	27.915374	0.000260	20.852346
2615.702550	-3.010300	2.960700	-8.912100	28.004109	0.000260	20.855364
2616.703056	-2.977500	2.959000	-8.809000	28.000070	0.000260	20.870264
2617.706269	-2.991000	2.956300	-8.841400	27.946663	0.000261	20.842114
2618.704443	-2.991500	2.956200	-8.842400	27.950977	0.000262	20.868265
2619.704881	-2.997000	2.953800	-8.851700	28.003586	0.000260	20.855786
2620.706430	-2.972800	2.954000	-8.780800	28.038468	0.000259	20.871931
2621.703238	-2.991800	2.952900	-8.833400	28.068937	0.000260	20.868938
2622.707604	-2.992100	2.950800	-8.828400	28.103937	0.000260	20.888048
2623.705130	-2.992600	2.948900	-8.822700	28.135048	0.000262	20.863418
2624.703775	-2.983900	2.947700	-8.794000	28.139460	0.000261	20.859799
2625.705149	-3.016700	2.944400	-8.881100	28.163532	0.000261	20.869808
2626.709982	-3.011600	2.943800	-8.864800	28.190797	0.000260	20.852213
2627.704271	-3.006000	2.942500	-8.844500	28.186330	0.000262	20.850561
2628.707203	-3.051800	2.938300	-8.966000	28.173417	0.000260	20.865061
2629.709594	-2.996400	2.939700	-8.807000	28.140793	0.000259	20.869675
2630.706549	-3.006400	2.937600	-8.830700	28.139281	0.000261	20.863412
2631.705317	-2.979100	2.937000	-8.747300	28.122473	0.000261	20.862613
2632.709802	-3.016900	2.934400	-8.850500	28.107025	0.000260	20.870295
2633.705876	-3.008700	2.932100	-8.820800	28.117409	0.000262	20.890230
2634.709340	-3.035500	2.931900	-8.898400	28.129978	0.000260	20.868271
2635.708660	-3.007700	2.930500	-8.812300	28.166839	0.000261	20.884516
2636.710216	-3.001300	2.928900	-8.789100	28.167778	0.000259	20.868867
2637.710423	-3.001300	2.927000	-8.783300	28.134263	0.000261	20.871163
2638.710418	-2.970000	2.926500	-8.690500	28.089118	0.000260	20.892095
2639.711066	-3.017900	2.922500	-8.818700	28.087209	0.000257	20.884959
2640.710289	-2.980700	2.922300	-8.708900	28.082175	0.000260	20.888901
2641.713984	-2.999700	2.919800	-8.756400	28.075406	0.000260	20.875923
2642.715400	-2.970400	2.920000	-8.671000	28.088588	0.000259	20.866908
2643.715932	-2.988500	2.915600	-8.711700	28.074411	0.000261	20.876344
2644.713043	-2.978700	2.915600	-8.683500	28.065040	0.000260	20.888247
2645.718275	-2.960900	2.914800	-8.629500	28.057898	0.000262	20.880583
2646.712171	-2.975400	2.914200	-8.669800	28.067192	0.000260	20.906533
2647.715224	-3.017900	2.909800	-8.780800	28.032610	0.000260	20.878836
2648.712383	-3.002300	2.909400	-8.734200	28.038807	0.000259	20.885074
2649.712440	-2.991500	2.909100	-8.701100	28.044558	0.000259	20.878061
2650.716499	-2.979500	2.905900	-8.657800	28.082487	0.000258	20.891110
2651.713763	-2.987200	2.904500	-8.675500	28.120986	0.000260	20.865858
2652.715778	-2.995400	2.901900	-8.690600	28.171700	0.000260	20.879453
2653.717519	-3.041000	2.900400	-8.819200	28.206826	0.000257	20.890633
2654.715301	-2.975100	2.899700	-8.625700	28.194605	0.000258	20.908674
2655.719219	-3.004000	2.896400	-8.699000	28.195917	0.000258	20.885815
2656.719598	-3.015100	2.893400	-8.722800	28.180722	0.000257	20.894225
2657.715700	-3.033200	2.893100	-8.773700	28.185404	0.000259	20.880922
2658.715462	-3.019500	2.890900	-8.727400	28.176604	0.000260	20.870640
2659.718931	-3.000900	2.889500	-8.669900	28.199038	0.000258	20.897491
2660.722124	-2.990200	2.888200	-8.635200	28.195864	0.000259	20.882443
2661.719821	-3.031900	2.885000	-8.746100	28.211280	0.000259	20.878997
2662.727108	-2.960500	2.885700	-8.542300	28.206792	0.000257	20.881117
2663.716790	-2.987100	2.883200	-8.611700	28.250862	0.000259	20.860528
2664.717918	-2.999000	2.880600	-8.637900	28.228035	0.000257	20.892545
2665.721060	-2.982300	2.880000	-8.587800	28.172088	0.000258	20.885533
2666.719126	-3.018100	2.877000	-8.682300	28.146605	0.000256	20.869363
2667.720751	-2.987600	2.874900	-8.588300	28.123671	0.000258	20.878043
2668.722051	-2.974000	2.874200	-8.547400	28.096257	0.000255	20.868939
2669.718991	-3.001800	2.872600	-8.621500	28.063384	0.000258	20.878046
2670.723421	-3.014300	2.870300	-8.651000	28.085870	0.000257	20.863224
2671.720338	-2.967600	2.867900	-8.510200	28.099801	0.000259	20.870135
2672.723313	-2.991900	2.867000	-8.576800	28.167400	0.000257	20.863745
2673.719687	-3.008500	2.862700	-8.612000	28.165125	0.000257	20.868567
2674.719490	-2.997300	2.861500	-8.575400	28.132673	0.000256	20.869087
2675.727423	-3.007000	2.861000	-8.602300	28.099828	0.000257	20.861154
2676.718839	-2.982400	2.858800	-8.525000	28.100746	0.000258	20.856388
2677.719417	-2.995300	2.856700	-8.556300	28.058554	0.000258	20.856115
2678.720468	-2.993400	2.854700	-8.544700	28.030513	0.000258	20.870088
2679.721971	-2.959600	2.854800	-8.448100	28.022435	0.000257	20.855319
2680.722507	-3.001400	2.850000	-8.553100	28.056768	0.000255	20.856689
2681.721163	-2.988200	2.848300	-8.510800	28.072389	0.000256	20.857240
2682.721589	-3.012100	2.845200	-8.567000	28.075612	0.000257	20.851002
2683.723814	-2.992200	2.844300	-8.509500	28.045987	0.000256	20.861008
2684.725520	-3.016700	2.841000	-8.569700	28.091227	0.000257	20.869564
2685.721674	-3.016400	2.839800	-8.564900	28.139993	0.000257	20.858439
2686.722235	-2.995900	2.837700	-8.499400	28.192765	0.000257	20.850875
2687.723211	-2.994700	2.835400	-8.490100	28.244669	0.000259	20.841017
2688.720633	-2.997800	2.833700	-8.493800	28.263482	0.000257	20.858061
2689.724492	-3.006000	2.831500	-8.509900	28.237805	0.000260	20.854969
2690.724754	-3.000700	2.828700	-8.487100	28.250594	0.000256	20.833707
2691.725274	-3.015100	2.826400	-8.521400	28.232947	0.000257	20.843915
2692.724834	-2.979400	2.825500	-8.416700	28.246408	0.000256	20.843717
2693.724990	-3.016900	2.821200	-8.510600	28.252924	0.000258	20.831786
2694.723701	-2.974400	2.821500	-8.390300	28.270595	0.000259	20.849577
2695.724713	-3.011600	2.817900	-8.486100	28.255205	0.000258	20.839298
2696.724101	-2.999700	2.814500	-8.441200	28.260582	0.000258	20.848979
2697.724662	-2.964500	2.814200	-8.341600	28.326734	0.000258	20.822650
2698.725899	-2.995100	2.809900	-8.414900	28.362892	0.000256	20.840565
2699.735280	-2.976600	2.807500	-8.355900	28.364628	0.000257	20.833778
2700.726854	-3.009800	2.804300	-8.439400	28.351218	0.000255	20.836871
2701.732787	-3.019100	2.801700	-8.457300	28.337337	0.000258	20.827162
2702.734493	-2.998900	2.801800	-8.401600	28.362169	0.000258	20.834147
2703.730094	-3.013400	2.799000	-8.433100	28.377930	0.000257	20.840534
2704.734433	-2.984900	2.797700	-8.349600	28.409577	0.000257	20.865762
2705.735302	-3.020400	2.792800	-8.434400	28.394137	0.000257	20.829353
2706.729554	-3.026100	2.791300	-8.446200	28.420777	0.000258	20.822040
2707.729091	-3.040500	2.785800	-8.469600	28.400006	0.000257	20.830996
2708.728925	-3.004200	2.785200	-8.365800	28.347663	0.000257	20.826180
2709.728974	-3.010400	2.783300	-8.377500	28.310831	0.000258	20.837932
2710.728102	-2.999100	2.780000	-8.335700	28.304315	0.000257	20.844173
2711.728860	-2.992000	2.777200	-8.308300	28.295638	0.000255	20.819790
2712.728109	-2.997600	2.774100	-8.314400	28.321687	0.000258	20.813775
2713.728892	-3.003800	2.771700	-8.323700	28.338563	0.000258	20.842146
2714.733848	-2.991900	2.768400	-8.281600	28.375914	0.000257	20.838031
2715.731891	-2.997000	2.766400	-8.289500	28.416632	0.000256	20.829719
2716.731131	-3.013500	2.762100	-8.321600	28.428130	0.000256	20.820909
2717.734622	-2.997900	2.759500	-8.271900	28.401613	0.000257	20.832614
2718.733993	-3.005400	2.757200	-8.285000	28.389395	0.000257	20.844018
2719.734105	-3.030700	2.753200	-8.343100	28.397227	0.000257	20.820137
2720.738667	-2.991400	2.751000	-8.228300	28.435590	0.000257	20.813723
2721.730499	-3.025900	2.748400	-8.315000	28.452220	0.000256	20.818616
2722.732722	-3.032900	2.744400	-8.322700	28.484906	0.000256	20.833513
2723.732782	-2.989200	2.742500	-8.197300	28.493929	0.000257	20.837383
2724.733921	-2.980100	2.740100	-8.165500	28.538851	0.000256	20.802492
2725.734208	-3.049300	2.734600	-8.337700	28.563832	0.000257	20.833813
2726.735729	-3.023300	2.731800	-8.257600	28.565863	0.000257	20.828272
2727.740509	-2.980000	2.729400	-8.133000	28.533752	0.000258	20.812055
2728.736916	-2.998600	2.725000	-8.170400	28.478314	0.000258	20.822133
2729.737844	-2.994200	2.724100	-8.155600	28.473556	0.000256	20.818290
2730.738118	-2.967500	2.720200	-8.071200	28.503342	0.000257	20.848759
2731.733730	-2.970900	2.718500	-8.075300	28.559573	0.000256	20.815300
2732.735118	-3.010400	2.710300	-8.158000	28.585834	0.000257	20.820410
2733.741530	-2.974800	2.710800	-8.063000	28.636657	0.000258	20.830820
2734.742146	-2.988800	2.706900	-8.088900	28.654122	0.000256	20.820435
2735.738659	-3.030600	2.700800	-8.184300	28.700357	0.000258	20.811054
2736.744328	-3.009500	2.697400	-8.116500	28.691438	0.000258	20.799225
2737.741364	-2.986200	2.696400	-8.050600	28.683730	0.000258	20.826075
2738.743481	-3.001100	2.692500	-8.079200	28.720947	0.000258	20.824206
2739.735872	-3.021700	2.686900	-8.118500	28.723894	0.000259	20.824330
2740.736464	-2.986800	2.683100	-8.013100	28.737275	0.000258	20.790867
2741.736207	-2.997900	2.680700	-8.034700	28.690644	0.000258	20.817392
2742.737435	-3.012900	2.676300	-8.062200	28.698871	0.000259	20.816195
2743.738647	-3.013600	2.672000	-8.051200	28.667703	0.000257	20.807562
2744.738564	-2.991300	2.666800	-7.976200	28.681724	0.000257	20.795606
2745.738142	-2.994700	2.663000	-7.973500	28.699788	0.000257	20.803369
2746.741228	-3.010100	2.659000	-8.002900	28.733586	0.000256	20.797583
2747.739847	-3.009200	2.654700	-7.987900	28.762026	0.000257	20.826704
2748.739187	-2.981500	2.651400	-7.904700	28.782488	0.000256	20.796582
2749.741926	-2.972000	2.647400	-7.867000	28.787174	0.000258	20.801776
2750.743687	-2.973200	2.641800	-7.853700	28.818609	0.000254	20.823958
2751.740067	-3.006300	2.637900	-7.929400	28.826140	0.000257	20.805467
2752.744734	-2.988100	2.633800	-7.869200	28.771960	0.000258	20.808736
2753.741280	-2.979300	2.631100	-7.837900	28.705388	0.000257	20.797155
2754.740312	-2.979100	2.625100	-7.819400	28.641989	0.000258	20.810112
2755.741382	-3.019400	2.619500	-7.908100	28.644937	0.000258	20.806443
2756.744634	-2.990600	2.615100	-7.819400	28.611782	0.000256	20.808138
2757.744936	-3.000000	2.610000	-7.828400	28.653906	0.000258	20.805519
2758.745142	-2.978500	2.605700	-7.760100	28.684407	0.000258	20.795937
2759.743886	-2.973200	2.602000	-7.735700	28.725983	0.000256	20.810787
2760.741129	-2.985000	2.595600	-7.747000	28.780510	0.000256	20.799330
2761.742089	-2.994500	2.590300	-7.755800	28.809644	0.000257	20.800703
2762.743603	-3.024400	2.584000	-7.813800	28.779421	0.000258	20.800130
2763.743414	-2.999400	2.577600	-7.730700	28.741391	0.000257	20.780789
2764.742361	-3.027600	2.572400	-7.787500	28.703264	0.000257	20.821095
2765.742979	-2.993700	2.567800	-7.686500	28.691000	0.000258	20.779819
2766.757283	-2.999600	2.563200	-7.687800	28.687357	0.000257	20.798909
2767.743535	-3.012800	2.557500	-7.704700	28.684484	0.000256	20.805972
2768.746625	-2.977000	2.551200	-7.593000	28.660275	0.000256	20.782537
2769.744740	-3.002200	2.545700	-7.641400	28.661669	0.000257	20.796268
2770.744648	-2.989900	2.540000	-7.592700	28.676111	0.000258	20.777624
2771.743767	-2.994500	2.534000	-7.586600	28.747910	0.000256	20.786881
2772.743302	-2.984800	2.528000	-7.544800	28.820027	0.000258	20.806421
2773.743614	-2.996800	2.520800	-7.553400	28.872872	0.000256	20.800387
2774.744153	-2.994600	2.514600	-7.528700	28.864868	0.000258	20.781892
2775.745155	-3.011100	2.507900	-7.550200	28.832939	0.000259	20.800461
2776.744687	-3.010600	2.503200	-7.535700	28.781137	0.000259	20.779099
2777.745793	-2.979600	2.497000	-7.439100	28.724626	0.000259	20.766746
