LabVIEW Measurement	
Writer_Version	2
Reader_Version	2
Separator	Tab
Decimal_Separator	.
Multi_Headings	No
X_Columns	One
Time_Pref	Absolute
Operator	admin
Description	Clolumns are: time, Current, Voltage, Power, Battery Temp, and Chamber Temp
Date	2024/08/16
Time	13:06:06.104549407958984375
***End_of_Header***	
	
Channels	6						
Samples	1	1	1	1	1	1	
Date	2024/09/10	2024/09/10	2024/09/10	2024/09/10	2024/09/10	2024/09/10	
Time	06:36:58.6279449462890625	06:36:58.6320810317993164062	06:36:58.63709259033203125	06:36:58.5943150520324707031	06:36:58.5943150520324707031	06:36:58.5943150520324707031	
X_Dimension	Time	Time	Time	Time	Time	Time	
X0	0.0000000000000000E+0	0.0000000000000000E+0	0.0000000000000000E+0	0.0000000000000000E+0	0.0000000000000000E+0	0.0000000000000000E+0	
Delta_X	1.000000	1.000000	1.000000	1.000000	1.000000	1.000000	
***End_of_Header***							
X_Value	Untitled	Untitled 1	Untitled 2	Untitled 3	Untitled 4	Untitled 5	Comment
0.000000	-0.004196	4.095200	-0.017171	20.917371	0.000892	20.657533
0.986418	-3.010100	3.920700	-11.801000	20.896462	0.000893	20.669339
1.981840	-3.001600	3.914600	-11.749000	20.881096	0.000893	20.644961
2.981544	-2.983200	3.910000	-11.663000	20.917167	0.000892	20.663967
3.986903	-3.007000	3.904700	-11.740000	20.914820	0.000891	20.649291
4.982852	-3.015600	3.901600	-11.763000	20.887834	0.000889	20.663081
5.989429	-2.977500	3.900600	-11.613000	20.902653	0.000890	20.653718
6.989030	-2.991600	3.898100	-11.661000	20.922115	0.000888	20.644258
7.987370	-3.000600	3.893400	-11.682000	20.924475	0.000888	20.652309
8.985036	-3.004300	3.891600	-11.690000	20.907238	0.000888	20.640284
9.987866	-2.986700	3.890100	-11.617000	20.925790	0.000886	20.665006
10.985269	-2.999600	3.887500	-11.659000	20.922351	0.000886	20.626473
11.985952	-2.979800	3.888700	-11.586000	20.940269	0.000887	20.659571
12.993983	-3.006800	3.885900	-11.683000	20.932940	0.000885	20.652714
13.991393	-3.015500	3.884700	-11.713000	20.975816	0.000882	20.659561
14.986262	-2.981000	3.883900	-11.577000	20.939093	0.000883	20.650333
15.990230	-3.019700	3.882000	-11.721000	20.958143	0.000881	20.642832
16.985030	-3.009000	3.881000	-11.676000	20.938498	0.000881	20.660170
17.988995	-3.006400	3.880300	-11.665000	20.952516	0.000882	20.657595
18.989460	-3.021900	3.878200	-11.719000	20.953039	0.000881	20.658118
19.988010	-3.006900	3.880100	-11.666000	20.962777	0.000881	20.654106
20.989000	-3.001200	3.877400	-11.635000	20.967479	0.000879	20.654068
21.990937	-3.033200	3.874700	-11.751000	20.974058	0.000882	20.648793
22.987366	-3.022100	3.873400	-11.705000	20.976844	0.000878	20.673393
23.990545	-2.979000	3.874200	-11.540000	20.974023	0.000880	20.655397
24.994095	-2.998400	3.874000	-11.614000	20.991588	0.000879	20.649731
25.992331	-3.000600	3.873300	-11.620000	20.999807	0.000878	20.656529
26.995790	-3.012200	3.872700	-11.664000	20.967715	0.000877	20.655726
27.996061	-2.968400	3.874000	-11.498000	21.001485	0.000877	20.653466
28.993589	-2.975400	3.873600	-11.525000	21.021469	0.000877	20.668713
30.001613	-2.976000	3.872300	-11.522000	21.016631	0.000876	20.676678
30.999829	-2.969500	3.870600	-11.493000	21.033576	0.000875	20.682247
31.993531	-3.007500	3.869800	-11.637000	21.051614	0.000877	20.674684
32.998405	-3.005600	3.869500	-11.628000	21.048417	0.000875	20.672908
33.999219	-2.994200	3.870000	-11.586000	21.051407	0.000874	20.673528
34.995386	-2.986800	3.869600	-11.556000	21.048649	0.000874	20.678830
35.998204	-3.005100	3.866600	-11.618000	21.064375	0.000875	20.672275
36.997965	-2.990400	3.868000	-11.566000	21.058140	0.000873	20.658450
37.997421	-2.988900	3.867700	-11.560000	21.083206	0.000872	20.685895
39.000216	-3.015600	3.866200	-11.658000	21.090545	0.000876	20.662413
40.000482	-2.991400	3.865600	-11.562000	21.106686	0.000874	20.686622
41.003378	-2.988500	3.866900	-11.555000	21.122948	0.000873	20.656892
41.998906	-2.994700	3.864100	-11.570000	21.130934	0.000874	20.673417
42.998930	-3.031800	3.863200	-11.711000	21.131190	0.000874	20.653282
44.001144	-2.982100	3.863100	-11.518000	21.111097	0.000873	20.667325
45.000099	-3.003400	3.862800	-11.601000	21.149614	0.000874	20.672662
46.000350	-3.006600	3.862300	-11.612000	21.151326	0.000872	20.668211
47.002182	-2.986300	3.860900	-11.528000	21.139379	0.000875	20.675701
47.998660	-2.992300	3.862900	-11.557000	21.171878	0.000872	20.669329
49.000639	-2.994700	3.861800	-11.564000	21.179158	0.000873	20.677086
49.998043	-3.000600	3.861500	-11.586000	21.184396	0.000873	20.671420
51.001147	-2.993500	3.861200	-11.558000	21.200352	0.000872	20.660354
52.000233	-3.021300	3.859700	-11.659000	21.194471	0.000869	20.676283
52.999042	-3.019600	3.858800	-11.651000	21.192914	0.000872	20.660973
54.001492	-3.001800	3.859200	-11.583000	21.201044	0.000874	20.688076
55.005253	-2.995700	3.860200	-11.563000	21.207801	0.000872	20.678713
56.000201	-2.998500	3.858600	-11.568000	21.218506	0.000872	20.675196
57.002207	-3.012100	3.859300	-11.623000	21.212624	0.000872	20.668363
58.001337	-3.028200	3.858000	-11.682000	21.220706	0.000870	20.677397
59.003847	-3.001200	3.858500	-11.580000	21.239637	0.000870	20.683534
60.000843	-2.999300	3.857800	-11.570000	21.229200	0.000872	20.677359
61.002300	-3.006300	3.856300	-11.591000	21.239932	0.000872	20.669602
62.000253	-3.019300	3.857100	-11.644000	21.261149	0.000870	20.694150
63.001606	-2.994200	3.856900	-11.547000	21.261125	0.000872	20.670890
64.000553	-2.990100	3.857900	-11.533000	21.272621	0.000871	20.719379
65.005627	-3.006900	3.857300	-11.598000	21.270213	0.000873	20.668128
66.000989	-3.003800	3.855300	-11.579000	21.273773	0.000872	20.680225
67.003696	-2.984400	3.856600	-11.508000	21.278087	0.000870	20.685016
68.005671	-3.015900	3.854600	-11.624000	21.289839	0.000872	20.683496
69.002346	-2.979300	3.855700	-11.487000	21.301993	0.000871	20.671471
70.002565	-2.993700	3.854900	-11.539000	21.325714	0.000870	20.672444
70.999970	-2.992900	3.855100	-11.537000	21.315796	0.000870	20.690024
72.004822	-2.987200	3.854800	-11.514000	21.307424	0.000871	20.698245
73.009761	-2.988900	3.855200	-11.521000	21.316647	0.000871	20.663372
74.003598	-2.968300	3.855300	-11.442000	21.318653	0.000873	20.689090
75.001441	-2.995600	3.854300	-11.545000	21.335715	0.000871	20.663957
76.003162	-2.987000	3.854700	-11.512000	21.355291	0.000872	20.675957
77.003153	-3.006200	3.852700	-11.581000	21.344768	0.000871	20.696251
78.001177	-2.973600	3.853900	-11.459000	21.387238	0.000870	20.694645
79.002855	-2.992100	3.853200	-11.528000	21.383886	0.000870	20.708836
80.006186	-2.994500	3.853000	-11.537000	21.390254	0.000870	20.700508
81.008995	-3.014300	3.852100	-11.609000	21.416903	0.000870	20.703464
82.005891	-3.005800	3.851900	-11.577000	21.412030	0.000872	20.684361
83.013874	-3.010200	3.850400	-11.589000	21.424935	0.000872	20.686843
84.008204	-3.016300	3.850800	-11.614000	21.421521	0.000872	20.691488
85.009322	-3.007000	3.851000	-11.579000	21.429239	0.000871	20.677872
86.010524	-3.002700	3.850000	-11.558000	21.456178	0.000871	20.697715
87.009093	-3.010700	3.851300	-11.593000	21.438838	0.000871	20.695064
88.005074	-2.984400	3.851400	-11.492000	21.461404	0.000871	20.675442
89.016334	-2.997300	3.851400	-11.543000	21.462013	0.000871	20.704029
90.010505	-2.996200	3.849600	-11.533000	21.466558	0.000872	20.691980
91.007507	-3.004500	3.850200	-11.567000	21.476364	0.000872	20.703689
92.009811	-2.988300	3.849100	-11.501000	21.491393	0.000872	20.693122
93.012894	-2.982100	3.849800	-11.479000	21.494811	0.000871	20.695593
94.012086	-2.980100	3.849700	-11.469000	21.504907	0.000873	20.697161
95.008237	-3.008100	3.848700	-11.576000	21.499307	0.000871	20.681599
96.011706	-3.000500	3.848200	-11.546000	21.508165	0.000873	20.684774
97.007901	-3.003000	3.847500	-11.553000	21.525698	0.000873	20.695680
98.012334	-3.002900	3.848700	-11.556000	21.511095	0.000874	20.695292
99.011034	-2.996700	3.848300	-11.531000	21.538153	0.000875	20.710989
100.011387	-3.006000	3.846300	-11.562000	21.538288	0.000875	20.678405
101.014703	-2.999800	3.848200	-11.542000	21.552590	0.000872	20.689872
102.010154	-3.001100	3.846200	-11.542000	21.565263	0.000874	20.698286
103.010283	-3.005300	3.846600	-11.559000	21.546067	0.000875	20.690457
104.014189	-2.989800	3.846700	-11.499000	21.577292	0.000876	20.688512
105.010864	-2.981700	3.846400	-11.468000	21.564097	0.000874	20.682420
106.009830	-2.989700	3.845000	-11.493000	21.596622	0.000875	20.689838
107.017541	-3.011000	3.845600	-11.578000	21.598995	0.000875	20.692686
108.012342	-2.999200	3.846400	-11.535000	21.601278	0.000875	20.696867
109.011906	-2.987100	3.846100	-11.486000	21.595737	0.000876	20.709816
110.014849	-2.983300	3.844600	-11.468000	21.601132	0.000875	20.712845
111.014390	-3.003200	3.844600	-11.544000	21.600576	0.000876	20.704700
112.016398	-2.985100	3.844600	-11.475000	21.617522	0.000877	20.706486
113.016031	-3.001700	3.844300	-11.538000	21.643170	0.000877	20.711291
114.014282	-3.002100	3.843700	-11.539000	21.660604	0.000876	20.701236
115.014009	-3.006700	3.843200	-11.555000	21.666328	0.000875	20.702222
116.017461	-3.019600	3.842000	-11.600000	21.664578	0.000878	20.700945
117.016086	-2.998800	3.843300	-11.523000	21.676838	0.000878	20.690454
118.014793	-2.979000	3.844600	-11.452000	21.694634	0.000877	20.694514
119.019881	-2.989800	3.842700	-11.488000	21.722176	0.000878	20.701689
120.014261	-2.994100	3.842000	-11.501000	21.705314	0.000877	20.694296
121.014465	-2.995600	3.840700	-11.503000	21.705483	0.000878	20.701578
122.016555	-2.996100	3.841400	-11.507000	21.699677	0.000878	20.703354
123.016004	-3.000600	3.841000	-11.524000	21.731240	0.000879	20.705071
124.015167	-3.003000	3.840800	-11.532000	21.739609	0.000879	20.699221
125.019032	-3.008100	3.841700	-11.555000	21.763335	0.000879	20.746204
126.015418	-2.990600	3.841100	-11.486000	21.747836	0.000880	20.699869
127.018087	-3.004800	3.839900	-11.537000	21.767941	0.000882	20.711931
128.015439	-3.005100	3.841100	-11.542000	21.768197	0.000880	20.717878
129.016877	-3.008800	3.839800	-11.551000	21.764006	0.000881	20.699931
130.021482	-2.987000	3.840400	-11.470000	21.781389	0.000881	20.699312
131.016977	-3.020100	3.839800	-11.596000	21.791449	0.000881	20.726925
132.018867	-2.993700	3.840600	-11.496000	21.790086	0.000883	20.710862
133.016709	-3.009200	3.838600	-11.550000	21.806425	0.000882	20.710620
134.020794	-2.987300	3.839900	-11.470000	21.823310	0.000882	20.709502
135.027526	-3.010400	3.838200	-11.554000	21.822252	0.000883	20.695165
136.020221	-3.010400	3.839700	-11.558000	21.825959	0.000882	20.726853
137.019372	-2.999400	3.839800	-11.516000	21.849438	0.000882	20.718110
138.024382	-3.018800	3.838200	-11.585000	21.860856	0.000886	20.714365
139.017848	-2.993500	3.838900	-11.490000	21.838701	0.000884	20.707363
140.021490	-3.016000	3.837500	-11.572000	21.840147	0.000885	20.704067
141.022765	-2.997700	3.839000	-11.507000	21.860029	0.000884	20.716382
142.020869	-2.993100	3.837800	-11.486000	21.834873	0.000885	20.711592
143.023728	-2.999700	3.837500	-11.511000	21.856786	0.000886	20.736371
144.023869	-2.992800	3.836300	-11.479000	21.860648	0.000887	20.718899
145.024433	-3.003300	3.836500	-11.521000	21.888147	0.000886	20.725087
146.032818	-2.981100	3.837100	-11.438000	21.884551	0.000885	20.708210
147.028393	-2.986000	3.837300	-11.458000	21.893151	0.000887	20.709706
148.023877	-3.010100	3.834900	-11.542000	21.888268	0.000886	20.703396
149.024749	-3.007400	3.836900	-11.537000	21.895993	0.000888	20.718241
150.028085	-2.994800	3.837100	-11.490000	21.910252	0.000889	20.706909
151.026132	-2.994300	3.834300	-11.480000	21.905902	0.000891	20.707297
152.027574	-2.989900	3.836600	-11.468000	21.928495	0.000889	20.726119
153.026786	-2.987200	3.834700	-11.454000	21.918184	0.000891	20.719591
154.027114	-2.980900	3.834900	-11.431000	21.938857	0.000890	20.736018
155.025118	-3.003000	3.834000	-11.513000	21.963741	0.000892	20.729158
156.025267	-2.987300	3.835200	-11.456000	21.956843	0.000889	20.723675
157.026237	-2.962200	3.835300	-11.360000	21.967506	0.000891	20.732453
158.026698	-3.002100	3.833000	-11.506000	21.977525	0.000892	20.721145
159.029679	-2.989600	3.834300	-11.462000	21.992562	0.000891	20.716282
160.032601	-2.995100	3.835300	-11.486000	21.986477	0.000890	20.724416
161.030656	-3.014100	3.832600	-11.551000	22.000977	0.000893	20.724232
162.034219	-3.018200	3.833600	-11.569000	21.982165	0.000892	20.717729
163.033689	-3.030800	3.832200	-11.613000	22.011788	0.000892	20.726046
164.034246	-2.983400	3.833900	-11.437000	22.009406	0.000894	20.738361
165.036852	-2.999100	3.832200	-11.492000	22.018077	0.000895	20.736609
166.032140	-3.014200	3.831500	-11.548000	22.029700	0.000894	20.742081
167.032218	-2.984700	3.832500	-11.438000	22.059114	0.000896	20.722214
168.033103	-2.979800	3.832000	-11.417000	22.047419	0.000896	20.744172
169.035258	-2.990700	3.831500	-11.458000	22.050599	0.000895	20.734079
170.033961	-2.992400	3.831600	-11.465000	22.048048	0.000898	20.729154
171.033676	-3.009000	3.831900	-11.529000	22.049966	0.000897	20.741033
172.034124	-2.971900	3.833100	-11.390000	22.052774	0.000896	20.711125
173.033661	-3.023000	3.829900	-11.577000	22.057545	0.000897	20.755732
174.036840	-2.987700	3.831100	-11.444000	22.091003	0.000898	20.736121
175.035706	-2.993100	3.829800	-11.462000	22.076490	0.000900	20.729652
176.034128	-2.994600	3.830800	-11.471000	22.106836	0.000899	20.739645
177.031816	-3.002100	3.829500	-11.495000	22.087151	0.000901	20.709979
178.036448	-3.004300	3.829400	-11.504000	22.095725	0.000901	20.745591
179.030331	-2.991200	3.830400	-11.455000	22.093149	0.000900	20.742538
180.036720	-2.999600	3.829900	-11.487000	22.105705	0.000901	20.740410
181.032298	-2.988100	3.829600	-11.442000	22.126849	0.000904	20.716057
182.033110	-3.002600	3.828100	-11.493000	22.120736	0.000902	20.749768
183.036599	-2.998100	3.830500	-11.483000	22.147601	0.000901	20.757224
184.030369	-2.986600	3.828700	-11.432000	22.153235	0.000903	20.743424
185.032652	-2.981200	3.828200	-11.412000	22.144368	0.000905	20.751617
186.039306	-2.985500	3.827100	-11.424000	22.149941	0.000904	20.751506
187.036857	-3.004500	3.827200	-11.497000	22.145060	0.000903	20.752783
188.034495	-3.008800	3.827600	-11.516000	22.166454	0.000906	20.755237
189.043817	-3.011000	3.825900	-11.519000	22.179507	0.000904	20.766883
190.037231	-2.998400	3.826400	-11.471000	22.195450	0.000905	20.757715
191.039064	-3.003000	3.827200	-11.492000	22.203781	0.000907	20.744244
192.041623	-3.010500	3.826600	-11.518000	22.220646	0.000906	20.750699
193.038049	-3.004700	3.825000	-11.492000	22.210808	0.000906	20.773092
194.037044	-3.005400	3.825800	-11.496000	22.245751	0.000907	20.758293
195.038097	-2.989600	3.826600	-11.439000	22.250670	0.000909	20.778391
196.038983	-3.014300	3.825700	-11.530000	22.250293	0.000908	20.749090
197.039209	-2.997700	3.826500	-11.469000	22.243335	0.000908	20.757770
198.044962	-2.982000	3.824800	-11.405000	22.289062	0.000908	20.775581
199.039330	-3.016800	3.823400	-11.533000	22.281399	0.000908	20.781658
200.038343	-2.974000	3.825100	-11.374000	22.278350	0.000910	20.753949
201.040830	-3.003900	3.825000	-11.489000	22.303983	0.000910	20.755908
202.042132	-2.992600	3.824000	-11.442000	22.325399	0.000912	20.783991
203.043894	-2.997600	3.824300	-11.463000	22.303569	0.000911	20.779201
204.041267	-3.021100	3.823900	-11.550000	22.320809	0.000912	20.752367
205.045201	-3.014700	3.822300	-11.522000	22.306579	0.000913	20.769413
206.041400	-2.983300	3.824600	-11.409000	22.291827	0.000912	20.771237
207.044363	-3.007200	3.822400	-11.494000	22.302777	0.000915	20.781253
208.044058	-3.027000	3.822700	-11.569000	22.315466	0.000914	20.777363
209.046165	-3.007300	3.822600	-11.494000	22.311131	0.000912	20.763540
210.046517	-3.034500	3.820100	-11.591000	22.310450	0.000916	20.778505
211.044764	-2.998200	3.823600	-11.462000	22.325932	0.000915	20.767454
212.046979	-3.009400	3.822500	-11.503000	22.345975	0.000915	20.788947
213.048667	-3.004500	3.821400	-11.480000	22.323685	0.000917	20.769946
214.047337	-2.997600	3.822100	-11.455000	22.352096	0.000917	20.752876
215.047066	-3.025800	3.820300	-11.557000	22.343148	0.000919	20.785642
216.046361	-3.007400	3.820300	-11.487000	22.364151	0.000918	20.765897
217.047801	-2.992400	3.820800	-11.432000	22.400089	0.000917	20.767271
218.048556	-3.000700	3.820400	-11.463000	22.380821	0.000920	20.797288
219.052476	-2.988900	3.821400	-11.421000	22.399519	0.000920	20.774286
220.050002	-3.005700	3.819800	-11.479000	22.399467	0.000920	20.784192
221.051423	-3.003600	3.821000	-11.476000	22.385203	0.000920	20.774650
222.050590	-2.971700	3.821500	-11.355000	22.408975	0.000921	20.773798
223.051255	-3.000900	3.820100	-11.462000	22.412579	0.000922	20.792581
224.055830	-3.016300	3.818300	-11.515000	22.421769	0.000922	20.792775
225.051481	-3.003700	3.818700	-11.469000	22.430997	0.000922	20.774515
226.053288	-2.986200	3.818800	-11.403000	22.434249	0.000923	20.784884
227.052383	-2.972900	3.821000	-11.359000	22.451719	0.000924	20.771085
228.053226	-2.965700	3.819300	-11.325000	22.458942	0.000924	20.784482
229.053308	-2.994700	3.819000	-11.436000	22.468702	0.000924	20.791411
230.048517	-2.989300	3.818600	-11.414000	22.470011	0.000923	20.793671
231.053607	-2.984500	3.818200	-11.394000	22.489060	0.000926	20.793782
232.049084	-2.991300	3.816200	-11.414000	22.487239	0.000927	20.798122
233.049599	-2.991100	3.818400	-11.419000	22.493854	0.000927	20.799531
234.054006	-2.998300	3.816800	-11.443000	22.500143	0.000927	20.776906
235.050138	-2.984400	3.817400	-11.391000	22.496013	0.000927	20.801220
236.053659	-3.010600	3.816400	-11.489000	22.495433	0.000927	20.794474
237.052070	-2.980200	3.817400	-11.376000	22.509415	0.000927	20.782873
238.054531	-2.997000	3.817100	-11.439000	22.516738	0.000930	20.783095
239.053599	-2.999200	3.816900	-11.446000	22.516275	0.000929	20.789743
240.053825	-2.986200	3.815800	-11.394000	22.503893	0.000930	20.771652
241.060516	-2.980900	3.816300	-11.374000	22.513348	0.000928	20.776380
242.055233	-2.994000	3.815000	-11.420000	22.559623	0.000930	20.772940
243.054646	-2.989200	3.814500	-11.401000	22.537227	0.000931	20.769950
244.056856	-3.013200	3.814200	-11.493000	22.556783	0.000933	20.776733
245.055076	-2.998500	3.813400	-11.433000	22.566213	0.000932	20.805145
246.058613	-2.985600	3.815000	-11.389000	22.564150	0.000932	20.797388
247.057760	-2.981400	3.814500	-11.372000	22.578909	0.000934	20.786092
248.055882	-3.015200	3.813000	-11.495000	22.598247	0.000934	20.792183
249.058224	-3.018500	3.812600	-11.507000	22.600517	0.000934	20.794457
250.057794	-2.996100	3.813400	-11.424000	22.622670	0.000934	20.758324
251.056593	-3.005900	3.813000	-11.460000	22.633897	0.000936	20.759137
252.057359	-2.996400	3.813300	-11.426000	22.657493	0.000936	20.790359
253.059430	-2.999200	3.811500	-11.431000	22.644809	0.000936	20.769593
254.062476	-2.995000	3.812900	-11.418000	22.650054	0.000937	20.802822
255.057022	-3.027000	3.809800	-11.531000	22.672884	0.000938	20.765471
256.061710	-3.017100	3.810900	-11.498000	22.674304	0.000938	20.774480
257.060328	-2.996700	3.811600	-11.421000	22.665493	0.000938	20.785095
258.058448	-2.995900	3.811800	-11.419000	22.672410	0.000940	20.762626
259.062697	-2.999900	3.811400	-11.432000	22.645089	0.000938	20.776038
260.059309	-2.996400	3.810700	-11.418000	22.618167	0.000940	20.776100
261.056888	-3.019000	3.810800	-11.503000	22.614622	0.000940	20.747892
262.061728	-2.997600	3.810000	-11.419000	22.629712	0.000941	20.767274
263.058908	-2.979300	3.810900	-11.352000	22.618337	0.000943	20.753035
264.060028	-3.000000	3.810500	-11.430000	22.628195	0.000943	20.744417
265.065809	-2.990400	3.809400	-11.391000	22.634919	0.000943	20.773438
266.058068	-2.982100	3.808800	-11.357000	22.638745	0.000942	20.750716
267.058578	-2.966200	3.809700	-11.299000	22.636219	0.000944	20.749135
268.061503	-2.994000	3.809900	-11.406000	22.646986	0.000944	20.752333
269.062047	-2.992500	3.808600	-11.397000	22.667341	0.000944	20.770351
270.058088	-2.998400	3.808100	-11.418000	22.649449	0.000946	20.742472
271.060665	-2.990800	3.808800	-11.390000	22.644218	0.000946	20.767105
272.061461	-3.006500	3.808800	-11.450000	22.674210	0.000947	20.765378
273.059128	-3.030100	3.806100	-11.532000	22.691822	0.000947	20.753146
274.061604	-3.005800	3.807900	-11.445000	22.690730	0.000947	20.758217
275.059389	-3.004200	3.807500	-11.437000	22.696193	0.000946	20.755628
276.057402	-2.974800	3.808900	-11.330000	22.697367	0.000949	20.750166
277.063719	-3.023000	3.807000	-11.508000	22.709274	0.000950	20.763041
278.063790	-2.992100	3.806600	-11.388000	22.711385	0.000950	20.754250
279.058441	-2.970300	3.806500	-11.306000	22.705570	0.000950	20.770711
280.065268	-3.012700	3.804700	-11.461000	22.702343	0.000951	20.764159
281.061099	-2.997200	3.805500	-11.406000	22.707353	0.000950	20.763014
282.058871	-2.986800	3.806700	-11.369000	22.722998	0.000949	20.738381
283.065912	-3.013500	3.803400	-11.460000	22.710725	0.000951	20.745054
284.062595	-3.000800	3.806000	-11.419000	22.716589	0.000953	20.751402
285.057634	-3.018800	3.804700	-11.484000	22.716005	0.000952	20.743704
286.057765	-3.010800	3.805000	-11.455000	22.733723	0.000952	20.740115
287.060561	-2.999100	3.804600	-11.409000	22.726951	0.000953	20.744711
288.060079	-2.989200	3.805100	-11.373000	22.734183	0.000952	20.744369
289.058654	-3.012900	3.802900	-11.456000	22.777961	0.000953	20.747446
290.061060	-2.988700	3.804300	-11.367000	22.749426	0.000952	20.743043
291.059862	-3.012200	3.803100	-11.454000	22.767534	0.000954	20.765925
292.060252	-3.021400	3.803000	-11.489000	22.792013	0.000954	20.743504
293.061436	-3.019000	3.803500	-11.482000	22.787559	0.000955	20.732878
294.062361	-3.014300	3.802000	-11.459000	22.821103	0.000955	20.746093
295.058814	-3.027800	3.801800	-11.510000	22.812960	0.000957	20.736038
296.065025	-2.999800	3.802700	-11.407000	22.823701	0.000958	20.744902
297.060167	-3.013600	3.800600	-11.453000	22.814173	0.000957	20.742469
298.063212	-3.022300	3.799800	-11.483000	22.820022	0.000956	20.744061
299.061650	-2.973800	3.801500	-11.303000	22.778635	0.000959	20.748121
300.060366	-2.990100	3.800700	-11.363000	22.807290	0.000959	20.736523
301.060009	-2.998700	3.800500	-11.395000	22.821756	0.000959	20.724935
302.064841	-2.992800	3.800900	-11.375000	22.834743	0.000959	20.752645
303.061085	-2.998600	3.799900	-11.392000	22.841732	0.000961	20.737834
304.061110	-2.993300	3.801000	-11.376000	22.879934	0.000962	20.753347
305.065188	-2.989800	3.800900	-11.362000	22.892385	0.000961	20.738793
306.061825	-2.999700	3.799400	-11.395000	22.907433	0.000962	20.719255
307.068814	-2.999700	3.799900	-11.398000	22.927079	0.000962	20.742258
308.065402	-2.992600	3.798600	-11.365000	22.938109	0.000963	20.718220
309.063753	-2.994800	3.799100	-11.375000	22.934043	0.000964	20.736907
310.065906	-2.983100	3.799300	-11.332000	22.928765	0.000965	20.726402
311.063769	-3.028500	3.797900	-11.500000	22.939999	0.000963	20.740503
312.066385	-3.009600	3.797400	-11.427000	22.943288	0.000965	20.746643
313.065692	-2.987100	3.799100	-11.347000	22.919635	0.000964	20.748076
314.064660	-3.010300	3.796600	-11.428000	22.950787	0.000966	20.746096
315.064130	-2.978300	3.798300	-11.312000	22.944355	0.000966	20.732539
316.070069	-2.960900	3.799100	-11.247000	22.923445	0.000969	20.744781
317.068013	-3.014600	3.797000	-11.446000	22.915728	0.000968	20.733730
318.065945	-2.999100	3.795600	-11.383000	22.917545	0.000967	20.730809
319.068274	-3.028500	3.794800	-11.491000	22.897716	0.000968	20.732754
320.067797	-3.013900	3.795300	-11.438000	22.901440	0.000969	20.730795
321.064942	-3.020200	3.795100	-11.460000	22.900009	0.000968	20.723672
322.074282	-3.003600	3.794800	-11.397000	22.909413	0.000969	20.736412
323.066409	-2.981700	3.794800	-11.314000	22.890554	0.000969	20.718940
324.064605	-3.003500	3.795700	-11.399000	22.904086	0.000970	20.741033
325.065829	-3.005900	3.794500	-11.405000	22.916073	0.000971	20.731231
326.067888	-3.006100	3.793900	-11.404000	22.934811	0.000972	20.726770
327.070235	-2.998300	3.793300	-11.372000	22.954190	0.000971	20.741445
328.069578	-2.972100	3.794100	-11.275000	22.961033	0.000972	20.726489
329.067804	-3.011300	3.792900	-11.419000	22.954494	0.000972	20.731318
330.065569	-3.024200	3.791900	-11.466000	22.970415	0.000973	20.715500
331.068698	-3.007500	3.794000	-11.410000	22.969117	0.000972	20.736011
332.077117	-2.974500	3.793400	-11.282000	22.964008	0.000973	20.743695
333.069611	-2.988100	3.792100	-11.329000	22.971738	0.000975	20.718248
334.068371	-2.993100	3.792200	-11.348000	22.982198	0.000974	20.726358
335.069642	-2.996700	3.793200	-11.365000	22.996796	0.000976	20.730553
336.067846	-3.001600	3.791000	-11.378000	23.033612	0.000977	20.732352
337.069850	-2.987600	3.792000	-11.328000	23.047760	0.000974	20.721872
338.067779	-2.982500	3.791900	-11.308000	23.069262	0.000975	20.709751
339.068627	-3.005300	3.790400	-11.390000	23.060889	0.000976	20.721277
340.070548	-2.988200	3.791000	-11.327000	23.059956	0.000978	20.719394
341.066794	-2.993500	3.790300	-11.345000	23.066605	0.000977	20.730324
342.067405	-3.003300	3.790800	-11.384000	23.062833	0.000978	20.710422
343.068976	-2.988900	3.790600	-11.329000	23.033591	0.000976	20.729486
344.070026	-2.996700	3.790100	-11.358000	23.027864	0.000978	20.725170
345.069492	-2.993100	3.790800	-11.345000	23.040520	0.000978	20.719359
346.070026	-3.014900	3.788100	-11.420000	23.061828	0.000980	20.723640
347.072044	-2.994600	3.788800	-11.345000	23.058941	0.000979	20.725963
348.069471	-3.009500	3.788400	-11.400000	23.036116	0.000980	20.723481
349.070074	-2.991100	3.788300	-11.330000	23.057825	0.000981	20.722000
350.070132	-3.017400	3.787700	-11.428000	23.037791	0.000980	20.712831
351.072263	-3.001200	3.787300	-11.366000	23.063662	0.000980	20.697501
352.070180	-3.003500	3.786200	-11.371000	23.066864	0.000981	20.724419
353.071452	-2.994500	3.786400	-11.338000	23.104323	0.000982	20.719279
354.075063	-2.992800	3.786600	-11.332000	23.121513	0.000982	20.719435
355.072274	-2.995000	3.785900	-11.337000	23.124839	0.000982	20.715181
356.071946	-2.983700	3.787800	-11.300000	23.131657	0.000981	20.735291
357.076885	-2.984900	3.785800	-11.299000	23.147310	0.000983	20.719206
358.073380	-3.009600	3.783900	-11.387000	23.145490	0.000983	20.692724
359.076921	-2.997700	3.786800	-11.350000	23.144399	0.000982	20.706805
360.072529	-3.010700	3.785100	-11.395000	23.155803	0.000982	20.705905
361.077221	-2.984800	3.785000	-11.295000	23.183830	0.000984	20.695583
362.077034	-2.968200	3.785900	-11.236000	23.176916	0.000984	20.694344
363.075693	-3.014600	3.785400	-11.410000	23.204383	0.000986	20.722820
364.072924	-2.998500	3.784200	-11.346000	23.204711	0.000986	20.708923
365.080948	-2.985200	3.784100	-11.294000	23.204967	0.000983	20.706808
366.076856	-2.994000	3.783500	-11.326000	23.187899	0.000984	20.697764
367.078257	-3.019800	3.781900	-11.420000	23.194330	0.000986	20.698044
368.081568	-2.992800	3.783100	-11.321000	23.203074	0.000984	20.697799
369.075992	-3.011500	3.781400	-11.386000	23.193687	0.000985	20.684123
370.078928	-2.987300	3.782700	-11.299000	23.211353	0.000984	20.679540
371.080176	-2.999900	3.781700	-11.344000	23.199476	0.000986	20.695614
372.075692	-2.976500	3.781900	-11.256000	23.205747	0.000985	20.686726
373.075472	-2.999300	3.780800	-11.337000	23.208016	0.000986	20.691371
374.083512	-2.997800	3.781200	-11.333000	23.240701	0.000987	20.686193
375.079157	-2.995900	3.780200	-11.324000	23.235897	0.000989	20.684697
376.079138	-2.999000	3.780400	-11.337000	23.242387	0.000988	20.675078
377.081407	-3.003100	3.780800	-11.352000	23.217600	0.000988	20.684853
378.081400	-3.020300	3.779800	-11.415000	23.223934	0.000989	20.725343
379.079065	-3.008800	3.779800	-11.371000	23.233059	0.000989	20.687068
380.080248	-3.012700	3.779000	-11.385000	23.251642	0.000989	20.692416
381.077807	-2.982800	3.780100	-11.274000	23.230303	0.000988	20.704222
382.085604	-3.026900	3.778500	-11.436000	23.241354	0.000990	20.683053
383.078945	-3.020500	3.777900	-11.409000	23.253921	0.000992	20.691855
384.082744	-2.971900	3.780400	-11.233000	23.230703	0.000992	20.690872
385.081318	-2.977300	3.779300	-11.251000	23.256954	0.000991	20.701533
386.082880	-2.990800	3.777300	-11.296000	23.252416	0.000991	20.670430
387.084916	-2.973000	3.778900	-11.234000	23.282343	0.000991	20.694261
388.083858	-2.982200	3.777000	-11.263000	23.286249	0.000993	20.681105
389.084671	-3.007000	3.777000	-11.356000	23.300684	0.000991	20.676131
390.083213	-3.000200	3.776000	-11.328000	23.288297	0.000992	20.678890
391.083396	-2.991400	3.775400	-11.291000	23.292376	0.000992	20.694832
392.081337	-3.008500	3.775400	-11.357000	23.305923	0.000994	20.692762
393.081872	-2.999100	3.775600	-11.323000	23.342145	0.000993	20.685916
394.084247	-2.993000	3.775800	-11.300000	23.344497	0.000994	20.688747
395.083776	-2.998700	3.775700	-11.321000	23.311442	0.000995	20.694500
396.093990	-2.994800	3.776200	-11.308000	23.351227	0.000994	20.678422
397.084913	-2.994100	3.774300	-11.300000	23.357401	0.000995	20.692673
398.087845	-3.006400	3.773000	-11.342000	23.327085	0.000996	20.669399
399.085784	-2.987000	3.773100	-11.269000	23.344276	0.000996	20.679990
400.088436	-2.996300	3.772700	-11.303000	23.331647	0.000996	20.682981
401.085090	-2.998700	3.772200	-11.310000	23.313134	0.000995	20.686238
402.088984	-2.988200	3.773600	-11.275000	23.307602	0.000995	20.696816
403.095810	-3.021700	3.772200	-11.396000	23.294061	0.000996	20.696522
404.087959	-3.020100	3.771000	-11.388000	23.297836	0.000996	20.674224
405.100688	-2.993600	3.772300	-11.292000	23.319319	0.000998	20.662089
406.091226	-3.021800	3.770100	-11.391000	23.302408	0.000997	20.693033
407.088300	-2.999500	3.770800	-11.309000	23.318228	0.000998	20.691344
408.092206	-2.992400	3.771000	-11.284000	23.315510	0.000999	20.679610
409.090701	-3.000600	3.771100	-11.315000	23.358282	0.000998	20.694504
410.087822	-3.027100	3.769500	-11.409000	23.356984	0.000999	20.685141
411.093604	-2.999800	3.770100	-11.309000	23.349912	0.001001	20.667146
412.091238	-2.991500	3.769900	-11.277000	23.396152	0.000998	20.692631
413.085814	-2.985800	3.770400	-11.256000	23.397461	0.000998	20.681614
414.087685	-2.994700	3.768100	-11.283000	23.420230	0.000997	20.684996
415.089464	-2.997600	3.768400	-11.296000	23.434930	0.000999	20.681237
416.089065	-3.003700	3.770000	-11.323000	23.458789	0.000997	20.677651
417.094679	-2.996600	3.768300	-11.291000	23.473685	0.000997	20.683099
418.094799	-2.987100	3.768000	-11.254000	23.443020	0.000999	20.671801
419.089084	-3.010800	3.766600	-11.339000	23.475284	0.001000	20.676166
420.091941	-3.002000	3.767500	-11.309000	23.458206	0.001001	20.682282
421.095188	-3.004500	3.766700	-11.315000	23.410755	0.000998	20.664591
422.088311	-3.031000	3.765900	-11.413000	23.428963	0.000999	20.682843
423.090441	-2.993400	3.766200	-11.271000	23.426149	0.000998	20.680022
424.094491	-3.013300	3.767400	-11.351000	23.420496	0.000999	20.692375
425.091354	-2.996400	3.766700	-11.284000	23.414650	0.000999	20.671815
426.092857	-2.984700	3.767100	-11.243000	23.436097	0.000999	20.678613
427.096146	-2.998400	3.766200	-11.292000	23.447547	0.001000	20.658793
428.092125	-2.993300	3.766400	-11.273000	23.473757	0.000999	20.673213
429.090288	-2.998700	3.765500	-11.290000	23.464200	0.001002	20.654622
430.093841	-2.992400	3.764000	-11.263000	23.468153	0.001002	20.678977
431.088276	-3.002500	3.763500	-11.299000	23.509963	0.001001	20.644068
432.091543	-3.008500	3.764000	-11.323000	23.481253	0.001000	20.663657
433.091417	-2.984200	3.764900	-11.235000	23.495579	0.001001	20.667111
434.089580	-3.020400	3.763700	-11.366000	23.517497	0.001002	20.660631
435.096080	-3.014900	3.761800	-11.341000	23.531649	0.001001	20.656325
436.092865	-3.008900	3.762600	-11.320000	23.532050	0.001002	20.673798
437.096645	-3.013700	3.761500	-11.335000	23.548605	0.001004	20.675221
438.091475	-3.008400	3.762300	-11.318000	23.559971	0.001004	20.647731
439.092628	-2.999700	3.761800	-11.283000	23.551892	0.001005	20.669032
440.092702	-3.001000	3.760700	-11.286000	23.516927	0.001002	20.662431
441.093633	-2.992800	3.760700	-11.254000	23.507114	0.001002	20.649274
442.089758	-2.992200	3.759900	-11.249000	23.513119	0.001005	20.659087
443.091494	-3.013000	3.759200	-11.326000	23.503026	0.001004	20.646125
444.090170	-3.006700	3.760500	-11.306000	23.505806	0.001004	20.652705
445.089923	-3.002500	3.760600	-11.291000	23.507563	0.001006	20.658734
446.093480	-2.985300	3.761400	-11.228000	23.519765	0.001004	20.663854
447.096458	-2.996000	3.759800	-11.263000	23.542190	0.001006	20.674006
448.093691	-2.984400	3.760300	-11.222000	23.577254	0.001004	20.667903
449.091112	-3.003600	3.758100	-11.287000	23.613177	0.001004	20.663137
450.094772	-3.013900	3.756900	-11.322000	23.602212	0.001006	20.651670
451.092368	-2.995000	3.758900	-11.257000	23.629099	0.001005	20.656813
452.092387	-2.995800	3.757500	-11.256000	23.621773	0.001005	20.672230
453.097135	-2.996000	3.758200	-11.259000	23.632009	0.001007	20.668741
454.094177	-3.000000	3.757100	-11.270000	23.619847	0.001006	20.666031
455.093161	-3.006700	3.758400	-11.299000	23.628882	0.001007	20.662760
456.093254	-3.014300	3.755000	-11.317000	23.632192	0.001005	20.665131
457.096682	-3.008700	3.757000	-11.303000	23.622709	0.001006	20.644241
458.095421	-3.005900	3.755900	-11.289000	23.664257	0.001005	20.662189
459.098381	-2.997900	3.756200	-11.260000	23.659030	0.001008	20.667381
460.095708	-2.992800	3.756100	-11.240000	23.659431	0.001006	20.666834
461.094192	-3.008000	3.755900	-11.297000	23.666805	0.001007	20.655259
462.095169	-2.983700	3.754900	-11.203000	23.657515	0.001007	20.677242
463.095167	-2.985100	3.755300	-11.209000	23.658982	0.001007	20.660219
464.096945	-2.981400	3.753200	-11.188000	23.624528	0.001006	20.672621
465.099355	-2.983500	3.753000	-11.196000	23.625160	0.001007	20.664719
466.096605	-2.960900	3.754400	-11.116000	23.637457	0.001008	20.666616
467.096521	-3.000600	3.753500	-11.260000	23.645995	0.001006	20.651465
468.099323	-2.982800	3.753000	-11.193000	23.633577	0.001004	20.669364
469.103883	-2.979300	3.754000	-11.183000	23.620078	0.001005	20.660572
470.096534	-2.994300	3.752400	-11.234000	23.677151	0.001009	20.675117
471.097652	-2.994800	3.751100	-11.232000	23.658923	0.001006	20.682448
472.103159	-2.988400	3.752600	-11.213000	23.665665	0.001007	20.672137
473.100429	-3.002100	3.750300	-11.257000	23.686330	0.001007	20.671517
474.099195	-2.993900	3.749700	-11.225000	23.674362	0.001009	20.668526
475.104050	-3.007900	3.749600	-11.278000	23.660646	0.001010	20.651455
476.100572	-3.002600	3.750400	-11.259000	23.684173	0.001008	20.673147
477.102170	-3.003900	3.749700	-11.262000	23.700166	0.001008	20.674958
478.104949	-2.994100	3.750000	-11.227000	23.693680	0.001009	20.661815
479.100926	-3.000300	3.749000	-11.247000	23.700798	0.001008	20.668952
480.101669	-3.013800	3.748600	-11.296000	23.697280	0.001008	20.660209
481.107411	-3.011800	3.748200	-11.288000	23.697995	0.001010	20.678945
482.108705	-2.991500	3.749100	-11.214000	23.705151	0.001007	20.680430
483.104849	-3.015900	3.747600	-11.301000	23.685992	0.001007	20.673075
484.107764	-3.012100	3.749100	-11.291000	23.704133	0.001007	20.659018
485.104616	-3.005300	3.747600	-11.261000	23.725270	0.001008	20.666460
486.104436	-3.016600	3.746400	-11.300000	23.715300	0.001006	20.662154
487.105030	-2.997500	3.746900	-11.230000	23.747497	0.001009	20.668357
488.104428	-3.004400	3.745700	-11.253000	23.751122	0.001010	20.678156
489.107982	-3.001800	3.747200	-11.247000	23.777691	0.001010	20.668758
490.111122	-2.994600	3.746100	-11.217000	23.787381	0.001009	20.675155
491.106921	-2.997500	3.745700	-11.227000	23.789296	0.001009	20.660953
492.108910	-3.012600	3.744200	-11.279000	23.804719	0.001009	20.671202
493.115774	-2.978600	3.745500	-11.155000	23.801688	0.001011	20.685708
494.108637	-2.980800	3.745000	-11.162000	23.790546	0.001010	20.678803
495.107056	-2.998500	3.743400	-11.223000	23.809886	0.001009	20.686816
496.109711	-3.007400	3.743200	-11.256000	23.775378	0.001011	20.674501
497.113206	-2.985400	3.744800	-11.178000	23.796114	0.001011	20.682015
498.108769	-2.988100	3.744400	-11.187000	23.794671	0.001011	20.673929
499.113315	-2.984900	3.743900	-11.175000	23.761446	0.001010	20.677602
500.112335	-3.003700	3.742500	-11.239000	23.778557	0.001010	20.662040
501.107628	-2.989800	3.743100	-11.190000	23.804287	0.001012	20.691634
502.113055	-3.003700	3.742900	-11.241000	23.832540	0.001011	20.674442
503.112793	-2.992200	3.741200	-11.193000	23.836917	0.001009	20.667450
504.111111	-3.003000	3.741200	-11.233000	23.851614	0.001011	20.680765
505.117112	-3.001000	3.741300	-11.227000	23.868188	0.001012	20.651863
506.112394	-2.970900	3.742400	-11.117000	23.884583	0.001009	20.659769
507.111661	-2.973800	3.741500	-11.124000	23.885177	0.001010	20.660364
508.118541	-2.993500	3.740300	-11.195000	23.887517	0.001011	20.677886
509.116674	-2.975500	3.740900	-11.128000	23.841152	0.001010	20.687345
510.114962	-3.013200	3.739400	-11.266000	23.895145	0.001012	20.666567
511.119199	-3.005200	3.740800	-11.240000	23.916133	0.001011	20.680976
512.116885	-2.985800	3.741000	-11.169000	23.919067	0.001010	20.668744
513.114706	-3.024600	3.738100	-11.305000	23.938274	0.001010	20.661925
514.118976	-3.015600	3.739400	-11.274000	23.943886	0.001011	20.662811
515.117280	-2.997700	3.738300	-11.205000	23.932514	0.001011	20.667529
516.114545	-2.988800	3.738100	-11.170000	23.895438	0.001011	20.663067
517.120574	-2.985200	3.738000	-11.158000	23.886392	0.001009	20.682922
518.116426	-2.989400	3.737200	-11.170000	23.885798	0.001010	20.658616
519.113453	-2.998100	3.736000	-11.200000	23.914497	0.001011	20.680284
520.118448	-3.023900	3.736000	-11.296000	23.922767	0.001013	20.671032
521.114937	-3.013000	3.736100	-11.255000	23.951016	0.001011	20.679447
522.118980	-3.005800	3.737300	-11.232000	23.958727	0.001011	20.684808
523.118899	-3.013700	3.734700	-11.253000	23.911760	0.001011	20.676117
524.114828	-2.998800	3.735500	-11.201000	23.922429	0.001012	20.661683
525.115205	-3.007000	3.733400	-11.225000	23.922853	0.001010	20.684870
526.118478	-3.013500	3.734200	-11.252000	23.920137	0.001010	20.683095
527.115766	-2.987400	3.735000	-11.157000	23.938239	0.001010	20.662365
528.118028	-3.008100	3.733400	-11.228000	23.923630	0.001011	20.676639
529.119499	-2.999500	3.733800	-11.198000	23.919350	0.001011	20.685625
530.116957	-3.018000	3.733300	-11.265000	23.941826	0.001010	20.688723
531.120520	-3.001500	3.734100	-11.207000	23.942906	0.001010	20.685064
532.117476	-3.014000	3.733600	-11.251000	23.951769	0.001012	20.680201
533.116852	-3.010400	3.732900	-11.236000	23.963855	0.001011	20.689952
534.116935	-2.989600	3.733800	-11.161000	23.995341	0.001012	20.698767
535.117417	-3.017800	3.731500	-11.260000	23.994916	0.001010	20.683167
536.115682	-2.985400	3.731900	-11.139000	23.960376	0.001010	20.686463
537.122013	-2.995900	3.731100	-11.177000	23.978295	0.001010	20.674085
538.123772	-3.018300	3.730000	-11.257000	23.959817	0.001009	20.665985
539.119876	-2.992900	3.731600	-11.167000	23.946506	0.001010	20.686303
540.119975	-3.017500	3.730000	-11.254000	23.930671	0.001012	20.704565
541.121109	-3.006300	3.729900	-11.212000	23.943244	0.001010	20.671652
542.117413	-3.016900	3.729500	-11.251000	23.933363	0.001011	20.691616
543.119891	-3.013800	3.728700	-11.236000	23.938685	0.001010	20.690789
544.118463	-3.019300	3.728500	-11.257000	23.938574	0.001010	20.697791
545.119226	-3.011300	3.727600	-11.224000	23.971055	0.001009	20.693378
546.120249	-2.996500	3.728700	-11.172000	23.943872	0.001012	20.696940
547.120426	-3.002100	3.727800	-11.190000	23.939593	0.001010	20.698338
548.121279	-3.014500	3.727000	-11.234000	23.949740	0.001011	20.692866
549.124288	-2.993400	3.728100	-11.158000	23.986012	0.001010	20.697947
550.124613	-2.969200	3.729200	-11.072000	23.975210	0.001009	20.693752
551.122945	-3.002500	3.727100	-11.189000	24.023837	0.001011	20.666650
552.121459	-3.000300	3.725900	-11.178000	23.993771	0.001011	20.705728
553.122528	-2.996500	3.727100	-11.167000	24.004694	0.001012	20.693448
554.127715	-3.006100	3.725400	-11.198000	24.032344	0.001011	20.699841
555.135166	-2.985100	3.725300	-11.119000	24.024186	0.001009	20.689761
556.124947	-2.999100	3.725400	-11.171000	24.023955	0.001010	20.711817
557.126609	-2.992000	3.724800	-11.142000	24.051960	0.001010	20.680630
558.125144	-2.997200	3.724300	-11.160000	24.060687	0.001007	20.688910
559.124048	-3.012200	3.724000	-11.215000	24.024683	0.001012	20.703063
560.126337	-3.011400	3.723000	-11.211000	24.008231	0.001010	20.727344
561.130253	-3.031800	3.722500	-11.284000	24.016428	0.001009	20.699526
562.126625	-2.992400	3.724700	-11.145000	24.004352	0.001011	20.710176
563.128922	-2.998700	3.722200	-11.160000	24.045620	0.001010	20.711733
564.125134	-3.003700	3.722500	-11.180000	24.070326	0.001010	20.703793
565.129368	-3.009900	3.722000	-11.202000	24.060543	0.001010	20.708681
566.135405	-3.027200	3.722300	-11.267000	24.078315	0.001008	20.687622
567.126402	-2.998100	3.722800	-11.160000	24.078460	0.001009	20.698200
568.126582	-3.007800	3.720900	-11.189000	24.068739	0.001009	20.715953
569.129076	-3.010900	3.721400	-11.204000	24.058482	0.001009	20.718469
570.125855	-3.000600	3.721700	-11.166000	24.051345	0.001011	20.702776
571.130109	-2.999600	3.721300	-11.161000	24.067369	0.001010	20.723114
572.131732	-3.005100	3.719400	-11.176000	24.062023	0.001011	20.704001
573.127041	-3.003300	3.720700	-11.174000	24.044202	0.001010	20.704621
574.127727	-2.983900	3.720200	-11.100000	24.035074	0.001010	20.706846
575.132784	-2.989100	3.719900	-11.118000	24.042966	0.001009	20.706701
576.129504	-3.005400	3.720000	-11.179000	24.071175	0.001010	20.725035
577.127070	-2.995800	3.719800	-11.143000	24.089323	0.001009	20.706725
578.131303	-2.992400	3.719600	-11.128000	24.108162	0.001009	20.719930
579.132626	-2.988900	3.719900	-11.118000	24.100159	0.001010	20.699574
580.130199	-3.019100	3.718500	-11.225000	24.080775	0.001010	20.719964
581.131859	-2.978400	3.718700	-11.073000	24.070861	0.001009	20.710968
582.134862	-2.986500	3.718600	-11.104000	24.062023	0.001010	20.729607
583.128794	-2.995700	3.717300	-11.135000	24.066592	0.001009	20.723758
584.136250	-3.001900	3.716000	-11.153000	24.100535	0.001009	20.715600
585.133101	-2.994600	3.717700	-11.131000	24.082594	0.001008	20.712305
586.130916	-3.028600	3.716800	-11.255000	24.065926	0.001008	20.712183
587.134265	-3.018100	3.715000	-11.211000	24.096546	0.001009	20.698321
588.138319	-3.021100	3.715600	-11.225000	24.105394	0.001008	20.716680
589.134145	-2.991600	3.715200	-11.113000	24.122196	0.001011	20.713616
590.141253	-3.040300	3.713100	-11.288000	24.125954	0.001009	20.696521
591.133712	-3.001700	3.714000	-11.147000	24.135640	0.001008	20.699598
592.131687	-2.994800	3.715000	-11.125000	24.135250	0.001007	20.706320
593.135310	-2.998700	3.714700	-11.138000	24.148425	0.001007	20.727122
594.135835	-3.016700	3.712900	-11.200000	24.146365	0.001008	20.716046
595.134950	-2.989800	3.714400	-11.103000	24.145140	0.001008	20.721456
596.134752	-3.007100	3.713400	-11.165000	24.132921	0.001008	20.727693
597.132550	-3.026400	3.713000	-11.235000	24.133249	0.001007	20.714271
598.146426	-2.987700	3.712500	-11.091000	24.110981	0.001007	20.719438
599.139836	-2.987300	3.713600	-11.092000	24.127324	0.001008	20.727769
600.137192	-2.984600	3.712200	-11.078000	24.161276	0.001008	20.705396
601.135759	-2.984100	3.713300	-11.079000	24.182269	0.001005	20.733093
602.138206	-2.995400	3.711800	-11.117000	24.192052	0.001006	20.720144
603.138533	-3.002500	3.711600	-11.142000	24.195337	0.001006	20.726759
604.140379	-2.989800	3.710500	-11.093000	24.189809	0.001007	20.717895
605.146081	-3.002800	3.710100	-11.139000	24.157190	0.001006	20.727852
606.137566	-3.019500	3.709600	-11.199000	24.177884	0.001005	20.722529
607.139205	-2.990200	3.710800	-11.095000	24.176417	0.001005	20.734335
608.139624	-2.990800	3.710700	-11.097000	24.195095	0.001005	20.708971
609.144114	-3.005300	3.710100	-11.148000	24.183981	0.001005	20.724851
610.139111	-2.991000	3.710200	-11.097000	24.191303	0.001004	20.736464
611.141346	-3.002100	3.708500	-11.132000	24.173981	0.001005	20.726676
612.141153	-2.996200	3.707600	-11.108000	24.166006	0.001004	20.705874
613.140857	-2.989400	3.708700	-11.085000	24.138370	0.001004	20.732684
614.144448	-2.994600	3.707200	-11.101000	24.131303	0.001005	20.728441
615.140989	-2.996400	3.706800	-11.106000	24.147497	0.001005	20.720501
616.144966	-2.995600	3.707400	-11.105000	24.187062	0.001006	20.715613
617.139853	-2.993000	3.707500	-11.096000	24.194433	0.001002	20.727274
618.140831	-2.985400	3.707800	-11.069000	24.218093	0.001004	20.736308
619.139298	-2.999000	3.706300	-11.115000	24.221074	0.001005	20.727918
620.140296	-3.002800	3.705400	-11.126000	24.248153	0.001006	20.726630
621.141137	-3.008000	3.704900	-11.143000	24.254188	0.001004	20.736003
622.145247	-2.988500	3.705700	-11.073000	24.257535	0.001004	20.724187
623.143486	-3.000400	3.706500	-11.119000	24.269328	0.001003	20.751191
624.140717	-3.032000	3.703300	-11.227000	24.270201	0.001004	20.750170
625.145614	-3.001000	3.704000	-11.115000	24.288211	0.001005	20.740735
626.141122	-3.012900	3.704500	-11.160000	24.314826	0.001003	20.732345
627.140823	-3.010600	3.702300	-11.145000	24.344470	0.001003	20.730787
628.139825	-2.972700	3.704500	-11.010000	24.345767	0.001004	20.732089
629.141446	-3.015900	3.703400	-11.168000	24.350942	0.001002	20.734435
630.141930	-2.986600	3.703900	-11.061000	24.346350	0.001004	20.735044
631.145799	-2.981100	3.703900	-11.041000	24.389362	0.001003	20.717974
632.143097	-3.024000	3.700300	-11.188000	24.373885	0.001002	20.712405
633.147298	-3.004300	3.701600	-11.119000	24.406280	0.001002	20.752492
634.143865	-2.987300	3.702400	-11.059000	24.412969	0.001002	20.723166
635.145419	-2.996700	3.701300	-11.091000	24.397141	0.001003	20.748539
636.146376	-2.993900	3.699800	-11.075000	24.360892	0.001000	20.730666
637.144526	-2.992700	3.699700	-11.070000	24.331843	0.001002	20.731871
638.147034	-3.003100	3.700500	-11.111000	24.330594	0.001000	20.751956
639.146760	-3.017200	3.700100	-11.163000	24.311652	0.001003	20.745757
640.148386	-2.998900	3.699400	-11.092000	24.315275	0.001002	20.743227
641.148185	-3.012500	3.700200	-11.146000	24.294670	0.001001	20.756223
642.147824	-2.990500	3.699000	-11.061000	24.251924	0.001004	20.741794
643.148441	-2.991800	3.700500	-11.069000	24.237546	0.001001	20.741596
644.147154	-3.003100	3.697900	-11.103000	24.237063	0.001002	20.751544
645.160287	-2.982700	3.698100	-11.029000	24.255171	0.001002	20.728929
646.147375	-2.982700	3.698300	-11.029000	24.242977	0.001002	20.759847
647.150055	-2.976600	3.698700	-11.008000	24.241911	0.001000	20.749294
648.154662	-2.986400	3.697800	-11.042000	24.247670	0.001002	20.739897
649.154749	-3.012700	3.698100	-11.141000	24.245317	0.001000	20.748443
650.152410	-2.989900	3.697700	-11.054000	24.244433	0.001001	20.739496
651.155397	-2.991900	3.696700	-11.058000	24.272285	0.001001	20.761269
652.151822	-3.013100	3.695900	-11.135000	24.281873	0.001000	20.757137
653.153382	-3.000300	3.695000	-11.084000	24.307095	0.001001	20.747823
654.157894	-2.983700	3.696700	-11.029000	24.308961	0.001000	20.761550
655.153210	-2.976800	3.696500	-11.003000	24.342534	0.001001	20.762986
656.157800	-2.980700	3.695700	-11.015000	24.343842	0.001002	20.751495
657.153679	-3.001000	3.694500	-11.085000	24.369669	0.000998	20.768870
658.155553	-2.998900	3.694500	-11.078000	24.380902	0.000998	20.729403
659.161511	-2.993700	3.694100	-11.058000	24.383217	0.001001	20.769659
660.159894	-3.011200	3.693600	-11.121000	24.387481	0.001000	20.764928
661.157267	-3.003800	3.693200	-11.091000	24.405687	0.000999	20.763751
662.155846	-3.013300	3.691500	-11.122000	24.432154	0.000998	20.757113
663.155302	-3.011900	3.693200	-11.123000	24.444428	0.001000	20.751409
664.154300	-3.007900	3.693000	-11.107000	24.447399	0.000999	20.757234
665.155113	-3.013900	3.692400	-11.127000	24.414594	0.000999	20.756092
666.158540	-2.987300	3.692300	-11.028000	24.420542	0.000999	20.772964
667.156613	-3.001600	3.691300	-11.079000	24.348193	0.000997	20.758231
668.157129	-2.989900	3.691300	-11.036000	24.390331	0.000997	20.752613
669.159426	-2.988000	3.691500	-11.029000	24.389434	0.000998	20.754084
670.158041	-2.982000	3.690100	-11.002000	24.408861	0.000999	20.742752
671.162151	-2.989200	3.692500	-11.036000	24.409454	0.000998	20.751409
672.162141	-3.004100	3.690300	-11.085000	24.449617	0.000997	20.780797
673.165733	-3.004300	3.690300	-11.086000	24.463516	0.000998	20.759179
674.158755	-2.990500	3.691000	-11.037000	24.483910	0.000997	20.773951
675.163682	-3.010400	3.689400	-11.106000	24.503408	0.000997	20.778339
676.158405	-3.015700	3.688800	-11.122000	24.470557	0.000997	20.760553
677.160247	-3.011400	3.688600	-11.107000	24.458400	0.000996	20.782496
678.158790	-3.010700	3.687900	-11.102000	24.429681	0.000995	20.772175
679.160257	-3.014300	3.688800	-11.118000	24.423174	0.000996	20.751423
680.158710	-3.006200	3.687000	-11.083000	24.429318	0.000996	20.777502
681.160030	-3.048900	3.686600	-11.239000	24.418448	0.000997	20.773234
682.158709	-3.009300	3.687200	-11.095000	24.456875	0.000997	20.783337
683.163070	-3.002900	3.686800	-11.071000	24.486601	0.000996	20.781866
684.170870	-2.969200	3.688100	-10.949000	24.469187	0.000997	20.776723
685.166376	-2.990800	3.686700	-11.025000	24.464109	0.000996	20.793914
686.165585	-2.984200	3.686800	-11.001000	24.466024	0.000996	20.784929
687.163601	-3.021800	3.685400	-11.135000	24.463599	0.000995	20.790557
688.165144	-3.020100	3.685900	-11.131000	24.462267	0.000996	20.784479
689.163909	-2.988400	3.685400	-11.012000	24.483207	0.000996	20.777512
690.164895	-2.986700	3.686300	-11.008000	24.500986	0.000995	20.787289
691.164681	-2.976800	3.686300	-10.972000	24.476749	0.000994	20.780042
692.166449	-3.008600	3.684600	-11.084000	24.438974	0.000995	20.785767
693.163812	-3.001000	3.684400	-11.055000	24.441969	0.000993	20.788297
694.167449	-2.989800	3.683800	-11.013000	24.424896	0.000994	20.788712
695.164079	-3.001200	3.682900	-11.052000	24.457334	0.000993	20.783323
696.165017	-2.974900	3.684600	-10.959000	24.469380	0.000993	20.793987
697.166516	-2.996400	3.684200	-11.038000	24.467355	0.000993	20.795274
698.166321	-3.006500	3.683600	-11.073000	24.466555	0.000995	20.794945
699.166976	-2.999200	3.682900	-11.045000	24.468773	0.000992	20.776782
700.165843	-3.002200	3.682000	-11.052000	24.484028	0.000993	20.797302
701.166806	-3.007000	3.682700	-11.073000	24.496947	0.000989	20.788452
702.174018	-2.978800	3.681400	-10.964000	24.530376	0.000991	20.793070
703.170272	-3.001600	3.682000	-11.050000	24.516685	0.000991	20.777910
704.168386	-2.971100	3.681100	-10.935000	24.551280	0.000989	20.782749
705.176317	-2.983300	3.681700	-10.982000	24.555664	0.000990	20.813226
706.169773	-3.004900	3.680700	-11.059000	24.562415	0.000990	20.792973
707.171627	-2.998000	3.680100	-11.031000	24.565661	0.000990	20.806661
708.170490	-2.998400	3.680900	-11.036000	24.564726	0.000991	20.800033
709.172984	-3.011700	3.678800	-11.078000	24.545327	0.000987	20.773930
710.170511	-2.989500	3.680600	-11.002000	24.562339	0.000987	20.778672
711.171412	-2.990100	3.679100	-11.000000	24.558872	0.000989	20.786099
712.170263	-3.014400	3.678000	-11.086000	24.580683	0.000990	20.783801
713.172784	-3.008500	3.678600	-11.066000	24.565112	0.000989	20.788093
714.171402	-3.022300	3.678200	-11.114000	24.541798	0.000990	20.797891
715.173403	-2.988700	3.678800	-10.993000	24.570066	0.000989	20.782631
716.168120	-2.994300	3.678000	-11.012000	24.609288	0.000988	20.801123
717.170856	-3.007600	3.677300	-11.058000	24.578282	0.000989	20.778073
718.172646	-2.969700	3.678200	-10.922000	24.589427	0.000987	20.774083
719.173253	-2.985100	3.677200	-10.976000	24.602986	0.000988	20.796697
720.173467	-3.008800	3.676400	-11.060000	24.629739	0.000990	20.778021
721.173868	-2.992700	3.676800	-11.002000	24.653414	0.000987	20.759103
722.175488	-3.019500	3.675300	-11.097000	24.647185	0.000988	20.787941
723.176544	-2.997200	3.675500	-11.016000	24.663882	0.000988	20.766289
724.173571	-2.995600	3.674500	-11.006000	24.688863	0.000987	20.791357
725.175122	-2.991600	3.674700	-10.992000	24.653255	0.000989	20.785497
726.177876	-2.982400	3.675100	-10.960000	24.665348	0.000987	20.780562
727.174044	-2.998100	3.674800	-11.016000	24.660729	0.000987	20.780195
728.172781	-2.996800	3.674200	-11.010000	24.634547	0.000987	20.776208
729.186692	-2.995300	3.673800	-11.003000	24.571311	0.000988	20.768234
730.177573	-2.982500	3.674600	-10.958000	24.539963	0.000988	20.774713
731.177869	-2.996100	3.673800	-11.005000	24.515316	0.000986	20.769424
732.179923	-2.997700	3.671900	-11.005000	24.520563	0.000987	20.750506
733.177996	-2.988300	3.673100	-10.975000	24.519714	0.000986	20.789484
734.175650	-2.975600	3.673200	-10.928000	24.548117	0.000986	20.772463
735.184305	-3.028400	3.671800	-11.117000	24.553330	0.000985	20.772003
736.173821	-2.987400	3.672600	-10.969000	24.576071	0.000984	20.772536
737.176475	-2.957800	3.674200	-10.866000	24.594222	0.000984	20.778420
738.178537	-2.985100	3.671700	-10.959000	24.597081	0.000985	20.760426
739.178987	-2.982600	3.672000	-10.950000	24.595605	0.000985	20.782652
740.175671	-3.008100	3.671600	-11.043000	24.609237	0.000984	20.763139
741.180291	-3.005300	3.669500	-11.027000	24.596743	0.000984	20.770044
742.176206	-2.991200	3.670400	-10.978000	24.609806	0.000985	20.741424
743.175883	-2.990700	3.672000	-10.980000	24.615414	0.000983	20.780244
744.179389	-2.994400	3.670800	-10.990000	24.629384	0.000984	20.763440
745.177071	-2.988700	3.669700	-10.966000	24.621133	0.000981	20.765593
746.176229	-2.982900	3.669000	-10.943000	24.603901	0.000982	20.774855
747.179933	-2.996200	3.669500	-10.994000	24.563723	0.000984	20.749239
748.175322	-2.969500	3.669800	-10.896000	24.542154	0.000982	20.752728
749.176081	-3.000200	3.668400	-11.005000	24.542602	0.000982	20.750807
750.181389	-3.012500	3.666700	-11.045000	24.577100	0.000982	20.777835
751.180890	-2.980200	3.668300	-10.931000	24.589690	0.000982	20.763914
752.177350	-2.990600	3.667200	-10.967000	24.578069	0.000979	20.747512
753.180860	-2.993000	3.668200	-10.977000	24.554209	0.000981	20.780472
754.178733	-2.954200	3.668200	-10.835000	24.548456	0.000981	20.747671
755.184087	-2.997900	3.665500	-10.988000	24.562464	0.000981	20.772633
756.180863	-3.005200	3.666900	-11.019000	24.539101	0.000981	20.736862
757.182216	-2.968600	3.667100	-10.885000	24.581183	0.000981	20.745422
758.179845	-2.999600	3.665400	-10.994000	24.602983	0.000979	20.759235
759.183913	-2.993100	3.666700	-10.973000	24.634354	0.000980	20.762263
760.181090	-2.991700	3.665900	-10.965000	24.638669	0.000979	20.743359
761.182560	-3.000800	3.666100	-11.000000	24.649233	0.000980	20.745899
762.181663	-2.994000	3.664500	-10.969000	24.681451	0.000978	20.753098
763.182094	-3.010900	3.664500	-11.032000	24.708795	0.000979	20.754933
764.182660	-2.987800	3.664300	-10.947000	24.675333	0.000978	20.738897
765.183718	-3.006800	3.663500	-11.014000	24.642173	0.000978	20.749246
766.181083	-2.980300	3.663400	-10.918000	24.644280	0.000980	20.740455
767.182612	-3.002400	3.663700	-10.999000	24.636430	0.000978	20.736845
768.187439	-2.991800	3.663300	-10.959000	24.668065	0.000979	20.751520
769.188081	-2.990900	3.663100	-10.955000	24.667510	0.000977	20.729150
770.185620	-3.001000	3.662600	-10.990000	24.654327	0.000979	20.746743
771.190831	-2.997500	3.662200	-10.977000	24.661429	0.000979	20.747231
772.186497	-2.978100	3.663100	-10.908000	24.658073	0.000977	20.737225
773.186742	-2.996000	3.661500	-10.967000	24.635671	0.000978	20.710477
774.190993	-2.983600	3.660900	-10.922000	24.641910	0.000977	20.734757
775.185530	-3.002100	3.659400	-10.985000	24.636168	0.000978	20.748436
776.188437	-2.998400	3.660500	-10.975000	24.636568	0.000977	20.730819
777.190727	-2.969100	3.661600	-10.870000	24.660656	0.000976	20.736498
778.187906	-3.009900	3.658900	-11.011000	24.658559	0.000977	20.737239
779.185157	-2.983000	3.661600	-10.921000	24.663830	0.000975	20.734467
780.189000	-2.989800	3.660400	-10.942000	24.652403	0.000972	20.718258
781.184497	-2.981400	3.660900	-10.914000	24.697016	0.000976	20.735052
782.189650	-3.003700	3.660000	-10.993000	24.696047	0.000974	20.723173
783.191258	-3.024700	3.657500	-11.061000	24.721804	0.000974	20.730054
784.188315	-3.013400	3.657100	-11.019000	24.755047	0.000972	20.726904
785.184975	-3.005800	3.657700	-10.993000	24.767842	0.000975	20.736426
786.189229	-3.014300	3.657600	-11.023000	24.752757	0.000974	20.743573
787.191439	-3.006400	3.656000	-10.991000	24.770456	0.000972	20.743317
788.187898	-2.996400	3.657600	-10.959000	24.755895	0.000973	20.742455
789.194446	-2.991100	3.658000	-10.940000	24.762183	0.000971	20.732168
790.190161	-2.994800	3.657700	-10.954000	24.759724	0.000972	20.732546
791.189377	-3.002600	3.656900	-10.979000	24.780464	0.000969	20.730601
792.192658	-2.991600	3.656200	-10.937000	24.795111	0.000971	20.732023
793.196370	-2.992500	3.656000	-10.940000	24.809975	0.000970	20.729870
794.190367	-3.000800	3.655100	-10.968000	24.801677	0.000971	20.741458
795.193916	-3.014500	3.655300	-11.018000	24.803543	0.000971	20.740960
796.193591	-2.983000	3.656100	-10.906000	24.829045	0.000970	20.730517
797.192867	-2.973500	3.655000	-10.866000	24.777571	0.000968	20.731964
798.194774	-3.013900	3.653500	-11.010000	24.750808	0.000970	20.732608
799.194767	-3.014300	3.653600	-11.012000	24.747891	0.000968	20.714032
800.190138	-2.980100	3.655600	-10.893000	24.737882	0.000967	20.726748
801.196731	-3.007700	3.652900	-10.986000	24.741614	0.000967	20.733338
802.195268	-3.009500	3.652100	-10.989000	24.746739	0.000967	20.718566
803.191418	-3.029400	3.651800	-11.062000	24.754168	0.000969	20.690931
804.196402	-3.030200	3.652800	-11.067000	24.757716	0.000967	20.713461
805.196898	-2.987300	3.652200	-10.910000	24.773712	0.000966	20.745636
806.193599	-3.007500	3.651700	-10.982000	24.809423	0.000968	20.723152
807.198197	-2.976500	3.652700	-10.871000	24.788876	0.000965	20.717704
808.196693	-3.005600	3.651100	-10.973000	24.772849	0.000964	20.715845
809.192013	-3.010300	3.649800	-10.987000	24.754871	0.000966	20.730995
810.193287	-3.005500	3.650100	-10.969000	24.716613	0.000965	20.728638
811.197586	-3.017000	3.650600	-11.013000	24.725711	0.000965	20.711688
812.195328	-3.001200	3.651500	-10.959000	24.725190	0.000963	20.709743
813.195031	-3.018400	3.649100	-11.013000	24.736544	0.000963	20.718292
814.194784	-3.002700	3.649400	-10.956000	24.757758	0.000963	20.712554
815.196511	-3.003400	3.650300	-10.963000	24.769328	0.000962	20.723692
816.195247	-2.990400	3.649700	-10.913000	24.798608	0.000963	20.712298
817.195918	-2.993100	3.649300	-10.922000	24.801456	0.000963	20.744081
818.194066	-3.009800	3.648300	-10.979000	24.801177	0.000965	20.715824
819.194558	-3.029000	3.648100	-11.048000	24.799191	0.000964	20.722840
820.194797	-3.023900	3.647000	-11.027000	24.843191	0.000963	20.720532
821.194801	-2.974300	3.649000	-10.851000	24.829707	0.000962	20.705576
822.207800	-2.998400	3.648300	-10.938000	24.858537	0.000962	20.739253
823.194880	-3.022300	3.647500	-11.021000	24.829659	0.000963	20.730659
824.197179	-3.003200	3.646100	-10.948000	24.782451	0.000962	20.706988
825.197023	-2.977200	3.647800	-10.858000	24.778257	0.000960	20.724117
826.199042	-3.002900	3.646400	-10.949000	24.809319	0.000960	20.713564
827.196907	-3.009200	3.646400	-10.971000	24.815571	0.000960	20.711778
828.196600	-3.007200	3.645700	-10.962000	24.787224	0.000960	20.716520
829.198529	-3.019500	3.645000	-11.005000	24.783878	0.000959	20.706524
830.199603	-2.995800	3.646900	-10.925000	24.775532	0.000959	20.719486
831.197503	-3.012900	3.645000	-10.981000	24.780961	0.000958	20.705967
832.198634	-3.002500	3.644400	-10.941000	24.777302	0.000959	20.709407
833.201362	-2.996700	3.644100	-10.919000	24.810895	0.000958	20.710878
834.198594	-3.010800	3.643800	-10.969000	24.832276	0.000959	20.718586
835.202114	-2.995000	3.645900	-10.916000	24.824100	0.000958	20.700896
836.197946	-2.982300	3.644300	-10.867000	24.845553	0.000958	20.708677
837.199354	-3.017400	3.643600	-10.993000	24.858830	0.000956	20.698767
838.197348	-2.984100	3.644600	-10.875000	24.866206	0.000958	20.710913
839.200626	-2.982500	3.644900	-10.868000	24.884838	0.000959	20.702111
840.201316	-3.012000	3.644000	-10.974000	24.889838	0.000958	20.700491
841.200176	-2.996500	3.642100	-10.912000	24.915387	0.000956	20.723764
842.200571	-3.028300	3.640800	-11.023000	24.923466	0.000955	20.696784
843.200836	-3.015700	3.640500	-10.976000	24.945886	0.000955	20.712176
844.205472	-2.999900	3.642000	-10.925000	24.949373	0.000956	20.695286
845.200014	-2.981300	3.640800	-10.853000	24.914356	0.000955	20.684794
846.202980	-3.021000	3.641300	-10.999000	24.888952	0.000954	20.697231
847.204018	-2.967800	3.643100	-10.809000	24.905390	0.000953	20.708040
848.202946	-2.980900	3.641200	-10.852000	24.906407	0.000954	20.690094
849.202206	-2.995100	3.641700	-10.907000	24.919611	0.000951	20.700027
850.205117	-2.998100	3.641000	-10.915000	24.949711	0.000953	20.671915
851.214717	-2.995200	3.639300	-10.899000	24.974965	0.000953	20.721449
852.204224	-3.009800	3.638700	-10.949000	24.988423	0.000953	20.696549
853.206569	-3.009000	3.638900	-10.948000	24.946824	0.000951	20.687037
854.206041	-2.980500	3.640800	-10.849000	24.956166	0.000953	20.686930
855.206255	-3.006300	3.639300	-10.940000	24.941835	0.000951	20.708110
856.206629	-3.022500	3.636700	-10.990000	24.948062	0.000951	20.682590
857.208785	-3.002900	3.639000	-10.927000	24.927711	0.000951	20.677810
858.207826	-3.010900	3.638100	-10.952000	24.918808	0.000951	20.705386
859.209674	-2.982700	3.638800	-10.851000	24.903521	0.000950	20.705216
860.207676	-3.000200	3.638600	-10.916000	24.913466	0.000950	20.693385
861.209019	-3.003900	3.637100	-10.925000	24.873189	0.000949	20.683780
862.209484	-2.988000	3.637400	-10.868000	24.864055	0.000948	20.694053
863.210683	-3.001000	3.636900	-10.913000	24.868065	0.000947	20.689543
864.209406	-2.998000	3.636300	-10.900000	24.879572	0.000947	20.693507
865.208888	-3.001300	3.636300	-10.913000	24.900504	0.000944	20.681323
866.209365	-2.994000	3.635100	-10.883000	24.895052	0.000945	20.675850
867.208962	-2.975200	3.635900	-10.817000	24.920684	0.000946	20.720072
868.210995	-3.002100	3.634200	-10.909000	24.939459	0.000944	20.666366
869.209914	-2.995600	3.632900	-10.882000	24.959541	0.000947	20.679886
870.207679	-2.981700	3.634400	-10.836000	24.990502	0.000943	20.676823
871.208937	-3.004500	3.633500	-10.916000	24.986457	0.000947	20.700741
872.210149	-2.995900	3.633900	-10.884000	24.957035	0.000943	20.693967
873.209454	-3.004900	3.633600	-10.917000	24.932349	0.000943	20.679146
874.210244	-3.001500	3.633600	-10.905000	24.918308	0.000944	20.690184
875.212642	-3.012100	3.631400	-10.937000	24.925456	0.000943	20.706369
876.210722	-2.999200	3.631000	-10.889000	24.909442	0.000943	20.692191
877.211982	-2.976500	3.633500	-10.813000	24.878783	0.000941	20.691291
878.212453	-2.963400	3.634100	-10.766000	24.875914	0.000941	20.668021
879.211430	-2.995800	3.631800	-10.879000	24.880590	0.000942	20.670818
880.212885	-3.005400	3.631700	-10.914000	24.897414	0.000943	20.683438
881.214697	-2.985800	3.631100	-10.841000	24.933828	0.000941	20.695805
882.214333	-3.002100	3.629600	-10.895000	24.927456	0.000940	20.687986
883.212581	-2.997200	3.629800	-10.878000	24.939328	0.000942	20.682832
884.214641	-3.026300	3.629700	-10.983000	24.945069	0.000942	20.669627
885.215309	-3.005800	3.629200	-10.908000	24.936142	0.000940	20.691014
886.213821	-2.984000	3.629900	-10.830000	24.954228	0.000938	20.676449
887.215973	-2.976800	3.630400	-10.806000	24.988919	0.000939	20.673337
888.216992	-3.006600	3.629700	-10.913000	24.990626	0.000939	20.675525
889.214837	-2.992400	3.629400	-10.860000	25.001442	0.000938	20.662199
890.214413	-2.982800	3.629200	-10.823000	24.992636	0.000938	20.671853
891.214133	-3.010100	3.628400	-10.921000	25.006349	0.000937	20.661434
892.216352	-3.004000	3.626700	-10.893000	25.006094	0.000939	20.682043
893.215166	-3.015100	3.627400	-10.935000	25.030053	0.000937	20.665314
894.213704	-2.994200	3.627500	-10.860000	25.012962	0.000938	20.668547
895.217484	-2.989400	3.627000	-10.843000	25.005370	0.000940	20.691748
896.215029	-2.986900	3.626900	-10.832000	24.985468	0.000936	20.650430
897.216560	-2.998900	3.626700	-10.874000	24.933807	0.000937	20.670651
898.216359	-3.013400	3.626700	-10.927000	24.930149	0.000934	20.657021
899.217469	-2.991100	3.626900	-10.846000	24.919028	0.000935	20.659135
900.223311	-2.997800	3.625700	-10.869000	24.933007	0.000934	20.672694
901.214628	-3.007500	3.624600	-10.899000	24.896173	0.000933	20.689304
902.216965	-2.991300	3.624900	-10.842000	24.886662	0.000932	20.649409
903.215077	-2.999500	3.624400	-10.870000	24.845367	0.000933	20.660596
904.215668	-3.021200	3.623800	-10.946000	24.837118	0.000933	20.672707
905.216156	-3.002400	3.624500	-10.881000	24.856595	0.000932	20.673289
906.214821	-2.996600	3.623500	-10.856000	24.853326	0.000934	20.671904
907.215377	-2.990400	3.623400	-10.835000	24.880462	0.000933	20.647453
908.214847	-2.992600	3.622800	-10.841000	24.882145	0.000931	20.660998
909.215063	-3.014900	3.622700	-10.921000	24.910138	0.000930	20.658274
910.215476	-3.006400	3.623600	-10.893000	24.937538	0.000929	20.654480
911.215961	-3.005700	3.623900	-10.890000	24.982657	0.000929	20.683174
912.215575	-3.019200	3.623100	-10.937000	24.990760	0.000929	20.655269
913.218629	-2.999900	3.623200	-10.868000	25.042456	0.000928	20.679661
914.217436	-3.015400	3.621900	-10.920000	25.056602	0.000929	20.654978
915.219740	-2.999900	3.621600	-10.864000	25.066204	0.000930	20.659402
916.218176	-3.003000	3.620200	-10.870000	25.079989	0.000929	20.674663
917.219053	-3.003700	3.621000	-10.875000	25.048583	0.000927	20.663524
918.220283	-3.021100	3.619900	-10.936000	25.054058	0.000926	20.669970
919.219965	-3.015900	3.619600	-10.916000	25.029495	0.000926	20.647207
920.219239	-3.020100	3.620000	-10.930000	24.993498	0.000927	20.665605
921.222161	-2.998000	3.617800	-10.845000	24.973923	0.000926	20.669665
922.220911	-3.001800	3.620100	-10.865000	24.964707	0.000927	20.656145
923.220700	-3.015500	3.618300	-10.910000	24.961024	0.000925	20.668097
924.222421	-2.999700	3.618200	-10.852000	24.956531	0.000925	20.663113
925.222829	-3.010200	3.617700	-10.889000	24.951469	0.000925	20.657083
926.222397	-2.998100	3.618300	-10.847000	24.986219	0.000925	20.659720
927.225322	-2.991400	3.618700	-10.824000	25.006435	0.000922	20.653933
928.224213	-2.997800	3.617500	-10.843000	25.024602	0.000923	20.660316
929.224274	-3.002900	3.617800	-10.862000	25.012007	0.000924	20.664743
930.227119	-3.006400	3.616400	-10.870000	24.984271	0.000924	20.664404
931.224103	-2.994400	3.616700	-10.828000	24.970075	0.000923	20.669121
932.226465	-3.001000	3.616900	-10.854000	24.970717	0.000922	20.687785
933.226066	-2.997700	3.615900	-10.838000	25.004511	0.000923	20.669547
934.228706	-2.988300	3.615300	-10.802000	25.020244	0.000921	20.675857
935.229620	-2.990100	3.616300	-10.812000	25.026616	0.000923	20.668028
936.230677	-3.013300	3.615700	-10.895000	25.033688	0.000921	20.654736
937.227367	-3.012700	3.614600	-10.889000	25.051748	0.000921	20.675712
938.226770	-3.021900	3.613900	-10.919000	25.006135	0.000921	20.659322
939.227958	-2.982300	3.615300	-10.780000	25.009404	0.000920	20.673985
940.228325	-3.008300	3.613000	-10.869000	25.025016	0.000919	20.664051
941.226868	-3.024800	3.612600	-10.926000	25.028298	0.000920	20.659758
942.226622	-2.994800	3.613000	-10.820000	25.014379	0.000918	20.683721
943.225609	-2.999100	3.614100	-10.839000	25.004897	0.000919	20.670409
944.232649	-2.984500	3.613500	-10.784000	25.046248	0.000919	20.681098
945.232898	-3.013600	3.611200	-10.882000	25.059171	0.000917	20.637640
946.231770	-2.971100	3.612800	-10.732000	25.085136	0.000918	20.663234
947.227734	-2.998400	3.611600	-10.828000	25.123457	0.000917	20.663296
948.229714	-3.009800	3.610900	-10.867000	25.141040	0.000917	20.675258
949.229541	-3.018300	3.609700	-10.894000	25.125660	0.000918	20.675466
950.228953	-3.014500	3.610100	-10.881000	25.106474	0.000915	20.674698
951.228959	-2.989900	3.610900	-10.795000	25.095697	0.000916	20.653919
952.227623	-2.997100	3.610800	-10.819000	25.101109	0.000914	20.670260
953.234882	-3.011700	3.608800	-10.868000	25.114311	0.000916	20.666917
954.234882	-3.017400	3.608000	-10.886000	25.144115	0.000914	20.645151
955.230316	-2.987400	3.610900	-10.786000	25.160488	0.000914	20.666806
956.228966	-3.008200	3.608700	-10.853000	25.171557	0.000913	20.659900
957.231294	-3.003400	3.607200	-10.832000	25.203467	0.000913	20.655425
958.230853	-2.989700	3.609600	-10.790000	25.171606	0.000914	20.673701
959.234436	-3.002100	3.608600	-10.833000	25.174912	0.000913	20.668959
960.231421	-2.997000	3.607400	-10.811000	25.156285	0.000912	20.668277
961.231938	-3.010500	3.606600	-10.856000	25.173422	0.000912	20.673154
962.230928	-2.993800	3.608200	-10.801000	25.185254	0.000913	20.679817
963.236919	-3.015600	3.606400	-10.875000	25.182624	0.000909	20.682392
964.235137	-2.975100	3.609100	-10.737000	25.181341	0.000911	20.683001
965.233855	-3.045800	3.605500	-10.980000	25.163804	0.000908	20.677723
966.233940	-3.015400	3.607300	-10.876000	25.194383	0.000909	20.686137
967.239503	-2.996000	3.606700	-10.804000	25.173529	0.000909	20.671839
968.234547	-3.023500	3.605300	-10.899000	25.150952	0.000908	20.692797
969.234600	-2.990900	3.605900	-10.784000	25.115835	0.000908	20.672240
970.234997	-3.018200	3.604100	-10.876000	25.089732	0.000908	20.655518
971.233009	-2.972400	3.606000	-10.717000	25.075514	0.000907	20.684397
972.233630	-3.005200	3.606500	-10.836000	25.070183	0.000907	20.661026
973.234171	-3.028500	3.602400	-10.908000	25.051120	0.000907	20.678402
974.233479	-3.011600	3.604600	-10.854000	25.033315	0.000906	20.660527
975.233552	-3.000300	3.604300	-10.813000	25.054220	0.000906	20.673926
976.234664	-3.002100	3.602700	-10.814000	25.057247	0.000906	20.679336
977.234030	-2.989800	3.604000	-10.774000	25.049400	0.000905	20.668613
978.234993	-2.989500	3.602600	-10.769000	25.071138	0.000904	20.674314
979.234710	-2.980800	3.602900	-10.739000	25.079458	0.000904	20.685511
980.239728	-3.000300	3.601900	-10.804000	25.094500	0.000904	20.675480
981.233925	-2.997400	3.601100	-10.793000	25.144105	0.000902	20.693985
982.239728	-3.002600	3.602000	-10.813000	25.128981	0.000900	20.676903
983.237377	-3.003200	3.601100	-10.814000	25.136596	0.000901	20.676488
984.235646	-3.021400	3.600000	-10.874000	25.126278	0.000902	20.691261
985.237502	-2.996400	3.600000	-10.786000	25.135204	0.000903	20.674615
986.237481	-3.001700	3.600400	-10.805000	25.127733	0.000902	20.683237
987.239165	-3.005600	3.599900	-10.819000	25.105785	0.000902	20.674480
988.238678	-2.993700	3.599600	-10.774000	25.112167	0.000901	20.677093
989.239138	-2.997600	3.600200	-10.791000	25.125126	0.000902	20.682517
990.237733	-2.985600	3.599500	-10.744000	25.127778	0.000900	20.688024
991.241472	-3.005900	3.597600	-10.813000	25.151745	0.000899	20.667987
992.237943	-3.028600	3.596900	-10.892000	25.173664	0.000898	20.673397
993.239392	-2.999600	3.598300	-10.792000	25.186754	0.000899	20.678952
994.242471	-3.022000	3.596800	-10.868000	25.195318	0.000900	20.678066
995.240613	-2.986900	3.598300	-10.747000	25.194721	0.000898	20.676045
996.239999	-2.997700	3.596700	-10.781000	25.215926	0.000899	20.664615
997.242630	-2.993100	3.596300	-10.763000	25.177612	0.000899	20.674989
998.240297	-3.019500	3.595600	-10.856000	25.185324	0.000897	20.687948
999.240915	-2.968300	3.596500	-10.672000	25.205088	0.000897	20.678866
1000.249071	-2.991300	3.594900	-10.751000	25.194125	0.000896	20.670704
1001.247321	-2.990000	3.595000	-10.747000	25.216433	0.000894	20.674134
1002.241869	-2.998900	3.595300	-10.781000	25.219508	0.000894	20.680541
1003.243553	-3.006700	3.593900	-10.805000	25.230236	0.000893	20.678510
1004.246592	-3.030400	3.593400	-10.887000	25.235310	0.000894	20.679811
1005.242189	-3.016300	3.592700	-10.835000	25.256694	0.000893	20.682314
1006.246910	-3.005800	3.593300	-10.799000	25.286567	0.000894	20.680538
1007.245481	-2.990700	3.594300	-10.748000	25.294692	0.000894	20.693912
1008.245174	-3.005500	3.592900	-10.798000	25.296615	0.000892	20.702483
1009.247748	-3.014600	3.592000	-10.827000	25.327687	0.000892	20.704757
1010.245111	-3.014100	3.591700	-10.825000	25.302038	0.000890	20.693227
1011.243051	-3.002200	3.591300	-10.780000	25.286188	0.000892	20.702445
1012.249117	-3.028100	3.591900	-10.876000	25.260710	0.000889	20.686821
1013.253206	-3.017400	3.590200	-10.831000	25.270893	0.000889	20.685665
1014.246595	-2.996400	3.590900	-10.759000	25.290545	0.000891	20.700655
1015.251920	-2.973500	3.592600	-10.681000	25.303647	0.000892	20.690102
1016.252844	-3.025300	3.590000	-10.859000	25.263251	0.000888	20.688897
1017.248765	-2.974600	3.591000	-10.679000	25.229344	0.000887	20.697056
1018.251415	-2.999800	3.589800	-10.767000	25.211832	0.000887	20.691327
1019.250257	-2.994300	3.589700	-10.748000	25.269583	0.000888	20.702369
1020.247409	-2.994600	3.590400	-10.751000	25.277974	0.000886	20.697042
1021.254298	-3.012100	3.589200	-10.809000	25.271045	0.000886	20.686766
1022.256204	-2.979500	3.589400	-10.693000	25.250217	0.000887	20.682924
1023.254973	-3.000600	3.587400	-10.763000	25.205678	0.000885	20.693685
1024.254868	-2.985900	3.589100	-10.714000	25.199004	0.000884	20.702158
1025.260254	-3.007200	3.587300	-10.786000	25.193323	0.000885	20.703567
1026.253945	-3.003300	3.587800	-10.774000	25.236580	0.000884	20.691044
1027.262655	-3.002800	3.588400	-10.774000	25.216427	0.000884	20.710642
1028.258805	-3.010800	3.587500	-10.800000	25.223222	0.000885	20.706083
1029.256761	-3.007100	3.587600	-10.787000	25.220026	0.000885	20.701452
1030.257700	-2.999000	3.588000	-10.759000	25.267857	0.000883	20.710593
1031.255712	-2.997600	3.586600	-10.750000	25.282473	0.000884	20.707250
1032.258893	-2.988000	3.585500	-10.711000	25.306399	0.000881	20.705194
1033.265770	-2.992000	3.585200	-10.726000	25.346394	0.000883	20.717852
1034.257791	-3.005400	3.583500	-10.767000	25.364653	0.000882	20.714373
1035.255958	-2.997600	3.585800	-10.748000	25.393420	0.000879	20.719077
1036.259222	-2.988700	3.583600	-10.709000	25.409185	0.000881	20.713570
1037.256494	-2.997200	3.585500	-10.745000	25.395381	0.000878	20.695440
1038.257842	-3.010500	3.583400	-10.786000	25.406810	0.000878	20.708340
1039.256433	-2.994300	3.582400	-10.725000	25.400307	0.000879	20.718406
1040.257402	-2.998900	3.583000	-10.744000	25.454112	0.000879	20.699414
1041.259768	-3.010700	3.583800	-10.788000	25.451183	0.000878	20.706904
1042.257344	-3.000900	3.582900	-10.751000	25.465927	0.000877	20.714124
1043.258637	-2.995800	3.582900	-10.732000	25.429376	0.000874	20.720095
1044.256522	-3.017300	3.580400	-10.802000	25.411202	0.000875	20.716070
1045.260565	-3.017800	3.581200	-10.805000	25.370568	0.000875	20.713200
1046.256147	-2.984700	3.581300	-10.687000	25.329471	0.000873	20.724093
1047.258247	-3.006700	3.579500	-10.762000	25.288930	0.000873	20.730804
1048.257554	-3.001200	3.580100	-10.744000	25.286920	0.000873	20.709345
1049.256863	-2.965800	3.581100	-10.620000	25.326189	0.000875	20.705150
1050.262942	-2.988800	3.580600	-10.700000	25.340149	0.000872	20.713952
1051.260576	-2.992800	3.580000	-10.713000	25.359910	0.000872	20.710085
1052.259530	-3.003800	3.578800	-10.749000	25.368531	0.000871	20.693136
1053.256780	-2.981100	3.579500	-10.670000	25.374935	0.000872	20.716638
1054.260657	-2.988800	3.579100	-10.696000	25.386038	0.000871	20.711664
1055.257558	-3.009300	3.579300	-10.770000	25.391921	0.000870	20.715676
1056.259217	-2.975900	3.579400	-10.651000	25.417565	0.000868	20.720563
1057.262131	-2.981100	3.579200	-10.669000	25.449939	0.000868	20.700914
1058.265152	-2.983500	3.578100	-10.674000	25.465049	0.000867	20.749754
1059.261545	-2.999600	3.575900	-10.726000	25.466611	0.000865	20.714336
1060.266977	-2.991200	3.577400	-10.700000	25.479456	0.000868	20.716330
1061.265346	-2.999300	3.576300	-10.724000	25.480969	0.000867	20.718798
1062.265476	-2.991200	3.577500	-10.701000	25.499928	0.000867	20.733570
1063.269526	-3.027300	3.574000	-10.819000	25.460858	0.000865	20.723734
1064.262721	-3.014100	3.574900	-10.775000	25.440396	0.000866	20.717410
1065.265209	-3.022800	3.574200	-10.802000	25.424621	0.000865	20.720536
1066.264928	-2.990400	3.575200	-10.691000	25.435130	0.000867	20.734408
1067.262136	-2.992700	3.574400	-10.696000	25.420564	0.000863	20.722152
1068.264857	-2.998800	3.573100	-10.714000	25.412151	0.000863	20.733145
1069.266476	-3.000300	3.573400	-10.719000	25.443860	0.000863	20.728476
1070.263652	-2.993100	3.573700	-10.695000	25.428495	0.000862	20.737229
1071.272490	-3.002100	3.573500	-10.726000	25.421581	0.000861	20.722225
1072.267970	-3.010600	3.573100	-10.756000	25.460496	0.000860	20.725267
1073.266519	-3.007100	3.571000	-10.736000	25.476089	0.000862	20.727648
1074.267689	-2.998100	3.572400	-10.710000	25.500290	0.000862	20.739624
1075.272622	-3.002100	3.571000	-10.720000	25.485508	0.000862	20.733314
1076.267978	-3.000500	3.571900	-10.716000	25.492263	0.000857	20.729666
1077.267616	-3.006900	3.572800	-10.740000	25.509974	0.000858	20.748402
1078.268326	-2.988300	3.571500	-10.672000	25.528474	0.000860	20.729521
1079.266546	-3.001400	3.571100	-10.717000	25.473848	0.000860	20.743417
1080.267722	-3.013100	3.568800	-10.751000	25.477929	0.000857	20.721436
1081.272572	-3.007600	3.569600	-10.734000	25.476971	0.000857	20.740863
1082.268082	-3.008500	3.569100	-10.737000	25.487421	0.000856	20.735235
1083.270324	-2.981000	3.569200	-10.639000	25.470471	0.000854	20.740500
1084.270636	-3.011900	3.568900	-10.747000	25.454114	0.000857	20.737350
1085.271358	-3.014400	3.568000	-10.754000	25.461703	0.000855	20.741178
1086.271832	-2.984900	3.568600	-10.651000	25.431969	0.000855	20.744511
1087.269978	-3.005700	3.569800	-10.729000	25.395562	0.000854	20.750627
1088.266942	-2.987600	3.567800	-10.658000	25.383343	0.000855	20.743573
1089.267334	-3.006800	3.567100	-10.724000	25.418359	0.000852	20.725153
1090.275208	-2.981000	3.567100	-10.631000	25.410272	0.000851	20.733629
1091.273097	-3.025600	3.565500	-10.786000	25.436519	0.000853	20.729639
1092.269654	-2.993500	3.567200	-10.677000	25.467793	0.000854	20.723111
1093.272217	-2.991600	3.567400	-10.670000	25.471546	0.000852	20.758176
1094.270110	-2.998900	3.566600	-10.695000	25.506752	0.000850	20.740898
1095.271217	-2.993800	3.566300	-10.676000	25.525566	0.000853	20.739403
1096.270075	-2.988600	3.564800	-10.652000	25.548022	0.000849	20.761481
1097.272172	-3.007100	3.565300	-10.720000	25.550879	0.000847	20.750600
1098.276197	-2.989400	3.565200	-10.657000	25.512429	0.000848	20.746599
1099.273197	-2.992400	3.564200	-10.665000	25.483941	0.000848	20.752130
1100.277311	-2.999700	3.564800	-10.692000	25.477003	0.000848	20.744214
1101.272017	-2.994800	3.563900	-10.671000	25.438236	0.000845	20.742743
1102.275292	-3.008000	3.564300	-10.720000	25.445209	0.000846	20.741210
1103.272083	-2.983800	3.563900	-10.633000	25.438826	0.000845	20.742387
1104.274946	-2.995100	3.562100	-10.668000	25.412565	0.000846	20.741148
1105.273322	-3.003400	3.562400	-10.698000	25.433704	0.000846	20.755263
1106.274673	-3.005600	3.562500	-10.706000	25.430109	0.000844	20.756394
1107.276206	-3.008700	3.561900	-10.716000	25.405504	0.000842	20.743540
1108.273827	-2.992900	3.561100	-10.657000	25.393602	0.000841	20.747711
1109.275937	-2.995900	3.562000	-10.670000	25.420238	0.000842	20.739844
1110.275236	-3.001400	3.561400	-10.688000	25.454891	0.000843	20.761839
1111.275102	-3.003100	3.560900	-10.692000	25.483583	0.000840	20.740865
1112.273386	-2.982500	3.561200	-10.619000	25.493885	0.000841	20.767332
1113.274970	-3.019100	3.559700	-10.745000	25.510121	0.000840	20.751868
1114.274950	-3.002400	3.559900	-10.687000	25.536778	0.000840	20.750189
1115.274370	-2.973800	3.559800	-10.585000	25.544574	0.000840	20.766553
1116.277506	-2.979300	3.558500	-10.599000	25.570565	0.000840	20.753775
1117.274250	-2.994700	3.558300	-10.655000	25.583989	0.000838	20.764885
1118.274297	-3.016900	3.557100	-10.728000	25.579595	0.000837	20.759998
1119.274942	-3.001100	3.558000	-10.677000	25.620146	0.000836	20.761844
1120.277106	-3.014400	3.557400	-10.722000	25.611347	0.000837	20.764861
1121.275227	-3.034400	3.555700	-10.788000	25.613550	0.000837	20.753322
1122.275553	-3.015500	3.557100	-10.725000	25.615424	0.000836	20.757102
1123.277457	-3.004100	3.556700	-10.684000	25.649488	0.000836	20.760494
1124.276262	-2.993900	3.557700	-10.650000	25.633351	0.000834	20.749502
1125.277908	-3.001100	3.555900	-10.670000	25.607881	0.000835	20.752845
1126.283432	-3.002500	3.556900	-10.678000	25.623750	0.000835	20.764990
1127.277502	-2.996900	3.555400	-10.655000	25.653975	0.000833	20.764527
1128.277030	-2.998200	3.555800	-10.660000	25.631580	0.000834	20.776173
1129.281583	-3.004300	3.553700	-10.675000	25.593460	0.000833	20.774398
1130.276735	-2.990300	3.554300	-10.627000	25.589138	0.000832	20.763893
1131.276586	-2.989500	3.554400	-10.624000	25.562917	0.000831	20.782130
1132.278217	-2.990500	3.553300	-10.625000	25.534781	0.000832	20.771418
1133.279616	-3.017500	3.551900	-10.717000	25.497698	0.000830	20.758359
1134.281186	-3.009100	3.553500	-10.691000	25.530991	0.000831	20.760024
1135.282054	-2.980200	3.553400	-10.589000	25.517988	0.000831	20.783951
1136.278386	-3.007300	3.551900	-10.681000	25.489572	0.000831	20.772959
1137.279665	-2.987400	3.552200	-10.611000	25.489379	0.000828	20.777981
1138.283803	-2.982600	3.552600	-10.595000	25.474366	0.000829	20.791354
1139.280343	-3.000000	3.550700	-10.650000	25.441845	0.000826	20.780507
1140.281878	-2.999300	3.550600	-10.647000	25.456120	0.000827	20.771609
1141.283154	-3.016700	3.550700	-10.710000	25.496241	0.000827	20.779182
1142.282452	-3.016100	3.549900	-10.706000	25.524450	0.000825	20.780483
1143.279090	-3.010200	3.550300	-10.686000	25.543033	0.000826	20.785869
1144.282748	-2.997800	3.551600	-10.646000	25.580404	0.000825	20.774562
1145.279773	-3.006200	3.548100	-10.665000	25.574642	0.000825	20.777784
1146.280399	-2.983500	3.549900	-10.590000	25.600074	0.000824	20.791472
1147.285505	-2.990600	3.549200	-10.612000	25.629600	0.000824	20.771339
1148.285381	-2.988100	3.549400	-10.604000	25.601708	0.000823	20.762292
1149.283525	-3.013500	3.548000	-10.690000	25.636099	0.000824	20.793988
1150.286181	-3.018700	3.546900	-10.706000	25.629139	0.000822	20.783678
1151.286087	-3.004500	3.546200	-10.653000	25.605413	0.000821	20.796359
1152.282560	-3.014200	3.547200	-10.692000	25.593730	0.000820	20.794110
1153.290011	-3.008000	3.546400	-10.666000	25.594334	0.000820	20.798509
1154.286880	-2.992000	3.547200	-10.612000	25.584226	0.000821	20.772711
1155.288380	-3.019100	3.546000	-10.705000	25.627333	0.000820	20.779494
1156.292809	-2.988500	3.545500	-10.595000	25.611233	0.000820	20.797938
1157.291174	-2.995400	3.546300	-10.622000	25.632199	0.000818	20.797183
1158.297493	-2.986200	3.546300	-10.588000	25.681104	0.000819	20.781817
1159.291770	-2.962900	3.545500	-10.505000	25.658454	0.000816	20.803164
1160.294480	-2.975200	3.545400	-10.546000	25.686090	0.000816	20.793937
1161.290471	-2.986200	3.544000	-10.582000	25.726457	0.000815	20.781851
1162.294743	-2.982700	3.546300	-10.576000	25.726943	0.000816	20.782813
1163.290629	-2.984400	3.543100	-10.573000	25.706341	0.000815	20.795785
1164.290776	-3.018000	3.542200	-10.689000	25.693316	0.000817	20.792186
1165.295794	-2.997400	3.543500	-10.620000	25.695821	0.000816	20.806556
1166.292781	-3.009500	3.542700	-10.661000	25.680449	0.000814	20.797755
1167.294512	-3.003300	3.542900	-10.639000	25.686755	0.000814	20.797924
1168.294057	-2.995100	3.543800	-10.612000	25.681466	0.000815	20.813948
1169.293774	-3.008300	3.541500	-10.653000	25.675194	0.000811	20.777778
1170.295226	-3.019900	3.539700	-10.689000	25.637041	0.000813	20.783554
1171.298684	-2.982400	3.541000	-10.559000	25.645356	0.000812	20.813243
1172.296626	-2.996800	3.540500	-10.609000	25.658489	0.000811	20.808889
1173.298058	-3.005100	3.539500	-10.635000	25.644932	0.000810	20.786739
1174.301645	-3.018000	3.538200	-10.677000	25.651263	0.000809	20.819175
1175.298259	-3.017400	3.539700	-10.680000	25.648551	0.000809	20.798433
1176.298934	-2.995600	3.540000	-10.602000	25.656480	0.000810	20.779844
1177.300662	-3.017400	3.538100	-10.676000	25.662121	0.000808	20.805899
1178.299930	-3.024800	3.538400	-10.702000	25.656249	0.000808	20.807588
1179.297868	-2.979600	3.538200	-10.541000	25.661914	0.000808	20.800001
1180.299431	-2.998500	3.538700	-10.608000	25.710683	0.000806	20.817690
1181.297865	-2.994100	3.536500	-10.586000	25.710525	0.000805	20.828911
1182.299696	-3.005700	3.536500	-10.628000	25.731041	0.000805	20.822965
1183.301951	-3.012500	3.535900	-10.651000	25.754437	0.000806	20.822758
1184.299744	-3.002700	3.536000	-10.617000	25.751133	0.000806	20.807111
1185.300265	-3.006900	3.536200	-10.632000	25.769105	0.000805	20.812361
1186.302690	-3.012800	3.535800	-10.652000	25.746629	0.000803	20.834355
1187.298238	-2.976700	3.535900	-10.525000	25.698090	0.000804	20.804093
1188.298776	-3.005500	3.534600	-10.621000	25.660213	0.000805	20.809198
1189.302118	-3.008100	3.536300	-10.636000	25.638339	0.000802	20.808565
1190.310899	-2.998500	3.535500	-10.600000	25.653701	0.000802	20.834899
1191.299984	-3.013900	3.533900	-10.649000	25.667815	0.000802	20.830109
1192.304602	-2.992400	3.535600	-10.579000	25.669738	0.000801	20.806437
1193.302718	-2.993300	3.534000	-10.578000	25.683064	0.000800	20.818873
1194.300499	-3.002900	3.533300	-10.609000	25.722608	0.000800	20.818288
1195.304008	-3.016100	3.531800	-10.651000	25.718359	0.000800	20.809279
1196.302293	-3.016800	3.532400	-10.654000	25.712440	0.000800	20.809971
1197.303898	-2.993100	3.532100	-10.571000	25.718769	0.000799	20.813959
1198.303998	-3.031400	3.530800	-10.702000	25.740629	0.000797	20.815052
1199.300774	-3.005600	3.531900	-10.615000	25.723163	0.000797	20.801776
1200.302192	-3.013700	3.530600	-10.638000	25.712305	0.000795	20.805095
1201.301734	-2.996600	3.531900	-10.583000	25.708843	0.000795	20.778858
1202.299785	-2.998500	3.531700	-10.588000	25.750239	0.000796	20.791989
1203.302205	-3.026900	3.529500	-10.682000	25.766833	0.000796	20.801070
1204.304560	-2.985700	3.529800	-10.538000	25.787506	0.000794	20.804767
1205.305319	-3.011000	3.529000	-10.624000	25.798191	0.000794	20.801275
1206.303824	-2.990700	3.529500	-10.554000	25.814884	0.000792	20.789120
1207.306941	-3.005000	3.527400	-10.598000	25.823598	0.000792	20.804511
1208.305774	-3.015600	3.528800	-10.641000	25.827701	0.000792	20.787770
1209.304686	-3.014700	3.526900	-10.632000	25.824968	0.000791	20.801620
1210.306309	-3.001600	3.526900	-10.585000	25.812427	0.000791	20.792342
1211.303976	-3.003800	3.526600	-10.591000	25.782400	0.000790	20.780671
1212.304908	-3.012400	3.526800	-10.622000	25.769738	0.000791	20.771271
1213.305280	-3.023300	3.525700	-10.659000	25.755796	0.000789	20.777182
1214.305326	-3.000800	3.526400	-10.580000	25.779774	0.000790	20.780404
1215.304890	-2.982100	3.526600	-10.514000	25.791768	0.000789	20.779650
1216.309402	-2.989000	3.525900	-10.538000	25.780233	0.000789	20.791296
1217.307521	-3.010500	3.525800	-10.614000	25.792870	0.000787	20.794982
1218.306565	-2.996400	3.526000	-10.564000	25.828951	0.000787	20.796612
1219.308928	-3.023800	3.524400	-10.655000	25.830801	0.000787	20.775711
1220.308567	-3.002200	3.524300	-10.579000	25.847370	0.000789	20.790458
1221.308236	-2.990800	3.524200	-10.539000	25.830825	0.000786	20.789012
1222.308562	-2.999600	3.523600	-10.568000	25.840934	0.000785	20.791579
1223.309802	-2.997100	3.523500	-10.559000	25.850856	0.000786	20.786374
1224.309055	-2.992600	3.524000	-10.545000	25.862946	0.000785	20.793303
1225.314394	-3.004000	3.522700	-10.582000	25.870825	0.000786	20.767079
1226.308894	-2.982500	3.523500	-10.507000	25.835098	0.000784	20.776708
1227.309681	-2.991400	3.521900	-10.535000	25.856810	0.000785	20.771492
1228.312734	-3.005200	3.521900	-10.583000	25.835835	0.000784	20.788354
1229.309937	-2.994300	3.522200	-10.546000	25.836500	0.000785	20.769108
1230.309287	-3.008400	3.520100	-10.588000	25.803896	0.000782	20.770495
1231.311006	-3.014500	3.519900	-10.609000	25.780343	0.000784	20.766750
1232.313193	-3.006000	3.520300	-10.579000	25.759318	0.000782	20.784513
1233.309370	-3.008400	3.518300	-10.583000	25.736901	0.000782	20.800402
1234.312461	-2.995300	3.518900	-10.539000	25.718853	0.000780	20.779903
1235.309505	-2.994600	3.520100	-10.541000	25.686679	0.000778	20.774615
1236.312881	-3.001400	3.518200	-10.559000	25.715851	0.000779	20.763138
1237.310952	-2.977900	3.519500	-10.480000	25.718732	0.000778	20.778833
1238.314569	-2.984400	3.518100	-10.498000	25.748944	0.000779	20.767928
1239.310973	-2.992500	3.518300	-10.527000	25.803349	0.000778	20.786067
1240.311818	-2.994000	3.516800	-10.528000	25.816456	0.000777	20.750868
1241.312945	-2.986900	3.517500	-10.505000	25.832759	0.000776	20.782419
1242.312913	-3.021600	3.515100	-10.620000	25.804741	0.000775	20.777034
1243.315441	-3.013000	3.515800	-10.592000	25.809448	0.000774	20.768960
1244.311984	-3.012700	3.515400	-10.588000	25.810901	0.000775	20.779429
1245.313280	-3.024900	3.513200	-10.626000	25.826599	0.000774	20.758213
1246.313279	-2.995600	3.515300	-10.529000	25.831694	0.000774	20.763806
1247.317042	-2.984300	3.515500	-10.489000	25.841424	0.000773	20.749397
1248.312438	-3.019200	3.515000	-10.611000	25.838120	0.000774	20.785434
1249.314498	-3.008400	3.514300	-10.571000	25.876001	0.000774	20.777494
1250.319314	-3.001300	3.514000	-10.546000	25.912682	0.000772	20.736581
1251.313925	-2.978900	3.514700	-10.469000	25.912913	0.000772	20.752461
1252.314089	-2.993400	3.513000	-10.515000	25.908930	0.000771	20.760314
1253.315648	-3.013500	3.511900	-10.582000	25.878251	0.000770	20.744666
1254.318436	-2.989200	3.513000	-10.500000	25.829562	0.000769	20.759293
1255.316610	-2.980100	3.513700	-10.470000	25.809799	0.000769	20.763622
1256.317182	-2.980400	3.512200	-10.467000	25.790832	0.000770	20.762114
1257.318396	-2.991300	3.512100	-10.505000	25.784406	0.000768	20.760874
1258.317890	-2.992500	3.511800	-10.508000	25.781126	0.000768	20.752838
1259.324456	-3.012200	3.509900	-10.571000	25.757827	0.000768	20.762151
1260.318061	-2.974900	3.511500	-10.444000	25.722433	0.000766	20.754101
1261.317606	-2.997700	3.510400	-10.522000	25.757027	0.000766	20.750917
1262.323484	-2.976900	3.511100	-10.451000	25.748421	0.000766	20.761238
1263.322625	-3.006700	3.509100	-10.550000	25.757655	0.000766	20.757712
1264.317685	-2.995600	3.508600	-10.510000	25.731282	0.000763	20.759196
1265.325853	-3.013700	3.508600	-10.573000	25.692210	0.000766	20.765945
1266.321416	-3.012900	3.507000	-10.565000	25.653258	0.000762	20.746261
1267.319102	-3.016800	3.506400	-10.578000	25.661318	0.000765	20.752935
1268.318671	-2.967900	3.508200	-10.410000	25.666208	0.000761	20.732715
1269.319526	-2.980200	3.507100	-10.452000	25.679040	0.000761	20.749397
1270.319799	-2.985700	3.507600	-10.471000	25.686969	0.000760	20.780595
1271.326659	-3.005400	3.506100	-10.536000	25.664781	0.000761	20.744085
1272.320671	-3.021400	3.506100	-10.591000	25.621930	0.000761	20.749411
1273.322958	-2.983500	3.503800	-10.453000	25.631807	0.000760	20.729458
1274.326978	-2.997000	3.505900	-10.507000	25.660012	0.000759	20.744036
1275.321612	-2.979000	3.504400	-10.439000	25.647155	0.000759	20.757677
1276.323333	-2.995800	3.503900	-10.496000	25.626493	0.000760	20.725543
1277.321734	-2.978700	3.506000	-10.442000	25.628853	0.000759	20.748778
1278.325115	-3.007600	3.504000	-10.538000	25.610997	0.000757	20.737955
1279.322867	-2.994600	3.504200	-10.493000	25.625221	0.000757	20.735646
1280.324697	-2.993700	3.503700	-10.487000	25.653982	0.000757	20.718064
1281.333717	-2.995800	3.504400	-10.498000	25.648062	0.000756	20.744362
1282.325691	-2.988100	3.501300	-10.461000	25.664403	0.000754	20.725686
1283.329034	-2.961800	3.503800	-10.377000	25.647131	0.000753	20.728728
1284.327773	-3.008200	3.500900	-10.530000	25.697921	0.000754	20.745601
1285.329688	-3.015800	3.502000	-10.560000	25.722927	0.000756	20.737053
1286.326390	-2.994100	3.500300	-10.479000	25.739366	0.000754	20.754988
1287.341087	-3.000500	3.500300	-10.501000	25.729646	0.000753	20.738111
1288.327782	-2.992000	3.499600	-10.468000	25.723933	0.000752	20.727157
1289.331770	-2.972300	3.500200	-10.400000	25.723096	0.000752	20.730110
1290.330962	-2.988800	3.500000	-10.459000	25.680161	0.000749	20.729186
1291.326903	-3.001900	3.499000	-10.503000	25.702145	0.000751	20.724713
1292.329042	-2.994100	3.497800	-10.472000	25.720821	0.000752	20.724506
1293.328001	-2.990800	3.497500	-10.459000	25.745427	0.000749	20.721720
1294.334856	-3.000900	3.496900	-10.492000	25.792063	0.000751	20.731581
1295.328141	-3.006100	3.498100	-10.515000	25.796483	0.000749	20.718476
1296.329401	-3.020500	3.496900	-10.562000	25.783845	0.000748	20.750354
1297.328622	-2.987400	3.496900	-10.446000	25.762786	0.000749	20.726828
1298.329774	-2.984000	3.497000	-10.434000	25.763392	0.000748	20.721747
1299.329253	-2.977900	3.497100	-10.413000	25.785044	0.000747	20.722633
1300.328823	-2.981300	3.496600	-10.423000	25.798964	0.000746	20.716701
1301.329882	-2.994800	3.495400	-10.467000	25.776523	0.000745	20.734938
1302.327987	-3.005000	3.494600	-10.500000	25.785202	0.000744	20.722318
1303.331282	-3.021800	3.493700	-10.556000	25.758744	0.000745	20.715655
1304.332850	-2.990000	3.495200	-10.450000	25.741278	0.000744	20.725613
1305.329434	-3.012100	3.493200	-10.520000	25.743239	0.000746	20.722366
1306.333644	-3.021800	3.492200	-10.551000	25.736013	0.000742	20.729334
1307.331600	-2.997300	3.493800	-10.471000	25.749703	0.000742	20.721273
1308.334238	-2.972000	3.493200	-10.381000	25.759423	0.000742	20.710172
1309.329663	-3.005400	3.492700	-10.496000	25.787369	0.000742	20.714063
1310.332976	-3.012800	3.490700	-10.515000	25.781874	0.000741	20.715181
1311.333740	-2.997900	3.492500	-10.469000	25.805197	0.000740	20.720117
1312.334514	-3.010600	3.489900	-10.506000	25.841156	0.000743	20.705977
1313.329182	-2.982600	3.491200	-10.411000	25.843564	0.000740	20.725942
1314.331170	-3.011300	3.490100	-10.510000	25.854844	0.000739	20.723997
1315.330297	-3.004000	3.489300	-10.480000	25.831085	0.000739	20.711509
1316.330554	-3.001000	3.490700	-10.474000	25.842693	0.000739	20.721747
1317.332250	-3.002000	3.489400	-10.474000	25.866317	0.000738	20.704700
1318.330035	-3.002600	3.489000	-10.474000	25.852653	0.000737	20.717053
1319.332849	-3.017000	3.488600	-10.524000	25.826717	0.000736	20.720397
1320.336909	-3.010300	3.487500	-10.497000	25.819939	0.000735	20.720701
1321.335158	-3.001000	3.487700	-10.465000	25.817507	0.000736	20.699764
1322.330449	-2.995600	3.486200	-10.442000	25.822541	0.000734	20.701976
1323.333703	-2.993200	3.487800	-10.439000	25.834331	0.000733	20.718562
1324.335096	-3.016100	3.485900	-10.512000	25.854772	0.000734	20.712543
1325.332363	-3.008500	3.486400	-10.488000	25.864587	0.000732	20.695375
1326.337208	-3.001600	3.484900	-10.460000	25.847437	0.000733	20.718452
1327.336491	-3.005800	3.486100	-10.477000	25.839037	0.000731	20.715229
1328.338418	-3.007100	3.483800	-10.475000	25.848467	0.000732	20.710003
1329.334344	-2.965600	3.486300	-10.338000	25.830772	0.000730	20.702184
1330.334865	-2.975700	3.486000	-10.372000	25.812714	0.000731	20.693053
1331.340593	-3.016100	3.484300	-10.508000	25.779490	0.000730	20.703302
1332.340646	-3.002100	3.483700	-10.458000	25.812339	0.000731	20.694573
1333.335087	-2.983500	3.483900	-10.393000	25.837380	0.000729	20.710245
1334.335948	-3.022700	3.483400	-10.527000	25.838107	0.000730	20.677782
1335.337750	-3.003300	3.480900	-10.452000	25.890692	0.000730	20.689356
1336.336206	-3.010400	3.481700	-10.480000	25.895315	0.000730	20.685466
1337.337202	-3.011900	3.481400	-10.485000	25.884425	0.000727	20.698708
1338.340419	-3.011900	3.481200	-10.483000	25.891394	0.000728	20.693856
1339.340249	-2.993600	3.482900	-10.426000	25.839936	0.000726	20.685784
1340.340261	-3.001800	3.481400	-10.449000	25.795432	0.000726	20.707462
1341.341688	-3.018300	3.479500	-10.501000	25.732263	0.000726	20.703281
1342.340506	-2.987900	3.480400	-10.398000	25.710318	0.000726	20.688349
1343.339788	-3.002200	3.478800	-10.443000	25.667600	0.000726	20.685272
1344.341151	-3.015800	3.477300	-10.486000	25.634071	0.000725	20.685735
1345.342195	-3.014700	3.476800	-10.480000	25.620707	0.000723	20.689858
1346.343352	-2.995600	3.478500	-10.419000	25.578155	0.000721	20.706392
1347.349830	-2.989700	3.478300	-10.397000	25.577235	0.000724	20.683181
1348.338892	-3.003200	3.477400	-10.443000	25.576993	0.000723	20.666341
1349.340244	-2.996900	3.477000	-10.419000	25.629747	0.000721	20.679969
1350.343621	-3.010000	3.477700	-10.467000	25.665264	0.000721	20.685770
1351.343928	-2.989400	3.476100	-10.391000	25.697014	0.000722	20.672614
1352.341900	-2.989100	3.476700	-10.389000	25.712689	0.000722	20.697843
1353.346340	-2.958800	3.477400	-10.287000	25.743070	0.000721	20.695642
1354.346178	-2.971700	3.476100	-10.327000	25.751543	0.000719	20.676650
1355.342698	-2.993800	3.475000	-10.402000	25.784548	0.000718	20.676138
1356.346003	-3.005100	3.474200	-10.439000	25.783714	0.000718	20.688104
1357.341998	-2.991000	3.473600	-10.389000	25.777250	0.000719	20.697259
1358.343986	-3.016700	3.473100	-10.476000	25.749048	0.000718	20.677938
1359.348252	-3.019600	3.472500	-10.483000	25.716948	0.000715	20.682206
1360.345362	-2.976600	3.473500	-10.339000	25.700667	0.000717	20.678180
1361.344442	-2.993500	3.473800	-10.397000	25.715835	0.000715	20.686304
1362.346383	-2.998100	3.472100	-10.408000	25.751384	0.000717	20.670801
1363.344601	-2.988800	3.471800	-10.375000	25.795343	0.000714	20.698363
1364.347165	-2.990100	3.471200	-10.379000	25.804094	0.000713	20.671590
1365.346561	-3.003100	3.470300	-10.421000	25.829366	0.000715	20.672794
1366.346336	-2.998200	3.471600	-10.408000	25.805146	0.000713	20.681182
1367.349048	-2.990600	3.470000	-10.377000	25.799264	0.000712	20.690922
1368.351448	-2.985300	3.471300	-10.361000	25.815640	0.000711	20.664221
1369.351602	-2.983400	3.469600	-10.350000	25.823858	0.000710	20.670105
1370.348466	-2.994900	3.469000	-10.388000	25.843052	0.000711	20.705037
1371.353135	-2.985300	3.469700	-10.357000	25.851149	0.000711	20.659112
1372.348318	-3.014200	3.468300	-10.453000	25.833260	0.000710	20.670542
1373.352686	-2.996300	3.466900	-10.386000	25.840957	0.000711	20.697243
1374.351637	-2.997500	3.466300	-10.390000	25.833236	0.000710	20.681424
1375.351123	-3.007000	3.466200	-10.421000	25.857150	0.000708	20.678894
1376.351254	-2.991900	3.466300	-10.370000	25.888326	0.000709	20.670857
1377.351784	-3.015600	3.464200	-10.445000	25.907860	0.000708	20.649227
1378.353422	-2.987700	3.465900	-10.354000	25.925637	0.000708	20.683211
1379.350417	-3.017400	3.464100	-10.451000	25.931641	0.000707	20.659843
1380.352627	-2.995600	3.465400	-10.380000	25.931845	0.000706	20.693242
1381.353879	-3.005200	3.464500	-10.411000	25.959450	0.000705	20.665970
1382.350551	-2.973100	3.464800	-10.300000	25.964121	0.000707	20.682518
1383.353072	-3.007300	3.463300	-10.414000	25.966808	0.000704	20.674311
1384.353155	-3.003600	3.463000	-10.401000	25.960370	0.000705	20.674007
1385.349813	-2.993900	3.464600	-10.371000	25.977105	0.000706	20.677070
1386.352068	-3.019400	3.461600	-10.451000	25.946865	0.000704	20.666603
1387.353189	-3.015500	3.462600	-10.440000	25.967655	0.000704	20.685121
1388.350985	-3.003700	3.462600	-10.400000	25.977615	0.000702	20.669521
1389.351565	-2.998600	3.461800	-10.380000	25.963880	0.000701	20.651927
1390.351645	-3.002400	3.460900	-10.390000	25.922347	0.000701	20.675163
1391.350985	-3.004500	3.461000	-10.397000	25.862332	0.000701	20.678409
1392.354690	-3.011100	3.460600	-10.419000	25.807785	0.000700	20.680039
1393.352499	-2.984900	3.460500	-10.328000	25.776982	0.000701	20.660950
1394.352606	-3.008400	3.460200	-10.408000	25.780600	0.000699	20.679759
1395.352527	-2.956900	3.461500	-10.235000	25.809528	0.000699	20.670410
1396.353668	-3.014600	3.457800	-10.423000	25.819272	0.000698	20.675931
1397.351607	-3.014900	3.458300	-10.426000	25.844602	0.000700	20.684781
1398.353004	-2.989500	3.459200	-10.341000	25.831785	0.000698	20.673328
1399.355935	-3.014400	3.456900	-10.419000	25.859417	0.000698	20.669316
1400.353134	-2.976500	3.458300	-10.292000	25.856343	0.000696	20.661960
1401.356392	-2.993200	3.457000	-10.346000	25.867103	0.000694	20.678935
1402.355239	-2.990200	3.455900	-10.333000	25.880112	0.000696	20.673985
1403.355258	-2.989600	3.455200	-10.328000	25.886262	0.000696	20.656927
1404.357658	-2.990900	3.455600	-10.335000	25.925157	0.000694	20.668502
1405.355546	-3.014900	3.454300	-10.414000	25.914653	0.000694	20.665536
1406.356845	-2.987300	3.455100	-10.319000	25.906871	0.000693	20.684272
1407.357090	-3.007300	3.453700	-10.385000	25.844629	0.000693	20.673902
1408.357262	-3.001000	3.453700	-10.364000	25.832223	0.000692	20.673293
1409.359203	-3.022700	3.453900	-10.438000	25.744886	0.000691	20.672334
1410.360418	-2.982900	3.453700	-10.300000	25.742815	0.000690	20.662192
1411.358599	-3.009600	3.452600	-10.390000	25.775507	0.000691	20.672746
1412.357750	-2.996400	3.452300	-10.343000	25.809748	0.000691	20.657827
1413.362783	-2.996100	3.453200	-10.345000	25.854734	0.000689	20.667931
1414.359917	-2.988700	3.453100	-10.319000	25.849287	0.000691	20.676685
1415.358815	-2.999100	3.451300	-10.350000	25.836701	0.000690	20.675421
1416.361351	-2.986100	3.451100	-10.305000	25.860302	0.000689	20.675896
1417.360278	-3.015600	3.450000	-10.403000	25.897069	0.000688	20.671105
1418.358723	-2.991700	3.449500	-10.319000	25.868157	0.000690	20.669561
1419.361451	-3.003600	3.448500	-10.356000	25.813489	0.000688	20.677235
1420.360382	-2.949200	3.451900	-10.178000	25.770183	0.000688	20.676408
1421.358522	-3.017800	3.449100	-10.406000	25.747511	0.000687	20.670704
1422.363660	-2.984300	3.447900	-10.288000	25.713609	0.000685	20.661780
1423.362930	-3.012100	3.447900	-10.384000	25.694206	0.000686	20.666473
1424.361967	-3.000000	3.447700	-10.342000	25.685284	0.000686	20.689758
1425.367996	-3.003300	3.448400	-10.355000	25.740237	0.000684	20.675252
1426.361340	-2.986700	3.448700	-10.299000	25.769928	0.000686	20.687058
1427.361495	-2.980000	3.446600	-10.270000	25.785361	0.000683	20.665099
1428.363152	-2.993500	3.447000	-10.317000	25.802268	0.000682	20.667384
1429.362853	-2.983200	3.446600	-10.281000	25.800090	0.000684	20.692226
1430.369648	-3.000600	3.445300	-10.337000	25.858076	0.000683	20.658959
1431.368619	-3.009400	3.444600	-10.365000	25.819963	0.000680	20.689429
1432.362529	-3.006600	3.443900	-10.354000	25.820846	0.000680	20.681306
1433.364154	-2.998300	3.444900	-10.328000	25.857773	0.000680	20.670035
1434.366604	-2.989200	3.445100	-10.298000	25.892955	0.000680	20.670766
1435.366704	-2.991700	3.443600	-10.301000	25.891067	0.000679	20.673611
1436.368720	-3.046300	3.441100	-10.480000	25.907370	0.000679	20.691886
1437.365541	-3.016100	3.442400	-10.381000	25.898922	0.000677	20.672018
1438.363620	-3.020200	3.441600	-10.393000	25.930362	0.000678	20.665196
1439.363795	-3.011100	3.441200	-10.361000	25.924554	0.000677	20.700142
1440.368437	-2.987700	3.442400	-10.284000	25.926066	0.000675	20.681745
1441.365218	-3.007100	3.442500	-10.351000	25.948563	0.000676	20.666886
1442.366959	-3.007800	3.439800	-10.346000	25.955752	0.000676	20.668419
1443.375595	-2.997100	3.441400	-10.313000	25.971871	0.000674	20.696469
1444.368693	-2.996900	3.439800	-10.307000	26.012179	0.000675	20.690499
1445.368600	-3.023800	3.438500	-10.396000	26.012989	0.000675	20.705064
1446.383681	-2.990300	3.439900	-10.286000	26.034432	0.000674	20.700055
1447.371028	-2.971800	3.438600	-10.218000	26.062748	0.000674	20.679191
1448.369576	-2.980300	3.440400	-10.253000	26.059021	0.000671	20.679713
1449.369129	-2.979700	3.437200	-10.241000	26.063981	0.000669	20.688017
1450.369078	-3.011000	3.438400	-10.351000	26.080790	0.000671	20.698269
1451.369239	-3.010000	3.436900	-10.344000	26.054591	0.000671	20.699446
1452.371458	-2.996600	3.438400	-10.302000	26.001191	0.000669	20.685148
1453.370746	-2.995100	3.435800	-10.289000	25.974362	0.000671	20.698498
1454.370242	-3.000800	3.436200	-10.311000	25.969983	0.000669	20.683192
1455.375205	-2.992900	3.436400	-10.284000	25.969921	0.000669	20.672697
1456.372452	-2.976600	3.436300	-10.227000	25.963727	0.000668	20.690184
1457.382987	-2.998700	3.435700	-10.302000	25.980886	0.000669	20.689405
1458.374739	-3.005200	3.434200	-10.319000	26.021618	0.000666	20.665366
1459.370838	-3.024600	3.433000	-10.383000	26.016512	0.000668	20.703388
1460.385974	-3.015200	3.432700	-10.350000	26.012568	0.000666	20.688518
1461.385132	-3.000700	3.434100	-10.304000	26.031070	0.000665	20.699048
1462.378029	-2.989400	3.434100	-10.264000	26.049413	0.000665	20.670534
1463.376690	-2.979600	3.434000	-10.231000	26.039575	0.000666	20.684358
1464.376494	-2.997800	3.432100	-10.288000	26.007267	0.000664	20.682243
1465.375257	-2.989800	3.431700	-10.258000	25.991341	0.000665	20.708445
1466.382082	-3.034900	3.432200	-10.416000	26.035135	0.000663	20.695545
1467.375807	-3.001900	3.430400	-10.297000	26.036840	0.000662	20.693465
1468.380246	-3.015900	3.430700	-10.345000	26.043726	0.000664	20.698487
1469.376349	-2.988900	3.430100	-10.251000	26.024946	0.000660	20.686255
1470.375724	-3.006700	3.429200	-10.310000	26.037626	0.000662	20.691884
1471.374070	-2.991800	3.429000	-10.257000	26.044257	0.000660	20.679579
1472.376185	-2.972700	3.430800	-10.198000	25.971482	0.000661	20.699398
1473.376463	-2.973600	3.429500	-10.197000	25.952821	0.000662	20.678752
1474.380790	-2.995500	3.429500	-10.272000	25.943140	0.000659	20.683251
1475.386587	-3.012200	3.427900	-10.325000	25.973115	0.000659	20.689184
1476.383560	-3.006300	3.427600	-10.304000	25.975644	0.000660	20.693621
1477.379485	-3.001400	3.428500	-10.288000	25.977810	0.000659	20.678727
1478.379178	-2.986000	3.428500	-10.237000	26.008862	0.000657	20.701866
1479.376865	-3.019200	3.425900	-10.343000	25.981028	0.000657	20.690496
1480.380635	-3.002500	3.427400	-10.289000	25.979722	0.000657	20.708152
1481.390559	-2.991700	3.427500	-10.253000	25.991738	0.000658	20.700783
1482.381562	-2.982300	3.426300	-10.217000	26.027967	0.000656	20.705414
1483.387447	-2.996100	3.424500	-10.260000	26.060251	0.000655	20.684744
1484.385108	-2.990400	3.425200	-10.240000	26.067113	0.000654	20.681680
1485.379172	-2.988700	3.424900	-10.235000	26.072194	0.000654	20.686312
1486.379314	-3.008700	3.423900	-10.301000	26.082576	0.000654	20.708125
1487.380816	-2.984200	3.423500	-10.215000	26.071915	0.000653	20.692196
1488.379118	-2.989200	3.424200	-10.233000	26.094711	0.000652	20.690919
1489.380383	-2.984900	3.423900	-10.219000	26.065622	0.000653	20.691089
1490.380801	-2.989400	3.423000	-10.231000	26.078436	0.000654	20.709181
1491.380846	-2.997700	3.422400	-10.258000	26.102430	0.000653	20.691563
1492.382532	-2.985700	3.421700	-10.215000	26.096792	0.000652	20.714348
1493.388764	-3.000700	3.421000	-10.265000	26.058374	0.000652	20.716051
1494.387782	-3.019400	3.419700	-10.324000	26.088853	0.000650	20.698309
1495.382090	-2.999500	3.420600	-10.258000	26.107935	0.000649	20.724597
1496.383033	-3.017500	3.419400	-10.317000	26.131795	0.000649	20.685506
1497.385842	-2.990500	3.419400	-10.224000	26.132267	0.000649	20.711587
1498.383095	-3.014400	3.418400	-10.303000	26.132690	0.000646	20.706322
1499.381496	-2.985600	3.419600	-10.208000	26.122078	0.000647	20.712729
1500.382388	-3.019900	3.418300	-10.322000	26.085935	0.000646	20.713872
1501.397994	-3.011300	3.418100	-10.292000	26.092880	0.000646	20.704253
1502.381250	-3.002100	3.417400	-10.258000	26.076849	0.000646	20.720863
1503.382765	-3.012700	3.417200	-10.294000	26.088670	0.000648	20.713775
1504.390298	-2.997200	3.417300	-10.241000	26.113753	0.000644	20.702467
1505.383005	-3.012800	3.417200	-10.294000	26.113450	0.000645	20.692678
1506.382306	-3.012400	3.416800	-10.291000	26.135012	0.000646	20.722407
1507.382222	-3.004100	3.415100	-10.258000	26.145514	0.000644	20.710673
1508.386876	-2.998500	3.415600	-10.240000	26.133197	0.000644	20.691657
1509.389495	-3.011300	3.414700	-10.282000	26.123456	0.000641	20.718382
1510.389637	-3.002500	3.413900	-10.250000	26.145697	0.000644	20.712279
1511.393620	-3.003300	3.415100	-10.255000	26.135484	0.000642	20.724778
1512.382161	-2.993800	3.413800	-10.217000	26.086238	0.000641	20.713228
1513.383760	-3.000600	3.412900	-10.239000	26.031266	0.000639	20.703512
1514.382092	-3.003400	3.413000	-10.249000	25.985198	0.000642	20.711757
1515.382852	-2.996200	3.411300	-10.219000	25.988743	0.000640	20.708206
1516.386369	-3.004900	3.413300	-10.255000	25.989628	0.000639	20.710043
1517.383421	-2.995700	3.412300	-10.221000	25.999708	0.000641	20.718274
1518.382634	-2.991000	3.412100	-10.204000	26.005505	0.000639	20.697070
1519.382552	-2.984500	3.412800	-10.185000	26.029381	0.000639	20.717740
1520.384563	-2.983100	3.411000	-10.174000	26.076607	0.000642	20.734846
1521.387385	-2.984300	3.409800	-10.175000	26.062233	0.000640	20.702857
1522.387759	-3.000200	3.410400	-10.231000	26.063624	0.000637	20.698091
1523.387186	-2.998100	3.409600	-10.221000	26.054744	0.000638	20.726629
1524.386195	-3.013500	3.408800	-10.271000	26.061096	0.000638	20.716415
1525.386821	-2.973500	3.408900	-10.135000	26.093464	0.000637	20.734714
1526.395500	-3.006200	3.408500	-10.246000	26.058894	0.000636	20.712780
1527.386900	-3.027300	3.405200	-10.307000	26.079090	0.000635	20.721693
1528.391396	-2.993400	3.408600	-10.202000	26.061884	0.000635	20.707723
1529.387603	-3.005900	3.407000	-10.240000	26.060954	0.000634	20.703469
1530.389621	-2.973800	3.407800	-10.132000	26.082927	0.000634	20.730290
1531.388275	-3.000700	3.406600	-10.220000	26.091411	0.000633	20.717951
1532.388734	-2.962100	3.407000	-10.091000	26.121925	0.000635	20.712101
1533.387054	-2.992700	3.407000	-10.196000	26.055824	0.000634	20.708273
1534.389784	-2.972900	3.406300	-10.124000	26.048298	0.000633	20.723945
1535.390346	-2.998200	3.404800	-10.207000	26.093443	0.000634	20.720467
1536.390772	-2.993900	3.405600	-10.195000	26.049252	0.000631	20.716369
1537.392511	-3.014600	3.404200	-10.261000	26.016327	0.000632	20.730231
1538.390036	-2.987000	3.405800	-10.172000	26.022318	0.000631	20.713963
1539.392082	-3.010700	3.405000	-10.251000	26.055232	0.000630	20.708626
1540.389429	-3.020300	3.401900	-10.274000	26.081235	0.000630	20.717684
1541.395554	-3.020500	3.402700	-10.277000	26.112442	0.000630	20.718694
1542.390822	-3.016500	3.402700	-10.263000	26.112563	0.000629	20.724506
1543.391860	-2.998500	3.405000	-10.207000	26.118140	0.000629	20.717781
1544.390580	-2.987900	3.401200	-10.161000	26.101623	0.000627	20.727739
1545.391823	-2.996700	3.402500	-10.195000	26.094679	0.000628	20.720761
1546.394001	-2.997700	3.401200	-10.195000	26.065056	0.000629	20.722765
1547.392127	-2.994600	3.400900	-10.184000	26.075621	0.000628	20.719629
1548.392644	-3.001600	3.399800	-10.203000	26.042755	0.000628	20.731179
1549.393002	-3.002100	3.399800	-10.205000	26.036221	0.000627	20.728881
1550.395795	-2.997100	3.399000	-10.186000	26.042828	0.000627	20.729355
1551.393538	-2.992700	3.398100	-10.169000	26.072920	0.000627	20.722132
1552.396284	-3.012700	3.397800	-10.236000	26.084766	0.000625	20.736406
1553.396190	-3.013000	3.397200	-10.234000	26.075969	0.000624	20.741792
1554.397276	-3.022600	3.397200	-10.266000	26.046432	0.000624	20.728709
1555.396554	-2.999500	3.397000	-10.188000	26.062900	0.000625	20.722022
1556.396007	-3.016200	3.395900	-10.242000	26.079356	0.000622	20.730969
1557.397118	-3.001200	3.396300	-10.192000	26.096864	0.000621	20.749985
1558.395064	-2.996200	3.395600	-10.173000	26.129956	0.000622	20.717800
1559.397232	-3.004800	3.395100	-10.199000	26.158716	0.000620	20.748123
1560.395720	-3.013300	3.395000	-10.228000	26.164016	0.000620	20.731163
1561.402807	-3.030400	3.394000	-10.282000	26.178679	0.000620	20.739733
1562.396214	-2.990900	3.396600	-10.158000	26.208889	0.000620	20.733580
1563.395945	-3.011000	3.395500	-10.222000	26.222899	0.000618	20.726796
1564.400644	-2.981700	3.394300	-10.120000	26.186543	0.000619	20.731039
1565.398486	-3.003000	3.394000	-10.191000	26.214296	0.000618	20.744704
1566.399571	-2.999500	3.394400	-10.181000	26.156172	0.000617	20.747463
1567.402177	-2.998300	3.393700	-10.174000	26.103562	0.000617	20.736325
1568.399068	-2.973900	3.393600	-10.090000	26.091499	0.000617	20.742697
1569.398391	-2.990400	3.392300	-10.143000	26.064549	0.000616	20.736481
1570.399134	-3.018100	3.390800	-10.233000	26.078090	0.000614	20.742500
1571.398124	-2.979800	3.391900	-10.106000	26.107940	0.000616	20.753053
1572.400978	-2.996900	3.392900	-10.166000	26.121092	0.000614	20.744930
1573.398599	-3.007000	3.392100	-10.199000	26.145509	0.000613	20.741016
1574.399238	-2.986800	3.390100	-10.125000	26.138672	0.000611	20.756432
1575.398282	-2.992000	3.390700	-10.144000	26.125170	0.000613	20.775108
1576.399442	-3.008700	3.389100	-10.196000	26.105168	0.000612	20.755484
1577.399812	-3.019200	3.389000	-10.230000	26.098320	0.000612	20.741490
1578.399083	-2.972800	3.390600	-10.078000	26.110673	0.000610	20.753428
1579.399082	-2.991100	3.389500	-10.138000	26.097642	0.000610	20.728954
1580.400040	-2.991800	3.388200	-10.136000	26.102216	0.000612	20.738292
1581.399399	-3.007100	3.389000	-10.190000	26.105506	0.000609	20.751081
1582.400216	-2.992600	3.388700	-10.139000	26.092317	0.000608	20.755847
1583.399166	-3.041600	3.386100	-10.297000	26.079951	0.000607	20.754328
1584.397881	-2.994200	3.388200	-10.145000	26.050765	0.000609	20.757720
1585.400877	-3.012300	3.387100	-10.202000	26.072459	0.000607	20.746326
1586.401033	-3.011700	3.385900	-10.197000	26.077881	0.000607	20.765999
1587.400583	-2.995000	3.385900	-10.139000	26.128701	0.000607	20.758741
1588.401700	-3.015000	3.385800	-10.207000	26.138042	0.000606	20.767653
1589.400513	-3.009000	3.386700	-10.189000	26.160134	0.000606	20.755713
1590.401165	-3.013300	3.386100	-10.202000	26.159215	0.000607	20.754314
1591.399796	-3.010300	3.385000	-10.189000	26.127248	0.000606	20.743055
1592.403602	-2.999800	3.383900	-10.150000	26.142772	0.000605	20.758655
1593.402566	-2.996100	3.383200	-10.136000	26.180363	0.000605	20.760866
1594.403759	-2.997300	3.382800	-10.139000	26.189487	0.000604	20.762922
1595.405526	-2.987800	3.382900	-10.106000	26.222589	0.000601	20.782910
1596.404156	-3.016600	3.382600	-10.202000	26.229157	0.000602	20.750155
1597.405103	-3.022800	3.380500	-10.217000	26.217457	0.000602	20.768744
1598.406261	-2.994800	3.382600	-10.129000	26.210573	0.000603	20.751868
1599.405897	-3.000800	3.382000	-10.148000	26.161330	0.000600	20.768294
1600.404947	-3.025500	3.379900	-10.225000	26.136007	0.000601	20.765134
1601.404094	-2.982000	3.381500	-10.082000	26.117277	0.000599	20.781401
1602.405985	-2.978700	3.381600	-10.072000	26.155971	0.000598	20.761960
1603.406692	-2.982400	3.380800	-10.082000	26.157459	0.000599	20.748756
1604.407804	-2.980900	3.380500	-10.076000	26.172411	0.000599	20.774687
1605.407457	-2.995500	3.379100	-10.120000	26.210728	0.000599	20.776681
1606.407535	-2.997700	3.379200	-10.129000	26.206554	0.000598	20.755891
1607.407961	-2.999200	3.380300	-10.137000	26.238846	0.000597	20.773168
1608.408411	-2.992400	3.379000	-10.110000	26.236208	0.000597	20.757240
1609.407420	-2.984100	3.378400	-10.081000	26.257923	0.000595	20.767209
1610.409197	-3.001400	3.378500	-10.139000	26.272391	0.000597	20.762782
1611.407999	-3.000400	3.376800	-10.131000	26.302140	0.000592	20.763281
1612.410802	-3.009100	3.376700	-10.160000	26.300713	0.000594	20.760425
1613.409753	-2.989200	3.377200	-10.095000	26.271410	0.000596	20.780289
1614.408321	-3.006900	3.377200	-10.154000	26.312302	0.000596	20.777761
1615.409060	-3.012000	3.375600	-10.167000	26.306737	0.000593	20.754624
1616.407784	-3.008300	3.376900	-10.157000	26.321315	0.000590	20.774017
1617.410006	-3.006400	3.374000	-10.142000	26.344760	0.000591	20.768181
1618.409081	-2.995300	3.375400	-10.110000	26.348462	0.000590	20.764315
1619.409374	-2.989900	3.374500	-10.089000	26.332372	0.000591	20.778017
1620.407805	-2.977500	3.374500	-10.047000	26.312436	0.000590	20.784534
1621.407406	-3.012200	3.374000	-10.162000	26.282130	0.000590	20.776837
1622.409873	-2.986300	3.373500	-10.074000	26.271027	0.000588	20.783696
1623.410462	-2.981800	3.374300	-10.060000	26.264032	0.000588	20.764339
1624.407840	-2.986700	3.373100	-10.073000	26.273568	0.000587	20.792889
1625.411877	-3.001300	3.373300	-10.123000	26.274426	0.000586	20.763404
1626.408210	-2.997900	3.372200	-10.109000	26.280549	0.000586	20.774774
1627.408458	-3.017700	3.371600	-10.172000	26.263212	0.000589	20.781059
1628.408799	-2.989500	3.371500	-10.078000	26.292768	0.000586	20.797959
1629.408733	-2.993300	3.370800	-10.088000	26.311905	0.000586	20.781630
1630.408385	-2.991600	3.372600	-10.088000	26.350981	0.000587	20.789607
1631.409668	-3.026100	3.370000	-10.197000	26.356728	0.000582	20.768830
1632.410891	-3.018000	3.369700	-10.169000	26.363358	0.000583	20.781183
1633.412373	-2.980900	3.370500	-10.046000	26.344789	0.000583	20.785280
1634.409609	-3.003600	3.370200	-10.123000	26.327877	0.000583	20.791517
1635.413234	-3.014000	3.368000	-10.149000	26.342079	0.000583	20.785876
1636.417165	-2.991700	3.369300	-10.079000	26.360079	0.000582	20.772198
1637.411083	-3.005500	3.368800	-10.124000	26.375903	0.000581	20.788575
1638.411792	-3.001500	3.369100	-10.111000	26.371935	0.000581	20.792649
1639.412012	-3.006000	3.366600	-10.119000	26.355495	0.000580	20.796515
1640.409185	-2.998200	3.367000	-10.094000	26.319191	0.000580	20.791323
1641.409668	-3.004200	3.367100	-10.114000	26.322325	0.000581	20.777877
1642.412070	-2.999100	3.366900	-10.096000	26.324467	0.000579	20.785720
1643.410142	-3.008000	3.367200	-10.128000	26.312369	0.000579	20.794424
1644.411888	-3.025600	3.364700	-10.179000	26.262174	0.000577	20.790448
1645.411628	-2.984700	3.365900	-10.045000	26.243532	0.000577	20.785464
1646.409711	-3.030100	3.364500	-10.194000	26.169100	0.000578	20.808344
1647.410210	-3.005000	3.364000	-10.108000	26.159445	0.000577	20.808600
1648.412970	-3.007100	3.365800	-10.120000	26.149367	0.000576	20.810801
1649.411954	-2.994500	3.364800	-10.074000	26.138139	0.000574	20.780078
1650.411552	-3.008200	3.363900	-10.119000	26.181561	0.000575	20.790995
1651.413815	-3.002200	3.364900	-10.100000	26.221186	0.000572	20.782449
1652.412628	-3.005200	3.363400	-10.107000	26.267898	0.000574	20.789087
1653.413132	-2.990900	3.363300	-10.059000	26.276862	0.000572	20.811372
1654.412989	-3.010600	3.363500	-10.126000	26.306815	0.000574	20.809231
1655.412903	-3.003700	3.362200	-10.098000	26.316240	0.000572	20.808746
1656.412715	-2.982000	3.362800	-10.027000	26.305715	0.000573	20.790582
1657.413520	-3.026900	3.360800	-10.171000	26.335463	0.000570	20.801512
1658.412549	-2.972500	3.362500	-9.993200	26.352096	0.000572	20.786460
1659.412511	-3.008300	3.361300	-10.110000	26.348298	0.000571	20.766521
1660.413363	-3.005100	3.360000	-10.096000	26.360554	0.000569	20.784055
1661.412266	-3.007400	3.360100	-10.104000	26.328737	0.000571	20.793330
1662.411117	-3.003600	3.358900	-10.087000	26.310750	0.000571	20.769563
1663.412327	-3.013300	3.359700	-10.122000	26.327904	0.000569	20.788699
1664.414236	-3.025600	3.358100	-10.160000	26.306528	0.000571	20.783338
1665.414330	-2.981400	3.360000	-10.016000	26.271747	0.000568	20.790585
1666.414422	-2.999700	3.358000	-10.071000	26.222725	0.000567	20.775460
1667.415370	-3.001300	3.358700	-10.079000	26.197428	0.000567	20.774695
1668.417039	-3.018000	3.357000	-10.131000	26.218540	0.000565	20.772203
1669.414989	-2.979100	3.357700	-10.002000	26.230674	0.000565	20.776336
1670.416759	-3.000900	3.355800	-10.070000	26.263740	0.000566	20.780167
1671.415524	-2.995800	3.357300	-10.057000	26.284210	0.000565	20.778454
1672.416293	-2.973600	3.357400	-9.983000	26.328174	0.000567	20.765263
1673.418669	-3.012800	3.355300	-10.107000	26.340307	0.000564	20.761335
1674.418628	-2.997100	3.356800	-10.060000	26.354292	0.000564	20.765433
1675.418312	-3.010400	3.355800	-10.102000	26.405728	0.000563	20.778723
1676.418288	-3.019100	3.354800	-10.126000	26.415115	0.000564	20.782942
1677.418415	-2.996100	3.356600	-10.055000	26.437725	0.000563	20.774846
1678.419170	-2.985900	3.354000	-10.012000	26.449856	0.000561	20.787040
1679.419188	-3.003600	3.353100	-10.071000	26.459789	0.000562	20.760039
1680.417748	-2.996400	3.355200	-10.052000	26.502789	0.000561	20.780975
1681.419090	-2.987200	3.354300	-10.019000	26.506273	0.000560	20.767408
1682.417150	-2.996600	3.352400	-10.044000	26.499366	0.000559	20.777061
1683.420559	-3.001500	3.353200	-10.064000	26.528699	0.000560	20.767664
1684.420025	-2.989500	3.352000	-10.019000	26.502816	0.000558	20.762984
1685.418414	-3.008600	3.352500	-10.086000	26.485035	0.000557	20.764078
1686.420194	-3.006000	3.350200	-10.070000	26.467522	0.000557	20.761173
1687.419266	-2.989800	3.350300	-10.015000	26.474478	0.000555	20.760578
1688.422159	-3.012300	3.351000	-10.093000	26.449355	0.000553	20.766621
1689.419586	-3.013800	3.350600	-10.097000	26.440429	0.000557	20.772823
1690.423553	-2.987400	3.349200	-10.005000	26.416903	0.000555	20.773833
1691.422531	-2.998800	3.348900	-10.042000	26.399944	0.000553	20.757262
1692.420509	-2.982900	3.348500	-9.987200	26.425915	0.000553	20.728835
1693.424496	-3.021700	3.348600	-10.117000	26.443032	0.000554	20.748885
1694.423953	-3.016500	3.349800	-10.103000	26.438859	0.000553	20.757019
1695.422392	-3.008600	3.348500	-10.073000	26.449202	0.000553	20.754139
1696.426882	-2.989600	3.350000	-10.014000	26.446299	0.000553	20.753592
1697.427581	-2.985200	3.347100	-9.990800	26.416520	0.000552	20.748317
1698.424535	-3.005000	3.346500	-10.055000	26.460296	0.000549	20.748220
1699.424184	-2.996400	3.346600	-10.027000	26.436805	0.000551	20.738834
1700.428706	-3.003600	3.345400	-10.047000	26.430407	0.000550	20.739515
1701.423334	-2.976800	3.347800	-9.964100	26.439191	0.000548	20.749767
1702.427096	-2.993800	3.345400	-10.015000	26.424275	0.000553	20.741412
1703.427508	-3.012600	3.344800	-10.075000	26.395039	0.000547	20.734313
1704.424336	-2.998600	3.345300	-10.031000	26.374463	0.000550	20.733548
1705.429772	-3.005500	3.344900	-10.053000	26.414309	0.000548	20.750362
1706.429967	-3.007900	3.344900	-10.060000	26.414443	0.000547	20.747178
1707.428045	-2.989200	3.344900	-9.997400	26.483039	0.000548	20.752587
1708.431188	-2.989700	3.344500	-9.997500	26.451783	0.000549	20.741560
1709.434230	-2.981900	3.344000	-9.970800	26.465271	0.000546	20.734254
1710.430287	-3.003000	3.342000	-10.036000	26.482157	0.000546	20.749804
1711.433148	-2.987800	3.343500	-9.988200	26.488530	0.000547	20.729657
1712.433079	-3.012000	3.342000	-10.065000	26.484213	0.000546	20.739542
1713.432014	-3.015100	3.341400	-10.073000	26.439604	0.000545	20.730266
1714.436622	-3.004700	3.342000	-10.040000	26.412424	0.000545	20.729501
1715.435699	-2.992400	3.342200	-10.000000	26.357203	0.000544	20.742280
1716.433548	-3.011100	3.340500	-10.057000	26.305367	0.000543	20.731910
1717.435537	-2.997900	3.340500	-10.013000	26.286326	0.000543	20.757820
1718.434109	-2.984600	3.340600	-9.969100	26.243996	0.000543	20.730926
1719.433517	-3.010400	3.339300	-10.052000	26.286315	0.000543	20.737419
1720.436786	-3.001600	3.339200	-10.022000	26.318109	0.000542	20.724326
1721.434442	-3.005800	3.339300	-10.036000	26.374142	0.000540	20.721370
1722.434235	-2.981700	3.339900	-9.956500	26.421222	0.000538	20.747353
1723.435934	-2.999200	3.337800	-10.010000	26.433040	0.000541	20.744532
1724.438602	-3.002300	3.338400	-10.022000	26.476247	0.000537	20.725845
1725.436250	-2.994700	3.338100	-9.994900	26.445281	0.000538	20.727912
1726.439042	-3.002100	3.336800	-10.016000	26.472387	0.000537	20.714853
1727.437913	-2.968800	3.338100	-9.909000	26.468386	0.000537	20.720314
1728.435629	-3.010600	3.336400	-10.042000	26.477287	0.000536	20.743013
1729.437562	-3.015200	3.334600	-10.052000	26.516319	0.000537	20.751426
1730.437749	-3.025400	3.334900	-10.087000	26.515510	0.000536	20.713627
1731.435150	-3.011400	3.336400	-10.046000	26.506196	0.000535	20.721809
1732.439543	-2.996300	3.335000	-9.991800	26.480227	0.000534	20.736485
1733.436026	-3.016700	3.334000	-10.057000	26.421924	0.000534	20.707753
1734.435433	-3.001900	3.334300	-10.009000	26.426242	0.000534	20.713042
1735.440096	-3.000500	3.334400	-10.004000	26.420533	0.000531	20.720581
1736.437795	-3.005200	3.334600	-10.020000	26.452285	0.000529	20.752970
1737.435823	-2.998100	3.334600	-9.996200	26.501441	0.000531	20.733152
1738.440671	-3.027900	3.332400	-10.089000	26.507804	0.000529	20.732435
1739.436769	-2.980500	3.334200	-9.936900	26.547827	0.000528	20.726672
1740.437161	-2.995300	3.334200	-9.984500	26.547500	0.000529	20.712118
1741.438179	-2.996300	3.332200	-9.983600	26.558446	0.000528	20.730234
1742.439019	-3.009500	3.331400	-10.025000	26.577241	0.000528	20.712142
1743.438013	-2.992800	3.331100	-9.968900	26.605845	0.000527	20.718137
1744.439986	-3.000200	3.330600	-9.991200	26.603376	0.000528	20.711862
1745.440282	-2.996800	3.331500	-9.982200	26.592056	0.000525	20.725613
1746.440050	-3.016900	3.329400	-10.043000	26.567976	0.000526	20.719425
1747.450977	-2.988000	3.330000	-9.949100	26.575778	0.000525	20.733906
1748.440815	-3.009700	3.330200	-10.022000	26.576721	0.000524	20.717784
1749.440753	-3.021700	3.329000	-10.059000	26.558990	0.000524	20.712288
1750.442616	-2.981800	3.330200	-9.928200	26.539082	0.000524	20.717407
1751.442244	-2.993600	3.329700	-9.966300	26.563479	0.000522	20.724388
1752.442211	-3.002500	3.328800	-9.993500	26.557141	0.000522	20.722283
1753.441677	-3.021100	3.327600	-10.051000	26.556948	0.000522	20.735841
1754.442399	-2.983600	3.327600	-9.927800	26.585249	0.000521	20.710235
1755.445141	-3.019700	3.327700	-10.047000	26.556138	0.000521	20.721750
1756.444161	-2.994000	3.328500	-9.964600	26.543268	0.000519	20.725409
1757.443018	-2.999300	3.325200	-9.973000	26.532068	0.000519	20.702295
1758.443853	-2.987900	3.327200	-9.940500	26.511326	0.000521	20.719853
1759.445762	-2.988300	3.326000	-9.938200	26.514301	0.000519	20.723792
1760.443813	-2.984200	3.325800	-9.922500	26.538541	0.000517	20.723027
1761.442629	-3.024100	3.322900	-10.048000	26.508461	0.000518	20.706541
1762.443614	-2.996200	3.324300	-9.959100	26.518137	0.000516	20.722906
1763.444338	-2.967500	3.324600	-9.864000	26.557253	0.000518	20.707697
1764.446153	-3.009700	3.324600	-10.005000	26.569142	0.000517	20.715855
1765.445495	-3.011400	3.322200	-10.003000	26.562201	0.000517	20.709825
1766.446188	-3.002000	3.322200	-9.973200	26.562903	0.000516	20.705315
1767.446565	-2.979800	3.324000	-9.903200	26.560424	0.000515	20.723213
1768.446609	-3.003200	3.322300	-9.975900	26.572409	0.000514	20.710130
1769.447493	-3.017200	3.321700	-10.021000	26.534566	0.000515	20.706229
1770.446908	-3.014000	3.321800	-10.010000	26.531736	0.000514	20.725670
1771.449485	-3.016100	3.320900	-10.015000	26.490807	0.000513	20.700649
1772.446422	-3.010500	3.320800	-9.996400	26.516390	0.000512	20.704553
1773.446948	-3.015900	3.320100	-10.011000	26.506508	0.000513	20.706000
1774.451111	-3.021500	3.319900	-10.030000	26.529077	0.000511	20.682217
1775.448435	-3.013400	3.319200	-10.001000	26.514540	0.000512	20.724033
1776.447598	-3.006400	3.319200	-9.977200	26.504827	0.000511	20.711424
1777.449321	-3.016800	3.319700	-10.013000	26.492734	0.000510	20.704009
1778.446697	-3.000500	3.319700	-9.960200	26.515535	0.000509	20.707487
1779.449238	-3.007600	3.317700	-9.977400	26.513455	0.000510	20.714406
1780.450140	-3.004800	3.319000	-9.972100	26.529724	0.000508	20.710370
1781.449881	-3.005500	3.316900	-9.966400	26.546113	0.000508	20.703611
1782.454556	-3.027400	3.315600	-10.037000	26.539364	0.000508	20.727174
1783.454939	-3.001700	3.317600	-9.957200	26.559141	0.000507	20.708646
1784.449246	-3.014200	3.316500	-9.995100	26.562649	0.000506	20.694628
1785.451437	-2.973000	3.317400	-9.861900	26.572303	0.000505	20.673984
1786.451269	-2.980100	3.316500	-9.882400	26.568178	0.000505	20.700661
1787.452459	-3.001400	3.315300	-9.949200	26.595343	0.000504	20.701889
1788.449969	-3.017000	3.315600	-10.002000	26.644676	0.000505	20.697428
1789.449296	-2.990400	3.315100	-9.912000	26.654074	0.000503	20.696919
1790.450208	-2.999200	3.314500	-9.939600	26.653530	0.000502	20.690207
1791.451650	-2.978000	3.315900	-9.873900	26.666798	0.000505	20.681259
1792.452710	-2.970200	3.315400	-9.846900	26.616475	0.000505	20.688044
1793.452453	-2.997800	3.313400	-9.931800	26.616513	0.000503	20.675752
1794.452610	-2.997400	3.315200	-9.935700	26.652300	0.000503	20.686600
1795.455169	-3.005900	3.313000	-9.957000	26.656170	0.000500	20.676739
1796.454547	-2.992500	3.313500	-9.915200	26.635104	0.000500	20.665043
1797.456287	-3.007900	3.312300	-9.960700	26.622792	0.000499	20.679694
1798.455155	-3.001200	3.311700	-9.937700	26.647973	0.000499	20.691258
1799.459197	-2.999300	3.311200	-9.930100	26.653319	0.000498	20.693789
1800.457446	-2.981700	3.312000	-9.874300	26.660793	0.000499	20.695138
1801.455161	-2.978600	3.311400	-9.861500	26.672560	0.000497	20.687053
1802.461956	-3.012700	3.310100	-9.971700	26.680881	0.000497	20.690677
1803.456924	-3.014300	3.311000	-9.979600	26.715782	0.000497	20.679770
1804.460331	-2.998600	3.309800	-9.923900	26.702177	0.000495	20.672256
1805.457184	-2.987100	3.309200	-9.884100	26.710412	0.000494	20.690968
1806.463147	-2.974800	3.310600	-9.847300	26.668243	0.000496	20.674177
1807.462799	-2.993900	3.308200	-9.903000	26.646137	0.000494	20.681826
1808.460708	-2.995600	3.307400	-9.906300	26.565044	0.000496	20.679490
1809.461383	-3.032000	3.306800	-10.026000	26.524006	0.000492	20.702251
1810.462754	-2.999300	3.307800	-9.920100	26.533512	0.000491	20.687150
1811.460046	-2.985900	3.308600	-9.878600	26.570377	0.000491	20.676790
1812.460562	-3.008900	3.305600	-9.945800	26.576750	0.000492	20.684146
1813.462388	-3.013300	3.306700	-9.961900	26.584321	0.000491	20.685118
1814.459958	-3.002600	3.306500	-9.927400	26.581044	0.000491	20.675658
1815.462436	-3.005000	3.305800	-9.933100	26.578286	0.000489	20.691380
1816.459877	-3.008200	3.306200	-9.943200	26.575321	0.000490	20.665164
1817.464790	-3.002700	3.306000	-9.926500	26.575563	0.000488	20.687219
1818.462170	-3.004400	3.305000	-9.928700	26.604215	0.000489	20.688047
1819.462001	-3.004000	3.305000	-9.926400	26.621050	0.000487	20.663243
1820.463455	-3.001200	3.304300	-9.915700	26.616065	0.000485	20.664396
1821.461366	-2.994000	3.304700	-9.892600	26.594416	0.000487	20.689103
1822.465808	-3.013800	3.303700	-9.956200	26.572127	0.000487	20.672859
1823.463250	-3.013600	3.303000	-9.953200	26.563684	0.000487	20.659629
1824.462937	-2.997300	3.302800	-9.898000	26.577508	0.000483	20.674949
1825.462924	-2.990400	3.302700	-9.875400	26.551131	0.000484	20.665977
1826.463911	-3.012600	3.301500	-9.944300	26.523056	0.000482	20.643918
1827.464857	-3.005700	3.301500	-9.921800	26.527653	0.000483	20.676043
1828.461603	-3.001700	3.302100	-9.911200	26.544053	0.000482	20.685417
1829.463478	-3.002700	3.300700	-9.909000	26.558169	0.000481	20.664517
1830.464448	-3.012100	3.300100	-9.939000	26.517819	0.000479	20.698877
1831.464890	-3.008100	3.298900	-9.921100	26.539446	0.000478	20.678414
1832.469362	-2.994700	3.298900	-9.877000	26.540968	0.000478	20.635369
1833.465864	-3.008900	3.299400	-9.926000	26.567021	0.000480	20.654448
1834.470036	-3.000600	3.297700	-9.894100	26.567579	0.000478	20.685832
1835.466023	-3.004700	3.297900	-9.907200	26.587400	0.000478	20.675884
1836.467756	-2.986500	3.298700	-9.850900	26.595601	0.000478	20.669903
1837.466731	-3.004100	3.297900	-9.906700	26.595529	0.000477	20.666985
1838.468469	-3.001900	3.298100	-9.899500	26.581753	0.000476	20.663568
1839.471756	-2.993700	3.296600	-9.868300	26.602060	0.000477	20.676870
1840.468211	-2.988200	3.296500	-9.849500	26.640096	0.000474	20.669588
1841.467703	-2.999700	3.295700	-9.884800	26.693186	0.000477	20.676019
1842.467294	-3.006900	3.295300	-9.907600	26.718630	0.000472	20.657975
1843.466489	-2.984000	3.296800	-9.835900	26.732066	0.000474	20.667691
1844.466022	-2.990000	3.295000	-9.851000	26.756855	0.000473	20.660844
1845.467778	-2.989300	3.295300	-9.849600	26.781536	0.000472	20.679972
1846.471178	-3.004900	3.294100	-9.896500	26.791694	0.000471	20.668373
1847.468866	-3.007700	3.294600	-9.907900	26.804861	0.000473	20.668335
1848.468092	-2.993000	3.293800	-9.857700	26.812661	0.000471	20.648200
1849.469893	-2.995200	3.293400	-9.863700	26.788249	0.000469	20.659691
1850.469071	-2.966200	3.293300	-9.765900	26.760328	0.000471	20.671924
1851.468521	-2.993400	3.294200	-9.860000	26.743071	0.000468	20.655521
1852.468490	-2.985700	3.293100	-9.830800	26.680999	0.000469	20.668982
1853.469604	-2.997100	3.290600	-9.861000	26.641259	0.000466	20.654634
1854.468159	-2.995600	3.290300	-9.855500	26.601095	0.000466	20.661200
1855.469150	-3.002200	3.290000	-9.875700	26.571379	0.000465	20.651242
1856.469014	-2.995200	3.290800	-9.856200	26.544710	0.000465	20.655728
1857.469001	-3.012200	3.288500	-9.904400	26.536752	0.000464	20.659584
1858.469225	-3.007800	3.289800	-9.894300	26.561911	0.000463	20.643620
1859.470156	-3.010500	3.289400	-9.901000	26.621487	0.000465	20.656095
1860.468773	-3.000900	3.289600	-9.870000	26.658483	0.000462	20.644921
1861.482497	-2.968600	3.289900	-9.764800	26.670856	0.000463	20.659258
1862.470870	-2.994500	3.288900	-9.847400	26.705441	0.000460	20.663682
1863.472621	-2.981000	3.289300	-9.804000	26.739253	0.000458	20.647413
1864.471841	-3.008500	3.288000	-9.890400	26.688909	0.000460	20.675987
1865.473188	-2.989300	3.288000	-9.827600	26.671410	0.000461	20.643692
1866.473739	-3.005800	3.288000	-9.882500	26.672343	0.000459	20.656960
1867.478358	-2.987500	3.287500	-9.820100	26.666866	0.000458	20.640546
1868.472742	-3.002900	3.286900	-9.869300	26.662304	0.000460	20.665361
1869.474211	-3.007400	3.285500	-9.879600	26.624961	0.000459	20.652948
1870.477813	-2.996900	3.286200	-9.847200	26.615369	0.000455	20.662747
1871.475256	-2.969700	3.286600	-9.759300	26.604400	0.000455	20.653142
1872.475852	-2.977800	3.286000	-9.784500	26.640006	0.000455	20.648632
1873.474961	-2.993400	3.285100	-9.831400	26.614270	0.000453	20.653581
1874.479805	-3.010600	3.284400	-9.886800	26.617390	0.000456	20.651501
1875.474661	-3.006700	3.285000	-9.876000	26.624888	0.000455	20.659988
1876.476457	-3.005000	3.284500	-9.869300	26.614911	0.000452	20.663235
1877.476098	-2.995300	3.284000	-9.835500	26.601256	0.000453	20.678908
1878.478059	-2.993400	3.282100	-9.822900	26.599490	0.000452	20.656267
1879.478771	-2.993800	3.283300	-9.828400	26.605309	0.000453	20.649788
1880.477684	-2.973000	3.284100	-9.762900	26.615916	0.000453	20.631525
1881.487870	-2.989500	3.282600	-9.811900	26.617138	0.000451	20.658835
1882.480010	-3.014500	3.282000	-9.892300	26.594642	0.000449	20.655187
1883.480476	-3.012400	3.281400	-9.883500	26.616195	0.000449	20.674010
1884.481154	-2.980000	3.282100	-9.779400	26.633512	0.000450	20.654907
1885.479854	-2.977000	3.280800	-9.765400	26.637141	0.000449	20.652865
1886.478645	-3.001300	3.280900	-9.845400	26.695312	0.000448	20.644962
1887.482621	-3.002700	3.279400	-9.846000	26.714649	0.000446	20.672940
1888.480550	-2.977200	3.280200	-9.764700	26.733138	0.000446	20.666399
1889.482651	-2.993800	3.280200	-9.819500	26.786261	0.000448	20.652003
1890.482190	-2.988800	3.278600	-9.798000	26.803297	0.000444	20.660597
1891.483271	-3.000400	3.278300	-9.834300	26.806419	0.000442	20.666108
1892.485166	-2.990700	3.278500	-9.804500	26.829368	0.000445	20.652196
1893.484074	-2.997500	3.277100	-9.821700	26.806309	0.000442	20.634699
1894.484394	-3.005300	3.276900	-9.846900	26.794822	0.000444	20.663456
1895.484823	-3.012000	3.276200	-9.866400	26.825076	0.000440	20.665900
1896.485458	-2.985700	3.277100	-9.783100	26.803056	0.000441	20.646129
1897.484697	-3.006500	3.275800	-9.847700	26.796371	0.000440	20.667859
1898.488496	-2.982700	3.275300	-9.768700	26.766441	0.000440	20.642505
1899.485343	-3.011100	3.274700	-9.859400	26.758279	0.000438	20.650421
1900.489522	-2.989800	3.276400	-9.794900	26.789707	0.000438	20.644086
1901.484899	-2.994300	3.274500	-9.803500	26.817434	0.000438	20.655845
1902.487654	-3.005200	3.273400	-9.836000	26.855983	0.000438	20.652878
1903.487923	-3.017300	3.273400	-9.875500	26.886754	0.000437	20.664380
1904.488070	-3.008000	3.272900	-9.843300	26.904033	0.000439	20.646191
1905.485316	-2.996700	3.273400	-9.808500	26.918083	0.000435	20.666959
1906.488245	-2.982000	3.272200	-9.756900	26.931165	0.000432	20.661622
1907.488536	-2.991100	3.273200	-9.789200	26.901180	0.000435	20.666558
1908.487679	-3.010600	3.270600	-9.844200	26.857494	0.000435	20.640646
1909.491199	-2.999500	3.271800	-9.813000	26.855101	0.000434	20.651518
1910.488651	-3.000700	3.270400	-9.812800	26.871472	0.000434	20.665135
1911.488351	-2.996700	3.271000	-9.801800	26.887663	0.000432	20.678572
1912.491858	-2.998300	3.271600	-9.808200	26.900274	0.000432	20.655214
1913.489960	-3.004200	3.271100	-9.825800	26.963301	0.000432	20.643674
1914.489672	-3.007700	3.269500	-9.832500	26.988329	0.000430	20.657939
1915.489815	-2.978800	3.271400	-9.743500	27.007478	0.000432	20.657755
1916.489467	-3.004900	3.268600	-9.821100	27.011553	0.000428	20.656163
1917.489952	-3.005800	3.269300	-9.825700	27.026544	0.000429	20.659860
1918.489890	-3.012900	3.268300	-9.846100	27.048728	0.000428	20.657513
1919.490361	-3.005200	3.267000	-9.816500	27.040073	0.000428	20.653549
1920.491104	-3.002600	3.267900	-9.811700	27.019121	0.000427	20.660929
1921.487640	-3.017900	3.265800	-9.854500	26.987809	0.000427	20.659313
1922.494273	-2.960400	3.268600	-9.673900	26.999658	0.000426	20.683559
1923.490147	-2.976800	3.268200	-9.727200	27.012909	0.000425	20.674124
1924.490384	-2.976400	3.267900	-9.726200	27.031211	0.000425	20.657440
1925.495302	-3.010200	3.265000	-9.826900	27.007733	0.000424	20.665124
1926.492785	-2.984400	3.266800	-9.748000	26.984932	0.000423	20.668748
1927.492692	-3.010100	3.265700	-9.829100	26.967789	0.000421	20.649136
1928.496150	-3.028900	3.264200	-9.886300	26.977388	0.000422	20.661635
1929.492248	-3.018300	3.262700	-9.846600	26.984099	0.000420	20.653210
1930.493869	-2.994000	3.266600	-9.779300	27.019148	0.000420	20.675183
1931.499211	-2.993000	3.264700	-9.770200	27.020669	0.000420	20.667229
1932.493725	-3.007000	3.262200	-9.808300	27.005640	0.000418	20.658752
1933.491761	-3.014300	3.262500	-9.832800	27.011143	0.000419	20.687048
1934.502169	-2.971600	3.263100	-9.695600	26.982406	0.000417	20.667630
1935.494790	-3.010400	3.262100	-9.819100	26.942654	0.000418	20.651836
1936.498811	-3.001400	3.260100	-9.784400	26.937236	0.000415	20.672943
1937.500627	-2.990600	3.261100	-9.751200	26.953148	0.000416	20.673771
1938.496121	-3.011700	3.260700	-9.818500	26.955626	0.000415	20.679108
1939.497082	-3.005100	3.259100	-9.792500	26.930914	0.000414	20.659472
1940.501748	-2.982700	3.259900	-9.721800	26.913697	0.000415	20.678198
1941.499846	-3.014600	3.259100	-9.824000	26.941022	0.000414	20.685286
1942.494130	-3.001100	3.259400	-9.780300	26.933564	0.000412	20.670672
1943.502027	-2.990200	3.258600	-9.742800	26.956014	0.000413	20.667644
1944.499313	-3.013700	3.258700	-9.819700	26.956365	0.000412	20.663729
1945.496478	-3.003400	3.257900	-9.783400	26.979373	0.000412	20.678807
1946.503982	-3.006200	3.256800	-9.789600	26.954431	0.000410	20.673639
1947.497949	-2.986900	3.257500	-9.728300	26.995453	0.000409	20.686917
1948.497143	-3.012400	3.256100	-9.807700	26.992262	0.000409	20.683234
1949.500709	-2.996800	3.255500	-9.755400	26.969823	0.000408	20.685798
1950.499749	-2.997300	3.257300	-9.759800	26.933636	0.000406	20.687816
1951.497789	-3.000300	3.255900	-9.767900	26.911969	0.000406	20.658914
1952.503077	-2.996100	3.256000	-9.753100	26.892952	0.000404	20.667294
1953.502012	-3.028900	3.252700	-9.850200	26.884172	0.000406	20.673165
1954.502706	-2.993300	3.255500	-9.743700	26.890302	0.000404	20.677907
1955.508492	-2.978200	3.254700	-9.691500	26.908125	0.000404	20.677336
1956.504900	-3.014000	3.252500	-9.802000	26.898381	0.000401	20.684133
1957.501927	-2.988600	3.253100	-9.721000	26.916468	0.000404	20.671974
1958.503624	-3.022400	3.252100	-9.828100	26.958506	0.000405	20.700499
1959.503877	-3.005700	3.252000	-9.772700	26.992816	0.000402	20.671462
1960.501333	-2.983400	3.252100	-9.700700	27.041053	0.000401	20.684885
1961.505990	-3.002300	3.251800	-9.761800	27.085977	0.000400	20.685020
1962.501301	-3.007200	3.251600	-9.777200	27.105245	0.000400	20.699183
1963.505965	-2.990300	3.250600	-9.719100	27.080657	0.000400	20.680143
1964.507151	-3.015200	3.250900	-9.800900	27.091294	0.000398	20.684677
1965.505168	-2.984300	3.251100	-9.699300	27.107252	0.000398	20.699779
1966.503597	-3.014800	3.248200	-9.790900	27.053395	0.000398	20.673587
1967.506753	-2.994100	3.250200	-9.729900	27.037268	0.000394	20.686294
1968.504218	-2.993000	3.248400	-9.721500	27.060842	0.000393	20.682026
1969.503063	-3.006000	3.249300	-9.766500	27.086652	0.000395	20.679534
1970.508629	-3.012400	3.248500	-9.785100	27.116292	0.000392	20.681843
1971.506530	-3.024300	3.247400	-9.819800	27.104567	0.000392	20.668627
1972.503708	-2.999700	3.247600	-9.740500	27.108109	0.000390	20.710125
1973.508227	-2.986500	3.248400	-9.699400	27.121564	0.000390	20.689042
1974.503980	-2.972100	3.249700	-9.657200	27.111337	0.000391	20.680652
1975.505657	-2.999200	3.245700	-9.732500	27.139647	0.000391	20.684470
1976.510976	-3.021000	3.244500	-9.798900	27.147032	0.000389	20.694743
1977.505771	-2.997400	3.245000	-9.724800	27.143491	0.000389	20.689284
1978.505375	-2.996900	3.245100	-9.724000	27.140855	0.000388	20.698488
1979.511469	-3.005500	3.245100	-9.752300	27.124234	0.000389	20.703583
1980.505487	-3.004600	3.244300	-9.745800	27.126616	0.000385	20.692701
1981.505175	-2.978400	3.246300	-9.667500	27.101921	0.000384	20.711488
1982.509194	-3.002100	3.244300	-9.738500	27.097072	0.000385	20.699973
1983.509117	-3.002600	3.243000	-9.737000	27.131344	0.000386	20.689869
1984.506465	-3.009000	3.242000	-9.754500	27.150019	0.000384	20.690634
1985.512390	-2.973400	3.243000	-9.641600	27.145546	0.000383	20.697990
1986.509952	-2.985200	3.241300	-9.674700	27.121588	0.000382	20.706137
1987.510086	-2.997300	3.242400	-9.718100	27.141196	0.000382	20.699779
1988.512905	-2.993300	3.241400	-9.701400	27.114891	0.000382	20.699876
1989.512578	-2.990600	3.241300	-9.692400	27.058498	0.000378	20.697688
1990.513843	-2.979600	3.241100	-9.656000	27.023040	0.000379	20.676726
1991.516130	-3.006200	3.241600	-9.744100	27.021106	0.000380	20.703707
1992.517423	-3.029400	3.239100	-9.810600	27.023959	0.000378	20.699938
1993.513218	-3.039400	3.237900	-9.838800	27.049178	0.000378	20.690686
1994.518397	-2.996300	3.240900	-9.710300	27.001352	0.000377	20.693323
1995.514609	-2.982200	3.238100	-9.655300	27.010747	0.000375	20.699453
1996.516247	-3.005400	3.237700	-9.729500	27.003554	0.000376	20.700755
1997.519745	-2.998300	3.238200	-9.707700	26.993653	0.000375	20.702651
1998.514585	-2.969000	3.237300	-9.610200	27.005475	0.000373	20.707428
1999.516034	-2.991600	3.237100	-9.683400	26.988659	0.000373	20.692413
2000.520740	-3.011900	3.236800	-9.747000	27.004026	0.000371	20.705496
2001.517215	-2.993300	3.236100	-9.686100	27.008472	0.000370	20.693372
2002.519321	-3.022500	3.233900	-9.773600	27.011859	0.000370	20.697252
2003.520209	-2.995900	3.236500	-9.695600	27.040981	0.000370	20.698090
2004.518850	-3.010100	3.234900	-9.736300	27.088070	0.000369	20.714627
2005.516537	-2.978800	3.234800	-9.635600	27.096917	0.000369	20.710723
2006.522231	-3.035600	3.232500	-9.811200	27.094150	0.000366	20.707940
2007.517524	-2.998300	3.232400	-9.691300	27.108136	0.000368	20.713945
2008.515552	-2.990300	3.233100	-9.667500	27.124227	0.000367	20.712111
2009.523086	-2.985900	3.233700	-9.653800	27.149069	0.000365	20.686359
2010.523369	-3.008300	3.232300	-9.722800	27.179157	0.000364	20.705718
2011.519745	-2.998300	3.232200	-9.689800	27.174502	0.000363	20.720477
2012.523566	-2.999600	3.231800	-9.692100	27.158607	0.000364	20.695005
2013.522481	-3.001300	3.231600	-9.697400	27.156456	0.000363	20.705171
2014.518310	-3.018400	3.228100	-9.742600	27.176800	0.000363	20.706666
2015.521080	-3.017500	3.230100	-9.746500	27.244115	0.000361	20.707992
2016.521314	-2.997300	3.229600	-9.677600	27.275832	0.000361	20.723775
2017.519431	-3.006700	3.230400	-9.711100	27.303739	0.000360	20.696843
2018.526802	-2.984000	3.229700	-9.636100	27.311694	0.000359	20.713855
2019.523252	-3.002800	3.228200	-9.692300	27.355010	0.000359	20.709539
2020.525704	-2.975100	3.230900	-9.611700	27.361547	0.000358	20.727970
2021.523889	-3.015100	3.227900	-9.731300	27.402518	0.000355	20.731728
2022.528367	-2.986200	3.227900	-9.638000	27.401600	0.000357	20.726062
2023.521437	-3.003900	3.227000	-9.692300	27.374878	0.000353	20.707240
2024.525759	-2.991400	3.225700	-9.648300	27.328542	0.000355	20.703776
2025.528113	-3.021600	3.225400	-9.744800	27.277067	0.000354	20.709843
2026.522964	-2.974100	3.227000	-9.596300	27.246389	0.000353	20.716918
2027.525566	-2.992700	3.225700	-9.652800	27.248409	0.000351	20.711837
2028.527797	-2.996800	3.226000	-9.666000	27.219110	0.000350	20.712238
2029.526701	-2.991500	3.225200	-9.647500	27.162275	0.000352	20.712446
2030.528008	-2.988400	3.223900	-9.633300	27.178919	0.000350	20.722075
2031.530140	-2.999500	3.222800	-9.666000	27.167750	0.000349	20.718901
2032.527114	-2.996200	3.222900	-9.655300	27.172863	0.000350	20.715035
2033.526912	-3.007600	3.221400	-9.687400	27.163386	0.000349	20.701709
2034.524598	-2.992700	3.223600	-9.646000	27.194851	0.000348	20.713917
2035.524865	-3.001100	3.221200	-9.666500	27.234618	0.000348	20.714087
2036.524777	-3.014600	3.222300	-9.712000	27.270092	0.000346	20.718001
2037.531000	-3.013300	3.220700	-9.704500	27.239284	0.000346	20.718306
2038.530011	-3.024200	3.219800	-9.736300	27.181772	0.000344	20.708822
2039.530838	-2.995900	3.220400	-9.647400	27.152037	0.000343	20.735341
2040.527858	-3.024400	3.218800	-9.732000	27.133469	0.000344	20.718562
2041.524826	-3.009000	3.218700	-9.684400	27.187587	0.000344	20.718939
2042.528424	-3.011200	3.218000	-9.688200	27.210927	0.000341	20.731510
2043.526946	-2.986300	3.217900	-9.608100	27.282097	0.000343	20.735293
2044.530611	-3.042000	3.217400	-9.785900	27.314029	0.000340	20.719050
2045.528434	-3.006200	3.218000	-9.673000	27.344668	0.000342	20.719050
2046.530895	-2.991900	3.216900	-9.624200	27.373915	0.000339	20.727135
2047.531023	-3.009800	3.218200	-9.685300	27.383004	0.000339	20.742444
2048.531970	-3.003500	3.216000	-9.658000	27.406921	0.000337	20.716242
2049.535254	-2.995800	3.218000	-9.639500	27.437787	0.000336	20.714103
2050.529566	-2.991200	3.215800	-9.618000	27.445074	0.000336	20.733763
2051.528833	-3.001000	3.214600	-9.646200	27.431588	0.000334	20.724937
2052.530743	-2.991400	3.215900	-9.619700	27.458284	0.000335	20.749899
2053.529549	-3.027600	3.213000	-9.727000	27.483974	0.000334	20.715526
2054.530448	-3.012600	3.213900	-9.680600	27.468277	0.000334	20.732925
2055.533199	-2.989800	3.212800	-9.604200	27.479093	0.000332	20.732901
2056.532769	-2.986100	3.212400	-9.591900	27.493293	0.000334	20.720634
2057.535362	-3.000800	3.212100	-9.637000	27.537593	0.000333	20.742447
2058.532326	-3.014500	3.211100	-9.679500	27.557616	0.000330	20.724660
2059.534011	-3.008600	3.211800	-9.661400	27.539949	0.000329	20.719686
2060.531413	-3.014900	3.211500	-9.680700	27.506877	0.000330	20.739993
2061.531556	-3.005900	3.209900	-9.647400	27.489258	0.000330	20.726532
2062.532694	-3.003400	3.209000	-9.636900	27.484583	0.000327	20.715190
2063.532516	-3.003900	3.209200	-9.638600	27.511023	0.000328	20.733257
2064.534775	-3.013300	3.209000	-9.668800	27.533692	0.000326	20.730461
2065.530791	-3.002300	3.209300	-9.633100	27.531287	0.000326	20.755543
2066.530520	-2.982500	3.207900	-9.566700	27.530960	0.000325	20.746205
2067.534754	-3.015700	3.207300	-9.671200	27.507301	0.000325	20.748953
2068.530245	-3.017400	3.208800	-9.681400	27.474613	0.000325	20.729343
2069.532087	-2.996200	3.207400	-9.608300	27.497586	0.000322	20.742498
2070.534685	-2.974500	3.207400	-9.539700	27.529632	0.000323	20.730644
2071.532905	-3.005600	3.205800	-9.634500	27.538707	0.000322	20.732662
2072.531818	-2.998600	3.205200	-9.610500	27.542790	0.000322	20.727287
2073.536249	-2.992000	3.204600	-9.586800	27.534782	0.000324	20.756689
2074.539392	-2.992400	3.203700	-9.586200	27.579682	0.000320	20.764881
2075.535866	-2.980700	3.204400	-9.550600	27.589058	0.000319	20.742547
2076.539185	-3.004300	3.204200	-9.624800	27.611991	0.000317	20.736223
2077.536065	-2.995100	3.203600	-9.594800	27.628026	0.000319	20.751411
2078.540028	-2.997200	3.203500	-9.600300	27.644663	0.000319	20.731641
2079.540963	-3.018100	3.201900	-9.662600	27.663220	0.000316	20.736089
2080.537820	-3.006600	3.202700	-9.627800	27.654232	0.000317	20.755021
2081.538206	-3.002100	3.200700	-9.607200	27.618103	0.000316	20.769402
2082.542511	-2.989900	3.201200	-9.570300	27.621704	0.000314	20.748369
2083.535120	-3.001200	3.199500	-9.601400	27.616958	0.000314	20.780577
2084.539945	-2.997000	3.199200	-9.586400	27.611664	0.000312	20.756758
2085.539764	-2.992000	3.199100	-9.571400	27.602638	0.000312	20.768540
2086.536991	-3.020600	3.197600	-9.657200	27.579004	0.000312	20.747604
2087.539510	-2.986100	3.199000	-9.550200	27.523781	0.000310	20.753207
2088.539568	-3.003200	3.198000	-9.602400	27.494105	0.000310	20.777878
2089.538788	-2.987100	3.197100	-9.548300	27.455036	0.000307	20.777926
2090.539183	-2.980200	3.197800	-9.528600	27.491301	0.000307	20.749452
2091.544055	-3.008000	3.196000	-9.612700	27.481308	0.000307	20.762632
2092.539619	-2.968700	3.197600	-9.491600	27.514081	0.000307	20.757198
2093.539588	-3.020800	3.195200	-9.650600	27.505525	0.000303	20.774669
2094.548185	-3.002400	3.195600	-9.593300	27.488848	0.000305	20.762158
2095.539362	-3.001200	3.196500	-9.592500	27.521463	0.000305	20.756564
2096.543313	-3.014200	3.194000	-9.626700	27.537414	0.000305	20.748431
2097.546234	-3.000500	3.193600	-9.581600	27.539904	0.000304	20.763265
2098.541173	-3.014600	3.193600	-9.626500	27.553147	0.000303	20.764736
2099.543245	-3.025100	3.193700	-9.660400	27.527954	0.000301	20.766414
2100.542662	-3.011700	3.192000	-9.612400	27.540544	0.000300	20.761538
2101.538814	-2.992900	3.192100	-9.552100	27.541851	0.000298	20.769965
2102.554877	-2.995600	3.193400	-9.565500	27.535374	0.000299	20.765819
2103.543414	-2.987400	3.192200	-9.534900	27.561427	0.000299	20.771170
2104.541951	-3.014300	3.191900	-9.620100	27.566139	0.000299	20.764057
2105.544224	-2.999700	3.190700	-9.570100	27.589509	0.000297	20.764812
2106.548309	-3.030400	3.189900	-9.665200	27.581993	0.000298	20.749188
2107.543458	-3.009700	3.189900	-9.600000	27.629780	0.000297	20.778781
2108.543462	-3.014300	3.188400	-9.610100	27.643772	0.000296	20.772471
2109.550369	-3.007600	3.188300	-9.587800	27.705610	0.000295	20.790126
2110.546988	-2.985700	3.186800	-9.513600	27.714080	0.000295	20.773045
2111.544278	-3.005000	3.186300	-9.573500	27.725860	0.000294	20.778261
2112.550498	-3.016200	3.187800	-9.614200	27.720216	0.000293	20.769263
2113.546832	-2.978900	3.188100	-9.496300	27.662080	0.000293	20.766238
2114.549649	-2.998800	3.185400	-9.550900	27.631293	0.000292	20.777932
2115.549863	-3.007300	3.185600	-9.578200	27.612988	0.000292	20.773738
2116.552243	-2.987600	3.185700	-9.517000	27.589474	0.000290	20.765251
2117.550015	-2.991800	3.186500	-9.532300	27.597922	0.000290	20.781812
2118.555193	-2.998900	3.184900	-9.550000	27.609025	0.000289	20.797252
2119.550526	-3.004100	3.185600	-9.568900	27.683525	0.000287	20.772170
2120.549985	-2.996400	3.183400	-9.537000	27.694858	0.000289	20.775513
2121.556991	-3.000900	3.182700	-9.550100	27.711618	0.000288	20.774361
2122.548341	-3.005600	3.182000	-9.562100	27.700272	0.000288	20.795660
2123.550229	-2.994600	3.182000	-9.527800	27.716749	0.000286	20.797068
2124.553331	-3.021900	3.181100	-9.612800	27.681434	0.000286	20.796618
2125.552348	-3.019200	3.180200	-9.599900	27.706562	0.000287	20.772118
2126.548198	-2.989200	3.180600	-9.506200	27.722452	0.000284	20.787160
2127.552906	-2.990900	3.180000	-9.510000	27.740453	0.000285	20.774454
2128.547831	-2.995800	3.180200	-9.526000	27.725362	0.000283	20.764009
2129.554018	-3.015500	3.179900	-9.588100	27.721434	0.000283	20.797989
2130.567968	-3.012100	3.181800	-9.581900	27.732416	0.000281	20.765418
2131.551199	-2.997300	3.178900	-9.526900	27.732065	0.000281	20.773126
2132.558485	-3.005200	3.176700	-9.545600	27.757907	0.000282	20.766414
2133.553079	-2.991500	3.177900	-9.506000	27.769480	0.000280	20.787544
2134.555542	-3.005600	3.177000	-9.547600	27.768696	0.000280	20.789126
2135.551465	-3.008000	3.176100	-9.552500	27.742658	0.000279	20.767664
2136.554346	-2.988000	3.175700	-9.487600	27.754716	0.000278	20.753245
2137.553013	-2.971100	3.175700	-9.433100	27.806350	0.000276	20.781027
2138.552333	-3.000300	3.175500	-9.526100	27.807629	0.000279	20.766667
2139.554344	-3.000800	3.174900	-9.524600	27.800600	0.000277	20.775240
2140.553375	-2.983800	3.178000	-9.481500	27.767908	0.000275	20.751349
2141.549394	-3.009700	3.171600	-9.544500	27.760672	0.000275	20.752601
2142.553017	-2.966100	3.173000	-9.410800	27.763909	0.000274	20.775299
2143.553708	-2.975400	3.173500	-9.441500	27.809356	0.000275	20.761292
2144.552895	-3.008200	3.172500	-9.542700	27.838336	0.000272	20.749206
2145.558549	-2.992900	3.170400	-9.487300	27.876545	0.000274	20.755893
2146.555287	-2.994200	3.170700	-9.492700	27.905681	0.000273	20.758191
2147.551013	-2.973100	3.170700	-9.426300	27.881087	0.000272	20.759043
2148.559588	-2.994900	3.170000	-9.492800	27.874550	0.000269	20.755308
2149.553768	-3.022300	3.168000	-9.573400	27.888044	0.000270	20.740914
2150.554971	-3.007600	3.167500	-9.525700	27.856699	0.000269	20.757731
2151.552009	-3.003400	3.167000	-9.510600	27.823635	0.000268	20.744842
2152.554648	-3.004500	3.167400	-9.515100	27.795449	0.000270	20.740658
2153.552330	-2.991800	3.166400	-9.473000	27.809184	0.000268	20.730298
2154.551728	-3.005300	3.166100	-9.514300	27.850125	0.000267	20.757278
2155.555138	-3.018500	3.165400	-9.553600	27.894698	0.000265	20.750930
2156.553871	-3.024400	3.163300	-9.566300	27.912431	0.000265	20.747441
2157.559134	-3.011100	3.165400	-9.530800	27.920007	0.000263	20.748902
2158.555811	-3.011200	3.163600	-9.525600	27.912335	0.000263	20.743077
2159.554689	-2.993800	3.165900	-9.477000	27.895582	0.000261	20.761303
2160.555577	-3.008400	3.161900	-9.510400	27.862518	0.000263	20.758372
2161.554830	-2.994600	3.163400	-9.471100	27.811492	0.000263	20.753010
2162.554908	-3.001100	3.162100	-9.488900	27.732289	0.000262	20.732572
2163.557416	-3.014200	3.161700	-9.529100	27.676180	0.000261	20.754346
2164.558481	-3.000100	3.160500	-9.480200	27.652440	0.000261	20.747528
2165.555369	-3.003600	3.161500	-9.494300	27.688455	0.000258	20.746310
2166.565819	-3.007800	3.159600	-9.501200	27.691815	0.000259	20.739733
2167.556929	-3.005200	3.158000	-9.488900	27.671165	0.000257	20.719901
2168.557590	-3.003000	3.157800	-9.482300	27.707870	0.000258	20.737397
2169.557476	-3.018000	3.156100	-9.524200	27.699183	0.000258	20.729603
2170.558426	-3.009100	3.157300	-9.499600	27.702674	0.000257	20.729323
2171.555860	-3.005000	3.156300	-9.482900	27.728867	0.000255	20.750467
2172.558221	-3.011100	3.155200	-9.499800	27.773398	0.000254	20.729371
2173.560031	-3.015100	3.156000	-9.513400	27.835964	0.000254	20.723584
2174.555605	-3.018700	3.154000	-9.519900	27.820293	0.000256	20.733892
2175.559029	-3.010200	3.152900	-9.489700	27.826128	0.000253	20.743084
2176.557736	-2.979600	3.154600	-9.398400	27.825754	0.000253	20.730378
2177.560424	-2.988100	3.153900	-9.422900	27.815846	0.000254	20.753599
2178.558013	-2.987800	3.153800	-9.421200	27.794077	0.000252	20.735958
2179.561339	-2.981300	3.151600	-9.394800	27.778663	0.000252	20.730403
2180.557568	-2.998800	3.152100	-9.450100	27.754318	0.000253	20.740516
2181.557598	-3.007700	3.150600	-9.474600	27.735918	0.000249	20.709196
2182.560281	-3.011100	3.150900	-9.485700	27.721649	0.000250	20.730874
2183.562300	-3.006600	3.149000	-9.467100	27.783310	0.000250	20.730812
2184.562505	-3.022800	3.148100	-9.515100	27.812267	0.000248	20.734349
2185.570138	-3.009800	3.146800	-9.469400	27.827536	0.000247	20.744975
2186.563871	-3.003800	3.148300	-9.455600	27.821074	0.000245	20.734204
2187.561658	-2.999300	3.146500	-9.435400	27.825930	0.000244	20.723917
2188.562600	-2.971500	3.147400	-9.351500	27.820916	0.000246	20.742106
2189.565198	-2.985600	3.145600	-9.390600	27.893891	0.000245	20.734470
2190.562385	-2.955100	3.146800	-9.297400	27.916903	0.000244	20.728707
2191.564764	-2.933800	3.147000	-9.229700	27.941035	0.000244	20.725970
2192.564278	-2.990700	3.144600	-9.403500	27.959541	0.000243	20.718043
2193.570712	-2.993300	3.143400	-9.408000	27.951557	0.000243	20.736087
2194.567073	-2.984700	3.143900	-9.382100	27.982455	0.000242	20.727832
2195.566356	-2.996500	3.141700	-9.413700	28.005984	0.000241	20.719746
2196.563676	-2.995500	3.143100	-9.414000	28.027989	0.000239	20.709654
2197.567944	-3.016100	3.139700	-9.468400	28.027941	0.000240	20.712450
2198.569959	-2.994000	3.139700	-9.399200	27.982129	0.000239	20.721339
2199.565852	-2.988000	3.141100	-9.384000	27.897189	0.000238	20.708864
2200.567778	-3.012100	3.137500	-9.449600	27.869514	0.000238	20.712779
2201.574080	-2.986300	3.138400	-9.370700	27.843495	0.000237	20.688488
2202.566703	-2.997000	3.136400	-9.398700	27.803714	0.000234	20.709145
2203.575201	-2.980200	3.137500	-9.349100	27.775059	0.000237	20.706386
2204.569068	-2.962300	3.138300	-9.295100	27.764574	0.000236	20.726655
2205.567489	-2.962000	3.137000	-9.290100	27.701522	0.000236	20.701135
2206.577242	-2.980700	3.136500	-9.346000	27.652710	0.000235	20.711761
2207.569415	-2.991700	3.134300	-9.376200	27.664332	0.000234	20.707808
2208.569599	-2.997800	3.133300	-9.391800	27.732052	0.000234	20.734231
2209.573895	-3.002700	3.133500	-9.408400	27.788592	0.000232	20.722376
2210.572676	-2.994900	3.133600	-9.383900	27.799611	0.000234	20.703592
2211.574256	-2.994500	3.132000	-9.377000	27.809577	0.000231	20.714097
2212.577171	-2.983900	3.131400	-9.343100	27.848440	0.000232	20.705319
2213.576005	-3.014900	3.129700	-9.435200	27.876659	0.000231	20.707168
2214.572259	-3.001100	3.129700	-9.391500	27.917875	0.000230	20.711667
2215.577575	-2.984600	3.130800	-9.343000	27.952447	0.000230	20.687667
2216.573635	-3.002000	3.128000	-9.388800	27.928277	0.000228	20.697954
2217.572831	-2.993600	3.128400	-9.364200	27.861972	0.000230	20.712300
2218.579020	-3.014800	3.126700	-9.425500	27.855885	0.000228	20.704751
2219.580111	-2.977500	3.126800	-9.308200	27.838924	0.000227	20.716606
2220.577716	-3.011800	3.124700	-9.409700	27.862821	0.000227	20.707939
2221.578483	-3.008600	3.123400	-9.396200	27.884179	0.000226	20.712840
2222.579753	-2.978800	3.124100	-9.305000	27.904230	0.000223	20.695087
2223.579988	-3.019400	3.121800	-9.424700	27.948430	0.000228	20.710652
2224.582113	-3.023000	3.121800	-9.436600	27.968951	0.000224	20.709022
2225.579191	-3.032500	3.121300	-9.463400	27.938682	0.000224	20.718385
2226.580430	-3.006600	3.122100	-9.385300	27.883542	0.000222	20.694654
2227.580158	-2.979700	3.121400	-9.299300	27.833108	0.000223	20.695104
2228.582798	-2.995700	3.119600	-9.344200	27.827891	0.000222	20.708821
2229.577172	-3.017100	3.119100	-9.409600	27.814204	0.000222	20.704055
2230.582635	-3.010400	3.116900	-9.381700	27.773868	0.000221	20.714670
2231.577898	-2.983800	3.117300	-9.300600	27.783896	0.000220	20.703899
2232.579782	-2.970200	3.117600	-9.257700	27.825756	0.000219	20.699558
2233.583905	-3.010200	3.115300	-9.375100	27.886833	0.000220	20.702708
2234.585102	-3.010100	3.114600	-9.373700	27.933303	0.000219	20.699219
2235.580832	-2.967900	3.114200	-9.240500	27.969782	0.000221	20.712704
2236.580026	-3.002300	3.113100	-9.345300	27.939609	0.000218	20.691815
2237.581800	-3.016400	3.112000	-9.385400	27.929018	0.000219	20.686845
2238.582673	-2.991600	3.113400	-9.312800	27.958191	0.000217	20.698665
2239.583156	-2.996100	3.112500	-9.325000	27.971515	0.000217	20.685997
2240.581789	-3.020700	3.108300	-9.388600	27.993703	0.000215	20.703590
2241.583544	-2.994600	3.109800	-9.311400	28.001010	0.000217	20.693400
2242.583547	-3.019200	3.107800	-9.382200	27.943106	0.000216	20.679687
2243.585191	-3.005300	3.109200	-9.342200	27.894525	0.000215	20.677257
2244.582340	-2.993000	3.106900	-9.297700	27.845226	0.000215	20.681694
2245.585029	-3.012200	3.106400	-9.355800	27.850288	0.000215	20.681099
2246.588428	-3.009500	3.105700	-9.345400	27.875814	0.000212	20.680237
2247.583556	-2.999200	3.105200	-9.312500	27.851860	0.000211	20.677938
2248.584976	-2.998100	3.102900	-9.301400	27.813712	0.000213	20.687436
2249.585725	-3.020800	3.101700	-9.368300	27.838984	0.000213	20.686318
2250.586927	-2.973800	3.103300	-9.227800	27.831326	0.000212	20.668651
2251.586981	-3.032100	3.101300	-9.402100	27.855560	0.000209	20.679766
2252.588357	-3.013600	3.101300	-9.344900	27.892898	0.000211	20.673248
2253.591108	-3.004400	3.100600	-9.314100	27.953404	0.000211	20.680095
2254.591454	-3.013200	3.098800	-9.335400	27.991922	0.000210	20.675242
2255.593081	-3.011800	3.097000	-9.326100	27.991849	0.000209	20.691766
2256.586380	-2.992700	3.096800	-9.267200	27.980207	0.000210	20.667243
2257.589358	-3.005800	3.097300	-9.309200	27.952740	0.000207	20.672788
2258.590780	-2.996200	3.096900	-9.278100	27.972828	0.000207	20.674989
2259.590242	-2.991800	3.097100	-9.264600	27.964950	0.000207	20.665637
2260.588889	-3.034900	3.093100	-9.384700	27.942944	0.000207	20.666246
2261.588386	-3.002200	3.093100	-9.285400	27.905112	0.000206	20.685068
2262.590212	-2.990800	3.094100	-9.251600	27.893104	0.000206	20.684837
2263.587447	-2.988900	3.091900	-9.240100	27.944539	0.000206	20.668800
2264.592179	-2.998600	3.092300	-9.271900	27.990233	0.000205	20.664532
2265.588430	-2.998200	3.089800	-9.263000	28.020333	0.000204	20.667803
2266.589317	-3.020000	3.089000	-9.327900	28.083778	0.000204	20.666235
2267.591849	-2.998200	3.088400	-9.258800	28.105940	0.000205	20.662466
2268.588953	-2.988900	3.088400	-9.230200	28.095000	0.000206	20.637699
2269.592164	-3.003500	3.087800	-9.273300	28.090688	0.000203	20.660389
2270.592074	-2.974600	3.087000	-9.181700	28.074914	0.000203	20.672012
2271.587773	-3.011400	3.084000	-9.285700	28.029104	0.000202	20.668572
2272.587765	-3.004700	3.084700	-9.267700	28.046642	0.000202	20.653982
2273.597912	-3.017400	3.083000	-9.301100	28.056510	0.000203	20.664390
2274.588580	-2.972400	3.083400	-9.163400	28.100256	0.000204	20.671919
2275.598354	-3.008700	3.082200	-9.272400	28.130751	0.000203	20.654252
2276.590672	-2.999700	3.080800	-9.241000	28.164749	0.000201	20.660029
2277.591776	-2.981400	3.081100	-9.184800	28.130741	0.000200	20.642860
2278.589617	-2.989700	3.079400	-9.205500	28.079160	0.000201	20.680080
2279.593465	-3.012900	3.078000	-9.272700	28.036647	0.000199	20.660042
2280.589081	-3.016200	3.077400	-9.280600	28.061588	0.000201	20.644369
2281.589866	-3.020800	3.075000	-9.287300	28.101071	0.000200	20.663255
2282.592004	-3.011100	3.076100	-9.261600	28.178362	0.000201	20.658087
2283.590282	-2.984300	3.075300	-9.176100	28.172676	0.000200	20.653784
2284.592371	-3.012800	3.072600	-9.256100	28.152375	0.000199	20.651365
2285.594151	-3.016200	3.072800	-9.266800	28.131157	0.000198	20.661773
2286.596525	-3.019300	3.071400	-9.272600	28.132862	0.000198	20.653057
2287.591695	-3.027600	3.071500	-9.297400	28.159382	0.000198	20.648460
2288.595143	-3.001300	3.070000	-9.213300	28.183959	0.000199	20.655186
2289.595257	-3.012700	3.068900	-9.244500	28.229800	0.000198	20.650129
2290.593841	-3.000600	3.068300	-9.205600	28.260388	0.000199	20.627816
2291.593522	-2.992400	3.068200	-9.180000	28.218714	0.000196	20.652244
2292.594468	-3.020800	3.066100	-9.261000	28.232808	0.000197	20.651261
2293.597658	-2.999200	3.066000	-9.192800	28.201725	0.000198	20.638457
2294.596350	-3.001800	3.063000	-9.192400	28.234029	0.000198	20.657706
2295.599417	-2.989400	3.062400	-9.153700	28.247215	0.000195	20.643005
2296.599462	-3.010000	3.061700	-9.214800	28.232351	0.000199	20.651749
2297.599589	-3.009500	3.060700	-9.210300	28.218573	0.000197	20.645937
2298.598872	-2.998800	3.060300	-9.176000	28.202464	0.000197	20.656273
2299.598134	-3.002600	3.058800	-9.183300	28.214166	0.000197	20.642448
2300.599919	-3.007100	3.056300	-9.188800	28.214420	0.000197	20.639384
2301.599137	-3.035400	3.055200	-9.272300	28.195534	0.000195	20.623212
2302.600591	-3.007000	3.054300	-9.182600	28.153458	0.000194	20.655774
2303.600951	-2.989300	3.054300	-9.129600	28.125212	0.000194	20.642510
2304.604258	-3.010200	3.053300	-9.190000	28.119619	0.000196	20.645889
2305.603962	-3.019100	3.051800	-9.213000	28.139232	0.000194	20.671326
2306.603060	-3.002200	3.050700	-9.157900	28.105887	0.000195	20.627321
2307.602564	-2.997700	3.052000	-9.146800	28.111457	0.000196	20.644784
2308.602153	-3.005300	3.048700	-9.161300	28.151925	0.000194	20.643798
2309.602290	-3.004500	3.048500	-9.158400	28.189713	0.000194	20.644857
2310.604751	-2.963900	3.049100	-9.036200	28.230288	0.000193	20.636394
2311.601216	-3.002800	3.045600	-9.144200	28.233994	0.000194	20.624950
2312.607836	-3.009800	3.044600	-9.162700	28.260477	0.000192	20.648772
2313.602588	-2.995700	3.044400	-9.119200	28.266878	0.000194	20.644310
2314.601000	-2.972100	3.045500	-9.050000	28.319127	0.000194	20.639544
2315.605358	-3.004200	3.041900	-9.136000	28.350327	0.000192	20.638242
2316.602753	-2.960600	3.040700	-9.000600	28.373002	0.000193	20.638789
2317.604370	-3.020800	3.039800	-9.182000	28.349145	0.000193	20.613814
2318.604152	-2.971700	3.039400	-9.030800	28.332759	0.000194	20.633355
2319.602478	-3.010500	3.036300	-9.139700	28.270982	0.000191	20.622361
2320.602506	-3.009000	3.035700	-9.133400	28.267046	0.000192	20.640686
2321.604995	-3.009200	3.035500	-9.132800	28.220725	0.000192	20.659959
2322.609798	-2.989300	3.033900	-9.067900	28.207576	0.000192	20.655255
2323.604617	-3.018100	3.033500	-9.154300	28.180260	0.000191	20.633441
2324.607468	-3.028800	3.031300	-9.179700	28.160296	0.000191	20.636103
2325.604866	-3.021400	3.029900	-9.153400	28.142037	0.000191	20.638585
2326.607041	-3.036900	3.029300	-9.198300	28.113729	0.000191	20.630000
2327.607694	-3.017200	3.027700	-9.134400	28.131397	0.000192	20.632614
2328.606894	-3.002800	3.027400	-9.090000	28.143475	0.000193	20.627702
2329.605300	-3.014400	3.026400	-9.121700	28.147738	0.000194	20.623932
2330.606982	-3.032300	3.023100	-9.165000	28.165707	0.000191	20.642026
2331.606189	-3.033500	3.023100	-9.168500	28.100988	0.000191	20.646100
2332.604539	-3.008200	3.022300	-9.090600	28.102002	0.000190	20.627204
2333.610029	-3.012600	3.021200	-9.100800	28.138452	0.000191	20.624067
2334.607622	-3.023200	3.020100	-9.129500	28.226645	0.000190	20.635096
2335.607553	-3.002100	3.019000	-9.062300	28.267459	0.000190	20.624978
2336.611693	-2.984300	3.018300	-9.007100	28.249732	0.000189	20.627993
2337.607924	-2.992700	3.016800	-9.026900	28.200209	0.000189	20.630291
2338.606576	-2.995600	3.015400	-9.032100	28.189545	0.000189	20.650852
2339.606909	-2.996600	3.015200	-9.034900	28.200766	0.000189	20.639388
2340.605587	-2.994300	3.012500	-9.019500	28.234699	0.000189	20.632299
2341.603870	-3.001500	3.012500	-9.041500	28.248250	0.000189	20.621759
2342.609316	-3.011600	3.010300	-9.064700	28.269260	0.000188	20.640070
2343.605460	-3.002500	3.008500	-9.032200	28.281288	0.000188	20.618986
2344.608921	-3.008600	3.008000	-9.048900	28.281082	0.000188	20.628263
2345.609301	-2.989600	3.006600	-8.988200	28.284474	0.000188	20.638793
2346.611161	-2.997500	3.006000	-9.009300	28.280937	0.000189	20.616262
2347.607530	-2.961400	3.005500	-8.899500	28.252258	0.000190	20.640021
2348.613594	-2.987300	3.002800	-8.969300	28.209642	0.000188	20.641686
2349.607014	-3.013900	3.001400	-9.045000	28.225765	0.000189	20.627096
2350.606478	-2.954100	3.002200	-8.867800	28.187049	0.000188	20.640752
2351.606401	-2.961400	3.000100	-8.883800	28.178015	0.000188	20.616954
2352.607830	-3.015400	2.997600	-9.038300	28.201189	0.000188	20.640288
2353.615510	-3.019400	2.997400	-9.049500	28.269212	0.000187	20.632434
2354.613550	-2.991200	2.995400	-8.959500	28.271409	0.000189	20.628481
2355.608210	-3.011600	2.993800	-9.015800	28.252244	0.000187	20.639533
2356.610993	-2.982800	2.993200	-8.927000	28.289761	0.000188	20.622302
2357.615977	-2.985500	2.992300	-8.932500	28.337723	0.000187	20.635982
2358.612536	-2.982800	2.990600	-8.919700	28.370455	0.000187	20.644760
2359.609793	-2.990200	2.988500	-8.934500	28.422747	0.000187	20.627238
2360.615062	-3.024100	2.986900	-9.031600	28.458495	0.000187	20.647592
2361.610023	-3.004400	2.986100	-8.971000	28.442788	0.000188	20.631299
2362.610852	-3.025000	2.984300	-9.026800	28.438258	0.000185	20.657086
2363.623126	-2.978400	2.983200	-8.883700	28.454969	0.000187	20.649256
2364.613655	-2.984500	2.983900	-8.904500	28.467874	0.000187	20.636646
2365.615091	-2.984100	2.981200	-8.894500	28.465953	0.000185	20.630444
2366.613433	-2.999200	2.980100	-8.937100	28.460763	0.000186	20.644185
2367.613641	-2.988800	2.977800	-8.898100	28.495327	0.000186	20.650544
2368.613402	-3.000900	2.975400	-8.927400	28.524034	0.000186	20.641520
2369.614955	-3.000200	2.975000	-8.923900	28.546754	0.000184	20.662033
2370.613456	-2.991500	2.974600	-8.896900	28.596405	0.000184	20.631901
2371.611737	-2.948600	2.973900	-8.766400	28.611820	0.000187	20.646480
2372.613460	-2.988600	2.969800	-8.874500	28.640490	0.000186	20.627463
2373.611845	-2.998100	2.969700	-8.902600	28.621972	0.000185	20.647695
2374.613436	-3.012900	2.967900	-8.941300	28.574374	0.000185	20.648121
2375.615086	-3.013500	2.966000	-8.937500	28.585779	0.000186	20.644909
2376.614654	-2.973800	2.966200	-8.819200	28.608910	0.000185	20.641178
2377.615867	-3.009500	2.962800	-8.916000	28.558435	0.000184	20.641552
2378.618445	-3.019000	2.960500	-8.936900	28.539675	0.000185	20.645418
2379.617546	-3.024000	2.959000	-8.947400	28.484828	0.000185	20.647557
2380.615692	-3.001000	2.958500	-8.876100	28.497359	0.000185	20.643580
2381.615962	-3.008000	2.956000	-8.890500	28.508418	0.000185	20.656141
2382.615271	-2.998100	2.956000	-8.862100	28.493664	0.000185	20.656456
2383.622940	-3.003500	2.954600	-8.873700	28.513487	0.000185	20.642753
2384.616551	-2.996500	2.952400	-8.845400	28.533936	0.000185	20.641534
2385.617248	-2.972700	2.952000	-8.774200	28.566930	0.000184	20.663860
2386.617487	-2.997800	2.949500	-8.841100	28.588309	0.000185	20.651725
2387.619837	-3.018200	2.947500	-8.894800	28.629748	0.000185	20.617117
2388.617731	-3.025000	2.944000	-8.904800	28.629326	0.000183	20.669329
2389.618514	-3.007100	2.944500	-8.853200	28.633539	0.000185	20.650811
2390.618175	-3.017900	2.941700	-8.876200	28.613281	0.000185	20.641787
2391.618334	-3.050900	2.940700	-8.970800	28.606704	0.000184	20.654605
2392.620090	-3.013900	2.939900	-8.859200	28.594075	0.000183	20.648523
2393.618908	-2.998000	2.938300	-8.808000	28.563968	0.000183	20.647599
2394.619539	-2.986400	2.936700	-8.768100	28.543881	0.000185	20.657717
2395.621535	-3.002600	2.935200	-8.811800	28.554322	0.000185	20.637883
2396.622278	-3.007300	2.933000	-8.819900	28.580264	0.000185	20.648364
2397.621012	-2.976900	2.932300	-8.728000	28.592010	0.000185	20.647391
2398.620334	-2.965500	2.930700	-8.690100	28.574663	0.000183	20.653155
2399.620826	-2.989600	2.929100	-8.755200	28.546510	0.000183	20.643293
2400.620017	-2.989800	2.928700	-8.755200	28.530190	0.000185	20.652462
2401.618828	-2.994100	2.926900	-8.762000	28.493355	0.000185	20.663733
2402.619712	-2.989200	2.923500	-8.737500	28.464259	0.000183	20.663355
2403.621887	-3.005200	2.922200	-8.780400	28.470404	0.000185	20.656741
2404.621492	-3.017500	2.919600	-8.808300	28.532506	0.000184	20.646259
2405.628895	-2.998600	2.920100	-8.755300	28.566429	0.000185	20.647706
2406.625863	-2.997100	2.917900	-8.743700	28.595594	0.000182	20.668073
2407.621969	-3.011700	2.914400	-8.775900	28.572137	0.000183	20.651559
2408.624260	-3.014700	2.914200	-8.784500	28.609776	0.000186	20.669080
2409.622644	-3.010800	2.911900	-8.766200	28.646896	0.000184	20.660472
2410.621399	-3.022400	2.909400	-8.792300	28.679835	0.000183	20.659510
2411.625882	-2.997500	2.908500	-8.717300	28.705751	0.000185	20.668070
2412.632836	-3.008000	2.906500	-8.741600	28.744942	0.000185	20.668191
2413.623546	-3.013900	2.903900	-8.751300	28.715564	0.000184	20.649029
2414.628158	-2.998400	2.902900	-8.702400	28.719292	0.000185	20.665114
2415.625582	-2.997000	2.899900	-8.689400	28.682900	0.000184	20.690575
2416.622593	-3.017700	2.898500	-8.745500	28.705823	0.000183	20.656287
2417.630770	-3.002800	2.897400	-8.699300	28.712437	0.000183	20.668641
2418.624191	-3.010000	2.895700	-8.714800	28.712389	0.000184	20.647727
2419.627426	-2.968800	2.894700	-8.590700	28.722213	0.000182	20.677066
2420.629908	-3.021200	2.891900	-8.735200	28.758713	0.000183	20.660725
2421.623394	-2.972000	2.892100	-8.593800	28.761586	0.000185	20.670732
2422.623013	-3.039800	2.887500	-8.776300	28.758349	0.000182	20.679800
2423.629659	-2.973400	2.887600	-8.584800	28.711314	0.000183	20.662767
2424.624042	-3.017600	2.884300	-8.702000	28.718471	0.000181	20.664761
2425.626061	-2.998900	2.882300	-8.642000	28.763214	0.000183	20.656724
2426.629204	-2.998500	2.881700	-8.639500	28.777614	0.000182	20.664117
2427.629808	-2.998000	2.879800	-8.632000	28.804987	0.000182	20.671777
2428.626758	-2.978000	2.879100	-8.573000	28.817696	0.000184	20.675571
2429.632442	-3.024700	2.875800	-8.697400	28.820362	0.000183	20.672566
2430.629098	-3.046400	2.871500	-8.746600	28.813085	0.000184	20.655277
2431.628518	-2.996700	2.872100	-8.605200	28.841399	0.000183	20.679060
2432.634780	-2.995000	2.870200	-8.594900	28.837066	0.000184	20.677540
2433.626293	-2.998000	2.867400	-8.595400	28.852296	0.000182	20.690513
2434.627421	-3.000400	2.866300	-8.599400	28.876362	0.000183	20.662597
2435.635875	-3.003400	2.862500	-8.595900	28.890699	0.000184	20.665661
2436.627654	-2.986900	2.861400	-8.546000	28.877641	0.000182	20.661040
2437.632061	-2.978500	2.861600	-8.521700	28.838695	0.000183	20.678232
2438.630834	-3.001800	2.857400	-8.575800	28.795054	0.000182	20.676471
2439.627267	-3.015200	2.855200	-8.608000	28.819603	0.000183	20.681285
2440.627074	-3.030200	2.852500	-8.642900	28.788921	0.000183	20.674560
2441.628342	-2.999500	2.851000	-8.550300	28.764108	0.000183	20.661417
2442.628020	-2.987100	2.850000	-8.511900	28.794920	0.000183	20.683923
2443.626705	-2.994500	2.847300	-8.525300	28.821980	0.000183	20.669929
2444.630019	-2.984500	2.845800	-8.491400	28.808413	0.000183	20.688506
2445.631142	-2.985100	2.844700	-8.490400	28.774171	0.000183	20.683411
2446.629767	-3.010000	2.839900	-8.547400	28.720437	0.000181	20.659154
2447.630011	-2.979300	2.839600	-8.459100	28.697841	0.000183	20.686657
2448.630417	-2.999600	2.837900	-8.511200	28.722295	0.000182	20.682840
2449.637790	-3.005400	2.835100	-8.519400	28.712420	0.000182	20.696128
2450.633420	-2.994100	2.832600	-8.480400	28.702150	0.000183	20.700482
2451.629094	-3.037900	2.828600	-8.591100	28.664163	0.000180	20.651784
2452.629213	-2.991600	2.830000	-8.465100	28.669173	0.000183	20.681964
2453.634470	-3.019700	2.825800	-8.531200	28.690804	0.000181	20.708969
2454.632563	-2.980200	2.822800	-8.409900	28.705253	0.000183	20.688907
2455.631545	-3.010400	2.820700	-8.490500	28.746447	0.000180	20.709066
2456.637327	-2.994600	2.820800	-8.445100	28.813673	0.000182	20.669147
2457.629835	-2.999700	2.815600	-8.444900	28.851486	0.000181	20.678316
2458.630649	-3.007300	2.814300	-8.462400	28.886436	0.000182	20.678437
2459.630788	-3.008600	2.811600	-8.457800	28.900435	0.000180	20.684006
2460.632868	-3.005000	2.810100	-8.443300	28.895595	0.000181	20.670119
2461.631153	-3.006300	2.807300	-8.438300	28.820565	0.000180	20.684626
2462.633686	-2.977900	2.806900	-8.357100	28.816112	0.000182	20.692469
2463.634706	-3.023100	2.801300	-8.467000	28.857374	0.000181	20.690413
2464.633568	-3.012700	2.799300	-8.431900	28.853427	0.000180	20.709197
2465.635434	-2.991500	2.797400	-8.366900	28.901507	0.000180	20.700260
2466.633931	-3.010400	2.794500	-8.410900	28.953484	0.000182	20.693829
2467.633861	-2.973800	2.791900	-8.301400	29.001271	0.000181	20.684127
2468.636828	-2.992500	2.790100	-8.348500	28.997314	0.000179	20.670181
2469.637013	-2.983800	2.787100	-8.315500	28.968039	0.000183	20.712288
2470.637238	-3.014200	2.783600	-8.389000	28.955246	0.000181	20.701295
2471.637835	-3.009200	2.781400	-8.369100	28.911405	0.000180	20.686522
2472.636573	-3.001800	2.777600	-8.336600	28.866922	0.000181	20.693867
2473.636967	-2.977500	2.777400	-8.268900	28.858859	0.000182	20.705186
2474.640799	-2.994100	2.773800	-8.303600	28.833033	0.000183	20.709990
2475.640359	-2.987700	2.771000	-8.278000	28.761823	0.000182	20.689939
2476.639965	-3.029900	2.766600	-8.381400	28.757552	0.000181	20.690378
2477.638481	-3.003800	2.765300	-8.304800	28.720725	0.000183	20.700700
2478.640289	-2.998800	2.762100	-8.281100	28.681100	0.000181	20.696823
2479.639028	-3.008900	2.758400	-8.298000	28.688522	0.000181	20.698609
2480.643279	-2.980000	2.757000	-8.215000	28.669245	0.000181	20.691995
2481.640017	-2.988700	2.752300	-8.224600	28.672613	0.000182	20.705819
2482.641073	-2.987700	2.750800	-8.217900	28.664393	0.000180	20.717930
2483.639713	-3.011600	2.747200	-8.270700	28.675970	0.000182	20.706355
2484.641925	-3.006300	2.742600	-8.244400	28.742369	0.000180	20.697370
2485.641830	-3.034000	2.739500	-8.310700	28.755851	0.000181	20.708107
2486.638833	-3.003700	2.736600	-8.219400	28.800002	0.000181	20.691413
2487.641506	-3.009500	2.733000	-8.223800	28.831621	0.000180	20.699558
2488.642618	-2.984100	2.731300	-8.149500	28.828374	0.000179	20.716203
2489.642144	-3.009800	2.727600	-8.207800	28.837451	0.000181	20.703060
2490.642368	-3.027200	2.723500	-8.243800	28.857835	0.000176	20.705102
2491.644747	-3.001800	2.721900	-8.169000	28.879932	0.000181	20.705552
2492.640729	-2.990600	2.720200	-8.132100	28.919976	0.000179	20.707961
2493.641888	-3.006000	2.714200	-8.156600	28.963068	0.000180	20.696847
2494.646629	-3.018500	2.711200	-8.182200	28.971165	0.000179	20.706902
2495.641308	-3.021700	2.706900	-8.178000	29.016464	0.000181	20.711765
2496.643416	-3.012000	2.703000	-8.139900	29.050468	0.000181	20.707145
2497.643874	-3.023100	2.700100	-8.162000	29.076714	0.000180	20.712253
2498.644678	-2.975600	2.696900	-8.024100	29.084037	0.000179	20.712046
2499.647446	-3.011100	2.691800	-8.104100	29.111680	0.000181	20.706234
2500.643445	-3.010300	2.688000	-8.089700	29.101798	0.000179	20.707183
2501.645424	-3.013200	2.684100	-8.086400	29.105202	0.000179	20.720096
2502.647364	-2.999100	2.681200	-8.040100	29.097611	0.000181	20.721931
2503.647518	-3.006100	2.677900	-8.049400	29.143812	0.000182	20.718698
2504.646452	-2.993500	2.673000	-8.000900	29.205923	0.000179	20.724388
2505.651148	-2.988400	2.670600	-7.980000	29.220412	0.000182	20.741836
2506.644655	-2.989400	2.665900	-7.968100	29.267257	0.000180	20.724084
2507.649359	-3.005100	2.661300	-7.997100	29.299806	0.000180	20.710419
2508.648334	-2.988600	2.657600	-7.941700	29.253939	0.000181	20.708764
2509.648097	-3.002500	2.652400	-7.962300	29.246229	0.000180	20.718539
2510.647654	-2.991900	2.648600	-7.923400	29.191408	0.000182	20.704545
2511.648876	-2.991400	2.644600	-7.910100	29.203979	0.000183	20.711997
2512.646925	-3.029700	2.640200	-7.998500	29.210288	0.000180	20.716933
2513.647486	-3.007100	2.634700	-7.920700	29.247012	0.000181	20.745882
2514.647918	-3.007100	2.632000	-7.913600	29.243584	0.000182	20.726306
2515.650450	-2.985600	2.628400	-7.846200	29.252754	0.000182	20.733651
2516.649457	-3.014900	2.622700	-7.906400	29.247348	0.000180	20.743376
2517.653214	-2.965300	2.618700	-7.764500	29.244790	0.000181	20.736056
2518.652140	-2.998600	2.612900	-7.832600	29.315930	0.000181	20.722402
2519.654984	-3.017800	2.606000	-7.863300	29.341503	0.000183	20.728736
2520.651498	-3.003500	2.602300	-7.815200	29.298955	0.000182	20.714303
2521.650711	-2.995300	2.597400	-7.778400	29.312863	0.000182	20.743020
2522.651237	-2.981100	2.592300	-7.727100	29.265681	0.000181	20.744308
2523.658434	-3.015600	2.586100	-7.798300	29.278662	0.000182	20.740795
2524.654524	-3.005700	2.580800	-7.756200	29.260303	0.000181	20.723714
2525.657097	-2.994800	2.576500	-7.715000	29.258963	0.000181	20.742279
2526.652472	-2.993200	2.569600	-7.689500	29.310088	0.000181	20.714618
2527.654327	-2.990900	2.564200	-7.668800	29.356001	0.000180	20.732443
2528.654621	-3.008600	2.558500	-7.696500	29.397497	0.000183	20.730643
2529.659822	-3.000600	2.552500	-7.658400	29.356918	0.000181	20.746170
2530.655954	-2.976900	2.547200	-7.581100	29.293876	0.000183	20.723409
2531.654907	-3.002100	2.540900	-7.627000	29.307928	0.000182	20.744685
2532.656736	-2.956300	2.536200	-7.496800	29.304044	0.000182	20.733658
2533.655153	-2.975900	2.529800	-7.526700	29.299631	0.000183	20.726839
2534.659581	-2.990100	2.522700	-7.541700	29.303155	0.000182	20.735132
2535.659466	-2.984500	2.517500	-7.512600	29.247166	0.000183	20.744141
2536.658717	-3.022600	2.511400	-7.590400	29.277350	0.000182	20.721928
2537.662317	-3.019500	2.504300	-7.561000	29.350696	0.000183	20.721879
2538.658353	-2.989300	2.498900	-7.468400	29.335425	0.000182	20.719764
