LabVIEW Measurement	
Writer_Version	2
Reader_Version	2
Separator	Tab
Decimal_Separator	.
Multi_Headings	No
X_Columns	One
Time_Pref	Absolute
Operator	admin
Description	Clolumns are: time, Current, Voltage, Power, Battery Temp, and Chamber Temp
Date	2024/08/16
Time	13:06:06.104549407958984375
***End_of_Header***	
	
Channels	6						
Samples	1	1	1	1	1	1	
Date	2024/09/06	2024/09/06	2024/09/06	2024/09/06	2024/09/06	2024/09/06	
Time	22:39:29.1613063812255859375	22:39:29.168430328369140625	22:39:29.1754007339477539062	22:39:29.142917633056640625	22:39:29.142917633056640625	22:39:29.142917633056640625	
X_Dimension	Time	Time	Time	Time	Time	Time	
X0	0.0000000000000000E+0	0.0000000000000000E+0	0.0000000000000000E+0	0.0000000000000000E+0	0.0000000000000000E+0	0.0000000000000000E+0	
Delta_X	1.000000	1.000000	1.000000	1.000000	1.000000	1.000000	
***End_of_Header***							
X_Value	Untitled	Untitled 1	Untitled 2	Untitled 3	Untitled 4	Untitled 5	Comment
0.000000	3.400000E+38	4.098300	0.295140	20.998881	0.000913	20.803547
1.002389	-3.005100	3.926700	-11.798000	21.010042	0.000915	20.810443
1.999372	-3.002700	3.919500	-11.767000	21.012659	0.000911	20.806422
2.998420	-2.993400	3.914200	-11.716000	20.996966	0.000912	20.796416
4.000741	-2.988300	3.912000	-11.689000	21.026777	0.000912	20.829551
5.003580	-3.020300	3.906000	-11.797000	21.011281	0.000909	20.829699
6.003710	-2.995800	3.903600	-11.693000	21.000550	0.000910	20.803320
7.001212	-2.982200	3.903400	-11.639000	21.012678	0.000909	20.809760
7.999899	-2.996200	3.900000	-11.684000	21.001301	0.000908	20.805493
9.002290	-2.978000	3.898900	-11.610000	21.037655	0.000906	20.807242
10.002068	-3.008300	3.895700	-11.718000	21.027226	0.000906	20.800604
11.001367	-2.998900	3.893700	-11.676000	21.021236	0.000905	20.814052
12.002687	-3.010200	3.892400	-11.716000	21.043615	0.000905	20.821263
13.000593	-3.007700	3.891000	-11.702000	21.045043	0.000905	20.823165
14.002721	-3.002100	3.889500	-11.675000	21.045364	0.000901	20.815426
15.002806	-3.004200	3.887600	-11.678000	21.047063	0.000903	20.801478
16.002289	-3.008300	3.888300	-11.696000	21.053201	0.000901	20.837488
17.004451	-2.998700	3.888000	-11.658000	21.037686	0.000903	20.815807
18.004377	-2.985800	3.886600	-11.604000	21.056026	0.000901	20.825142
19.003900	-2.981200	3.884900	-11.580000	21.075560	0.000901	20.805326
20.005636	-3.003800	3.884000	-11.665000	21.053557	0.000900	20.814612
21.005688	-3.027800	3.882300	-11.754000	21.074445	0.000899	20.832660
22.009935	-3.024800	3.882300	-11.742000	21.084726	0.000901	20.812598
23.006726	-3.001500	3.881400	-11.649000	21.088943	0.000898	20.847161
24.009725	-3.014600	3.879700	-11.694000	21.099816	0.000897	20.822001
25.008111	-3.010300	3.880300	-11.680000	21.118727	0.000898	20.812943
26.007897	-2.980500	3.879700	-11.562000	21.129414	0.000896	20.817468
27.008943	-3.004100	3.879200	-11.653000	21.111776	0.000899	20.832542
28.007275	-2.994500	3.877000	-11.607000	21.116190	0.000898	20.831268
29.007809	-2.989900	3.876900	-11.590000	21.126194	0.000894	20.831791
30.006106	-2.993800	3.876800	-11.606000	21.116917	0.000895	20.846218
31.013474	-3.011200	3.875500	-11.669000	21.150196	0.000897	20.837782
32.006811	-3.011500	3.875000	-11.668000	21.151544	0.000894	20.842924
33.010003	-3.012700	3.875400	-11.674000	21.139571	0.000894	20.838533
34.008007	-3.019100	3.874800	-11.697000	21.159331	0.000895	20.833170
35.007812	-3.004700	3.875800	-11.645000	21.166398	0.000893	20.806574
36.008455	-2.998700	3.873800	-11.616000	21.174026	0.000894	20.836489
37.008482	-3.015100	3.871700	-11.672000	21.162304	0.000895	20.834721
38.009134	-3.028300	3.871400	-11.723000	21.204539	0.000893	20.842357
39.008198	-3.019800	3.869900	-11.685000	21.182015	0.000893	20.852541
40.009339	-2.993600	3.870700	-11.586000	21.192271	0.000894	20.816808
41.009235	-3.005200	3.870800	-11.632000	21.214597	0.000892	20.838668
42.007961	-2.981400	3.871300	-11.540000	21.212258	0.000894	20.820681
43.009037	-2.963800	3.872100	-11.473000	21.220291	0.000893	20.851949
44.008479	-3.007000	3.869000	-11.632000	21.223110	0.000890	20.846235
45.010735	-2.997000	3.868200	-11.592000	21.224157	0.000892	20.832110
46.015184	-2.992500	3.868400	-11.575000	21.239902	0.000892	20.840274
47.009958	-2.993100	3.868400	-11.577000	21.251277	0.000892	20.831740
48.011474	-3.006300	3.867400	-11.625000	21.260984	0.000892	20.840502
49.012914	-3.016900	3.867300	-11.667000	21.277523	0.000889	20.834763
50.013011	-3.013300	3.867300	-11.652000	21.285181	0.000889	20.858069
51.013535	-3.001400	3.866800	-11.605000	21.267896	0.000891	20.852158
52.014338	-2.988300	3.866200	-11.552000	21.276951	0.000890	20.841302
53.014743	-2.978300	3.867500	-11.518000	21.297953	0.000892	20.843821
54.014224	-2.988700	3.866600	-11.555000	21.286110	0.000891	20.868955
55.014771	-2.981800	3.865600	-11.525000	21.302599	0.000889	20.839461
56.014431	-3.018800	3.864500	-11.664000	21.303073	0.000889	20.848469
57.014191	-2.996800	3.864100	-11.579000	21.319341	0.000890	20.831554
58.014572	-2.994600	3.865100	-11.573000	21.318461	0.000888	20.851536
59.017059	-3.001300	3.865400	-11.600000	21.345807	0.000890	20.846178
60.017011	-3.018600	3.862800	-11.658000	21.345709	0.000888	20.853192
61.016429	-3.009200	3.863000	-11.623000	21.341794	0.000890	20.867292
62.016263	-3.006000	3.863300	-11.612000	21.350842	0.000888	20.857379
63.019071	-3.008100	3.863800	-11.621000	21.356037	0.000887	20.850248
64.017667	-3.013700	3.862800	-11.641000	21.387764	0.000888	20.856861
65.017964	-2.993600	3.862100	-11.560000	21.371306	0.000888	20.844663
66.017673	-2.991800	3.861900	-11.552000	21.392559	0.000889	20.843167
67.021204	-2.993900	3.862200	-11.560000	21.393501	0.000890	20.844583
68.017543	-2.995300	3.861600	-11.566000	21.382982	0.000887	20.840223
69.018670	-2.997900	3.860400	-11.572000	21.410641	0.000888	20.855094
70.017203	-2.998900	3.860900	-11.577000	21.397673	0.000888	20.841646
71.018408	-2.991100	3.860600	-11.547000	21.420223	0.000888	20.857569
72.019089	-3.015600	3.859900	-11.640000	21.418193	0.000888	20.846529
73.020053	-2.979500	3.860800	-11.502000	21.433284	0.000888	20.864472
74.019032	-3.012200	3.860100	-11.626000	21.454239	0.000889	20.838025
75.020305	-3.003300	3.858900	-11.587000	21.441518	0.000888	20.841892
76.024532	-2.989000	3.859300	-11.535000	21.459329	0.000887	20.842643
77.020151	-2.991600	3.859200	-11.545000	21.461243	0.000888	20.828438
78.021355	-3.022100	3.857600	-11.658000	21.489232	0.000888	20.855020
79.024410	-2.976700	3.859000	-11.486000	21.469428	0.000889	20.857489
80.022074	-2.996100	3.859200	-11.562000	21.482321	0.000888	20.830562
81.024090	-2.997900	3.858100	-11.566000	21.496162	0.000889	20.802686
82.024090	-2.994900	3.857800	-11.553000	21.499227	0.000887	20.846055
83.020404	-3.005500	3.856900	-11.590000	21.482617	0.000888	20.838444
84.023077	-3.006200	3.858000	-11.598000	21.498433	0.000888	20.833407
85.022332	-3.013400	3.856000	-11.618000	21.513621	0.000889	20.839121
86.022429	-2.994000	3.856500	-11.546000	21.520778	0.000889	20.824472
87.022958	-2.987600	3.857000	-11.522000	21.520083	0.000889	20.816664
88.024240	-2.999800	3.856400	-11.567000	21.512876	0.000889	20.819884
89.039041	-3.004500	3.855100	-11.582000	21.531332	0.000890	20.830765
90.024425	-3.013800	3.855600	-11.619000	21.535153	0.000891	20.841701
91.026129	-2.995400	3.855900	-11.548000	21.516076	0.000887	20.839207
92.024975	-3.004800	3.856500	-11.588000	21.534107	0.000888	20.817895
93.028235	-2.996000	3.855100	-11.549000	21.532014	0.000888	20.817698
94.027284	-2.998700	3.854300	-11.557000	21.533165	0.000888	20.823590
95.026844	-2.997300	3.855400	-11.554000	21.538851	0.000890	20.824065
96.028482	-3.012200	3.854100	-11.608000	21.573140	0.000889	20.811435
97.029376	-2.999200	3.854000	-11.557000	21.579281	0.000887	20.816632
98.029935	-2.991900	3.854600	-11.532000	21.576561	0.000889	20.813436
99.029455	-2.999600	3.854500	-11.560000	21.588782	0.000889	20.818079
100.033257	-2.964500	3.854600	-11.425000	21.596290	0.000890	20.819902
101.031838	-3.010000	3.852000	-11.593000	21.606043	0.000889	20.830136
102.033897	-3.011500	3.852800	-11.601000	21.605556	0.000889	20.810683
103.035148	-2.996800	3.853000	-11.546000	21.602510	0.000889	20.798626
104.032688	-2.988600	3.852200	-11.512000	21.619242	0.000890	20.807783
105.032732	-3.014100	3.851900	-11.607000	21.628601	0.000890	20.801975
106.036042	-2.994100	3.853000	-11.536000	21.617648	0.000891	20.807610
107.032005	-3.002000	3.851300	-11.561000	21.631671	0.000891	20.804574
108.034106	-2.985600	3.852500	-11.500000	21.634286	0.000889	20.814777
109.033660	-2.984000	3.851600	-11.492000	21.675280	0.000892	20.810756
110.037549	-3.006000	3.851000	-11.575000	21.641498	0.000890	20.809666
111.032274	-3.004900	3.851000	-11.570000	21.650051	0.000889	20.815380
112.035302	-2.955200	3.852700	-11.384000	21.652494	0.000891	20.806446
113.035604	-2.989100	3.851400	-11.511000	21.667563	0.000890	20.794973
114.037040	-2.979900	3.851800	-11.477000	21.655071	0.000890	20.792430
115.035434	-2.993000	3.850400	-11.523000	21.692649	0.000893	20.812966
116.032785	-3.016300	3.848700	-11.608000	21.698518	0.000892	20.817418
117.036889	-2.981700	3.849000	-11.475000	21.697195	0.000891	20.802818
118.036814	-3.004400	3.848300	-11.561000	21.678244	0.000891	20.797602
119.034482	-2.996300	3.850400	-11.535000	21.694353	0.000893	20.815145
120.035333	-3.016300	3.847400	-11.603000	21.705502	0.000893	20.794061
121.035959	-2.990900	3.848800	-11.510000	21.686926	0.000893	20.807239
122.034657	-2.985600	3.848500	-11.488000	21.709870	0.000892	20.801278
123.036653	-2.993900	3.848100	-11.520000	21.713365	0.000892	20.799559
124.039575	-2.985600	3.848400	-11.488000	21.710226	0.000893	20.797367
125.037656	-2.983500	3.847300	-11.477000	21.733472	0.000895	20.816837
126.047376	-2.999800	3.847800	-11.542000	21.725689	0.000894	20.791979
127.040944	-3.021900	3.846300	-11.622000	21.739532	0.000894	20.796825
128.039899	-3.004800	3.846600	-11.557000	21.755769	0.000895	20.786048
129.042155	-2.988500	3.847700	-11.497000	21.767084	0.000895	20.821554
130.041604	-2.968800	3.847000	-11.419000	21.778915	0.000896	20.782187
131.040130	-3.024100	3.846300	-11.631000	21.775974	0.000896	20.783511
132.040142	-2.999300	3.847400	-11.537000	21.796923	0.000896	20.787882
133.040627	-2.997500	3.846300	-11.528000	21.801316	0.000896	20.776157
134.040099	-3.021600	3.845300	-11.618000	21.808452	0.000897	20.789464
135.042828	-3.008600	3.844700	-11.566000	21.817262	0.000894	20.758927
136.043052	-2.988500	3.846000	-11.493000	21.836181	0.000898	20.807734
137.042441	-2.987600	3.846400	-11.491000	21.851647	0.000898	20.776748
138.041212	-2.997200	3.843000	-11.517000	21.857406	0.000897	20.798633
139.041270	-3.007000	3.844300	-11.558000	21.853622	0.000899	20.789156
140.045766	-2.997700	3.843600	-11.521000	21.859189	0.000898	20.778132
141.042915	-2.992300	3.842900	-11.498000	21.855793	0.000897	20.785639
142.043150	-2.989100	3.844700	-11.491000	21.867439	0.000899	20.753199
143.044455	-2.995300	3.844100	-11.513000	21.894822	0.000898	20.780134
144.046538	-2.984500	3.845000	-11.474000	21.878426	0.000899	20.781740
145.045426	-3.009800	3.843300	-11.567000	21.893978	0.000898	20.764591
146.044083	-3.001000	3.843700	-11.532000	21.902339	0.000902	20.797615
147.045613	-3.001600	3.844100	-11.537000	21.896808	0.000898	20.766948
148.049327	-3.008400	3.842000	-11.557000	21.902720	0.000901	20.765279
149.044942	-3.014500	3.842400	-11.582000	21.947567	0.000901	20.773186
150.046103	-3.017200	3.843200	-11.595000	21.936481	0.000902	20.770624
151.043625	-3.003900	3.841100	-11.536000	21.939870	0.000903	20.771172
152.045679	-2.984800	3.843400	-11.470000	21.956671	0.000902	20.788464
153.046204	-2.997000	3.841500	-11.512000	21.946182	0.000904	20.764688
154.046183	-3.011400	3.841300	-11.567000	21.964439	0.000903	20.765420
155.045383	-2.999800	3.841600	-11.523000	21.979197	0.000902	20.766442
156.047977	-2.976500	3.843500	-11.439000	21.955692	0.000905	20.768518
157.047066	-2.993000	3.840800	-11.494000	21.973765	0.000905	20.766221
158.046974	-2.996300	3.840000	-11.505000	21.978902	0.000905	20.741016
159.048878	-2.998700	3.840000	-11.514000	21.951484	0.000906	20.751977
160.046625	-3.009700	3.839600	-11.554000	21.961006	0.000906	20.770519
161.047405	-2.997100	3.840200	-11.508000	21.952609	0.000902	20.757371
162.051769	-3.005500	3.841400	-11.544000	21.975247	0.000907	20.772920
163.048657	-2.996100	3.839500	-11.502000	21.964925	0.000907	20.780605
164.047739	-3.024800	3.839700	-11.612000	21.971962	0.000907	20.749716
165.053303	-3.013000	3.839900	-11.568000	21.965306	0.000907	20.777193
166.046951	-3.010400	3.838800	-11.556000	21.999760	0.000908	20.751465
167.049372	-3.004800	3.838600	-11.532000	21.989241	0.000908	20.753737
168.048757	-3.003700	3.838800	-11.530000	21.994329	0.000910	20.771158
169.047147	-3.002900	3.838000	-11.525000	22.003758	0.000909	20.753571
170.048321	-3.003000	3.838400	-11.525000	22.039055	0.000908	20.774680
171.051519	-2.987200	3.838700	-11.467000	22.034447	0.000910	20.743040
172.050480	-2.997900	3.839100	-11.508000	22.027594	0.000912	20.753724
173.050773	-2.968700	3.839100	-11.396000	22.025454	0.000912	20.755375
174.050559	-2.996300	3.836700	-11.494000	22.037147	0.000911	20.759494
175.051948	-2.982500	3.839500	-11.451000	22.029569	0.000910	20.744321
176.050121	-3.011000	3.835500	-11.548000	22.056265	0.000912	20.740700
177.051672	-2.987600	3.835500	-11.458000	22.074047	0.000911	20.767038
178.052105	-2.994000	3.836300	-11.484000	22.071255	0.000913	20.759026
179.051082	-3.002000	3.835400	-11.513000	22.058497	0.000912	20.757160
180.051738	-3.018100	3.834500	-11.572000	22.084295	0.000913	20.746950
181.055221	-2.995500	3.837000	-11.492000	22.081563	0.000913	20.752750
182.054997	-3.010400	3.834900	-11.543000	22.105312	0.000915	20.763250
183.054746	-2.987800	3.836600	-11.462000	22.128919	0.000916	20.728087
184.055162	-2.980100	3.835900	-11.428000	22.105140	0.000914	20.769242
185.054882	-3.002200	3.835300	-11.514000	22.147814	0.000915	20.755066
186.053913	-3.019600	3.833500	-11.575000	22.148490	0.000916	20.740570
187.063219	-2.994500	3.835200	-11.483000	22.147223	0.000915	20.732188
188.056426	-3.002800	3.833400	-11.510000	22.172994	0.000915	20.762733
189.054366	-3.008700	3.835000	-11.537000	22.175288	0.000915	20.745114
190.055212	-3.006000	3.833800	-11.524000	22.183148	0.000915	20.757726
191.056161	-3.010900	3.834100	-11.543000	22.189151	0.000917	20.740502
192.057433	-3.009900	3.832600	-11.534000	22.202540	0.000916	20.743476
193.058067	-2.989900	3.832600	-11.458000	22.193148	0.000919	20.738340
194.059565	-2.994100	3.832400	-11.473000	22.205806	0.000917	20.741530
195.057250	-3.019200	3.831000	-11.566000	22.184371	0.000919	20.744726
196.057731	-3.003300	3.832600	-11.509000	22.211174	0.000918	20.736948
197.059319	-3.003500	3.831500	-11.507000	22.219028	0.000919	20.727741
198.059103	-3.015800	3.831100	-11.553000	22.211426	0.000919	20.753322
199.057381	-2.997300	3.831500	-11.483000	22.230000	0.000921	20.748685
200.058630	-3.003900	3.832400	-11.511000	22.239502	0.000921	20.753931
201.062198	-2.982800	3.832700	-11.431000	22.254477	0.000920	20.732889
202.058574	-3.003700	3.830000	-11.503000	22.270086	0.000922	20.740457
203.057809	-3.005900	3.830500	-11.512000	22.271660	0.000923	20.760526
204.058802	-2.986000	3.831600	-11.440000	22.262613	0.000921	20.738191
205.060007	-3.016100	3.829000	-11.548000	22.280233	0.000923	20.734022
206.060898	-3.019300	3.828000	-11.555000	22.282828	0.000925	20.743259
207.060717	-2.992500	3.830100	-11.460000	22.287096	0.000924	20.728566
208.063372	-2.987100	3.830700	-11.442000	22.293676	0.000924	20.749380
209.062339	-2.992200	3.830200	-11.460000	22.294580	0.000924	20.724205
210.060224	-3.011300	3.828600	-11.527000	22.316786	0.000924	20.724630
211.058554	-3.009200	3.826700	-11.515000	22.321300	0.000928	20.737211
212.060836	-2.982800	3.829900	-11.422000	22.335358	0.000926	20.720941
213.063477	-2.997300	3.829400	-11.477000	22.323668	0.000927	20.742901
214.061149	-2.995500	3.828600	-11.467000	22.322253	0.000927	20.722518
215.060450	-3.003800	3.828400	-11.498000	22.329578	0.000927	20.727955
216.059421	-3.003300	3.827400	-11.493000	22.320906	0.000928	20.725911
217.060179	-3.005800	3.827200	-11.502000	22.327161	0.000930	20.729803
218.060198	-2.980900	3.827400	-11.407000	22.324117	0.000930	20.737661
219.060251	-3.014800	3.826200	-11.533000	22.339300	0.000930	20.744804
220.065004	-3.017100	3.826100	-11.543000	22.345929	0.000931	20.725837
221.061170	-3.004800	3.827300	-11.499000	22.361210	0.000930	20.727863
222.060890	-2.998200	3.827700	-11.475000	22.366917	0.000932	20.705601
223.062593	-3.010500	3.825500	-11.515000	22.387647	0.000929	20.702651
224.062274	-3.009300	3.825500	-11.510000	22.371652	0.000931	20.721723
225.064075	-3.001000	3.827600	-11.486000	22.388145	0.000931	20.727333
226.063603	-3.012300	3.825700	-11.522000	22.370256	0.000932	20.704203
227.065375	-3.019600	3.825300	-11.550000	22.358345	0.000934	20.724993
228.064964	-3.028200	3.823100	-11.576000	22.369537	0.000933	20.720553
229.064470	-2.970400	3.826700	-11.365000	22.388477	0.000936	20.708224
230.065229	-3.000000	3.824000	-11.471000	22.389996	0.000934	20.720651
231.063800	-2.982600	3.825200	-11.408000	22.384965	0.000936	20.734581
232.064366	-2.973700	3.826000	-11.376000	22.393138	0.000936	20.729963
233.066914	-2.975300	3.825000	-11.380000	22.387634	0.000936	20.731564
234.065992	-2.978000	3.824900	-11.390000	22.393083	0.000937	20.714259
235.066788	-3.012800	3.823300	-11.518000	22.408708	0.000938	20.711888
236.078437	-3.007900	3.823500	-11.499000	22.430088	0.000939	20.718601
237.066741	-3.013000	3.823600	-11.519000	22.446685	0.000938	20.717203
238.067343	-2.985800	3.824500	-11.419000	22.441599	0.000940	20.714955
239.067975	-3.011300	3.822300	-11.509000	22.454082	0.000939	20.720818
240.067199	-2.987100	3.823500	-11.420000	22.439706	0.000940	20.719223
241.083983	-3.009100	3.822100	-11.500000	22.450915	0.000940	20.723811
242.069300	-3.001800	3.822200	-11.472000	22.461510	0.000941	20.723515
243.069554	-3.017800	3.821900	-11.531000	22.452987	0.000941	20.704548
244.069146	-2.996400	3.821100	-11.448000	22.471748	0.000941	20.708637
245.070900	-3.006400	3.821600	-11.487000	22.496220	0.000942	20.721766
246.070503	-2.987500	3.821400	-11.414000	22.512243	0.000943	20.702251
247.069834	-3.008000	3.819700	-11.488000	22.510571	0.000944	20.701524
248.071542	-2.993700	3.821100	-11.438000	22.541320	0.000944	20.727106
249.070416	-3.016000	3.819800	-11.519000	22.513811	0.000944	20.703821
250.075141	-3.009700	3.819400	-11.493000	22.511696	0.000942	20.696012
251.071283	-2.974900	3.820300	-11.363000	22.529306	0.000946	20.707485
252.072008	-2.990000	3.820000	-11.421000	22.531052	0.000946	20.709709
253.073123	-2.993100	3.820800	-11.435000	22.534391	0.000944	20.734391
254.074065	-3.008200	3.819200	-11.488000	22.547050	0.000946	20.711033
255.071621	-3.022700	3.819600	-11.544000	22.553279	0.000946	20.709684
256.073084	-2.991000	3.819700	-11.424000	22.538553	0.000947	20.720067
257.078250	-3.005700	3.819700	-11.479000	22.545679	0.000949	20.715824
258.071567	-2.996900	3.819100	-11.444000	22.540041	0.000948	20.706857
259.073939	-3.014800	3.818500	-11.510000	22.554619	0.000948	20.715294
260.077992	-3.014700	3.818100	-11.509000	22.556187	0.000949	20.734884
261.071718	-2.972900	3.819300	-11.353000	22.549983	0.000950	20.726299
262.075463	-3.001000	3.818500	-11.458000	22.533641	0.000951	20.700921
263.076743	-3.009100	3.817400	-11.486000	22.561911	0.000951	20.703631
264.072976	-3.014300	3.817500	-11.505000	22.579354	0.000951	20.695970
265.073102	-2.993000	3.816600	-11.421000	22.584838	0.000952	20.704782
266.074538	-3.023900	3.817300	-11.541000	22.573273	0.000951	20.701260
267.072604	-2.984800	3.817200	-11.393000	22.590243	0.000952	20.713989
268.076430	-2.995900	3.815500	-11.429000	22.586062	0.000954	20.695575
269.076622	-3.003600	3.816000	-11.461000	22.588546	0.000956	20.716083
270.073432	-2.991900	3.815200	-11.414000	22.617479	0.000954	20.703335
271.075735	-3.012600	3.813900	-11.489000	22.640343	0.000955	20.716754
272.075243	-2.991100	3.816900	-11.416000	22.635369	0.000953	20.720781
273.074775	-3.034300	3.812700	-11.568000	22.667707	0.000956	20.710971
274.078194	-3.014100	3.814300	-11.496000	22.661400	0.000957	20.694695
275.074839	-3.019000	3.813600	-11.512000	22.663269	0.000956	20.715061
276.075616	-2.991200	3.814900	-11.410000	22.666183	0.000958	20.700435
277.075130	-3.001400	3.814500	-11.448000	22.669152	0.000957	20.701512
278.074984	-3.000400	3.814900	-11.443000	22.672441	0.000958	20.715713
279.075270	-3.018500	3.811800	-11.505000	22.673062	0.000958	20.709222
280.077142	-3.005600	3.814200	-11.463000	22.676504	0.000959	20.710774
281.075689	-2.978600	3.812900	-11.357000	22.687792	0.000959	20.696000
282.076322	-3.007800	3.812300	-11.466000	22.705675	0.000961	20.699215
283.076874	-3.010000	3.811000	-11.470000	22.693472	0.000958	20.720184
284.074976	-2.997800	3.812600	-11.428000	22.727677	0.000962	20.707504
285.076467	-3.004700	3.811200	-11.450000	22.706283	0.000961	20.704566
286.075762	-3.003100	3.811600	-11.445000	22.730296	0.000961	20.703963
287.075932	-3.030800	3.811100	-11.550000	22.742135	0.000963	20.702546
288.076635	-3.015300	3.811100	-11.489000	22.745996	0.000961	20.702620
289.079762	-2.987600	3.812000	-11.387000	22.754166	0.000963	20.698002
290.082611	-2.990300	3.810700	-11.394000	22.733793	0.000963	20.721692
291.079066	-2.993400	3.810500	-11.405000	22.716771	0.000965	20.727875
292.080280	-2.998100	3.810600	-11.424000	22.771734	0.000965	20.706592
293.079159	-2.998000	3.810600	-11.424000	22.748639	0.000964	20.702423
294.079376	-3.004100	3.808700	-11.440000	22.776216	0.000965	20.704443
295.080055	-2.998700	3.808500	-11.420000	22.750237	0.000966	20.718724
296.080507	-2.996500	3.810000	-11.415000	22.775447	0.000965	20.692767
297.082779	-3.034600	3.807800	-11.554000	22.761573	0.000966	20.710164
298.084535	-3.007500	3.809500	-11.456000	22.747121	0.000965	20.688099
299.080698	-3.004300	3.809400	-11.444000	22.760079	0.000966	20.705822
300.080269	-3.002300	3.809400	-11.435000	22.770112	0.000969	20.710657
301.084591	-3.002300	3.808500	-11.432000	22.779105	0.000969	20.710657
302.082478	-3.013600	3.807700	-11.474000	22.764136	0.000968	20.711310
303.081599	-2.985100	3.808100	-11.367000	22.794626	0.000971	20.712929
304.084018	-3.004600	3.806500	-11.435000	22.787828	0.000969	20.717973
305.083187	-2.982500	3.808900	-11.359000	22.797349	0.000971	20.709019
306.083896	-2.999800	3.807200	-11.420000	22.814235	0.000972	20.717874
307.086130	-2.991700	3.807300	-11.390000	22.835215	0.000969	20.701431
308.085771	-3.000700	3.806400	-11.421000	22.808279	0.000972	20.719020
309.086383	-2.993700	3.807800	-11.398000	22.813590	0.000973	20.700157
310.086086	-2.988400	3.806300	-11.373000	22.814690	0.000976	20.702207
311.085537	-3.007600	3.805700	-11.445000	22.827592	0.000973	20.710392
312.085149	-2.995000	3.806200	-11.399000	22.806176	0.000973	20.716439
313.091481	-3.007300	3.804900	-11.442000	22.841097	0.000974	20.717757
314.086847	-2.990400	3.805100	-11.377000	22.855198	0.000974	20.696794
315.085978	-3.029400	3.803100	-11.520000	22.829621	0.000975	20.720959
316.092380	-3.008800	3.803900	-11.443000	22.859580	0.000975	20.704030
317.089487	-3.012000	3.803800	-11.456000	22.843869	0.000974	20.729069
318.087059	-3.018600	3.802800	-11.478000	22.856796	0.000975	20.729691
319.094512	-3.004800	3.802400	-11.424000	22.881013	0.000974	20.719339
320.088687	-3.013500	3.803200	-11.460000	22.874861	0.000978	20.731194
321.089427	-3.023300	3.802300	-11.493000	22.875039	0.000977	20.708137
322.090976	-2.992400	3.803600	-11.381000	22.870699	0.000975	20.706161
323.088909	-2.999300	3.803500	-11.407000	22.889237	0.000978	20.728527
324.087841	-3.000400	3.802500	-11.408000	22.892600	0.000981	20.726680
325.089068	-3.009300	3.801700	-11.438000	22.913553	0.000978	20.701677
326.088031	-3.005800	3.800600	-11.422000	22.936743	0.000977	20.710687
327.089472	-2.999100	3.801700	-11.401000	22.906613	0.000979	20.704682
328.092173	-2.998200	3.800900	-11.395000	22.913909	0.000980	20.720053
329.089469	-2.979300	3.801100	-11.323000	22.916177	0.000981	20.721851
330.088689	-2.976400	3.801500	-11.313000	22.911628	0.000981	20.719665
331.091371	-3.002000	3.800700	-11.409000	22.942563	0.000979	20.709405
332.090152	-3.018400	3.799700	-11.467000	22.952053	0.000981	20.707059
333.091423	-2.997500	3.799600	-11.389000	22.933743	0.000981	20.743245
334.092547	-3.020300	3.799100	-11.473000	22.955747	0.000982	20.729727
335.090614	-3.010900	3.799800	-11.439000	22.985739	0.000983	20.720896
336.095948	-3.013300	3.799700	-11.447000	23.005966	0.000983	20.727412
337.092553	-3.004900	3.799300	-11.416000	23.015609	0.000984	20.706252
338.092898	-3.010600	3.799100	-11.436000	23.022283	0.000985	20.731433
339.092640	-3.009600	3.799500	-11.435000	23.013986	0.000985	20.723119
340.093519	-3.023300	3.796700	-11.477000	23.003784	0.000985	20.730441
341.093037	-3.010500	3.798300	-11.434000	22.983902	0.000985	20.743712
342.094146	-3.006800	3.797000	-11.416000	22.962433	0.000984	20.716512
343.093427	-3.016800	3.797500	-11.455000	23.001516	0.000987	20.735282
344.094033	-2.988200	3.798000	-11.347000	22.991504	0.000986	20.733785
345.094833	-2.990400	3.797400	-11.354000	22.995148	0.000986	20.715624
346.093097	-2.982400	3.797500	-11.325000	23.010267	0.000986	20.741680
347.094150	-2.995100	3.796900	-11.371000	23.012234	0.000989	20.731796
348.095302	-3.031000	3.795400	-11.503000	23.021600	0.000988	20.721740
349.095561	-2.989300	3.796500	-11.348000	22.990742	0.000987	20.751040
350.093540	-3.010600	3.796400	-11.427000	22.980453	0.000988	20.727929
351.093868	-3.014700	3.796700	-11.445000	22.987257	0.000990	20.706769
352.094044	-3.016300	3.795900	-11.449000	22.943103	0.000989	20.728439
353.095248	-3.007200	3.794500	-11.410000	22.971916	0.000992	20.711788
354.094577	-3.000000	3.793500	-11.380000	22.989906	0.000991	20.734080
355.103070	-3.014300	3.793200	-11.432000	23.015387	0.000991	20.731635
356.097117	-3.006700	3.794900	-11.408000	23.017452	0.000991	20.725644
357.095973	-3.001400	3.794300	-11.387000	22.999395	0.000993	20.724147
358.096443	-3.000700	3.793800	-11.383000	23.005295	0.000993	20.719627
359.098699	-2.993800	3.793200	-11.354000	23.051647	0.000994	20.746156
360.097231	-3.001100	3.791100	-11.377000	23.048863	0.000993	20.721554
361.097799	-3.007500	3.793300	-11.408000	23.040916	0.000993	20.752000
362.097974	-2.994000	3.792800	-11.355000	23.080420	0.000995	20.726148
363.098413	-2.977200	3.793900	-11.293000	23.098850	0.000993	20.726598
364.099319	-2.991200	3.793200	-11.346000	23.115658	0.000994	20.744389
365.102338	-2.979800	3.791700	-11.298000	23.098224	0.000997	20.735454
366.097803	-3.018400	3.790700	-11.440000	23.081471	0.000994	20.734788
367.098696	-3.018900	3.789500	-11.439000	23.058874	0.000996	20.726370
368.099123	-3.002900	3.791400	-11.384000	23.064804	0.000997	20.764082
369.096384	-2.987100	3.791300	-11.324000	23.058444	0.000995	20.726888
370.099304	-3.028200	3.788900	-11.473000	23.072892	0.000996	20.741365
371.098446	-2.983100	3.791600	-11.309000	23.063280	0.001000	20.751649
372.099244	-3.010200	3.789200	-11.405000	23.094162	0.000996	20.743712
373.098807	-3.009900	3.788100	-11.401000	23.108253	0.000997	20.760203
374.100480	-2.992000	3.789600	-11.337000	23.114165	0.000998	20.727245
375.103209	-2.983700	3.789700	-11.306000	23.103478	0.000997	20.736925
376.103343	-3.011600	3.788700	-11.409000	23.129331	0.001000	20.750030
377.101101	-2.985300	3.790600	-11.315000	23.114312	0.000999	20.743989
378.102458	-2.986900	3.789500	-11.318000	23.113538	0.000999	20.743213
379.104115	-3.001500	3.788600	-11.369000	23.161206	0.001001	20.750676
380.103199	-2.983400	3.787100	-11.296000	23.159860	0.001001	20.764975
381.104803	-3.008000	3.787700	-11.392000	23.169545	0.001000	20.742911
382.107303	-2.996200	3.788800	-11.350000	23.186855	0.001003	20.759310
383.103594	-3.000200	3.786600	-11.360000	23.182917	0.001000	20.752992
384.105801	-3.019800	3.786000	-11.431000	23.211355	0.001001	20.751145
385.107807	-3.003900	3.788000	-11.378000	23.214673	0.001002	20.747831
386.107180	-3.029700	3.784800	-11.465000	23.217555	0.001002	20.745504
387.111300	-3.006800	3.785400	-11.380000	23.228683	0.001005	20.755234
388.109105	-3.007000	3.786100	-11.384000	23.223657	0.001005	20.736919
389.108798	-2.992300	3.785800	-11.328000	23.246890	0.001003	20.743133
390.109435	-2.993800	3.785500	-11.332000	23.242588	0.001003	20.745935
391.112010	-2.997400	3.785500	-11.344000	23.253286	0.001002	20.747647
392.107765	-3.022700	3.784100	-11.437000	23.266085	0.001004	20.749094
393.108041	-3.002700	3.785200	-11.364000	23.240487	0.001005	20.764692
394.110085	-2.996600	3.784000	-11.338000	23.267099	0.001005	20.757697
395.111088	-2.979900	3.783500	-11.272000	23.267130	0.001006	20.766263
396.109744	-2.996500	3.784300	-11.338000	23.279997	0.001005	20.753079
397.119143	-2.993800	3.783600	-11.325000	23.289785	0.001006	20.759095
398.114361	-2.982800	3.783300	-11.283000	23.309625	0.001005	20.776134
399.112314	-3.003400	3.782700	-11.360000	23.307935	0.001007	20.759742
400.115330	-2.998900	3.781000	-11.338000	23.332389	0.001005	20.759120
401.113461	-3.012000	3.781900	-11.390000	23.325667	0.001008	20.756176
402.113997	-3.012900	3.781600	-11.392000	23.324690	0.001007	20.760413
403.117423	-2.985000	3.781300	-11.285000	23.307781	0.001008	20.774287
404.113370	-3.004700	3.781200	-11.360000	23.329943	0.001008	20.784170
405.113372	-2.997800	3.781900	-11.336000	23.331037	0.001008	20.793801
406.116974	-3.001500	3.780700	-11.347000	23.348615	0.001010	20.791504
407.114488	-3.010700	3.780400	-11.380000	23.365775	0.001008	20.775038
408.113020	-2.998100	3.780300	-11.333000	23.380189	0.001006	20.779527
409.116366	-2.993000	3.779100	-11.310000	23.413451	0.001009	20.772563
410.115841	-2.982200	3.780300	-11.272000	23.381952	0.001010	20.754267
411.115370	-3.015700	3.778500	-11.393000	23.384815	0.001011	20.782268
412.117511	-3.003100	3.777400	-11.342000	23.407117	0.001009	20.785181
413.114610	-3.021300	3.776300	-11.408000	23.418397	0.001010	20.768985
414.115278	-3.004900	3.779100	-11.355000	23.423681	0.001010	20.764798
415.117342	-3.004200	3.777400	-11.347000	23.429996	0.001012	20.777766
416.116714	-3.004700	3.778000	-11.350000	23.437971	0.001012	20.776750
417.120863	-3.000900	3.776600	-11.332000	23.424829	0.001011	20.789183
418.118336	-2.994000	3.777600	-11.310000	23.404734	0.001012	20.749599
419.121812	-2.990000	3.778000	-11.294000	23.401815	0.001012	20.761374
420.117853	-3.024000	3.775800	-11.417000	23.405846	0.001011	20.774897
421.120295	-3.000200	3.775600	-11.326000	23.414269	0.001013	20.771959
422.119019	-3.025000	3.775900	-11.421000	23.437344	0.001014	20.786554
423.117773	-3.022100	3.775100	-11.408000	23.448709	0.001014	20.780402
424.120427	-3.014700	3.774600	-11.379000	23.446258	0.001010	20.781264
425.118240	-3.006800	3.774500	-11.348000	23.407173	0.001012	20.800883
426.118026	-3.009700	3.773600	-11.356000	23.427594	0.001012	20.785790
427.119536	-3.007500	3.773800	-11.348000	23.409962	0.001014	20.770962
428.118883	-2.996200	3.774200	-11.308000	23.422532	0.001015	20.781664
429.118202	-3.022500	3.772500	-11.401000	23.432171	0.001013	20.778998
430.120318	-3.003300	3.773300	-11.331000	23.467533	0.001015	20.780777
431.120259	-2.997600	3.772800	-11.308000	23.453907	0.001013	20.773757
432.122167	-3.009000	3.771500	-11.347000	23.426795	0.001015	20.795895
433.121645	-2.999800	3.773700	-11.319000	23.446885	0.001015	20.783315
434.121762	-3.004600	3.771300	-11.330000	23.445115	0.001016	20.795292
435.121795	-3.001600	3.772000	-11.321000	23.463761	0.001016	20.775574
436.123790	-2.986800	3.772600	-11.266000	23.471133	0.001015	20.787705
437.122272	-3.002800	3.772200	-11.325000	23.496105	0.001016	20.796141
438.121858	-3.000200	3.770800	-11.312000	23.508035	0.001015	20.794824
439.121623	-2.991400	3.771700	-11.282000	23.514657	0.001017	20.771116
440.121664	-3.003800	3.769500	-11.322000	23.529217	0.001017	20.798038
441.124335	-2.994400	3.771500	-11.293000	23.526379	0.001016	20.785710
442.123490	-3.010200	3.768800	-11.342000	23.546423	0.001017	20.799639
443.122663	-2.991500	3.769200	-11.275000	23.555263	0.001018	20.780525
444.125481	-2.995400	3.769500	-11.290000	23.584908	0.001016	20.792225
445.124875	-2.989400	3.771000	-11.270000	23.564225	0.001016	20.810846
446.123150	-2.983300	3.769500	-11.243000	23.594718	0.001018	20.800162
447.121518	-3.009000	3.768800	-11.339000	23.573261	0.001018	20.802361
448.123542	-3.001300	3.767900	-11.307000	23.599601	0.001019	20.817860
449.123161	-3.000000	3.767400	-11.302000	23.590190	0.001018	20.797995
450.124274	-2.993500	3.768500	-11.281000	23.585485	0.001019	20.813192
451.125077	-2.997700	3.766300	-11.289000	23.570951	0.001019	20.803838
452.123610	-3.039100	3.765200	-11.442000	23.568359	0.001020	20.815938
453.122809	-3.008700	3.766100	-11.330000	23.559132	0.001018	20.817595
454.125062	-3.002500	3.766700	-11.308000	23.580540	0.001021	20.805864
455.124189	-3.000100	3.767300	-11.301000	23.576136	0.001021	20.788173
456.123815	-3.002600	3.766400	-11.307000	23.610836	0.001022	20.812053
457.126953	-3.002000	3.766800	-11.306000	23.609023	0.001021	20.842478
458.124431	-3.007000	3.765500	-11.322000	23.590006	0.001022	20.808241
459.123552	-3.002600	3.765500	-11.305000	23.617217	0.001019	20.817976
460.124299	-3.008300	3.765700	-11.328000	23.621947	0.001020	20.817976
461.123232	-3.000800	3.764900	-11.296000	23.630639	0.001021	20.792077
462.123011	-2.993100	3.765400	-11.269000	23.656529	0.001018	20.808075
463.126853	-3.004900	3.763800	-11.310000	23.660638	0.001021	20.813142
464.123778	-3.024200	3.762300	-11.377000	23.652026	0.001020	20.806406
465.124615	-2.995600	3.764200	-11.275000	23.636498	0.001021	20.822132
466.123457	-3.013500	3.762000	-11.335000	23.652205	0.001021	20.810852
467.123681	-3.004500	3.763100	-11.305000	23.649569	0.001020	20.823857
468.130692	-2.984600	3.763500	-11.232000	23.691760	0.001021	20.839128
469.128686	-2.996000	3.762000	-11.270000	23.701471	0.001023	20.825630
470.125794	-2.993000	3.762200	-11.259000	23.695777	0.001020	20.800007
471.125987	-2.994700	3.762900	-11.267000	23.709836	0.001022	20.816473
472.128776	-2.996400	3.761000	-11.268000	23.701158	0.001024	20.834798
473.126349	-2.993000	3.761700	-11.258000	23.715499	0.001024	20.814564
474.128324	-2.996100	3.760700	-11.266000	23.720155	0.001024	20.807378
475.129870	-2.998600	3.760900	-11.276000	23.719657	0.001024	20.824897
476.127768	-3.010200	3.760100	-11.318000	23.720136	0.001023	20.828222
477.127565	-2.987700	3.758900	-11.228000	23.727328	0.001026	20.837329
478.132873	-2.991400	3.760400	-11.248000	23.719289	0.001022	20.819312
479.128342	-3.010500	3.757400	-11.311000	23.721236	0.001023	20.816996
480.128828	-2.991700	3.759800	-11.247000	23.703289	0.001023	20.815124
481.133035	-2.992000	3.758700	-11.245000	23.685194	0.001023	20.824484
482.128460	-3.009400	3.758600	-11.310000	23.705653	0.001024	20.832193
483.129848	-3.005500	3.758300	-11.294000	23.698891	0.001025	20.833948
484.137195	-3.007700	3.756200	-11.296000	23.707926	0.001024	20.814558
485.129200	-2.987800	3.757600	-11.226000	23.730829	0.001025	20.838468
486.129967	-3.004500	3.756000	-11.284000	23.729404	0.001024	20.818548
487.132522	-2.982100	3.757300	-11.202000	23.730301	0.001025	20.834620
488.131104	-2.996300	3.756600	-11.254000	23.706089	0.001025	20.848277
489.132978	-3.005900	3.755400	-11.287000	23.730927	0.001025	20.840463
490.133131	-2.987300	3.755100	-11.217000	23.745146	0.001026	20.833382
491.130775	-2.996800	3.754100	-11.250000	23.744851	0.001027	20.848733
492.131529	-2.997300	3.755300	-11.255000	23.778452	0.001026	20.828843
493.132398	-2.984600	3.754100	-11.203000	23.788905	0.001026	20.841694
494.131633	-2.993300	3.753600	-11.235000	23.796478	0.001026	20.837907
495.131484	-2.981900	3.753800	-11.192000	23.786768	0.001026	20.839552
496.135520	-2.990800	3.753200	-11.223000	23.767858	0.001025	20.841454
497.132253	-3.001500	3.752300	-11.262000	23.766089	0.001025	20.833991
498.131619	-2.964800	3.754500	-11.130000	23.753646	0.001027	20.841904
499.133023	-2.983200	3.753200	-11.195000	23.770621	0.001026	20.852759
500.130470	-3.006900	3.752500	-11.282000	23.755488	0.001026	20.840432
501.130873	-2.996400	3.752100	-11.242000	23.780780	0.001026	20.852513
502.133625	-3.024000	3.751400	-11.343000	23.789937	0.001027	20.839884
503.131174	-3.011300	3.750400	-11.292000	23.756815	0.001024	20.851719
504.132629	-2.995000	3.751900	-11.235000	23.756041	0.001028	20.845253
505.133351	-3.000700	3.750400	-11.253000	23.736080	0.001028	20.851318
506.135710	-2.990800	3.750000	-11.215000	23.769104	0.001027	20.842230
507.132963	-2.990700	3.750700	-11.216000	23.775031	0.001029	20.855758
508.134830	-2.987100	3.750500	-11.202000	23.794789	0.001028	20.853283
509.133402	-2.986000	3.749800	-11.196000	23.779514	0.001026	20.863098
510.133183	-2.995000	3.750400	-11.231000	23.808632	0.001027	20.858153
511.134551	-2.989900	3.749600	-11.210000	23.829734	0.001027	20.855604
512.136602	-2.996900	3.748100	-11.232000	23.858456	0.001029	20.854059
513.138446	-2.975400	3.749500	-11.156000	23.859027	0.001027	20.870277
514.136007	-2.992500	3.748600	-11.216000	23.876026	0.001026	20.858400
515.134005	-2.996400	3.747200	-11.227000	23.873779	0.001028	20.854724
516.134234	-2.985300	3.748100	-11.187000	23.872735	0.001028	20.866953
517.140174	-2.991900	3.746900	-11.209000	23.869725	0.001029	20.858720
518.134778	-2.985400	3.747400	-11.186000	23.846579	0.001028	20.858745
519.136300	-2.993800	3.745900	-11.214000	23.843619	0.001027	20.852932
520.141179	-2.984700	3.746000	-11.180000	23.861453	0.001028	20.855641
521.143067	-2.993100	3.746800	-11.213000	23.851977	0.001029	20.857993
522.137291	-2.992600	3.746500	-11.211000	23.827928	0.001030	20.839570
523.138485	-2.980300	3.745600	-11.161000	23.830722	0.001028	20.843320
524.138182	-3.007800	3.745500	-11.264000	23.830446	0.001029	20.831664
525.137988	-2.982800	3.746000	-11.173000	23.843312	0.001027	20.830340
526.141933	-2.989200	3.745900	-11.195000	23.847617	0.001027	20.852673
527.138318	-2.999000	3.744400	-11.228000	23.874153	0.001028	20.826651
528.138134	-2.994400	3.743900	-11.210000	23.898840	0.001029	20.867525
529.139915	-2.990200	3.744700	-11.197000	23.915513	0.001028	20.824502
530.140147	-3.011900	3.743300	-11.273000	23.939554	0.001026	20.843868
531.140037	-2.983400	3.742800	-11.165000	23.944675	0.001029	20.811546
532.143521	-2.999500	3.741900	-11.222000	23.967224	0.001027	20.820882
533.141625	-2.997000	3.742800	-11.216000	23.962422	0.001028	20.829816
534.143833	-3.000900	3.741200	-11.226000	23.973899	0.001028	20.837532
535.145063	-3.007800	3.740100	-11.249000	23.987181	0.001028	20.814816
536.143331	-2.994900	3.741600	-11.204000	23.998559	0.001028	20.845666
537.142375	-2.988600	3.740000	-11.176000	23.985793	0.001027	20.841399
538.144589	-3.028700	3.740200	-11.326000	23.974623	0.001028	20.843948
539.142508	-2.993100	3.740300	-11.194000	23.988900	0.001027	20.819859
540.143993	-3.021300	3.740500	-11.300000	23.962305	0.001026	20.822587
541.144130	-3.018000	3.739900	-11.286000	23.922538	0.001028	20.829650
542.144346	-2.996400	3.739500	-11.204000	23.955679	0.001027	20.817840
543.144065	-3.015400	3.738800	-11.272000	23.944909	0.001028	20.834065
544.148479	-2.995900	3.740500	-11.205000	23.971338	0.001027	20.817421
545.143892	-3.001900	3.738100	-11.220000	23.976140	0.001027	20.828400
546.144406	-2.999900	3.739000	-11.215000	23.984577	0.001029	20.833542
547.148026	-3.004400	3.737100	-11.227000	23.982514	0.001027	20.829102
548.148213	-2.978200	3.738500	-11.133000	24.009710	0.001028	20.826978
549.148404	-3.020900	3.736300	-11.286000	24.007174	0.001028	20.839133
550.146310	-2.997100	3.737100	-11.199000	23.995531	0.001028	20.807070
551.147363	-2.983200	3.738000	-11.151000	23.968157	0.001029	20.813757
552.147276	-3.002200	3.736400	-11.217000	23.936920	0.001027	20.814200
553.149786	-2.984600	3.737500	-11.153000	23.940063	0.001026	20.833474
554.148823	-2.995100	3.736100	-11.189000	23.936379	0.001030	20.829779
555.149354	-3.015100	3.735000	-11.261000	23.921647	0.001026	20.802679
556.155549	-3.002700	3.736400	-11.219000	23.924883	0.001026	20.807821
557.151505	-3.016700	3.735100	-11.266000	23.921451	0.001029	20.821922
558.151082	-2.981600	3.735500	-11.137000	23.899749	0.001030	20.815807
559.150706	-3.008000	3.734800	-11.234000	23.911490	0.001027	20.811460
560.150619	-3.006300	3.733700	-11.223000	23.926351	0.001028	20.804551
561.151420	-2.995300	3.733700	-11.182000	23.930680	0.001029	20.794668
562.156768	-2.984700	3.734300	-11.145000	23.948249	0.001027	20.827458
563.153220	-3.004500	3.732900	-11.214000	23.968010	0.001028	20.808868
564.152995	-2.988100	3.732700	-11.153000	23.987045	0.001026	20.820370
565.156122	-3.012100	3.733400	-11.244000	23.954568	0.001026	20.814354
566.155063	-2.990300	3.733500	-11.164000	23.975796	0.001027	20.813831
567.154934	-3.019200	3.730700	-11.263000	23.980021	0.001026	20.801472
568.162072	-2.985100	3.732200	-11.140000	23.994727	0.001027	20.801521
569.156652	-2.988300	3.731900	-11.151000	23.987138	0.001027	20.796755
570.152770	-3.000000	3.730100	-11.189000	24.003336	0.001027	20.804939
571.156718	-2.997200	3.730400	-11.180000	23.987837	0.001027	20.808363
572.153845	-2.980800	3.731500	-11.121000	24.029770	0.001029	20.809163
573.154999	-3.003900	3.730200	-11.205000	24.029469	0.001028	20.803172
574.159836	-2.992400	3.730500	-11.162000	24.022795	0.001027	20.796004
575.152853	-2.993100	3.729700	-11.162000	24.006646	0.001027	20.798775
576.153308	-3.026800	3.730100	-11.290000	24.002366	0.001027	20.799699
577.158606	-3.003100	3.730100	-11.201000	24.020504	0.001027	20.797975
578.154700	-3.002100	3.729200	-11.194000	24.003606	0.001028	20.809003
579.155807	-2.985900	3.729300	-11.134000	24.038735	0.001026	20.814835
580.159795	-2.992200	3.728800	-11.156000	24.036076	0.001028	20.796521
581.158742	-2.992200	3.729600	-11.158000	24.061957	0.001027	20.803511
582.155321	-2.983500	3.728800	-11.124000	24.091189	0.001026	20.819077
583.159993	-2.995700	3.726400	-11.162000	24.074243	0.001026	20.801134
584.158059	-3.030400	3.726100	-11.291000	24.064689	0.001028	20.796768
585.159563	-3.006600	3.726400	-11.203000	24.080168	0.001025	20.800912
586.159063	-2.995700	3.725700	-11.160000	24.066851	0.001023	20.805574
587.159557	-3.000800	3.726600	-11.181000	24.044801	0.001026	20.796263
588.160987	-2.997500	3.724800	-11.163000	24.035321	0.001027	20.815204
589.161969	-2.984600	3.725600	-11.119000	24.010238	0.001026	20.800955
590.159758	-2.984600	3.725700	-11.119000	24.032533	0.001025	20.782063
591.160563	-2.980200	3.725400	-11.101000	24.036089	0.001026	20.793689
592.160158	-2.991500	3.725100	-11.142000	24.067170	0.001025	20.796885
593.161189	-2.991100	3.724300	-11.139000	24.075858	0.001026	20.775726
594.160722	-3.009200	3.723600	-11.204000	24.112089	0.001026	20.797365
595.165216	-3.022100	3.724400	-11.254000	24.099797	0.001027	20.795469
596.162955	-2.994200	3.722700	-11.146000	24.080015	0.001025	20.801706
597.161808	-2.988200	3.724200	-11.127000	24.114029	0.001025	20.793147
598.165954	-2.997400	3.721700	-11.155000	24.093357	0.001025	20.783793
599.164553	-3.007300	3.722700	-11.195000	24.086566	0.001025	20.787888
600.166125	-3.011600	3.722300	-11.209000	24.083803	0.001026	20.794600
601.165722	-3.000700	3.721400	-11.165000	24.113814	0.001026	20.787241
602.164650	-3.009900	3.720900	-11.198000	24.112863	0.001025	20.795770
603.164742	-2.999800	3.720300	-11.160000	24.148743	0.001028	20.807101
604.166376	-2.995300	3.719700	-11.140000	24.118886	0.001026	20.793276
605.166921	-3.015400	3.720700	-11.219000	24.106870	0.001025	20.794502
606.166281	-3.006800	3.720500	-11.186000	24.128888	0.001026	20.797143
607.166435	-3.003700	3.718800	-11.169000	24.146385	0.001026	20.782925
608.165683	-2.995600	3.719700	-11.142000	24.137004	0.001026	20.784895
609.171736	-2.975800	3.719900	-11.068000	24.154342	0.001026	20.790906
610.167258	-2.988000	3.719200	-11.111000	24.167333	0.001022	20.796349
611.166799	-2.997900	3.718800	-11.146000	24.179747	0.001025	20.770393
612.166941	-2.996100	3.718000	-11.138000	24.192505	0.001026	20.798837
613.166666	-3.017700	3.717300	-11.215000	24.205889	0.001025	20.782863
614.168645	-3.003600	3.717400	-11.164000	24.210094	0.001026	20.788030
615.169599	-2.994600	3.717600	-11.132000	24.208406	0.001025	20.785388
616.171433	-2.981700	3.718000	-11.085000	24.177795	0.001024	20.783609
617.167978	-2.983900	3.719000	-11.096000	24.157068	0.001025	20.776570
618.169354	-2.976600	3.717800	-11.065000	24.155926	0.001022	20.794865
619.172698	-2.994900	3.716800	-11.130000	24.146441	0.001025	20.786300
620.168958	-3.011400	3.716400	-11.190000	24.157916	0.001024	20.797334
621.175718	-2.985600	3.715600	-11.093000	24.171005	0.001024	20.782488
622.171778	-2.993000	3.715800	-11.120000	24.171275	0.001022	20.792242
623.169807	-2.991400	3.715300	-11.113000	24.231213	0.001025	20.780289
624.169882	-2.990500	3.715100	-11.108000	24.204968	0.001023	20.794268
625.187183	-3.010200	3.715200	-11.182000	24.185979	0.001024	20.774747
626.172394	-3.000200	3.715200	-11.145000	24.190559	0.001024	20.784557
627.172199	-2.999100	3.714900	-11.140000	24.195084	0.001023	20.782931
628.173166	-3.000700	3.713800	-11.143000	24.183198	0.001022	20.782863
629.176231	-2.997300	3.713600	-11.128000	24.197822	0.001023	20.806066
630.173764	-2.997200	3.714200	-11.131000	24.183045	0.001021	20.780339
631.177719	-2.991500	3.713500	-11.107000	24.192499	0.001022	20.786977
632.180900	-3.014300	3.712300	-11.189000	24.213023	0.001021	20.795235
633.178792	-3.005200	3.712500	-11.156000	24.218474	0.001021	20.751864
634.178851	-3.003900	3.712900	-11.152000	24.216854	0.001021	20.771102
635.175612	-3.007100	3.712500	-11.163000	24.231041	0.001021	20.768263
636.177260	-2.999200	3.712400	-11.133000	24.246039	0.001020	20.778565
637.185173	-3.001700	3.711500	-11.140000	24.238924	0.001020	20.758626
638.178898	-2.993800	3.711000	-11.108000	24.255315	0.001020	20.786922
639.174543	-3.013600	3.709000	-11.176000	24.227628	0.001021	20.770055
640.179707	-2.997400	3.710300	-11.119000	24.223097	0.001021	20.754130
641.178199	-3.010900	3.709400	-11.168000	24.213968	0.001020	20.790019
642.176779	-2.996900	3.710900	-11.120000	24.238899	0.001020	20.773300
643.182770	-3.015000	3.708900	-11.182000	24.228002	0.001021	20.769956
644.179373	-3.011400	3.707900	-11.165000	24.260920	0.001018	20.799182
645.178433	-3.011500	3.707800	-11.164000	24.250048	0.001021	20.771206
646.180739	-3.024400	3.707300	-11.211000	24.233552	0.001018	20.777420
647.177408	-3.006100	3.709400	-11.148000	24.246162	0.001018	20.763989
648.178872	-3.004800	3.708100	-11.140000	24.223748	0.001020	20.772801
649.178055	-3.013300	3.706400	-11.168000	24.236063	0.001019	20.784680
650.178414	-3.010900	3.706700	-11.159000	24.272614	0.001018	20.766816
651.177224	-2.996800	3.706500	-11.106000	24.290128	0.001018	20.775375
652.182438	-3.001100	3.707100	-11.125000	24.317120	0.001019	20.762622
653.182122	-3.000300	3.707100	-11.121000	24.305899	0.001021	20.774600
654.181406	-2.994500	3.706100	-11.096000	24.299533	0.001019	20.770584
655.183999	-2.994800	3.705500	-11.096000	24.310030	0.001017	20.767838
656.182497	-2.990200	3.704700	-11.077000	24.291645	0.001019	20.764094
657.182257	-3.010800	3.705300	-11.155000	24.282314	0.001018	20.763269
658.187252	-3.008800	3.705300	-11.148000	24.306028	0.001018	20.768565
659.184358	-3.002900	3.705100	-11.125000	24.293603	0.001018	20.776964
660.182034	-3.008800	3.704000	-11.144000	24.233877	0.001018	20.751667
661.187406	-3.016500	3.703400	-11.170000	24.249151	0.001018	20.774101
662.186998	-3.000300	3.704400	-11.112000	24.243976	0.001016	20.765590
663.182960	-3.023700	3.702300	-11.194000	24.270503	0.001016	20.763275
664.185062	-2.983000	3.704700	-11.050000	24.272964	0.001016	20.757683
665.184731	-3.018200	3.703000	-11.173000	24.287820	0.001015	20.755990
666.182599	-2.990600	3.702600	-11.071000	24.304333	0.001016	20.754063
667.187730	-3.003400	3.703500	-11.123000	24.323320	0.001017	20.753194
668.185325	-2.998900	3.703400	-11.105000	24.330312	0.001016	20.748828
669.184871	-2.968000	3.702100	-10.987000	24.338851	0.001017	20.754549
670.192749	-3.002200	3.701700	-11.113000	24.329471	0.001015	20.752726
671.190022	-3.001400	3.702500	-11.111000	24.334517	0.001017	20.763952
672.186351	-2.981400	3.701700	-11.035000	24.369672	0.001016	20.763657
673.190769	-3.009500	3.699900	-11.134000	24.355400	0.001013	20.753607
674.186896	-3.004400	3.702000	-11.122000	24.350372	0.001015	20.748089
675.185035	-3.005000	3.699800	-11.117000	24.344774	0.001014	20.773294
676.189284	-2.979900	3.701100	-11.027000	24.325198	0.001016	20.755078
677.185990	-2.985400	3.699700	-11.043000	24.341379	0.001015	20.748076
678.185885	-2.993700	3.699200	-11.074000	24.339458	0.001013	20.763219
679.190665	-3.023400	3.698500	-11.181000	24.387098	0.001014	20.747947
680.189483	-3.001400	3.698600	-11.100000	24.386312	0.001014	20.722502
681.187638	-3.003900	3.697400	-11.105000	24.362729	0.001014	20.734879
682.192012	-2.977100	3.698100	-11.009000	24.382635	0.001014	20.746789
683.192194	-3.001400	3.698400	-11.100000	24.379572	0.001014	20.740397
684.187049	-3.000800	3.698700	-11.097000	24.384501	0.001011	20.754826
685.191051	-3.003100	3.696800	-11.101000	24.395648	0.001013	20.766008
686.191170	-2.990100	3.696500	-11.051000	24.410447	0.001014	20.749560
687.188463	-2.970900	3.695700	-10.977000	24.424111	0.001014	20.740982
688.187930	-2.987000	3.696400	-11.039000	24.402143	0.001011	20.735538
689.188435	-2.995300	3.696200	-11.070000	24.436350	0.001009	20.746623
690.188998	-3.008700	3.694700	-11.115000	24.437970	0.001011	20.744929
691.187583	-2.973100	3.695600	-10.986000	24.462546	0.001010	20.738765
692.189115	-3.001900	3.694600	-11.089000	24.447275	0.001011	20.721547
693.187862	-3.000100	3.694900	-11.085000	24.461847	0.001011	20.735692
694.189400	-2.994200	3.696400	-11.068000	24.459557	0.001011	20.742405
695.188316	-2.973300	3.694600	-10.984000	24.466204	0.001010	20.741013
696.188639	-3.000900	3.693400	-11.082000	24.454088	0.001011	20.717950
697.189999	-3.011100	3.693300	-11.120000	24.425314	0.001009	20.741241
698.189965	-2.978000	3.694200	-10.999000	24.452701	0.001009	20.721300
699.190604	-2.990400	3.693600	-11.044000	24.454819	0.001012	20.719157
700.189198	-2.997500	3.693400	-11.070000	24.439646	0.001008	20.733333
701.189391	-2.993200	3.693300	-11.054000	24.412387	0.001009	20.723055
702.188372	-3.004000	3.691700	-11.089000	24.426467	0.001007	20.729595
703.191456	-2.968300	3.693400	-10.962000	24.420446	0.001009	20.711225
704.191479	-2.983900	3.692200	-11.016000	24.408090	0.001009	20.730125
705.190602	-2.991000	3.691100	-11.039000	24.392370	0.001008	20.725260
706.190845	-3.003200	3.691800	-11.086000	24.416027	0.001007	20.735242
707.190910	-2.995800	3.690500	-11.055000	24.414713	0.001008	20.727760
708.189890	-3.018100	3.690500	-11.137000	24.388571	0.001007	20.717180
709.196990	-2.995100	3.689900	-11.051000	24.427750	0.001009	20.713338
710.192103	-2.985400	3.689000	-11.011000	24.444224	0.001006	20.728918
711.191083	-2.998200	3.690600	-11.064000	24.421140	0.001006	20.713344
712.190638	-2.993400	3.688200	-11.039000	24.418212	0.001008	20.722261
713.191413	-2.982400	3.690200	-11.004000	24.421919	0.001007	20.708435
714.192203	-2.995300	3.689000	-11.048000	24.426670	0.001006	20.712254
715.194107	-2.970400	3.689800	-10.958000	24.423417	0.001006	20.714680
716.194611	-3.002100	3.688600	-11.071000	24.442021	0.001006	20.709162
717.196486	-3.004100	3.688600	-11.080000	24.426074	0.001005	20.725882
718.196175	-3.010500	3.686400	-11.097000	24.432593	0.001007	20.740483
719.195907	-2.978700	3.688200	-10.985000	24.426670	0.001007	20.726005
720.200108	-3.003800	3.687500	-11.075000	24.400055	0.001005	20.709261
721.201224	-2.992500	3.687200	-11.034000	24.402216	0.001006	20.711903
722.197260	-2.997300	3.686200	-11.048000	24.420826	0.001003	20.704494
723.197639	-3.021400	3.685200	-11.133000	24.427320	0.001004	20.725709
724.197622	-2.987700	3.685700	-11.010000	24.451099	0.001004	20.714003
725.197817	-3.003700	3.686700	-11.072000	24.473809	0.001005	20.704069
726.197582	-3.019300	3.684600	-11.123000	24.479333	0.001004	20.697283
727.198371	-3.001900	3.684300	-11.058000	24.470151	0.001005	20.707512
728.199580	-2.995600	3.684000	-11.034000	24.438940	0.001004	20.729306
729.202795	-3.013800	3.683400	-11.099000	24.424485	0.001004	20.712432
730.199650	-3.012100	3.684500	-11.096000	24.429782	0.001003	20.738137
731.198032	-3.016500	3.684200	-11.112000	24.403192	0.001002	20.701501
732.200801	-3.008400	3.684300	-11.082000	24.366209	0.001002	20.702333
733.200049	-3.000100	3.684600	-11.054000	24.372771	0.001001	20.691845
734.201140	-3.014400	3.683400	-11.101000	24.401553	0.001002	20.686579
735.202749	-3.018100	3.681400	-11.110000	24.407746	0.001000	20.702751
736.200366	-3.016300	3.682300	-11.105000	24.412657	0.001003	20.704359
737.201434	-3.008900	3.681200	-11.076000	24.414449	0.001000	20.717063
738.201487	-2.981500	3.682800	-10.979000	24.439971	0.001001	20.691931
739.203439	-2.977000	3.682500	-10.961000	24.424227	0.001002	20.698422
740.201241	-2.990600	3.682400	-11.012000	24.398312	0.001000	20.716521
741.202868	-3.010800	3.680200	-11.079000	24.409704	0.001000	20.707087
742.203295	-2.991000	3.681300	-11.010000	24.437423	0.000999	20.702653
743.203496	-2.987100	3.680400	-10.992000	24.457967	0.001001	20.720894
744.203966	-2.993300	3.679900	-11.014000	24.492019	0.000999	20.717125
745.207193	-2.994400	3.680100	-11.019000	24.511524	0.000998	20.705873
746.204037	-2.989500	3.679600	-11.000000	24.508566	0.000998	20.710492
747.205298	-3.005500	3.679100	-11.057000	24.467677	0.000999	20.705504
748.205537	-2.988700	3.679000	-10.994000	24.439701	0.000999	20.700195
749.206998	-3.004800	3.678100	-11.051000	24.427811	0.000998	20.690638
750.204382	-2.999200	3.678600	-11.032000	24.445526	0.000998	20.679485
751.204234	-2.994900	3.677900	-11.014000	24.480051	0.000996	20.692313
752.205968	-2.985500	3.680300	-10.986000	24.485661	0.000997	20.684190
753.206211	-2.991100	3.677500	-10.999000	24.543310	0.000997	20.707893
754.204776	-2.993500	3.677400	-11.006000	24.528261	0.000997	20.687103
755.202919	-3.003100	3.677600	-11.043000	24.504540	0.000997	20.687485
756.205920	-2.984800	3.676900	-10.973000	24.495990	0.000994	20.711625
757.204138	-3.023600	3.674600	-11.110000	24.512488	0.000995	20.695460
758.204070	-3.022000	3.676000	-11.107000	24.489705	0.000995	20.684929
759.205268	-2.996500	3.676100	-11.014000	24.491154	0.000995	20.708195
760.204695	-2.999600	3.676500	-11.028000	24.509057	0.000994	20.696759
761.206847	-2.980600	3.676400	-10.956000	24.523167	0.000996	20.700011
762.206096	-2.983600	3.676600	-10.969000	24.511107	0.000994	20.663251
763.213198	-3.002200	3.676100	-11.036000	24.516656	0.000995	20.703909
764.208035	-2.987000	3.675400	-10.978000	24.481714	0.000994	20.709156
765.206637	-2.981600	3.674100	-10.954000	24.519872	0.000995	20.699075
766.207119	-3.004600	3.673600	-11.036000	24.518681	0.000992	20.699777
767.208317	-3.007000	3.673700	-11.046000	24.562189	0.000991	20.694592
768.207624	-2.998100	3.672500	-11.008000	24.583080	0.000992	20.688526
769.208743	-2.999900	3.673400	-11.019000	24.590573	0.000993	20.679448
770.207416	-2.990900	3.674300	-10.989000	24.612906	0.000991	20.691900
771.209952	-3.001500	3.673500	-11.025000	24.640491	0.000992	20.692079
772.207751	-2.985200	3.672400	-10.960000	24.633109	0.000992	20.681351
773.207913	-3.001800	3.671200	-11.019000	24.649598	0.000991	20.690312
774.209590	-2.987600	3.672600	-10.972000	24.644155	0.000991	20.677262
775.207355	-3.016300	3.671400	-11.071000	24.650427	0.000990	20.686875
776.209394	-3.010600	3.671200	-11.051000	24.636969	0.000990	20.691864
777.207612	-3.001600	3.671100	-11.019000	24.627291	0.000991	20.689739
778.208986	-2.997400	3.670100	-11.000000	24.605683	0.000990	20.709310
779.214258	-3.051000	3.669900	-11.196000	24.556267	0.000990	20.674897
780.210862	-3.020400	3.670300	-11.085000	24.521167	0.000989	20.679510
781.209867	-3.013000	3.670300	-11.058000	24.519725	0.000988	20.697505
782.211178	-3.001500	3.670800	-11.016000	24.514753	0.000989	20.686352
783.207812	-3.010000	3.670300	-11.046000	24.500054	0.000989	20.690570
784.209889	-3.003400	3.669000	-11.019000	24.504479	0.000989	20.691691
785.210258	-2.985000	3.670700	-10.955000	24.512139	0.000988	20.698428
786.211019	-2.999700	3.668800	-11.004000	24.538757	0.000987	20.664440
787.209479	-3.001800	3.668300	-11.010000	24.564724	0.000991	20.702826
788.208386	-3.004200	3.667600	-11.016000	24.581865	0.000988	20.692523
789.208662	-3.016100	3.667700	-11.062000	24.576587	0.000988	20.704772
790.210857	-3.018700	3.666400	-11.065000	24.583902	0.000988	20.698835
791.210063	-2.993700	3.668600	-10.982000	24.612875	0.000988	20.689499
792.211069	-3.005300	3.666700	-11.019000	24.597453	0.000987	20.702000
793.208283	-2.995200	3.667200	-10.983000	24.611163	0.000986	20.678297
794.211237	-3.000200	3.667000	-11.001000	24.586615	0.000987	20.692547
795.208340	-3.013400	3.665200	-11.044000	24.591071	0.000988	20.689431
796.208753	-3.010800	3.665900	-11.037000	24.606788	0.000985	20.692400
797.208740	-3.027500	3.664900	-11.094000	24.638000	0.000985	20.703331
798.209757	-3.021700	3.664100	-11.071000	24.634870	0.000984	20.712519
799.208622	-3.018200	3.663800	-11.057000	24.616042	0.000984	20.689831
800.209199	-3.009800	3.664500	-11.027000	24.592310	0.000984	20.711540
801.209506	-3.000900	3.664800	-10.996000	24.621197	0.000985	20.715869
802.211523	-2.999900	3.663900	-10.990000	24.624033	0.000981	20.675562
803.210660	-2.998900	3.663600	-10.985000	24.642676	0.000984	20.698065
804.211807	-3.000400	3.663600	-10.991000	24.665990	0.000983	20.710554
805.211236	-2.983200	3.664400	-10.929000	24.707221	0.000982	20.727274
806.210997	-2.993200	3.662900	-10.962000	24.711529	0.000982	20.686549
807.210054	-3.008800	3.661500	-11.016000	24.689524	0.000982	20.711885
808.210706	-3.023300	3.660500	-11.066000	24.709492	0.000982	20.682134
809.211434	-2.993000	3.662300	-10.961000	24.722004	0.000981	20.711762
810.210280	-3.000400	3.661200	-10.985000	24.715911	0.000980	20.681937
811.210522	-3.007400	3.661300	-11.011000	24.703208	0.000982	20.715660
812.211603	-3.006100	3.661300	-11.005000	24.691868	0.000979	20.720402
813.215226	-3.014600	3.660500	-11.034000	24.690052	0.000981	20.703879
814.212074	-2.984600	3.661200	-10.926000	24.675631	0.000980	20.698891
815.213409	-3.023100	3.659000	-11.060000	24.707890	0.000981	20.706133
816.216681	-2.978400	3.660200	-10.901000	24.698293	0.000980	20.701243
817.212314	-2.993500	3.660900	-10.957000	24.708719	0.000981	20.700326
818.216882	-2.987400	3.660400	-10.934000	24.693427	0.000979	20.685453
819.220723	-3.010600	3.659200	-11.016000	24.692758	0.000980	20.708492
820.214294	-2.986700	3.660000	-10.930000	24.667347	0.000978	20.712864
821.215553	-2.981500	3.659600	-10.910000	24.710002	0.000979	20.698294
822.215933	-3.006500	3.658200	-10.997000	24.672060	0.000980	20.718542
823.227084	-3.009900	3.657100	-11.006000	24.658651	0.000977	20.712674
824.217389	-2.989600	3.657500	-10.934000	24.657019	0.000976	20.711984
825.219783	-3.008100	3.657200	-10.999000	24.662370	0.000977	20.705974
826.215557	-3.019400	3.657300	-11.041000	24.666347	0.000977	20.700480
827.216379	-3.024500	3.656700	-11.059000	24.649471	0.000976	20.717687
828.215279	-3.012300	3.657200	-11.015000	24.653926	0.000978	20.707458
829.214474	-3.004300	3.656300	-10.984000	24.659928	0.000976	20.700204
830.214978	-3.012000	3.656300	-11.012000	24.671048	0.000976	20.705198
831.216313	-2.999400	3.656200	-10.965000	24.681922	0.000975	20.699988
832.217153	-2.988400	3.656100	-10.925000	24.691642	0.000974	20.712588
833.217818	-3.000700	3.655300	-10.967000	24.704406	0.000974	20.701688
834.215976	-2.988000	3.655600	-10.922000	24.725301	0.000973	20.719338
835.216997	-3.003900	3.655300	-10.979000	24.727915	0.000973	20.697778
836.219048	-3.008400	3.655200	-10.995000	24.733560	0.000972	20.713401
837.218119	-3.002400	3.655500	-10.974000	24.732597	0.000974	20.682086
838.216823	-3.036800	3.652900	-11.091000	24.707849	0.000972	20.710359
839.218602	-2.982600	3.655100	-10.900000	24.683586	0.000974	20.705925
840.218973	-2.984800	3.653800	-10.905000	24.657603	0.000974	20.705458
841.226682	-2.991300	3.653400	-10.928000	24.647600	0.000972	20.717706
842.219047	-2.993800	3.654500	-10.938000	24.629055	0.000970	20.703364
843.218987	-3.002200	3.652000	-10.962000	24.631645	0.000972	20.705014
844.219129	-2.984200	3.653300	-10.900000	24.656867	0.000971	20.703771
845.220177	-2.973300	3.653300	-10.860000	24.663133	0.000970	20.697255
846.219625	-2.986400	3.653500	-10.909000	24.649736	0.000970	20.705150
847.220285	-3.007900	3.652300	-10.985000	24.647926	0.000969	20.710446
848.226659	-3.007300	3.652000	-10.982000	24.657972	0.000968	20.709147
849.220759	-2.983000	3.651900	-10.893000	24.661611	0.000970	20.702841
850.221892	-2.995400	3.651500	-10.936000	24.673075	0.000968	20.708655
851.224127	-3.014300	3.650900	-11.004000	24.681132	0.000969	20.723379
852.222122	-2.983800	3.651800	-10.896000	24.726898	0.000968	20.715724
853.223411	-3.004600	3.651500	-10.969000	24.760972	0.000968	20.710090
854.227221	-2.988100	3.650000	-10.905000	24.813245	0.000968	20.713237
855.225194	-2.988000	3.649300	-10.903000	24.782559	0.000967	20.708520
856.224339	-2.982300	3.648400	-10.880000	24.766078	0.000967	20.728017
857.228846	-3.009900	3.649700	-10.985000	24.763894	0.000968	20.715867
858.226815	-3.010700	3.648300	-10.983000	24.780283	0.000966	20.721409
859.225315	-2.979000	3.649700	-10.872000	24.791052	0.000965	20.716095
860.233478	-2.991900	3.649800	-10.918000	24.781038	0.000965	20.723115
861.226068	-3.006900	3.649500	-10.972000	24.793378	0.000966	20.712265
862.226468	-3.030500	3.646100	-11.049000	24.772166	0.000964	20.731281
863.232908	-2.998400	3.648200	-10.938000	24.787456	0.000967	20.719599
864.227028	-3.019200	3.647400	-11.009000	24.800121	0.000966	20.727568
865.227943	-3.023800	3.646600	-11.025000	24.773964	0.000967	20.711273
866.229535	-3.021200	3.645500	-11.012000	24.747487	0.000965	20.719790
867.227735	-3.000200	3.645800	-10.937000	24.725206	0.000963	20.724933
868.228195	-3.000600	3.645600	-10.938000	24.713988	0.000962	20.723159
869.235033	-2.989200	3.645100	-10.894000	24.729968	0.000964	20.706951
870.228810	-2.997800	3.644300	-10.924000	24.726531	0.000962	20.721047
871.227520	-2.990800	3.645000	-10.900000	24.723525	0.000962	20.714710
872.233148	-3.004600	3.643900	-10.948000	24.737933	0.000963	20.737231
873.230820	-2.976300	3.644400	-10.845000	24.764938	0.000963	20.742521
874.228945	-3.010500	3.642900	-10.966000	24.787495	0.000962	20.715844
875.229926	-2.997100	3.644400	-10.922000	24.796153	0.000962	20.735914
876.231203	-2.991100	3.644000	-10.898000	24.816898	0.000962	20.722594
877.228606	-3.000800	3.643700	-10.933000	24.815487	0.000960	20.715962
878.230257	-3.012800	3.642100	-10.971000	24.785869	0.000963	20.732231
879.229298	-2.990700	3.641500	-10.890000	24.752323	0.000961	20.723696
880.229825	-3.015100	3.640500	-10.974000	24.766081	0.000961	20.725649
881.229564	-3.013700	3.641100	-10.973000	24.778592	0.000960	20.724928
882.231824	-2.993300	3.641800	-10.900000	24.774144	0.000958	20.708609
883.231025	-3.015700	3.641500	-10.980000	24.830870	0.000958	20.723340
884.234342	-2.970600	3.642900	-10.821000	24.849971	0.000957	20.736820
885.230818	-2.972800	3.642000	-10.826000	24.851217	0.000957	20.714835
886.229380	-2.991000	3.640600	-10.889000	24.905405	0.000959	20.722755
887.232126	-2.985600	3.641500	-10.871000	24.909755	0.000957	20.728544
888.231832	-2.992000	3.641400	-10.894000	24.938204	0.000958	20.739081
889.233201	-3.004000	3.639700	-10.932000	24.922143	0.000956	20.729123
890.232123	-3.011000	3.639900	-10.958000	24.936370	0.000956	20.722540
891.232211	-2.997200	3.639300	-10.906000	24.924437	0.000957	20.723365
892.232225	-3.007000	3.639500	-10.942000	24.906111	0.000957	20.726783
893.234544	-3.001500	3.639300	-10.922000	24.845377	0.000956	20.748805
894.235442	-3.001500	3.638300	-10.920000	24.793057	0.000956	20.740393
895.235207	-3.001100	3.640300	-10.924000	24.798450	0.000959	20.735848
896.239305	-2.998600	3.638100	-10.908000	24.802831	0.000954	20.741194
897.239088	-3.013900	3.637300	-10.962000	24.810372	0.000956	20.732640
898.238483	-2.999100	3.637500	-10.908000	24.845015	0.000955	20.743701
899.239557	-3.000300	3.637600	-10.913000	24.866054	0.000953	20.730202
900.237299	-3.007300	3.637400	-10.938000	24.868374	0.000955	20.722572
901.237119	-2.988800	3.637900	-10.872000	24.892793	0.000954	20.759885
902.237949	-3.006600	3.635400	-10.930000	24.867895	0.000954	20.745801
903.237649	-3.000100	3.637500	-10.911000	24.866705	0.000953	20.746503
904.237447	-2.984200	3.636300	-10.851000	24.877326	0.000953	20.744360
905.238714	-2.972000	3.636900	-10.807000	24.893787	0.000953	20.750925
906.237641	-2.995800	3.636200	-10.893000	24.901524	0.000953	20.749207
907.236941	-2.990900	3.634500	-10.870000	24.907812	0.000951	20.748406
908.239566	-3.019000	3.634400	-10.971000	24.888621	0.000951	20.723453
909.237649	-3.002300	3.633000	-10.907000	24.930016	0.000952	20.729913
910.237717	-3.019700	3.633100	-10.970000	24.942200	0.000951	20.735979
911.239348	-2.988000	3.634400	-10.859000	24.931261	0.000949	20.728318
912.239995	-2.999300	3.633800	-10.898000	24.891529	0.000951	20.734908
913.239084	-3.016900	3.634000	-10.963000	24.912813	0.000949	20.731139
914.246825	-3.008000	3.631500	-10.922000	24.909034	0.000950	20.734932
915.239200	-3.000200	3.632600	-10.898000	24.902861	0.000949	20.749601
916.239485	-3.004600	3.632900	-10.914000	24.918580	0.000949	20.744514
917.239810	-2.983500	3.631900	-10.835000	24.929249	0.000948	20.751430
918.241809	-2.996800	3.631400	-10.882000	24.926034	0.000946	20.742987
919.241015	-2.980000	3.632700	-10.824000	24.930838	0.000948	20.750180
920.245562	-2.995400	3.631300	-10.876000	24.946151	0.000947	20.749428
921.240592	-2.983400	3.631400	-10.833000	24.940482	0.000946	20.746583
922.241701	-2.994000	3.629900	-10.866000	24.916690	0.000947	20.759688
923.244586	-2.990300	3.629200	-10.851000	24.895603	0.000947	20.752273
924.240662	-2.993200	3.629600	-10.863000	24.907144	0.000946	20.753425
925.242102	-3.007000	3.629500	-10.912000	24.898420	0.000945	20.757471
926.241511	-2.988900	3.629000	-10.846000	24.938004	0.000946	20.777288
927.241966	-2.996900	3.629300	-10.875000	24.930470	0.000945	20.752655
928.243036	-3.002800	3.629600	-10.898000	24.899444	0.000945	20.756603
929.242986	-3.028900	3.627500	-10.986000	24.874185	0.000944	20.768710
930.243638	-2.996300	3.629800	-10.875000	24.893450	0.000943	20.762915
931.243918	-3.000100	3.628900	-10.885000	24.890444	0.000941	20.755630
932.249315	-2.978300	3.628800	-10.806000	24.900242	0.000943	20.761197
933.243120	-3.023700	3.627600	-10.966000	24.895420	0.000943	20.771056
934.241987	-2.992300	3.628100	-10.856000	24.923292	0.000941	20.764892
935.249666	-2.987600	3.627100	-10.835000	24.932366	0.000944	20.776370
936.242091	-2.997700	3.626600	-10.870000	24.945299	0.000940	20.754263
937.243679	-3.009400	3.627000	-10.914000	24.934575	0.000942	20.775268
938.245163	-3.008000	3.627000	-10.909000	24.938888	0.000938	20.786236
939.247848	-3.009200	3.625900	-10.911000	24.973220	0.000941	20.781814
940.244228	-2.987400	3.625200	-10.828000	25.011237	0.000941	20.769240
941.243641	-2.999700	3.625900	-10.876000	25.020016	0.000940	20.773784
942.247773	-3.011000	3.624300	-10.911000	24.998588	0.000940	20.784518
943.242412	-3.004800	3.623900	-10.888000	24.985484	0.000939	20.767571
944.244875	-3.010700	3.625100	-10.912000	24.990508	0.000939	20.777356
945.247553	-3.008600	3.624500	-10.902000	24.989686	0.000938	20.762306
946.242750	-2.992800	3.624600	-10.846000	24.977754	0.000938	20.770718
947.246058	-3.012300	3.625100	-10.919000	24.989791	0.000938	20.771420
948.243945	-3.000900	3.624600	-10.876000	24.994091	0.000940	20.759141
949.242754	-2.986600	3.622900	-10.819000	25.012171	0.000937	20.764012
950.245499	-3.008100	3.623600	-10.899000	25.013312	0.000935	20.802616
951.245065	-3.011600	3.623800	-10.912000	25.029998	0.000936	20.792813
952.243905	-3.016500	3.622100	-10.924000	25.032262	0.000936	20.785128
953.244077	-3.020200	3.621800	-10.937000	25.040666	0.000935	20.787875
954.246544	-3.001100	3.621500	-10.868000	25.049273	0.000935	20.766642
955.244349	-3.002000	3.621600	-10.871000	25.077761	0.000936	20.787179
956.244131	-3.001700	3.621200	-10.868000	25.067492	0.000936	20.786828
957.243721	-3.009500	3.619700	-10.892000	25.019563	0.000933	20.782813
958.246049	-2.976200	3.621700	-10.777000	25.042569	0.000934	20.785517
959.243974	-2.994200	3.619600	-10.837000	25.031655	0.000933	20.780726
960.247743	-3.011500	3.619000	-10.898000	25.038293	0.000932	20.798294
961.244568	-2.996900	3.619000	-10.845000	25.070315	0.000933	20.789187
962.244792	-3.009800	3.618600	-10.890000	25.033607	0.000933	20.782685
963.246218	-2.996100	3.617300	-10.836000	25.052298	0.000930	20.770627
964.245407	-3.016600	3.618200	-10.914000	25.070052	0.000934	20.778965
965.249668	-3.007900	3.618000	-10.881000	25.037515	0.000932	20.783289
966.247462	-3.024900	3.617900	-10.940000	25.015908	0.000930	20.784360
967.245290	-2.986600	3.617100	-10.802000	25.026399	0.000930	20.785881
968.246078	-2.990600	3.618400	-10.820000	25.041447	0.000931	20.773959
969.246958	-3.008200	3.617700	-10.882000	25.041153	0.000929	20.783147
970.246232	-2.974500	3.617300	-10.759000	25.021111	0.000929	20.793850
971.246850	-2.976200	3.618500	-10.768000	25.036926	0.000929	20.771792
972.247308	-3.003600	3.614700	-10.855000	25.016891	0.000927	20.784398
973.249253	-3.011500	3.615600	-10.887000	25.041705	0.000928	20.802668
974.248457	-2.990800	3.616700	-10.816000	25.056404	0.000928	20.808888
975.250792	-3.018500	3.614600	-10.910000	25.049245	0.000928	20.784632
976.247867	-2.996400	3.614700	-10.831000	25.027811	0.000926	20.816696
977.250151	-2.981800	3.615500	-10.780000	25.054318	0.000926	20.802527
978.247210	-2.974300	3.615200	-10.752000	25.051491	0.000927	20.782619
979.247681	-2.967300	3.615200	-10.727000	25.077096	0.000925	20.803580
980.252677	-2.999200	3.613500	-10.836000	25.098057	0.000926	20.783370
981.250173	-2.999700	3.614000	-10.840000	25.115319	0.000925	20.804967
982.249222	-2.993600	3.613800	-10.817000	25.132463	0.000925	20.794202
983.251010	-3.019200	3.613300	-10.908000	25.104946	0.000924	20.795502
984.252114	-3.018700	3.614100	-10.909000	25.093721	0.000925	20.786130
985.251837	-2.993600	3.612700	-10.814000	25.126011	0.000921	20.780138
986.250502	-3.029700	3.611500	-10.940000	25.129618	0.000922	20.817424
987.251384	-2.981600	3.612600	-10.769000	25.118583	0.000921	20.804924
988.250999	-2.982300	3.611400	-10.769000	25.100463	0.000921	20.800484
989.253721	-2.992400	3.610000	-10.801000	25.109689	0.000920	20.797418
990.251911	-3.005400	3.611000	-10.852000	25.093458	0.000921	20.798194
991.252890	-2.987700	3.611200	-10.788000	25.089011	0.000922	20.797523
992.253535	-2.992800	3.610800	-10.805000	25.111714	0.000919	20.795183
993.251473	-3.006000	3.609900	-10.851000	25.152904	0.000918	20.817093
994.250647	-3.006800	3.608700	-10.849000	25.116633	0.000919	20.820036
995.252671	-3.027400	3.608300	-10.922000	25.133171	0.000918	20.810085
996.253922	-3.005700	3.609800	-10.849000	25.138618	0.000919	20.815554
997.253598	-3.030300	3.608500	-10.934000	25.139563	0.000919	20.797536
998.254331	-2.995400	3.607700	-10.805000	25.132625	0.000916	20.825658
999.253816	-3.018600	3.607200	-10.886000	25.128829	0.000918	20.813312
1000.253240	-2.999800	3.608300	-10.823000	25.104562	0.000917	20.839211
1001.252644	-2.982400	3.607200	-10.756000	25.079976	0.000916	20.813109
1002.253572	-2.995300	3.607900	-10.805000	25.076203	0.000915	20.829711
1003.251990	-3.018800	3.606900	-10.886000	25.071106	0.000917	20.831706
1004.251737	-2.988600	3.607400	-10.781000	25.090576	0.000915	20.806681
1005.253827	-3.004500	3.606000	-10.833000	25.124290	0.000916	20.830093
1006.253652	-2.994100	3.605400	-10.794000	25.125830	0.000914	20.830690
1007.254336	-2.973500	3.606600	-10.723000	25.138085	0.000913	20.817864
1008.256470	-2.993600	3.605400	-10.792000	25.153028	0.000912	20.816743
1009.255384	-2.987900	3.604900	-10.769000	25.148053	0.000913	20.834508
1010.255628	-2.984800	3.605700	-10.759000	25.144502	0.000912	20.807710
1011.255871	-2.983500	3.606700	-10.758000	25.189500	0.000912	20.832969
1012.255325	-2.997100	3.605500	-10.805000	25.177066	0.000911	20.815271
1013.255352	-3.012300	3.604700	-10.857000	25.204466	0.000912	20.806743
1014.255460	-3.003500	3.603300	-10.821000	25.201884	0.000911	20.848720
1015.256314	-3.006000	3.603300	-10.830000	25.224676	0.000912	20.827507
1016.256242	-3.020100	3.601700	-10.875000	25.198308	0.000910	20.821898
1017.257332	-2.977000	3.603100	-10.725000	25.201467	0.000912	20.820802
1018.256776	-2.994600	3.601800	-10.785000	25.197370	0.000909	20.837551
1019.257993	-2.994100	3.602100	-10.784000	25.191132	0.000910	20.818487
1020.258381	-2.989300	3.603300	-10.770000	25.213404	0.000909	20.828518
1021.257282	-2.977600	3.602400	-10.724000	25.202946	0.000909	20.824658
1022.257665	-2.961900	3.602000	-10.667000	25.201180	0.000908	20.813875
1023.259712	-3.004800	3.601500	-10.820000	25.212098	0.000908	20.831474
1024.260242	-3.012100	3.601500	-10.847000	25.251843	0.000906	20.841031
1025.260270	-2.999900	3.601400	-10.803000	25.241134	0.000906	20.837866
1026.258317	-3.002000	3.599500	-10.805000	25.234596	0.000905	20.829406
1027.260301	-2.998700	3.600700	-10.796000	25.253382	0.000904	20.832620
1028.260822	-2.988200	3.601200	-10.761000	25.230027	0.000903	20.824344
1029.261587	-3.002200	3.599600	-10.805000	25.233284	0.000904	20.841364
1030.261279	-2.989000	3.598600	-10.755000	25.256002	0.000902	20.818655
1031.262130	-2.986600	3.599700	-10.750000	25.276236	0.000903	20.837546
1032.259450	-2.961800	3.601000	-10.664000	25.290452	0.000901	20.828113
1033.261630	-3.002900	3.596300	-10.798000	25.297039	0.000901	20.835200
1034.261159	-3.020800	3.596500	-10.863000	25.314285	0.000902	20.834972
1035.261723	-2.982600	3.599100	-10.733000	25.333126	0.000902	20.818328
1036.262157	-2.991600	3.596800	-10.759000	25.319861	0.000900	20.815915
1037.264721	-2.989600	3.598900	-10.758000	25.312151	0.000900	20.802959
1038.261614	-3.009200	3.597000	-10.823000	25.332384	0.000900	20.820428
1039.261954	-3.003800	3.596500	-10.802000	25.334426	0.000900	20.803987
1040.262683	-2.974800	3.597200	-10.699000	25.359969	0.000897	20.795495
1041.263560	-3.002200	3.595500	-10.794000	25.373173	0.000897	20.812547
1042.263490	-2.982900	3.595400	-10.724000	25.372057	0.000899	20.819961
1043.264099	-2.982300	3.595500	-10.722000	25.371627	0.000899	20.807675
1044.265470	-3.001100	3.594700	-10.786000	25.360000	0.000896	20.800268
1045.264482	-2.993000	3.594500	-10.757000	25.361172	0.000898	20.803815
1046.267617	-3.019900	3.592200	-10.846000	25.323817	0.000897	20.815619
1047.265511	-3.007800	3.593900	-10.809000	25.318076	0.000895	20.820761
1048.265130	-3.002500	3.593200	-10.787000	25.303682	0.000896	20.787343
1049.264297	-3.029000	3.591600	-10.878000	25.303786	0.000895	20.783180
1050.267749	-2.983500	3.594100	-10.722000	25.335199	0.000895	20.793858
1051.268247	-2.978400	3.592900	-10.700000	25.346791	0.000894	20.804548
1052.267172	-2.981000	3.593100	-10.710000	25.327220	0.000894	20.798174
1053.266156	-2.978600	3.592300	-10.699000	25.318978	0.000893	20.815977
1054.268254	-2.983300	3.591200	-10.713000	25.296587	0.000894	20.796814
1055.265687	-2.976300	3.592100	-10.690000	25.273593	0.000894	20.796488
1056.268212	-2.994700	3.590800	-10.752000	25.243792	0.000893	20.804499
1057.267253	-3.002600	3.590700	-10.780000	25.243676	0.000893	20.805805
1058.266955	-3.002000	3.589700	-10.773000	25.254562	0.000891	20.808201
1059.267737	-3.004400	3.589900	-10.783000	25.264536	0.000892	20.796403
1060.267825	-3.009500	3.589900	-10.802000	25.281083	0.000890	20.794998
1061.268045	-2.995300	3.589200	-10.750000	25.320359	0.000888	20.788915
1062.268548	-2.988100	3.589500	-10.724000	25.346700	0.000889	20.797819
1063.268891	-2.990600	3.589800	-10.735000	25.350858	0.000889	20.802942
1064.267365	-3.000000	3.589100	-10.766000	25.385551	0.000888	20.780879
1065.270222	-2.996600	3.589900	-10.756000	25.392609	0.000887	20.794605
1066.271842	-2.999800	3.588900	-10.766000	25.370219	0.000888	20.807684
1067.268500	-3.009600	3.586900	-10.794000	25.362143	0.000885	20.786298
1068.269454	-2.995800	3.588700	-10.750000	25.359935	0.000888	20.780762
1069.270245	-3.015600	3.587100	-10.816000	25.330779	0.000887	20.801748
1070.270721	-2.993300	3.587200	-10.737000	25.333914	0.000887	20.791619
1071.273796	-3.005300	3.587600	-10.780000	25.354188	0.000885	20.784001
1072.270111	-3.003500	3.585200	-10.767000	25.378628	0.000884	20.780565
1073.271109	-3.017400	3.586600	-10.821000	25.391507	0.000884	20.773108
1074.273629	-3.007500	3.586200	-10.784000	25.392475	0.000884	20.792099
1075.270642	-3.001300	3.585800	-10.760000	25.408671	0.000882	20.784654
1076.271794	-3.001700	3.583800	-10.756000	25.412798	0.000883	20.781686
1077.272698	-3.020300	3.582700	-10.819000	25.389691	0.000883	20.775553
1078.270941	-2.992300	3.586600	-10.732000	25.369858	0.000882	20.771760
1079.272591	-2.987000	3.585600	-10.709000	25.385931	0.000881	20.788373
1080.273584	-3.010300	3.584900	-10.789000	25.365038	0.000881	20.761704
1081.272994	-3.010600	3.582400	-10.784000	25.381786	0.000880	20.771883
1082.272904	-3.006900	3.582000	-10.770000	25.377365	0.000882	20.778823
1083.274858	-3.012600	3.581600	-10.789000	25.376298	0.000878	20.769691
1084.276235	-3.001400	3.581900	-10.750000	25.408401	0.000880	20.776797
1085.278943	-3.027200	3.580500	-10.837000	25.423291	0.000878	20.783213
1086.277567	-2.991600	3.583000	-10.718000	25.452776	0.000878	20.783898
1087.280719	-3.011200	3.579700	-10.777000	25.436274	0.000877	20.799095
1088.275724	-3.004700	3.579900	-10.756000	25.429191	0.000876	20.784871
1089.280126	-3.007200	3.580900	-10.766000	25.417061	0.000876	20.772690
1090.276255	-3.023700	3.579500	-10.822000	25.378095	0.000876	20.773867
1091.277324	-3.020500	3.580100	-10.812000	25.373398	0.000875	20.756347
1092.279746	-3.007000	3.580900	-10.766000	25.376402	0.000874	20.763632
1093.282225	-3.016400	3.578800	-10.794000	25.385724	0.000873	20.762086
1094.277301	-3.009000	3.579500	-10.769000	25.381891	0.000874	20.762505
1095.280072	-3.000300	3.579500	-10.738000	25.403661	0.000875	20.750699
1096.279409	-3.003200	3.578500	-10.746000	25.407771	0.000874	20.783276
1097.278958	-2.990000	3.579200	-10.700000	25.409844	0.000871	20.762598
1098.280054	-2.993000	3.578400	-10.708000	25.389655	0.000873	20.763189
1099.282439	-3.017300	3.578300	-10.796000	25.384510	0.000871	20.775092
1100.279444	-3.004600	3.577700	-10.749000	25.381701	0.000871	20.765633
1101.281649	-2.969100	3.577800	-10.622000	25.372061	0.000870	20.762592
1102.279121	-2.988500	3.577100	-10.689000	25.366045	0.000871	20.772198
1103.278506	-2.988500	3.577100	-10.688000	25.372907	0.000870	20.752061
1104.279454	-3.003400	3.576100	-10.739000	25.365205	0.000868	20.751914
1105.278454	-2.971500	3.575800	-10.624000	25.354148	0.000870	20.766890
1106.279526	-2.987800	3.576700	-10.685000	25.381862	0.000868	20.756311
1107.280918	-3.002100	3.574800	-10.731000	25.370430	0.000868	20.744832
1108.279706	-2.971800	3.574800	-10.621000	25.411268	0.000868	20.764502
1109.279610	-2.996900	3.575400	-10.714000	25.416566	0.000867	20.758917
1110.280033	-3.003400	3.574200	-10.734000	25.368744	0.000868	20.748829
1111.279877	-3.007100	3.572300	-10.742000	25.339154	0.000866	20.752784
1112.282079	-2.987100	3.574600	-10.677000	25.316267	0.000864	20.740234
1113.282810	-2.956800	3.575700	-10.571000	25.299934	0.000863	20.733318
1114.281989	-2.982500	3.573200	-10.656000	25.318107	0.000863	20.733546
1115.280626	-3.023300	3.572100	-10.799000	25.319733	0.000864	20.756042
1116.282294	-3.001100	3.573200	-10.722000	25.365410	0.000863	20.749274
1117.281185	-3.011100	3.571000	-10.750000	25.389597	0.000862	20.734680
1118.282418	-3.015900	3.572100	-10.772000	25.425516	0.000864	20.752256
1119.281723	-3.000900	3.570800	-10.715000	25.422284	0.000861	20.745691
1120.280887	-3.007200	3.571400	-10.738000	25.430594	0.000863	20.744553
1121.291834	-3.001400	3.570500	-10.715000	25.401042	0.000860	20.744275
1122.280835	-2.992800	3.570700	-10.686000	25.392150	0.000861	20.762374
1123.281421	-2.995700	3.570900	-10.696000	25.418618	0.000860	20.760976
1124.283359	-2.999300	3.571200	-10.709000	25.438499	0.000861	20.732575
1125.287782	-3.008700	3.569500	-10.738000	25.426498	0.000858	20.741862
1126.282952	-2.994500	3.570700	-10.692000	25.427344	0.000857	20.739393
1127.281945	-3.015500	3.568000	-10.758000	25.421660	0.000859	20.760712
1128.281633	-2.988500	3.569000	-10.665000	25.394640	0.000858	20.741166
1129.282687	-2.992300	3.569100	-10.678000	25.403815	0.000856	20.742318
1130.285369	-2.989000	3.569600	-10.668000	25.390243	0.000856	20.749554
1131.284737	-3.003200	3.568000	-10.714000	25.361046	0.000854	20.742522
1132.283781	-3.014200	3.567200	-10.751000	25.342230	0.000857	20.757295
1133.283685	-3.004800	3.567900	-10.719000	25.391390	0.000855	20.732687
1134.283638	-3.010400	3.567800	-10.739000	25.381345	0.000854	20.727815
1135.284205	-2.987000	3.568500	-10.658000	25.347302	0.000853	20.728247
1136.282522	-2.996700	3.566200	-10.685000	25.348971	0.000853	20.719490
1137.283222	-3.001100	3.566300	-10.700000	25.330781	0.000853	20.758127
1138.285842	-3.004400	3.567000	-10.715000	25.328095	0.000853	20.750214
1139.283638	-2.999900	3.566600	-10.698000	25.288542	0.000851	20.723302
1140.286400	-3.001700	3.564700	-10.699000	25.285642	0.000851	20.727977
1141.284976	-2.984900	3.565200	-10.641000	25.254963	0.000852	20.744591
1142.286011	-3.002200	3.563800	-10.698000	25.259790	0.000851	20.752757
1143.286481	-2.987600	3.563600	-10.645000	25.312584	0.000851	20.743649
1144.289304	-2.987400	3.565200	-10.649000	25.329984	0.000849	20.720340
1145.289301	-2.998600	3.562800	-10.682000	25.359734	0.000850	20.739308
1146.295713	-3.005200	3.563300	-10.708000	25.348149	0.000849	20.733839
1147.291359	-2.997300	3.562700	-10.677000	25.357348	0.000849	20.731222
1148.311478	-2.987700	3.563800	-10.646000	25.327279	0.000847	20.731376
1149.290992	-2.994000	3.562900	-10.666000	25.298938	0.000847	20.747492
1150.293358	-2.987100	3.562900	-10.641000	25.334430	0.000847	20.715321
1151.292191	-2.986400	3.561700	-10.636000	25.343028	0.000848	20.707833
1152.291044	-3.000900	3.560800	-10.685000	25.368902	0.000846	20.732392
1153.291412	-2.995700	3.561700	-10.669000	25.409512	0.000845	20.726702
1154.290278	-3.005800	3.559900	-10.699000	25.435189	0.000845	20.734467
1155.291948	-2.977600	3.560800	-10.601000	25.419379	0.000844	20.727127
1156.296640	-2.996900	3.559900	-10.667000	25.430289	0.000845	20.745669
1157.295735	-3.002000	3.560100	-10.686000	25.475090	0.000845	20.729491
1158.292372	-3.024500	3.557700	-10.759000	25.477199	0.000843	20.716435
1159.293725	-3.001500	3.558000	-10.678000	25.479934	0.000842	20.743365
1160.306352	-2.982400	3.559500	-10.614000	25.503672	0.000841	20.743495
1161.291399	-3.009000	3.557800	-10.703000	25.514923	0.000840	20.733456
1162.300430	-3.008800	3.558000	-10.705000	25.535974	0.000840	20.726147
1163.297401	-3.005900	3.557100	-10.691000	25.539689	0.000840	20.713755
1164.296453	-3.005100	3.556700	-10.687000	25.502788	0.000838	20.747348
1165.300136	-2.992900	3.556500	-10.643000	25.479375	0.000839	20.734268
1166.297621	-2.993400	3.557300	-10.648000	25.414025	0.000837	20.735027
1167.298839	-3.010400	3.556600	-10.706000	25.397026	0.000838	20.735501
1168.299978	-2.992200	3.557500	-10.644000	25.365804	0.000839	20.718849
1169.301754	-3.020900	3.556300	-10.742000	25.366430	0.000837	20.736073
1170.299407	-2.996000	3.555100	-10.649000	25.365191	0.000835	20.724398
1171.308694	-2.999200	3.556000	-10.664000	25.352613	0.000836	20.704654
1172.300253	-2.997900	3.555700	-10.659000	25.371974	0.000836	20.707499
1173.297806	-2.986300	3.555600	-10.617000	25.371446	0.000834	20.723092
1174.301186	-3.012100	3.552400	-10.699000	25.366399	0.000834	20.724662
1175.299263	-3.021400	3.553700	-10.736000	25.339733	0.000834	20.739140
1176.299399	-2.981500	3.554700	-10.598000	25.333528	0.000835	20.736228
1177.302035	-2.999000	3.552800	-10.654000	25.316251	0.000832	20.728363
1178.303090	-2.987300	3.553500	-10.615000	25.324905	0.000833	20.716189
1179.301142	-3.006400	3.552000	-10.678000	25.346708	0.000832	20.730969
1180.302380	-2.993000	3.553100	-10.633000	25.326898	0.000831	20.723881
1181.301367	-2.985500	3.553900	-10.609000	25.322771	0.000830	20.740600
1182.301327	-2.975200	3.551400	-10.564000	25.284715	0.000830	20.735107
1183.303916	-3.002100	3.551100	-10.659000	25.265310	0.000830	20.700923
1184.302568	-2.990700	3.552500	-10.623000	25.276350	0.000830	20.711534
1185.301638	-2.993900	3.551700	-10.632000	25.331505	0.000829	20.714281
1186.303018	-3.019600	3.550000	-10.718000	25.349554	0.000827	20.703480
1187.302029	-2.994400	3.550000	-10.629000	25.373515	0.000827	20.731334
1188.302189	-2.993000	3.549300	-10.622000	25.394292	0.000828	20.700512
1189.314741	-3.001800	3.549400	-10.654000	25.409808	0.000826	20.723206
1190.304851	-2.989700	3.549000	-10.609000	25.411176	0.000826	20.709879
1191.303120	-3.007500	3.549100	-10.673000	25.378079	0.000824	20.713156
1192.303292	-2.985500	3.548600	-10.594000	25.340529	0.000826	20.700107
1193.303754	-3.000700	3.549000	-10.648000	25.343957	0.000823	20.703075
1194.303646	-2.996400	3.548200	-10.630000	25.376620	0.000824	20.705052
1195.305230	-2.986500	3.548800	-10.597000	25.378883	0.000825	20.702583
1196.302301	-2.986600	3.546900	-10.591000	25.371156	0.000823	20.697195
1197.303817	-3.013200	3.546600	-10.685000	25.353145	0.000821	20.700447
1198.305369	-2.985000	3.547700	-10.588000	25.334581	0.000821	20.707886
1199.302344	-3.001300	3.546800	-10.643000	25.338090	0.000821	20.692916
1200.303969	-2.984300	3.546900	-10.583000	25.320372	0.000820	20.709266
1201.305643	-3.000200	3.547300	-10.642000	25.301384	0.000821	20.696365
1202.304383	-2.989300	3.547600	-10.604000	25.274798	0.000820	20.701914
1203.303051	-3.010400	3.545800	-10.673000	25.268536	0.000820	20.703688
1204.304982	-2.994400	3.545500	-10.615000	25.271394	0.000818	20.698022
1205.306323	-2.998900	3.544600	-10.630000	25.247438	0.000819	20.724707
1206.304749	-2.991700	3.544100	-10.602000	25.251762	0.000817	20.704390
1207.305873	-3.004900	3.542900	-10.645000	25.264145	0.000818	20.683631
1208.307467	-3.003000	3.543000	-10.637000	25.309016	0.000818	20.701183
1209.304753	-3.006300	3.541500	-10.646000	25.312720	0.000816	20.694945
1210.305715	-3.002800	3.543000	-10.638000	25.340743	0.000814	20.717393
1211.308159	-2.991800	3.542000	-10.596000	25.324183	0.000815	20.699816
1212.306019	-3.021400	3.540800	-10.696000	25.346655	0.000815	20.696300
1213.306983	-3.007500	3.542200	-10.653000	25.379895	0.000816	20.690796
1214.307751	-3.009500	3.541500	-10.656000	25.396447	0.000813	20.684656
1215.305497	-3.008100	3.539700	-10.646000	25.425478	0.000813	20.695790
1216.308979	-3.000500	3.541000	-10.623000	25.411368	0.000813	20.693475
1217.309873	-2.998100	3.538700	-10.609000	25.403795	0.000812	20.703416
1218.304427	-3.006500	3.540100	-10.643000	25.428325	0.000813	20.685372
1219.306298	-2.999200	3.539400	-10.614000	25.436604	0.000809	20.690841
1220.307816	-2.997300	3.540200	-10.610000	25.482755	0.000811	20.683130
1221.310055	-2.992100	3.539700	-10.590000	25.506695	0.000811	20.691999
1222.305742	-2.993300	3.538800	-10.590000	25.492677	0.000810	20.683611
1223.308902	-2.986500	3.538900	-10.568000	25.492285	0.000808	20.666621
1224.305852	-2.999700	3.537700	-10.609000	25.469806	0.000809	20.687197
1225.309367	-2.986100	3.537600	-10.562000	25.449502	0.000807	20.702846
1226.309191	-2.995000	3.537800	-10.594000	25.433455	0.000809	20.695265
1227.307933	-3.014900	3.536900	-10.661000	25.388026	0.000806	20.681889
1228.310409	-3.017800	3.537200	-10.673000	25.401394	0.000806	20.682037
1229.309433	-3.007700	3.537000	-10.638000	25.424710	0.000806	20.686958
1230.308832	-3.005100	3.535400	-10.624000	25.416291	0.000805	20.696997
1231.311816	-3.005300	3.535200	-10.624000	25.402401	0.000804	20.682574
1232.315756	-3.002700	3.535600	-10.614000	25.403769	0.000804	20.698647
1233.309894	-2.994200	3.534900	-10.583000	25.435965	0.000802	20.695416
1234.313697	-2.985700	3.536300	-10.557000	25.458329	0.000800	20.695588
1235.314984	-2.991300	3.535100	-10.573000	25.430575	0.000802	20.680993
1236.310784	-2.994900	3.534400	-10.584000	25.414545	0.000802	20.683388
1237.314795	-2.993100	3.534800	-10.578000	25.419120	0.000802	20.683241
1238.314130	-2.976500	3.533800	-10.517000	25.457269	0.000801	20.696420
1239.311077	-2.999300	3.532900	-10.595000	25.483571	0.000800	20.678734
1240.313124	-2.986500	3.533800	-10.553000	25.499299	0.000800	20.688840
1241.314590	-2.964800	3.533500	-10.475000	25.482682	0.000798	20.676893
1242.312833	-2.988400	3.532200	-10.555000	25.481567	0.000799	20.696163
1243.314867	-3.005600	3.532000	-10.614000	25.458853	0.000799	20.673827
1244.315270	-2.993400	3.532400	-10.572000	25.443278	0.000798	20.670514
1245.312586	-3.002500	3.530000	-10.597000	25.434607	0.000798	20.687887
1246.313620	-2.983800	3.531400	-10.536000	25.409955	0.000797	20.696799
1247.315275	-2.972200	3.531600	-10.495000	25.397132	0.000797	20.688189
1248.312310	-2.971800	3.529900	-10.488000	25.405681	0.000796	20.687764
1249.313249	-3.020200	3.529000	-10.657000	25.380605	0.000796	20.700518
1250.314837	-2.992100	3.528900	-10.557000	25.362017	0.000794	20.676162
1251.314785	-3.005200	3.529400	-10.605000	25.349194	0.000795	20.689840
1252.314934	-2.987600	3.529400	-10.544000	25.387468	0.000794	20.666155
1253.315790	-3.007900	3.530700	-10.618000	25.401984	0.000791	20.689742
1254.314247	-2.995600	3.529100	-10.570000	25.418965	0.000795	20.689250
1255.317342	-2.994300	3.526600	-10.559000	25.377583	0.000793	20.688474
1256.315377	-3.018300	3.527800	-10.646000	25.341865	0.000792	20.692913
1257.314790	-3.012500	3.527300	-10.624000	25.385708	0.000792	20.679088
1258.320151	-2.996400	3.527100	-10.568000	25.391357	0.000791	20.683338
1259.315927	-3.028400	3.525900	-10.677000	25.415023	0.000791	20.682920
1260.317374	-3.032700	3.525200	-10.690000	25.418794	0.000790	20.703778
1261.320822	-3.012800	3.525000	-10.620000	25.470710	0.000790	20.685259
1262.316382	-2.992100	3.525600	-10.547000	25.487561	0.000788	20.699338
1263.317734	-2.988200	3.526300	-10.536000	25.496385	0.000789	20.701087
1264.318751	-2.988900	3.526200	-10.538000	25.452823	0.000789	20.676780
1265.319082	-3.007800	3.524200	-10.599000	25.438884	0.000786	20.686018
1266.317742	-3.005400	3.525700	-10.596000	25.404341	0.000787	20.674089
1267.320596	-2.997100	3.524300	-10.561000	25.432795	0.000786	20.692232
1268.319499	-2.998100	3.523700	-10.563000	25.450493	0.000786	20.679182
1269.318907	-3.017000	3.521600	-10.624000	25.488942	0.000786	20.670376
1270.322849	-2.982500	3.523500	-10.508000	25.506510	0.000786	20.708410
1271.320392	-3.007700	3.522100	-10.593000	25.472140	0.000784	20.681005
1272.321319	-3.013900	3.523000	-10.616000	25.484269	0.000786	20.688445
1273.322554	-3.015800	3.522000	-10.621000	25.511948	0.000784	20.697750
1274.323341	-3.002300	3.522200	-10.574000	25.537794	0.000783	20.688143
1275.320111	-3.009900	3.519800	-10.593000	25.553375	0.000782	20.709482
1276.321954	-3.018600	3.520100	-10.625000	25.581888	0.000781	20.686906
1277.325573	-2.999500	3.520200	-10.558000	25.593519	0.000780	20.711866
1278.322163	-2.992700	3.520100	-10.534000	25.568221	0.000781	20.709218
1279.319857	-2.998100	3.520700	-10.554000	25.500385	0.000781	20.681869
1280.321609	-2.988300	3.519100	-10.515000	25.475686	0.000780	20.702586
1281.322431	-3.019700	3.518800	-10.625000	25.484552	0.000780	20.696316
1282.328450	-2.978600	3.520900	-10.487000	25.468058	0.000779	20.687338
1283.323505	-2.994200	3.517000	-10.530000	25.487570	0.000778	20.703615
1284.326283	-2.989600	3.517800	-10.516000	25.523234	0.000778	20.685374
1285.326643	-3.004100	3.518700	-10.570000	25.540581	0.000778	20.704693
1286.326448	-2.993600	3.516900	-10.527000	25.576169	0.000776	20.729530
1287.325786	-2.997800	3.516900	-10.541000	25.588420	0.000777	20.698683
1288.326726	-2.970800	3.517600	-10.449000	25.588347	0.000776	20.695764
1289.329415	-2.989100	3.517000	-10.511000	25.603283	0.000775	20.703654
1290.330658	-3.009900	3.516100	-10.582000	25.590756	0.000773	20.702927
1291.328866	-3.002600	3.514400	-10.551000	25.585944	0.000775	20.707577
1292.328436	-3.010700	3.516100	-10.584000	25.564170	0.000774	20.707047
1293.326618	-2.995600	3.515200	-10.529000	25.575012	0.000774	20.692803
1294.329100	-2.981600	3.515700	-10.481000	25.545561	0.000773	20.710169
1295.327903	-2.998400	3.514900	-10.538000	25.534058	0.000773	20.694823
1296.329588	-2.988000	3.513700	-10.498000	25.548995	0.000772	20.704609
1297.328384	-2.999500	3.514400	-10.540000	25.555213	0.000771	20.706112
1298.329746	-3.026400	3.511100	-10.623000	25.557476	0.000770	20.691788
1299.328428	-2.993200	3.512700	-10.513000	25.557777	0.000771	20.707738
1300.332150	-2.992900	3.512900	-10.512000	25.560235	0.000768	20.723485
1301.329964	-3.003300	3.512700	-10.549000	25.538891	0.000770	20.702522
1302.328716	-3.002000	3.512300	-10.543000	25.534544	0.000770	20.696734
1303.328445	-3.003200	3.511900	-10.545000	25.469932	0.000771	20.722888
1304.329047	-3.008000	3.511000	-10.560000	25.475052	0.000771	20.704321
1305.328925	-3.001900	3.511000	-10.539000	25.440216	0.000769	20.698261
1306.328990	-2.996000	3.510800	-10.517000	25.431587	0.000766	20.714254
1307.329993	-2.988600	3.510900	-10.492000	25.477591	0.000767	20.698809
1308.332690	-2.994300	3.509800	-10.508000	25.521055	0.000766	20.709740
1309.330327	-3.005300	3.509700	-10.546000	25.546120	0.000766	20.721637
1310.330954	-2.999300	3.508700	-10.522000	25.602475	0.000765	20.713748
1311.330501	-3.005000	3.507900	-10.540000	25.625461	0.000766	20.699849
1312.330611	-3.025200	3.507900	-10.611000	25.659428	0.000764	20.715947
1313.330684	-3.022800	3.507700	-10.602000	25.665810	0.000763	20.695803
1314.331580	-2.985800	3.508100	-10.473000	25.698775	0.000764	20.693825
1315.330870	-2.986900	3.507700	-10.476000	25.708136	0.000764	20.697538
1316.332156	-2.981400	3.508400	-10.459000	25.724438	0.000761	20.715810
1317.331462	-3.005700	3.506800	-10.539000	25.725652	0.000762	20.727461
1318.333032	-2.989500	3.505500	-10.479000	25.740628	0.000762	20.702200
1319.334612	-3.002100	3.505900	-10.524000	25.738838	0.000760	20.748768
1320.332892	-3.033000	3.502900	-10.623000	25.733817	0.000761	20.735663
1321.331410	-3.002200	3.504800	-10.521000	25.700374	0.000758	20.722934
1322.332998	-3.009200	3.503200	-10.541000	25.651994	0.000757	20.717015
1323.334272	-3.026200	3.503100	-10.599000	25.621007	0.000758	20.718610
1324.331536	-3.008600	3.503200	-10.539000	25.561226	0.000760	20.731118
1325.335572	-3.011900	3.503700	-10.552000	25.565622	0.000758	20.711824
1326.338249	-2.999300	3.501900	-10.502000	25.579216	0.000758	20.732116
1327.332199	-3.000300	3.503300	-10.510000	25.595090	0.000757	20.741894
1328.336160	-2.996100	3.502200	-10.492000	25.552598	0.000757	20.709176
1329.338020	-3.015100	3.500700	-10.554000	25.568626	0.000755	20.711996
1330.334266	-2.981000	3.503000	-10.441000	25.551329	0.000754	20.742516
1331.335283	-3.008000	3.501200	-10.529000	25.575586	0.000754	20.735582
1332.337514	-3.003800	3.501400	-10.516000	25.590123	0.000755	20.728845
1333.333134	-3.012700	3.499800	-10.543000	25.612914	0.000754	20.747942
1334.342854	-3.015200	3.499100	-10.547000	25.616114	0.000753	20.744044
1335.336373	-2.996500	3.499700	-10.486000	25.614754	0.000754	20.740781
1336.334144	-3.001500	3.499300	-10.502000	25.568535	0.000752	20.716172
1337.336786	-3.005900	3.499800	-10.518000	25.590050	0.000751	20.721659
1338.337106	-3.035900	3.496600	-10.614000	25.599094	0.000751	20.741174
1339.335210	-3.012600	3.498200	-10.538000	25.599964	0.000752	20.736833
1340.336559	-2.998600	3.497700	-10.487000	25.642503	0.000751	20.738779
1341.336981	-2.996800	3.498500	-10.483000	25.624067	0.000751	20.740177
1342.336387	-3.023200	3.496500	-10.570000	25.653183	0.000750	20.734806
1343.338990	-2.988900	3.497000	-10.451000	25.587242	0.000750	20.748712
1344.339572	-2.991200	3.494400	-10.451000	25.607414	0.000749	20.741469
1345.337482	-3.011200	3.494600	-10.521000	25.586689	0.000748	20.718284
1346.338722	-2.975900	3.495900	-10.402000	25.557823	0.000748	20.724381
1347.340115	-2.995600	3.494800	-10.468000	25.546418	0.000748	20.730472
1348.338478	-3.010900	3.494300	-10.520000	25.538434	0.000748	20.766551
1349.339082	-2.977200	3.495000	-10.404000	25.525969	0.000747	20.749291
1350.339962	-2.976100	3.495400	-10.402000	25.536968	0.000747	20.744690
1351.338050	-3.001100	3.494000	-10.484000	25.538189	0.000745	20.740700
1352.341626	-3.003000	3.492900	-10.488000	25.509020	0.000745	20.743176
1353.340151	-2.996800	3.493100	-10.466000	25.495052	0.000745	20.735786
1354.340644	-2.981600	3.494400	-10.418000	25.491998	0.000746	20.758325
1355.351701	-2.979000	3.494400	-10.408000	25.510370	0.000744	20.753067
1356.341445	-2.988700	3.491900	-10.436000	25.529575	0.000743	20.746274
1357.340939	-2.987700	3.492900	-10.434000	25.574281	0.000742	20.747075
1358.340991	-3.022400	3.491200	-10.551000	25.564838	0.000741	20.739014
1359.342150	-2.974400	3.492800	-10.387000	25.577715	0.000743	20.753369
1360.341394	-3.004000	3.490300	-10.484000	25.545432	0.000740	20.738490
1361.342379	-2.988300	3.491000	-10.432000	25.517876	0.000742	20.760130
1362.342048	-3.007700	3.488000	-10.489000	25.551423	0.000739	20.752094
1363.340599	-3.016900	3.489300	-10.526000	25.572375	0.000740	20.740419
1364.343462	-2.990400	3.487600	-10.428000	25.583779	0.000739	20.747131
1365.340975	-2.978900	3.491300	-10.399000	25.576428	0.000738	20.749231
1366.341512	-3.007900	3.488200	-10.490000	25.608532	0.000738	20.740222
1367.341934	-3.000300	3.488100	-10.464000	25.608060	0.000741	20.767724
1368.340565	-2.989300	3.488200	-10.425000	25.621849	0.000737	20.755494
1369.340902	-3.024000	3.486700	-10.543000	25.624210	0.000736	20.755968
1370.341452	-3.018100	3.487400	-10.524000	25.617681	0.000736	20.754152
1371.341254	-3.016100	3.485700	-10.512000	25.618226	0.000736	20.751381
1372.340979	-3.015400	3.486700	-10.512000	25.650256	0.000735	20.754152
1373.346247	-2.976300	3.485900	-10.374000	25.609134	0.000736	20.757896
1374.341690	-3.009600	3.486200	-10.491000	25.607123	0.000735	20.754928
1375.342195	-2.999400	3.483700	-10.447000	25.583713	0.000733	20.764134
1376.344134	-2.999500	3.485400	-10.453000	25.536824	0.000733	20.759245
1377.342108	-2.991600	3.484500	-10.424000	25.574270	0.000733	20.760815
1378.343201	-2.993400	3.484900	-10.430000	25.602076	0.000731	20.773568
1379.346389	-3.004400	3.484700	-10.468000	25.624388	0.000734	20.770372
1380.342448	-2.997500	3.483900	-10.441000	25.660421	0.000731	20.773371
1381.342900	-2.971700	3.483800	-10.351000	25.702964	0.000732	20.750193
1382.342372	-3.017600	3.483500	-10.510000	25.743604	0.000730	20.772996
1383.343086	-3.010000	3.480700	-10.476000	25.756601	0.000731	20.774197
1384.342233	-3.012300	3.481600	-10.487000	25.750716	0.000730	20.763070
1385.343806	-3.007000	3.480000	-10.463000	25.729369	0.000730	20.767706
1386.347794	-3.025400	3.480800	-10.529000	25.716696	0.000730	20.802393
1387.344330	-3.020600	3.479400	-10.507000	25.738068	0.000728	20.748943
1388.347589	-2.986600	3.480800	-10.393000	25.709003	0.000727	20.774277
1389.350060	-3.011000	3.478200	-10.471000	25.708752	0.000727	20.777344
1390.348367	-3.016000	3.478600	-10.491000	25.718934	0.000728	20.770502
1391.347807	-3.007000	3.477700	-10.456000	25.752034	0.000727	20.757281
1392.352960	-3.001200	3.479100	-10.440000	25.766245	0.000727	20.763495
1393.349769	-2.996500	3.478800	-10.422000	25.803014	0.000725	20.773877
1394.348503	-3.004600	3.479000	-10.452000	25.812755	0.000724	20.767067
1395.351481	-2.990800	3.477800	-10.401000	25.789871	0.000725	20.766838
1396.351168	-2.993900	3.477200	-10.409000	25.807710	0.000726	20.786181
1397.351224	-2.993300	3.476600	-10.406000	25.820804	0.000724	20.774204
1398.351866	-2.982000	3.477200	-10.367000	25.815126	0.000723	20.789363
1399.350633	-2.993900	3.475800	-10.405000	25.789749	0.000722	20.779518
1400.351433	-2.994700	3.476600	-10.410000	25.749415	0.000723	20.756547
1401.353124	-3.015500	3.475200	-10.478000	25.708297	0.000722	20.766930
1402.353228	-2.990700	3.474900	-10.392000	25.706262	0.000722	20.770101
1403.354039	-2.993900	3.475500	-10.404000	25.695698	0.000721	20.755697
1404.354866	-2.994200	3.475100	-10.404000	25.689040	0.000722	20.771296
1405.352274	-2.996700	3.474600	-10.412000	25.672787	0.000720	20.791007
1406.352618	-3.011100	3.473500	-10.458000	25.705758	0.000719	20.774812
1407.353405	-3.008400	3.472200	-10.445000	25.718725	0.000722	20.766498
1408.353115	-2.983100	3.472800	-10.359000	25.733708	0.000719	20.783919
1409.355046	-3.008900	3.471500	-10.445000	25.759517	0.000718	20.786609
1410.354497	-3.015400	3.472000	-10.468000	25.781777	0.000720	20.788106
1411.354910	-2.977000	3.473300	-10.339000	25.766053	0.000719	20.785587
1412.355011	-3.007000	3.471900	-10.439000	25.794644	0.000718	20.792970
1413.353353	-2.994600	3.470600	-10.392000	25.768437	0.000715	20.770439
1414.356081	-2.996100	3.471100	-10.399000	25.746894	0.000716	20.783888
1415.354266	-3.013700	3.470300	-10.456000	25.728019	0.000715	20.800490
1416.354991	-3.013800	3.467600	-10.450000	25.733432	0.000715	20.806875
1417.356521	-3.027900	3.468500	-10.501000	25.722931	0.000714	20.804862
1418.357151	-3.014000	3.468000	-10.451000	25.740212	0.000715	20.791400
1419.357918	-3.002500	3.468600	-10.413000	25.747324	0.000714	20.784794
1420.357176	-3.014500	3.467700	-10.452000	25.772563	0.000713	20.780273
1421.358833	-3.000400	3.467600	-10.403000	25.814403	0.000713	20.803335
1422.357434	-2.995800	3.466800	-10.385000	25.831647	0.000714	20.807855
1423.358479	-3.004200	3.466100	-10.411000	25.870303	0.000712	20.783150
1424.359674	-3.013700	3.465000	-10.441000	25.906621	0.000713	20.792608
1425.359651	-2.991400	3.468200	-10.374000	25.935062	0.000712	20.794628
1426.358506	-2.999900	3.465800	-10.396000	25.957105	0.000711	20.810608
1427.358950	-3.009600	3.464400	-10.425000	25.921235	0.000709	20.808238
1428.362051	-3.024100	3.464000	-10.474000	25.928989	0.000710	20.809390
1429.359482	-2.995500	3.465500	-10.379000	25.961016	0.000708	20.807426
1430.364209	-3.021900	3.464200	-10.467000	25.928542	0.000709	20.805147
1431.360899	-3.021200	3.462800	-10.461000	25.937265	0.000710	20.817703
1432.361197	-2.997000	3.463700	-10.379000	25.944075	0.000709	20.818855
1433.362296	-3.010000	3.462500	-10.421000	25.939404	0.000708	20.812740
1434.361314	-2.993400	3.462800	-10.365000	25.889301	0.000707	20.805080
1435.362671	-3.003600	3.462500	-10.398000	25.862471	0.000707	20.798516
1436.363603	-3.006200	3.461100	-10.402000	25.851891	0.000705	20.816811
1437.362636	-3.003900	3.461300	-10.396000	25.862282	0.000705	20.812550
1438.369975	-3.006100	3.460200	-10.402000	25.857065	0.000706	20.818215
1439.364787	-2.991500	3.460100	-10.350000	25.870753	0.000705	20.834810
1440.363431	-3.022500	3.461000	-10.459000	25.876393	0.000706	20.838105
1441.368182	-3.011200	3.458600	-10.413000	25.871973	0.000703	20.807113
1442.365298	-3.001100	3.460300	-10.384000	25.907145	0.000703	20.804514
1443.365366	-2.993900	3.458800	-10.354000	25.922630	0.000704	20.817699
1444.370751	-2.984300	3.459400	-10.322000	25.893612	0.000703	20.818893
1445.365503	-2.998400	3.457700	-10.367000	25.870141	0.000703	20.818549
1446.366982	-2.991100	3.458000	-10.342000	25.828255	0.000702	20.826258
1447.369009	-2.999100	3.457400	-10.367000	25.843635	0.000700	20.837441
1448.365829	-3.007700	3.458200	-10.400000	25.855761	0.000702	20.818802
1449.366055	-2.978200	3.459500	-10.300000	25.812905	0.000700	20.814159
1450.370625	-2.998900	3.456500	-10.365000	25.837101	0.000698	20.829454
1451.369705	-3.049300	3.454400	-10.531000	25.853659	0.000701	20.826174
1452.366910	-3.018600	3.455000	-10.427000	25.895643	0.000699	20.820934
1453.366555	-3.006800	3.455000	-10.387000	25.888759	0.000698	20.833458
1454.366943	-2.978400	3.456400	-10.294000	25.868861	0.000698	20.833858
1455.368601	-3.000900	3.454900	-10.366000	25.847443	0.000698	20.800489
1456.366308	-2.989600	3.455900	-10.330000	25.858631	0.000698	20.822159
1457.367144	-3.019100	3.453000	-10.424000	25.890500	0.000697	20.833785
1458.367940	-3.002200	3.452900	-10.366000	25.921179	0.000696	20.817664
1459.366497	-2.995400	3.453300	-10.343000	25.919486	0.000696	20.840145
1460.368820	-3.008700	3.453000	-10.388000	25.943913	0.000695	20.849038
1461.365819	-3.005700	3.452900	-10.377000	25.949381	0.000694	20.840306
1462.366020	-2.996000	3.451700	-10.339000	25.965445	0.000694	20.826574
1463.369644	-2.998800	3.451200	-10.349000	25.921325	0.000693	20.842941
1464.368369	-3.016400	3.450400	-10.407000	25.940781	0.000694	20.826925
1465.369566	-3.004100	3.450900	-10.366000	25.901981	0.000694	20.841999
1466.368299	-2.996400	3.451900	-10.340000	25.917354	0.000691	20.832787
1467.368208	-2.993400	3.450700	-10.328000	25.936533	0.000692	20.838779
1468.368467	-2.990600	3.451200	-10.320000	25.959702	0.000692	20.844511
1469.370528	-3.005100	3.448400	-10.361000	25.935817	0.000692	20.835214
1470.370202	-3.018300	3.447500	-10.405000	25.935540	0.000692	20.843471
1471.369228	-3.009300	3.447200	-10.372000	25.913504	0.000690	20.821334
1472.369848	-3.008400	3.447400	-10.370000	25.932286	0.000690	20.849684
1473.368825	-3.039400	3.445700	-10.470000	25.907792	0.000690	20.842147
1474.369938	-3.001200	3.447800	-10.346000	25.947095	0.000690	20.835639
1475.370766	-2.980100	3.448100	-10.274000	25.949203	0.000689	20.843446
1476.369858	-2.999000	3.447600	-10.338000	25.963662	0.000687	20.837585
1477.371104	-2.987300	3.447000	-10.296000	26.000873	0.000688	20.842252
1478.374884	-3.025200	3.444900	-10.419000	26.013315	0.000688	20.834838
1479.372059	-3.031200	3.444900	-10.440000	26.035551	0.000685	20.826834
1480.372688	-3.020100	3.444100	-10.399000	26.056316	0.000687	20.832524
1481.372228	-3.002700	3.446400	-10.347000	26.055372	0.000685	20.858601
1482.378776	-2.984200	3.445200	-10.281000	26.037268	0.000683	20.814808
1483.375175	-2.996000	3.443800	-10.317000	26.033118	0.000683	20.827234
1484.371459	-2.986400	3.444000	-10.284000	25.957957	0.000685	20.841810
1485.373255	-3.019500	3.444600	-10.399000	25.930590	0.000685	20.837075
1486.375556	-3.011000	3.444600	-10.371000	25.866823	0.000683	20.830862
1487.379044	-3.003400	3.442300	-10.336000	25.851670	0.000682	20.823701
1488.376499	-3.004200	3.442400	-10.340000	25.827793	0.000683	20.833855
1489.377916	-3.003100	3.441100	-10.333000	25.850897	0.000682	20.818183
1490.373823	-2.995100	3.442300	-10.308000	25.874602	0.000682	20.818289
1491.375204	-2.999500	3.442200	-10.324000	25.862477	0.000683	20.818436
1492.376497	-3.016400	3.439000	-10.372000	25.892611	0.000680	20.831164
1493.374559	-3.002100	3.440500	-10.327000	25.892335	0.000682	20.816662
1494.374354	-3.002900	3.441400	-10.333000	25.888437	0.000681	20.826971
1495.388733	-2.976800	3.438800	-10.236000	25.931859	0.000681	20.829816
1496.374158	-3.016600	3.438600	-10.373000	25.937148	0.000681	20.826595
1497.377080	-2.992500	3.440400	-10.295000	25.963278	0.000678	20.830560
1498.375366	-2.992900	3.438400	-10.290000	25.954740	0.000678	20.811552
1499.374657	-2.993800	3.439000	-10.294000	25.969591	0.000681	20.813670
1500.373421	-2.995800	3.437600	-10.296000	25.960373	0.000679	20.838547
1501.374089	-2.989900	3.436800	-10.275000	25.965784	0.000677	20.822173
1502.374808	-2.987300	3.438600	-10.271000	25.979936	0.000676	20.812209
1503.374681	-2.989000	3.436700	-10.270000	25.935799	0.000676	20.797739
1504.382838	-2.951500	3.438100	-10.147000	25.879780	0.000677	20.812585
1505.378469	-3.021700	3.435100	-10.379000	25.858068	0.000675	20.822068
1506.375449	-3.007900	3.433700	-10.328000	25.846733	0.000674	20.825380
1507.380340	-3.014300	3.434100	-10.351000	25.819583	0.000674	20.814703
1508.383827	-3.003500	3.435100	-10.317000	25.818713	0.000673	20.799604
1509.391247	-3.042800	3.432700	-10.443000	25.841069	0.000674	20.817319
1510.379955	-2.997200	3.433200	-10.289000	25.877389	0.000675	20.803070
1511.377737	-3.014900	3.432700	-10.348000	25.901160	0.000670	20.802768
1512.378532	-3.006500	3.433300	-10.321000	25.915448	0.000672	20.822338
1513.379847	-2.987400	3.431800	-10.251000	25.953751	0.000672	20.820516
1514.390756	-3.007700	3.431600	-10.320000	25.954346	0.000671	20.779861
1515.377690	-2.984300	3.433000	-10.244000	25.971042	0.000671	20.817499
1516.382388	-3.011200	3.430700	-10.329000	25.932009	0.000668	20.802466
1517.380790	-2.985900	3.431800	-10.246000	25.925751	0.000669	20.797602
1518.380383	-2.987500	3.431500	-10.250000	25.925458	0.000669	20.799678
1519.391735	-3.014400	3.430200	-10.339000	25.915749	0.000668	20.784708
1520.384452	-2.975600	3.430100	-10.204000	25.868819	0.000670	20.809635
1521.381145	-2.980800	3.431100	-10.226000	25.849394	0.000669	20.804819
1522.380054	-2.992700	3.429300	-10.262000	25.794167	0.000669	20.787276
1523.380673	-2.994900	3.429200	-10.269000	25.806765	0.000666	20.806094
1524.380449	-3.004900	3.428800	-10.302000	25.819234	0.000669	20.806765
1525.382628	-2.999900	3.429300	-10.286000	25.854624	0.000667	20.802961
1526.388227	-3.010800	3.426700	-10.316000	25.864799	0.000665	20.774776
1527.381405	-3.026900	3.425900	-10.368000	25.864928	0.000665	20.800036
1528.380121	-3.022000	3.426600	-10.354000	25.886811	0.000664	20.803053
1529.382075	-3.000600	3.428000	-10.285000	25.886272	0.000666	20.784968
1530.386261	-3.023200	3.426000	-10.356000	25.881049	0.000664	20.791575
1531.395518	-2.981600	3.425600	-10.213000	25.885517	0.000667	20.793693
1532.385178	-3.020100	3.425600	-10.345000	25.918759	0.000665	20.776827
1533.387964	-2.996300	3.425500	-10.263000	25.907407	0.000665	20.785811
1534.384494	-2.993900	3.426300	-10.257000	25.940770	0.000664	20.791353
1535.390297	-2.969500	3.426100	-10.173000	25.949413	0.000664	20.804777
1536.387254	-2.994000	3.424800	-10.252000	25.935750	0.000664	20.785836
1537.385490	-3.011700	3.423500	-10.310000	25.951227	0.000663	20.813238
1538.387158	-3.020700	3.424500	-10.344000	25.963669	0.000664	20.796815
1539.387556	-3.002200	3.422600	-10.275000	25.945091	0.000662	20.783841
1540.389650	-3.008700	3.422400	-10.296000	25.973741	0.000662	20.771846
1541.389883	-3.002500	3.421200	-10.271000	25.971350	0.000661	20.803583
1542.387793	-3.023300	3.421500	-10.343000	25.944798	0.000660	20.793029
1543.396831	-2.979900	3.423400	-10.199000	25.915266	0.000660	20.788491
1544.387791	-2.998600	3.420700	-10.256000	25.894548	0.000658	20.798497
1545.389987	-2.988300	3.422500	-10.227000	25.903792	0.000658	20.794981
1546.389762	-2.961800	3.423000	-10.138000	25.922573	0.000659	20.769753
1547.390500	-2.986700	3.419400	-10.211000	25.905687	0.000655	20.775548
1548.394777	-3.022300	3.419000	-10.332000	25.906998	0.000655	20.803892
1549.395079	-2.988900	3.420500	-10.223000	25.911130	0.000656	20.794293
1550.390954	-3.035300	3.417700	-10.371000	25.890363	0.000656	20.785284
1551.393703	-3.014600	3.417500	-10.301000	25.895555	0.000653	20.798560
1552.392899	-2.997800	3.418900	-10.248000	25.903610	0.000654	20.761133
1553.389556	-3.015100	3.418000	-10.304000	25.878692	0.000654	20.779724
1554.390736	-2.999300	3.416200	-10.246000	25.873759	0.000652	20.786148
1555.393655	-3.012300	3.416100	-10.288000	25.872067	0.000654	20.791560
1556.394575	-3.009100	3.417200	-10.282000	25.843331	0.000652	20.771228
1557.394444	-2.989000	3.416700	-10.212000	25.882133	0.000652	20.788396
1558.395195	-2.998900	3.415200	-10.241000	25.869567	0.000650	20.788575
1559.393760	-2.980000	3.415900	-10.179000	25.847953	0.000652	20.787251
1560.393561	-2.999500	3.416800	-10.247000	25.832408	0.000648	20.779222
1561.393332	-3.013300	3.414400	-10.288000	25.858767	0.000651	20.782467
1562.399754	-3.014400	3.415300	-10.293000	25.823593	0.000649	20.779850
1563.393735	-2.991800	3.414400	-10.214000	25.864934	0.000648	20.759264
1564.394353	-2.993900	3.413400	-10.218000	25.894799	0.000648	20.784051
1565.397267	-2.979600	3.414700	-10.172000	25.913280	0.000647	20.789340
1566.404603	-2.983900	3.413500	-10.185000	25.940158	0.000647	20.766556
1567.395404	-3.009600	3.413100	-10.271000	25.972699	0.000646	20.778386
1568.396185	-3.013700	3.412500	-10.283000	25.976205	0.000645	20.785702
1569.398565	-3.005300	3.412700	-10.256000	25.974650	0.000645	20.778923
1570.399276	-3.009400	3.411200	-10.263000	25.989077	0.000644	20.777771
1571.398407	-3.010300	3.410900	-10.267000	25.955845	0.000643	20.770936
1572.398967	-2.995300	3.411600	-10.218000	25.956470	0.000645	20.772987
1573.402541	-3.004700	3.411100	-10.249000	25.936501	0.000642	20.751502
1574.403485	-3.008900	3.410900	-10.261000	25.901746	0.000643	20.752622
1575.399732	-3.003000	3.409700	-10.238000	25.886447	0.000642	20.773289
1576.400930	-2.987500	3.408300	-10.181000	25.897953	0.000642	20.761614
1577.402459	-2.986000	3.409400	-10.179000	25.937274	0.000642	20.769348
1578.400211	-2.979800	3.409500	-10.157000	25.965591	0.000642	20.757494
1579.404872	-3.007700	3.408200	-10.250000	25.961571	0.000640	20.774318
1580.403526	-2.985500	3.409100	-10.176000	25.995656	0.000639	20.757828
1581.405457	-2.989900	3.408300	-10.189000	25.974541	0.000642	20.765537
1582.403700	-3.029200	3.405900	-10.316000	25.987063	0.000638	20.778593
1583.408371	-2.996700	3.407500	-10.209000	26.017844	0.000639	20.748351
1584.402039	-2.984600	3.408800	-10.172000	25.992653	0.000639	20.788950
1585.403511	-3.014900	3.405600	-10.267000	26.005655	0.000637	20.774037
1586.410556	-3.014700	3.406500	-10.269000	25.997950	0.000638	20.775305
1587.410419	-3.003700	3.405300	-10.227000	25.991692	0.000636	20.757638
1588.404134	-3.004200	3.404600	-10.227000	26.016355	0.000637	20.754442
1589.406740	-2.977000	3.404800	-10.135000	26.047209	0.000637	20.764578
1590.402417	-2.986100	3.405200	-10.168000	26.074734	0.000637	20.742921
1591.412480	-2.975300	3.405500	-10.131000	26.046639	0.000635	20.714217
1592.410680	-2.988500	3.402600	-10.168000	26.020683	0.000633	20.781076
1593.408231	-3.007300	3.403700	-10.235000	26.005483	0.000633	20.760588
1594.406916	-3.003300	3.403300	-10.220000	26.005931	0.000634	20.769573
1595.411429	-3.005100	3.402500	-10.224000	25.993440	0.000632	20.747066
1596.410011	-3.036300	3.401400	-10.326000	25.974041	0.000632	20.755078
1597.408185	-3.018000	3.401300	-10.264000	25.980054	0.000634	20.781508
1598.412797	-3.011300	3.402800	-10.245000	26.004344	0.000631	20.763711
1599.411022	-2.993600	3.401800	-10.183000	25.991853	0.000632	20.735988
1600.409984	-2.996200	3.401000	-10.189000	26.030975	0.000634	20.750638
1601.417809	-2.999700	3.399700	-10.197000	26.033310	0.000631	20.745872
1602.412161	-2.982100	3.400900	-10.141000	26.015848	0.000630	20.748717
1603.417386	-3.017500	3.399800	-10.257000	25.991437	0.000629	20.754062
1604.415745	-3.006000	3.398400	-10.213000	25.973975	0.000629	20.753114
1605.413781	-2.997500	3.398700	-10.187000	25.948017	0.000628	20.756907
1606.412238	-2.994800	3.400500	-10.183000	25.923653	0.000629	20.759457
1607.418488	-2.993600	3.398400	-10.173000	25.936372	0.000631	20.736673
1608.420654	-3.014500	3.397300	-10.241000	25.967570	0.000628	20.745257
1609.411775	-3.032500	3.396600	-10.299000	25.998051	0.000628	20.752173
1610.419331	-2.982400	3.396400	-10.129000	26.045919	0.000626	20.740522
1611.412608	-2.989600	3.397600	-10.157000	26.054665	0.000626	20.760216
1612.414192	-2.990800	3.396000	-10.156000	26.073493	0.000624	20.729820
1613.418960	-3.005500	3.395600	-10.204000	26.065967	0.000625	20.744544
1614.418458	-3.024500	3.395600	-10.268000	26.052900	0.000624	20.732837
1615.413627	-3.006600	3.395000	-10.207000	26.051687	0.000623	20.751059
1616.415024	-3.022000	3.395400	-10.260000	26.000498	0.000624	20.735665
1617.413981	-2.989700	3.396500	-10.154000	25.951968	0.000621	20.747600
1618.412994	-2.977900	3.395100	-10.110000	25.919524	0.000621	20.751990
1619.415281	-3.013300	3.394600	-10.227000	25.914773	0.000621	20.739156
1620.414155	-3.008800	3.393500	-10.209000	25.906854	0.000622	20.734045
1621.414642	-2.998200	3.393300	-10.172000	25.925317	0.000623	20.759233
1622.414580	-3.017300	3.392200	-10.234000	25.917765	0.000620	20.737895
1623.418822	-2.989100	3.392200	-10.139000	25.893093	0.000620	20.738713
1624.416583	-3.011800	3.392400	-10.216000	25.888177	0.000618	20.738042
1625.418291	-2.992300	3.390900	-10.146000	25.883132	0.000619	20.753838
1626.418318	-3.000000	3.391700	-10.174000	25.867759	0.000619	20.734126
1627.422046	-2.992900	3.390900	-10.148000	25.865154	0.000619	20.736725
1628.418837	-3.005500	3.389000	-10.185000	25.921199	0.000618	20.733283
1629.419782	-3.026300	3.388600	-10.253000	25.933470	0.000618	20.751302
1630.422862	-3.016900	3.390300	-10.227000	25.955107	0.000616	20.748857
1631.422207	-2.986800	3.391500	-10.128000	25.967605	0.000617	20.750982
1632.423877	-3.015300	3.388900	-10.218000	26.000593	0.000614	20.729121
1633.422856	-3.031400	3.389100	-10.273000	25.992888	0.000613	20.737976
1634.422381	-3.029500	3.387600	-10.261000	25.987654	0.000616	20.733666
1635.423393	-3.002500	3.388300	-10.172000	25.966808	0.000615	20.719834
1636.424835	-3.000600	3.386500	-10.161000	26.016320	0.000612	20.723585
1637.422376	-3.029300	3.386200	-10.256000	26.020040	0.000614	20.734435
1638.420535	-2.990700	3.387200	-10.128000	26.007616	0.000613	20.733332
1639.424355	-3.012400	3.388000	-10.205000	26.019739	0.000611	20.721804
1640.423115	-2.993900	3.387000	-10.139000	25.985718	0.000611	20.735514
1641.422531	-2.999100	3.385400	-10.152000	25.967483	0.000614	20.718141
1642.426809	-3.036000	3.385800	-10.278000	25.928569	0.000609	20.733575
1643.421939	-3.010100	3.384300	-10.186000	25.913955	0.000611	20.738808
1644.422865	-2.999900	3.385700	-10.156000	25.924842	0.000609	20.735521
1645.422027	-3.007300	3.384000	-10.176000	25.935347	0.000609	20.710038
1646.431929	-3.004800	3.384300	-10.167000	25.963672	0.000609	20.714312
1647.425526	-2.982400	3.385600	-10.096000	25.966277	0.000610	20.729732
1648.421702	-2.979400	3.384700	-10.084000	25.988035	0.000608	20.719349
1649.424635	-3.010100	3.383900	-10.184000	26.018296	0.000608	20.735054
1650.422529	-2.978900	3.383800	-10.077000	26.033869	0.000609	20.744537
1651.431123	-3.026200	3.381900	-10.232000	26.046905	0.000608	20.718278
1652.428975	-3.019900	3.380900	-10.209000	26.057311	0.000608	20.727786
1653.424948	-2.990700	3.382200	-10.114000	26.033471	0.000605	20.722799
1654.425873	-2.966200	3.382100	-10.030000	26.027262	0.000607	20.740269
1655.422738	-2.989400	3.381100	-10.106000	26.000061	0.000604	20.725268
1656.422868	-2.987700	3.381200	-10.101000	26.012632	0.000605	20.717983
1657.423226	-2.977300	3.381600	-10.067000	26.011063	0.000605	20.702180
1658.424175	-2.993500	3.381000	-10.120000	26.008948	0.000604	20.728506
1659.424650	-3.021500	3.378800	-10.208000	26.023829	0.000604	20.726388
1660.425598	-3.012300	3.379300	-10.179000	26.045269	0.000602	20.718531
1661.428713	-2.985900	3.380000	-10.091000	26.037784	0.000601	20.716701
1662.426263	-2.979500	3.379900	-10.069000	26.018386	0.000603	20.725661
1663.426261	-2.990200	3.380200	-10.105000	26.042081	0.000601	20.725760
1664.426132	-2.999100	3.379600	-10.135000	26.049950	0.000601	20.726553
1665.425727	-3.012900	3.378300	-10.178000	26.032349	0.000599	20.712187
1666.426345	-3.014100	3.378300	-10.182000	26.032513	0.000601	20.708085
1667.433218	-2.997700	3.378200	-10.125000	26.041137	0.000598	20.734295
1668.426429	-2.992600	3.377100	-10.106000	26.081721	0.000597	20.730501
1669.427607	-2.994100	3.378600	-10.115000	26.043773	0.000597	20.697112
1670.430309	-3.009900	3.376600	-10.163000	26.013010	0.000599	20.709827
1671.430058	-2.992000	3.376800	-10.102000	26.017387	0.000598	20.708060
1672.427366	-3.009800	3.376200	-10.160000	26.008444	0.000598	20.706188
1673.427629	-2.986400	3.376400	-10.082000	26.022253	0.000596	20.729546
1674.428515	-2.983600	3.376500	-10.073000	26.052561	0.000597	20.704994
1675.429068	-2.996100	3.374500	-10.109000	26.073440	0.000597	20.714119
1676.431823	-2.971300	3.374500	-10.025000	26.056102	0.000596	20.711871
1677.429130	-2.996900	3.373200	-10.109000	26.063083	0.000595	20.710824
1678.436025	-2.996600	3.374700	-10.112000	26.056965	0.000593	20.719377
1679.429737	-3.015000	3.372900	-10.168000	26.117044	0.000594	20.707196
1680.435090	-3.011500	3.371400	-10.152000	26.137936	0.000593	20.711594
1681.432600	-2.992300	3.372700	-10.091000	26.192966	0.000591	20.717105
1682.430537	-2.999700	3.372500	-10.115000	26.196514	0.000592	20.718299
1683.433368	-3.013900	3.370200	-10.156000	26.161401	0.000591	20.697238
1684.434768	-3.012800	3.371600	-10.157000	26.094344	0.000591	20.716156
1685.432950	-2.991600	3.371100	-10.084000	26.067323	0.000590	20.714611
1686.433378	-3.025600	3.369600	-10.194000	26.026308	0.000591	20.703272
1687.442486	-3.004800	3.370100	-10.124000	26.053851	0.000590	20.712928
1688.435198	-2.987900	3.371700	-10.073000	26.035495	0.000590	20.691639
1689.435240	-2.992700	3.370800	-10.086000	26.029783	0.000588	20.697280
1690.434452	-3.015300	3.370200	-10.161000	26.052313	0.000589	20.700476
1691.438833	-3.011000	3.367800	-10.139000	26.037903	0.000588	20.723459
1692.434115	-2.975700	3.370900	-10.031000	26.040986	0.000587	20.727979
1693.435031	-2.998400	3.367600	-10.097000	26.053581	0.000586	20.699855
1694.435436	-3.004000	3.368000	-10.117000	26.082833	0.000587	20.702219
1695.434943	-2.989400	3.367800	-10.067000	26.109951	0.000586	20.699595
1696.435538	-2.972600	3.367800	-10.010000	26.121424	0.000585	20.721555
1697.437022	-3.003600	3.367000	-10.112000	26.090904	0.000587	20.698948
1698.435866	-2.980400	3.368900	-10.040000	26.093484	0.000586	20.710076
1699.437051	-3.008000	3.366700	-10.126000	26.107249	0.000585	20.723908
1700.441064	-2.987700	3.365700	-10.055000	26.108081	0.000583	20.701983
1701.437372	-3.003200	3.365700	-10.107000	26.154179	0.000584	20.708000
1702.437309	-2.985400	3.365600	-10.047000	26.174193	0.000583	20.719577
1703.438577	-2.987300	3.364700	-10.050000	26.177503	0.000582	20.709627
1704.440443	-2.979400	3.366700	-10.029000	26.193400	0.000581	20.716118
1705.441423	-2.986200	3.365300	-10.049000	26.204294	0.000580	20.721850
1706.439551	-2.965400	3.365300	-9.978400	26.186909	0.000580	20.709121
1707.443430	-3.005700	3.364700	-10.112000	26.158800	0.000580	20.706954
1708.444502	-2.996700	3.363700	-10.079000	26.106047	0.000579	20.691878
1709.441916	-3.022500	3.363700	-10.165000	26.097651	0.000578	20.726118
1710.442818	-3.008300	3.362400	-10.114000	26.109399	0.000577	20.715636
1711.449488	-3.006600	3.363200	-10.111000	26.114265	0.000579	20.714361
1712.442100	-2.997300	3.362200	-10.076000	26.156035	0.000577	20.708443
1713.441732	-2.981700	3.361300	-10.022000	26.125345	0.000577	20.714590
1714.442615	-2.987600	3.361500	-10.042000	26.113419	0.000576	20.724418
1715.441334	-2.981600	3.362000	-10.023000	26.127527	0.000575	20.699711
1716.447942	-2.994500	3.361000	-10.064000	26.152316	0.000576	20.704231
1717.441585	-2.987000	3.360400	-10.036000	26.180474	0.000573	20.714035
1718.445603	-2.986000	3.360500	-10.033000	26.174071	0.000575	20.726567
1719.444283	-2.981300	3.360100	-10.016000	26.117942	0.000574	20.696718
1720.443956	-2.993400	3.359600	-10.056000	26.109417	0.000574	20.710912
1721.442022	-3.012800	3.358600	-10.118000	26.074674	0.000572	20.719152
1722.443830	-3.002500	3.359200	-10.085000	26.044919	0.000573	20.708222
1723.442061	-2.985500	3.358100	-10.025000	26.023357	0.000572	20.704576
1724.445358	-2.985400	3.358600	-10.026000	25.969507	0.000571	20.708794
1725.442626	-3.017300	3.356500	-10.126000	25.949831	0.000571	20.713683
1726.445968	-3.006600	3.356300	-10.091000	25.927901	0.000571	20.722946
1727.446632	-3.012900	3.356300	-10.111000	25.924891	0.000570	20.711861
1728.442878	-3.008600	3.356200	-10.097000	25.957267	0.000572	20.715939
1729.442492	-2.993300	3.356900	-10.047000	25.978806	0.000569	20.690160
1730.444014	-3.006800	3.355400	-10.087000	26.041095	0.000571	20.712914
1731.444631	-2.985400	3.355300	-10.016000	26.055724	0.000567	20.712440
1732.444914	-3.007500	3.354900	-10.089000	26.119179	0.000568	20.717877
1733.446000	-2.999000	3.355200	-10.060000	26.151194	0.000568	20.714010
1734.444802	-3.003600	3.355000	-10.077000	26.147835	0.000567	20.715851
1735.445846	-2.977300	3.355800	-9.989400	26.170191	0.000565	20.723143
1736.446427	-2.977100	3.354700	-9.986400	26.212732	0.000565	20.728432
1737.445876	-2.986200	3.353800	-10.014000	26.214294	0.000563	20.726683
1738.447640	-2.984300	3.353700	-10.007000	26.229994	0.000565	20.713536
1739.450685	-2.993900	3.354200	-10.041000	26.271141	0.000566	20.721221
1740.449918	-2.987300	3.353800	-10.017000	26.271564	0.000563	20.727811
1741.447043	-2.972900	3.354000	-9.970100	26.302159	0.000564	20.715408
1742.446335	-2.999100	3.352200	-10.053000	26.335161	0.000563	20.715858
1743.447307	-2.987000	3.353000	-10.015000	26.295033	0.000562	20.717730
1744.449590	-2.981000	3.351000	-9.989000	26.236177	0.000560	20.728285
1745.448719	-2.968200	3.351900	-9.947900	26.205378	0.000562	20.731000
1746.449237	-2.998300	3.350300	-10.044000	26.211096	0.000561	20.721573
1747.448089	-2.987900	3.350800	-10.011000	26.206231	0.000561	20.714312
1748.448066	-3.016200	3.350700	-10.105000	26.208282	0.000561	20.707839
1749.449279	-2.989100	3.350700	-10.015000	26.231060	0.000559	20.726936
1750.451978	-2.988000	3.349800	-10.007000	26.240798	0.000559	20.716332
1751.448409	-2.970700	3.349600	-9.949100	26.207101	0.000559	20.718980
1752.449747	-2.997500	3.348400	-10.036000	26.190684	0.000556	20.733304
1753.450777	-2.982900	3.348800	-9.987700	26.206052	0.000556	20.723617
1754.449954	-3.001700	3.347900	-10.048000	26.218971	0.000557	20.717157
1755.450918	-2.994600	3.348100	-10.025000	26.213504	0.000556	20.744857
1756.452247	-3.015800	3.346900	-10.093000	26.215042	0.000554	20.725064
1757.450922	-2.997400	3.346800	-10.030000	26.262177	0.000557	20.748249
1758.451085	-2.994000	3.347300	-10.021000	26.277258	0.000554	20.722152
1759.452393	-3.011500	3.346400	-10.076000	26.311993	0.000555	20.723870
1760.454429	-2.998300	3.347400	-10.035000	26.300971	0.000553	20.717533
1761.451592	-2.999700	3.346300	-10.037000	26.276290	0.000554	20.739672
1762.451607	-2.992600	3.346000	-10.012000	26.261761	0.000552	20.718907
1763.452148	-2.998400	3.345400	-10.030000	26.237876	0.000552	20.728569
1764.453608	-3.002600	3.344400	-10.041000	26.232011	0.000552	20.735004
1765.454716	-3.016900	3.344700	-10.090000	26.233161	0.000549	20.729995
1766.455814	-3.015600	3.343800	-10.083000	26.273361	0.000553	20.742419
1767.455726	-3.023900	3.341500	-10.103000	26.262233	0.000551	20.718907
1768.454587	-3.005900	3.343100	-10.048000	26.252716	0.000550	20.726887
1769.454039	-2.987900	3.343500	-9.989400	26.266650	0.000550	20.739468
1770.458083	-3.001300	3.343100	-10.033000	26.252569	0.000550	20.732904
1771.474656	-2.986400	3.342200	-9.980100	26.244751	0.000548	20.743539
1772.455015	-2.993500	3.342000	-10.003000	26.242196	0.000547	20.722005
1773.455809	-2.979400	3.342500	-9.957500	26.237893	0.000546	20.748028
1774.455195	-2.999600	3.340900	-10.020000	26.239186	0.000546	20.731309
1775.455079	-2.972700	3.342500	-9.935200	26.256546	0.000547	20.740694
1776.458918	-2.978800	3.341700	-9.952700	26.281553	0.000544	20.725521
1777.455729	-3.001500	3.341100	-10.027000	26.306216	0.000546	20.733237
1778.459738	-3.025800	3.338300	-10.099000	26.335786	0.000547	20.746360
1779.456719	-2.981800	3.340100	-9.958200	26.345896	0.000544	20.742770
1780.455374	-3.020800	3.338800	-10.084000	26.319231	0.000542	20.752008
1781.456612	-2.988700	3.339900	-9.980400	26.299342	0.000542	20.732019
1782.456630	-2.994100	3.338400	-9.993700	26.311927	0.000541	20.755099
1783.456019	-3.003900	3.337900	-10.026000	26.336957	0.000543	20.746588
1784.457404	-3.000900	3.338000	-10.016000	26.359830	0.000542	20.729746
1785.456802	-2.981800	3.337200	-9.949500	26.356429	0.000541	20.750986
1786.457817	-3.013800	3.335700	-10.052000	26.364139	0.000541	20.744509
1787.462137	-3.003800	3.335100	-10.017000	26.329422	0.000542	20.736170
1788.459001	-3.016800	3.336900	-10.066000	26.381692	0.000542	20.736546
1789.458625	-2.999600	3.336500	-10.007000	26.412039	0.000539	20.741917
1790.458639	-2.995600	3.336700	-9.993700	26.424329	0.000538	20.733406
1791.460016	-2.971800	3.335900	-9.911500	26.426485	0.000539	20.745057
1792.461279	-2.994900	3.336000	-9.989500	26.410435	0.000536	20.742201
1793.459550	-2.993500	3.333400	-9.977000	26.408702	0.000537	20.744727
1794.461128	-2.984000	3.334100	-9.947300	26.401332	0.000536	20.744432
1795.464427	-2.985100	3.333600	-9.949200	26.373033	0.000536	20.732584
1796.460402	-2.989300	3.333300	-9.962900	26.411637	0.000533	20.754790
1797.461605	-3.013000	3.332700	-10.041000	26.427335	0.000534	20.725521
1798.460674	-3.006200	3.331700	-10.014000	26.424665	0.000532	20.756030
1799.460386	-2.986500	3.332400	-9.951200	26.443486	0.000533	20.738910
1800.461254	-2.980800	3.332300	-9.931400	26.422387	0.000534	20.746627
1801.461262	-2.989200	3.332200	-9.958600	26.391949	0.000532	20.762503
1802.462891	-3.003600	3.331700	-10.005000	26.332040	0.000530	20.740698
1803.461874	-2.989000	3.331400	-9.956800	26.317526	0.000529	20.761674
1804.462043	-3.004000	3.330500	-10.004000	26.320008	0.000532	20.758004
1805.466715	-3.000500	3.330700	-9.992800	26.318777	0.000532	20.753448
1806.463827	-3.009300	3.329800	-10.019000	26.303582	0.000531	20.747186
1807.462488	-3.016900	3.329300	-10.042000	26.341805	0.000528	20.740554
1808.467531	-2.985800	3.329100	-9.939500	26.343716	0.000529	20.782780
1809.463567	-2.995000	3.329000	-9.969000	26.380204	0.000527	20.739792
1810.462487	-3.002900	3.328800	-9.995300	26.370923	0.000528	20.739473
1811.461844	-3.004400	3.328800	-9.999600	26.407777	0.000530	20.749487
1812.462454	-3.006100	3.328300	-10.003000	26.416153	0.000526	20.770234
1813.462681	-3.002600	3.326900	-9.988200	26.437089	0.000527	20.763775
1814.466511	-3.000900	3.327100	-9.983200	26.409311	0.000525	20.764780
1815.464828	-3.023400	3.326500	-10.055000	26.398216	0.000527	20.755051
1816.464715	-3.011600	3.325600	-10.014000	26.373121	0.000524	20.752115
1817.466857	-2.985500	3.326400	-9.928900	26.349913	0.000523	20.762455
1818.469277	-2.987700	3.327000	-9.939600	26.345618	0.000524	20.767622
1819.469126	-2.998000	3.325900	-9.969900	26.362431	0.000521	20.742319
1820.465658	-2.981400	3.324500	-9.911200	26.382977	0.000524	20.761546
1821.469402	-2.996000	3.327200	-9.967300	26.411339	0.000522	20.762076
1822.465050	-2.988000	3.324900	-9.932500	26.414697	0.000520	20.765452
1823.466843	-2.993700	3.324200	-9.950600	26.434982	0.000521	20.738898
1824.468502	-2.999000	3.323900	-9.967500	26.453283	0.000520	20.789535
1825.465046	-3.012400	3.323300	-10.010000	26.465978	0.000518	20.776217
1826.471973	-3.000900	3.323500	-9.972500	26.479291	0.000521	20.771581
1827.466131	-2.987700	3.322400	-9.925100	26.524853	0.000520	20.750047
1828.466240	-3.009100	3.320900	-9.991700	26.554528	0.000521	20.762333
1829.468923	-2.997900	3.321700	-9.957000	26.590408	0.000518	20.769003
1830.470087	-3.005200	3.322200	-9.983800	26.597158	0.000517	20.748761
1831.468823	-3.010200	3.321800	-9.997900	26.575241	0.000517	20.769404
1832.467611	-2.991400	3.321100	-9.933100	26.581087	0.000517	20.747778
1833.466878	-3.032300	3.319000	-10.063000	26.554200	0.000516	20.738295
1834.467201	-2.999300	3.319100	-9.954200	26.546066	0.000515	20.769000
1835.470506	-3.007100	3.320100	-9.983100	26.539959	0.000514	20.761912
1836.468415	-3.031100	3.319300	-10.059000	26.519448	0.000515	20.751252
1837.478067	-3.003300	3.320100	-9.970500	26.506174	0.000514	20.763988
1838.467651	-3.021900	3.318700	-10.027000	26.494136	0.000514	20.781761
1839.469884	-2.987200	3.320000	-9.916400	26.515842	0.000512	20.775130
1840.472576	-3.012400	3.317500	-9.992200	26.557132	0.000512	20.752148
1841.469290	-2.989600	3.318000	-9.918900	26.556710	0.000512	20.770690
1842.471079	-2.999300	3.317700	-9.949500	26.521786	0.000510	20.772569
1843.469328	-2.977800	3.319200	-9.882200	26.517744	0.000510	20.771825
1844.471817	-3.000800	3.316700	-9.950700	26.507471	0.000511	20.769085
1845.471162	-3.002600	3.315300	-9.953300	26.494783	0.000508	20.770557
1846.469983	-3.006500	3.316600	-9.970000	26.489228	0.000507	20.785836
1847.470661	-3.002300	3.315100	-9.951700	26.494392	0.000509	20.772535
1848.469133	-2.993500	3.315900	-9.924400	26.507282	0.000508	20.762258
1849.481933	-3.031800	3.313700	-10.045000	26.519676	0.000507	20.777561
1850.470398	-2.997500	3.315300	-9.937200	26.478539	0.000506	20.782204
1851.472209	-3.018200	3.313600	-9.999800	26.475684	0.000507	20.758946
1852.470659	-3.001500	3.315200	-9.949300	26.468119	0.000507	20.803974
1853.472336	-2.978200	3.313700	-9.868500	26.446761	0.000506	20.784877
1854.471831	-3.017100	3.313100	-9.995300	26.454047	0.000504	20.784140
1855.472140	-3.002600	3.312800	-9.946400	26.454372	0.000506	20.789208
1856.474385	-2.987700	3.313300	-9.898000	26.442554	0.000504	20.772588
1857.470167	-3.002200	3.311600	-9.940400	26.400715	0.000502	20.765623
1858.474105	-3.000400	3.313300	-9.940700	26.368299	0.000503	20.770502
1859.472864	-2.996100	3.310900	-9.919000	26.396826	0.000504	20.763611
1860.472833	-3.001000	3.310900	-9.935400	26.404748	0.000502	20.782479
1861.472040	-2.988200	3.311900	-9.895700	26.424855	0.000500	20.797473
1862.481641	-2.994900	3.311500	-9.916300	26.467319	0.000502	20.781359
1863.473311	-2.980000	3.311200	-9.866700	26.458014	0.000501	20.783385
1864.472884	-2.991200	3.310600	-9.902200	26.443488	0.000501	20.781113
1865.472919	-3.005500	3.309300	-9.945100	26.422259	0.000501	20.774475
1866.476193	-2.997600	3.309900	-9.920200	26.387534	0.000499	20.790783
1867.476347	-3.022200	3.307600	-9.995400	26.363784	0.000501	20.779241
1868.472330	-2.984100	3.308900	-9.872800	26.369722	0.000497	20.781889
1869.481110	-2.989200	3.308500	-9.888900	26.376131	0.000497	20.800185
1870.472712	-3.013200	3.309000	-9.970300	26.389966	0.000497	20.796546
1871.478549	-3.007400	3.308000	-9.947600	26.393227	0.000497	20.804091
1872.474994	-2.986500	3.307700	-9.877500	26.387314	0.000496	20.780130
1873.474343	-3.000100	3.306700	-9.919700	26.428658	0.000495	20.804614
1874.475491	-3.000800	3.308400	-9.926400	26.417011	0.000491	20.809503
1875.475554	-2.994600	3.306600	-9.899900	26.465454	0.000493	20.798924
1876.473310	-3.009100	3.306700	-9.948900	26.499841	0.000495	20.778961
1877.482421	-3.001900	3.306100	-9.923400	26.516523	0.000493	20.812797
1878.482723	-2.977200	3.305400	-9.839400	26.529745	0.000493	20.822295
1879.473995	-3.007900	3.304100	-9.936700	26.548728	0.000492	20.795384
1880.476528	-3.014800	3.305700	-9.963700	26.567271	0.000491	20.809282
1881.474964	-2.994100	3.304000	-9.891100	26.593595	0.000490	20.796863
1882.473370	-3.011900	3.303500	-9.948900	26.629589	0.000490	20.802700
1883.478359	-3.037400	3.302900	-10.031000	26.626490	0.000490	20.795318
1884.477227	-3.005100	3.302200	-9.922600	26.590821	0.000490	20.789333
1885.474958	-3.013200	3.303400	-9.952600	26.582998	0.000488	20.808970
1886.479362	-2.989600	3.303200	-9.874000	26.510478	0.000489	20.802454
1887.476876	-2.978800	3.303200	-9.838500	26.541496	0.000487	20.799494
1888.479034	-3.012300	3.302100	-9.945700	26.580094	0.000487	20.792775
1889.479748	-3.023400	3.301000	-9.978700	26.587316	0.000487	20.819475
1890.482387	-3.003000	3.301100	-9.912500	26.572579	0.000484	20.805135
1891.481700	-2.988200	3.301500	-9.864800	26.554858	0.000485	20.835210
1892.479031	-2.993600	3.300800	-9.880200	26.541625	0.000485	20.799150
1893.479218	-2.990700	3.301400	-9.871500	26.508337	0.000485	20.815001
1894.481522	-3.001100	3.300300	-9.903700	26.489737	0.000484	20.796305
1895.481275	-2.996400	3.301000	-9.890300	26.491509	0.000483	20.829380
1896.482905	-2.992400	3.300500	-9.875700	26.481505	0.000481	20.808893
1897.483261	-2.997000	3.300400	-9.890400	26.487214	0.000482	20.814158
1898.490519	-3.007300	3.299000	-9.918600	26.542908	0.000480	20.812293
1899.486706	-3.001500	3.299200	-9.901700	26.529970	0.000482	20.813038
1900.484145	-3.015800	3.298300	-9.946300	26.519819	0.000479	20.825594
1901.486026	-3.006100	3.296600	-9.909200	26.545414	0.000479	20.799639
1902.484284	-2.994200	3.296400	-9.868900	26.572503	0.000478	20.830188
1903.484680	-3.013800	3.296300	-9.933100	26.601804	0.000480	20.807011
1904.484842	-2.998500	3.295700	-9.881200	26.622305	0.000480	20.815293
1905.490183	-2.992300	3.296200	-9.862700	26.672553	0.000477	20.842098
1906.488701	-2.992100	3.295500	-9.859400	26.698688	0.000477	20.835182
1907.486879	-3.002000	3.294900	-9.890300	26.726944	0.000475	20.822813
1908.488047	-3.000800	3.294500	-9.885300	26.651116	0.000476	20.834772
1909.508418	-2.981200	3.294800	-9.821000	26.666362	0.000476	20.823547
1910.493478	-3.017000	3.294800	-9.938800	26.642399	0.000476	20.826009
1911.489519	-3.036400	3.293800	-10.000000	26.626093	0.000474	20.829058
1912.489480	-3.009600	3.293600	-9.911400	26.611105	0.000473	20.827741
1913.490882	-3.035000	3.292800	-9.992400	26.598321	0.000472	20.830062
1914.491429	-3.023500	3.293700	-9.957600	26.638022	0.000472	20.825402
1915.491962	-2.987900	3.294300	-9.842000	26.673298	0.000471	20.823407
1916.495285	-2.997700	3.291100	-9.864700	26.649349	0.000471	20.821616
1917.496784	-2.969900	3.293500	-9.780700	26.578647	0.000469	20.823088
1918.497966	-3.031800	3.290100	-9.973800	26.555331	0.000471	20.826677
1919.497678	-3.001000	3.290000	-9.872600	26.532753	0.000470	20.821525
1920.499587	-3.000500	3.290100	-9.871300	26.523962	0.000469	20.813637
1921.498083	-3.015100	3.290200	-9.919300	26.558567	0.000470	20.815705
1922.500761	-3.007600	3.288500	-9.889200	26.604157	0.000469	20.819334
1923.497622	-3.005900	3.289100	-9.885200	26.611826	0.000468	20.820879
1924.500057	-3.017500	3.288600	-9.921300	26.593462	0.000466	20.798152
1925.498358	-3.002200	3.288500	-9.869800	26.570870	0.000466	20.821908
1926.501575	-3.012900	3.288900	-9.908100	26.588525	0.000466	20.795560
1927.498601	-2.993300	3.289700	-9.843900	26.594144	0.000463	20.823019
1928.500366	-2.988800	3.288800	-9.828200	26.652980	0.000465	20.811516
1929.501197	-3.018000	3.286500	-9.917300	26.694436	0.000464	20.816209
1930.500687	-3.018700	3.286900	-9.920700	26.713870	0.000462	20.821048
1931.502724	-3.017900	3.286500	-9.917300	26.773724	0.000462	20.806308
1932.500148	-2.982300	3.287600	-9.803200	26.779366	0.000462	20.816722
1933.505095	-2.993000	3.285200	-9.830900	26.807539	0.000462	20.799056
1934.504613	-2.993000	3.285900	-9.834000	26.791180	0.000461	20.799677
1935.501844	-2.999300	3.286000	-9.855600	26.798205	0.000461	20.809585
1936.501695	-3.017300	3.285200	-9.910600	26.793123	0.000459	20.806372
1937.500819	-2.980700	3.285900	-9.791500	26.767730	0.000459	20.801704
1938.501652	-3.000400	3.284600	-9.854800	26.737530	0.000457	20.801213
1939.501937	-3.017400	3.283200	-9.905600	26.740139	0.000458	20.787715
1940.501863	-2.990400	3.283300	-9.816600	26.729991	0.000457	20.786521
1941.501290	-3.019500	3.282100	-9.909600	26.777550	0.000457	20.804940
1942.504128	-3.001000	3.283700	-9.853900	26.816594	0.000455	20.797729
1943.501778	-2.989100	3.282400	-9.810700	26.804822	0.000454	20.797746
1944.503188	-2.993900	3.283300	-9.828900	26.815439	0.000457	20.776652
1945.502713	-3.006200	3.281300	-9.863000	26.792575	0.000455	20.796813
1946.503012	-2.986600	3.281600	-9.800100	26.751700	0.000453	20.784639
1947.506314	-2.981500	3.283200	-9.787900	26.733454	0.000451	20.808020
1948.502374	-2.986600	3.281100	-9.798000	26.709034	0.000451	20.784892
1949.505761	-3.000200	3.279100	-9.837000	26.673710	0.000451	20.795373
1950.505068	-3.021100	3.280400	-9.908200	26.659512	0.000451	20.789634
1951.505169	-2.983600	3.282300	-9.791400	26.633766	0.000449	20.779873
1952.505210	-3.012300	3.280400	-9.879300	26.624243	0.000448	20.782153
1953.506601	-3.006100	3.280200	-9.860000	26.643752	0.000448	20.782799
1954.506196	-2.995200	3.278600	-9.819000	26.687168	0.000449	20.774289
1955.505981	-3.016500	3.277600	-9.886200	26.707952	0.000447	20.787597
1956.506663	-3.027400	3.275500	-9.915000	26.752113	0.000447	20.776520
1957.506322	-3.016100	3.277500	-9.883700	26.749682	0.000445	20.783084
1958.515719	-3.004900	3.277200	-9.846700	26.754950	0.000444	20.769889
1959.505641	-3.029100	3.275100	-9.919400	26.701527	0.000446	20.781138
1960.507192	-3.023900	3.275800	-9.904900	26.701950	0.000445	20.782986
1961.507113	-3.010800	3.275000	-9.859000	26.705112	0.000444	20.798019
1962.507220	-2.964000	3.278700	-9.717700	26.715016	0.000443	20.770992
1963.509006	-2.992000	3.276200	-9.801100	26.756592	0.000443	20.772014
1964.509643	-2.989400	3.275800	-9.791800	26.790823	0.000442	20.771343
1965.510259	-2.985400	3.276200	-9.780000	26.798840	0.000441	20.783671
1966.509803	-3.007200	3.275000	-9.847900	26.803295	0.000442	20.768710
1967.509982	-3.005900	3.275200	-9.844100	26.790254	0.000440	20.774090
1968.511874	-3.013000	3.273600	-9.862300	26.807410	0.000440	20.777114
1969.513677	-2.997500	3.274300	-9.812700	26.839509	0.000438	20.781414
1970.509706	-2.991900	3.273800	-9.793200	26.835883	0.000440	20.781561
1971.510530	-2.994700	3.272400	-9.798900	26.879193	0.000436	20.762047
1972.510379	-3.002200	3.273100	-9.825700	26.907469	0.000437	20.765823
1973.512303	-3.017200	3.273800	-9.876300	26.881380	0.000436	20.787005
1974.512140	-2.994500	3.271900	-9.796300	26.858403	0.000438	20.768643
1975.509151	-3.018400	3.270600	-9.870800	26.853663	0.000433	20.784740
1976.510749	-2.991300	3.271700	-9.784700	26.864558	0.000437	20.770564
1977.511520	-3.000700	3.270000	-9.811400	26.902534	0.000433	20.759912
1978.513016	-2.996800	3.270100	-9.799400	26.887029	0.000434	20.768503
1979.515105	-3.018300	3.268400	-9.864200	26.916362	0.000433	20.773343
1980.513303	-3.035500	3.268000	-9.918500	26.935817	0.000430	20.766354
1981.517784	-3.010100	3.268600	-9.838700	26.950979	0.000429	20.762634
1982.513334	-2.990800	3.270200	-9.779300	26.980993	0.000431	20.758676
1983.513135	-3.014000	3.267600	-9.847000	27.013673	0.000430	20.757875
1984.517541	-2.986000	3.269700	-9.762500	27.016558	0.000428	20.756035
1985.515533	-3.013200	3.267900	-9.845800	27.045514	0.000429	20.760499
1986.515365	-3.024800	3.266800	-9.879900	27.015583	0.000430	20.754106
1987.515507	-2.983100	3.267800	-9.747700	27.016778	0.000428	20.781861
1988.515315	-2.992700	3.267600	-9.778000	26.996706	0.000428	20.753615
1989.514587	-3.015400	3.268700	-9.855200	26.926597	0.000425	20.763246
1990.517221	-3.011500	3.265800	-9.833200	26.907938	0.000426	20.752544
1991.520752	-2.992000	3.265900	-9.770500	26.893320	0.000426	20.750647
1992.514977	-3.024700	3.263900	-9.870400	26.918459	0.000425	20.756959
1993.515886	-3.007000	3.265800	-9.818400	26.924589	0.000425	20.746527
1994.515924	-3.006500	3.264400	-9.814100	26.944547	0.000425	20.768019
1995.519091	-2.997600	3.264200	-9.782400	26.966237	0.000424	20.747156
1996.518774	-2.988200	3.264100	-9.751900	26.983407	0.000423	20.753517
1997.517360	-3.016800	3.262100	-9.840500	27.015518	0.000421	20.754514
1998.516654	-3.031900	3.262700	-9.891100	27.001299	0.000424	20.754440
1999.517046	-3.008200	3.261000	-9.809000	26.954522	0.000421	20.739643
2000.520196	-3.014100	3.261700	-9.829500	26.913150	0.000420	20.746404
2001.519048	-3.005800	3.261900	-9.802800	26.842644	0.000418	20.737623
2002.517802	-3.003900	3.262800	-9.798900	26.805389	0.000419	20.758013
2003.520018	-2.988600	3.261500	-9.746500	26.766906	0.000417	20.750615
2004.519433	-3.000000	3.259200	-9.777300	26.755668	0.000418	20.749274
2005.520131	-3.006300	3.259900	-9.798800	26.797145	0.000416	20.769164
2006.520944	-3.000900	3.259700	-9.781000	26.841515	0.000414	20.767309
2007.520703	-2.985900	3.259900	-9.732000	26.862638	0.000414	20.738761
2008.520967	-2.990200	3.259900	-9.746900	26.866808	0.000416	20.749593
2009.520132	-3.004400	3.259800	-9.792900	26.855393	0.000415	20.747598
2010.518688	-2.993700	3.259100	-9.756100	26.882841	0.000413	20.748171
2011.522746	-2.991800	3.257900	-9.745600	26.876889	0.000412	20.744082
2012.525616	-2.970000	3.259000	-9.678300	26.948060	0.000412	20.719393
2013.522923	-3.007800	3.257700	-9.798200	26.935458	0.000412	20.736594
2014.520093	-3.010800	3.255200	-9.799500	26.944442	0.000411	20.735670
2015.520987	-2.999900	3.257400	-9.771000	26.937557	0.000411	20.756723
2016.522188	-2.989200	3.256800	-9.734300	26.945458	0.000409	20.743805
2017.525008	-3.015900	3.256800	-9.820400	26.959181	0.000409	20.738638
2018.522859	-3.000600	3.255100	-9.766100	26.984066	0.000409	20.743274
2019.524358	-2.978300	3.254800	-9.692600	26.988635	0.000407	20.733643
2020.525239	-2.987200	3.253400	-9.717600	27.022282	0.000408	20.739505
2021.525497	-2.981700	3.254500	-9.703300	27.037988	0.000406	20.742498
2022.526741	-2.999500	3.253600	-9.757200	27.035875	0.000404	20.750330
2023.532386	-2.991400	3.253500	-9.731000	27.003496	0.000405	20.740527
2024.529072	-2.999800	3.252300	-9.754800	27.018552	0.000404	20.738598
2025.525563	-2.988700	3.253600	-9.723200	27.006991	0.000404	20.733137
2026.525582	-2.995200	3.252500	-9.740800	27.009073	0.000403	20.736178
2027.527252	-3.003000	3.251200	-9.762500	26.980702	0.000401	20.735623
2028.525608	-3.017900	3.252300	-9.814000	26.996758	0.000400	20.739915
2029.526351	-2.992000	3.250700	-9.725100	26.942827	0.000402	20.726933
2030.526937	-3.024000	3.251800	-9.832000	26.919868	0.000401	20.721390
2031.527429	-2.975100	3.251700	-9.673000	26.912795	0.000400	20.742254
2032.528039	-3.010500	3.251100	-9.786700	26.949404	0.000399	20.743979
2033.529426	-2.992900	3.249000	-9.722800	26.972134	0.000398	20.729852
2034.527788	-3.002900	3.249200	-9.756200	26.955477	0.000397	20.729223
2035.527641	-2.991300	3.250100	-9.721200	26.972598	0.000395	20.730319
2036.527773	-2.978100	3.249900	-9.677500	27.018212	0.000397	20.749163
2037.528633	-2.997900	3.249000	-9.738800	27.047859	0.000397	20.728717
2038.531403	-3.005600	3.246600	-9.756400	27.114961	0.000395	20.742149
2039.529495	-2.985100	3.248600	-9.696100	27.106370	0.000394	20.753897
2040.529464	-2.985900	3.247600	-9.695800	27.150864	0.000393	20.740326
2041.530190	-2.991900	3.247600	-9.714900	27.134950	0.000392	20.743286
2042.530689	-2.995900	3.247000	-9.726500	27.074653	0.000392	20.740016
2043.531763	-2.998800	3.246600	-9.734800	27.050901	0.000392	20.740785
2044.530012	-2.994500	3.246400	-9.719400	27.056754	0.000391	20.724859
2045.530860	-2.996600	3.246000	-9.725700	27.051372	0.000389	20.731776
2046.529878	-3.017500	3.244500	-9.787500	26.986275	0.000390	20.740753
2047.530099	-2.989100	3.245700	-9.699900	26.936724	0.000389	20.734547
2048.533745	-2.990100	3.245600	-9.703600	26.919546	0.000387	20.736714
2049.532790	-2.992900	3.244100	-9.708300	26.919245	0.000387	20.729299
2050.530090	-3.006600	3.244000	-9.751600	26.939252	0.000386	20.716700
2051.530593	-3.015000	3.241500	-9.771700	26.964683	0.000386	20.728997
2052.531630	-2.993600	3.243200	-9.708200	27.027295	0.000386	20.733640
2053.530698	-3.016500	3.242300	-9.778300	27.075281	0.000386	20.721680
2054.530395	-3.006300	3.241800	-9.744800	27.070786	0.000383	20.731859
2055.534044	-2.978500	3.241200	-9.652300	27.064112	0.000384	20.744114
2056.532364	-2.999700	3.239700	-9.716400	27.058185	0.000384	20.731989
2057.532818	-3.037000	3.238000	-9.832600	27.087409	0.000381	20.721550
2058.531250	-2.994500	3.240300	-9.701900	27.130360	0.000380	20.730134
2059.535268	-3.000200	3.238200	-9.713600	27.112023	0.000380	20.716432
2060.532500	-3.019900	3.237200	-9.774400	27.137376	0.000380	20.735768
2061.534965	-2.996200	3.239100	-9.703400	27.147869	0.000379	20.723562
2062.533476	-3.002500	3.236100	-9.715500	27.183534	0.000378	20.725769
2063.538798	-2.995300	3.237500	-9.695000	27.177252	0.000379	20.725614
2064.533148	-3.014200	3.235600	-9.751000	27.229205	0.000376	20.709590
2065.537599	-2.994000	3.238700	-9.695300	27.233017	0.000375	20.713899
2066.535272	-3.002300	3.237300	-9.717700	27.229749	0.000374	20.720570
2067.534706	-3.003500	3.235800	-9.716900	27.231725	0.000374	20.702641
2068.535361	-2.997700	3.236800	-9.702500	27.214235	0.000375	20.727724
2069.535035	-3.004700	3.235300	-9.719400	27.186673	0.000374	20.719916
2070.538121	-2.997900	3.234300	-9.695400	27.165329	0.000372	20.712199
2071.535528	-3.003700	3.234100	-9.713100	27.158080	0.000370	20.739996
2072.535979	-2.962700	3.235100	-9.583500	27.214950	0.000372	20.701890
2073.535565	-2.995500	3.234700	-9.688500	27.213138	0.000368	20.708602
2074.536437	-2.994700	3.233300	-9.681300	27.231222	0.000371	20.720155
2075.537829	-3.009100	3.233300	-9.728700	27.249753	0.000370	20.718879
2076.537022	-2.988200	3.232500	-9.658400	27.301126	0.000367	20.716975
2077.537435	-2.981100	3.232600	-9.635000	27.254704	0.000367	20.714850
2078.539874	-2.991700	3.232200	-9.667500	27.202703	0.000366	20.718970
2079.539205	-3.002100	3.232200	-9.702700	27.202703	0.000367	20.718496
2080.539058	-2.989000	3.230500	-9.655600	27.162657	0.000364	20.703821
2081.539897	-2.993400	3.230500	-9.669400	27.113027	0.000365	20.715545
2082.539287	-2.996200	3.229900	-9.676800	27.118164	0.000363	20.725454
2083.542659	-2.998300	3.230100	-9.684500	27.124090	0.000362	20.725724
2084.539914	-2.998600	3.228300	-9.678900	27.099330	0.000364	20.710779
2085.539949	-3.006900	3.228700	-9.705900	27.136843	0.000361	20.715317
2086.542037	-3.015700	3.226500	-9.728500	27.136843	0.000360	20.717688
2087.539806	-3.012000	3.227100	-9.719500	27.191822	0.000363	20.710870
2088.546280	-2.997400	3.227000	-9.672000	27.200510	0.000359	20.714867
2089.540647	-2.999300	3.225300	-9.672700	27.244595	0.000359	20.716536
2090.543643	-2.974500	3.226600	-9.596200	27.244986	0.000359	20.712187
2091.545605	-3.024600	3.226000	-9.756000	27.245757	0.000358	20.715334
2092.542777	-2.981200	3.225900	-9.615300	27.266840	0.000358	20.716627
2093.544566	-2.991800	3.224600	-9.646400	27.239817	0.000357	20.721688
2094.542946	-3.012600	3.224000	-9.711300	27.263834	0.000356	20.708386
2095.543372	-3.018200	3.223300	-9.727700	27.264427	0.000354	20.714199
2096.545052	-2.973500	3.224900	-9.588400	27.249336	0.000354	20.700440
2097.542622	-3.020200	3.221900	-9.729700	27.280447	0.000354	20.722727
2098.543293	-2.997300	3.223200	-9.659800	27.275806	0.000354	20.691504
2099.543955	-2.987400	3.224200	-9.631300	27.274385	0.000352	20.701455
2100.543351	-2.981100	3.222200	-9.603800	27.264007	0.000353	20.717570
2101.543267	-2.995300	3.222000	-9.650800	27.255774	0.000350	20.691743
2102.545336	-2.988000	3.220700	-9.621900	27.211675	0.000349	20.701915
2103.544271	-2.993200	3.220700	-9.639000	27.219689	0.000349	20.691957
2104.544783	-3.002700	3.220400	-9.668800	27.249111	0.000350	20.718234
2105.544516	-2.967900	3.221500	-9.559300	27.270365	0.000350	20.701679
2106.544099	-2.983100	3.220700	-9.607000	27.306336	0.000347	20.702775
2107.546890	-2.984600	3.219500	-9.607600	27.347117	0.000347	20.707762
2108.544245	-2.998900	3.219800	-9.655500	27.363086	0.000346	20.714819
2109.547230	-2.993400	3.218200	-9.632600	27.343981	0.000345	20.707453
2110.544488	-2.985600	3.218900	-9.608800	27.374636	0.000343	20.718851
2111.544182	-3.009300	3.217600	-9.681600	27.411375	0.000346	20.689426
2112.544071	-3.003200	3.215700	-9.656800	27.438410	0.000341	20.703350
2113.545457	-3.011600	3.216000	-9.684500	27.409206	0.000342	20.705264
2114.547027	-3.014100	3.216200	-9.692600	27.381845	0.000340	20.698601
2115.546524	-3.018800	3.216600	-9.709200	27.399877	0.000340	20.698724
2116.545590	-2.998000	3.214800	-9.636900	27.410166	0.000339	20.700539
2117.545740	-3.006800	3.214900	-9.665600	27.422144	0.000339	20.699788
2118.550732	-3.017500	3.214000	-9.697000	27.428215	0.000336	20.694989
2119.546015	-3.023200	3.213900	-9.714500	27.456518	0.000340	20.702127
2120.550517	-3.010700	3.213000	-9.672000	27.413727	0.000337	20.687525
2121.546139	-3.020900	3.212900	-9.704900	27.394413	0.000338	20.713141
2122.546071	-3.014700	3.214000	-9.688300	27.365131	0.000336	20.705021
2123.547957	-3.012900	3.213400	-9.679900	27.367456	0.000335	20.689815
2124.548848	-3.017300	3.213300	-9.694500	27.379728	0.000334	20.674658
2125.547790	-2.996300	3.211900	-9.622100	27.369163	0.000334	20.695800
2126.550129	-3.009900	3.210300	-9.660700	27.380873	0.000332	20.687665
2127.546767	-3.012100	3.210700	-9.670000	27.396347	0.000334	20.699913
2128.551869	-2.988300	3.209800	-9.591000	27.426155	0.000332	20.692442
2129.547988	-2.990400	3.209600	-9.596300	27.432704	0.000331	20.706144
2130.548226	-3.019300	3.207800	-9.682900	27.439351	0.000332	20.703822
2131.547847	-3.006400	3.207800	-9.642700	27.405612	0.000330	20.702596
2132.553293	-3.025200	3.207800	-9.704300	27.398916	0.000332	20.700601
2133.549101	-3.012900	3.207800	-9.663800	27.401786	0.000328	20.710127
2134.552116	-3.001200	3.206900	-9.623800	27.404718	0.000328	20.711181
2135.550191	-3.001500	3.206700	-9.623600	27.409578	0.000329	20.704216
2136.550779	-3.015200	3.205500	-9.663500	27.403859	0.000326	20.697039
2137.549087	-3.007100	3.205300	-9.637300	27.390913	0.000328	20.696344
2138.551224	-2.994200	3.205600	-9.597200	27.383414	0.000326	20.711086
2139.552492	-3.027400	3.203900	-9.698300	27.356279	0.000325	20.707022
2140.553863	-3.015600	3.207400	-9.671700	27.341855	0.000322	20.691088
2141.551934	-3.015500	3.205300	-9.663400	27.335801	0.000324	20.681678
2142.554533	-3.017800	3.202300	-9.663000	27.319401	0.000321	20.701693
2143.551473	-3.030400	3.201800	-9.700600	27.335518	0.000322	20.692774
2144.552402	-3.002200	3.203900	-9.617700	27.353105	0.000323	20.711415
2145.554025	-3.001100	3.203300	-9.612700	27.366173	0.000321	20.687101
2146.551457	-3.007000	3.203200	-9.631400	27.371113	0.000318	20.711039
2147.554369	-2.989500	3.202000	-9.570300	27.379094	0.000319	20.675917
2148.554423	-2.997900	3.200200	-9.592900	27.388734	0.000318	20.705531
2149.553766	-2.992100	3.200500	-9.574900	27.417135	0.000318	20.722251
2150.556976	-3.002100	3.199100	-9.603100	27.403736	0.000317	20.723944
2151.561461	-2.988900	3.200600	-9.564300	27.406661	0.000315	20.707445
2152.555029	-2.997800	3.198700	-9.587400	27.355579	0.000315	20.703947
2153.555680	-2.986400	3.198200	-9.549900	27.359123	0.000317	20.686173
2154.555176	-2.987500	3.197500	-9.551000	27.396026	0.000314	20.721404
2155.556244	-2.984600	3.197900	-9.543600	27.437827	0.000314	20.711298
2156.560757	-2.981900	3.198600	-9.537900	27.394288	0.000314	20.704480
2157.557974	-3.003000	3.196500	-9.598400	27.332388	0.000311	20.710964
2158.558984	-2.997900	3.195600	-9.578900	27.316247	0.000312	20.711797
2159.559513	-2.989800	3.196900	-9.557400	27.331145	0.000313	20.711610
2160.559138	-3.008100	3.194500	-9.608200	27.383482	0.000310	20.704041
2161.562002	-3.031600	3.192800	-9.678700	27.404203	0.000310	20.709714
2162.559433	-3.003900	3.193700	-9.591900	27.462435	0.000310	20.717090
2163.563332	-2.982200	3.195100	-9.527400	27.454675	0.000309	20.718765
2164.560021	-3.006500	3.193300	-9.599200	27.483092	0.000308	20.717957
2165.562211	-2.985300	3.192500	-9.529900	27.496061	0.000307	20.717729
2166.563231	-2.997400	3.190600	-9.562400	27.533291	0.000306	20.708719
2167.565969	-2.970100	3.192200	-9.480400	27.537232	0.000305	20.721694
2168.562352	-2.961200	3.191400	-9.449200	27.512021	0.000306	20.719088
2169.563431	-2.975800	3.192000	-9.497500	27.453899	0.000305	20.710398
2170.561888	-3.012600	3.189900	-9.608600	27.446903	0.000304	20.723749
2171.564353	-2.998600	3.189500	-9.563200	27.444864	0.000302	20.714585
2172.565972	-3.002200	3.187800	-9.568400	27.434390	0.000304	20.712108
2173.561853	-2.997300	3.189000	-9.557800	27.467730	0.000301	20.720995
2174.567150	-2.999800	3.188300	-9.562600	27.437284	0.000301	20.743471
2175.561705	-2.994000	3.187100	-9.539300	27.392624	0.000301	20.721774
2176.562101	-3.010600	3.185400	-9.589000	27.411802	0.000300	20.736326
2177.563018	-3.007900	3.185500	-9.581000	27.420327	0.000299	20.719298
2178.563702	-2.998000	3.185600	-9.549300	27.437441	0.000298	20.723239
2179.564691	-3.002200	3.186300	-9.565100	27.480322	0.000299	20.710429
2180.564280	-3.028200	3.186000	-9.646100	27.473724	0.000296	20.719912
2181.563527	-3.010500	3.184200	-9.584700	27.474164	0.000298	20.720355
2182.564247	-3.035200	3.184700	-9.664800	27.490481	0.000298	20.737720
2183.567401	-3.024900	3.182700	-9.626300	27.517190	0.000295	20.724289
2184.564958	-3.022000	3.183700	-9.620500	27.489133	0.000294	20.720717
2185.565925	-3.012200	3.181200	-9.581600	27.495455	0.000294	20.732294
2186.566287	-3.023000	3.181700	-9.616600	27.494181	0.000294	20.745711
2187.566171	-3.016100	3.181500	-9.594500	27.522506	0.000292	20.719680
2188.569617	-2.999500	3.181100	-9.540200	27.547127	0.000293	20.734496
2189.571798	-2.980000	3.182100	-9.482300	27.565953	0.000292	20.723091
2190.570157	-2.996100	3.180000	-9.526200	27.595089	0.000290	20.709258
2191.566670	-3.001100	3.179800	-9.541700	27.590126	0.000292	20.715644
2192.568610	-2.999300	3.178200	-9.531300	27.546527	0.000288	20.743849
2193.570822	-2.993200	3.180600	-9.519300	27.552216	0.000290	20.720175
2194.567938	-3.011500	3.178200	-9.569900	27.544327	0.000288	20.734998
2195.572042	-3.004400	3.177900	-9.546500	27.554834	0.000288	20.735138
2196.567248	-3.007400	3.177300	-9.554400	27.570766	0.000287	20.733624
2197.567956	-3.013600	3.176300	-9.570900	27.514850	0.000286	20.744695
2198.568306	-3.002800	3.178700	-9.543400	27.485275	0.000285	20.741018
2199.570646	-2.999200	3.175100	-9.522100	27.493384	0.000286	20.774782
2200.569412	-3.019600	3.174200	-9.584000	27.534532	0.000284	20.733677
2201.570633	-2.994200	3.175000	-9.505600	27.487502	0.000285	20.747526
2202.569526	-3.012500	3.174700	-9.562500	27.511677	0.000284	20.741028
2203.571720	-2.982600	3.174500	-9.466500	27.531072	0.000283	20.740154
2204.572359	-3.012800	3.173400	-9.559900	27.487813	0.000283	20.734088
2205.572899	-3.015600	3.174400	-9.572200	27.449435	0.000280	20.756644
2206.572114	-3.004700	3.173000	-9.532800	27.400265	0.000281	20.746058
2207.570579	-3.016500	3.172300	-9.567600	27.372474	0.000281	20.747024
2208.570617	-2.996500	3.172000	-9.503000	27.344316	0.000279	20.753311
2209.572550	-3.010400	3.170000	-9.541400	27.330622	0.000280	20.749493
2210.571894	-3.004500	3.170200	-9.524000	27.362918	0.000278	20.740730
2211.572218	-2.997900	3.170100	-9.502900	27.390703	0.000278	20.756827
2212.570207	-3.016000	3.170700	-9.561100	27.395458	0.000276	20.756395
2213.571561	-2.981600	3.169000	-9.447700	27.408379	0.000275	20.757540
2214.573631	-2.993600	3.168200	-9.482600	27.396271	0.000277	20.751523
2215.574965	-3.010400	3.166400	-9.531100	27.424868	0.000275	20.753265
2216.571970	-2.995000	3.167900	-9.486400	27.454634	0.000274	20.733424
2217.572050	-3.013600	3.168000	-9.543700	27.511481	0.000273	20.773075
2218.572034	-2.976900	3.166800	-9.426000	27.511150	0.000274	20.768474
2219.572585	-2.997000	3.164100	-9.481500	27.531665	0.000272	20.757821
2220.575859	-3.007300	3.164900	-9.517000	27.532632	0.000271	20.738878
2221.572170	-3.010200	3.163300	-9.521300	27.536640	0.000271	20.766619
2222.577890	-2.984200	3.165700	-9.446400	27.554150	0.000272	20.754839
2223.572301	-3.000900	3.162500	-9.489300	27.604573	0.000271	20.731604
2224.573379	-2.990900	3.162200	-9.457100	27.570546	0.000270	20.744309
2225.577242	-2.983600	3.162700	-9.435500	27.530768	0.000269	20.773514
2226.571916	-3.014600	3.161200	-9.528600	27.510877	0.000267	20.759191
2227.574223	-2.988000	3.160800	-9.443100	27.521416	0.000267	20.778329
2228.573203	-3.012000	3.159000	-9.513500	27.531379	0.000268	20.758007
2229.573324	-2.975300	3.159600	-9.399000	27.588254	0.000264	20.765920
2230.573614	-2.980600	3.161500	-9.422500	27.587654	0.000265	20.764842
2231.576131	-2.974300	3.158000	-9.391100	27.672571	0.000265	20.758776
2232.574089	-3.009300	3.156000	-9.495700	27.683573	0.000265	20.757993
2233.573740	-2.983900	3.158200	-9.423100	27.682257	0.000264	20.774213
2234.576233	-3.005200	3.157400	-9.487700	27.695199	0.000264	20.771115
2235.574935	-2.979500	3.156100	-9.402300	27.750027	0.000263	20.777925
2236.576811	-2.999200	3.154200	-9.459100	27.784146	0.000263	20.768165
2237.575974	-2.987500	3.155400	-9.425900	27.827184	0.000263	20.778761
2238.576183	-3.015500	3.153500	-9.508200	27.843545	0.000260	20.810400
2239.577500	-2.973500	3.154600	-9.379500	27.844714	0.000262	20.758471
2240.578270	-2.983300	3.153400	-9.406700	27.872301	0.000259	20.786710
2241.579042	-2.976200	3.153200	-9.381800	27.911720	0.000261	20.762373
2242.578496	-3.004600	3.152200	-9.469400	27.921086	0.000259	20.773697
2243.577614	-2.990900	3.151200	-9.423900	27.926446	0.000259	20.796635
2244.577633	-3.007700	3.150900	-9.475600	27.962957	0.000260	20.767477
2245.578100	-3.002900	3.151900	-9.464300	27.957963	0.000258	20.767666
2246.578286	-3.012500	3.150000	-9.487400	27.989061	0.000257	20.776208
2247.578471	-3.034100	3.146700	-9.545100	27.998126	0.000256	20.782962
2248.577326	-2.980700	3.149700	-9.386100	27.938991	0.000255	20.753311
2249.579090	-3.021400	3.146000	-9.503800	27.919101	0.000257	20.796829
2250.578971	-3.015500	3.147800	-9.490200	27.843350	0.000257	20.790763
2251.581034	-2.991600	3.146400	-9.412100	27.849988	0.000256	20.774210
2252.582433	-2.986000	3.146800	-9.395300	27.831882	0.000254	20.781119
2253.579885	-2.994900	3.144300	-9.416200	27.822809	0.000253	20.787634
2254.580682	-2.984500	3.145500	-9.387100	27.822428	0.000253	20.781087
2255.580752	-3.003900	3.144700	-9.444300	27.808929	0.000254	20.795003
2256.581193	-2.989900	3.143500	-9.398100	27.768264	0.000251	20.791536
2257.581695	-3.003700	3.141200	-9.432800	27.770442	0.000252	20.788512
2258.583260	-2.987200	3.142300	-9.385500	27.795204	0.000251	20.786405
2259.584414	-3.005500	3.140300	-9.436600	27.753117	0.000250	20.772500
2260.584095	-2.975700	3.142100	-9.349300	27.783076	0.000250	20.786054
2261.594524	-2.985300	3.140700	-9.374600	27.778853	0.000249	20.777062
2262.582604	-2.974600	3.139900	-9.338500	27.810867	0.000248	20.793633
2263.588943	-2.996100	3.138200	-9.402200	27.844244	0.000248	20.787396
2264.584574	-3.001900	3.138700	-9.420900	27.868013	0.000247	20.789507
2265.584050	-2.987800	3.136600	-9.370600	27.881424	0.000249	20.799211
2266.584369	-2.994100	3.136600	-9.389500	27.860768	0.000245	20.794069
2267.583424	-2.948700	3.137100	-9.247500	27.843532	0.000247	20.796637
2268.586298	-2.993900	3.135200	-9.385300	27.763682	0.000244	20.791667
2269.585152	-2.995700	3.135000	-9.389200	27.733398	0.000244	20.775890
2270.584183	-3.015200	3.133500	-9.447000	27.724690	0.000245	20.781826
2271.584373	-2.995500	3.132500	-9.382200	27.706290	0.000244	20.807405
2272.584555	-2.976900	3.135000	-9.330900	27.689327	0.000244	20.822104
2273.583695	-2.973500	3.132100	-9.312600	27.734260	0.000246	20.796672
2274.586128	-2.996900	3.130500	-9.381100	27.741468	0.000244	20.796339
2275.584030	-2.976300	3.130400	-9.316300	27.780606	0.000243	20.800637
2276.586590	-3.025500	3.129000	-9.465200	27.761361	0.000244	20.822522
2277.585305	-3.018500	3.128900	-9.443100	27.759445	0.000241	20.803525
2278.584531	-2.993800	3.128600	-9.364500	27.746553	0.000242	20.807146
2279.590498	-3.016400	3.126800	-9.431400	27.783297	0.000240	20.808087
2280.588401	-2.994200	3.127400	-9.362800	27.798422	0.000241	20.782532
2281.588409	-2.960900	3.127700	-9.260300	27.784239	0.000241	20.823260
2282.587179	-2.991800	3.125800	-9.350200	27.792088	0.000238	20.811719
2283.587179	-2.991900	3.125200	-9.349700	27.815370	0.000239	20.834675
2284.587297	-3.000800	3.125800	-9.378900	27.862336	0.000239	20.817458
2285.592117	-2.980800	3.124600	-9.312300	27.844824	0.000238	20.804101
2286.587729	-2.980800	3.124200	-9.310400	27.852491	0.000237	20.791903
2287.589359	-3.004800	3.122100	-9.380600	27.803762	0.000237	20.829631
2288.590685	-3.026700	3.121100	-9.445100	27.740627	0.000237	20.813984
2289.590427	-2.979900	3.120700	-9.298200	27.755551	0.000236	20.828528
2290.592635	-3.011900	3.118500	-9.391900	27.783789	0.000236	20.828971
2291.589632	-2.997800	3.119900	-9.352000	27.840424	0.000235	20.817690
2292.592263	-2.987000	3.118700	-9.315200	27.901889	0.000235	20.811273
2293.591570	-3.005700	3.117400	-9.368200	27.956388	0.000234	20.832936
2294.590910	-2.989800	3.116600	-9.317600	28.001880	0.000234	20.825621
2295.593724	-3.024000	3.115000	-9.419100	28.052446	0.000234	20.817251
2296.595690	-3.029200	3.113900	-9.431200	28.060551	0.000233	20.824936
2297.594362	-2.983400	3.115000	-9.292400	28.099272	0.000233	20.810336
2298.594703	-2.998700	3.112600	-9.332200	28.153406	0.000230	20.834486
2299.595355	-2.990700	3.112600	-9.306500	28.124327	0.000232	20.831764
2300.596259	-2.978500	3.113000	-9.271300	28.103596	0.000233	20.839817
2301.596240	-2.989600	3.112500	-9.304400	28.096572	0.000231	20.824687
2302.596005	-3.004700	3.111300	-9.346600	28.043873	0.000231	20.837545
2303.596122	-2.991800	3.111800	-9.309600	28.061141	0.000231	20.837384
2304.596243	-3.006300	3.109800	-9.347800	28.092927	0.000230	20.837138
2305.595914	-3.031200	3.107100	-9.415200	28.079040	0.000230	20.823160
2306.597986	-3.031800	3.106800	-9.418500	28.067233	0.000230	20.830714
2307.595039	-3.027100	3.106100	-9.400900	28.059795	0.000231	20.836028
2308.597423	-3.006300	3.105000	-9.333400	28.052032	0.000229	20.849550
2309.595633	-3.022600	3.105000	-9.384000	28.055004	0.000229	20.849698
2310.596644	-2.989400	3.104100	-9.277000	28.070615	0.000229	20.829851
2311.598782	-2.995400	3.104300	-9.297700	28.054655	0.000227	20.830855
2312.599679	-2.981700	3.104000	-9.254800	28.098381	0.000226	20.843576
2313.597094	-2.970900	3.103500	-9.219500	28.117887	0.000227	20.859893
2314.597553	-2.975100	3.102000	-9.227700	28.126341	0.000227	20.839007
2315.596343	-2.990500	3.100000	-9.270100	28.103799	0.000226	20.823427
2316.596191	-2.988700	3.100800	-9.266600	28.080419	0.000226	20.862479
2317.599766	-2.999100	3.099400	-9.294900	28.077618	0.000226	20.853495
2318.596266	-2.980500	3.099200	-9.236300	28.087754	0.000227	20.830034
2319.598182	-2.970600	3.098600	-9.204000	28.044719	0.000227	20.843138
2320.596457	-2.994200	3.096800	-9.271800	28.026219	0.000225	20.834473
2321.596874	-2.992900	3.095000	-9.262400	27.998947	0.000226	20.857755
2322.601693	-3.003000	3.094400	-9.292100	27.962944	0.000225	20.843802
2323.599987	-3.016500	3.093600	-9.330800	27.944021	0.000224	20.840402
2324.599701	-3.018200	3.092500	-9.332600	27.976874	0.000223	20.849762
2325.599761	-3.008900	3.092800	-9.304400	27.948212	0.000226	20.850784
2326.601714	-3.005200	3.089400	-9.283100	27.917878	0.000226	20.828314
2327.601519	-2.990900	3.090100	-9.241100	27.863969	0.000225	20.869834
2328.604229	-3.009900	3.088200	-9.292900	27.832575	0.000226	20.830179
2329.600899	-3.013000	3.087600	-9.302500	27.857465	0.000222	20.882727
2330.601849	-2.979700	3.089000	-9.202900	27.873134	0.000223	20.861988
2331.606479	-3.003600	3.087600	-9.273200	27.949549	0.000222	20.850233
2332.602200	-3.019100	3.084700	-9.312300	27.985741	0.000222	20.849205
2333.604055	-3.012200	3.084600	-9.290700	27.986555	0.000224	20.864247
2334.602619	-2.987600	3.084000	-9.212100	27.989228	0.000223	20.868360
2335.604084	-2.987000	3.084500	-9.210500	28.001573	0.000222	20.860872
2336.603317	-3.001700	3.083700	-9.255300	28.035482	0.000223	20.871296
2337.602747	-3.017300	3.079800	-9.291300	28.061706	0.000220	20.880150
2338.604621	-2.990000	3.081100	-9.211000	28.066508	0.000221	20.863173
2339.603550	-2.981900	3.079500	-9.181800	28.054383	0.000220	20.869460
2340.607623	-3.025500	3.077300	-9.308800	28.041065	0.000220	20.873123
2341.603172	-3.013100	3.076600	-9.269400	28.077872	0.000219	20.864182
2342.603846	-2.997500	3.077300	-9.223200	28.091061	0.000221	20.855648
2343.614452	-3.003700	3.076300	-9.238300	28.134558	0.000220	20.859606
2344.605659	-3.000200	3.074000	-9.221900	28.169607	0.000219	20.879716
2345.605500	-3.015800	3.074300	-9.270800	28.129052	0.000219	20.879667
2346.606514	-3.018000	3.073700	-9.275100	28.081547	0.000219	20.863140
2347.608077	-3.002400	3.072000	-9.222300	28.095273	0.000219	20.858939
2348.606956	-3.001800	3.070100	-9.214600	28.116162	0.000217	20.853890
2349.609803	-2.984500	3.071300	-9.165600	28.135424	0.000216	20.885607
2350.608219	-2.972300	3.069800	-9.123800	28.138806	0.000218	20.875735
2351.606167	-3.007800	3.067100	-9.223800	28.120021	0.000218	20.872472
2352.608251	-2.988300	3.067300	-9.164600	28.145515	0.000217	20.867317
2353.607223	-2.978900	3.067100	-9.135200	28.179621	0.000216	20.848549
2354.610346	-2.992800	3.064800	-9.171500	28.180721	0.000217	20.887112
2355.609242	-2.984100	3.065700	-9.146200	28.186966	0.000215	20.866847
2356.609971	-2.992000	3.063900	-9.164900	28.181510	0.000217	20.867044
2357.607433	-3.002900	3.061200	-9.191000	28.186935	0.000215	20.859704
2358.607666	-2.988400	3.061200	-9.146900	28.219725	0.000216	20.869008
2359.607131	-2.977300	3.061300	-9.113300	28.266133	0.000216	20.866895
2360.609247	-2.988100	3.058800	-9.139000	28.279166	0.000216	20.860102
2361.607114	-3.008000	3.058800	-9.198700	28.261368	0.000214	20.856408
2362.610320	-3.017600	3.057100	-9.223900	28.236224	0.000216	20.849584
2363.608911	-2.992500	3.056500	-9.145300	28.201697	0.000215	20.876936
2364.607801	-2.980200	3.055700	-9.105800	28.212749	0.000214	20.873365
2365.611452	-2.986300	3.054800	-9.121300	28.243233	0.000214	20.867545
2366.608726	-3.001000	3.053600	-9.162900	28.233758	0.000215	20.859904
2367.613146	-3.023200	3.052600	-9.226200	28.257372	0.000215	20.859022
2368.609003	-2.991300	3.052100	-9.128300	28.206680	0.000213	20.894280
2369.609020	-3.017900	3.051100	-9.206900	28.167063	0.000213	20.866725
2370.609529	-3.023700	3.047700	-9.213400	28.158725	0.000212	20.863547
2371.608575	-2.992700	3.049100	-9.123500	28.206692	0.000213	20.844982
2372.608942	-3.011400	3.047200	-9.175200	28.224484	0.000212	20.846299
2373.608794	-2.995100	3.046200	-9.122100	28.225321	0.000212	20.842875
2374.609018	-3.010100	3.044800	-9.163900	28.290751	0.000212	20.832887
2375.608429	-3.013500	3.041900	-9.164200	28.277437	0.000212	20.844611
2376.610930	-3.016200	3.041000	-9.170800	28.322394	0.000213	20.838195
2377.608300	-2.971300	3.042600	-9.039000	28.324369	0.000212	20.858674
2378.609718	-3.001200	3.039800	-9.121400	28.347199	0.000211	20.857480
2379.609584	-2.962400	3.040200	-9.005400	28.333439	0.000211	20.848840
2380.609025	-2.987300	3.037300	-9.073100	28.290107	0.000210	20.842196
2381.616097	-2.991200	3.036000	-9.080300	28.269857	0.000210	20.855472
2382.611546	-2.984700	3.036300	-9.061200	28.257686	0.000210	20.840847
2383.610684	-2.995900	3.035300	-9.091600	28.208652	0.000211	20.843162
2384.611465	-2.987200	3.033800	-9.061700	28.234897	0.000211	20.859627
2385.610158	-2.977100	3.033200	-9.029100	28.248903	0.000211	20.839591
2386.613367	-2.967300	3.032400	-8.996000	28.290914	0.000211	20.851542
2387.615362	-3.000800	3.031200	-9.094100	28.304840	0.000212	20.842330
2388.610189	-2.967100	3.029700	-8.988000	28.294351	0.000210	20.847890
2389.610645	-2.984300	3.027400	-9.033200	28.359183	0.000210	20.857219
2390.610822	-3.003400	3.025800	-9.086400	28.351471	0.000210	20.846609
2391.611272	-3.000700	3.025100	-9.076000	28.321364	0.000210	20.856123
2392.613188	-2.991400	3.022900	-9.041400	28.285836	0.000211	20.847378
2393.610689	-3.018200	3.022900	-9.122200	28.271189	0.000212	20.835950
2394.617951	-2.987300	3.023900	-9.030800	28.279341	0.000212	20.836572
2395.614012	-3.017000	3.019500	-9.108400	28.283677	0.000212	20.840937
2396.619405	-2.993400	3.018300	-9.034600	28.248552	0.000210	20.827858
2397.618401	-3.038900	3.015200	-9.161000	28.216998	0.000210	20.825488
2398.614496	-3.008900	3.018000	-9.079100	28.210325	0.000211	20.840106
2399.616613	-2.979600	3.015600	-8.984500	28.237372	0.000210	20.836042
2400.613285	-2.967600	3.014400	-8.944200	28.262423	0.000210	20.849409
2401.613822	-2.983700	3.014200	-8.993000	28.342780	0.000211	20.844496
2402.615900	-2.991300	3.012300	-9.009600	28.364954	0.000208	20.826521
2403.617307	-3.013800	3.011200	-9.074100	28.412514	0.000209	20.826047
2404.617736	-3.002900	3.010500	-9.039300	28.429092	0.000209	20.821878
2405.615593	-2.992000	3.009800	-9.004300	28.438729	0.000208	20.835850
2406.615260	-2.962500	3.008000	-8.910500	28.461055	0.000209	20.827038
2407.617758	-2.989300	3.006000	-8.984500	28.443180	0.000207	20.830849
2408.619752	-2.989600	3.005600	-8.983400	28.459141	0.000209	20.809938
2409.618242	-2.993300	3.003300	-8.988600	28.485337	0.000208	20.827783
2410.619078	-3.026700	3.000800	-9.081500	28.484218	0.000207	20.820966
2411.618613	-2.987000	3.001700	-8.965300	28.489966	0.000208	20.836237
2412.618963	-2.980400	2.999300	-8.938200	28.506640	0.000208	20.840227
2413.617342	-3.005100	2.999300	-9.011900	28.542496	0.000207	20.813749
2414.623230	-3.022000	2.996600	-9.054800	28.550145	0.000209	20.829512
2415.618108	-3.010800	2.995800	-9.018800	28.549081	0.000208	20.826544
2416.618881	-2.984200	2.995100	-8.937800	28.476769	0.000208	20.819155
2417.620831	-3.017100	2.992400	-9.026100	28.474732	0.000206	20.826113
2418.621482	-2.998500	2.991600	-8.969000	28.475203	0.000206	20.818526
2419.623030	-3.014200	2.989700	-9.010700	28.497975	0.000206	20.818225
2420.621143	-2.998000	2.989300	-8.960600	28.554369	0.000206	20.811007
2421.635027	-2.970600	2.988600	-8.877500	28.567827	0.000208	20.823612
2422.621980	-2.990500	2.986500	-8.930400	28.584574	0.000206	20.820090
2423.621991	-3.003200	2.984700	-8.962400	28.526891	0.000204	20.821266
2424.622802	-3.003900	2.983000	-8.959900	28.449122	0.000205	20.817393
2425.623591	-3.004000	2.981700	-8.955800	28.401289	0.000205	20.834185
2426.622427	-3.015800	2.979900	-8.984800	28.414217	0.000205	20.839141
2427.621893	-2.976000	2.979900	-8.867100	28.421781	0.000206	20.810724
2428.623280	-2.982200	2.979000	-8.881600	28.468152	0.000206	20.818538
2429.621988	-3.002400	2.975600	-8.932700	28.471808	0.000204	20.805624
2430.626255	-2.974300	2.976500	-8.852200	28.490177	0.000206	20.819381
2431.623254	-3.015500	2.974100	-8.967300	28.474982	0.000205	20.797441
2432.623697	-2.979000	2.972300	-8.853700	28.506455	0.000204	20.825816
2433.623479	-3.001800	2.970800	-8.915800	28.492605	0.000206	20.807127
2434.624002	-3.015700	2.969600	-8.954600	28.541240	0.000206	20.809165
2435.631207	-2.994100	2.967800	-8.884700	28.566364	0.000205	20.814553
2436.624795	-3.009500	2.965600	-8.924600	28.578807	0.000204	20.803377
2437.630759	-2.987900	2.965000	-8.858200	28.620188	0.000204	20.792896
2438.625541	-2.997000	2.965400	-8.886000	28.649938	0.000202	20.819066
2439.624702	-2.973000	2.961700	-8.803700	28.658345	0.000204	20.810464
2440.624681	-3.022800	2.960400	-8.947600	28.662655	0.000203	20.798210
2441.629603	-2.986700	2.959300	-8.837800	28.626253	0.000203	20.817496
2442.625740	-2.976600	2.958200	-8.804800	28.612558	0.000204	20.809393
2443.630263	-2.987800	2.956500	-8.832200	28.569538	0.000204	20.808740
2444.625964	-3.014100	2.953300	-8.899500	28.531102	0.000205	20.813180
2445.627412	-3.002600	2.952900	-8.865400	28.480032	0.000204	20.819122
2446.629958	-3.005200	2.951400	-8.868500	28.483946	0.000206	20.809313
2447.627510	-3.025600	2.949600	-8.923400	28.471306	0.000204	20.821714
2448.630039	-3.005200	2.947800	-8.858000	28.524908	0.000204	20.799356
2449.627997	-2.996800	2.947600	-8.832200	28.572412	0.000203	20.789823
2450.632311	-3.014700	2.945400	-8.878200	28.599387	0.000203	20.827422
2451.633883	-2.987300	2.944400	-8.794600	28.612655	0.000201	20.803802
2452.630633	-2.994000	2.943100	-8.810700	28.638768	0.000204	20.815877
2453.631269	-2.973500	2.940500	-8.742500	28.598170	0.000204	20.832360
2454.631014	-3.003200	2.938700	-8.823600	28.588412	0.000203	20.804041
2455.633302	-2.988100	2.938100	-8.778200	28.527042	0.000201	20.804824
2456.632916	-3.000900	2.936200	-8.809800	28.481041	0.000203	20.813500
2457.635351	-2.999400	2.935100	-8.802000	28.450258	0.000202	20.800519
2458.634139	-3.003400	2.932900	-8.807700	28.418741	0.000206	20.813352
2459.634583	-3.008000	2.931800	-8.818500	28.434720	0.000204	20.801467
2460.634965	-3.005300	2.929500	-8.803400	28.448033	0.000201	20.790691
2461.638518	-3.011600	2.928900	-8.818600	28.419463	0.000204	20.779466
2462.637059	-3.008200	2.925900	-8.801500	28.396781	0.000205	20.798351
2463.636182	-2.991300	2.924800	-8.747300	28.395992	0.000203	20.798980
2464.642838	-3.001100	2.924300	-8.775000	28.366864	0.000204	20.810901
2465.639462	-3.026800	2.920400	-8.838300	28.398518	0.000203	20.787772
2466.636249	-3.002400	2.919800	-8.765700	28.423272	0.000204	20.791836
2467.642347	-3.012700	2.917400	-8.788000	28.400597	0.000205	20.798401
2468.638903	-2.996800	2.916000	-8.737700	28.425822	0.000204	20.804361
2469.639670	-3.023900	2.913800	-8.809700	28.401588	0.000204	20.787070
2470.638476	-2.984500	2.914400	-8.696700	28.381242	0.000202	20.802145
2471.639718	-2.998000	2.910900	-8.725900	28.387088	0.000203	20.804238
2472.638255	-2.966700	2.910900	-8.634400	28.357373	0.000206	20.770998
2473.643896	-2.944900	2.908900	-8.565400	28.344359	0.000204	20.808629
2474.639524	-3.015200	2.905200	-8.758700	28.323834	0.000205	20.794127
2475.640270	-2.999700	2.904800	-8.712900	28.361085	0.000204	20.806030
2476.640112	-3.005200	2.902400	-8.720400	28.401857	0.000203	20.775961
2477.639559	-3.003000	2.902200	-8.714600	28.436101	0.000203	20.799539
2478.641834	-2.966600	2.900400	-8.603600	28.488488	0.000204	20.779274
2479.640882	-3.013100	2.897100	-8.728300	28.518646	0.000203	20.783566
2480.641141	-3.021700	2.894300	-8.744700	28.555450	0.000200	20.791707
2481.641876	-3.022300	2.892100	-8.739800	28.554679	0.000203	20.788086
2482.640296	-2.998600	2.890100	-8.663900	28.563147	0.000202	20.798511
2483.641983	-2.995500	2.891300	-8.660500	28.594244	0.000202	20.792371
2484.641611	-3.056200	2.886400	-8.820800	28.545947	0.000203	20.800629
2485.643455	-2.990800	2.886100	-8.629800	28.526668	0.000202	20.789274
2486.642490	-2.981500	2.885000	-8.600800	28.485088	0.000201	20.783910
2487.644127	-2.982800	2.884600	-8.602400	28.475891	0.000201	20.782709
2488.642612	-2.993500	2.881900	-8.625500	28.488579	0.000202	20.773202
2489.646178	-2.990700	2.880600	-8.614300	28.448411	0.000201	20.787753
2490.644231	-2.981600	2.878600	-8.581600	28.458152	0.000201	20.761526
2491.645801	-2.989100	2.874900	-8.592200	28.504515	0.000201	20.777869
2492.645625	-3.019100	2.872700	-8.672000	28.545348	0.000202	20.775369
2493.645936	-3.013200	2.871200	-8.650500	28.594311	0.000202	20.783430
2494.648549	-2.976800	2.869900	-8.542200	28.634401	0.000202	20.767856
2495.657517	-2.992100	2.868800	-8.583200	28.643168	0.000200	20.763884
2496.649166	-2.985800	2.865900	-8.555600	28.681373	0.000200	20.784347
2497.648809	-3.004100	2.864000	-8.602900	28.735882	0.000202	20.800844
2498.648613	-2.990100	2.863100	-8.559500	28.759736	0.000202	20.767024
2499.648363	-3.021700	2.859200	-8.638600	28.761392	0.000202	20.786237
2500.652423	-3.022500	2.857500	-8.635600	28.778729	0.000201	20.782363
2501.649495	-3.009600	2.854700	-8.589700	28.784524	0.000200	20.779192
2502.654434	-3.044100	2.852000	-8.680100	28.789329	0.000202	20.770755
2503.653062	-2.971100	2.852100	-8.472800	28.766386	0.000202	20.770404
2504.654850	-2.987000	2.849200	-8.509000	28.792471	0.000201	20.768230
2505.658893	-3.009300	2.846400	-8.564700	28.817638	0.000201	20.780306
2506.654154	-3.004100	2.844300	-8.543200	28.829729	0.000199	20.772098
2507.655212	-2.996000	2.842500	-8.515000	28.826685	0.000201	20.787523
2508.656591	-3.029500	2.841200	-8.607100	28.819416	0.000202	20.775460
2509.656257	-3.019100	2.838900	-8.569200	28.843965	0.000202	20.775533
2510.657082	-3.009200	2.837100	-8.536600	28.819214	0.000201	20.775730
2511.660290	-2.982300	2.834700	-8.453100	28.821017	0.000199	20.758580
2512.668622	-3.002300	2.832900	-8.502800	28.843293	0.000202	20.764898
2513.656875	-3.025800	2.830300	-8.562900	28.830425	0.000201	20.776118
2514.655994	-2.988800	2.828600	-8.453100	28.858990	0.000200	20.762219
2515.657756	-2.968700	2.825200	-8.385500	28.845487	0.000200	20.760470
2516.662444	-3.021100	2.823500	-8.529000	28.839050	0.000200	20.768211
2517.658055	-2.972400	2.821900	-8.385600	28.803393	0.000201	20.756473
2518.658722	-2.996200	2.819200	-8.446100	28.747030	0.000201	20.776512
2519.658451	-2.998200	2.818300	-8.449100	28.721684	0.000203	20.753351
2520.659400	-3.006300	2.814700	-8.461400	28.735311	0.000200	20.732463
2521.661612	-2.985800	2.812800	-8.397200	28.711425	0.000201	20.762459
2522.661717	-2.990300	2.811300	-8.406000	28.733470	0.000203	20.744360
2523.661548	-3.017300	2.807500	-8.469600	28.753705	0.000199	20.752889
2524.660650	-3.001400	2.806500	-8.421800	28.812959	0.000201	20.768006
2525.661665	-2.983600	2.803400	-8.363200	28.835998	0.000200	20.753283
2526.661263	-3.010700	2.800900	-8.431000	28.794357	0.000200	20.756380
2527.663135	-2.979700	2.798100	-8.335400	28.748918	0.000199	20.770353
2528.661544	-3.013400	2.796400	-8.425000	28.775743	0.000201	20.770346
2529.662195	-2.999700	2.793300	-8.377800	28.745097	0.000201	20.761288
2530.662845	-2.992700	2.790300	-8.350000	28.751436	0.000202	20.750129
2531.663909	-2.980300	2.788600	-8.310200	28.750171	0.000200	20.738423
2532.665011	-3.005400	2.784900	-8.368700	28.766200	0.000200	20.763104
2533.664666	-3.004600	2.781500	-8.355800	28.755263	0.000199	20.763467
2534.666121	-2.974900	2.780000	-8.268900	28.769708	0.000202	20.764742
2535.666274	-3.010000	2.776800	-8.357300	28.782540	0.000201	20.736889
2536.666237	-2.979900	2.773500	-8.262900	28.845655	0.000202	20.768701
2537.672388	-2.993600	2.770200	-8.291700	28.903841	0.000203	20.761884
2538.669015	-2.984800	2.770400	-8.268200	28.924280	0.000201	20.751181
2539.665721	-2.990500	2.765200	-8.268300	28.949291	0.000202	20.753145
2540.666637	-3.019300	2.762000	-8.337700	28.910919	0.000202	20.755738
2541.666671	-2.990400	2.759800	-8.251800	28.918644	0.000201	20.744081
2542.666850	-2.997500	2.757300	-8.264300	28.877349	0.000202	20.752265
2543.668555	-3.006500	2.753300	-8.277100	28.831913	0.000200	20.750115
2544.666750	-2.987300	2.750600	-8.215100	28.807064	0.000201	20.746895
2545.667778	-2.972100	2.748000	-8.166200	28.778229	0.000201	20.749616
2546.667508	-3.011200	2.744300	-8.262600	28.763704	0.000201	20.754900
2547.666956	-2.989500	2.740200	-8.190600	28.806807	0.000200	20.749006
2548.668489	-2.989800	2.737900	-8.184400	28.741378	0.000200	20.757067
2549.668683	-3.023000	2.733500	-8.263000	28.729090	0.000200	20.756070
2550.667665	-2.971600	2.732900	-8.120200	28.666419	0.000202	20.751266
2551.668122	-2.994000	2.727800	-8.165600	28.603433	0.000202	20.761322
2552.668085	-3.012300	2.725200	-8.207700	28.571370	0.000201	20.746099
2553.668278	-3.006400	2.722200	-8.181800	28.623084	0.000202	20.754561
2554.669698	-3.005500	2.718800	-8.170300	28.644593	0.000200	20.734972
2555.667990	-2.988900	2.715600	-8.115200	28.737575	0.000200	20.746124
2556.669313	-3.005700	2.712200	-8.150000	28.778099	0.000199	20.743796
2557.668418	-2.988700	2.708900	-8.095000	28.778472	0.000201	20.734214
2558.670651	-3.002300	2.704500	-8.118800	28.783650	0.000201	20.764087
2559.672807	-2.984000	2.701600	-8.059800	28.787629	0.000202	20.733955
2560.671373	-2.993600	2.698400	-8.077600	28.805492	0.000201	20.749104
2561.676257	-3.006800	2.692600	-8.094400	28.769663	0.000199	20.746203
2562.675417	-2.981200	2.690500	-8.020000	28.743107	0.000202	20.746955
2563.672801	-2.979200	2.688000	-8.007500	28.780092	0.000200	20.738690
2564.674798	-2.976700	2.683200	-7.986200	28.806720	0.000200	20.723787
2565.676527	-2.970200	2.679400	-7.957300	28.856093	0.000201	20.734170
2566.673068	-3.012300	2.675300	-8.057800	28.891247	0.000201	20.737816
2567.673913	-2.987600	2.672400	-7.981500	28.884480	0.000203	20.734792
2568.673318	-3.013400	2.668000	-8.039000	28.933177	0.000202	20.736910
2569.672698	-3.003100	2.663700	-7.998800	28.996364	0.000202	20.733240
2570.676113	-2.998400	2.659800	-7.972400	29.003441	0.000199	20.747009
2571.673617	-2.948000	2.656400	-7.830300	29.018030	0.000200	20.731361
2572.677078	-3.015000	2.651500	-7.992800	29.085397	0.000201	20.720529
2573.677390	-3.005000	2.647300	-7.953700	29.086534	0.000201	20.753919
2574.672530	-3.016900	2.642200	-7.969600	29.114688	0.000200	20.746252
2575.674698	-2.999300	2.638000	-7.911100	29.137031	0.000202	20.720400
2576.674756	-2.994700	2.633500	-7.885200	29.094325	0.000200	20.730000
2577.674321	-2.999300	2.629700	-7.886500	29.065046	0.000202	20.730369
2578.674294	-3.012600	2.624400	-7.905800	29.094845	0.000201	20.736688
2579.675108	-3.003600	2.619600	-7.867500	29.135673	0.000200	20.726619
2580.676247	-3.010600	2.615100	-7.872000	29.156848	0.000203	20.739422
2581.675881	-3.021600	2.609000	-7.882200	29.132746	0.000201	20.736472
2582.674429	-2.983200	2.605500	-7.771900	29.146343	0.000202	20.733577
2583.677052	-3.009300	2.599200	-7.820700	29.216324	0.000200	20.726809
2584.676623	-2.995600	2.594500	-7.770200	29.242251	0.000201	20.735394
2585.676931	-3.007800	2.590600	-7.790200	29.261938	0.000200	20.732475
2586.680524	-3.007200	2.583600	-7.768100	29.280086	0.000202	20.722314
2587.676535	-2.986300	2.578400	-7.698400	29.306482	0.000202	20.748443
2588.678200	-3.000200	2.573800	-7.720500	29.318139	0.000203	20.737432
2589.679113	-3.017300	2.568800	-7.749500	29.360579	0.000204	20.734685
2590.679126	-3.009000	2.562400	-7.708300	29.384913	0.000202	20.721279
2591.680582	-3.022900	2.556100	-7.726000	29.379714	0.000200	20.713667
2592.680747	-2.986000	2.552600	-7.621100	29.372572	0.000202	20.728755
2593.680265	-2.965300	2.546000	-7.548800	29.362375	0.000203	20.740289
2594.680697	-2.976100	2.540100	-7.558900	29.300566	0.000202	20.730153
2595.679282	-2.983700	2.533500	-7.558300	29.276523	0.000202	20.736268
2596.681118	-3.004100	2.526700	-7.589600	29.249350	0.000204	20.736384
2597.683342	-3.026400	2.520000	-7.625300	29.219311	0.000202	20.736932
2598.681511	-2.993800	2.514000	-7.525900	29.156437	0.000203	20.729524
2599.684699	-3.011200	2.508400	-7.552200	29.139986	0.000202	20.740449
2600.683141	-2.972900	2.503100	-7.440600	29.177404	0.000202	20.723150
2601.681163	-3.011500	2.496500	-7.517700	29.216359	0.000201	20.731587
