LabVIEW Measurement	
Writer_Version	2
Reader_Version	2
Separator	Tab
Decimal_Separator	.
Multi_Headings	No
X_Columns	One
Time_Pref	Absolute
Operator	admin
Description	Clolumns are: time, Current, Voltage, Power, Battery Temp, and Chamber Temp
Date	2024/08/16
Time	13:06:06.104549407958984375
***End_of_Header***	
	
Channels	6						
Samples	1	1	1	1	1	1	
Date	2024/09/16	2024/09/16	2024/09/16	2024/09/16	2024/09/16	2024/09/16	
Time	02:10:25.5777277946472167969	02:10:25.5827913284301757813	02:10:25.5887317657470703125	02:10:25.5620961189270019531	02:10:25.5620961189270019531	02:10:25.5620961189270019531	
X_Dimension	Time	Time	Time	Time	Time	Time	
X0	0.0000000000000000E+0	0.0000000000000000E+0	0.0000000000000000E+0	0.0000000000000000E+0	0.0000000000000000E+0	0.0000000000000000E+0	
Delta_X	1.000000	1.000000	1.000000	1.000000	1.000000	1.000000	
***End_of_Header***							
X_Value	Untitled	Untitled 1	Untitled 2	Untitled 3	Untitled 4	Untitled 5	Comment
0.000000	0.005246	4.091000	0.021356	21.018849	0.000945	20.759508
1.004863	-3.009600	3.910300	-11.767000	21.018699	0.000947	20.776427
2.005226	-3.018300	3.901700	-11.776000	21.019870	0.000943	20.769538
3.002485	-3.017500	3.898300	-11.762000	20.997692	0.000945	20.789082
4.005124	-3.027300	3.894600	-11.789000	21.007321	0.000942	20.783066
5.007043	-3.000200	3.890700	-11.671000	21.013807	0.000943	20.786708
6.005850	-2.987800	3.888900	-11.618000	21.018623	0.000941	20.772559
7.005423	-2.996700	3.884900	-11.640000	21.022369	0.000940	20.783891
8.005127	-3.008000	3.883600	-11.679000	21.014209	0.000939	20.773359
9.015860	-3.030700	3.881200	-11.761000	21.040505	0.000936	20.763151
10.006421	-2.988400	3.879200	-11.591000	21.029254	0.000937	20.754267
11.006880	-2.986800	3.878500	-11.583000	21.042628	0.000938	20.763851
12.007256	-2.999300	3.875400	-11.623000	21.054378	0.000935	20.743835
13.004959	-2.996000	3.873200	-11.603000	21.045846	0.000936	20.759957
14.007728	-3.006900	3.873700	-11.647000	21.044448	0.000935	20.777526
15.007243	-2.980600	3.871300	-11.538000	21.048341	0.000935	20.757712
16.013395	-2.999600	3.870000	-11.607000	21.062164	0.000933	20.760632
17.008296	-3.005300	3.869200	-11.626000	21.073293	0.000934	20.757065
18.005774	-2.996300	3.867500	-11.586000	21.062362	0.000934	20.766046
19.010812	-3.010100	3.867000	-11.638000	21.082325	0.000932	20.750451
20.006605	-2.986500	3.866400	-11.546000	21.080250	0.000931	20.757385
21.011647	-3.004100	3.864800	-11.609000	21.097591	0.000933	20.751023
22.011451	-2.996900	3.864100	-11.580000	21.096741	0.000931	20.759182
23.012794	-3.025000	3.862200	-11.682000	21.097516	0.000931	20.752370
24.014050	-3.017900	3.862600	-11.656000	21.109119	0.000930	20.773460
25.011032	-3.001700	3.861100	-11.588000	21.124338	0.000930	20.774932
26.014584	-2.997700	3.862100	-11.577000	21.136634	0.000932	20.764947
27.014209	-3.017500	3.859900	-11.647000	21.127505	0.000930	20.762928
28.009535	-2.990200	3.861800	-11.546000	21.136712	0.000930	20.769767
29.008622	-2.991300	3.859400	-11.543000	21.151752	0.000929	20.747352
30.012329	-3.012800	3.858600	-11.624000	21.144868	0.000931	20.765123
31.012232	-3.005000	3.859100	-11.596000	21.129700	0.000929	20.777451
32.012563	-3.001400	3.856500	-11.573000	21.165002	0.000930	20.756814
33.023258	-3.019200	3.855500	-11.638000	21.148013	0.000928	20.739819
34.012639	-3.028900	3.854400	-11.673000	21.152625	0.000927	20.758183
35.018307	-2.985500	3.855700	-11.511000	21.164177	0.000927	20.764523
36.013845	-3.025500	3.853700	-11.658000	21.153177	0.000927	20.765374
37.013471	-2.997200	3.854900	-11.553000	21.182264	0.000924	20.751796
38.009222	-3.011100	3.854100	-11.603000	21.196336	0.000928	20.762080
39.015698	-2.980800	3.853900	-11.487000	21.193091	0.000929	20.730857
40.014467	-2.979700	3.854300	-11.483000	21.217465	0.000927	20.738644
41.013381	-3.007400	3.852300	-11.584000	21.209906	0.000926	20.754317
42.015862	-3.012900	3.851900	-11.604000	21.226420	0.000926	20.732904
43.015657	-2.982500	3.852200	-11.488000	21.250244	0.000928	20.747729
44.016104	-2.975200	3.853500	-11.464000	21.233954	0.000927	20.756088
45.013752	-3.012500	3.850600	-11.599000	21.233229	0.000924	20.762950
46.013020	-3.034500	3.847700	-11.674000	21.277009	0.000926	20.752694
47.010963	-3.009300	3.849100	-11.582000	21.239017	0.000927	20.751670
48.016554	-3.008100	3.850400	-11.582000	21.254859	0.000927	20.753768
49.013891	-3.008800	3.848200	-11.577000	21.252162	0.000924	20.753441
50.014028	-2.998300	3.848900	-11.539000	21.268456	0.000927	20.752197
51.014119	-3.016700	3.847400	-11.605000	21.307443	0.000925	20.758484
52.013390	-3.010500	3.847400	-11.582000	21.315751	0.000924	20.738346
53.012252	-3.008700	3.848600	-11.579000	21.314429	0.000924	20.763103
54.018294	-3.023500	3.846300	-11.628000	21.322612	0.000926	20.757539
55.014442	-2.997600	3.847300	-11.531000	21.308443	0.000926	20.750002
56.010277	-2.995000	3.846600	-11.519000	21.339921	0.000925	20.740717
57.015423	-3.004300	3.845600	-11.553000	21.354739	0.000924	20.746058
58.010903	-2.991100	3.845400	-11.502000	21.350574	0.000924	20.756591
59.008648	-2.984400	3.846900	-11.480000	21.329297	0.000926	20.744312
60.013039	-3.030100	3.845100	-11.650000	21.366464	0.000925	20.756842
61.013462	-2.982500	3.843800	-11.463000	21.374794	0.000925	20.754744
62.010781	-2.980000	3.845400	-11.458000	21.385568	0.000924	20.755567
63.009806	-2.986300	3.844900	-11.480000	21.381855	0.000926	20.745213
64.025456	-2.981200	3.844400	-11.460000	21.369907	0.000924	20.753174
65.009858	-3.006300	3.842900	-11.552000	21.398916	0.000924	20.758490
66.016558	-2.980200	3.843300	-11.453000	21.403206	0.000927	20.725323
67.018030	-3.010500	3.841800	-11.564000	21.431615	0.000927	20.755171
68.015942	-3.020800	3.841200	-11.602000	21.429898	0.000926	20.760566
69.014971	-3.005800	3.843700	-11.553000	21.426829	0.000925	20.749908
70.017011	-3.015700	3.840800	-11.582000	21.454566	0.000926	20.728347
71.016798	-3.011200	3.841400	-11.566000	21.447533	0.000927	20.735061
72.015173	-2.988500	3.841100	-11.477000	21.453819	0.000926	20.739928
73.019733	-2.995500	3.841200	-11.505000	21.479483	0.000926	20.749013
74.019083	-3.008100	3.841400	-11.553000	21.498564	0.000927	20.760044
75.020924	-2.966400	3.842300	-11.397000	21.466042	0.000927	20.743624
76.027086	-2.974900	3.840700	-11.425000	21.485917	0.000925	20.735061
77.029200	-2.982800	3.839600	-11.451000	21.496844	0.000923	20.770177
78.017202	-2.996200	3.839600	-11.503000	21.485844	0.000926	20.758697
79.018856	-3.000900	3.838100	-11.516000	21.511057	0.000926	20.749785
80.021815	-3.003900	3.838900	-11.530000	21.532208	0.000926	20.741551
81.018408	-2.982100	3.838400	-11.445000	21.541311	0.000926	20.754454
82.021955	-2.982000	3.839000	-11.447000	21.534928	0.000927	20.745222
83.024084	-3.027600	3.837500	-11.618000	21.535873	0.000926	20.740003
84.023613	-3.008300	3.836500	-11.539000	21.565929	0.000927	20.759174
85.030495	-3.021300	3.837100	-11.591000	21.554682	0.000927	20.744600
86.023785	-3.020200	3.836000	-11.584000	21.565505	0.000925	20.743577
87.020770	-3.008200	3.836000	-11.538000	21.554155	0.000929	20.742176
88.023391	-3.007400	3.836300	-11.535000	21.577922	0.000927	20.737984
89.024388	-2.991000	3.835400	-11.470000	21.582689	0.000929	20.765040
90.025089	-3.009900	3.834400	-11.540000	21.578173	0.000929	20.743451
91.028293	-2.986000	3.836200	-11.453000	21.571417	0.000927	20.748544
92.030833	-2.998100	3.834100	-11.494000	21.585607	0.000927	20.763693
93.025990	-2.985300	3.834400	-11.445000	21.624335	0.000928	20.764990
94.026688	-3.003700	3.833800	-11.513000	21.631790	0.000929	20.763442
95.028201	-2.980000	3.836000	-11.430000	21.609248	0.000929	20.753211
96.028028	-3.002800	3.834400	-11.511000	21.628599	0.000929	20.751239
97.026966	-2.998000	3.834600	-11.495000	21.632841	0.000930	20.750268
98.027820	-3.023200	3.833500	-11.588000	21.659823	0.000929	20.741234
99.027213	-3.003500	3.832600	-11.510000	21.676930	0.000928	20.750767
100.028690	-3.005800	3.832300	-11.518000	21.674884	0.000931	20.778118
101.029768	-3.010700	3.832600	-11.538000	21.684137	0.000929	20.767464
102.039603	-3.021200	3.831200	-11.574000	21.721889	0.000931	20.777271
103.029768	-2.992800	3.831700	-11.467000	21.697306	0.000931	20.766892
104.033251	-2.996100	3.831700	-11.479000	21.720298	0.000931	20.763350
105.033792	-3.003500	3.830800	-11.505000	21.713314	0.000932	20.756834
106.028409	-3.007100	3.831500	-11.521000	21.743886	0.000930	20.772259
107.034095	-2.973800	3.831800	-11.393000	21.744859	0.000934	20.751894
108.030931	-2.971000	3.830500	-11.378000	21.752988	0.000930	20.768092
109.041735	-3.010700	3.830800	-11.533000	21.768823	0.000931	20.770663
110.034564	-2.980400	3.831500	-11.418000	21.747679	0.000932	20.755192
111.030034	-2.985700	3.830800	-11.437000	21.767602	0.000932	20.773235
112.033153	-3.002100	3.829600	-11.496000	21.762667	0.000934	20.743164
113.030649	-3.001600	3.828700	-11.490000	21.783615	0.000933	20.756070
114.034048	-2.999100	3.829500	-11.484000	21.794258	0.000934	20.780473
115.030551	-3.011600	3.827800	-11.527000	21.804780	0.000934	20.772038
116.035039	-3.011200	3.829200	-11.530000	21.813185	0.000933	20.769545
117.034088	-2.992500	3.829300	-11.458000	21.821389	0.000933	20.773489
118.033518	-3.008300	3.828000	-11.514000	21.828869	0.000935	20.758689
119.033208	-2.990400	3.829100	-11.449000	21.829119	0.000936	20.755621
120.030618	-2.994400	3.828900	-11.463000	21.848492	0.000936	20.770745
121.033018	-2.984000	3.829100	-11.426000	21.853725	0.000936	20.772663
122.033528	-2.996000	3.828400	-11.469000	21.852429	0.000935	20.777056
123.033034	-2.996900	3.826600	-11.467000	21.860708	0.000934	20.773015
124.034542	-2.991000	3.825600	-11.441000	21.851733	0.000937	20.776359
125.034243	-2.992100	3.825300	-11.445000	21.908778	0.000937	20.753800
126.034189	-2.996900	3.826500	-11.467000	21.899006	0.000939	20.785745
127.036383	-3.003700	3.826200	-11.492000	21.888955	0.000937	20.773787
128.037937	-2.986700	3.826100	-11.426000	21.915633	0.000938	20.763506
129.032412	-2.989100	3.826500	-11.437000	21.902796	0.000939	20.759192
130.041955	-2.991100	3.825100	-11.441000	21.917854	0.000939	20.769049
131.037153	-3.005900	3.827000	-11.502000	21.935205	0.000939	20.796848
132.033214	-2.974000	3.827300	-11.381000	21.947022	0.000938	20.759365
133.052783	-3.029800	3.824300	-11.586000	21.956119	0.000941	20.769420
134.039591	-3.002600	3.825000	-11.484000	21.975345	0.000940	20.800045
135.037292	-3.023300	3.823600	-11.559000	21.971753	0.000940	20.770371
136.042063	-2.994800	3.824100	-11.450000	21.959836	0.000941	20.767450
137.039054	-3.009700	3.823500	-11.507000	21.957421	0.000942	20.770248
138.037597	-3.011200	3.823800	-11.514000	21.955325	0.000940	20.789014
139.040906	-3.028300	3.822200	-11.574000	21.951015	0.000941	20.774742
140.035894	-2.998000	3.823600	-11.462000	21.975122	0.000941	20.771372
141.041281	-2.998300	3.823800	-11.464000	21.956075	0.000944	20.784548
142.039946	-2.986700	3.823200	-11.418000	21.981954	0.000946	20.753555
143.038950	-2.988400	3.822200	-11.421000	21.966423	0.000943	20.782579
144.039855	-3.001900	3.821600	-11.471000	21.999555	0.000944	20.784925
145.041541	-2.998300	3.821600	-11.457000	22.002773	0.000943	20.787198
146.045064	-2.994200	3.821300	-11.440000	22.012946	0.000944	20.780312
147.041422	-3.000500	3.821800	-11.466000	22.005019	0.000943	20.780912
148.043352	-3.012700	3.820400	-11.509000	22.017431	0.000945	20.763465
149.038518	-3.005400	3.820200	-11.481000	22.016986	0.000944	20.794788
150.040828	-3.011300	3.821200	-11.506000	22.018883	0.000946	20.780566
151.043661	-2.999400	3.820600	-11.459000	22.024715	0.000947	20.788300
152.038077	-3.003000	3.821100	-11.473000	22.030922	0.000947	20.776971
153.044583	-3.004100	3.819700	-11.473000	22.034686	0.000946	20.799231
154.039816	-3.004400	3.820000	-11.476000	22.084543	0.000947	20.813107
155.042689	-2.999200	3.819100	-11.453000	22.089951	0.000949	20.789123
156.040591	-2.975500	3.821100	-11.369000	22.075842	0.000948	20.799181
157.043982	-2.983700	3.820300	-11.397000	22.091873	0.000949	20.791522
158.040614	-3.005600	3.819000	-11.477000	22.111191	0.000949	20.779093
159.054591	-3.002500	3.817400	-11.459000	22.117373	0.000949	20.801404
160.048223	-2.991400	3.818000	-11.420000	22.144394	0.000950	20.798110
161.047020	-2.976600	3.818700	-11.365000	22.146937	0.000951	20.783587
162.043807	-3.003700	3.817800	-11.467000	22.143374	0.000950	20.793296
163.051329	-3.001100	3.817300	-11.455000	22.169817	0.000952	20.798908
164.046866	-2.982700	3.818200	-11.388000	22.157955	0.000951	20.790351
165.044141	-2.987600	3.816200	-11.401000	22.165480	0.000951	20.786030
166.047886	-2.981800	3.817100	-11.379000	22.180816	0.000952	20.810394
167.047943	-2.983800	3.817800	-11.391000	22.188142	0.000953	20.807298
168.044822	-3.008200	3.816400	-11.479000	22.176924	0.000954	20.810290
169.044624	-2.996200	3.816300	-11.434000	22.182958	0.000955	20.800685
170.048083	-3.003100	3.816700	-11.461000	22.210724	0.000955	20.814733
171.043958	-2.990500	3.818400	-11.418000	22.230964	0.000956	20.802283
172.049004	-2.999800	3.816700	-11.448000	22.232661	0.000955	20.801137
173.046725	-3.015100	3.815300	-11.503000	22.247392	0.000957	20.806402
174.046471	-3.018100	3.815700	-11.515000	22.249386	0.000954	20.797494
175.048395	-2.989300	3.815700	-11.406000	22.256041	0.000954	20.823123
176.046029	-3.005200	3.813800	-11.459000	22.289960	0.000955	20.808249
177.047199	-2.990400	3.813600	-11.403000	22.269974	0.000959	20.794875
178.046527	-2.988000	3.813400	-11.393000	22.287248	0.000958	20.831136
179.053021	-3.009900	3.813600	-11.478000	22.296097	0.000958	20.790686
180.048656	-3.021700	3.811700	-11.517000	22.300833	0.000958	20.804911
181.060139	-3.010400	3.812700	-11.474000	22.313097	0.000959	20.808657
182.048740	-3.011500	3.812000	-11.479000	22.294827	0.000960	20.817863
183.052630	-2.990900	3.813800	-11.406000	22.327877	0.000958	20.802593
184.052132	-2.997800	3.813600	-11.431000	22.335453	0.000961	20.817292
185.051451	-3.011500	3.810400	-11.473000	22.342631	0.000961	20.824005
186.050395	-3.015900	3.813200	-11.499000	22.354620	0.000963	20.824156
187.056368	-2.992500	3.813600	-11.411000	22.376777	0.000960	20.818369
188.053291	-3.007600	3.811800	-11.463000	22.389113	0.000962	20.818868
189.050751	-2.993300	3.812700	-11.411000	22.390035	0.000960	20.809834
190.055507	-3.005200	3.812000	-11.454000	22.403543	0.000964	20.822413
191.054409	-3.035200	3.810000	-11.563000	22.414735	0.000963	20.832671
192.052583	-2.989300	3.812500	-11.395000	22.416977	0.000964	20.830649
193.057510	-2.991100	3.810200	-11.397000	22.412270	0.000963	20.818350
194.054780	-2.977700	3.811500	-11.349000	22.409724	0.000962	20.804420
195.051535	-2.989400	3.809800	-11.388000	22.402549	0.000964	20.816676
196.056302	-3.001300	3.811200	-11.435000	22.427171	0.000965	20.812883
197.055995	-3.003000	3.809600	-11.438000	22.437985	0.000967	20.826084
198.054040	-2.999200	3.809700	-11.425000	22.445163	0.000967	20.821892
199.054224	-2.993400	3.809500	-11.401000	22.446458	0.000968	20.820344
200.055551	-3.000600	3.809100	-11.429000	22.473172	0.000968	20.815329
201.054552	-2.971300	3.810400	-11.320000	22.447931	0.000968	20.846000
202.060066	-2.984900	3.809200	-11.369000	22.465224	0.000967	20.823016
203.056921	-2.986700	3.809200	-11.376000	22.467792	0.000970	20.845975
204.053365	-2.993800	3.809400	-11.405000	22.467992	0.000970	20.825314
205.065198	-3.009300	3.808300	-11.460000	22.475395	0.000970	20.836521
206.060909	-2.995300	3.807500	-11.403000	22.486260	0.000970	20.819426
207.056040	-3.004500	3.807300	-11.438000	22.488527	0.000969	20.840662
208.059263	-2.996500	3.807400	-11.408000	22.526575	0.000971	20.819025
209.056927	-3.009400	3.806600	-11.455000	22.514914	0.000972	20.844330
210.059506	-2.998000	3.805700	-11.409000	22.503850	0.000972	20.804800
211.057802	-2.993400	3.806600	-11.392000	22.529118	0.000974	20.818726
212.060693	-3.002000	3.805300	-11.423000	22.543694	0.000974	20.837591
213.057382	-2.999600	3.803600	-11.408000	22.545437	0.000975	20.850242
214.057284	-2.986100	3.806000	-11.365000	22.550375	0.000975	20.838593
215.058418	-2.997600	3.806600	-11.409000	22.543546	0.000976	20.834125
216.060316	-2.991100	3.804600	-11.379000	22.525380	0.000975	20.817354
217.058903	-2.989400	3.805900	-11.375000	22.525756	0.000976	20.846179
218.057223	-2.994700	3.805400	-11.394000	22.556978	0.000978	20.834301
219.058792	-3.031400	3.803100	-11.526000	22.551394	0.000976	20.858579
220.059088	-3.009400	3.803600	-11.445000	22.545913	0.000977	20.847401
221.057142	-2.994900	3.805400	-11.395000	22.566446	0.000979	20.846154
222.057954	-3.016900	3.804200	-11.475000	22.581696	0.000979	20.846255
223.064785	-2.998200	3.803300	-11.402000	22.586778	0.000979	20.842336
224.056669	-3.008800	3.803900	-11.443000	22.587151	0.000978	20.848873
225.060412	-2.986100	3.802700	-11.355000	22.607059	0.000978	20.847476
226.060754	-3.014600	3.802600	-11.462000	22.614537	0.000981	20.858758
227.060403	-2.981400	3.803600	-11.339000	22.621935	0.000979	20.862849
228.060476	-3.008100	3.801600	-11.433000	22.597494	0.000982	20.843586
229.063595	-2.992800	3.803900	-11.383000	22.603946	0.000981	20.859530
230.061456	-2.991300	3.802800	-11.374000	22.608530	0.000985	20.850371
231.057293	-2.992200	3.802200	-11.376000	22.632651	0.000982	20.852245
232.056059	-2.991400	3.800200	-11.368000	22.634742	0.000983	20.847228
233.057024	-2.988800	3.802000	-11.361000	22.619371	0.000984	20.846057
234.061532	-3.000500	3.799600	-11.399000	22.619744	0.000985	20.872507
235.068284	-3.000300	3.801200	-11.403000	22.629861	0.000986	20.843761
236.062462	-3.010600	3.800200	-11.440000	22.653581	0.000985	20.853294
237.063594	-3.026800	3.798900	-11.498000	22.684698	0.000986	20.841315
238.062660	-3.003200	3.800300	-11.412000	22.681883	0.000986	20.855564
239.064237	-3.007600	3.799400	-11.426000	22.708191	0.000988	20.856786
240.062751	-3.017900	3.799000	-11.464000	22.709266	0.000987	20.852647
241.058369	-3.034600	3.797800	-11.524000	22.734279	0.000988	20.866322
242.058822	-3.029800	3.796900	-11.502000	22.730316	0.000988	20.853344
243.061779	-3.017900	3.798000	-11.461000	22.744717	0.000988	20.850701
244.065514	-3.002500	3.797500	-11.401000	22.740959	0.000991	20.875857
245.063285	-2.992500	3.799000	-11.368000	22.737366	0.000990	20.854242
246.062687	-2.996400	3.797700	-11.377000	22.711533	0.000988	20.853021
247.061751	-2.992400	3.797500	-11.363000	22.710087	0.000990	20.880495
248.070425	-3.006000	3.797000	-11.413000	22.732711	0.000990	20.875182
249.070366	-3.010200	3.797500	-11.431000	22.718561	0.000995	20.878077
250.060859	-2.980100	3.798900	-11.320000	22.720551	0.000993	20.863477
251.066253	-3.004600	3.796600	-11.406000	22.748134	0.000993	20.906750
252.065084	-2.988300	3.796100	-11.343000	22.759918	0.000994	20.891528
253.059582	-3.008600	3.796100	-11.420000	22.768886	0.000994	20.875857
254.065893	-2.988600	3.795200	-11.341000	22.790509	0.000996	20.887560
255.066291	-2.989200	3.795600	-11.345000	22.815394	0.000998	20.866497
256.067708	-2.979300	3.795400	-11.307000	22.814150	0.000996	20.879949
257.070039	-3.010600	3.794900	-11.424000	22.829198	0.000997	20.881274
258.067295	-2.993200	3.794500	-11.357000	22.825710	0.000997	20.891054
259.065491	-3.010800	3.793900	-11.422000	22.860186	0.000998	20.873437
260.068756	-2.997800	3.794400	-11.374000	22.847106	0.000998	20.891626
261.064755	-2.993100	3.794300	-11.356000	22.838840	0.000997	20.892354
262.064512	-3.000300	3.794000	-11.382000	22.836922	0.000998	20.891855
263.067737	-2.991300	3.794800	-11.350000	22.852814	0.000999	20.866526
264.066160	-3.007700	3.793500	-11.408000	22.870601	0.001000	20.881500
265.067705	-2.999600	3.791800	-11.372000	22.896005	0.000999	20.880398
266.067850	-3.008300	3.792500	-11.408000	22.931278	0.001000	20.888235
267.072296	-2.993400	3.793100	-11.354000	22.913369	0.001002	20.880250
268.068950	-2.997500	3.792400	-11.367000	22.914965	0.001001	20.888486
269.068919	-2.993500	3.790700	-11.346000	22.927420	0.001000	20.877732
270.067460	-3.023400	3.792300	-11.465000	22.937033	0.001001	20.874087
271.067000	-2.981200	3.792700	-11.306000	22.932899	0.001003	20.884169
272.071656	-3.017200	3.791000	-11.436000	22.921941	0.001003	20.885519
273.066398	-2.998200	3.789800	-11.361000	22.912949	0.001004	20.884096
274.069378	-3.011600	3.790700	-11.415000	22.930162	0.001004	20.882850
275.072206	-2.995100	3.790700	-11.353000	22.935741	0.001006	20.921626
276.074753	-3.014800	3.790400	-11.426000	22.905229	0.001005	20.875415
277.073467	-3.003700	3.790200	-11.383000	22.928968	0.001006	20.890188
278.076881	-3.002700	3.788400	-11.374000	22.936067	0.001005	20.895403
279.072470	-2.990500	3.789800	-11.332000	22.931883	0.001006	20.905434
280.069300	-2.997600	3.789400	-11.358000	22.951710	0.001007	20.911548
281.074534	-2.991200	3.789800	-11.334000	22.950688	0.001006	20.907205
282.071231	-3.000900	3.788900	-11.369000	22.963817	0.001007	20.918935
283.071514	-3.010600	3.787600	-11.402000	22.990968	0.001007	20.912474
284.073262	-3.001000	3.788500	-11.369000	22.990817	0.001008	20.913271
285.075627	-3.020700	3.787000	-11.439000	23.034132	0.001008	20.907359
286.074288	-3.005900	3.786200	-11.380000	23.043647	0.001009	20.892712
287.079123	-2.980800	3.788000	-11.291000	23.053584	0.001009	20.904565
288.079173	-3.028400	3.786400	-11.466000	23.072914	0.001010	20.898803
289.072315	-3.009500	3.788700	-11.401000	23.061830	0.001010	20.896706
290.077421	-2.996300	3.786800	-11.345000	23.040115	0.001013	20.911456
291.080307	-2.983700	3.787800	-11.301000	23.046912	0.001010	20.905466
292.073186	-2.987800	3.787000	-11.312000	23.073588	0.001011	20.913701
293.086362	-2.989600	3.786300	-11.317000	23.066016	0.001012	20.902323
294.079344	-2.992300	3.786200	-11.328000	23.101582	0.001014	20.912828
295.077254	-3.006000	3.784400	-11.375000	23.106339	0.001012	20.889622
296.082462	-3.009000	3.785600	-11.390000	23.095280	0.001013	20.896558
297.079346	-3.001400	3.785300	-11.361000	23.121431	0.001014	20.891943
298.079841	-3.008000	3.784800	-11.382000	23.116003	0.001014	20.886030
299.082207	-3.008400	3.783900	-11.382000	23.121782	0.001018	20.867166
300.087836	-2.996900	3.784600	-11.341000	23.102431	0.001014	20.901353
301.081362	-2.985400	3.784300	-11.296000	23.107360	0.001017	20.893016
302.081593	-2.979800	3.784000	-11.273000	23.090751	0.001016	20.886332
303.083844	-2.999700	3.782400	-11.345000	23.110099	0.001018	20.883434
304.081606	-3.016500	3.781900	-11.407000	23.062707	0.001019	20.882413
305.085088	-3.019800	3.780900	-11.417000	23.095035	0.001016	20.868814
306.089195	-3.024300	3.782000	-11.437000	23.095361	0.001019	20.877675
307.081128	-2.988500	3.782300	-11.302000	23.124476	0.001020	20.887408
308.084228	-3.002900	3.781400	-11.354000	23.146540	0.001020	20.878224
309.084372	-3.016300	3.780900	-11.403000	23.133044	0.001021	20.874657
310.085504	-2.994900	3.781200	-11.324000	23.146591	0.001022	20.865947
311.084197	-2.997900	3.781600	-11.336000	23.145375	0.001023	20.876582
312.083521	-2.985900	3.780400	-11.287000	23.154738	0.001021	20.864154
313.087580	-2.990600	3.780500	-11.305000	23.146622	0.001022	20.852229
314.083424	-3.000400	3.779300	-11.337000	23.154963	0.001022	20.890457
315.087793	-2.996300	3.779800	-11.325000	23.191573	0.001023	20.853651
316.082852	-3.002700	3.780400	-11.350000	23.177155	0.001024	20.870971
317.084459	-3.014800	3.779100	-11.392000	23.195984	0.001022	20.879408
318.089213	-3.014600	3.779000	-11.390000	23.212244	0.001022	20.876262
319.085445	-3.001000	3.780000	-11.343000	23.214140	0.001025	20.882428
320.088223	-2.996800	3.778500	-11.321000	23.218125	0.001026	20.875518
321.086945	-2.997600	3.778400	-11.325000	23.226069	0.001026	20.864512
322.083107	-3.016400	3.777600	-11.394000	23.220767	0.001026	20.863467
323.085416	-2.977700	3.778900	-11.251000	23.249280	0.001026	20.856006
324.088622	-2.983000	3.779600	-11.274000	23.248008	0.001025	20.861369
325.089897	-2.999500	3.776700	-11.327000	23.261008	0.001028	20.868233
326.088989	-2.986400	3.776900	-11.279000	23.262030	0.001024	20.865938
327.089986	-3.033000	3.775400	-11.450000	23.263998	0.001026	20.870280
328.089433	-3.017000	3.776500	-11.393000	23.254911	0.001028	20.850744
329.090908	-3.002200	3.776600	-11.337000	23.272570	0.001029	20.859906
330.090394	-3.010200	3.774400	-11.360000	23.276775	0.001027	20.857956
331.085725	-3.004700	3.775400	-11.343000	23.276850	0.001029	20.869410
332.091745	-3.011400	3.774000	-11.364000	23.272420	0.001026	20.856436
333.090273	-2.986100	3.774600	-11.270000	23.291592	0.001028	20.876124
334.087611	-3.002200	3.774000	-11.329000	23.264502	0.001029	20.860829
335.091218	-2.996400	3.773600	-11.306000	23.267789	0.001030	20.857485
336.092795	-2.993500	3.772900	-11.292000	23.250283	0.001031	20.852744
337.093184	-2.996800	3.773200	-11.306000	23.236437	0.001029	20.843136
338.090615	-3.010000	3.773300	-11.356000	23.232103	0.001031	20.847327
339.088037	-3.017100	3.772800	-11.382000	23.231505	0.001032	20.847202
340.087820	-3.019500	3.770700	-11.385000	23.230311	0.001032	20.850273
341.088372	-3.004700	3.772400	-11.333000	23.273341	0.001032	20.873954
342.089416	-3.007200	3.772500	-11.343000	23.247692	0.001032	20.850621
343.087354	-3.014000	3.771900	-11.366000	23.247319	0.001034	20.868264
344.088920	-3.004200	3.770700	-11.327000	23.269656	0.001031	20.868365
345.091181	-3.017200	3.770400	-11.375000	23.232125	0.001033	20.847349
346.089893	-2.981500	3.771000	-11.242000	23.252646	0.001033	20.858904
347.091962	-3.001200	3.770700	-11.315000	23.256305	0.001034	20.846926
348.097287	-3.014900	3.770300	-11.366000	23.244399	0.001032	20.843528
349.090023	-3.016800	3.768900	-11.368000	23.254560	0.001033	20.856556
350.091918	-2.971300	3.771000	-11.204000	23.274309	0.001034	20.839364
351.093762	-3.013400	3.769000	-11.356000	23.287804	0.001035	20.833449
352.096104	-3.006400	3.768900	-11.330000	23.282850	0.001035	20.832752
353.098496	-3.017800	3.769000	-11.373000	23.295198	0.001036	20.856031
354.093842	-3.016900	3.768100	-11.366000	23.323237	0.001036	20.828657
355.095038	-2.989900	3.768700	-11.267000	23.330136	0.001037	20.825140
356.099153	-3.005300	3.768200	-11.322000	23.338830	0.001038	20.829587
357.096595	-2.988300	3.767400	-11.257000	23.349658	0.001034	20.837594
358.096720	-3.010900	3.767000	-11.340000	23.368209	0.001037	20.842435
359.095011	-3.006100	3.766400	-11.321000	23.345228	0.001039	20.839791
360.098988	-3.003600	3.767600	-11.316000	23.333648	0.001038	20.836246
361.097477	-3.016500	3.765600	-11.359000	23.346497	0.001040	20.846753
362.101486	-3.013200	3.765000	-11.344000	23.367288	0.001040	20.843883
363.092387	-2.992900	3.766400	-11.271000	23.354464	0.001039	20.828186
364.095248	-2.983200	3.766100	-11.234000	23.370847	0.001041	20.836545
365.095997	-3.008600	3.765000	-11.326000	23.346146	0.001040	20.828858
366.098229	-3.002400	3.765900	-11.304000	23.364001	0.001041	20.839641
367.098590	-3.004000	3.764400	-11.308000	23.356708	0.001041	20.841339
368.102726	-2.989300	3.764200	-11.250000	23.384767	0.001043	20.839116
369.096952	-2.978500	3.765200	-11.213000	23.394776	0.001042	20.849149
370.099802	-3.014200	3.763800	-11.343000	23.438996	0.001042	20.822349
371.099305	-2.983600	3.764100	-11.229000	23.440616	0.001042	20.848153
372.101186	-2.990700	3.765500	-11.260000	23.464566	0.001044	20.854141
373.102135	-2.989700	3.763100	-11.250000	23.487197	0.001044	20.840790
374.103052	-2.996200	3.762200	-11.272000	23.473203	0.001043	20.829609
375.103702	-2.996000	3.763100	-11.274000	23.475270	0.001043	20.841638
376.099962	-3.011900	3.761800	-11.330000	23.481868	0.001045	20.857259
377.104732	-3.000600	3.762300	-11.288000	23.484803	0.001045	20.824167
378.103705	-3.030200	3.760300	-11.394000	23.477310	0.001043	20.815708
379.113735	-3.005300	3.761300	-11.302000	23.479030	0.001044	20.852992
380.101515	-2.997600	3.761700	-11.275000	23.501162	0.001042	20.837719
381.103662	-3.001000	3.760300	-11.284000	23.510544	0.001045	20.832425
382.103180	-3.015200	3.759600	-11.335000	23.519133	0.001046	20.837242
383.111236	-3.008800	3.760300	-11.312000	23.529092	0.001046	20.832526
384.106730	-3.010100	3.760300	-11.318000	23.532528	0.001047	20.847824
385.101757	-2.988800	3.760900	-11.239000	23.575196	0.001045	20.833697
386.110090	-2.975400	3.760600	-11.188000	23.578256	0.001048	20.830127
387.102853	-3.011300	3.758000	-11.315000	23.542759	0.001047	20.834846
388.114318	-2.995400	3.757900	-11.255000	23.543552	0.001048	20.823787
389.107587	-2.994700	3.758600	-11.255000	23.544623	0.001047	20.809214
390.106917	-2.988900	3.759000	-11.234000	23.545321	0.001047	20.833621
391.101707	-2.996600	3.757400	-11.259000	23.540911	0.001047	20.820666
392.111308	-3.000600	3.757800	-11.275000	23.545290	0.001046	20.821262
393.106232	-2.987600	3.758100	-11.227000	23.530304	0.001048	20.822836
394.106465	-3.012500	3.756300	-11.313000	23.513200	0.001049	20.826079
395.110805	-3.007400	3.756600	-11.297000	23.520869	0.001048	20.826180
396.106672	-2.977100	3.758000	-11.187000	23.515042	0.001049	20.820813
397.106102	-2.993600	3.756100	-11.244000	23.528287	0.001048	20.820813
398.111226	-3.003900	3.756500	-11.284000	23.527836	0.001050	20.828896
399.106989	-2.982600	3.756100	-11.202000	23.550318	0.001050	20.836733
400.107264	-2.990600	3.756200	-11.232000	23.580489	0.001049	20.822409
401.111161	-2.998200	3.755500	-11.258000	23.588380	0.001050	20.828896
402.110699	-3.009900	3.753600	-11.297000	23.596844	0.001050	20.833113
403.107846	-2.996900	3.755200	-11.253000	23.610087	0.001051	20.817466
404.112110	-3.016400	3.752500	-11.317000	23.571872	0.001052	20.808555
405.114450	-3.000200	3.752400	-11.256000	23.562240	0.001051	20.815968
406.118350	-2.987500	3.753900	-11.213000	23.583497	0.001050	20.826371
407.110616	-3.013800	3.753500	-11.311000	23.589150	0.001051	20.813547
408.115648	-2.999000	3.752800	-11.254000	23.628978	0.001053	20.810326
409.111711	-2.980700	3.753700	-11.187000	23.616734	0.001052	20.813224
410.112413	-2.982900	3.752500	-11.191000	23.581307	0.001052	20.821332
411.110273	-2.981300	3.752900	-11.187000	23.581182	0.001053	20.801766
412.111975	-3.024300	3.749900	-11.339000	23.611105	0.001053	20.818487
413.111732	-2.983700	3.750400	-11.189000	23.609661	0.001054	20.808979
414.112306	-2.981300	3.750200	-11.180000	23.606573	0.001051	20.793555
415.112183	-3.017100	3.749200	-11.310000	23.618125	0.001055	20.818886
416.110383	-3.019100	3.749300	-11.319000	23.627734	0.001051	20.828993
417.115508	-2.976300	3.749900	-11.160000	23.640182	0.001054	20.827247
418.111691	-3.002500	3.749900	-11.258000	23.656808	0.001053	20.816889
419.114922	-2.971600	3.749500	-11.141000	23.672816	0.001053	20.815394
420.110915	-2.985700	3.749400	-11.194000	23.685958	0.001058	20.806759
421.115353	-3.003500	3.748200	-11.256000	23.706069	0.001053	20.808429
422.116279	-3.011900	3.747400	-11.285000	23.707438	0.001053	20.804586
423.116211	-2.990100	3.747000	-11.202000	23.686951	0.001054	20.816763
424.109350	-3.028600	3.745700	-11.342000	23.669007	0.001053	20.816791
425.113163	-2.992800	3.746600	-11.211000	23.650509	0.001053	20.803936
426.113251	-2.979900	3.745500	-11.159000	23.650434	0.001056	20.827094
427.110396	-3.015400	3.746400	-11.295000	23.658699	0.001055	20.809302
428.113246	-2.993900	3.746300	-11.214000	23.683590	0.001055	20.807704
429.109826	-2.999400	3.745000	-11.231000	23.683390	0.001054	20.812244
430.113837	-2.972700	3.746100	-11.135000	23.706292	0.001055	20.800117
431.124761	-3.013000	3.744600	-11.281000	23.708656	0.001056	20.799643
432.113893	-3.002200	3.745100	-11.243000	23.690187	0.001057	20.782549
433.113714	-3.000100	3.743700	-11.230000	23.717639	0.001057	20.815287
434.118200	-2.984500	3.743600	-11.172000	23.724388	0.001057	20.805933
435.113224	-2.987800	3.743500	-11.184000	23.710896	0.001057	20.792880
436.113937	-3.007300	3.741900	-11.253000	23.701237	0.001057	20.794101
437.114238	-3.000500	3.744400	-11.234000	23.701835	0.001055	20.812244
438.109322	-3.025000	3.742100	-11.319000	23.654615	0.001057	20.810897
439.113948	-2.980500	3.743600	-11.158000	23.663723	0.001058	20.792054
440.113606	-2.981900	3.742300	-11.158000	23.688542	0.001059	20.798918
441.113500	-2.972900	3.743400	-11.127000	23.699990	0.001059	20.802334
442.118111	-2.992500	3.742300	-11.197000	23.729387	0.001057	20.801462
443.114573	-2.988800	3.740900	-11.179000	23.743825	0.001059	20.827791
444.115547	-2.986800	3.741500	-11.174000	23.774239	0.001057	20.796170
445.113572	-2.983400	3.741500	-11.161000	23.799081	0.001057	20.805431
446.119802	-3.005400	3.740000	-11.238000	23.807618	0.001059	20.786964
447.112159	-2.981500	3.740800	-11.151000	23.832330	0.001058	20.785664
448.119299	-2.990700	3.738300	-11.179000	23.829023	0.001056	20.793727
449.118240	-3.005800	3.739600	-11.239000	23.848436	0.001057	20.796123
450.120889	-2.999600	3.740100	-11.218000	23.869067	0.001059	20.792154
451.119368	-3.004500	3.737200	-11.226000	23.892162	0.001059	20.791605
452.117467	-2.988000	3.739900	-11.175000	23.889375	0.001057	20.789758
453.114680	-3.021600	3.738400	-11.295000	23.877579	0.001057	20.794051
454.116470	-2.993700	3.738200	-11.190000	23.857891	0.001060	20.790905
455.118294	-3.024800	3.736500	-11.301000	23.833251	0.001057	20.792751
456.123603	-3.026200	3.736600	-11.307000	23.805407	0.001059	20.799445
457.119936	-3.001900	3.737600	-11.218000	23.819913	0.001057	20.794076
458.119532	-3.014800	3.736600	-11.264000	23.811426	0.001059	20.794575
459.119973	-3.002000	3.736800	-11.217000	23.835493	0.001059	20.781249
460.124146	-3.024000	3.736000	-11.297000	23.832355	0.001058	20.785689
461.120207	-2.992800	3.737400	-11.184000	23.855204	0.001059	20.790581
462.120333	-2.997600	3.734700	-11.194000	23.874394	0.001058	20.772365
463.117078	-3.003300	3.736200	-11.220000	23.877751	0.001059	20.772886
464.121961	-3.001300	3.735300	-11.210000	23.885890	0.001059	20.787212
465.116865	-2.988600	3.735500	-11.162000	23.869064	0.001059	20.803057
466.119094	-3.009300	3.734200	-11.235000	23.862770	0.001061	20.787262
467.123051	-2.993300	3.734200	-11.177000	23.868864	0.001058	20.787209
468.119106	-3.009100	3.732600	-11.231000	23.915476	0.001061	20.772309
469.131246	-3.013700	3.732800	-11.249000	23.921451	0.001058	20.754118
470.122736	-2.992300	3.733800	-11.172000	23.918986	0.001059	20.767294
471.122100	-2.995500	3.732400	-11.180000	23.923887	0.001061	20.773157
472.123984	-3.006400	3.732800	-11.221000	23.943424	0.001059	20.762402
473.132951	-3.009500	3.731500	-11.228000	23.935257	0.001061	20.785981
474.123348	-2.980700	3.732100	-11.123000	23.947006	0.001060	20.788280
475.120059	-3.012800	3.730700	-11.239000	23.956288	0.001059	20.781465
476.124036	-2.997500	3.731100	-11.183000	23.971020	0.001060	20.791024
477.119880	-3.014300	3.730000	-11.241000	23.978908	0.001060	20.770484
478.126048	-3.019000	3.730000	-11.260000	23.997097	0.001060	20.769285
479.133164	-2.980900	3.731500	-11.122000	23.996374	0.001063	20.749119
480.128067	-2.987300	3.730600	-11.142000	23.993365	0.001061	20.783086
481.124630	-2.991900	3.730800	-11.161000	24.017131	0.001061	20.791746
482.121972	-3.030600	3.728200	-11.297000	23.997943	0.001060	20.759227
483.125390	-2.986400	3.728400	-11.134000	23.984234	0.001062	20.751169
484.122509	-2.971300	3.730100	-11.083000	23.958551	0.001062	20.784210
485.120448	-3.021300	3.726800	-11.259000	23.960192	0.001060	20.752190
486.122798	-3.011800	3.729100	-11.230000	23.945037	0.001060	20.770183
487.124930	-2.985200	3.728200	-11.129000	23.931497	0.001061	20.769882
488.127394	-2.972200	3.727600	-11.078000	23.948819	0.001061	20.775873
489.123052	-2.995100	3.725700	-11.158000	23.972959	0.001060	20.779217
490.126271	-2.997200	3.727200	-11.171000	23.972858	0.001059	20.756831
491.127597	-2.989400	3.726600	-11.140000	23.952602	0.001061	20.766390
492.131290	-3.014900	3.726100	-11.233000	23.956635	0.001059	20.731552
493.130272	-3.000100	3.726400	-11.176000	23.971590	0.001061	20.761249
494.126238	-2.988600	3.725700	-11.132000	23.967836	0.001061	20.748949
495.127389	-2.994400	3.726300	-11.158000	23.972514	0.001061	20.773081
496.126767	-2.990100	3.724500	-11.135000	23.965071	0.001061	20.749495
497.133718	-2.998600	3.724900	-11.167000	23.966217	0.001061	20.769137
498.125929	-2.998500	3.724000	-11.165000	23.950288	0.001063	20.773078
499.129189	-3.003600	3.723100	-11.181000	23.931973	0.001062	20.776997
500.132487	-3.004800	3.723500	-11.187000	23.946258	0.001062	20.772830
501.130392	-2.996600	3.723100	-11.156000	23.959798	0.001061	20.753691
502.129271	-2.996700	3.722500	-11.154000	23.976744	0.001061	20.761202
503.128098	-2.985300	3.722800	-11.113000	24.006062	0.001062	20.746980
504.128235	-2.974000	3.724100	-11.074000	24.029724	0.001062	20.779720
505.125150	-2.964600	3.723400	-11.037000	24.045552	0.001061	20.738693
506.127842	-2.977400	3.722400	-11.082000	24.023678	0.001063	20.769863
507.128579	-2.998900	3.721600	-11.159000	24.074517	0.001060	20.771062
508.128194	-2.995100	3.721300	-11.145000	24.088700	0.001063	20.753518
509.129616	-2.987600	3.721400	-11.117000	24.111045	0.001062	20.763601
510.133443	-2.994300	3.720300	-11.138000	24.119405	0.001062	20.759657
511.128592	-2.993800	3.719700	-11.136000	24.131102	0.001061	20.746258
512.125822	-3.023600	3.719600	-11.246000	24.158847	0.001061	20.746110
513.129803	-2.980100	3.720700	-11.088000	24.151877	0.001060	20.744336
514.127467	-3.024200	3.717900	-11.242000	24.159920	0.001061	20.748610
515.129854	-2.986600	3.719300	-11.107000	24.160737	0.001062	20.749429
516.131895	-2.986100	3.718400	-11.103000	24.171191	0.001059	20.749483
517.131278	-2.990500	3.718000	-11.118000	24.147479	0.001062	20.752252
518.130448	-3.009100	3.718000	-11.187000	24.150938	0.001062	20.759041
519.131151	-3.001900	3.717100	-11.156000	24.140535	0.001060	20.745287
520.131707	-2.997100	3.717000	-11.139000	24.141236	0.001061	20.772544
521.128826	-3.007500	3.717300	-11.179000	24.115904	0.001060	20.781751
522.139142	-3.014500	3.715700	-11.200000	24.116577	0.001061	20.747338
523.135286	-3.014400	3.715000	-11.197000	24.130563	0.001061	20.729121
524.133194	-2.988900	3.716200	-11.107000	24.148130	0.001061	20.764760
525.140520	-3.022200	3.714400	-11.224000	24.132977	0.001062	20.758570
526.133242	-3.008100	3.715400	-11.175000	24.129768	0.001062	20.742075
527.132757	-2.992500	3.715400	-11.117000	24.102971	0.001059	20.751235
528.128403	-3.007200	3.714400	-11.169000	24.136784	0.001062	20.764285
529.132405	-3.015900	3.714300	-11.200000	24.129620	0.001061	20.758997
530.129631	-2.975800	3.714800	-11.053000	24.159554	0.001062	20.738759
531.131918	-3.013500	3.713900	-11.191000	24.178639	0.001060	20.740831
532.132481	-2.987900	3.713700	-11.095000	24.154028	0.001060	20.738906
533.131875	-3.016600	3.711400	-11.194000	24.170104	0.001062	20.746022
534.132880	-2.994600	3.712700	-11.117000	24.179086	0.001061	20.743651
535.136824	-3.029200	3.710600	-11.240000	24.193838	0.001061	20.745645
536.132083	-2.982900	3.712800	-11.073000	24.162143	0.001061	20.778341
537.135026	-3.016800	3.711300	-11.195000	24.174857	0.001063	20.757427
538.133272	-2.990800	3.711300	-11.099000	24.187395	0.001062	20.759098
539.134837	-3.027200	3.710200	-11.230000	24.200459	0.001061	20.753709
540.137268	-2.994900	3.711000	-11.114000	24.192173	0.001062	20.751561
541.137519	-3.011600	3.710000	-11.172000	24.222230	0.001061	20.739509
542.136005	-3.013900	3.709100	-11.178000	24.233772	0.001059	20.760096
543.135463	-2.964500	3.709600	-10.995000	24.197420	0.001060	20.753505
544.136703	-2.994200	3.709000	-11.104000	24.215709	0.001061	20.768531
545.131603	-3.018400	3.708300	-11.192000	24.214363	0.001062	20.747740
546.133080	-3.015300	3.707800	-11.179000	24.216454	0.001062	20.763588
547.141679	-3.005100	3.707400	-11.139000	24.200206	0.001060	20.743971
548.139400	-2.967000	3.708900	-11.004000	24.196399	0.001060	20.756749
549.136752	-3.019100	3.707700	-11.193000	24.171917	0.001061	20.750685
550.135434	-3.020900	3.707400	-11.198000	24.167810	0.001061	20.761739
551.134076	-2.991700	3.706300	-11.087000	24.133124	0.001061	20.779581
552.133844	-3.009300	3.705500	-11.151000	24.130018	0.001062	20.766509
553.138171	-3.002900	3.705900	-11.127000	24.118916	0.001062	20.757270
554.139577	-3.022500	3.705200	-11.198000	24.116778	0.001060	20.748487
555.138380	-2.995400	3.706200	-11.101000	24.143549	0.001064	20.763485
556.145885	-3.011400	3.705700	-11.158000	24.119164	0.001061	20.749457
557.136550	-2.990500	3.706400	-11.082000	24.133421	0.001060	20.754749
558.136923	-2.982300	3.706500	-11.053000	24.137131	0.001058	20.766056
559.140455	-2.999500	3.705500	-11.114000	24.179575	0.001061	20.758840
560.140025	-3.019900	3.704600	-11.186000	24.173630	0.001061	20.758567
561.137612	-3.000200	3.704100	-11.112000	24.209382	0.001060	20.750805
562.140316	-3.006600	3.704400	-11.137000	24.228043	0.001059	20.751505
563.139150	-3.014100	3.702300	-11.158000	24.244835	0.001061	20.768349
564.140609	-3.009200	3.702000	-11.140000	24.257276	0.001059	20.744317
565.138187	-3.005700	3.701200	-11.124000	24.260935	0.001059	20.758894
566.141437	-3.002600	3.703000	-11.118000	24.252996	0.001058	20.761362
567.145403	-2.992800	3.702100	-11.078000	24.246726	0.001059	20.759814
568.142812	-2.996500	3.703000	-11.094000	24.257176	0.001061	20.758916
569.142467	-3.019600	3.700700	-11.174000	24.271134	0.001060	20.763909
570.143749	-2.997800	3.702200	-11.098000	24.260262	0.001060	20.765805
571.145524	-2.991600	3.700400	-11.068000	24.276187	0.001059	20.770399
572.139322	-3.011600	3.699700	-11.142000	24.259367	0.001060	20.762536
573.151721	-2.994900	3.699200	-11.077000	24.274518	0.001060	20.768726
574.140185	-2.981600	3.699500	-11.029000	24.295119	0.001057	20.765209
575.140469	-3.030800	3.697700	-11.206000	24.306739	0.001059	20.775917
576.144675	-2.984900	3.698400	-11.038000	24.327286	0.001058	20.775191
577.143724	-3.016200	3.699000	-11.156000	24.324826	0.001059	20.766559
578.144413	-2.993000	3.699400	-11.071000	24.333606	0.001057	20.775367
579.145422	-3.010200	3.698900	-11.132000	24.366417	0.001055	20.780306
580.143381	-2.998000	3.697600	-11.085000	24.379604	0.001060	20.763189
581.143332	-2.995300	3.698100	-11.076000	24.402764	0.001059	20.781208
582.148013	-3.014800	3.696400	-11.142000	24.413237	0.001058	20.762791
583.146146	-3.028300	3.696600	-11.194000	24.397045	0.001060	20.780686
584.146041	-3.006000	3.695800	-11.109000	24.397120	0.001056	20.748993
585.144308	-3.021300	3.695000	-11.162000	24.425450	0.001056	20.763664
586.146721	-3.020300	3.695700	-11.161000	24.414858	0.001057	20.784332
587.146841	-2.993900	3.695800	-11.063000	24.420527	0.001057	20.781958
588.148206	-3.001500	3.695600	-11.089000	24.417719	0.001058	20.774400
589.146202	-2.989400	3.696000	-11.048000	24.422743	0.001055	20.777069
590.147126	-3.009300	3.695100	-11.119000	24.422746	0.001055	20.766640
591.150583	-2.986800	3.695800	-11.036000	24.422621	0.001056	20.789749
592.148839	-2.989800	3.693200	-11.041000	24.427397	0.001056	20.783635
593.147493	-3.015700	3.692700	-11.135000	24.434862	0.001055	20.783063
594.144610	-2.973700	3.694100	-10.984000	24.461579	0.001058	20.789479
595.145479	-2.977200	3.693100	-10.994000	24.483691	0.001057	20.773731
596.151665	-2.975900	3.691900	-10.986000	24.506598	0.001055	20.790075
597.149733	-2.987500	3.693400	-11.032000	24.505481	0.001055	20.775204
598.148497	-3.010500	3.691100	-11.110000	24.527595	0.001056	20.798814
599.148126	-3.004800	3.691500	-11.090000	24.539660	0.001057	20.786263
600.147061	-3.016900	3.691300	-11.136000	24.507772	0.001054	20.779873
601.146119	-2.997000	3.691500	-11.062000	24.513246	0.001054	20.782046
602.147233	-3.008500	3.690400	-11.101000	24.504689	0.001057	20.800488
603.154583	-2.988500	3.692100	-11.032000	24.537122	0.001055	20.801260
604.151055	-2.984900	3.691000	-11.015000	24.520087	0.001055	20.806928
605.149523	-2.991400	3.692100	-11.043000	24.547919	0.001055	20.797395
606.151578	-2.975300	3.689300	-10.975000	24.551550	0.001054	20.789183
607.148045	-2.981800	3.690500	-11.004000	24.564560	0.001056	20.782796
608.152431	-3.010400	3.688700	-11.103000	24.589480	0.001053	20.789783
609.158108	-3.012800	3.687600	-11.109000	24.583190	0.001053	20.790584
610.153243	-3.008900	3.687700	-11.095000	24.576324	0.001054	20.769944
611.154155	-3.001600	3.688000	-11.068000	24.598161	0.001055	20.795175
612.159904	-3.007700	3.688200	-11.092000	24.551403	0.001053	20.789510
613.157039	-2.982800	3.688800	-11.002000	24.561202	0.001055	20.801238
614.153650	-3.000900	3.686000	-11.060000	24.585825	0.001053	20.798918
615.161940	-3.001600	3.686700	-11.064000	24.543566	0.001054	20.801562
616.155188	-2.988000	3.687000	-11.016000	24.584604	0.001054	20.802435
617.156735	-3.024500	3.685200	-11.144000	24.573313	0.001053	20.781622
618.163822	-3.008700	3.685500	-11.087000	24.573013	0.001054	20.776105
619.155768	-3.011500	3.683500	-11.091000	24.571920	0.001053	20.795398
620.160686	-3.023000	3.685700	-11.140000	24.589180	0.001053	20.792327
621.159571	-2.994400	3.685500	-11.034000	24.599451	0.001052	20.814486
622.161080	-2.999600	3.683600	-11.048000	24.588782	0.001052	20.804256
623.160409	-3.008900	3.684800	-11.086000	24.609124	0.001052	20.795743
624.164822	-2.999300	3.683600	-11.047000	24.628771	0.001051	20.807870
625.156966	-2.983900	3.684700	-10.993000	24.600668	0.001052	20.821872
626.161085	-2.995400	3.682900	-11.030000	24.557239	0.001051	20.822393
627.164797	-2.998000	3.684300	-11.045000	24.555402	0.001049	20.792575
628.161912	-3.015000	3.681500	-11.099000	24.550548	0.001050	20.813309
629.163072	-3.018500	3.681000	-11.110000	24.524334	0.001052	20.801706
630.159902	-2.993700	3.682100	-11.022000	24.514507	0.001048	20.790898
631.164394	-3.008100	3.680500	-11.070000	24.525799	0.001050	20.806021
632.162397	-3.019700	3.679600	-11.110000	24.546571	0.001049	20.787507
633.166399	-3.004200	3.680200	-11.055000	24.523289	0.001050	20.812037
634.161184	-3.014300	3.679900	-11.091000	24.557236	0.001051	20.785880
635.163451	-3.018500	3.681000	-11.110000	24.528062	0.001048	20.809713
636.164180	-3.002500	3.680100	-11.049000	24.543582	0.001049	20.807741
637.167440	-3.026300	3.679200	-11.133000	24.538481	0.001048	20.823960
638.163480	-3.025000	3.679400	-11.128000	24.538556	0.001050	20.814078
639.166000	-3.008000	3.677800	-11.062000	24.498336	0.001049	20.804071
640.164963	-3.013400	3.679700	-11.088000	24.484827	0.001048	20.805691
641.170274	-3.002300	3.678800	-11.043000	24.492962	0.001047	20.795834
642.172901	-2.978400	3.678600	-10.953000	24.537783	0.001046	20.803820
643.163883	-3.000100	3.679000	-11.035000	24.543056	0.001050	20.819542
644.167772	-3.010700	3.675900	-11.065000	24.570838	0.001048	20.826079
645.167563	-3.015400	3.677300	-11.087000	24.605306	0.001048	20.819413
646.167580	-3.016900	3.676800	-11.091000	24.596058	0.001047	20.821988
647.181576	-2.993900	3.678200	-11.011000	24.599986	0.001048	20.817394
648.166422	-3.002200	3.675600	-11.034000	24.583296	0.001047	20.840476
649.172174	-3.009100	3.674800	-11.057000	24.553897	0.001048	20.809082
650.167721	-3.008700	3.676500	-11.060000	24.550890	0.001049	20.830720
651.170937	-2.998400	3.675100	-11.018000	24.572227	0.001049	20.832215
652.167204	-3.010500	3.674600	-11.062000	24.589490	0.001046	20.821561
653.168506	-3.004100	3.674000	-11.036000	24.618040	0.001047	20.838354
654.180488	-3.023200	3.674200	-11.106000	24.619063	0.001046	20.819466
655.174119	-3.018500	3.673800	-11.089000	24.639207	0.001046	20.830670
656.167398	-2.998700	3.674100	-11.017000	24.635524	0.001047	20.822233
657.177692	-3.006000	3.674200	-11.044000	24.642390	0.001045	20.816320
658.174322	-3.008500	3.672400	-11.047000	24.681437	0.001047	20.834639
659.169217	-2.973100	3.672600	-10.918000	24.673899	0.001045	20.838928
660.176823	-3.015300	3.672000	-11.071000	24.679297	0.001045	20.824431
661.176973	-3.002000	3.674100	-11.029000	24.672779	0.001045	20.811726
662.175515	-3.011600	3.671700	-11.057000	24.689617	0.001045	20.834312
663.180038	-3.023200	3.672100	-11.100000	24.716002	0.001045	20.820013
664.177236	-2.999100	3.670800	-11.007000	24.712623	0.001043	20.824682
665.170574	-3.001500	3.669700	-11.014000	24.695015	0.001042	20.834513
666.177660	-3.008100	3.670000	-11.038000	24.737568	0.001044	20.842602
667.175359	-3.004000	3.670900	-11.026000	24.763524	0.001045	20.821234
668.171007	-3.002800	3.670100	-11.019000	24.766212	0.001043	20.827725
669.178742	-2.992100	3.670500	-10.981000	24.759099	0.001044	20.834337
670.179234	-3.000700	3.670600	-11.013000	24.763774	0.001043	20.849934
671.176374	-2.991600	3.669600	-10.977000	24.788318	0.001043	20.845167
672.175501	-2.997000	3.669100	-10.996000	24.782179	0.001044	20.837584
673.178430	-2.988000	3.670400	-10.966000	24.801124	0.001042	20.826726
674.174902	-3.011200	3.667800	-11.043000	24.797570	0.001044	20.814150
675.178924	-2.990900	3.667600	-10.969000	24.804184	0.001042	20.835013
676.175220	-2.984400	3.669100	-10.949000	24.799037	0.001042	20.817045
677.178581	-2.988100	3.666700	-10.955000	24.803312	0.001042	20.844093
678.180194	-2.990800	3.666500	-10.965000	24.801525	0.001040	20.837559
679.177348	-2.995900	3.665900	-10.982000	24.773399	0.001041	20.836360
680.178795	-2.972700	3.667200	-10.900000	24.766537	0.001042	20.834215
681.178219	-3.017100	3.666100	-11.060000	24.760044	0.001042	20.840501
682.177266	-2.981400	3.667400	-10.933000	24.749653	0.001041	20.842401
683.177935	-2.997400	3.665700	-10.986000	24.769172	0.001040	20.840652
684.181179	-2.986800	3.666200	-10.950000	24.796128	0.001038	20.852056
685.181038	-2.964300	3.666000	-10.866000	24.792845	0.001040	20.863460
686.180049	-2.998500	3.664500	-10.988000	24.805327	0.001040	20.870770
687.177022	-3.006900	3.664500	-11.017000	24.793315	0.001040	20.859190
688.185879	-2.997700	3.663300	-10.979000	24.789238	0.001038	20.847513
689.182549	-3.003500	3.664000	-11.003000	24.785755	0.001038	20.848759
690.177894	-2.986500	3.663000	-10.939000	24.786128	0.001041	20.866202
691.182923	-3.001600	3.664700	-10.998000	24.777276	0.001038	20.863008
692.178713	-2.995700	3.663700	-10.974000	24.796972	0.001039	20.837732
693.182339	-3.002300	3.662200	-10.994000	24.813505	0.001039	20.867125
694.182030	-2.997200	3.664500	-10.982000	24.837425	0.001037	20.841820
695.182074	-2.994700	3.662100	-10.966000	24.819948	0.001038	20.865056
696.177335	-2.976700	3.662800	-10.902000	24.804307	0.001037	20.863583
697.183303	-2.988400	3.661300	-10.941000	24.805126	0.001038	20.846863
698.188343	-2.980800	3.661000	-10.912000	24.821412	0.001037	20.857991
699.180068	-2.991100	3.662000	-10.951000	24.831784	0.001036	20.870296
700.181332	-2.995300	3.661800	-10.967000	24.815545	0.001038	20.854474
701.181098	-2.981000	3.661200	-10.912000	24.833374	0.001038	20.873314
702.180166	-3.000400	3.659700	-10.980000	24.856671	0.001035	20.857341
703.180758	-2.995200	3.659700	-10.960000	24.850504	0.001035	20.847833
704.182414	-2.999900	3.659000	-10.975000	24.875596	0.001037	20.860688
705.180912	-2.995300	3.660500	-10.964000	24.893101	0.001036	20.868299
706.188207	-3.005300	3.660000	-10.998000	24.882532	0.001036	20.864804
707.177355	-2.978900	3.660000	-10.902000	24.880443	0.001034	20.858914
708.181068	-2.981700	3.658700	-10.908000	24.884744	0.001035	20.895471
709.181610	-2.995100	3.659000	-10.957000	24.905706	0.001034	20.880001
710.181526	-3.011700	3.656700	-11.011000	24.861698	0.001032	20.867128
711.180685	-2.987600	3.657900	-10.927000	24.847325	0.001033	20.874039
712.182611	-2.986200	3.657700	-10.921000	24.829794	0.001032	20.873514
713.181901	-3.022400	3.656100	-11.049000	24.828899	0.001033	20.889211
714.181623	-2.985500	3.656800	-10.916000	24.846903	0.001033	20.869822
715.184288	-2.985800	3.657700	-10.920000	24.845085	0.001034	20.877954
716.181205	-2.998500	3.656700	-10.963000	24.821165	0.001032	20.874337
717.179688	-2.991800	3.655700	-10.937000	24.816591	0.001033	20.881600
718.181324	-3.014000	3.654500	-11.014000	24.817385	0.001032	20.894250
719.183220	-2.996100	3.656200	-10.953000	24.804479	0.001032	20.886988
720.184123	-3.004500	3.652900	-10.974000	24.846877	0.001032	20.875486
721.188836	-3.003900	3.655600	-10.980000	24.848517	0.001033	20.880450
722.180907	-2.975000	3.654700	-10.872000	24.826362	0.001030	20.901836
723.182842	-2.988100	3.656100	-10.923000	24.806619	0.001031	20.878705
724.180570	-3.001400	3.653400	-10.965000	24.815943	0.001030	20.871941
725.185819	-3.024400	3.651700	-11.042000	24.843993	0.001031	20.883496
726.181971	-3.004600	3.653200	-10.974000	24.880317	0.001031	20.882495
727.188730	-2.998800	3.654300	-10.958000	24.890661	0.001030	20.876755
728.189895	-3.017500	3.651600	-11.016000	24.850879	0.001029	20.892303
729.182427	-2.995600	3.652300	-10.939000	24.837898	0.001030	20.887336
730.189884	-2.994700	3.652400	-10.937000	24.819719	0.001031	20.893748
731.185003	-2.995100	3.652600	-10.939000	24.856768	0.001030	20.881619
732.186231	-3.000900	3.653000	-10.961000	24.813305	0.001029	20.891578
733.188314	-3.000800	3.651600	-10.957000	24.800771	0.001029	20.904602
734.186433	-2.986200	3.652100	-10.905000	24.821262	0.001028	20.888184
735.189428	-2.997300	3.651300	-10.943000	24.867039	0.001029	20.889556
736.189173	-2.975000	3.650800	-10.860000	24.879967	0.001027	20.884514
737.186111	-2.997900	3.649500	-10.938000	24.891931	0.001028	20.901261
738.184874	-2.981700	3.651100	-10.885000	24.901924	0.001029	20.878576
739.193467	-3.005900	3.650300	-10.972000	24.939194	0.001027	20.908395
740.188085	-3.003800	3.647900	-10.957000	24.949963	0.001027	20.925365
741.188224	-3.003700	3.649400	-10.961000	24.958488	0.001027	20.880347
742.188335	-2.989300	3.647900	-10.903000	24.946058	0.001027	20.890630
743.189551	-3.006500	3.647900	-10.967000	24.963712	0.001026	20.906926
744.185539	-3.013700	3.648600	-10.994000	24.978704	0.001028	20.907748
745.192033	-2.990000	3.647600	-10.905000	24.975872	0.001025	20.912492
746.188654	-3.014900	3.647000	-10.994000	25.016000	0.001026	20.894925
747.188879	-3.002800	3.646200	-10.948000	24.998096	0.001026	20.920100
748.189075	-3.000000	3.647500	-10.941000	25.002204	0.001023	20.919007
749.188070	-2.997900	3.646500	-10.932000	25.035864	0.001021	20.890683
750.190534	-3.013400	3.646200	-10.987000	25.015205	0.001025	20.894128
751.197067	-3.028600	3.644400	-11.035000	25.013938	0.001024	20.898071
752.193484	-3.015200	3.644600	-10.989000	24.990792	0.001024	20.912294
753.190296	-2.998500	3.645000	-10.928000	24.965280	0.001026	20.902335
754.194856	-3.002000	3.645900	-10.944000	24.951408	0.001023	20.917334
755.190142	-2.994300	3.644100	-10.910000	24.960609	0.001024	20.914715
756.192248	-2.991400	3.645000	-10.902000	24.957474	0.001022	20.901139
757.196574	-3.000800	3.644000	-10.934000	24.939351	0.001021	20.916138
758.192181	-3.005200	3.643800	-10.948000	24.984053	0.001021	20.881352
759.189367	-2.993100	3.643800	-10.905000	24.953845	0.001022	20.883747
760.192082	-2.990300	3.642700	-10.891000	24.946562	0.001021	20.906307
761.194719	-2.981300	3.643000	-10.860000	24.921847	0.001020	20.872020
762.193760	-3.000700	3.642400	-10.929000	24.934079	0.001020	20.883823
763.193848	-2.993600	3.641700	-10.900000	24.951311	0.001021	20.887842
764.190266	-3.033600	3.640000	-11.041000	24.952625	0.001020	20.890583
765.194394	-3.007100	3.642100	-10.952000	24.959889	0.001019	20.891236
766.196204	-2.992100	3.640900	-10.892000	24.956858	0.001022	20.895305
767.194609	-2.986400	3.641200	-10.873000	24.948849	0.001018	20.901490
768.198131	-2.986200	3.640700	-10.871000	24.944253	0.001021	20.889292
769.202839	-3.002600	3.640900	-10.931000	24.955666	0.001019	20.874670
770.190687	-2.995100	3.640200	-10.901000	25.007306	0.001019	20.880510
771.194976	-3.027900	3.639600	-11.018000	25.001935	0.001018	20.886498
772.197588	-3.001100	3.639400	-10.921000	25.025059	0.001017	20.892639
773.196523	-3.013600	3.639300	-10.966000	25.033314	0.001020	20.875797
774.196130	-3.024800	3.637500	-11.002000	25.032992	0.001020	20.893016
775.195953	-2.993500	3.638700	-10.892000	25.014298	0.001019	20.881838
776.198213	-3.014700	3.636400	-10.963000	25.027424	0.001017	20.885056
777.197412	-3.017600	3.637700	-10.975000	25.050720	0.001016	20.884733
778.196660	-3.022300	3.636700	-10.989000	25.055690	0.001016	20.872180
779.198392	-3.028600	3.636400	-11.012000	25.040503	0.001016	20.865944
780.194808	-2.986700	3.637400	-10.863000	25.030884	0.001016	20.883314
781.198297	-3.028400	3.634200	-11.004000	25.032004	0.001016	20.880645
782.198150	-2.994200	3.636900	-10.888000	25.043268	0.001015	20.888633
783.199080	-2.994800	3.636800	-10.889000	25.061590	0.001015	20.870516
784.194969	-3.003900	3.635000	-10.918000	25.086675	0.001016	20.866299
785.202359	-3.007000	3.634300	-10.928000	25.083243	0.001016	20.863803
786.200370	-2.990500	3.635200	-10.869000	25.091523	0.001014	20.873536
787.201570	-3.021700	3.634700	-10.981000	25.082577	0.001014	20.875935
788.203094	-3.007400	3.633800	-10.928000	25.087247	0.001014	20.851227
789.203004	-3.024800	3.633600	-10.991000	25.064553	0.001012	20.873489
790.198395	-2.994900	3.634500	-10.884000	25.043146	0.001012	20.854373
791.198812	-2.983300	3.632900	-10.837000	25.022910	0.001011	20.871991
792.204263	-3.024600	3.631700	-10.983000	25.018709	0.001011	20.863982
793.198747	-3.001800	3.633200	-10.905000	25.031735	0.001011	20.861884
794.198913	-2.984200	3.631700	-10.837000	25.054189	0.001013	20.870673
795.201719	-2.992900	3.632500	-10.871000	25.033949	0.001009	20.859840
796.202582	-2.984000	3.633700	-10.842000	25.028753	0.001009	20.841349
797.204663	-3.006700	3.630800	-10.916000	25.071165	0.001013	20.868748
798.205112	-3.004100	3.632200	-10.910000	25.037109	0.001010	20.856848
799.203877	-3.021500	3.630900	-10.969000	25.013466	0.001009	20.866305
800.205054	-3.019800	3.630400	-10.962000	24.989668	0.001008	20.857592
801.207026	-3.011100	3.631400	-10.933000	25.011723	0.001007	20.862186
802.201179	-3.008900	3.631400	-10.926000	25.023413	0.001009	20.855903
803.205925	-2.999800	3.630400	-10.889000	25.035116	0.001007	20.843468
804.201992	-3.010000	3.630300	-10.927000	25.025150	0.001006	20.860016
805.205335	-3.020300	3.629500	-10.961000	25.003123	0.001006	20.838856
806.206331	-3.008900	3.629500	-10.920000	25.037156	0.001005	20.846938
807.210264	-3.001800	3.629400	-10.894000	25.025997	0.001006	20.856125
808.206774	-3.002600	3.628500	-10.894000	25.065025	0.001007	20.856421
809.209639	-2.998500	3.628000	-10.876000	25.051201	0.001006	20.856769
810.208004	-2.995000	3.628200	-10.866000	25.042205	0.001008	20.842049
811.208011	-2.991200	3.629100	-10.854000	25.022663	0.001005	20.831442
812.209242	-2.998600	3.627400	-10.876000	25.029873	0.001007	20.845792
813.208730	-2.997800	3.627900	-10.873000	25.042105	0.001005	20.832466
814.214976	-2.993600	3.628600	-10.862000	25.038025	0.001004	20.836432
815.211981	-3.018800	3.625900	-10.946000	25.084416	0.001005	20.835110
816.212446	-2.990400	3.626900	-10.845000	25.110047	0.001003	20.830968
817.211481	-3.003300	3.627200	-10.893000	25.137814	0.001004	20.837980
818.215417	-3.001500	3.626700	-10.883000	25.120388	0.001005	20.830444
819.212971	-3.000500	3.625900	-10.878000	25.136745	0.001002	20.841173
820.207178	-3.013000	3.624600	-10.921000	25.140848	0.001003	20.850508
821.211507	-2.987800	3.626000	-10.833000	25.144699	0.001003	20.865278
822.211891	-2.996500	3.626100	-10.865000	25.149000	0.001005	20.830717
823.211421	-2.979500	3.625600	-10.801000	25.147136	0.001000	20.847337
824.213574	-2.986000	3.624700	-10.822000	25.141765	0.001003	20.840997
825.214594	-2.991400	3.623000	-10.836000	25.107460	0.000999	20.822682
826.212888	-2.996300	3.623400	-10.856000	25.084563	0.000999	20.835731
827.213239	-3.019600	3.624400	-10.942000	25.050729	0.000999	20.838278
828.213086	-3.002100	3.622300	-10.873000	25.092593	0.001001	20.845688
829.209844	-3.011400	3.621600	-10.904000	25.102240	0.001000	20.828820
830.215446	-3.020500	3.622000	-10.939000	25.124042	0.000999	20.830792
831.214254	-3.003900	3.622600	-10.880000	25.141193	0.001000	20.825250
832.212694	-3.017500	3.623300	-10.932000	25.154840	0.000999	20.829467
833.210355	-3.001300	3.623400	-10.873000	25.125628	0.000998	20.827169
834.213318	-2.998000	3.622600	-10.859000	25.091498	0.000995	20.843641
835.214365	-2.997900	3.621100	-10.855000	25.064675	0.000997	20.822879
836.211920	-2.988400	3.621700	-10.822000	25.033199	0.000996	20.819259
837.217583	-2.988400	3.622300	-10.824000	25.055725	0.000997	20.833336
838.210619	-3.007300	3.619500	-10.884000	25.099975	0.000998	20.840297
839.216115	-3.004000	3.618600	-10.870000	25.098508	0.000996	20.818436
840.216538	-3.000500	3.619600	-10.860000	25.121899	0.000996	20.832909
841.211024	-2.999500	3.618900	-10.854000	25.157770	0.000996	20.824823
842.215446	-2.991600	3.620800	-10.831000	25.229684	0.000995	20.827319
843.216887	-3.019700	3.617500	-10.922000	25.256103	0.000994	20.832981
844.216772	-3.001600	3.617900	-10.859000	25.253670	0.000995	20.825322
845.218822	-2.991400	3.618100	-10.822000	25.243903	0.000994	20.834482
846.216768	-3.004100	3.616600	-10.863000	25.260582	0.000994	20.831313
847.214152	-3.003500	3.617500	-10.863000	25.235527	0.000992	20.830340
848.216258	-2.997400	3.616400	-10.839000	25.225681	0.000992	20.833257
849.218696	-2.980100	3.618800	-10.782000	25.176788	0.000994	20.823052
850.215967	-3.019000	3.616000	-10.915000	25.151583	0.000991	20.843742
851.217988	-2.986900	3.618100	-10.805000	25.163141	0.000993	20.843016
852.223444	-2.996500	3.615100	-10.831000	25.168781	0.000992	20.826867
853.217675	-2.968100	3.616800	-10.734000	25.199461	0.000992	20.837754
854.217780	-2.986000	3.616100	-10.797000	25.187282	0.000991	20.835009
855.219862	-2.978900	3.615400	-10.769000	25.216761	0.000989	20.839948
856.216964	-2.975200	3.616000	-10.757000	25.222578	0.000989	20.816866
857.221376	-2.997000	3.613900	-10.830000	25.251784	0.000989	20.807782
858.218359	-2.986300	3.615200	-10.795000	25.234757	0.000991	20.835257
859.217485	-3.000500	3.614300	-10.843000	25.267622	0.000988	20.808036
860.219077	-2.993700	3.614100	-10.818000	25.275100	0.000987	20.809855
861.220371	-3.002200	3.613600	-10.848000	25.265980	0.000989	20.820612
862.217193	-2.984300	3.614800	-10.786000	25.276045	0.000989	20.815070
863.218129	-2.969300	3.615200	-10.733000	25.234886	0.000986	20.814050
864.217909	-2.998400	3.614100	-10.835000	25.202698	0.000987	20.809236
865.225309	-2.993600	3.612600	-10.814000	25.169785	0.000988	20.840203
866.219894	-2.992700	3.612800	-10.811000	25.112187	0.000986	20.814150
867.218620	-2.980400	3.613100	-10.766000	25.084741	0.000985	20.819316
868.218811	-3.002100	3.610700	-10.838000	25.069576	0.000986	20.818317
869.222680	-2.994000	3.612900	-10.815000	25.115393	0.000985	20.811205
870.219010	-2.983100	3.610900	-10.771000	25.124542	0.000986	20.826079
871.219975	-2.985200	3.611500	-10.779000	25.131305	0.000983	20.805842
872.221425	-2.974400	3.610600	-10.738000	25.123201	0.000981	20.831844
873.217924	-3.010100	3.608900	-10.862000	25.137993	0.000983	20.822986
874.222540	-3.000900	3.609400	-10.830000	25.170707	0.000983	20.811732
875.219423	-2.983400	3.609400	-10.767000	25.154521	0.000982	20.830569
876.221231	-2.991200	3.608700	-10.793000	25.143535	0.000981	20.812429
877.219106	-2.989400	3.607700	-10.784000	25.166259	0.000982	20.816750
878.221833	-3.003800	3.609300	-10.841000	25.180375	0.000980	20.815274
879.218862	-2.998800	3.608000	-10.818000	25.202126	0.000980	20.802972
880.218691	-2.999000	3.608200	-10.820000	25.203171	0.000979	20.813977
881.220155	-2.962300	3.609200	-10.689000	25.208463	0.000980	20.789419
882.219831	-2.997300	3.606400	-10.808000	25.172221	0.000980	20.796183
883.222357	-2.993500	3.606900	-10.797000	25.188332	0.000979	20.799081
884.223927	-2.991500	3.607800	-10.792000	25.248682	0.000977	20.802296
885.223504	-2.995900	3.606400	-10.803000	25.274084	0.000979	20.819265
886.221192	-3.007300	3.605800	-10.841000	25.283157	0.000979	20.787123
887.222455	-2.972200	3.606700	-10.718000	25.308980	0.000978	20.819215
888.220916	-3.000300	3.604800	-10.814000	25.323373	0.000977	20.805217
889.221994	-2.972300	3.605400	-10.716000	25.335576	0.000976	20.797081
890.224590	-2.978100	3.605400	-10.735000	25.339923	0.000977	20.803342
891.222399	-2.979800	3.604300	-10.740000	25.342984	0.000978	20.811632
892.223215	-2.998400	3.604000	-10.805000	25.354365	0.000975	20.813576
893.227333	-3.005600	3.604000	-10.832000	25.405414	0.000975	20.797979
894.223977	-3.005100	3.604000	-10.829000	25.413491	0.000974	20.798029
895.225224	-2.998400	3.604000	-10.804000	25.424671	0.000974	20.808781
896.228267	-3.014700	3.601800	-10.858000	25.432673	0.000974	20.805911
897.227846	-2.991300	3.603800	-10.779000	25.419705	0.000973	20.808536
898.227728	-3.003000	3.603400	-10.819000	25.397208	0.000974	20.792110
899.231277	-2.999000	3.601700	-10.801000	25.433570	0.000974	20.803967
900.228819	-2.984000	3.602800	-10.750000	25.431507	0.000972	20.812326
901.228705	-3.010600	3.601700	-10.842000	25.411677	0.000972	20.792889
902.236241	-2.995400	3.601300	-10.785000	25.394328	0.000973	20.800598
903.229866	-2.996700	3.602000	-10.792000	25.370045	0.000971	20.783327
904.230804	-3.007200	3.599400	-10.822000	25.390278	0.000973	20.807911
905.234587	-2.999500	3.598800	-10.794000	25.377654	0.000971	20.806614
906.230328	-3.005600	3.599100	-10.816000	25.317037	0.000970	20.790794
907.230396	-2.998500	3.599200	-10.790000	25.318600	0.000969	20.797106
908.234426	-2.975500	3.600300	-10.712000	25.300905	0.000972	20.786926
909.231446	-2.994100	3.599000	-10.773000	25.316911	0.000970	20.786875
910.230533	-2.975900	3.598600	-10.707000	25.314951	0.000969	20.810511
911.231418	-2.980400	3.599200	-10.726000	25.303295	0.000968	20.789799
912.231494	-2.992200	3.598900	-10.767000	25.323379	0.000968	20.801904
913.233839	-2.996500	3.599500	-10.786000	25.319551	0.000967	20.808966
914.237762	-3.007500	3.597500	-10.818000	25.297828	0.000965	20.798535
915.232744	-2.974200	3.598600	-10.702000	25.300786	0.000966	20.796289
916.231622	-2.994900	3.595400	-10.766000	25.283363	0.000964	20.798710
917.236011	-2.995100	3.596500	-10.771000	25.315526	0.000966	20.785959
918.236627	-3.007000	3.595200	-10.809000	25.269768	0.000963	20.770361
919.232987	-2.999200	3.595500	-10.782000	25.247893	0.000963	20.801979
920.236527	-2.999600	3.595500	-10.783000	25.283910	0.000964	20.785509
921.232866	-3.018200	3.593300	-10.842000	25.308392	0.000965	20.767890
922.237271	-3.003600	3.594100	-10.794000	25.333299	0.000962	20.775828
923.237306	-2.994600	3.594000	-10.761000	25.385193	0.000962	20.778149
924.233513	-2.985300	3.595200	-10.731000	25.365858	0.000962	20.790502
925.235885	-3.016700	3.592900	-10.838000	25.325893	0.000963	20.780247
926.239170	-3.002900	3.592500	-10.787000	25.334691	0.000961	20.780071
927.233357	-3.036900	3.592400	-10.907000	25.314660	0.000960	20.791727
928.234974	-3.014100	3.593000	-10.829000	25.296317	0.000960	20.786112
929.238734	-2.995400	3.591500	-10.756000	25.252447	0.000959	20.783792
930.235093	-3.027000	3.591900	-10.872000	25.267385	0.000959	20.776504
931.238854	-2.998500	3.592200	-10.770000	25.258809	0.000957	20.774532
932.240268	-3.002100	3.591200	-10.779000	25.269224	0.000958	20.776453
933.241756	-3.015600	3.591100	-10.828000	25.301037	0.000958	20.788480
934.239947	-3.006800	3.589800	-10.792000	25.301412	0.000958	20.761355
935.245144	-3.001000	3.590500	-10.773000	25.301637	0.000958	20.789083
936.237360	-2.999300	3.589400	-10.765000	25.297584	0.000956	20.781220
937.238880	-3.010100	3.590600	-10.807000	25.270468	0.000957	20.790505
938.244644	-3.005600	3.590600	-10.790000	25.255453	0.000957	20.790603
939.238179	-3.001500	3.590000	-10.775000	25.237284	0.000957	20.780897
940.241395	-3.017700	3.588400	-10.828000	25.225030	0.000955	20.799888
941.241134	-2.999200	3.588200	-10.761000	25.238304	0.000955	20.773860
942.241487	-3.017400	3.586700	-10.822000	25.217671	0.000952	20.786809
943.239787	-3.019100	3.586700	-10.827000	25.226025	0.000952	20.769118
944.243882	-2.991400	3.586800	-10.729000	25.261595	0.000952	20.786338
945.243229	-2.991900	3.587700	-10.733000	25.278722	0.000952	20.759911
946.240383	-3.020000	3.585500	-10.827000	25.294650	0.000952	20.769266
947.244720	-3.020100	3.585600	-10.826000	25.262515	0.000952	20.755967
948.242659	-3.020500	3.586200	-10.829000	25.269799	0.000951	20.768022
949.244668	-3.006700	3.586400	-10.781000	25.261574	0.000953	20.776359
950.246629	-2.995800	3.584800	-10.738000	25.259434	0.000952	20.750977
951.248039	-2.974400	3.587200	-10.668000	25.282156	0.000950	20.769049
952.245801	-3.003800	3.587000	-10.774000	25.305368	0.000949	20.765802
953.247426	-2.991700	3.585800	-10.726000	25.324286	0.000951	20.768675
954.244880	-2.983600	3.585600	-10.697000	25.331617	0.000949	20.745215
955.245188	-3.016400	3.583300	-10.807000	25.348914	0.000948	20.761635
956.246912	-2.995800	3.585400	-10.740000	25.368425	0.000948	20.771743
957.246719	-2.985600	3.585400	-10.703000	25.344642	0.000947	20.756871
958.248791	-3.030400	3.582300	-10.856000	25.327119	0.000947	20.765830
959.250107	-2.995100	3.583200	-10.731000	25.313328	0.000948	20.771897
960.248755	-3.027400	3.581500	-10.840000	25.299085	0.000948	20.779408
961.262155	-3.032300	3.581600	-10.858000	25.324089	0.000946	20.768952
962.254783	-2.996300	3.582200	-10.731000	25.330625	0.000944	20.768876
963.251361	-2.993700	3.583100	-10.726000	25.359831	0.000945	20.745096
964.249809	-2.982900	3.582200	-10.684000	25.360053	0.000945	20.761440
965.249639	-3.005100	3.581100	-10.760000	25.397311	0.000945	20.757600
966.248002	-3.009600	3.580300	-10.774000	25.408197	0.000944	20.759996
967.247858	-3.014100	3.579500	-10.787000	25.413366	0.000943	20.745746
968.257094	-2.994800	3.579200	-10.718000	25.439065	0.000942	20.759698
969.250358	-3.000100	3.580500	-10.740000	25.451292	0.000943	20.771501
970.248896	-3.012000	3.579000	-10.778000	25.473856	0.000942	20.758598
971.254620	-2.996500	3.579700	-10.726000	25.497765	0.000942	20.757003
972.246827	-3.003500	3.578600	-10.746000	25.524330	0.000941	20.758077
973.249435	-3.018600	3.578600	-10.801000	25.560041	0.000940	20.751740
974.255549	-2.993800	3.578900	-10.712000	25.562971	0.000941	20.762744
975.252518	-2.989300	3.577100	-10.692000	25.585336	0.000939	20.750591
976.253522	-2.995700	3.578300	-10.718000	25.569856	0.000938	20.750691
977.253644	-2.980700	3.578100	-10.664000	25.530196	0.000937	20.741682
978.248314	-3.012500	3.575900	-10.771000	25.503162	0.000937	20.757682
979.248905	-2.973400	3.577500	-10.637000	25.488149	0.000936	20.754460
980.256567	-3.000000	3.575400	-10.725000	25.489441	0.000937	20.752437
981.251325	-2.994800	3.575200	-10.706000	25.492327	0.000937	20.756284
982.249983	-3.000000	3.575000	-10.723000	25.483828	0.000935	20.756284
983.254247	-2.980900	3.575400	-10.656000	25.489619	0.000936	20.742659
984.257595	-2.999100	3.575500	-10.723000	25.481145	0.000934	20.756909
985.253584	-3.004500	3.574800	-10.739000	25.503387	0.000934	20.734199
986.253376	-3.008800	3.573300	-10.751000	25.526397	0.000932	20.743083
987.258338	-2.994000	3.574500	-10.700000	25.560889	0.000934	20.746901
988.249583	-3.026700	3.573400	-10.815000	25.568840	0.000935	20.768164
989.252861	-3.014800	3.573400	-10.772000	25.560813	0.000932	20.751568
990.252705	-2.985800	3.573900	-10.670000	25.542625	0.000932	20.754639
991.254704	-2.990000	3.572200	-10.680000	25.527789	0.000930	20.740687
992.254744	-3.017500	3.572300	-10.778000	25.525253	0.000931	20.738140
993.255014	-3.002600	3.571900	-10.724000	25.521028	0.000930	20.750494
994.260334	-3.011200	3.570700	-10.751000	25.534202	0.000930	20.745705
995.262105	-3.009300	3.572000	-10.748000	25.535046	0.000931	20.734698
996.257679	-2.995200	3.572400	-10.699000	25.564294	0.000929	20.755537
997.258879	-2.999400	3.571500	-10.712000	25.574558	0.000927	20.745457
998.256799	-3.011500	3.572000	-10.757000	25.587853	0.000929	20.753119
999.252355	-2.988100	3.571100	-10.669000	25.561736	0.000928	20.753917
1000.253436	-3.004800	3.569600	-10.724000	25.541062	0.000928	20.761130
1001.261398	-2.994600	3.569500	-10.688000	25.538104	0.000927	20.758633
1002.259325	-3.004800	3.569700	-10.725000	25.510172	0.000930	20.748600
1003.266018	-2.985600	3.568300	-10.653000	25.498568	0.000926	20.732205
1004.256925	-3.010200	3.567500	-10.738000	25.489325	0.000924	20.747580
1005.264966	-3.022500	3.567500	-10.782000	25.462562	0.000923	20.755791
1006.260384	-2.979100	3.569100	-10.631000	25.475757	0.000924	20.738222
1007.263618	-2.981000	3.567700	-10.633000	25.474813	0.000924	20.735377
1008.257152	-3.002400	3.567600	-10.711000	25.487537	0.000924	20.747206
1009.259520	-3.001400	3.566900	-10.705000	25.521135	0.000922	20.765300
1010.267892	-3.005600	3.567100	-10.720000	25.510053	0.000923	20.759387
1011.263303	-3.005400	3.565100	-10.713000	25.508165	0.000922	20.737101
1012.265501	-2.983400	3.567000	-10.640000	25.500735	0.000923	20.750503
1013.263842	-3.006800	3.566200	-10.721000	25.524468	0.000924	20.761535
1014.259259	-3.012100	3.564300	-10.734000	25.536319	0.000920	20.741192
1015.260845	-2.995900	3.565300	-10.680000	25.546312	0.000921	20.757393
1016.266877	-3.027300	3.564200	-10.788000	25.531178	0.000919	20.754997
1017.264845	-2.994700	3.564700	-10.675000	25.580359	0.000918	20.741325
1018.262507	-3.000100	3.564700	-10.694000	25.558612	0.000918	20.766901
1019.266952	-3.000500	3.563800	-10.692000	25.538614	0.000917	20.762464
1020.260900	-3.000100	3.564000	-10.692000	25.484860	0.000920	20.724603
1021.266273	-2.999100	3.563800	-10.686000	25.470448	0.000916	20.757547
1022.270605	-3.003000	3.561600	-10.694000	25.486874	0.000915	20.751756
1023.264699	-3.023400	3.562400	-10.770000	25.522089	0.000914	20.736859
1024.263698	-2.999100	3.562700	-10.684000	25.544605	0.000915	20.761843
1025.266351	-3.010900	3.562100	-10.724000	25.558619	0.000915	20.760269
1026.269718	-3.009600	3.560900	-10.716000	25.554195	0.000915	20.758197
1027.265144	-3.007500	3.561100	-10.709000	25.554345	0.000915	20.754080
1028.267966	-3.006400	3.560600	-10.704000	25.587666	0.000912	20.756250
1029.265834	-2.970600	3.561400	-10.579000	25.556805	0.000912	20.757974
1030.275804	-3.010100	3.558400	-10.710000	25.559563	0.000913	20.759321
1031.268039	-3.001900	3.559800	-10.684000	25.561677	0.000913	20.761444
1032.272864	-3.005800	3.558800	-10.696000	25.584586	0.000910	20.756950
1033.264126	-3.006200	3.558600	-10.697000	25.626407	0.000909	20.750588
1034.272880	-3.019500	3.556400	-10.737000	25.633439	0.000911	20.766186
1035.272461	-2.991600	3.558300	-10.644000	25.671256	0.000908	20.770978
1036.273779	-3.007200	3.557700	-10.698000	25.706437	0.000908	20.760794
1037.274660	-3.017200	3.557400	-10.732000	25.679726	0.000909	20.770475
1038.272506	-2.999400	3.558100	-10.671000	25.686063	0.000908	20.756451
1039.266728	-2.996400	3.555200	-10.651000	25.705843	0.000908	20.766836
1040.266861	-3.012500	3.555500	-10.710000	25.645713	0.000906	20.765237
1041.270434	-2.999300	3.557500	-10.669000	25.614379	0.000907	20.762691
1042.266794	-2.985100	3.557000	-10.617000	25.610928	0.000906	20.750689
1043.269472	-3.021800	3.555400	-10.743000	25.617112	0.000903	20.766383
1044.269016	-3.041500	3.554100	-10.808000	25.627498	0.000905	20.773970
1045.271360	-2.980100	3.556000	-10.596000	25.652867	0.000904	20.765309
1046.274608	-3.016900	3.555500	-10.726000	25.669465	0.000905	20.771075
1047.269419	-3.014500	3.554300	-10.713000	25.692994	0.000904	20.773370
1048.269610	-2.994500	3.554900	-10.642000	25.707381	0.000902	20.740404
1049.271131	-3.007900	3.552100	-10.684000	25.681889	0.000901	20.772648
1050.272830	-2.992700	3.554700	-10.635000	25.711680	0.000902	20.764637
1051.272251	-3.021100	3.552000	-10.730000	25.713943	0.000902	20.768808
1052.276256	-2.988300	3.553500	-10.618000	25.734464	0.000900	20.761444
1053.277826	-3.017400	3.551400	-10.715000	25.739188	0.000901	20.765715
1054.278499	-2.990600	3.552100	-10.622000	25.734439	0.000900	20.770902
1055.278573	-3.004500	3.551600	-10.669000	25.733298	0.000899	20.786352
1056.278075	-2.988800	3.551700	-10.615000	25.731288	0.000901	20.766789
1057.275698	-3.020800	3.549300	-10.720000	25.702438	0.000900	20.754881
1058.282461	-2.991400	3.550900	-10.621000	25.636597	0.000898	20.782160
1059.280221	-2.985100	3.550500	-10.598000	25.587178	0.000899	20.758605
1060.280048	-3.007200	3.550400	-10.676000	25.557831	0.000897	20.762798
1061.280777	-2.997000	3.550200	-10.638000	25.569910	0.000894	20.777773
1062.278335	-2.987800	3.550700	-10.608000	25.551199	0.000895	20.773207
1063.278766	-2.989700	3.550200	-10.613000	25.546403	0.000897	20.761752
1064.282416	-3.020500	3.548100	-10.716000	25.551518	0.000895	20.794390
1065.282824	-2.977000	3.548800	-10.564000	25.554257	0.000894	20.762053
1066.279329	-3.004700	3.548700	-10.662000	25.533061	0.000895	20.768742
1067.282104	-3.002500	3.548600	-10.653000	25.523343	0.000892	20.768940
1068.283879	-2.973800	3.548600	-10.552000	25.566808	0.000893	20.787460
1069.283407	-2.995200	3.546200	-10.621000	25.575281	0.000892	20.795970
1070.286187	-2.997600	3.547000	-10.632000	25.599338	0.000891	20.769395
1071.281687	-3.007400	3.547100	-10.666000	25.633477	0.000891	20.768594
1072.286403	-2.988200	3.545400	-10.593000	25.690202	0.000891	20.757764
1073.281509	-3.014700	3.544800	-10.685000	25.702401	0.000890	20.783294
1074.283719	-2.999600	3.546700	-10.638000	25.690674	0.000889	20.783369
1075.285413	-2.998200	3.544900	-10.626000	25.683196	0.000889	20.786289
1076.286824	-3.016400	3.544700	-10.690000	25.635812	0.000885	20.785639
1077.286068	-3.029600	3.543200	-10.732000	25.660439	0.000889	20.797098
1078.288364	-3.000600	3.544100	-10.634000	25.666254	0.000885	20.810524
1079.288823	-3.012900	3.543400	-10.674000	25.696765	0.000884	20.786167
1080.288798	-3.004200	3.543100	-10.643000	25.710905	0.000886	20.779507
1081.285397	-2.993000	3.541100	-10.598000	25.722335	0.000884	20.799996
1082.300498	-2.992800	3.542900	-10.602000	25.779428	0.000885	20.785272
1083.289194	-2.982200	3.542600	-10.563000	25.800097	0.000884	20.788016
1084.288986	-3.020100	3.541100	-10.693000	25.787652	0.000885	20.781206
1085.288521	-3.025700	3.540700	-10.712000	25.793092	0.000884	20.781928
1086.285201	-2.983700	3.542100	-10.568000	25.826630	0.000883	20.800445
1087.288000	-3.014800	3.539600	-10.669000	25.814955	0.000883	20.789191
1088.286226	-3.010500	3.539600	-10.655000	25.810510	0.000882	20.797528
1089.287999	-3.002800	3.539400	-10.627000	25.789269	0.000881	20.785200
1090.287496	-2.972100	3.541000	-10.523000	25.729569	0.000879	20.796357
1091.291735	-2.978400	3.540600	-10.544000	25.728600	0.000879	20.798228
1092.291579	-3.010900	3.539700	-10.657000	25.687383	0.000880	20.798081
1093.288675	-3.007300	3.539300	-10.642000	25.653786	0.000880	20.797054
1094.287116	-2.997500	3.538600	-10.606000	25.668847	0.000879	20.799852
1095.291356	-3.007900	3.538000	-10.641000	25.717792	0.000877	20.811081
1096.294262	-3.004400	3.538300	-10.630000	25.757720	0.000878	20.797607
1097.288542	-3.006000	3.538400	-10.635000	25.795211	0.000878	20.816299
1098.294564	-3.010600	3.537400	-10.648000	25.811207	0.000876	20.807711
1099.290489	-3.009000	3.537300	-10.643000	25.810166	0.000877	20.798605
1100.290778	-3.017700	3.535800	-10.669000	25.825618	0.000874	20.813652
1101.299324	-3.006700	3.535600	-10.630000	25.851457	0.000875	20.789822
1102.291559	-3.000600	3.536000	-10.609000	25.865045	0.000874	20.795412
1103.294086	-3.013800	3.534200	-10.650000	25.822667	0.000875	20.796464
1104.293109	-3.017800	3.534800	-10.667000	25.807237	0.000872	20.811310
1105.293212	-2.988000	3.535500	-10.563000	25.754891	0.000874	20.802351
1106.293247	-3.002300	3.536100	-10.616000	25.738916	0.000871	20.799108
1107.299117	-2.989000	3.535100	-10.565000	25.729897	0.000872	20.824661
1108.292825	-3.021400	3.533400	-10.674000	25.715735	0.000871	20.816127
1109.293349	-2.984300	3.535100	-10.549000	25.709348	0.000870	20.807815
1110.299527	-3.016800	3.532200	-10.656000	25.717252	0.000870	20.812434
1111.299836	-2.999800	3.533800	-10.599000	25.707860	0.000869	20.813907
1112.299281	-3.001600	3.531700	-10.598000	25.694045	0.000868	20.806669
1113.301991	-3.027300	3.529000	-10.682000	25.690691	0.000869	20.818947
1114.297983	-2.994900	3.533200	-10.581000	25.694020	0.000866	20.826084
1115.296617	-3.009100	3.532600	-10.628000	25.731836	0.000868	20.811910
1116.299411	-2.995900	3.531800	-10.580000	25.763066	0.000868	20.793967
1117.297220	-3.017800	3.529800	-10.651000	25.809701	0.000865	20.817103
1118.297986	-2.997100	3.530600	-10.580000	25.806318	0.000864	20.838361
1119.298185	-2.982400	3.529500	-10.525000	25.799738	0.000865	20.802355
1120.297954	-2.981100	3.530300	-10.523000	25.803142	0.000864	20.817628
1121.299177	-2.983900	3.529200	-10.530000	25.812111	0.000863	20.812886
1122.303134	-2.986600	3.529300	-10.540000	25.796484	0.000862	20.814259
1123.298316	-2.997900	3.528400	-10.577000	25.824659	0.000864	20.842560
1124.295682	-2.988400	3.529300	-10.545000	25.836509	0.000864	20.827912
1125.301655	-2.993600	3.527800	-10.560000	25.878267	0.000860	20.823867
1126.298343	-3.005600	3.527000	-10.600000	25.895312	0.000861	20.819653
1127.299171	-3.011200	3.527200	-10.620000	25.869846	0.000862	20.831055
1128.297554	-3.009700	3.526500	-10.613000	25.893821	0.000862	20.813888
1129.298906	-2.994700	3.527300	-10.562000	25.903583	0.000859	20.825117
1130.298243	-2.985200	3.528200	-10.532000	25.887710	0.000858	20.822448
1131.299081	-2.996300	3.524800	-10.559000	25.878449	0.000858	20.841593
1132.298954	-2.990500	3.525200	-10.541000	25.861332	0.000857	20.845734
1133.295236	-2.967100	3.526000	-10.461000	25.866102	0.000857	20.811646
1134.302678	-3.001400	3.524700	-10.577000	25.851395	0.000859	20.811571
1135.294857	-2.963600	3.527000	-10.451000	25.811649	0.000853	20.840396
1136.299391	-3.004300	3.524100	-10.587000	25.810233	0.000856	20.827121
1137.300506	-2.994500	3.523400	-10.550000	25.797910	0.000855	20.836079
1138.301537	-2.994700	3.525200	-10.557000	25.814931	0.000854	20.821883
1139.299911	-3.013100	3.523200	-10.614000	25.838854	0.000857	20.835957
1140.301743	-2.965400	3.524800	-10.451000	25.808598	0.000855	20.861039
1141.308596	-2.994300	3.523000	-10.548000	25.771704	0.000852	20.851481
1142.304291	-2.991800	3.521800	-10.534000	25.770513	0.000852	20.828474
1143.308151	-3.010500	3.520700	-10.597000	25.799604	0.000852	20.838729
1144.303578	-3.005200	3.520900	-10.580000	25.815628	0.000852	20.854351
1145.301684	-2.998300	3.522100	-10.559000	25.819830	0.000852	20.845769
1146.307036	-3.000000	3.520300	-10.559000	25.819608	0.000852	20.836538
1147.305933	-3.004200	3.519200	-10.571000	25.804156	0.000851	20.850887
1148.303421	-3.022600	3.518500	-10.634000	25.836253	0.000850	20.850887
1149.305282	-2.995700	3.518200	-10.539000	25.823087	0.000849	20.841929
1150.303607	-2.998800	3.519100	-10.551000	25.810618	0.000848	20.873498
1151.308022	-2.995100	3.519000	-10.538000	25.817351	0.000847	20.843280
1152.307532	-3.009700	3.516800	-10.583000	25.790023	0.000846	20.865140
1153.307661	-3.003500	3.516700	-10.562000	25.781080	0.000849	20.829131
1154.307302	-2.993900	3.517400	-10.530000	25.788979	0.000846	20.852238
1155.316487	-3.004700	3.516500	-10.565000	25.762445	0.000846	20.848818
1156.306784	-3.007300	3.516700	-10.575000	25.746742	0.000844	20.845848
1157.307264	-2.996700	3.516200	-10.536000	25.724734	0.000841	20.832751
1158.309923	-2.994100	3.517300	-10.529000	25.690795	0.000842	20.854138
1159.303590	-2.989200	3.516800	-10.512000	25.663611	0.000843	20.851491
1160.308250	-2.997800	3.516100	-10.539000	25.699593	0.000840	20.838793
1161.308171	-3.004100	3.514700	-10.557000	25.743316	0.000842	20.861846
1162.306937	-2.990300	3.516900	-10.515000	25.763789	0.000841	20.853013
1163.307930	-3.004600	3.513900	-10.557000	25.730943	0.000841	20.861271
1164.309595	-2.981800	3.515000	-10.479000	25.747640	0.000840	20.857180
1165.304690	-2.983700	3.513900	-10.483000	25.788883	0.000838	20.852141
1166.314322	-2.978300	3.514200	-10.464000	25.776585	0.000840	20.841685
1167.311272	-2.992800	3.513700	-10.514000	25.800977	0.000839	20.862392
1168.306882	-2.998700	3.511800	-10.529000	25.803340	0.000840	20.856232
1169.309147	-2.994100	3.512600	-10.515000	25.813353	0.000837	20.846850
1170.311007	-3.010600	3.511000	-10.569000	25.808011	0.000838	20.864242
1171.307364	-2.994400	3.511400	-10.514000	25.841427	0.000837	20.852766
1172.308764	-3.004800	3.510800	-10.548000	25.846444	0.000835	20.872029
1173.312648	-3.020400	3.510700	-10.602000	25.805947	0.000835	20.868807
1174.311030	-3.001000	3.509800	-10.532000	25.820505	0.000834	20.861146
1175.311887	-3.025200	3.507800	-10.610000	25.817923	0.000836	20.874198
1176.311766	-2.998300	3.508300	-10.517000	25.853996	0.000835	20.866339
1177.308311	-2.974100	3.509900	-10.436000	25.850220	0.000834	20.858279
1178.311760	-3.022000	3.506800	-10.596000	25.853968	0.000833	20.865837
1179.310812	-2.983000	3.507700	-10.462000	25.865446	0.000832	20.877841
1180.312527	-2.998000	3.507700	-10.515000	25.904049	0.000833	20.872999
1181.312245	-2.988100	3.508100	-10.481000	25.932893	0.000829	20.854087
1182.317048	-3.006700	3.507600	-10.545000	25.962402	0.000833	20.876619
1183.311750	-3.012800	3.505500	-10.560000	26.006468	0.000830	20.864468
1184.312736	-2.999600	3.505200	-10.513000	26.008331	0.000831	20.867288
1185.314339	-3.017800	3.505800	-10.579000	26.019432	0.000830	20.873699
1186.309411	-3.006600	3.504800	-10.536000	26.012900	0.000828	20.874249
1187.312853	-2.998700	3.506600	-10.515000	25.960364	0.000828	20.875994
1188.313632	-2.998800	3.505200	-10.511000	25.931527	0.000826	20.882585
1189.315749	-3.016600	3.503400	-10.567000	25.937513	0.000827	20.869159
1190.313783	-2.999000	3.503000	-10.505000	25.943030	0.000827	20.873279
1191.316009	-3.010600	3.503100	-10.546000	25.924745	0.000825	20.880987
1192.314429	-2.994400	3.503800	-10.491000	25.959001	0.000826	20.872729
1193.314759	-3.013600	3.502800	-10.555000	25.956467	0.000825	20.872553
1194.313835	-3.006700	3.502300	-10.529000	26.007834	0.000826	20.899028
1195.309784	-3.033200	3.500500	-10.618000	25.986471	0.000827	20.882783
1196.315333	-3.013800	3.501700	-10.551000	26.002146	0.000824	20.894262
1197.313806	-2.996700	3.502700	-10.496000	25.993697	0.000823	20.893835
1198.313202	-3.002700	3.502500	-10.515000	25.985206	0.000823	20.900476
1199.320066	-2.981800	3.501500	-10.440000	25.987490	0.000822	20.902297
1200.316417	-2.982200	3.500600	-10.438000	25.948093	0.000823	20.888321
1201.314438	-2.977200	3.500800	-10.422000	25.930358	0.000819	20.892790
1202.331924	-3.017600	3.499400	-10.559000	25.901865	0.000819	20.897355
1203.315372	-2.975700	3.500000	-10.414000	25.916868	0.000821	20.885401
1204.315104	-2.978900	3.500500	-10.427000	25.933959	0.000816	20.863692
1205.318936	-2.987600	3.499900	-10.455000	25.945308	0.000819	20.897851
1206.321187	-3.004100	3.498600	-10.509000	25.968909	0.000817	20.892639
1207.319213	-3.000500	3.498300	-10.496000	25.984409	0.000818	20.892089
1208.324838	-3.002200	3.497600	-10.500000	26.020351	0.000819	20.895009
1209.318979	-3.010500	3.495800	-10.523000	26.036397	0.000817	20.886475
1210.323514	-3.019800	3.495900	-10.556000	26.035203	0.000817	20.898077
1211.324415	-2.999000	3.497500	-10.488000	26.070647	0.000817	20.891015
1212.317354	-2.994300	3.496400	-10.468000	26.048567	0.000815	20.899650
1213.325406	-3.010400	3.494900	-10.521000	26.040744	0.000816	20.896532
1214.326890	-3.013700	3.495300	-10.531000	26.050976	0.000813	20.904441
1215.317723	-3.009500	3.495200	-10.518000	26.028846	0.000812	20.900699
1216.325532	-3.006800	3.493500	-10.503000	26.024699	0.000814	20.912652
1217.325356	-2.985400	3.493200	-10.428000	26.011234	0.000811	20.895333
1218.321055	-3.012500	3.492700	-10.520000	26.009572	0.000811	20.899826
1219.324504	-2.997600	3.493700	-10.472000	26.059149	0.000812	20.916445
1220.323483	-3.038700	3.490700	-10.606000	26.035303	0.000812	20.910978
1221.322576	-3.014800	3.491400	-10.525000	26.054233	0.000809	20.898231
1222.322036	-3.015300	3.491800	-10.528000	26.031581	0.000810	20.900127
1223.327210	-2.991500	3.491800	-10.445000	26.022117	0.000809	20.860750
1224.320496	-2.980100	3.492400	-10.407000	25.997923	0.000807	20.892391
1225.326744	-3.033700	3.490000	-10.587000	25.975395	0.000807	20.906740
1226.328648	-3.000600	3.490900	-10.473000	25.944592	0.000808	20.899028
1227.324159	-3.030300	3.490300	-10.575000	25.917193	0.000809	20.908011
1228.334706	-3.002400	3.490400	-10.477000	25.910857	0.000809	20.892639
1229.325954	-3.001400	3.489700	-10.473000	25.908848	0.000804	20.909110
1230.322724	-3.012100	3.489500	-10.509000	25.960196	0.000808	20.894790
1231.326940	-3.013900	3.487800	-10.511000	25.987691	0.000808	20.902498
1232.325415	-2.970000	3.490500	-10.365000	26.027605	0.000803	20.899926
1233.321368	-2.994200	3.487600	-10.441000	26.052023	0.000804	20.889848
1234.328310	-2.994800	3.488300	-10.447000	26.114165	0.000803	20.879740
1235.326174	-2.993900	3.486600	-10.438000	26.115559	0.000803	20.857909
1236.324253	-3.004300	3.486900	-10.474000	26.142331	0.000804	20.880067
1237.325967	-3.016700	3.485200	-10.512000	26.130509	0.000803	20.882887
1238.326026	-3.000300	3.484100	-10.453000	26.096658	0.000801	20.878271
1239.322110	-2.985800	3.486100	-10.409000	26.065956	0.000803	20.872553
1240.324907	-3.020900	3.484200	-10.523000	26.019482	0.000801	20.896981
1241.324813	-3.027900	3.483900	-10.548000	25.964837	0.000799	20.885229
1242.322979	-3.001900	3.483500	-10.456000	25.974726	0.000799	20.887578
1243.326579	-3.003900	3.484400	-10.465000	25.957360	0.000800	20.873925
1244.326461	-2.992300	3.482600	-10.420000	25.936347	0.000797	20.891694
1245.326406	-2.985700	3.482600	-10.396000	25.969359	0.000796	20.861799
1246.328796	-2.985500	3.483300	-10.398000	26.014563	0.000798	20.881608
1247.325264	-2.998400	3.482500	-10.441000	25.953785	0.000798	20.883609
1248.324700	-2.991300	3.482100	-10.415000	25.939698	0.000796	20.869457
1249.325523	-2.983600	3.482000	-10.388000	25.898886	0.000797	20.878243
1250.322636	-3.004900	3.480400	-10.457000	25.897789	0.000796	20.861494
1251.324011	-2.997400	3.480300	-10.431000	25.869794	0.000794	20.881260
1252.325641	-2.985500	3.481300	-10.392000	25.821899	0.000795	20.872029
1253.325830	-3.019800	3.479200	-10.505000	25.801130	0.000794	20.858279
1254.326816	-3.009600	3.477800	-10.465000	25.796729	0.000793	20.853384
1255.329520	-3.009100	3.478100	-10.466000	25.821574	0.000793	20.857004
1256.325402	-2.999600	3.479500	-10.436000	25.843262	0.000791	20.880211
1257.327971	-2.995300	3.479700	-10.422000	25.880153	0.000791	20.872701
1258.330975	-2.987400	3.479600	-10.393000	25.887755	0.000790	20.862320
1259.325232	-2.992900	3.477800	-10.407000	25.855559	0.000789	20.867435
1260.326759	-2.973800	3.477300	-10.339000	25.848304	0.000788	20.855406
1261.328526	-3.003400	3.477700	-10.444000	25.831161	0.000789	20.863789
1262.326327	-2.998700	3.475800	-10.420000	25.799164	0.000787	20.854882
1263.325191	-3.008600	3.474200	-10.451000	25.836926	0.000787	20.854407
1264.330615	-3.001900	3.474800	-10.430000	25.896298	0.000789	20.854307
1265.332521	-3.006200	3.474000	-10.442000	25.927673	0.000787	20.841257
1266.329243	-2.999700	3.475200	-10.423000	25.980333	0.000788	20.842005
1267.335979	-3.004600	3.475600	-10.441000	25.995707	0.000786	20.860769
1268.330671	-3.021100	3.473900	-10.494000	26.004399	0.000786	20.862389
1269.328682	-2.991900	3.475100	-10.396000	26.020101	0.000786	20.849242
1270.331612	-3.004700	3.473700	-10.436000	26.010737	0.000786	20.845999
1271.330575	-3.025000	3.472800	-10.504000	26.013866	0.000786	20.852935
1272.330263	-2.968900	3.474300	-10.314000	25.980111	0.000785	20.849842
1273.330939	-2.988000	3.472800	-10.374000	25.960414	0.000783	20.856605
1274.334372	-2.973800	3.471700	-10.323000	25.939644	0.000785	20.844749
1275.333694	-2.970200	3.472500	-10.312000	25.927398	0.000783	20.864213
1276.334515	-2.994900	3.471400	-10.395000	25.911898	0.000784	20.849591
1277.333265	-3.003800	3.470500	-10.424000	25.927276	0.000782	20.860298
1278.331456	-2.953700	3.472200	-10.255000	25.954475	0.000782	20.834045
1279.331033	-3.003600	3.469600	-10.420000	25.981574	0.000781	20.841829
1280.334126	-3.011800	3.467500	-10.441000	26.004702	0.000781	20.828082
1281.328965	-3.001900	3.468500	-10.411000	26.033215	0.000781	20.831125
1282.332150	-3.006400	3.468500	-10.426000	26.028224	0.000781	20.834645
1283.340972	-3.004100	3.467000	-10.414000	26.025839	0.000778	20.848844
1284.333074	-3.005300	3.467800	-10.421000	25.998442	0.000778	20.829853
1285.333289	-2.987000	3.467100	-10.356000	26.008653	0.000778	20.849594
1286.334396	-3.012500	3.467100	-10.443000	26.025492	0.000778	20.813409
1287.336509	-2.996100	3.467100	-10.386000	26.024874	0.000780	20.843606
1288.336307	-3.009100	3.465900	-10.428000	26.006118	0.000778	20.832349
1289.332102	-2.985300	3.467200	-10.349000	25.940913	0.000777	20.833222
1290.334784	-3.007400	3.464100	-10.417000	25.916149	0.000777	20.833948
1291.332324	-3.000600	3.464300	-10.394000	25.897320	0.000775	20.835420
1292.335679	-2.990300	3.463900	-10.356000	25.911629	0.000774	20.829881
1293.334455	-2.997600	3.463000	-10.379000	25.946730	0.000774	20.826264
1294.337266	-3.009300	3.463200	-10.420000	25.993157	0.000772	20.840190
1295.348178	-3.013400	3.462800	-10.434000	26.001702	0.000774	20.826016
1296.338600	-3.025200	3.463200	-10.476000	26.012457	0.000774	20.806950
1297.338288	-3.017400	3.462100	-10.444000	26.043107	0.000772	20.819727
1298.340127	-3.007100	3.461100	-10.407000	26.072337	0.000771	20.834871
1299.341013	-3.045500	3.459700	-10.534000	26.105524	0.000772	20.817956
1300.347827	-3.016100	3.460900	-10.437000	26.123828	0.000771	20.826390
1301.340915	-3.031900	3.458900	-10.483000	26.089629	0.000771	20.821426
1302.337017	-2.999000	3.459200	-10.373000	26.069956	0.000770	20.829159
1303.335295	-2.993500	3.460400	-10.357000	26.067203	0.000769	20.812643
1304.340647	-3.023500	3.459700	-10.459000	26.029103	0.000767	20.816562
1305.340372	-3.011400	3.460000	-10.418000	25.993854	0.000768	20.836149
1306.342022	-3.002700	3.458900	-10.384000	26.014047	0.000765	20.817083
1307.345668	-2.982600	3.458800	-10.315000	26.012013	0.000768	20.815987
1308.340622	-2.993900	3.457600	-10.350000	25.989807	0.000766	20.807901
1309.342219	-2.987200	3.456400	-10.324000	25.994154	0.000765	20.836451
1310.345194	-2.986000	3.456900	-10.321000	25.952919	0.000767	20.815887
1311.338508	-3.002900	3.458000	-10.382000	25.933397	0.000765	20.813817
1312.343374	-3.007000	3.456100	-10.392000	25.951003	0.000764	20.830082
1313.338828	-2.977800	3.456400	-10.292000	25.918169	0.000764	20.816537
1314.340804	-3.009300	3.456200	-10.400000	25.971101	0.000764	20.814712
1315.342978	-2.983200	3.456800	-10.311000	26.014248	0.000762	20.822974
1316.343421	-3.006700	3.453500	-10.382000	26.034837	0.000762	20.824220
1317.340847	-3.018100	3.454900	-10.424000	26.062184	0.000760	20.825143
1318.341945	-3.010200	3.455600	-10.400000	26.117943	0.000762	20.823796
1319.342314	-2.999300	3.455300	-10.362000	26.107340	0.000761	20.836375
1320.342912	-3.030100	3.450900	-10.455000	26.084785	0.000760	20.819403
1321.352699	-2.982300	3.454500	-10.301000	26.070060	0.000760	20.834004
1322.341676	-3.028600	3.451700	-10.452000	26.071028	0.000758	20.810797
1323.341172	-3.014500	3.451800	-10.405000	26.074132	0.000758	20.824820
1324.345119	-2.998800	3.452700	-10.353000	26.097055	0.000759	20.826515
1325.346247	-2.977700	3.452400	-10.279000	26.129515	0.000757	20.831156
1326.345432	-2.992000	3.450700	-10.323000	26.145212	0.000756	20.823222
1327.342971	-2.991900	3.450100	-10.322000	26.159590	0.000756	20.821074
1328.350648	-2.996500	3.449600	-10.335000	26.208217	0.000756	20.820151
1329.351142	-3.017300	3.449800	-10.408000	26.179062	0.000756	20.811716
1330.345861	-2.990100	3.449700	-10.314000	26.174915	0.000756	20.819403
1331.347034	-3.018900	3.449300	-10.412000	26.193958	0.000755	20.790649
1332.351792	-2.986500	3.448500	-10.298000	26.208736	0.000752	20.814508
1333.344957	-3.005500	3.448300	-10.364000	26.219935	0.000752	20.789252
1334.347352	-2.996800	3.448900	-10.335000	26.218691	0.000752	20.806020
1335.348685	-2.996000	3.447900	-10.329000	26.244102	0.000752	20.810219
1336.347816	-3.021500	3.446000	-10.412000	26.260888	0.000753	20.825190
1337.347213	-2.993800	3.445800	-10.315000	26.253535	0.000751	20.805000
1338.349027	-3.019400	3.446300	-10.405000	26.253285	0.000751	20.800481
1339.349483	-3.012400	3.446200	-10.380000	26.265481	0.000751	20.791400
1340.351582	-2.960800	3.446000	-10.201000	26.258704	0.000752	20.786012
1341.356552	-2.999400	3.444900	-10.331000	26.253957	0.000747	20.802104
1342.346652	-3.008600	3.444500	-10.362000	26.218148	0.000748	20.808319
1343.351321	-2.979200	3.443800	-10.259000	26.188743	0.000748	20.792995
1344.355846	-2.974600	3.444600	-10.245000	26.189561	0.000749	20.798559
1345.351425	-3.004500	3.443600	-10.344000	26.195549	0.000747	20.811214
1346.355859	-3.009400	3.443400	-10.362000	26.221947	0.000749	20.802180
1347.355171	-2.995100	3.443100	-10.311000	26.205086	0.000749	20.798038
1348.354432	-2.988800	3.442400	-10.288000	26.167731	0.000746	20.794640
1349.356924	-2.991500	3.440700	-10.291000	26.120471	0.000746	20.799784
1350.354687	-2.991700	3.442500	-10.298000	26.138653	0.000745	20.806199
1351.350224	-3.016600	3.438200	-10.370000	26.157775	0.000744	20.800757
1352.355402	-3.000600	3.440600	-10.322000	26.208089	0.000742	20.803901
1353.351784	-3.015900	3.439300	-10.372000	26.222544	0.000743	20.778124
1354.350435	-3.048500	3.437800	-10.477000	26.242536	0.000744	20.790628
1355.355841	-2.994800	3.438800	-10.298000	26.248148	0.000740	20.808595
1356.354914	-2.988200	3.438800	-10.275000	26.281123	0.000739	20.803800
1357.353215	-2.990800	3.437800	-10.281000	26.309360	0.000740	20.786658
1358.356147	-2.992300	3.437500	-10.284000	26.309582	0.000741	20.794942
1359.356341	-3.014200	3.436200	-10.356000	26.346032	0.000740	20.795064
1360.357383	-2.999200	3.437000	-10.307000	26.328929	0.000739	20.803954
1361.357025	-2.994400	3.437600	-10.292000	26.347747	0.000740	20.802004
1362.352100	-3.007400	3.437200	-10.336000	26.362648	0.000739	20.771934
1363.353605	-2.991200	3.435700	-10.276000	26.365925	0.000736	20.788031
1364.355992	-2.983700	3.437300	-10.255000	26.366475	0.000737	20.793799
1365.356912	-2.994900	3.433800	-10.283000	26.367365	0.000738	20.806548
1366.357754	-3.002000	3.433100	-10.305000	26.338883	0.000737	20.789302
1367.360690	-3.003000	3.433800	-10.311000	26.321305	0.000737	20.784913
1368.359535	-3.007000	3.434000	-10.324000	26.318102	0.000734	20.772685
1369.358313	-3.022100	3.432300	-10.372000	26.330513	0.000734	20.783261
1370.360350	-3.006300	3.432500	-10.319000	26.364213	0.000735	20.781568
1371.358167	-3.011800	3.433100	-10.338000	26.344223	0.000735	20.792298
1372.362348	-2.971900	3.433900	-10.204000	26.357061	0.000735	20.791450
1373.366976	-3.008600	3.431300	-10.322000	26.349984	0.000733	20.800933
1374.358797	-2.997300	3.432800	-10.287000	26.295506	0.000732	20.779373
1375.363698	-2.988200	3.432500	-10.256000	26.233643	0.000733	20.793070
1376.364914	-2.993300	3.431200	-10.270000	26.195849	0.000730	20.787334
1377.361405	-2.983200	3.430000	-10.231000	26.146822	0.000733	20.767940
1378.363007	-2.982500	3.430000	-10.229000	26.133512	0.000732	20.768317
1379.363712	-2.992000	3.429700	-10.260000	26.130037	0.000728	20.789482
1380.361454	-3.003000	3.428600	-10.295000	26.166819	0.000729	20.776180
1381.365651	-3.022700	3.429200	-10.364000	26.141037	0.000728	20.790577
1382.369501	-2.982800	3.429800	-10.229000	26.148165	0.000727	20.783989
1383.361486	-3.004200	3.426700	-10.294000	26.113124	0.000726	20.778177
1384.367901	-3.015100	3.426300	-10.329000	26.053564	0.000727	20.772861
1385.363058	-2.999900	3.428100	-10.283000	26.064322	0.000727	20.773712
1386.365378	-3.005400	3.426600	-10.297000	26.085132	0.000726	20.771388
1387.368632	-3.012800	3.426500	-10.323000	26.121221	0.000726	20.772088
1388.364722	-3.010400	3.425600	-10.312000	26.119906	0.000725	20.773137
1389.363840	-3.006900	3.425500	-10.298000	26.136322	0.000725	20.791055
1390.365241	-3.021000	3.424100	-10.343000	26.174147	0.000725	20.784966
1391.364347	-3.012600	3.424600	-10.316000	26.185296	0.000723	20.780049
1392.370419	-3.017700	3.424100	-10.331000	26.165553	0.000723	20.775857
1393.370671	-2.992000	3.423000	-10.240000	26.145959	0.000723	20.774186
1394.372027	-3.014600	3.422700	-10.317000	26.140644	0.000724	20.785440
1395.370588	-3.000400	3.424700	-10.274000	26.139206	0.000721	20.777832
1396.371816	-2.995300	3.422600	-10.250000	26.148322	0.000722	20.784147
1397.368111	-2.995000	3.422300	-10.248000	26.184581	0.000722	20.782649
1398.365986	-3.003500	3.421300	-10.275000	26.191112	0.000719	20.757917
1399.382140	-3.027200	3.419700	-10.350000	26.253073	0.000718	20.771344
1400.372269	-3.006700	3.421600	-10.286000	26.246621	0.000719	20.775292
1401.376218	-3.004600	3.420300	-10.276000	26.236341	0.000718	20.779186
1402.369019	-2.991100	3.420500	-10.230000	26.219305	0.000718	20.776290
1403.376267	-2.985900	3.419900	-10.211000	26.253599	0.000717	20.774717
1404.373503	-2.993100	3.418600	-10.232000	26.270931	0.000719	20.741400
1405.371890	-2.975400	3.420000	-10.175000	26.279349	0.000716	20.777361
1406.377037	-2.997400	3.418000	-10.244000	26.300037	0.000717	20.764012
1407.372005	-3.024100	3.417000	-10.332000	26.311235	0.000714	20.773844
1408.375352	-3.011600	3.417200	-10.290000	26.229388	0.000716	20.769828
1409.381778	-3.010500	3.417900	-10.288000	26.196509	0.000714	20.780410
1410.378082	-3.021600	3.415000	-10.318000	26.180266	0.000714	20.755079
1411.373271	-3.019100	3.415500	-10.310000	26.197950	0.000713	20.789445
1412.383699	-3.005000	3.416000	-10.264000	26.196881	0.000713	20.752808
1413.375244	-2.969800	3.417100	-10.147000	26.166188	0.000712	20.762744
1414.374139	-2.989900	3.414500	-10.208000	26.165713	0.000713	20.773172
1415.378248	-2.977300	3.415600	-10.168000	26.141054	0.000711	20.773050
1416.376251	-3.015700	3.414500	-10.296000	26.113513	0.000711	20.782835
1417.378274	-2.997800	3.413700	-10.232000	26.084949	0.000709	20.764091
1418.383829	-2.992800	3.414400	-10.218000	26.038751	0.000710	20.753710
1419.381771	-3.000200	3.413400	-10.239000	25.999634	0.000708	20.782687
1420.377518	-2.998500	3.412700	-10.232000	25.988257	0.000708	20.766041
1421.384926	-3.006200	3.411900	-10.255000	25.993821	0.000710	20.760725
1422.381256	-3.001300	3.411700	-10.238000	25.991958	0.000708	20.762173
1423.382368	-3.020700	3.411200	-10.303000	25.990342	0.000710	20.765765
1424.384298	-2.997600	3.410800	-10.224000	26.027825	0.000708	20.758379
1425.378420	-3.007300	3.410600	-10.256000	26.023975	0.000707	20.777271
1426.381526	-2.993500	3.411100	-10.211000	26.043277	0.000709	20.758731
1427.383105	-3.024000	3.409000	-10.308000	26.067345	0.000707	20.759680
1428.381947	-2.984000	3.411300	-10.178000	26.103188	0.000706	20.759658
1429.379212	-3.000500	3.409600	-10.228000	26.169823	0.000705	20.763552
1430.386696	-2.989000	3.409700	-10.189000	26.182116	0.000705	20.761206
1431.380718	-2.995800	3.408800	-10.212000	26.196894	0.000703	20.755667
1432.384004	-3.007300	3.407900	-10.248000	26.214599	0.000703	20.768243
1433.385555	-2.993500	3.409200	-10.204000	26.193169	0.000703	20.754769
1434.381362	-3.002200	3.407800	-10.230000	26.241919	0.000703	20.756816
1435.386926	-2.989800	3.408100	-10.188000	26.255953	0.000702	20.754797
1436.386208	-3.007600	3.405100	-10.240000	26.299235	0.000700	20.767000
1437.387729	-2.999600	3.405700	-10.215000	26.312077	0.000701	20.745292
1438.387810	-2.978400	3.406300	-10.144000	26.310087	0.000701	20.766526
1439.385623	-3.001700	3.405900	-10.222000	26.316023	0.000699	20.755896
1440.382862	-3.013500	3.403600	-10.256000	26.320219	0.000700	20.758217
1441.389931	-3.013100	3.403300	-10.253000	26.323994	0.000698	20.759165
1442.389144	-2.992600	3.403900	-10.186000	26.377134	0.000700	20.757570
1443.388569	-2.995600	3.403900	-10.195000	26.343216	0.000699	20.763785
1444.386244	-3.021800	3.402400	-10.280000	26.323947	0.000697	20.760067
1445.389879	-3.007300	3.402200	-10.231000	26.343337	0.000698	20.762010
1446.387748	-2.969900	3.403100	-10.106000	26.360997	0.000696	20.764111
1447.383930	-2.966900	3.404800	-10.101000	26.351611	0.000698	20.750885
1448.386983	-3.021100	3.401500	-10.275000	26.326531	0.000696	20.751758
1449.383864	-2.979600	3.403500	-10.140000	26.371301	0.000695	20.756449
1450.386248	-2.998400	3.401200	-10.197000	26.357669	0.000695	20.771673
1451.387966	-2.990800	3.400600	-10.170000	26.359610	0.000694	20.772675
1452.387825	-2.999800	3.400600	-10.200000	26.379150	0.000693	20.757699
1453.388087	-2.997400	3.399800	-10.189000	26.383052	0.000691	20.773001
1454.390263	-3.001000	3.399500	-10.200000	26.347765	0.000688	20.739433
1455.389144	-3.010500	3.397600	-10.227000	26.345160	0.000691	20.741555
1456.385652	-3.011400	3.398600	-10.234000	26.346872	0.000690	20.746121
1457.388766	-3.004000	3.400000	-10.212000	26.335774	0.000691	20.762469
1458.386744	-3.023500	3.398300	-10.274000	26.301607	0.000690	20.763220
1459.386705	-3.007700	3.396800	-10.216000	26.308756	0.000690	20.752860
1460.386461	-3.001800	3.397800	-10.199000	26.326488	0.000689	20.775897
1461.389179	-3.017300	3.396000	-10.245000	26.302998	0.000689	20.753711
1462.390904	-2.997500	3.395800	-10.178000	26.306747	0.000688	20.765541
1463.391131	-3.009900	3.395800	-10.219000	26.300095	0.000687	20.765494
1464.392636	-3.010400	3.394900	-10.219000	26.333171	0.000688	20.761751
1465.390338	-3.011900	3.395000	-10.225000	26.328654	0.000687	20.769064
1466.394031	-2.983300	3.394900	-10.127000	26.310203	0.000686	20.764272
1467.390729	-3.015200	3.393200	-10.230000	26.264862	0.000684	20.768967
1468.393250	-3.013900	3.394200	-10.229000	26.263125	0.000686	20.761531
1469.390075	-3.014100	3.393600	-10.227000	26.259847	0.000685	20.740693
1470.395301	-3.023500	3.391800	-10.253000	26.285798	0.000685	20.771514
1471.393453	-2.974900	3.393600	-10.094000	26.312916	0.000683	20.760834
1472.394895	-2.990900	3.391500	-10.143000	26.349641	0.000682	20.763130
1473.396518	-3.008500	3.391500	-10.202000	26.370549	0.000682	20.759013
1474.396133	-3.006000	3.391700	-10.195000	26.382841	0.000683	20.771840
1475.395162	-3.007700	3.389600	-10.194000	26.401068	0.000681	20.779729
1476.401270	-3.014400	3.389900	-10.218000	26.406829	0.000681	20.755173
1477.398138	-2.991800	3.391300	-10.146000	26.420213	0.000680	20.773367
1478.396435	-2.977700	3.390400	-10.095000	26.391586	0.000681	20.756448
1479.397648	-2.991400	3.389400	-10.138000	26.335001	0.000679	20.759795
1480.396964	-2.983500	3.390300	-10.114000	26.299740	0.000679	20.766085
1481.398381	-2.980500	3.390200	-10.104000	26.306542	0.000677	20.755377
1482.402095	-3.005100	3.388000	-10.179000	26.303240	0.000679	20.758696
1483.396641	-2.988400	3.387400	-10.122000	26.261276	0.000677	20.770579
1484.400218	-3.012700	3.388300	-10.207000	26.269744	0.000677	20.767235
1485.404592	-2.996600	3.388000	-10.152000	26.244015	0.000675	20.773622
1486.399796	-2.996400	3.388100	-10.149000	26.293982	0.000677	20.778791
1487.396442	-3.008700	3.385600	-10.186000	26.236766	0.000676	20.776768
1488.401292	-2.985800	3.385900	-10.109000	26.246750	0.000673	20.770680
1489.400039	-3.004900	3.385400	-10.172000	26.276553	0.000674	20.737092
1490.401919	-2.924100	3.387600	-9.904300	26.316410	0.000674	20.779994
1491.403258	-2.993300	3.385100	-10.132000	26.342284	0.000675	20.763323
1492.398555	-3.001800	3.384600	-10.160000	26.365698	0.000673	20.773104
1493.400595	-2.991600	3.384600	-10.125000	26.373347	0.000671	20.778895
1494.400806	-2.990100	3.382400	-10.113000	26.362546	0.000671	20.756659
1495.405199	-3.004800	3.383900	-10.167000	26.372829	0.000671	20.785486
1496.398776	-2.994100	3.383700	-10.130000	26.371167	0.000669	20.765797
1497.404240	-2.992700	3.383400	-10.124000	26.388619	0.000669	20.779545
1498.399103	-2.989900	3.381200	-10.107000	26.384898	0.000669	20.797142
1499.398691	-2.972700	3.381500	-10.051000	26.367714	0.000669	20.777975
1500.404786	-2.988600	3.382500	-10.107000	26.317626	0.000668	20.791647
1501.401451	-2.992200	3.381600	-10.118000	26.291558	0.000668	20.778251
1502.402396	-2.999200	3.380300	-10.137000	26.255750	0.000668	20.780672
1503.404204	-3.034000	3.378400	-10.249000	26.287362	0.000666	20.774982
1504.399880	-3.018700	3.379400	-10.201000	26.287959	0.000666	20.768470
1505.405011	-2.996300	3.380900	-10.129000	26.337720	0.000669	20.788133
1506.404176	-2.988700	3.379700	-10.099000	26.329903	0.000666	20.792605
1507.401591	-3.010600	3.379000	-10.172000	26.333702	0.000665	20.763706
1508.408184	-2.993200	3.378900	-10.113000	26.327319	0.000666	20.787637
1509.410787	-3.002200	3.378500	-10.142000	26.346240	0.000666	20.772989
1510.408306	-3.019100	3.377000	-10.194000	26.370080	0.000663	20.774188
1511.406933	-2.998100	3.376800	-10.123000	26.383415	0.000664	20.788065
1512.407275	-2.995200	3.377400	-10.115000	26.379862	0.000663	20.788287
1513.408490	-2.987200	3.376100	-10.084000	26.369065	0.000662	20.799721
1514.407950	-2.990400	3.376700	-10.097000	26.312500	0.000662	20.771322
1515.411891	-3.002500	3.376200	-10.136000	26.290425	0.000660	20.782802
1516.409226	-2.997400	3.375100	-10.115000	26.242971	0.000661	20.796754
1517.411035	-3.009200	3.375400	-10.156000	26.210413	0.000659	20.801495
1518.408042	-3.013200	3.374100	-10.166000	26.194295	0.000661	20.775341
1519.405776	-3.016300	3.373700	-10.175000	26.197155	0.000659	20.787698
1520.407107	-3.005000	3.373700	-10.137000	26.255270	0.000657	20.792518
1521.411329	-2.995700	3.373000	-10.103000	26.275112	0.000658	20.784009
1522.405991	-3.000400	3.374600	-10.123000	26.319090	0.000657	20.776523
1523.410143	-2.981900	3.372400	-10.055000	26.317203	0.000658	20.798808
1524.413688	-2.995300	3.372500	-10.101000	26.369943	0.000657	20.797285
1525.409893	-3.016300	3.370300	-10.164000	26.404311	0.000656	20.789152
1526.411601	-2.990600	3.370600	-10.079000	26.412753	0.000656	20.794318
1527.411568	-2.975700	3.370700	-10.030000	26.352716	0.000654	20.809368
1528.412321	-3.019600	3.369500	-10.174000	26.327858	0.000655	20.812361
1529.411051	-2.978000	3.371200	-10.038000	26.312488	0.000655	20.809243
1530.410979	-3.001100	3.369300	-10.111000	26.308020	0.000654	20.786735
1531.413663	-3.023700	3.369700	-10.188000	26.340553	0.000653	20.808998
1532.412692	-3.013500	3.370600	-10.156000	26.324462	0.000652	20.793775
1533.417686	-3.009600	3.368300	-10.137000	26.311698	0.000653	20.814613
1534.416062	-3.007200	3.367600	-10.126000	26.295432	0.000650	20.806326
1535.414412	-2.984800	3.369100	-10.055000	26.278103	0.000651	20.785592
1536.419930	-3.005500	3.367000	-10.118000	26.241122	0.000650	20.815284
1537.413213	-3.033000	3.364900	-10.204000	26.231070	0.000650	20.805183
1538.411426	-3.007800	3.367300	-10.127000	26.243910	0.000648	20.807181
1539.416671	-2.984400	3.367700	-10.050000	26.261793	0.000649	20.811875
1540.416631	-3.013100	3.365700	-10.140000	26.300457	0.000649	20.794781
1541.417607	-2.976600	3.367600	-10.022000	26.355135	0.000647	20.789041
1542.418920	-3.023100	3.364200	-10.169000	26.391065	0.000647	20.790538
1543.421478	-2.986300	3.366600	-10.053000	26.388410	0.000646	20.817267
1544.431312	-3.015800	3.364900	-10.147000	26.423420	0.000647	20.798401
1545.422186	-3.009400	3.364700	-10.124000	26.444452	0.000647	20.826653
1546.419323	-3.000800	3.364300	-10.095000	26.409343	0.000644	20.817917
1547.419674	-2.981900	3.365000	-10.032000	26.390697	0.000645	20.828100
1548.423591	-3.010100	3.364500	-10.126000	26.371701	0.000644	20.828923
1549.422235	-2.993500	3.362800	-10.066000	26.303888	0.000643	20.809134
1550.420883	-2.993900	3.362800	-10.067000	26.307391	0.000644	20.828301
1551.424043	-2.992500	3.361200	-10.057000	26.296811	0.000642	20.822410
1552.421959	-2.986400	3.362800	-10.042000	26.276351	0.000642	20.815126
1553.426152	-2.997600	3.361400	-10.075000	26.310422	0.000641	20.816649
1554.424072	-2.992300	3.362300	-10.060000	26.333715	0.000642	20.829627
1555.419239	-2.980900	3.361200	-10.018000	26.367934	0.000642	20.812809
1556.432067	-2.989700	3.361400	-10.048000	26.354549	0.000640	20.815004
1557.427269	-2.997200	3.359900	-10.069000	26.373967	0.000640	20.816027
1558.421961	-3.002400	3.360400	-10.088000	26.361207	0.000639	20.829282
1559.422729	-3.001900	3.358900	-10.082000	26.404804	0.000637	20.826157
1560.431167	-3.020100	3.357800	-10.139000	26.425936	0.000638	20.827008
1561.429219	-2.986200	3.358900	-10.030000	26.465413	0.000639	20.835866
1562.425256	-2.974100	3.357900	-9.984900	26.470430	0.000637	20.827159
1563.424486	-2.999200	3.358600	-10.072000	26.444781	0.000636	20.825560
1564.423574	-2.994300	3.358400	-10.055000	26.499059	0.000637	20.820374
1565.424120	-2.995100	3.357500	-10.055000	26.503823	0.000636	20.821369
1566.421803	-3.002000	3.358000	-10.080000	26.508643	0.000635	20.833326
1567.423702	-3.015400	3.356600	-10.120000	26.512464	0.000631	20.823416
1568.426027	-3.002300	3.355600	-10.073000	26.518296	0.000633	20.825959
1569.432835	-3.002900	3.356100	-10.076000	26.507521	0.000632	20.823190
1570.430084	-3.015700	3.355300	-10.118000	26.487191	0.000634	20.832152
1571.433237	-2.958700	3.356900	-9.931200	26.516663	0.000633	20.830007
1572.435172	-2.981900	3.355500	-10.005000	26.517231	0.000631	20.833897
1573.428220	-2.991400	3.354100	-10.033000	26.500152	0.000630	20.838542
1574.425725	-2.976900	3.355600	-9.987100	26.524285	0.000630	20.840514
1575.427990	-2.998800	3.352300	-10.052000	26.552287	0.000630	20.839264
1576.439300	-3.002400	3.353100	-10.066000	26.550550	0.000628	20.823294
1577.437763	-3.001300	3.353300	-10.062000	26.543128	0.000630	20.841911
1578.437153	-2.966000	3.353900	-9.946500	26.520811	0.000628	20.837022
1579.433829	-3.017800	3.350400	-10.110000	26.492830	0.000628	20.840664
1580.436646	-2.997900	3.352400	-10.049000	26.491690	0.000628	20.825769
1581.425464	-3.016600	3.350200	-10.105000	26.492637	0.000627	20.831936
1582.432208	-2.987100	3.350900	-10.008000	26.506613	0.000628	20.845510
1583.436688	-2.979600	3.351900	-9.986500	26.527169	0.000626	20.841516
1584.430770	-3.015700	3.350100	-10.102000	26.561031	0.000625	20.830036
1585.443202	-3.006700	3.349200	-10.068000	26.559223	0.000625	20.846710
1586.437754	-3.006200	3.349400	-10.068000	26.543335	0.000626	20.845438
1587.434725	-3.000800	3.350300	-10.052000	26.541177	0.000623	20.838053
1588.439504	-2.991400	3.350000	-10.020000	26.548774	0.000623	20.840000
1589.432762	-3.002800	3.348100	-10.053000	26.512699	0.000623	20.820808
1590.432688	-3.015100	3.348800	-10.095000	26.493212	0.000624	20.848161
1591.438792	-2.998100	3.348400	-10.038000	26.523849	0.000621	20.844342
1592.433164	-2.985100	3.348900	-9.995800	26.508386	0.000623	20.860567
1593.434602	-2.988200	3.347400	-10.002000	26.508314	0.000619	20.852435
1594.441251	-2.991300	3.346600	-10.010000	26.520254	0.000619	20.845470
1595.433529	-3.011500	3.346400	-10.076000	26.513256	0.000619	20.841282
1596.438046	-2.999600	3.346400	-10.036000	26.493937	0.000620	20.862639
1597.449320	-2.985700	3.345100	-9.986800	26.507821	0.000617	20.834870
1598.440394	-3.001200	3.344700	-10.037000	26.536224	0.000618	20.860574
1599.438052	-2.983700	3.345900	-9.982500	26.523488	0.000617	20.850617
1600.438450	-3.007000	3.344800	-10.057000	26.577411	0.000618	20.865940
1601.439784	-3.010500	3.342800	-10.062000	26.575525	0.000618	20.874474
1602.439549	-3.011100	3.343100	-10.064000	26.542684	0.000617	20.885085
1603.440850	-3.000800	3.342100	-10.028000	26.533079	0.000615	20.858835
1604.442415	-2.974600	3.343900	-9.945400	26.533029	0.000614	20.868742
1605.439904	-2.986500	3.342400	-9.981000	26.565801	0.000613	20.877028
1606.442864	-3.011500	3.342100	-10.063000	26.600681	0.000615	20.859460
1607.437155	-2.989200	3.343200	-9.992800	26.649984	0.000614	20.872987
1608.441626	-2.993900	3.342000	-10.004000	26.630696	0.000614	20.870667
1609.438543	-2.988900	3.342000	-9.986800	26.619526	0.000612	20.868921
1610.439167	-3.002900	3.341300	-10.032000	26.623621	0.000611	20.882994
1611.436721	-2.968600	3.340600	-9.915500	26.657284	0.000612	20.859938
1612.445151	-2.975700	3.341000	-9.941000	26.650238	0.000611	20.874665
1613.440374	-3.019000	3.339400	-10.080000	26.653764	0.000610	20.869201
1614.442731	-3.008400	3.339400	-10.045000	26.634602	0.000608	20.862265
1615.442154	-3.007900	3.339200	-10.043000	26.617818	0.000609	20.887117
1616.441002	-2.999200	3.338600	-10.012000	26.617396	0.000608	20.887642
1617.447256	-2.995500	3.337800	-9.997600	26.611365	0.000609	20.883475
1618.440408	-2.994400	3.340000	-9.999000	26.611686	0.000608	20.861989
1619.441795	-3.013400	3.337300	-10.055000	26.634977	0.000606	20.856479
1620.442563	-2.983700	3.339200	-9.962400	26.611093	0.000607	20.888892
1621.449285	-2.999900	3.337000	-10.010000	26.650120	0.000607	20.883554
1622.444344	-3.002000	3.336700	-10.016000	26.656973	0.000604	20.883806
1623.446322	-2.992300	3.337000	-9.984600	26.606852	0.000606	20.879413
1624.452121	-3.005800	3.335600	-10.026000	26.582499	0.000604	20.891442
1625.445483	-2.998200	3.334700	-9.997500	26.590790	0.000604	20.881758
1626.446219	-3.007400	3.336000	-10.031000	26.595581	0.000605	20.867610
1627.446991	-3.012800	3.333500	-10.041000	26.604944	0.000605	20.884132
1628.448240	-3.020700	3.333500	-10.068000	26.578751	0.000604	20.873925
1629.445458	-3.017800	3.333600	-10.059000	26.558068	0.000602	20.889168
1630.447556	-3.004300	3.332300	-10.010000	26.523212	0.000600	20.883055
1631.446797	-3.007400	3.333100	-10.022000	26.548341	0.000599	20.909260
1632.448224	-3.006700	3.331900	-10.017000	26.567627	0.000598	20.899724
1633.445366	-2.977700	3.333200	-9.924000	26.575674	0.000601	20.911132
1634.445399	-2.985200	3.333400	-9.949800	26.568921	0.000599	20.889646
1635.449358	-3.013000	3.331300	-10.035000	26.562663	0.000597	20.888572
1636.445463	-2.996200	3.331000	-9.979600	26.566265	0.000598	20.903097
1637.447807	-2.986300	3.331100	-9.946500	26.590468	0.000598	20.889495
1638.447256	-3.018100	3.330700	-10.051000	26.616757	0.000595	20.901696
1639.455488	-3.011100	3.331100	-10.029000	26.604197	0.000595	20.899976
1640.447857	-2.982500	3.328900	-9.926400	26.629420	0.000595	20.891668
1641.447563	-2.999500	3.329700	-9.985800	26.654468	0.000594	20.895985
1642.445393	-3.018400	3.329200	-10.048000	26.682095	0.000595	20.906215
1643.452743	-2.997000	3.329400	-9.976800	26.695751	0.000594	20.916623
1644.454657	-3.011200	3.327900	-10.020000	26.681006	0.000593	20.900378
1645.448758	-2.992500	3.328100	-9.958700	26.684829	0.000592	20.916074
1646.450945	-3.001800	3.329100	-9.992500	26.675271	0.000591	20.886079
1647.451154	-2.989800	3.327200	-9.945600	26.683089	0.000591	20.894886
1648.449995	-3.029300	3.326200	-10.074000	26.665713	0.000590	20.918667
1649.456865	-3.022600	3.325100	-10.049000	26.646304	0.000591	20.915751
1650.451044	-3.014600	3.326800	-10.027000	26.681306	0.000589	20.902576
1651.451994	-2.979300	3.325800	-9.906700	26.710969	0.000590	20.896837
1652.450453	-2.971100	3.325200	-9.878100	26.732688	0.000590	20.920567
1653.454062	-2.987200	3.324000	-9.927800	26.737179	0.000588	20.902325
1654.459216	-3.011800	3.323500	-10.009000	26.726507	0.000589	20.920517
1655.452302	-3.038700	3.322400	-10.095000	26.759942	0.000587	20.915251
1656.453456	-3.004000	3.322100	-9.978700	26.796605	0.000587	20.909440
1657.451043	-2.997800	3.323100	-9.958800	26.805469	0.000587	20.926411
1658.454057	-3.011000	3.322400	-10.003000	26.766251	0.000587	20.913060
1659.454751	-3.019300	3.321900	-10.028000	26.728101	0.000585	20.917852
1660.454545	-3.015400	3.320700	-10.012000	26.722216	0.000586	20.921418
1661.454661	-2.998300	3.321700	-9.958400	26.710801	0.000584	20.911839
1662.451044	-3.019300	3.320300	-10.023000	26.750613	0.000582	20.920097
1663.452557	-3.007900	3.320200	-9.985200	26.772779	0.000584	20.918674
1664.451632	-2.999100	3.319700	-9.954700	26.818652	0.000582	20.903158
1665.455555	-2.988400	3.320900	-9.923100	26.812593	0.000581	20.924091
1666.455119	-3.007900	3.319000	-9.982300	26.751932	0.000580	20.922844
1667.453820	-3.003100	3.317900	-9.962800	26.719215	0.000579	20.913186
1668.461177	-2.993600	3.318700	-9.933800	26.676075	0.000579	20.914860
1669.453432	-3.001900	3.318700	-9.961600	26.633697	0.000579	20.930577
1670.456713	-3.007600	3.318100	-9.978200	26.587902	0.000580	20.914414
1671.460643	-2.983100	3.320000	-9.902700	26.583307	0.000576	20.921648
1672.455749	-2.998200	3.319500	-9.951400	26.598897	0.000576	20.915510
1673.460442	-3.023000	3.317100	-10.026000	26.620323	0.000575	20.895324
1674.457148	-3.025500	3.316900	-10.034000	26.647279	0.000575	20.897293
1675.458405	-2.992200	3.316300	-9.921800	26.661429	0.000575	20.920998
1676.460540	-3.016900	3.315900	-10.003000	26.660957	0.000575	20.922420
1677.457018	-2.984900	3.315900	-9.897000	26.676521	0.000575	20.922894
1678.460468	-2.997200	3.315200	-9.934900	26.666967	0.000576	20.920876
1679.459676	-2.992900	3.315400	-9.922100	26.643927	0.000573	20.913362
1680.459447	-2.976100	3.315500	-9.866800	26.628020	0.000576	20.899742
1681.455079	-2.992300	3.316500	-9.923900	26.629978	0.000572	20.916408
1682.458532	-2.996700	3.314100	-9.930500	26.666145	0.000570	20.912464
1683.462152	-2.966000	3.313400	-9.825300	26.689781	0.000572	20.913940
1684.461370	-2.977200	3.312800	-9.862000	26.720433	0.000570	20.882171
1685.460810	-3.018700	3.313400	-9.999900	26.761689	0.000572	20.892354
1686.461040	-3.016000	3.311800	-9.986900	26.814629	0.000570	20.892476
1687.462855	-2.988800	3.312100	-9.898100	26.843970	0.000570	20.896847
1688.458103	-2.983300	3.312600	-9.881400	26.874818	0.000570	20.900364
1689.462589	-2.999500	3.311100	-9.930500	26.901325	0.000565	20.892404
1690.459410	-3.004600	3.311200	-9.948100	26.931525	0.000568	20.895271
1691.460020	-3.041700	3.309500	-10.065000	26.906412	0.000565	20.899415
1692.462192	-3.014400	3.309600	-9.975100	26.923612	0.000565	20.898693
1693.460263	-2.991500	3.311000	-9.903200	26.902465	0.000566	20.893076
1694.462098	-2.996600	3.310000	-9.917900	26.907330	0.000566	20.887063
1695.460287	-2.997100	3.310000	-9.919500	26.857421	0.000562	20.878605
1696.460274	-2.989900	3.309600	-9.894000	26.883853	0.000564	20.890483
1697.459969	-3.006300	3.308600	-9.945700	26.895041	0.000563	20.907896
1698.463648	-3.004200	3.307600	-9.935800	26.921255	0.000562	20.900590
1699.464694	-2.988800	3.307100	-9.883400	26.917432	0.000562	20.912392
1700.461787	-2.999100	3.307100	-9.916700	26.897746	0.000560	20.887383
1701.465900	-3.012800	3.306900	-9.962400	26.896285	0.000559	20.885440
1702.463238	-3.001000	3.306700	-9.921600	26.889733	0.000560	20.874111
1703.464014	-3.022800	3.304300	-9.987000	26.870946	0.000560	20.881773
1704.466290	-3.007200	3.304100	-9.935400	26.837336	0.000559	20.882117
1705.466387	-2.991300	3.304000	-9.882500	26.854341	0.000557	20.875508
1706.463828	-2.986800	3.305500	-9.871600	26.817805	0.000558	20.878601
1707.468117	-2.986200	3.304200	-9.865800	26.821031	0.000558	20.879000
1708.465830	-2.985000	3.303800	-9.860200	26.788095	0.000557	20.886187
1709.468425	-2.999800	3.304500	-9.911700	26.753568	0.000555	20.880871
1710.472876	-2.996200	3.303500	-9.896800	26.749574	0.000556	20.872588
1711.466267	-2.985900	3.301900	-9.857900	26.756766	0.000554	20.873655
1712.465177	-2.995500	3.301900	-9.888700	26.804722	0.000553	20.863551
1713.464662	-2.998200	3.301900	-9.897700	26.835771	0.000553	20.881492
1714.465673	-3.009200	3.302100	-9.935300	26.868063	0.000554	20.883615
1715.464175	-3.003500	3.301800	-9.915700	26.920851	0.000553	20.866048
1716.466681	-3.014200	3.300900	-9.948500	26.947378	0.000554	20.897936
1717.464109	-3.025000	3.299700	-9.980600	26.931521	0.000550	20.872983
1718.467806	-3.020700	3.298900	-9.962100	26.930503	0.000551	20.887606
1719.464476	-3.013800	3.300100	-9.944900	26.916186	0.000549	20.870365
1720.467242	-3.018500	3.299700	-9.959200	26.909656	0.000550	20.877075
1721.467725	-2.991000	3.300300	-9.869800	26.912510	0.000549	20.875677
1722.463512	-3.008400	3.299000	-9.923600	26.917893	0.000548	20.865444
1723.466538	-2.990100	3.300000	-9.866600	26.902854	0.000548	20.846529
1724.468115	-2.972100	3.299600	-9.805000	26.916604	0.000549	20.862725
1725.465005	-2.961600	3.300000	-9.772200	26.946778	0.000547	20.874101
1726.463974	-2.998600	3.298100	-9.889200	26.925263	0.000547	20.859104
1727.465093	-2.990800	3.298800	-9.864300	26.948964	0.000545	20.864920
1728.467667	-3.006300	3.295300	-9.906600	26.939980	0.000546	20.855412
1729.467276	-2.997000	3.295500	-9.875400	26.978098	0.000545	20.862923
1730.465645	-3.010700	3.295600	-9.921500	26.976534	0.000542	20.875573
1731.467277	-3.008700	3.295900	-9.914800	26.996262	0.000543	20.868860
1732.468730	-2.998000	3.296200	-9.881300	26.981845	0.000541	20.847725
1733.467516	-3.002200	3.294300	-9.888800	26.971794	0.000543	20.860850
1734.470362	-2.993200	3.293500	-9.857000	26.938809	0.000542	20.863242
1735.468462	-3.006800	3.293700	-9.902200	26.962588	0.000541	20.865818
1736.472803	-2.994400	3.293000	-9.859700	26.933104	0.000540	20.867937
1737.470619	-2.996800	3.293100	-9.866600	26.951568	0.000540	20.844780
1738.472892	-2.998500	3.292800	-9.872500	26.966336	0.000537	20.861051
1739.472641	-3.007100	3.293100	-9.901800	26.982192	0.000537	20.852341
1740.473342	-3.008500	3.293300	-9.906200	27.019915	0.000539	20.864198
1741.475152	-2.986400	3.292000	-9.828700	27.030363	0.000536	20.864747
1742.473464	-3.013400	3.291400	-9.917300	27.003910	0.000536	20.865171
1743.474251	-2.997900	3.290500	-9.863100	26.982217	0.000535	20.854737
1744.475651	-3.012900	3.290500	-9.913100	26.999045	0.000535	20.839417
1745.473525	-2.969300	3.292300	-9.774600	27.011975	0.000536	20.853368
1746.474557	-2.983800	3.291400	-9.820300	27.011132	0.000532	20.845883
1747.475845	-3.018900	3.289900	-9.930100	27.054237	0.000533	20.846084
1748.478969	-3.002300	3.288700	-9.872900	27.041036	0.000533	20.841817
1749.479639	-2.982500	3.289000	-9.808300	27.054734	0.000533	20.854643
1750.477446	-3.011300	3.287900	-9.899600	27.076743	0.000531	20.854492
1751.478282	-2.999300	3.287400	-9.858500	27.077957	0.000532	20.865670
1752.479039	-2.999400	3.288700	-9.862800	27.061827	0.000529	20.847553
1753.479634	-3.002600	3.286000	-9.864900	27.070292	0.000532	20.838049
1754.481278	-2.991100	3.288200	-9.833800	27.073914	0.000528	20.841691
1755.478987	-3.010400	3.285200	-9.888300	27.020340	0.000528	20.823850
1756.480243	-2.985600	3.286300	-9.810700	26.986518	0.000526	20.841518
1757.479682	-2.970800	3.286300	-9.761500	26.929535	0.000529	20.843961
1758.479286	-2.996600	3.283800	-9.838100	26.930157	0.000528	20.843638
1759.480839	-2.992200	3.284000	-9.825700	26.953237	0.000529	20.828914
1760.486244	-3.002200	3.284400	-9.859700	26.962588	0.000525	20.848749
1761.482500	-2.993600	3.283900	-9.829800	26.986489	0.000524	20.838645
1762.479662	-3.007100	3.283400	-9.872700	27.003388	0.000523	20.842363
1763.479459	-2.994800	3.284100	-9.834400	27.006042	0.000524	20.849773
1764.480598	-2.986400	3.283200	-9.803300	27.012965	0.000523	20.833975
1765.481437	-2.993800	3.283900	-9.830300	26.998995	0.000522	20.826091
1766.483480	-3.008900	3.281800	-9.873200	26.980902	0.000522	20.824493
1767.481215	-2.995100	3.282600	-9.829300	27.002913	0.000520	20.844730
1768.483867	-2.973700	3.281000	-9.755800	27.016461	0.000521	20.842707
1769.480596	-2.984300	3.283000	-9.796300	26.991593	0.000520	20.840459
1770.482447	-3.011500	3.280700	-9.879000	26.934143	0.000520	20.823939
1771.481192	-2.981100	3.282100	-9.782700	26.955959	0.000518	20.856781
1772.481631	-2.985600	3.279500	-9.790100	26.925456	0.000519	20.862143
1773.480126	-3.012200	3.280600	-9.881200	26.934715	0.000520	20.865290
1774.479850	-3.009000	3.278600	-9.863900	26.889022	0.000515	20.848268
1775.481559	-3.004600	3.279300	-9.851800	26.917565	0.000516	20.845200
1776.484682	-2.979600	3.278400	-9.767200	26.930493	0.000516	20.844924
1777.481750	-2.992800	3.279300	-9.813600	26.921805	0.000516	20.827180
1778.483022	-3.013700	3.278000	-9.877300	26.917336	0.000514	20.844022
1779.482209	-3.003000	3.276800	-9.839500	26.904380	0.000514	20.817244
1780.484599	-3.029600	3.274900	-9.919200	26.893509	0.000514	20.821960
1781.487795	-3.002400	3.275800	-9.833500	26.904555	0.000513	20.849661
1782.484389	-2.979800	3.276500	-9.762300	26.926813	0.000512	20.828897
1783.485307	-2.984500	3.275700	-9.774600	26.955180	0.000511	20.819015
1784.487381	-2.987900	3.276500	-9.788300	26.974091	0.000509	20.843246
1785.484098	-2.975800	3.276500	-9.749100	27.003945	0.000511	20.837233
1786.487094	-3.002600	3.274900	-9.832100	27.012629	0.000508	20.830319
1787.485890	-3.018900	3.272600	-9.878800	27.045679	0.000509	20.826573
1788.486853	-3.000000	3.273900	-9.821100	27.025681	0.000510	20.838228
1789.486474	-2.985100	3.273700	-9.770800	27.025831	0.000508	20.830793
1790.488102	-2.995400	3.273500	-9.804200	27.023077	0.000509	20.835136
1791.486372	-2.999600	3.272500	-9.815200	26.973862	0.000508	20.823103
1792.487191	-3.009000	3.271500	-9.843500	26.967932	0.000507	20.838950
1793.487849	-2.983800	3.274500	-9.769500	27.005081	0.000506	20.812298
1794.485376	-3.014500	3.271000	-9.859900	27.037093	0.000506	20.840222
1795.490026	-3.015800	3.270600	-9.862500	27.044762	0.000504	20.834184
1796.491278	-2.996700	3.271900	-9.803900	26.993244	0.000505	20.825050
1797.487131	-3.014700	3.270500	-9.858200	26.977484	0.000505	20.834805
1798.487664	-2.988300	3.271200	-9.774900	26.936783	0.000503	20.819482
1799.489128	-2.996600	3.270200	-9.798400	26.952194	0.000504	20.816960
1800.489416	-2.995600	3.270500	-9.796300	26.903333	0.000502	20.841321
1801.490194	-3.006700	3.268300	-9.825800	26.941077	0.000500	20.849877
1802.488333	-3.008300	3.269200	-9.833800	26.920751	0.000501	20.826120
1803.488519	-3.000700	3.269700	-9.809600	26.900029	0.000500	20.819507
1804.488841	-3.006500	3.266500	-9.819400	26.915493	0.000500	20.804712
1805.488395	-3.011800	3.268000	-9.839600	26.970086	0.000498	20.829263
1806.490991	-3.006200	3.267900	-9.822100	26.988550	0.000499	20.822226
1807.489405	-2.995000	3.267300	-9.784300	26.959617	0.000497	20.810674
1808.490592	-3.023200	3.265600	-9.871800	26.954430	0.000497	20.828218
1809.488752	-3.025400	3.266500	-9.881500	26.962196	0.000496	20.813268
1810.490416	-3.011400	3.265200	-9.832000	26.966911	0.000496	20.817535
1811.496677	-3.010000	3.265400	-9.827400	26.992251	0.000495	20.831637
1812.493233	-3.006700	3.265300	-9.817200	27.022523	0.000494	20.824622
1813.493285	-3.005400	3.264300	-9.809500	27.016690	0.000493	20.819231
1814.494377	-3.010100	3.264100	-9.824600	27.064835	0.000495	20.808853
1815.490584	-3.016100	3.263100	-9.840900	27.081854	0.000494	20.825969
1816.495051	-3.047500	3.261000	-9.936700	27.057438	0.000492	20.806630
1817.493205	-3.000300	3.262900	-9.788200	27.105156	0.000490	20.826170
1818.496898	-2.995800	3.261900	-9.769200	27.099498	0.000491	20.803411
1819.496341	-3.023500	3.261500	-9.860600	27.110763	0.000491	20.801464
1820.493863	-2.987900	3.262700	-9.748000	27.121460	0.000491	20.812697
1821.496016	-2.998100	3.262000	-9.779000	27.145429	0.000490	20.809302
1822.494223	-3.001500	3.261500	-9.788400	27.143889	0.000487	20.823875
1823.496730	-3.015300	3.260700	-9.830500	27.135061	0.000487	20.796504
1824.494391	-2.984600	3.261000	-9.730300	27.126942	0.000488	20.794029
1825.495093	-3.002400	3.260100	-9.786500	27.147018	0.000485	20.806159
1826.494199	-3.002700	3.258600	-9.783500	27.167736	0.000485	20.809453
1827.492171	-2.999300	3.258200	-9.771400	27.161482	0.000487	20.804112
1828.501758	-2.995800	3.259200	-9.763100	27.188950	0.000486	20.802815
1829.497757	-3.014300	3.258600	-9.821600	27.230137	0.000482	20.803465
1830.495631	-3.014700	3.257800	-9.819800	27.215624	0.000484	20.828695
1831.493435	-2.993800	3.257400	-9.749900	27.224802	0.000481	20.832237
1832.493547	-2.982100	3.257200	-9.712000	27.205303	0.000482	20.801719
1833.493930	-3.002500	3.256600	-9.777100	27.175107	0.000481	20.808332
1834.491733	-3.021700	3.255900	-9.836600	27.122703	0.000481	20.785498
1835.493146	-3.002000	3.257600	-9.778000	27.060399	0.000478	20.798228
1836.493807	-3.009100	3.255000	-9.793700	27.003149	0.000477	20.794708
1837.494774	-3.001600	3.255000	-9.767400	26.971933	0.000477	20.783705
1838.494226	-2.989800	3.254300	-9.728500	26.988432	0.000476	20.817840
1839.495545	-2.994500	3.254100	-9.744200	26.972851	0.000477	20.796482
1840.498477	-2.992000	3.253700	-9.733900	26.948457	0.000475	20.796608
1841.495306	-3.027200	3.253100	-9.846300	26.945353	0.000473	20.801073
1842.493648	-3.007800	3.252500	-9.781700	26.938752	0.000474	20.805340
1843.496261	-3.001600	3.252800	-9.761300	26.973373	0.000474	20.826878
1844.494134	-3.017600	3.252800	-9.813500	26.990643	0.000473	20.824805
1845.495807	-2.975900	3.252400	-9.677800	26.977688	0.000474	20.802768
1846.498419	-2.982800	3.251200	-9.696700	26.962253	0.000471	20.809532
1847.496282	-2.968400	3.253100	-9.655200	26.962999	0.000472	20.794162
1848.495725	-2.999300	3.251500	-9.750900	26.954783	0.000472	20.783529
1849.498106	-2.981800	3.250800	-9.692100	27.007249	0.000472	20.799780
1850.495598	-2.997200	3.250600	-9.741400	27.031196	0.000470	20.786877
1851.496907	-2.977300	3.250300	-9.674900	27.027474	0.000468	20.803048
1852.498471	-3.010000	3.249500	-9.780400	27.035589	0.000468	20.803149
1853.496445	-2.996000	3.247800	-9.729700	27.037428	0.000468	20.796464
1854.496383	-2.990300	3.249700	-9.716300	27.040854	0.000467	20.801331
1855.499467	-3.024700	3.247300	-9.821600	27.067824	0.000468	20.804273
1856.497743	-2.992300	3.248800	-9.720000	27.120381	0.000468	20.787904
1857.497632	-3.009700	3.246900	-9.771500	27.156732	0.000465	20.772307
1858.504569	-3.001700	3.247400	-9.746600	27.212660	0.000464	20.768341
1859.499352	-3.000700	3.248200	-9.746100	27.260271	0.000463	20.784463
1860.496827	-3.018500	3.243900	-9.790700	27.269723	0.000463	20.778798
1861.502903	-3.031000	3.243600	-9.829200	27.274119	0.000461	20.775633
1862.500314	-3.010500	3.244100	-9.765000	27.297166	0.000461	20.796446
1863.500693	-2.981900	3.246500	-9.678800	27.274269	0.000460	20.771043
1864.505779	-2.998600	3.244500	-9.727700	27.286328	0.000459	20.775112
1865.500786	-3.004700	3.245400	-9.750900	27.310640	0.000460	20.782972
1866.500975	-2.992500	3.244500	-9.708200	27.355004	0.000458	20.772598
1867.500563	-3.005700	3.243500	-9.747600	27.368294	0.000457	20.785494
1868.505449	-2.992500	3.242700	-9.701800	27.371772	0.000457	20.774293
1869.503491	-2.997200	3.243600	-9.721200	27.381920	0.000457	20.797779
1870.503867	-3.003600	3.243400	-9.740700	27.386512	0.000456	20.778690
1871.500268	-3.006800	3.241400	-9.745600	27.317024	0.000455	20.804093
1872.503383	-3.006600	3.241700	-9.745500	27.338982	0.000455	20.790145
1873.503873	-2.988700	3.240400	-9.682400	27.340996	0.000453	20.798810
1874.506019	-3.027300	3.236900	-9.798000	27.336554	0.000453	20.791022
1875.500940	-3.014200	3.239300	-9.762300	27.345809	0.000451	20.780892
1876.505939	-2.994800	3.240100	-9.702400	27.355557	0.000451	20.763671
1877.505882	-2.997400	3.238000	-9.704200	27.317432	0.000449	20.763725
1878.504215	-3.025300	3.237900	-9.794500	27.249186	0.000451	20.762407
1879.503094	-2.974700	3.238000	-9.631000	27.206906	0.000450	20.776779
1880.504264	-2.992000	3.238800	-9.689100	27.225812	0.000447	20.770191
1881.500278	-2.999800	3.238100	-9.711900	27.234076	0.000447	20.765701
1882.503621	-2.982900	3.237400	-9.656100	27.260699	0.000447	20.794377
1883.504137	-2.993300	3.236500	-9.686800	27.254621	0.000448	20.768348
1884.501050	-2.991600	3.236400	-9.680900	27.237847	0.000447	20.776133
1885.501174	-3.025900	3.234800	-9.786600	27.287639	0.000444	20.791130
1886.503448	-2.999800	3.235100	-9.704200	27.290149	0.000444	20.770895
1887.502574	-3.026200	3.234100	-9.786000	27.263306	0.000444	20.777559
1888.505402	-3.000300	3.234700	-9.703300	27.273701	0.000443	20.788490
1889.509093	-2.992300	3.234800	-9.679200	27.254325	0.000442	20.768050
1890.503329	-3.030300	3.232600	-9.795300	27.272541	0.000440	20.756502
1891.504606	-2.990800	3.232400	-9.666900	27.257678	0.000439	20.780907
1892.511526	-2.991100	3.233700	-9.671900	27.265266	0.000439	20.762461
1893.503097	-3.016200	3.232400	-9.748000	27.306526	0.000441	20.780731
1894.504509	-3.016000	3.231200	-9.744200	27.338503	0.000439	20.770224
1895.505499	-3.000700	3.233900	-9.702700	27.388619	0.000437	20.768481
1896.503011	-2.990800	3.232400	-9.666200	27.392957	0.000438	20.781381
1897.503954	-2.991900	3.231500	-9.667600	27.414242	0.000435	20.775766
1898.507751	-2.978200	3.232500	-9.626000	27.440314	0.000436	20.760744
1899.504282	-2.967000	3.232100	-9.588400	27.389662	0.000435	20.769530
1900.507745	-3.009700	3.228700	-9.714600	27.364531	0.000432	20.755154
1901.508245	-3.001700	3.230000	-9.693700	27.337221	0.000433	20.776521
1902.504836	-2.993600	3.228400	-9.663300	27.338532	0.000433	20.769304
1903.505397	-3.015700	3.229200	-9.737500	27.341192	0.000432	20.785731
1904.509828	-3.008000	3.227500	-9.707500	27.360296	0.000431	20.764171
1905.509105	-2.999400	3.227500	-9.679800	27.344217	0.000430	20.774074
1906.509086	-3.011600	3.226200	-9.715000	27.344513	0.000430	20.759199
1907.505271	-3.017800	3.226600	-9.736100	27.323456	0.000428	20.750345
1908.507024	-2.986300	3.228500	-9.639500	27.318642	0.000427	20.758779
1909.509282	-3.012900	3.225000	-9.715900	27.357693	0.000429	20.754440
1910.508246	-3.007400	3.224800	-9.696100	27.393043	0.000427	20.763449
1911.509907	-3.008400	3.223900	-9.697600	27.400188	0.000426	20.784862
1912.508358	-3.029900	3.223300	-9.764700	27.413185	0.000427	20.747676
1913.511816	-3.017300	3.223600	-9.725500	27.374368	0.000424	20.758413
1914.508685	-2.986500	3.226300	-9.634200	27.334254	0.000423	20.774010
1915.511698	-2.998700	3.222700	-9.662300	27.296492	0.000424	20.772059
1916.513186	-2.979000	3.223100	-9.600900	27.260299	0.000420	20.765525
1917.509779	-3.015500	3.220700	-9.710800	27.252511	0.000420	20.757691
1918.511669	-2.996300	3.221700	-9.652300	27.244943	0.000420	20.762881
1919.511859	-2.992900	3.221000	-9.639000	27.231544	0.000419	20.751774
1920.510350	-2.996000	3.222200	-9.652300	27.219984	0.000419	20.765277
1921.525032	-2.997700	3.221400	-9.656400	27.219288	0.000418	20.757464
1922.512177	-3.020200	3.219800	-9.723300	27.220577	0.000417	20.754019
1923.512979	-3.010800	3.220400	-9.694800	27.240104	0.000416	20.740944
1924.511652	-3.013100	3.219100	-9.698800	27.220256	0.000415	20.748480
1925.513558	-2.996500	3.218700	-9.643500	27.204303	0.000417	20.742391
1926.508687	-2.989700	3.219000	-9.622800	27.181104	0.000414	20.775957
1927.512662	-3.013600	3.217600	-9.696200	27.198496	0.000415	20.756940
1928.510534	-2.991500	3.218300	-9.624900	27.253178	0.000412	20.757414
1929.513722	-2.982100	3.216600	-9.590900	27.322992	0.000413	20.750826
1930.514592	-3.009100	3.215500	-9.673900	27.366009	0.000412	20.761858
1931.510099	-2.986200	3.216600	-9.604600	27.370301	0.000411	20.750054
1932.513984	-3.019300	3.217100	-9.712000	27.355590	0.000410	20.757066
1933.515599	-3.006500	3.215100	-9.665800	27.353158	0.000408	20.747981
1934.514170	-2.973700	3.217000	-9.564600	27.362414	0.000408	20.738325
1935.513270	-3.027700	3.213500	-9.728400	27.375882	0.000408	20.759936
1936.511818	-3.007000	3.215500	-9.668300	27.442613	0.000406	20.754048
1937.512773	-3.022100	3.212300	-9.706800	27.482623	0.000406	20.754946
1938.513603	-3.015800	3.213500	-9.690100	27.525035	0.000405	20.754468
1939.514924	-3.018700	3.211900	-9.695300	27.557306	0.000404	20.760859
1940.526994	-3.011000	3.212900	-9.672800	27.577123	0.000404	20.761358
1941.518393	-3.014000	3.211700	-9.679400	27.623229	0.000403	20.736626
1942.516557	-2.985800	3.212000	-9.588900	27.629876	0.000402	20.746634
1943.513505	-2.996800	3.214200	-9.631700	27.636573	0.000401	20.758589
1944.516091	-2.968200	3.211600	-9.531700	27.590321	0.000402	20.768474
1945.517136	-2.987200	3.213200	-9.598100	27.614479	0.000398	20.746314
1946.511656	-3.005800	3.212000	-9.653400	27.640546	0.000398	20.749310
1947.514225	-2.989700	3.209900	-9.595900	27.663882	0.000399	20.749558
1948.515965	-3.005300	3.209700	-9.644500	27.721868	0.000398	20.753854
1949.515985	-2.991900	3.209100	-9.599800	27.728039	0.000396	20.767652
1950.514416	-2.987600	3.209400	-9.586800	27.767150	0.000396	20.772871
1951.514692	-3.016200	3.206600	-9.671000	27.765462	0.000394	20.755525
1952.522133	-3.012700	3.205900	-9.657200	27.772208	0.000395	20.757572
1953.514474	-3.023500	3.207000	-9.695100	27.812677	0.000394	20.747564
1954.511546	-3.007800	3.206600	-9.642800	27.790883	0.000394	20.767357
1955.513770	-3.002800	3.207100	-9.629500	27.782402	0.000392	20.757400
1956.513519	-2.985200	3.205800	-9.568500	27.768513	0.000392	20.764760
1957.512424	-2.988400	3.206100	-9.579900	27.716388	0.000390	20.750237
1958.513463	-3.021500	3.203400	-9.677300	27.705726	0.000391	20.750887
1959.514870	-3.017000	3.204700	-9.667700	27.686453	0.000389	20.762788
1960.515592	-3.013200	3.202600	-9.649200	27.644470	0.000388	20.772699
1961.515264	-3.006000	3.204200	-9.630600	27.608707	0.000387	20.767059
1962.514520	-3.005800	3.202800	-9.625300	27.611163	0.000387	20.748667
1963.516418	-3.008900	3.202700	-9.635900	27.598240	0.000386	20.733767
1964.516360	-3.023500	3.200600	-9.675900	27.628898	0.000386	20.755133
1965.516886	-3.016500	3.201900	-9.657800	27.676583	0.000383	20.769452
1966.514046	-2.995900	3.201400	-9.590100	27.691790	0.000385	20.772900
1967.515246	-2.991100	3.200500	-9.572600	27.712622	0.000384	20.762095
1968.517162	-2.980400	3.202100	-9.542700	27.744887	0.000383	20.768011
1969.518689	-3.001700	3.199200	-9.602100	27.716913	0.000382	20.769258
1970.518643	-2.985500	3.201000	-9.555100	27.666449	0.000381	20.757831
1971.517292	-2.977000	3.200500	-9.527400	27.616000	0.000379	20.760173
1972.521276	-2.992100	3.199700	-9.572700	27.610274	0.000379	20.768636
1973.517188	-2.987800	3.197600	-9.552700	27.625625	0.000378	20.759426
1974.517292	-3.004600	3.198400	-9.608400	27.633810	0.000378	20.752489
1975.519937	-2.992000	3.199700	-9.573000	27.681795	0.000379	20.737711
1976.519871	-3.004100	3.198100	-9.606300	27.680506	0.000376	20.751588
1977.517150	-2.990500	3.196400	-9.557500	27.706597	0.000376	20.753660
1978.520555	-2.975200	3.196300	-9.506700	27.720461	0.000375	20.751491
1979.520335	-3.001000	3.196000	-9.590900	27.751288	0.000373	20.756908
1980.522366	-2.983800	3.195600	-9.533800	27.770209	0.000375	20.771682
1981.521720	-2.986600	3.195300	-9.542300	27.829470	0.000372	20.754508
1982.521004	-2.994100	3.194500	-9.562900	27.857691	0.000371	20.754936
1983.518494	-2.968900	3.193500	-9.479900	27.876661	0.000370	20.753639
1984.520079	-2.984000	3.195300	-9.534100	27.865825	0.000370	20.762648
1985.519844	-2.982900	3.194300	-9.527700	27.867014	0.000369	20.768112
1986.522266	-3.006300	3.191000	-9.592400	27.792724	0.000369	20.772056
1987.529592	-2.976200	3.192000	-9.499300	27.777401	0.000369	20.755212
1988.524516	-3.001100	3.191900	-9.577500	27.742385	0.000367	20.764071
1989.520413	-3.014100	3.191000	-9.617400	27.729617	0.000366	20.768766
1990.525648	-3.007600	3.190000	-9.592900	27.745384	0.000365	20.791744
1991.524403	-3.000000	3.189700	-9.568000	27.755257	0.000364	20.768015
1992.523264	-3.004600	3.189200	-9.580500	27.785782	0.000364	20.768863
1993.523973	-3.003900	3.189400	-9.578600	27.750863	0.000365	20.765490
1994.523303	-3.015600	3.189000	-9.615400	27.697648	0.000363	20.770734
1995.526514	-3.038200	3.187500	-9.683000	27.705212	0.000361	20.767914
1996.528189	-3.012900	3.187300	-9.602300	27.695785	0.000362	20.780239
1997.524482	-3.000100	3.188400	-9.564300	27.714782	0.000360	20.767113
1998.526856	-3.021200	3.185800	-9.624300	27.774025	0.000360	20.775522
1999.534362	-2.979500	3.188000	-9.497500	27.837754	0.000358	20.774700
2000.525273	-3.024100	3.185700	-9.632500	27.872517	0.000358	20.778867
2001.530295	-2.983600	3.187300	-9.508600	27.878467	0.000357	20.779639
2002.527524	-2.991000	3.184400	-9.522700	27.887810	0.000357	20.779560
2003.529386	-2.965200	3.187100	-9.448900	27.920591	0.000357	20.764663
2004.529607	-2.989000	3.184100	-9.516700	27.956789	0.000355	20.761269
2005.531145	-2.984700	3.184900	-9.504900	27.949673	0.000353	20.780185
2006.530666	-3.002400	3.184500	-9.560300	27.962096	0.000353	20.779413
2007.527226	-3.016600	3.183000	-9.599900	27.913896	0.000353	20.773572
2008.535521	-2.999300	3.183500	-9.547500	27.901201	0.000352	20.764588
2009.528612	-3.016900	3.183700	-9.602300	27.893710	0.000351	20.768428
2010.532233	-3.005600	3.181900	-9.562500	27.928325	0.000351	20.785724
2011.528265	-2.973900	3.182100	-9.462100	27.921904	0.000348	20.785900
2012.530424	-3.001200	3.182500	-9.550700	27.954802	0.000348	20.767329
2013.531261	-3.008700	3.179000	-9.564200	27.907050	0.000347	20.780433
2014.532680	-2.992700	3.179500	-9.514000	27.875708	0.000346	20.789190
2015.532977	-3.010400	3.179100	-9.569400	27.842704	0.000347	20.772570
2016.532262	-3.018300	3.179100	-9.594200	27.840427	0.000346	20.772649
2017.533708	-3.005700	3.176700	-9.547100	27.839331	0.000345	20.772494
2018.533899	-2.999900	3.180000	-9.538000	27.876850	0.000346	20.784176
2019.541892	-2.994700	3.181000	-9.525200	27.867324	0.000343	20.812521
2020.531515	-3.017300	3.175300	-9.579700	27.891971	0.000341	20.783748
2021.533742	-3.023800	3.176600	-9.604700	27.906080	0.000343	20.787042
2022.535525	-2.967700	3.176200	-9.424800	27.877617	0.000338	20.776413
2023.535346	-2.988900	3.176900	-9.493300	27.882574	0.000339	20.791834
2024.534485	-2.993700	3.175600	-9.505600	27.833503	0.000340	20.796026
2025.535993	-2.988000	3.174200	-9.482900	27.865243	0.000338	20.789090
2026.534877	-2.990300	3.173900	-9.489700	27.893706	0.000339	20.782175
2027.537569	-3.026200	3.172700	-9.599600	27.916990	0.000336	20.797549
2028.537654	-3.028200	3.172400	-9.605800	27.921080	0.000336	20.775113
2029.534383	-3.024200	3.171300	-9.589800	27.928096	0.000338	20.779804
2030.535203	-3.016900	3.170900	-9.565600	27.923135	0.000336	20.773388
2031.548658	-3.003300	3.172400	-9.527400	27.898296	0.000333	20.794855
2032.534885	-3.008200	3.172100	-9.541300	27.838064	0.000335	20.770745
2033.535999	-3.007200	3.170900	-9.534000	27.793331	0.000331	20.798271
2034.541048	-3.032100	3.169900	-9.610700	27.761367	0.000330	20.808778
2035.539893	-3.000000	3.169000	-9.505500	27.806173	0.000329	20.803609
2036.545239	-2.996600	3.168700	-9.493600	27.855892	0.000329	20.792481
2037.541056	-2.985200	3.168000	-9.456500	27.915773	0.000329	20.785419
2038.544823	-2.997600	3.167300	-9.493500	27.917657	0.000327	20.798695
2039.540273	-2.989500	3.169400	-9.474500	27.918846	0.000327	20.799417
2040.540867	-2.994800	3.167000	-9.482600	27.929980	0.000328	20.794029
2041.540653	-3.001200	3.166400	-9.501200	27.933596	0.000326	20.804780
2042.544870	-3.005400	3.168400	-9.522100	27.935359	0.000327	20.784743
2043.543750	-3.002900	3.167200	-9.510100	27.934880	0.000325	20.799435
2044.543562	-3.017300	3.163600	-9.544200	27.886215	0.000325	20.806403
2045.547081	-2.982300	3.164200	-9.434700	27.868634	0.000323	20.786812
2046.544049	-2.974700	3.165400	-9.415400	27.859857	0.000324	20.810696
2047.547545	-2.994800	3.162300	-9.469900	27.883067	0.000322	20.811770
2048.547039	-3.011500	3.163800	-9.526700	27.901165	0.000322	20.809123
2049.549159	-3.006900	3.162300	-9.507300	27.840420	0.000320	20.810574
2050.544903	-3.001500	3.160800	-9.486100	27.860303	0.000319	20.809722
2051.543523	-3.054700	3.159900	-9.649700	27.850835	0.000319	20.795451
2052.543913	-3.001300	3.161100	-9.486500	27.866828	0.000319	20.822453
2053.549405	-2.989400	3.161000	-9.448700	27.884801	0.000317	20.785066
2054.547719	-2.986300	3.159600	-9.433800	27.923531	0.000317	20.794650
2055.547040	-2.988900	3.158100	-9.438400	27.904291	0.000315	20.795200
2056.548964	-3.011600	3.158200	-9.510800	27.912004	0.000315	20.805333
2057.553519	-2.990600	3.157400	-9.442100	27.970536	0.000315	20.797391
2058.548528	-2.997900	3.157400	-9.464100	28.014102	0.000314	20.793828
2059.550545	-3.004500	3.155600	-9.479800	28.035545	0.000313	20.795972
2060.549527	-3.042100	3.154900	-9.596100	28.034582	0.000310	20.831986
2061.547018	-3.012900	3.154700	-9.503500	28.040677	0.000312	20.817258
2062.546923	-3.003900	3.153800	-9.472300	28.029522	0.000309	20.816461
2063.553718	-2.988300	3.154800	-9.426800	28.067354	0.000310	20.801913
2064.548280	-2.994300	3.155100	-9.446300	28.096583	0.000309	20.824698
2065.549466	-2.990500	3.153800	-9.429800	28.117403	0.000309	20.822424
2066.554393	-3.007100	3.153000	-9.480200	28.088847	0.000308	20.805531
2067.548649	-2.992700	3.153500	-9.436300	28.074545	0.000307	20.822902
2068.547944	-3.002600	3.153000	-9.466100	28.087359	0.000306	20.808300
2069.554394	-2.940700	3.153200	-9.270100	28.126381	0.000305	20.815815
2070.551876	-2.984700	3.150800	-9.403000	28.118595	0.000305	20.823149
2071.549253	-3.000400	3.149500	-9.448900	28.148789	0.000305	20.833631
2072.552683	-2.955000	3.150100	-9.306400	28.134163	0.000305	20.821278
2073.551735	-3.009600	3.148500	-9.474900	28.110688	0.000303	20.818034
2074.547800	-3.011500	3.147400	-9.477200	28.079730	0.000303	20.815319
2075.569556	-3.004700	3.147100	-9.455600	28.032798	0.000303	20.834457
2076.554837	-3.012200	3.146400	-9.476800	27.988669	0.000299	20.820858
2077.551717	-3.011300	3.147700	-9.477700	27.963902	0.000299	20.825326
2078.558270	-3.006500	3.145700	-9.456800	27.974590	0.000300	20.821386
2079.558091	-2.999400	3.144800	-9.431400	27.993583	0.000301	20.839554
2080.557898	-3.004200	3.145300	-9.447500	28.016514	0.000300	20.813800
2081.557510	-2.997000	3.144800	-9.424800	28.066841	0.000297	20.830319
2082.551439	-2.991300	3.144900	-9.406000	28.094852	0.000297	20.817740
2083.552687	-3.010200	3.141700	-9.455100	28.084839	0.000296	20.811928
2084.566887	-3.016400	3.141000	-9.473500	28.099241	0.000296	20.823106
2085.552696	-2.989300	3.143500	-9.396200	28.106356	0.000295	20.844493
2086.556046	-3.009100	3.141800	-9.451700	28.149613	0.000295	20.814072
2087.553698	-2.983600	3.141900	-9.372600	28.170711	0.000294	20.841002
2088.556270	-2.998100	3.140700	-9.415300	28.181569	0.000293	20.846716
2089.555971	-3.007100	3.138500	-9.436900	28.158737	0.000293	20.833688
2090.557925	-3.003900	3.139300	-9.428100	28.128965	0.000290	20.832639
2091.556201	-3.015300	3.138600	-9.461600	28.170858	0.000290	20.832614
2092.556641	-3.017700	3.138400	-9.470100	28.212924	0.000289	20.824231
2093.552931	-2.988800	3.137800	-9.377500	28.251339	0.000287	20.831138
2094.553782	-3.001000	3.136000	-9.409000	28.233892	0.000290	20.846763
2095.557692	-2.996800	3.134900	-9.392700	28.232529	0.000287	20.849184
2096.558119	-2.986700	3.135500	-9.363700	28.230171	0.000288	20.848232
2097.555289	-2.986500	3.135800	-9.364500	28.212824	0.000286	20.834087
2098.558418	-3.001600	3.134800	-9.408300	28.229083	0.000285	20.844766
2099.556512	-3.009600	3.133500	-9.428700	28.251960	0.000285	20.830341
2100.558583	-2.994500	3.133600	-9.382500	28.271864	0.000286	20.843268
2101.560375	-2.989500	3.133600	-9.367500	28.245641	0.000285	20.852427
2102.555822	-2.998600	3.131300	-9.386600	28.250347	0.000283	20.840570
2103.559590	-2.975400	3.131100	-9.314600	28.241303	0.000282	20.857068
2104.555948	-2.976700	3.131800	-9.321500	28.286217	0.000281	20.847287
2105.556556	-3.000900	3.129200	-9.389400	28.316306	0.000283	20.859090
2106.560215	-3.019900	3.129300	-9.448500	28.352070	0.000280	20.841048
2107.557451	-3.006100	3.127900	-9.402500	28.348424	0.000280	20.862980
2108.556725	-3.001800	3.127000	-9.386000	28.324087	0.000279	20.838951
2109.558301	-2.999800	3.126800	-9.377300	28.282100	0.000277	20.831763
2110.562715	-3.006000	3.126600	-9.397400	28.311993	0.000278	20.848584
2111.559676	-2.996300	3.126800	-9.368000	28.316177	0.000279	20.867969
2112.558890	-2.977500	3.125400	-9.304500	28.286934	0.000275	20.848009
2113.561064	-2.982600	3.125600	-9.321600	28.228437	0.000275	20.851228
2114.557416	-2.972400	3.125500	-9.288900	28.172342	0.000274	20.853548
2115.563379	-2.981800	3.122700	-9.310400	28.141182	0.000274	20.845412
2116.563401	-2.989200	3.122000	-9.331900	28.076557	0.000272	20.879453
2117.562375	-3.027800	3.121900	-9.451900	28.035974	0.000273	20.875110
2118.562438	-2.996000	3.121000	-9.349100	28.023056	0.000272	20.862582
2119.562299	-2.977100	3.122000	-9.293500	28.116690	0.000272	20.869593
2120.565302	-2.977300	3.120800	-9.291400	28.112626	0.000270	20.860761
2121.567620	-2.991900	3.119900	-9.332900	28.072090	0.000271	20.882541
2122.565930	-2.993100	3.119100	-9.334500	28.064382	0.000271	20.877628
2123.566482	-2.969300	3.120200	-9.263500	28.051093	0.000269	20.852399
2124.566794	-2.990100	3.118800	-9.323700	28.121175	0.000268	20.866048
2125.565051	-2.980900	3.117900	-9.293500	28.138431	0.000268	20.848807
2126.567658	-2.986600	3.116600	-9.306900	28.154887	0.000267	20.887182
2127.568559	-2.988600	3.113900	-9.304500	28.156257	0.000267	20.884294
2128.564957	-2.996500	3.114000	-9.330000	28.131687	0.000266	20.865725
2129.562796	-3.010900	3.112600	-9.370300	28.115473	0.000263	20.884962
2130.567717	-3.007700	3.113700	-9.364500	28.119862	0.000265	20.855243
2131.567300	-3.012400	3.114200	-9.379200	28.117682	0.000264	20.877703
2132.568106	-2.985000	3.112100	-9.288000	28.129457	0.000262	20.868695
2133.567590	-2.991100	3.111200	-9.304400	28.176706	0.000264	20.862208
2134.565160	-3.000700	3.110300	-9.332100	28.177177	0.000262	20.870268
2135.575624	-3.002300	3.109900	-9.336000	28.127694	0.000261	20.874507
2136.568247	-3.028100	3.108400	-9.411600	28.124843	0.000261	20.864999
2137.569607	-3.015100	3.106800	-9.365800	28.122171	0.000263	20.890282
2138.571930	-3.021100	3.106100	-9.381400	28.129336	0.000261	20.894175
2139.574218	-3.033800	3.104900	-9.418300	28.132286	0.000260	20.877707
2140.572348	-3.018900	3.104100	-9.370100	28.150181	0.000260	20.893823
2141.573504	-2.993600	3.105800	-9.296000	28.194874	0.000259	20.877653
2142.580331	-2.983300	3.105500	-9.262400	28.200229	0.000258	20.872614
2143.572122	-2.999900	3.103600	-9.309800	28.187538	0.000258	20.884018
2144.572537	-2.993100	3.101900	-9.283700	28.176927	0.000257	20.869069
2145.572658	-2.997000	3.101700	-9.293500	28.198071	0.000256	20.895095
2146.574758	-2.995300	3.100400	-9.286200	28.233789	0.000256	20.877951
2147.571300	-2.975300	3.101100	-9.226200	28.315039	0.000255	20.893848
2148.575677	-2.988000	3.100000	-9.262200	28.361859	0.000256	20.880774
2149.575894	-3.013700	3.098600	-9.337100	28.395463	0.000252	20.887110
2150.576252	-2.994100	3.098300	-9.275000	28.424733	0.000253	20.898564
2151.574842	-3.004600	3.098900	-9.309000	28.417199	0.000252	20.883393
2152.577035	-3.009900	3.097900	-9.323500	28.420616	0.000252	20.898212
2153.575773	-3.020200	3.096000	-9.348300	28.408052	0.000253	20.891252
2154.577355	-3.014800	3.095100	-9.330100	28.410210	0.000251	20.891528
2155.575094	-3.035900	3.093300	-9.390000	28.435017	0.000251	20.900860
2156.576202	-2.990200	3.094900	-9.252800	28.431275	0.000252	20.887135
2157.577365	-3.013500	3.092200	-9.317600	28.479894	0.000250	20.875879
2158.577232	-3.031200	3.091300	-9.370200	28.505144	0.000250	20.901779
2159.578079	-3.040600	3.089600	-9.392800	28.531290	0.000248	20.888755
2160.578135	-3.017600	3.089700	-9.322200	28.549773	0.000249	20.903575
2161.580261	-3.015800	3.089500	-9.316100	28.576188	0.000249	20.877075
2162.580946	-2.988900	3.089300	-9.232400	28.581641	0.000249	20.900583
2163.580780	-3.020200	3.086900	-9.322200	28.533990	0.000248	20.888630
2164.578348	-3.014300	3.086300	-9.302600	28.488886	0.000246	20.916225
2165.584527	-2.961100	3.088900	-9.145100	28.401999	0.000247	20.906965
2166.579123	-2.988900	3.087100	-9.226200	28.349658	0.000245	20.899308
2167.581913	-2.989500	3.084800	-9.221200	28.341632	0.000246	20.907346
2168.582846	-3.003400	3.084000	-9.261500	28.355509	0.000245	20.908043
2169.582065	-2.996900	3.084300	-9.242700	28.395931	0.000244	20.901330
2170.582601	-2.982200	3.084700	-9.197600	28.441730	0.000246	20.897189
2171.582587	-2.998700	3.082400	-9.242100	28.459298	0.000245	20.914878
2172.583491	-2.986000	3.082000	-9.201700	28.476669	0.000244	20.895863
2173.581799	-2.993400	3.081500	-9.223500	28.493723	0.000242	20.908294
2174.587369	-2.980700	3.081900	-9.185600	28.488094	0.000241	20.921591
2175.585282	-2.998100	3.077800	-9.225900	28.521598	0.000240	20.932571
2176.585680	-2.982000	3.078000	-9.177400	28.521203	0.000241	20.921742
2177.585514	-2.986400	3.078200	-9.191700	28.553814	0.000241	20.909541
2178.580689	-2.963700	3.078400	-9.122200	28.608352	0.000241	20.907569
2179.586758	-3.004700	3.075300	-9.239400	28.659787	0.000240	20.918121
2180.586250	-3.017100	3.074200	-9.273800	28.666728	0.000241	20.936015
2181.586189	-3.012400	3.073300	-9.255800	28.701588	0.000240	20.921817
2182.585750	-3.011500	3.073000	-9.253800	28.691703	0.000239	20.922291
2183.592555	-3.005500	3.071100	-9.229300	28.675997	0.000240	20.906948
2184.582491	-2.981400	3.072500	-9.158600	28.629141	0.000239	20.918075
2185.587122	-3.007300	3.069500	-9.230000	28.588404	0.000239	20.929676
2186.592186	-2.987200	3.068300	-9.164900	28.612043	0.000239	20.927880
2187.583678	-2.999500	3.068800	-9.203500	28.647426	0.000236	20.915155
2188.590719	-3.010400	3.067700	-9.234100	28.681792	0.000238	20.927007
2189.591768	-2.998800	3.067300	-9.196500	28.692719	0.000235	20.907669
2190.582471	-2.993400	3.066000	-9.176900	28.740438	0.000237	20.928706
2191.589271	-3.025100	3.063800	-9.266300	28.703325	0.000236	20.922144
2192.592410	-2.986200	3.064300	-9.149000	28.715390	0.000234	20.915805
2193.584867	-2.998100	3.062800	-9.181200	28.674310	0.000234	20.935591
2194.585746	-2.986500	3.062900	-9.146500	28.666082	0.000236	20.913082
2195.589434	-3.001500	3.061500	-9.187700	28.640443	0.000234	20.928983
2196.591580	-3.012800	3.058500	-9.214200	28.634840	0.000234	20.920021
2197.587923	-2.991000	3.059600	-9.148500	28.619105	0.000234	20.912235
2198.587251	-3.007900	3.059000	-9.200900	28.615289	0.000234	20.912658
2199.593396	-2.977800	3.058700	-9.107100	28.630703	0.000233	20.907795
2200.591970	-3.021800	3.055000	-9.230700	28.669581	0.000234	20.905701
2201.594110	-2.996000	3.055700	-9.153100	28.693561	0.000232	20.908991
2202.594992	-3.000500	3.054100	-9.162700	28.763850	0.000231	20.907246
2203.589537	-3.018500	3.052600	-9.213300	28.770860	0.000232	20.922841
2204.590903	-2.978100	3.053800	-9.093800	28.770540	0.000231	20.900709
2205.594162	-2.989700	3.052500	-9.125300	28.791226	0.000229	20.908743
2206.595974	-2.965500	3.052700	-9.051400	28.733645	0.000229	20.911908
2207.595506	-2.995200	3.048700	-9.130300	28.665190	0.000231	20.914555
2208.598595	-2.963500	3.048600	-9.033300	28.659120	0.000228	20.909390
2209.590250	-2.984500	3.048500	-9.096600	28.680604	0.000227	20.913959
2210.594512	-2.996500	3.047100	-9.130000	28.735499	0.000229	20.881062
2211.595444	-3.006200	3.046000	-9.155400	28.761713	0.000227	20.891819
2212.597968	-2.995900	3.043400	-9.116700	28.762926	0.000230	20.897781
2213.590615	-3.004100	3.042700	-9.139900	28.779105	0.000227	20.905543
2214.594356	-3.008500	3.042300	-9.151500	28.793223	0.000227	20.886101
2215.599183	-3.013800	3.042800	-9.169200	28.789707	0.000228	20.895835
2216.595644	-3.047400	3.039300	-9.259400	28.793419	0.000225	20.894832
2217.599041	-2.966500	3.041300	-9.021600	28.763867	0.000228	20.902522
2218.593812	-3.008200	3.039000	-9.140200	28.732300	0.000228	20.897278
2219.597295	-3.035100	3.036200	-9.213300	28.733167	0.000225	20.892462
2220.595866	-2.978500	3.037600	-9.046500	28.770129	0.000225	20.896977
2221.596941	-2.998400	3.035900	-9.101700	28.779372	0.000227	20.887322
2222.600125	-2.985800	3.033200	-9.055900	28.840784	0.000226	20.889915
2223.598218	-2.993600	3.033800	-9.080800	28.809027	0.000226	20.906287
2224.595011	-2.950700	3.035100	-8.955100	28.785242	0.000224	20.883278
2225.598119	-2.987600	3.030600	-9.053500	28.751304	0.000224	20.904566
2226.602130	-2.993700	3.030300	-9.070900	28.691317	0.000225	20.879233
2227.599485	-3.000100	3.029600	-9.085900	28.609232	0.000225	20.886173
2228.603863	-3.010200	3.026500	-9.108700	28.573819	0.000225	20.881327
2229.596611	-3.024200	3.026200	-9.150000	28.591064	0.000224	20.877358
2230.599328	-3.008200	3.025800	-9.100300	28.630714	0.000224	20.874618
2231.604069	-3.005400	3.023700	-9.086000	28.644933	0.000222	20.891783
2232.600934	-2.999400	3.022200	-9.063600	28.690650	0.000223	20.891837
2233.599576	-2.992300	3.022600	-9.043700	28.727072	0.000224	20.871626
2234.599570	-3.011700	3.020800	-9.096400	28.747802	0.000225	20.849360
2235.598876	-3.021400	3.019500	-9.122300	28.827851	0.000222	20.885422
2236.604405	-3.000100	3.018300	-9.054400	28.792395	0.000222	20.870096
2237.603110	-3.019400	3.016400	-9.107300	28.822003	0.000223	20.872894
2238.602416	-3.018300	3.016700	-9.103600	28.849477	0.000223	20.877337
2239.603965	-2.987700	3.015600	-9.008900	28.856855	0.000223	20.874338
2240.600676	-2.988700	3.013600	-9.005700	28.779390	0.000222	20.860315
2241.604638	-2.999700	3.011600	-9.032700	28.767351	0.000222	20.869999
2242.604548	-2.990000	3.011100	-9.002100	28.764598	0.000221	20.895673
2243.603689	-2.985000	3.010500	-8.985300	28.799384	0.000223	20.853429
2244.604034	-2.995300	3.008200	-9.009800	28.815385	0.000223	20.857219
2245.604682	-3.017700	3.006800	-9.072400	28.767922	0.000221	20.870573
2246.605653	-2.998000	3.006700	-9.012400	28.801563	0.000219	20.887390
2247.607133	-2.977800	3.006000	-8.950400	28.786647	0.000220	20.856245
2248.607080	-3.008900	3.003900	-9.037000	28.772226	0.000220	20.877753
2249.607225	-2.991300	3.003600	-8.983600	28.742446	0.000220	20.865775
2250.607403	-2.985800	3.001900	-8.961500	28.730107	0.000220	20.861407
2251.606227	-2.989400	3.000700	-8.968000	28.726216	0.000219	20.873608
2252.609978	-2.976000	2.998900	-8.923800	28.753543	0.000220	20.872211
2253.611599	-2.978300	2.998500	-8.929300	28.789289	0.000219	20.859381
2254.614594	-2.977100	2.997600	-8.923700	28.805418	0.000220	20.841016
2255.605151	-3.000400	2.994600	-8.984400	28.789614	0.000217	20.861604
2256.608943	-3.000200	2.994600	-8.983300	28.784286	0.000219	20.844859
2257.607166	-2.986600	2.992900	-8.937500	28.798778	0.000219	20.857560
2258.611571	-3.004000	2.990300	-8.981900	28.805218	0.000219	20.853616
2259.613993	-3.019900	2.989900	-9.028600	28.849759	0.000220	20.853440
2260.611571	-3.000200	2.988800	-8.965700	28.904556	0.000218	20.869761
2261.609067	-3.009700	2.986100	-8.985700	28.917285	0.000218	20.855559
2262.607675	-2.982900	2.987100	-8.909900	28.948397	0.000219	20.855610
2263.611064	-3.000900	2.984200	-8.954500	28.975323	0.000219	20.864719
2264.608904	-3.008100	2.983200	-8.972100	28.981862	0.000220	20.850444
2265.610219	-3.005800	2.981800	-8.961400	29.009478	0.000218	20.868784
2266.606430	-3.025100	2.980000	-9.013700	29.040192	0.000218	20.844255
2267.611146	-2.977800	2.978600	-8.867600	29.046898	0.000217	20.860494
2268.612747	-2.982100	2.976800	-8.876000	29.049875	0.000217	20.857804
2269.611812	-2.991100	2.976100	-8.900700	29.031568	0.000218	20.861644
2270.608921	-3.016800	2.974000	-8.970900	28.997064	0.000217	20.855329
2271.611336	-2.988000	2.973400	-8.883000	28.981363	0.000217	20.842355
2272.611813	-3.003300	2.972300	-8.926300	28.978464	0.000216	20.849866
2273.608376	-3.004100	2.969900	-8.921200	28.948543	0.000219	20.845800
2274.612566	-2.994800	2.969300	-8.891800	28.930460	0.000215	20.846073
2275.609338	-2.976100	2.967900	-8.831100	28.912825	0.000216	20.850592
2276.609004	-3.004000	2.965600	-8.907600	28.858602	0.000214	20.850021
2277.608860	-3.004800	2.963600	-8.903900	28.874505	0.000217	20.844230
2278.610565	-2.964100	2.964100	-8.784800	28.884114	0.000217	20.843480
2279.610527	-3.030400	2.960400	-8.969800	28.886864	0.000214	20.853835
2280.615704	-2.981900	2.961400	-8.829700	28.925086	0.000216	20.833548
2281.624111	-3.009100	2.958500	-8.901500	28.947406	0.000215	20.852240
2282.611154	-2.991200	2.958200	-8.847000	28.908717	0.000216	20.850721
2283.611144	-2.977800	2.956800	-8.803100	28.878866	0.000214	20.862373
2284.608967	-3.019300	2.953600	-8.916000	28.844211	0.000215	20.847851
2285.617337	-2.998900	2.952600	-8.853200	28.807122	0.000214	20.855534
2286.610669	-3.010200	2.950000	-8.879200	28.762084	0.000214	20.844306
2287.610662	-2.988200	2.950800	-8.817100	28.711720	0.000216	20.853318
2288.611911	-3.007600	2.947000	-8.862800	28.655846	0.000216	20.843034
2289.613039	-3.024900	2.946200	-8.910400	28.641252	0.000215	20.834500
2290.619725	-3.029600	2.945000	-8.920900	28.701759	0.000215	20.833329
2291.620649	-3.027500	2.941400	-8.903200	28.685454	0.000215	20.862897
2292.616935	-3.026800	2.942200	-8.904200	28.673115	0.000214	20.825340
2293.620434	-3.006700	2.940300	-8.839600	28.688650	0.000215	20.851892
2294.615838	-2.997600	2.937200	-8.803100	28.733045	0.000216	20.834496
2295.613503	-2.989900	2.937600	-8.783000	28.806948	0.000217	20.831651
2296.620894	-3.020200	2.935200	-8.863800	28.828132	0.000216	20.842560
2297.616899	-3.020100	2.932800	-8.855600	28.838017	0.000214	20.847776
2298.616948	-3.014000	2.931500	-8.834400	28.798971	0.000214	20.840211
2299.617846	-3.017800	2.929200	-8.838400	28.753062	0.000214	20.853235
2300.616267	-2.999600	2.928100	-8.782200	28.720657	0.000214	20.835294
2301.624186	-3.000500	2.927300	-8.782400	28.683022	0.000215	20.846224
2302.619035	-3.022800	2.924900	-8.840800	28.634458	0.000214	20.849941
2303.616996	-3.010500	2.923900	-8.799500	28.679652	0.000216	20.827657
2304.613779	-3.004300	2.922000	-8.777000	28.696453	0.000218	20.814708
2305.617290	-3.002500	2.921700	-8.771500	28.741911	0.000216	20.824934
2306.621852	-3.021600	2.917700	-8.815500	28.834565	0.000215	20.842402
2307.620170	-2.989200	2.917500	-8.719600	28.883366	0.000216	20.821863
2308.617565	-3.000000	2.914400	-8.741500	28.861273	0.000215	20.855556
2309.617323	-3.010500	2.913600	-8.770300	28.855075	0.000216	20.832718
2310.623712	-2.993600	2.911000	-8.713500	28.914554	0.000216	20.847592
2311.617795	-3.016400	2.909700	-8.775900	28.956641	0.000217	20.832621
2312.617143	-2.982300	2.910200	-8.678100	28.959293	0.000214	20.830078
2313.618889	-2.987500	2.908400	-8.687300	28.972396	0.000215	20.839960
2314.624227	-3.025100	2.903900	-8.782500	28.980101	0.000215	20.826386
2315.614645	-3.000100	2.904000	-8.711300	28.897814	0.000216	20.846849
2316.620893	-3.028000	2.901400	-8.784900	28.882357	0.000215	20.841709
2317.621153	-3.001200	2.899200	-8.700800	28.908738	0.000215	20.838889
2318.625110	-2.988400	2.899000	-8.661700	28.957043	0.000214	20.815484
2319.620636	-2.991200	2.897200	-8.665000	28.993278	0.000213	20.819273
2320.619819	-3.000700	2.893700	-8.681600	28.981441	0.000215	20.823469
2321.620462	-3.001300	2.892100	-8.679300	28.950501	0.000214	20.815056
2322.618252	-2.986000	2.890900	-8.630900	28.951966	0.000215	20.840240
2323.625206	-2.981700	2.889700	-8.614500	29.013568	0.000214	20.836396
2324.626087	-3.011100	2.887400	-8.692900	29.012231	0.000214	20.815610
2325.627790	-2.972400	2.887000	-8.579600	28.951642	0.000213	20.832327
2326.621924	-3.015700	2.882400	-8.690300	28.967226	0.000212	20.826217
2327.622571	-2.972200	2.882300	-8.564800	28.975794	0.000214	20.826314
2328.625258	-3.005700	2.879700	-8.654500	29.025803	0.000214	20.813638
2329.622093	-3.015100	2.877200	-8.674100	29.089332	0.000213	20.812689
2330.617752	-2.986900	2.877500	-8.593100	29.142727	0.000213	20.835671
2331.620606	-2.978900	2.875200	-8.563800	29.168115	0.000214	20.834227
2332.623610	-3.020600	2.870700	-8.670200	29.145454	0.000214	20.828462
2333.625831	-3.022500	2.869300	-8.671300	29.063201	0.000214	20.819076
2334.628451	-3.005100	2.866800	-8.614700	28.992661	0.000213	20.820074
2335.626229	-3.008500	2.864400	-8.615900	28.933362	0.000213	20.817704
2336.620898	-3.012200	2.864000	-8.626500	28.901083	0.000213	20.804151
2337.624527	-2.996800	2.860800	-8.572400	28.865216	0.000212	20.829658
2338.625758	-2.983300	2.859500	-8.528800	28.825059	0.000213	20.823343
2339.620158	-2.995400	2.857100	-8.558200	28.780339	0.000213	20.838038
2340.624056	-3.008100	2.856700	-8.591600	28.744885	0.000211	20.824137
2341.622834	-3.016800	2.853400	-8.607100	28.716666	0.000213	20.812308
2342.621430	-2.976900	2.852900	-8.491800	28.736858	0.000214	20.840233
2343.624317	-3.000300	2.849000	-8.547600	28.715700	0.000212	20.833146
2344.623076	-2.980200	2.848300	-8.487800	28.704869	0.000214	20.804693
2345.629823	-3.018200	2.844800	-8.585200	28.724890	0.000214	20.797358
2346.622205	-3.021700	2.842000	-8.586100	28.747659	0.000213	20.815552
2347.625032	-2.996700	2.840800	-8.511800	28.698204	0.000213	20.802721
2348.621332	-3.007400	2.838300	-8.534300	28.697879	0.000212	20.820886
2349.621915	-2.991200	2.836400	-8.481600	28.713934	0.000214	20.804815
2350.625642	-2.987500	2.834900	-8.467300	28.776045	0.000212	20.825653
2351.635826	-2.990900	2.831700	-8.468600	28.880563	0.000212	20.805764
2352.626669	-3.000000	2.830500	-8.490200	28.911402	0.000212	20.814546
2353.623366	-3.028700	2.826000	-8.557700	29.002130	0.000213	20.805907
2354.625544	-2.990900	2.825200	-8.449000	29.066877	0.000210	20.819934
2355.626913	-3.010700	2.822300	-8.496100	29.024595	0.000210	20.806730
2356.626771	-3.004600	2.820700	-8.474300	28.975751	0.000211	20.809201
2357.628000	-3.011400	2.818400	-8.486100	28.932132	0.000211	20.795128
2358.622625	-3.024700	2.814700	-8.512800	28.911398	0.000211	20.795103
2359.624048	-3.022100	2.813500	-8.501000	28.882218	0.000212	20.802689
2360.629878	-2.985100	2.812000	-8.393700	28.914518	0.000213	20.803461
2361.622476	-2.991300	2.810800	-8.407000	28.964035	0.000211	20.810674
2362.629053	-3.007700	2.806200	-8.438700	29.024320	0.000212	20.802660
2363.625818	-3.017200	2.804400	-8.460100	29.004483	0.000211	20.811123
2364.626427	-3.001900	2.801700	-8.410000	29.007058	0.000211	20.815139
2365.630675	-3.031100	2.799300	-8.483900	29.021347	0.000212	20.796345
2366.629599	-2.992600	2.797700	-8.371800	29.024987	0.000213	20.796220
2367.626286	-3.003700	2.794200	-8.392700	29.060057	0.000211	20.804528
2368.630124	-2.996200	2.792300	-8.365100	29.060035	0.000215	20.789808
2369.623674	-3.018200	2.789000	-8.416900	29.003239	0.000211	20.786636
2370.629938	-2.952700	2.788900	-8.233500	28.962124	0.000211	20.800214
2371.631264	-2.983200	2.783800	-8.302000	28.968488	0.000211	20.801410
2372.626100	-3.012500	2.780800	-8.375700	29.005318	0.000211	20.803903
2373.635613	-3.012700	2.778800	-8.370700	29.035636	0.000211	20.803630
2374.625533	-3.009300	2.775500	-8.351600	29.115634	0.000211	20.799837
2375.630936	-3.023600	2.772800	-8.381900	29.074199	0.000210	20.799338
2376.636093	-2.989100	2.770200	-8.278300	29.070805	0.000212	20.803979
2377.634210	-2.991100	2.768500	-8.280000	29.056413	0.000211	20.807021
2378.629416	-3.001800	2.764400	-8.297500	29.032142	0.000211	20.799636
2379.631077	-2.991000	2.763300	-8.264400	29.048214	0.000210	20.779793
2380.631112	-2.983400	2.759600	-8.231800	29.100027	0.000212	20.788852
2381.630031	-3.016200	2.755200	-8.309700	29.141982	0.000211	20.808842
2382.632427	-2.977400	2.754100	-8.198900	29.158651	0.000211	20.788181
2383.632025	-3.013700	2.750100	-8.286900	29.224496	0.000210	20.764444
2384.634535	-2.973800	2.749200	-8.174200	29.260999	0.000211	20.788903
2385.632849	-3.001500	2.744700	-8.236900	29.228606	0.000212	20.795613
2386.632822	-2.983700	2.740700	-8.176600	29.232345	0.000211	20.792269
2387.636058	-2.982000	2.737100	-8.160500	29.241384	0.000210	20.779093
2388.636503	-2.996800	2.733800	-8.191700	29.249878	0.000212	20.791920
2389.638675	-3.019000	2.730300	-8.241500	29.290269	0.000210	20.777623
2390.638963	-2.994500	2.726900	-8.164700	29.359029	0.000211	20.781963
2391.634833	-2.992000	2.724600	-8.150400	29.372127	0.000210	20.777146
2392.638691	-2.993000	2.721700	-8.145400	29.383713	0.000210	20.794039
2393.637187	-2.988000	2.719100	-8.123600	29.342438	0.000211	20.784208
2394.639052	-2.979100	2.714500	-8.085300	29.289300	0.000211	20.785655
2395.633147	-2.989900	2.712200	-8.108500	29.225412	0.000211	20.775325
2396.642360	-3.016300	2.706800	-8.163700	29.139501	0.000211	20.783109
2397.634424	-3.027400	2.702600	-8.180300	29.149903	0.000208	20.775572
2398.650422	-2.989800	2.700300	-8.071500	29.118276	0.000210	20.786378
2399.634487	-2.976800	2.697400	-8.027200	29.097425	0.000210	20.780540
2400.642275	-2.987900	2.695400	-8.052300	29.140442	0.000211	20.773151
2401.637684	-3.019000	2.688600	-8.115400	29.188462	0.000210	20.785030
2402.636517	-2.989200	2.686200	-8.028400	29.229148	0.000209	20.782408
2403.641172	-3.036400	2.680300	-8.136500	29.297740	0.000209	20.775669
2404.637062	-2.983200	2.677500	-7.985900	29.390994	0.000209	20.756333
2405.640263	-3.032500	2.671900	-8.101700	29.383763	0.000210	20.769908
2406.639559	-2.979700	2.671500	-7.958300	29.379950	0.000208	20.760848
2407.641201	-3.007200	2.665400	-8.014400	29.379130	0.000212	20.782782
2408.637492	-3.021800	2.660500	-8.038500	29.405403	0.000209	20.770856
2409.638360	-2.982600	2.659000	-7.929200	29.430535	0.000209	20.773428
2410.637670	-2.992500	2.653500	-7.940100	29.482352	0.000211	20.779190
2411.639800	-2.996600	2.648900	-7.936600	29.516220	0.000209	20.765439
2412.639818	-2.997800	2.645500	-7.930400	29.560388	0.000210	20.767289
2413.642390	-2.989900	2.642200	-7.898900	29.571100	0.000210	20.775242
2414.644459	-2.979700	2.636400	-7.854800	29.557217	0.000211	20.760773
2415.642652	-2.998800	2.633100	-7.894600	29.582987	0.000210	20.768259
2416.645084	-2.957200	2.629100	-7.773700	29.596381	0.000209	20.773227
2417.644175	-2.972000	2.623000	-7.794400	29.538153	0.000209	20.772375
2418.642552	-2.999000	2.618100	-7.850700	29.506712	0.000212	20.777192
2419.645643	-3.009700	2.613300	-7.864200	29.474629	0.000211	20.780889
2420.645131	-2.988200	2.608200	-7.792900	29.509385	0.000210	20.768981
2421.643223	-2.993300	2.603400	-7.792100	29.508743	0.000212	20.768808
2422.640251	-3.018200	2.598100	-7.840100	29.502208	0.000211	20.768859
2423.640003	-2.992000	2.593300	-7.758400	29.500376	0.000212	20.771280
2424.643064	-3.002000	2.587100	-7.765400	29.444420	0.000210	20.770353
2425.644674	-2.976100	2.582100	-7.683400	29.378264	0.000209	20.779538
2426.643528	-3.046000	2.576000	-7.845300	29.329190	0.000210	20.759950
2427.643435	-2.986800	2.570700	-7.677300	29.300688	0.000211	20.753509
2428.642551	-3.005800	2.564900	-7.708200	29.372718	0.000211	20.785329
2429.641895	-3.018700	2.559300	-7.724400	29.416815	0.000208	20.767659
2430.648630	-3.015300	2.554000	-7.699900	29.445535	0.000209	20.748717
2431.643008	-3.009700	2.548200	-7.668500	29.427485	0.000211	20.761344
2432.644208	-3.007400	2.542900	-7.646000	29.479059	0.000209	20.763542
2433.640636	-2.996800	2.535100	-7.594300	29.456109	0.000208	20.764591
2434.642250	-2.988900	2.529900	-7.561000	29.449127	0.000209	20.737639
2435.647534	-2.977300	2.523500	-7.511300	29.468984	0.000209	20.751965
2436.647171	-2.995200	2.519000	-7.543700	29.494015	0.000209	20.771980
2437.645711	-3.008300	2.510800	-7.551900	29.537711	0.000211	20.767188
2438.646850	-2.994100	2.503400	-7.494300	29.517905	0.000212	20.746275
2439.644365	-3.051400	2.497200	-7.618700	29.556052	0.000210	20.751063
