LabVIEW Measurement	
Writer_Version	2
Reader_Version	2
Separator	Tab
Decimal_Separator	.
Multi_Headings	No
X_Columns	One
Time_Pref	Absolute
Operator	admin
Description	Clolumns are: time, Current, Voltage, Power, Battery Temp, and Chamber Temp
Date	2024/08/16
Time	13:06:06.104549407958984375
***End_of_Header***	
	
Channels	6						
Samples	1	1	1	1	1	1	
Date	2024/09/01	2024/09/01	2024/09/01	2024/09/01	2024/09/01	2024/09/01	
Time	23:30:29.2376418113708496094	23:30:29.24578094482421875	23:30:29.2547497749328613281	23:30:29.2171182632446289063	23:30:29.2171182632446289063	23:30:29.2171182632446289063	
X_Dimension	Time	Time	Time	Time	Time	Time	
X0	0.0000000000000000E+0	0.0000000000000000E+0	0.0000000000000000E+0	0.0000000000000000E+0	0.0000000000000000E+0	0.0000000000000000E+0	
Delta_X	1.000000	1.000000	1.000000	1.000000	1.000000	1.000000	
***End_of_Header***							
X_Value	Untitled	Untitled 1	Untitled 2	Untitled 3	Untitled 4	Untitled 5	Comment
0.000000	0.031012	4.099600	0.127000	21.030076	0.000942	20.862721
0.995060	-3.013600	3.933300	-11.852000	21.041855	0.000943	20.857908
1.996119	-3.010600	3.926400	-11.820000	21.035245	0.000940	20.878322
2.996478	-2.979500	3.922200	-11.685000	21.012016	0.000939	20.876425
3.995676	-2.983900	3.918900	-11.693000	21.045753	0.000938	20.846634
4.995805	-2.982900	3.917000	-11.683000	21.026391	0.000937	20.839123
5.995659	-2.988300	3.912900	-11.692000	21.007930	0.000937	20.840572
6.994855	-2.997800	3.910300	-11.721000	21.028416	0.000935	20.869121
7.996475	-3.015100	3.906100	-11.776000	21.048977	0.000932	20.860290
8.995193	-3.009600	3.906000	-11.755000	21.030539	0.000934	20.863185
9.995604	-2.985600	3.905600	-11.660000	21.055267	0.000935	20.867054
10.996363	-2.991500	3.903300	-11.676000	21.046660	0.000933	20.851335
11.995236	-2.992700	3.901700	-11.676000	21.062032	0.000930	20.848692
12.996472	-3.004200	3.898600	-11.711000	21.046365	0.000931	20.842505
13.997317	-3.004200	3.898100	-11.710000	21.064779	0.000932	20.850492
14.998267	-2.991900	3.897800	-11.660000	21.058668	0.000930	20.846750
15.997923	-2.997900	3.896800	-11.681000	21.059917	0.000928	20.851792
16.999332	-3.006100	3.894600	-11.707000	21.078081	0.000930	20.835348
17.998630	-3.001500	3.894800	-11.690000	21.075662	0.000928	20.843834
18.999012	-2.999600	3.892500	-11.675000	21.080131	0.000928	20.853518
19.999509	-3.002900	3.891800	-11.686000	21.062342	0.000927	20.850899
21.002401	-3.012500	3.892000	-11.724000	21.079209	0.000927	20.836950
21.999062	-2.997600	3.890300	-11.661000	21.088293	0.000927	20.854570
23.002500	-2.992200	3.889800	-11.638000	21.078064	0.000923	20.841969
24.001528	-2.996500	3.887500	-11.648000	21.080336	0.000922	20.831913
25.005467	-2.998200	3.888400	-11.656000	21.103689	0.000925	20.833935
26.001066	-2.999300	3.886300	-11.655000	21.113171	0.000924	20.851954
27.001009	-3.006700	3.886700	-11.685000	21.100374	0.000923	20.834413
28.002944	-2.994700	3.885600	-11.635000	21.113024	0.000922	20.849437
29.000924	-2.996200	3.886400	-11.644000	21.122506	0.000922	20.840904
30.004093	-2.995000	3.885100	-11.635000	21.117643	0.000922	20.839832
31.003550	-3.008400	3.882800	-11.680000	21.132886	0.000921	20.848916
32.001550	-3.023000	3.882700	-11.735000	21.136106	0.000921	20.844076
33.000398	-3.020100	3.882700	-11.724000	21.154320	0.000921	20.845226
34.005743	-2.999000	3.882900	-11.645000	21.156390	0.000920	20.841133
35.002685	-2.981300	3.882800	-11.575000	21.167845	0.000919	20.841211
36.003295	-2.992000	3.883200	-11.617000	21.173309	0.000919	20.835772
37.006783	-3.004700	3.881500	-11.662000	21.152079	0.000920	20.843933
38.002249	-3.002300	3.880500	-11.649000	21.176430	0.000919	20.836049
39.003318	-2.984100	3.880700	-11.579000	21.175656	0.000918	20.836697
40.007295	-2.991700	3.878900	-11.603000	21.200280	0.000917	20.842363
41.003247	-3.009700	3.878900	-11.673000	21.192498	0.000914	20.842165
42.003026	-2.998900	3.879300	-11.633000	21.184615	0.000919	20.828590
43.005505	-2.993400	3.879200	-11.610000	21.211160	0.000918	20.829540
44.002618	-2.991400	3.877700	-11.598000	21.203752	0.000918	20.836353
45.003456	-3.000400	3.879100	-11.637000	21.221516	0.000915	20.826624
46.009664	-2.996400	3.876900	-11.615000	21.212961	0.000918	20.839876
47.006789	-3.016300	3.877000	-11.693000	21.243570	0.000917	20.828297
48.006164	-3.007800	3.875300	-11.655000	21.257266	0.000915	20.829671
49.008262	-2.979800	3.874900	-11.543000	21.238309	0.000916	20.827302
50.009372	-2.981200	3.875500	-11.552000	21.250060	0.000913	20.824833
51.006897	-2.999500	3.875800	-11.624000	21.282317	0.000916	20.809687
52.008217	-2.988500	3.874800	-11.579000	21.267202	0.000916	20.820170
53.007217	-2.993500	3.872400	-11.590000	21.261362	0.000913	20.825708
54.005841	-3.002100	3.872800	-11.625000	21.289653	0.000916	20.824613
55.010596	-3.013200	3.873800	-11.672000	21.279104	0.000915	20.829707
56.009343	-2.977900	3.873200	-11.534000	21.301403	0.000915	20.818350
57.010487	-3.006300	3.871900	-11.639000	21.296791	0.000915	20.834598
58.009490	-3.009800	3.871600	-11.651000	21.315227	0.000915	20.812265
59.008603	-3.011300	3.872400	-11.659000	21.293500	0.000915	20.806651
60.009398	-2.996500	3.871800	-11.600000	21.310813	0.000914	20.851470
61.010126	-2.981700	3.873700	-11.549000	21.338827	0.000913	20.814065
62.008565	-2.999500	3.871100	-11.611000	21.342021	0.000915	20.823899
63.010755	-3.001400	3.871000	-11.617000	21.339628	0.000915	20.826246
64.011413	-2.963300	3.872500	-11.475000	21.318378	0.000913	20.815418
65.012219	-3.024200	3.869800	-11.701000	21.333521	0.000913	20.811127
66.011653	-2.999400	3.870700	-11.608000	21.341655	0.000914	20.822110
67.019174	-2.998200	3.870200	-11.603000	21.382786	0.000914	20.818691
68.012233	-3.008400	3.869000	-11.638000	21.370689	0.000911	20.817494
69.011090	-3.006000	3.869200	-11.630000	21.388077	0.000914	20.853382
70.014660	-3.005800	3.868900	-11.628000	21.404566	0.000913	20.848068
71.012240	-2.994300	3.867000	-11.578000	21.391672	0.000911	20.808616
72.013515	-3.007200	3.867300	-11.628000	21.407860	0.000911	20.805846
73.019207	-3.017600	3.866900	-11.668000	21.409459	0.000913	20.838739
74.014975	-3.002700	3.868500	-11.615000	21.423104	0.000911	20.825839
75.014580	-3.012000	3.868800	-11.651000	21.408290	0.000913	20.808646
76.019018	-2.973700	3.868100	-11.501000	21.422855	0.000912	20.849297
77.015570	-2.982200	3.866900	-11.531000	21.409588	0.000913	20.827489
78.014480	-2.986900	3.867800	-11.551000	21.414129	0.000911	20.819704
79.016264	-3.020500	3.866100	-11.676000	21.420715	0.000913	20.827242
80.016247	-2.994500	3.867400	-11.579000	21.429521	0.000912	20.824199
81.018139	-2.995000	3.867000	-11.580000	21.448977	0.000911	20.819010
82.017153	-3.015700	3.863600	-11.650000	21.447081	0.000911	20.825174
83.017885	-2.998000	3.865900	-11.588000	21.449676	0.000911	20.845313
84.017354	-2.991000	3.865000	-11.559000	21.461799	0.000912	20.852701
85.017885	-3.000900	3.865100	-11.597000	21.471276	0.000914	20.822830
86.017269	-3.005000	3.865500	-11.613000	21.469807	0.000911	20.817092
87.017041	-3.006800	3.864400	-11.619000	21.476019	0.000913	20.823308
88.016630	-3.019000	3.862700	-11.661000	21.483776	0.000914	20.823009
89.015838	-3.007400	3.863100	-11.616000	21.512434	0.000913	20.820864
90.018361	-3.016600	3.862900	-11.651000	21.480486	0.000912	20.817821
91.019605	-3.007000	3.862600	-11.613000	21.497671	0.000914	20.807041
92.020164	-3.012600	3.863000	-11.636000	21.504156	0.000911	20.829651
93.019086	-3.004100	3.862400	-11.602000	21.518274	0.000911	20.821492
94.022666	-3.011500	3.863100	-11.632000	21.519719	0.000912	20.834317
95.020227	-3.019400	3.861500	-11.658000	21.507851	0.000911	20.828606
96.022394	-2.997600	3.862200	-11.576000	21.508899	0.000912	20.821120
97.021578	-3.010000	3.863000	-11.626000	21.539526	0.000915	20.816680
98.020448	-3.013200	3.860800	-11.633000	21.529750	0.000912	20.840562
99.021743	-2.977500	3.861000	-11.495000	21.533418	0.000914	20.833327
100.021689	-2.977000	3.862900	-11.499000	21.562249	0.000910	20.818555
101.027176	-3.003100	3.861200	-11.594000	21.560978	0.000913	20.832455
102.022946	-3.001500	3.860600	-11.586000	21.569359	0.000913	20.848902
103.022014	-3.009200	3.860500	-11.616000	21.586442	0.000913	20.839918
104.023146	-3.000600	3.859900	-11.580000	21.590633	0.000913	20.822302
105.022367	-3.007300	3.859900	-11.606000	21.624327	0.000913	20.838475
106.021446	-3.015300	3.859500	-11.636000	21.602531	0.000914	20.833733
107.024741	-2.992000	3.861000	-11.551000	21.634381	0.000913	20.833838
108.023888	-2.993900	3.860100	-11.556000	21.637226	0.000912	20.830046
109.022969	-2.997600	3.859600	-11.568000	21.631688	0.000912	20.843945
110.024190	-3.011500	3.859600	-11.623000	21.651467	0.000912	20.835289
111.022964	-3.012400	3.859200	-11.624000	21.657077	0.000911	20.838533
112.022717	-2.994700	3.859400	-11.556000	21.650396	0.000914	20.844174
113.024560	-2.986800	3.859100	-11.525000	21.659922	0.000916	20.839009
114.022165	-2.976000	3.860000	-11.486000	21.659525	0.000912	20.823914
115.023549	-2.991800	3.857900	-11.541000	21.642295	0.000915	20.839387
116.024652	-2.986100	3.858700	-11.521000	21.667782	0.000914	20.856357
117.022274	-2.989900	3.858300	-11.536000	21.692497	0.000917	20.846004
118.024737	-2.998100	3.857900	-11.565000	21.666263	0.000917	20.836345
119.026079	-3.027800	3.857300	-11.678000	21.678110	0.000915	20.842511
120.025290	-2.975000	3.859500	-11.481000	21.714543	0.000916	20.831084
121.024341	-2.984600	3.857900	-11.514000	21.707063	0.000917	20.831184
122.024140	-2.994900	3.855600	-11.545000	21.713622	0.000916	20.831111
123.023675	-2.983800	3.857400	-11.509000	21.709335	0.000917	20.842941
124.026704	-3.014800	3.855000	-11.620000	21.736741	0.000916	20.834808
125.025407	-2.988800	3.857700	-11.528000	21.738663	0.000916	20.831042
126.026357	-2.993300	3.854800	-11.537000	21.734449	0.000915	20.849109
127.025806	-2.990100	3.855300	-11.527000	21.750136	0.000916	20.841101
128.033924	-3.004300	3.855100	-11.580000	21.759265	0.000915	20.835065
129.028589	-2.983700	3.855900	-11.504000	21.752484	0.000919	20.850089
130.029404	-2.983700	3.855800	-11.504000	21.768842	0.000917	20.833270
131.030088	-3.001900	3.854500	-11.570000	21.772336	0.000918	20.849094
132.028812	-3.016000	3.853600	-11.621000	21.779469	0.000919	20.843432
133.031765	-3.015400	3.854600	-11.622000	21.786227	0.000917	20.853514
134.030411	-2.995800	3.853600	-11.544000	21.788650	0.000918	20.858784
135.028618	-2.979300	3.853700	-11.478000	21.772592	0.000918	20.858834
136.028604	-2.999400	3.852900	-11.554000	21.779703	0.000917	20.862157
137.033906	-2.985200	3.855000	-11.507000	21.793617	0.000920	20.845738
138.030329	-2.985700	3.854100	-11.506000	21.799178	0.000918	20.844666
139.031821	-2.976200	3.854600	-11.472000	21.793222	0.000921	20.855300
140.033526	-2.984100	3.853900	-11.499000	21.798431	0.000923	20.852927
141.030668	-3.001100	3.852800	-11.560000	21.843440	0.000923	20.860991
142.031854	-2.981000	3.853600	-11.487000	21.827809	0.000922	20.847244
143.033261	-3.012100	3.852500	-11.603000	21.845514	0.000922	20.853585
144.031513	-3.011500	3.853100	-11.602000	21.852620	0.000919	20.860697
145.030982	-2.996900	3.852000	-11.542000	21.869004	0.000921	20.865242
146.035164	-2.975100	3.853800	-11.464000	21.875588	0.000921	20.858082
147.031262	-3.027700	3.851100	-11.658000	21.892193	0.000920	20.864271
148.031044	-3.006900	3.851700	-11.581000	21.922163	0.000922	20.864398
149.035616	-3.020200	3.851800	-11.632000	21.910421	0.000923	20.858809
150.030787	-2.997600	3.851500	-11.545000	21.918649	0.000923	20.859458
151.031076	-3.011600	3.851200	-11.597000	21.928373	0.000925	20.876303
152.032280	-3.000100	3.850200	-11.551000	21.923417	0.000922	20.844318
153.034160	-2.991100	3.850500	-11.516000	21.953508	0.000925	20.864954
154.033934	-2.990400	3.849200	-11.509000	21.938603	0.000925	20.880853
155.036485	-3.002300	3.850100	-11.558000	21.961765	0.000926	20.874641
156.034750	-2.986100	3.850400	-11.497000	21.953038	0.000924	20.874915
157.038321	-2.995200	3.850900	-11.533000	21.981885	0.000927	20.854005
158.037428	-3.009900	3.847100	-11.578000	21.979919	0.000925	20.883804
159.034770	-3.006600	3.849600	-11.573000	21.969824	0.000926	20.880337
160.036698	-3.013100	3.847300	-11.591000	21.979099	0.000925	20.875397
161.035951	-3.000000	3.848200	-11.544000	21.984164	0.000928	20.871458
162.035629	-2.985000	3.849700	-11.490000	21.996504	0.000928	20.868639
163.036534	-2.977200	3.849600	-11.461000	22.005132	0.000927	20.871112
164.036396	-2.984100	3.848400	-11.482000	22.014282	0.000928	20.868418
165.036721	-2.994100	3.847500	-11.519000	22.026000	0.000928	20.885363
166.036880	-2.999200	3.846400	-11.535000	22.036595	0.000925	20.878901
167.037138	-2.999500	3.847800	-11.541000	22.040485	0.000929	20.869044
168.037083	-2.995200	3.846400	-11.520000	22.052879	0.000926	20.877184
169.037339	-3.008500	3.845700	-11.569000	22.047869	0.000928	20.872643
170.037901	-3.009200	3.846100	-11.573000	22.063649	0.000929	20.878009
171.039103	-2.993900	3.846100	-11.514000	22.064198	0.000932	20.874765
172.039543	-3.008000	3.845600	-11.567000	22.077016	0.000930	20.893760
173.039561	-2.986000	3.847100	-11.487000	22.065075	0.000931	20.891763
174.039228	-3.014000	3.843700	-11.583000	22.073452	0.000929	20.892563
175.039769	-2.992700	3.845800	-11.509000	22.059494	0.000934	20.864841
176.038791	-3.004100	3.846000	-11.553000	22.072607	0.000932	20.874649
177.040225	-3.017400	3.844500	-11.599000	22.104565	0.000931	20.879616
178.040385	-3.000900	3.845100	-11.538000	22.105490	0.000934	20.894291
179.041197	-3.016500	3.843900	-11.594000	22.126604	0.000933	20.879395
180.044084	-2.987100	3.844600	-11.482000	22.123890	0.000932	20.871936
181.048793	-2.994000	3.844400	-11.507000	22.144355	0.000933	20.889579
182.041019	-3.004500	3.843400	-11.547000	22.120727	0.000935	20.903855
183.044700	-2.991400	3.844300	-11.499000	22.137007	0.000933	20.876534
184.045480	-3.005900	3.843900	-11.552000	22.160910	0.000937	20.873438
185.041606	-2.976900	3.845000	-11.444000	22.154831	0.000935	20.907178
186.043484	-2.981200	3.843000	-11.456000	22.174325	0.000936	20.899196
187.044665	-3.010400	3.842500	-11.566000	22.156605	0.000936	20.887145
188.043761	-3.012700	3.841900	-11.574000	22.194965	0.000937	20.879559
189.057342	-3.007200	3.844000	-11.559000	22.175152	0.000937	20.907609
190.050839	-2.996300	3.843400	-11.515000	22.201823	0.000935	20.912500
191.046248	-2.980500	3.843100	-11.454000	22.199733	0.000937	20.889547
192.049290	-3.006600	3.841100	-11.546000	22.228923	0.000937	20.903600
193.048852	-3.014900	3.840600	-11.578000	22.235676	0.000938	20.896611
194.046782	-3.000700	3.841800	-11.527000	22.229296	0.000940	20.885483
195.049432	-2.991500	3.841600	-11.489000	22.257141	0.000938	20.889180
196.047738	-2.994900	3.842100	-11.505000	22.251062	0.000938	20.902059
197.048138	-3.011600	3.840400	-11.565000	22.255424	0.000939	20.904055
198.050532	-3.024600	3.839500	-11.612000	22.293834	0.000939	20.899367
199.054901	-3.001600	3.841000	-11.527000	22.267117	0.000940	20.928089
200.051708	-3.004100	3.840000	-11.534000	22.283070	0.000942	20.881478
201.055279	-2.990100	3.840800	-11.484000	22.277988	0.000941	20.910053
202.052020	-3.000900	3.840100	-11.522000	22.273879	0.000940	20.911628
203.051439	-2.985300	3.840100	-11.463000	22.253339	0.000942	20.896752
204.049783	-3.016900	3.838400	-11.579000	22.280261	0.000941	20.905690
205.050900	-3.014500	3.838900	-11.571000	22.282528	0.000945	20.893737
206.051972	-3.007000	3.838000	-11.539000	22.286219	0.000943	20.912603
207.052875	-3.007000	3.839500	-11.544000	22.293800	0.000943	20.890799
208.051603	-2.992900	3.839400	-11.490000	22.305438	0.000943	20.890598
209.049845	-2.992900	3.838200	-11.486000	22.312941	0.000944	20.914231
210.050540	-3.008500	3.837600	-11.544000	22.333030	0.000945	20.909691
211.051180	-2.999500	3.838700	-11.512000	22.302501	0.000947	20.908519
212.050916	-2.990400	3.837500	-11.475000	22.332260	0.000947	20.907972
213.053668	-3.020200	3.836800	-11.586000	22.326929	0.000948	20.928235
214.052248	-2.995400	3.837900	-11.495000	22.337747	0.000947	20.925318
215.051856	-2.993700	3.838600	-11.490000	22.324293	0.000949	20.905684
216.052870	-3.012900	3.836100	-11.557000	22.329401	0.000947	20.920281
217.051742	-2.995200	3.836900	-11.492000	22.313953	0.000948	20.896753
218.052046	-3.028600	3.836200	-11.618000	22.309568	0.000949	20.921284
219.053989	-2.997700	3.836600	-11.500000	22.314055	0.000949	20.914398
220.053360	-3.001200	3.835700	-11.510000	22.303738	0.000949	20.923032
221.053560	-2.990300	3.837000	-11.473000	22.307877	0.000951	20.937606
222.053003	-3.007800	3.834100	-11.531000	22.321985	0.000951	20.928975
223.052857	-2.996800	3.835300	-11.491000	22.314063	0.000952	20.933369
224.052773	-2.988100	3.836000	-11.461000	22.324432	0.000949	20.925736
225.053222	-3.004400	3.834900	-11.520000	22.336170	0.000953	20.925162
226.054206	-3.003100	3.835300	-11.516000	22.343426	0.000950	20.933374
227.056501	-2.990800	3.835600	-11.470000	22.346419	0.000954	20.933053
228.056890	-3.013300	3.835100	-11.555000	22.373384	0.000954	20.939191
229.059471	-2.977400	3.834900	-11.416000	22.378994	0.000954	20.935800
230.056581	-3.002200	3.833800	-11.508000	22.408127	0.000952	20.938421
231.056374	-2.987000	3.833100	-11.448000	22.407731	0.000956	20.933284
232.061786	-2.998100	3.834300	-11.495000	22.411274	0.000954	20.944416
233.058638	-2.996700	3.833500	-11.486000	22.419122	0.000956	20.931415
234.057772	-2.995500	3.833400	-11.482000	22.424609	0.000956	20.944968
235.064296	-3.023800	3.833800	-11.592000	22.444622	0.000956	20.937984
236.057121	-2.984900	3.833700	-11.442000	22.435902	0.000958	20.932571
237.058709	-2.965100	3.833500	-11.366000	22.422397	0.000957	20.928530
238.062420	-2.991100	3.832400	-11.462000	22.456066	0.000958	20.941857
239.058312	-2.994500	3.832600	-11.476000	22.473764	0.000958	20.945830
240.058133	-3.014600	3.832800	-11.553000	22.477452	0.000960	20.957582
241.063034	-2.999300	3.831400	-11.491000	22.467113	0.000961	20.932059
242.059712	-3.011700	3.832600	-11.541000	22.482367	0.000960	20.956340
243.060777	-3.014900	3.829700	-11.545000	22.467366	0.000958	20.943691
244.066372	-2.988300	3.832600	-11.452000	22.508311	0.000960	20.960512
245.060013	-3.002900	3.830600	-11.501000	22.510581	0.000962	20.940028
246.060092	-2.994800	3.831300	-11.473000	22.510107	0.000961	20.946665
247.062291	-3.008700	3.830200	-11.523000	22.494987	0.000963	20.959022
248.060722	-3.007000	3.831100	-11.519000	22.513354	0.000961	20.956080
249.060412	-3.002500	3.830400	-11.499000	22.505831	0.000964	20.949495
250.061470	-3.023300	3.827900	-11.572000	22.519163	0.000964	20.948148
251.059496	-2.995600	3.829900	-11.471000	22.555271	0.000963	20.956335
252.060616	-3.003600	3.828200	-11.498000	22.556719	0.000963	20.957785
253.064035	-2.996400	3.828300	-11.470000	22.543291	0.000966	20.965672
254.061873	-2.995100	3.828100	-11.465000	22.523356	0.000964	20.952821
255.061687	-2.991500	3.829700	-11.455000	22.552093	0.000966	20.948411
256.062590	-2.992100	3.828100	-11.452000	22.546437	0.000965	20.964081
257.060775	-2.990700	3.829200	-11.451000	22.549703	0.000966	20.935114
258.060790	-2.981900	3.827200	-11.411000	22.541883	0.000966	20.968529
259.067210	-2.986400	3.828700	-11.432000	22.535353	0.000969	20.971471
260.062338	-3.002900	3.827000	-11.491000	22.545350	0.000968	20.964889
261.061291	-2.985600	3.828600	-11.430000	22.564064	0.000969	20.941910
262.065712	-2.975500	3.827300	-11.387000	22.581012	0.000970	20.989697
263.063651	-3.011000	3.826300	-11.520000	22.572090	0.000970	20.953266
264.062294	-2.999900	3.826600	-11.478000	22.579767	0.000968	20.964272
265.064848	-2.995600	3.827300	-11.464000	22.590981	0.000970	20.953221
266.063760	-2.993700	3.827100	-11.456000	22.619140	0.000972	20.989005
267.063242	-3.012800	3.825700	-11.525000	22.632423	0.000974	20.980499
268.064989	-3.006400	3.824100	-11.496000	22.652133	0.000973	20.967052
269.066460	-2.992300	3.825900	-11.446000	22.674359	0.000973	20.954229
270.069390	-3.010800	3.826200	-11.518000	22.660508	0.000972	20.969277
271.065256	-2.984100	3.825600	-11.415000	22.668932	0.000973	20.968705
272.063622	-2.986800	3.825900	-11.426000	22.690183	0.000975	20.971500
273.069032	-2.987300	3.824700	-11.424000	22.712484	0.000976	20.980086
274.068913	-3.000700	3.824000	-11.474000	22.694972	0.000975	20.974874
275.064250	-2.999100	3.824300	-11.468000	22.683592	0.000976	20.984335
276.064968	-2.988600	3.824500	-11.428000	22.721884	0.000976	20.967692
277.068056	-3.021400	3.823300	-11.551000	22.715109	0.000975	20.981767
278.063694	-3.012700	3.824500	-11.521000	22.726968	0.000977	20.974681
279.064061	-3.006100	3.823900	-11.493000	22.726074	0.000981	20.981371
280.065358	-3.015500	3.824600	-11.532000	22.728494	0.000976	20.975735
281.066992	-2.984700	3.823900	-11.412000	22.754355	0.000978	20.960391
282.065379	-3.003500	3.824000	-11.484000	22.714944	0.000980	20.993928
283.068892	-2.986000	3.823200	-11.415000	22.707123	0.000978	20.968079
284.066861	-2.988100	3.822400	-11.421000	22.736824	0.000980	20.983604
285.067691	-3.024900	3.822400	-11.561000	22.724667	0.000980	20.991340
286.072745	-3.008800	3.821900	-11.497000	22.730999	0.000981	20.991992
287.068407	-2.990900	3.822100	-11.431000	22.745403	0.000983	20.989825
288.070126	-2.987800	3.821300	-11.416000	22.766978	0.000982	20.988679
289.073342	-2.982900	3.822300	-11.400000	22.799143	0.000983	21.007619
290.068907	-3.005500	3.820100	-11.481000	22.809731	0.000981	20.998788
291.071521	-2.991100	3.821600	-11.429000	22.786644	0.000983	20.981353
292.076318	-2.989200	3.821100	-11.421000	22.774512	0.000983	20.972521
293.070884	-2.995300	3.820700	-11.443000	22.776957	0.000983	21.014791
294.071168	-3.007000	3.819300	-11.484000	22.742979	0.000986	20.984554
295.074197	-2.998600	3.819300	-11.452000	22.774596	0.000986	20.984456
296.071914	-2.997800	3.819100	-11.447000	22.753176	0.000987	20.980543
297.072063	-3.002600	3.820100	-11.470000	22.753326	0.000986	20.979272
298.077737	-2.985500	3.820500	-11.405000	22.765811	0.000989	20.987984
299.073093	-3.004600	3.817400	-11.469000	22.816209	0.000986	20.972565
300.072690	-2.999200	3.818000	-11.450000	22.804627	0.000991	20.992727
301.074194	-2.981400	3.818000	-11.381000	22.814669	0.000987	20.969126
302.073836	-3.025600	3.817500	-11.550000	22.836444	0.000990	20.969129
303.074359	-3.014200	3.817200	-11.505000	22.820355	0.000990	20.968658
304.077545	-2.990700	3.816700	-11.414000	22.788943	0.000989	20.969907
305.075309	-3.014600	3.816500	-11.505000	22.801901	0.000990	20.971034
306.074393	-2.999700	3.816700	-11.448000	22.809599	0.000992	20.969737
307.079798	-3.004100	3.816500	-11.464000	22.824500	0.000990	20.974706
308.075393	-2.981800	3.817900	-11.382000	22.835164	0.000991	20.970216
309.076823	-3.003700	3.815900	-11.460000	22.860076	0.000990	20.969095
310.079183	-3.001200	3.814800	-11.448000	22.867181	0.000991	20.946345
311.076880	-2.986200	3.815900	-11.393000	22.857492	0.000993	20.963663
312.075226	-2.982900	3.815500	-11.380000	22.855950	0.000993	20.956903
313.080666	-2.998500	3.813900	-11.435000	22.862081	0.000993	20.956407
314.078265	-2.999000	3.815400	-11.441000	22.860212	0.000993	20.964017
315.079674	-2.993800	3.813800	-11.417000	22.853990	0.000993	20.944984
316.080483	-3.010700	3.814100	-11.482000	22.845373	0.000994	20.962902
317.079534	-3.008900	3.814600	-11.476000	22.862490	0.000996	20.969143
318.078773	-2.993400	3.814100	-11.416000	22.870759	0.000995	20.973159
319.080991	-2.989000	3.813400	-11.398000	22.834543	0.000996	20.934038
320.083735	-2.991100	3.813100	-11.405000	22.857935	0.000995	20.950832
321.080865	-3.008900	3.812900	-11.471000	22.877541	0.000998	20.968574
322.083248	-2.995800	3.812200	-11.419000	22.878518	0.000997	20.947271
323.084476	-3.009600	3.812900	-11.475000	22.857793	0.000998	20.977239
324.082309	-2.986600	3.813800	-11.388000	22.867858	0.000997	20.971201
325.085839	-2.990700	3.812100	-11.399000	22.856301	0.000999	20.965314
326.088492	-2.979200	3.812500	-11.356000	22.868011	0.000997	20.934375
327.083902	-2.989900	3.812100	-11.397000	22.885924	0.000998	20.946629
328.087871	-3.001200	3.811200	-11.437000	22.882961	0.000998	20.937499
329.087284	-3.009300	3.810800	-11.467000	22.893101	0.001001	20.927270
330.083786	-3.006900	3.811700	-11.461000	22.891208	0.001000	20.953345
331.088682	-2.991500	3.811400	-11.401000	22.927180	0.001000	20.947659
332.090886	-3.019900	3.809100	-11.502000	22.950843	0.001000	20.916842
333.084122	-2.999000	3.810400	-11.426000	22.947483	0.001001	20.931492
334.089122	-3.006700	3.809400	-11.453000	22.962530	0.001002	20.938032
335.090245	-2.996300	3.811300	-11.419000	22.982980	0.001003	20.936236
336.085173	-2.997200	3.809300	-11.416000	22.989730	0.001006	20.930198
337.087789	-2.994200	3.810600	-11.408000	22.992918	0.001004	20.934340
338.084692	-2.975600	3.809400	-11.334000	22.988288	0.001002	20.953407
339.086454	-2.995600	3.809500	-11.410000	22.975912	0.001003	20.940060
340.084123	-2.994900	3.809100	-11.407000	22.998925	0.001004	20.934669
341.086187	-3.009700	3.809300	-11.463000	23.007544	0.001005	20.918176
342.091109	-3.002700	3.808000	-11.433000	22.998928	0.001004	20.938464
343.086601	-3.021500	3.807400	-11.504000	22.995991	0.001006	20.930781
344.085156	-3.003800	3.807600	-11.437000	23.026454	0.001007	20.938543
345.087582	-2.986600	3.807800	-11.371000	23.031860	0.001009	20.928787
346.090619	-3.004200	3.808100	-11.439000	23.020455	0.001007	20.910724
347.088988	-3.001900	3.807700	-11.430000	23.016719	0.001006	20.933057
348.089525	-2.997100	3.807000	-11.409000	23.023943	0.001009	20.933657
349.088907	-3.005200	3.805700	-11.435000	23.022749	0.001010	20.939098
350.089250	-3.016500	3.806100	-11.480000	23.036726	0.001010	20.899053
351.089055	-2.986400	3.806500	-11.367000	23.056701	0.001008	20.929496
352.088645	-3.005000	3.805000	-11.432000	23.057027	0.001010	20.929348
353.088539	-3.024300	3.805900	-11.509000	23.068534	0.001012	20.909587
354.089627	-3.024600	3.803500	-11.503000	23.064576	0.001010	20.915103
355.089966	-2.979800	3.805400	-11.338000	23.059001	0.001011	20.921370
356.089742	-3.004700	3.804800	-11.431000	23.068412	0.001010	20.924635
357.090270	-2.990400	3.804300	-11.375000	23.097036	0.001013	20.926290
358.089689	-3.002300	3.803300	-11.417000	23.093125	0.001013	20.923794
359.090608	-2.998200	3.803700	-11.403000	23.087577	0.001015	20.919184
360.091539	-3.004600	3.803200	-11.426000	23.097038	0.001014	20.925344
361.093332	-3.008600	3.803400	-11.443000	23.079806	0.001015	20.917561
362.091598	-3.004000	3.803800	-11.426000	23.096371	0.001014	20.924201
363.091659	-3.009300	3.803500	-11.445000	23.109720	0.001013	20.908656
364.091082	-2.999000	3.802500	-11.403000	23.129497	0.001014	20.916144
365.091573	-3.013700	3.802500	-11.457000	23.137942	0.001014	20.945466
366.092548	-2.994300	3.803000	-11.386000	23.116601	0.001015	20.918395
367.094065	-3.021600	3.801500	-11.485000	23.075063	0.001016	20.914706
368.092299	-2.990700	3.802100	-11.369000	23.072672	0.001016	20.931274
369.092272	-2.978900	3.801400	-11.321000	23.094295	0.001017	20.898416
370.096006	-3.007600	3.801200	-11.432000	23.104060	0.001015	20.900614
371.092297	-3.012000	3.800800	-11.447000	23.111806	0.001017	20.912168
372.092552	-2.999500	3.800900	-11.400000	23.145753	0.001016	20.895452
373.095841	-3.009900	3.799900	-11.436000	23.154173	0.001018	20.929016
374.093312	-2.998900	3.799700	-11.394000	23.139307	0.001019	20.920758
375.093470	-2.982800	3.800500	-11.335000	23.144462	0.001016	20.895580
376.094812	-2.995100	3.799900	-11.380000	23.145085	0.001018	20.901895
377.091721	-3.010100	3.799000	-11.433000	23.148325	0.001018	20.917468
378.092188	-3.004800	3.799200	-11.415000	23.153583	0.001018	20.908987
379.094865	-3.016300	3.798900	-11.457000	23.162524	0.001019	20.898981
380.091944	-3.008000	3.797900	-11.423000	23.149704	0.001020	20.908419
381.092325	-2.995900	3.797800	-11.375000	23.144900	0.001021	20.911665
382.095685	-3.016800	3.797700	-11.456000	23.150750	0.001020	20.903304
383.093929	-2.997700	3.796700	-11.380000	23.154291	0.001020	20.897843
384.093211	-2.991500	3.798600	-11.363000	23.147892	0.001021	20.922249
385.097684	-2.982300	3.798700	-11.328000	23.181265	0.001022	20.908277
386.094738	-3.015900	3.796000	-11.447000	23.180719	0.001021	20.906782
387.094875	-3.008100	3.795100	-11.415000	23.188741	0.001022	20.895856
388.097220	-3.012600	3.796000	-11.435000	23.171880	0.001022	20.905985
389.095425	-3.016400	3.796400	-11.451000	23.174772	0.001023	20.902245
390.097056	-2.985900	3.795500	-11.332000	23.172083	0.001023	20.916145
391.099224	-2.991900	3.795200	-11.354000	23.150220	0.001023	20.910832
392.096682	-3.002200	3.795000	-11.393000	23.163049	0.001023	20.907093
393.097471	-2.986100	3.794600	-11.329000	23.193955	0.001024	20.910562
394.098275	-2.999200	3.794300	-11.379000	23.201503	0.001024	20.907221
395.095532	-2.989500	3.794200	-11.341000	23.214303	0.001025	20.923366
396.097743	-3.023000	3.793200	-11.465000	23.233179	0.001023	20.892973
397.098866	-2.994400	3.795200	-11.363000	23.245477	0.001025	20.906719
398.096538	-2.999500	3.794500	-11.380000	23.240577	0.001026	20.888059
399.097454	-3.011700	3.792800	-11.421000	23.262018	0.001026	20.896270
400.099098	-2.998500	3.793300	-11.373000	23.272229	0.001026	20.904132
401.096267	-2.997300	3.794000	-11.369000	23.265530	0.001027	20.892678
402.099916	-3.005400	3.791200	-11.392000	23.255870	0.001026	20.882049
403.098726	-3.006300	3.791700	-11.397000	23.257067	0.001026	20.902213
404.095978	-2.983800	3.792200	-11.313000	23.271386	0.001028	20.884322
405.097200	-2.981700	3.791300	-11.302000	23.286952	0.001032	20.896602
406.097545	-2.986700	3.792000	-11.325000	23.291633	0.001028	20.894181
407.096342	-3.009700	3.790300	-11.407000	23.295816	0.001030	20.899321
408.097032	-2.988300	3.791300	-11.328000	23.270396	0.001029	20.895657
409.100834	-3.005600	3.790700	-11.393000	23.290640	0.001030	20.873747
410.100104	-3.002900	3.789500	-11.379000	23.281977	0.001030	20.890194
411.097456	-3.010900	3.790100	-11.409000	23.288848	0.001029	20.904665
412.097672	-3.002100	3.789100	-11.375000	23.273661	0.001030	20.904144
413.097707	-3.011100	3.788200	-11.405000	23.320474	0.001031	20.911704
414.099555	-2.989900	3.789000	-11.328000	23.323513	0.001033	20.896734
415.099865	-3.008100	3.788700	-11.396000	23.341049	0.001031	20.881593
416.105211	-2.984700	3.789800	-11.311000	23.326756	0.001032	20.901406
417.102021	-3.006700	3.788700	-11.389000	23.328125	0.001033	20.879546
418.101290	-3.016200	3.786700	-11.421000	23.316347	0.001030	20.924163
419.104939	-2.997400	3.788200	-11.353000	23.299964	0.001031	20.907745
420.101034	-3.012300	3.786800	-11.406000	23.299294	0.001031	20.886212
421.101139	-2.988100	3.787900	-11.318000	23.274074	0.001032	20.893653
422.106061	-2.964400	3.787300	-11.226000	23.259533	0.001032	20.895676
423.102413	-2.989100	3.787200	-11.319000	23.263217	0.001035	20.876136
424.102819	-3.018300	3.785300	-11.424000	23.243095	0.001035	20.875885
425.106721	-3.004400	3.786700	-11.376000	23.292676	0.001034	20.884322
426.105138	-3.005000	3.786000	-11.376000	23.289067	0.001034	20.898721
427.106449	-3.014100	3.785400	-11.409000	23.351146	0.001034	20.913048
428.113336	-2.998300	3.785700	-11.349000	23.345441	0.001034	20.915390
429.110625	-2.989600	3.785400	-11.317000	23.360784	0.001036	20.882881
430.107485	-2.992600	3.785900	-11.329000	23.343505	0.001035	20.893063
431.117352	-3.003200	3.784800	-11.365000	23.375994	0.001034	20.883901
432.108621	-3.001600	3.783800	-11.356000	23.377395	0.001038	20.902373
433.112581	-2.985800	3.784900	-11.300000	23.391186	0.001037	20.892014
434.113247	-3.009700	3.783000	-11.385000	23.386261	0.001036	20.879019
435.109512	-3.013500	3.782800	-11.398000	23.415666	0.001037	20.876723
436.108930	-2.994600	3.783800	-11.331000	23.443827	0.001037	20.884086
437.112246	-2.977700	3.785000	-11.269000	23.441662	0.001037	20.868641
438.111496	-2.990100	3.781900	-11.307000	23.442759	0.001037	20.856465
439.109708	-2.996000	3.782800	-11.332000	23.435143	0.001037	20.889606
440.112241	-2.991800	3.782200	-11.314000	23.414081	0.001038	20.880824
441.113254	-3.004600	3.781800	-11.361000	23.416572	0.001039	20.872889
442.114590	-3.012700	3.782000	-11.394000	23.402236	0.001039	20.883650
443.114353	-3.014700	3.780400	-11.395000	23.388116	0.001037	20.882774
444.111873	-2.989700	3.780200	-11.301000	23.385901	0.001037	20.863960
445.112635	-3.001400	3.779800	-11.344000	23.374152	0.001040	20.863090
446.115202	-2.998800	3.778200	-11.329000	23.398952	0.001040	20.877989
447.114440	-2.994000	3.780500	-11.317000	23.411879	0.001038	20.865815
448.113461	-3.008600	3.779200	-11.369000	23.422762	0.001039	20.857284
449.117297	-3.014100	3.779300	-11.390000	23.414993	0.001041	20.867040
450.116342	-2.994200	3.779600	-11.316000	23.404166	0.001039	20.852869
451.114969	-2.984500	3.779700	-11.280000	23.378892	0.001039	20.860729
452.118156	-2.988900	3.777900	-11.290000	23.403642	0.001040	20.873681
453.117024	-3.002600	3.778600	-11.344000	23.417612	0.001040	20.867294
454.116141	-2.992500	3.778000	-11.305000	23.427872	0.001040	20.870940
455.122212	-3.000500	3.778300	-11.336000	23.421525	0.001040	20.875483
456.119024	-2.991800	3.777500	-11.301000	23.455885	0.001040	20.857294
457.119073	-2.982100	3.777700	-11.264000	23.466493	0.001042	20.862710
458.118403	-3.017400	3.777000	-11.395000	23.509614	0.001042	20.876061
459.118883	-2.994500	3.776500	-11.308000	23.538668	0.001042	20.865831
460.119671	-3.011100	3.776600	-11.370000	23.538696	0.001043	20.871549
461.119208	-2.981200	3.775700	-11.255000	23.555721	0.001041	20.878658
462.119683	-3.006900	3.775000	-11.350000	23.566732	0.001041	20.868359
463.126237	-3.012300	3.775300	-11.371000	23.579349	0.001043	20.854929
464.133893	-3.008200	3.774200	-11.352000	23.589508	0.001045	20.856578
465.121968	-3.001300	3.774200	-11.327000	23.589984	0.001042	20.857055
466.122408	-3.018000	3.774000	-11.389000	23.562127	0.001041	20.849993
467.121716	-2.984600	3.774000	-11.263000	23.597501	0.001044	20.875970
468.123048	-3.018500	3.772200	-11.385000	23.592330	0.001045	20.853243
469.121502	-3.012700	3.771800	-11.363000	23.601094	0.001042	20.861555
470.123195	-3.016200	3.774100	-11.382000	23.617398	0.001045	20.847554
471.123312	-3.008400	3.773800	-11.351000	23.632909	0.001044	20.864999
472.123054	-3.020300	3.771700	-11.390000	23.624646	0.001045	20.851975
473.123054	-2.998700	3.773000	-11.313000	23.620787	0.001044	20.859960
474.125235	-2.979500	3.773300	-11.241000	23.614566	0.001045	20.861784
475.126781	-2.985000	3.772300	-11.259000	23.583848	0.001046	20.850430
476.130134	-2.997000	3.771800	-11.302000	23.600925	0.001043	20.840998
477.127996	-3.002600	3.771900	-11.325000	23.602670	0.001046	20.846540
478.127331	-2.996100	3.770600	-11.296000	23.600556	0.001046	20.848688
479.130480	-3.013300	3.770700	-11.362000	23.586094	0.001047	20.830397
480.128215	-3.005100	3.769600	-11.327000	23.589010	0.001047	20.839959
481.129683	-3.030400	3.770200	-11.423000	23.615519	0.001045	20.852308
482.132267	-2.998500	3.769900	-11.303000	23.623513	0.001046	20.846571
483.132115	-2.995000	3.769800	-11.289000	23.643355	0.001046	20.843231
484.128444	-2.970800	3.770200	-11.200000	23.635638	0.001046	20.856830
485.126930	-2.981900	3.769300	-11.238000	23.609903	0.001046	20.864221
486.130152	-2.987300	3.768600	-11.256000	23.630689	0.001047	20.852343
487.133293	-2.995500	3.768000	-11.285000	23.643584	0.001045	20.844882
488.129840	-2.991300	3.768200	-11.271000	23.660911	0.001047	20.842339
489.132646	-3.013000	3.767100	-11.348000	23.665491	0.001046	20.851197
490.130238	-2.994700	3.767200	-11.281000	23.687848	0.001047	20.843265
491.130381	-3.008600	3.766600	-11.331000	23.664698	0.001046	20.837127
492.133634	-2.987900	3.766400	-11.253000	23.693201	0.001049	20.842468
493.131940	-2.990700	3.767000	-11.265000	23.690886	0.001047	20.844415
494.133415	-3.004800	3.767300	-11.319000	23.651434	0.001048	20.836631
495.132697	-3.010600	3.765900	-11.337000	23.617183	0.001046	20.838330
496.131023	-3.005500	3.765300	-11.316000	23.610937	0.001048	20.822112
497.131290	-2.995700	3.766000	-11.281000	23.624205	0.001047	20.828300
498.134113	-3.018900	3.764200	-11.361000	23.592992	0.001051	20.833993
499.132872	-2.991500	3.766300	-11.265000	23.615398	0.001049	20.832747
500.132457	-2.993700	3.766600	-11.274000	23.684102	0.001047	20.847571
501.135466	-2.981800	3.763300	-11.219000	23.645871	0.001047	20.822520
502.132888	-3.000200	3.763300	-11.290000	23.670616	0.001047	20.820774
503.132491	-3.002000	3.763300	-11.297000	23.664442	0.001049	20.828810
504.136471	-3.002400	3.763000	-11.296000	23.738797	0.001050	20.851672
505.133920	-3.019100	3.762000	-11.357000	23.735189	0.001048	20.847106
506.135310	-2.994300	3.761900	-11.263000	23.742806	0.001050	20.861855
507.138759	-3.009800	3.761100	-11.319000	23.759734	0.001049	20.838051
508.136936	-3.021700	3.760600	-11.362000	23.767028	0.001049	20.824976
509.135103	-3.003500	3.762000	-11.298000	23.784705	0.001050	20.845543
510.138226	-2.994600	3.759900	-11.258000	23.755682	0.001051	20.827350
511.136389	-2.992600	3.760700	-11.254000	23.708142	0.001050	20.814300
512.141017	-3.005700	3.759000	-11.297000	23.678920	0.001049	20.818668
513.138021	-3.013100	3.758400	-11.323000	23.668593	0.001050	20.831074
514.138876	-2.987200	3.759800	-11.229000	23.652391	0.001048	20.821469
515.137262	-3.020500	3.759000	-11.353000	23.669571	0.001052	20.826365
516.139293	-3.010900	3.759200	-11.318000	23.686171	0.001049	20.840162
517.140104	-3.011000	3.757700	-11.314000	23.704443	0.001050	20.845205
518.139429	-3.015100	3.757900	-11.329000	23.714181	0.001052	20.835527
519.140811	-3.011800	3.756800	-11.313000	23.724087	0.001049	20.801364
520.141320	-2.972400	3.758700	-11.171000	23.763365	0.001051	20.821303
521.139885	-2.983700	3.759000	-11.215000	23.774396	0.001051	20.809129
522.141306	-2.978700	3.758700	-11.196000	23.782933	0.001051	20.821008
523.140069	-2.983900	3.757300	-11.210000	23.761831	0.001052	20.819765
524.139398	-3.002500	3.757100	-11.280000	23.778906	0.001051	20.813651
525.141329	-2.993800	3.756100	-11.243000	23.802053	0.001050	20.816945
526.142178	-2.982100	3.756000	-11.200000	23.805320	0.001051	20.820221
527.141264	-2.997000	3.756700	-11.258000	23.787751	0.001049	20.824416
528.144056	-2.992000	3.755000	-11.234000	23.798330	0.001051	20.814635
529.142516	-2.999400	3.754600	-11.261000	23.784143	0.001051	20.823644
530.142605	-3.000800	3.754000	-11.264000	23.790867	0.001052	20.807627
531.145705	-2.983700	3.755900	-11.204000	23.785668	0.001051	20.819009
532.142752	-2.989900	3.755600	-11.228000	23.782878	0.001051	20.816686
533.141995	-2.990800	3.754900	-11.229000	23.764667	0.001051	20.830195
534.142246	-3.020300	3.753500	-11.336000	23.734397	0.001052	20.811225
535.143845	-3.004500	3.753600	-11.277000	23.717450	0.001052	20.807511
536.141980	-3.008200	3.753600	-11.291000	23.702516	0.001051	20.822885
537.144879	-3.000800	3.754400	-11.264000	23.730251	0.001051	20.802801
538.147458	-3.015600	3.751600	-11.311000	23.729154	0.001049	20.821142
539.144924	-3.011300	3.752600	-11.299000	23.762337	0.001051	20.820273
540.146780	-3.011000	3.752000	-11.296000	23.779215	0.001051	20.786935
541.148041	-2.985100	3.752100	-11.198000	23.781357	0.001053	20.816109
542.145551	-3.006500	3.752700	-11.281000	23.742356	0.001052	20.825844
543.149931	-2.986100	3.752000	-11.204000	23.729662	0.001050	20.815962
544.147622	-2.993100	3.752000	-11.229000	23.733302	0.001052	20.803964
545.147390	-3.021300	3.751300	-11.332000	23.763171	0.001052	20.815419
546.150738	-3.005100	3.750300	-11.269000	23.757521	0.001054	20.793159
547.149570	-3.007400	3.749800	-11.275000	23.752670	0.001050	20.801098
548.146651	-3.020700	3.749200	-11.324000	23.753447	0.001051	20.809463
549.151881	-3.001600	3.751100	-11.258000	23.762658	0.001052	20.804948
550.147103	-3.009300	3.749600	-11.281000	23.751685	0.001051	20.809118
551.145858	-3.002000	3.748900	-11.253000	23.736823	0.001051	20.810340
552.150176	-3.019700	3.748900	-11.320000	23.785240	0.001052	20.811941
553.147582	-3.006700	3.748500	-11.269000	23.800021	0.001051	20.804003
554.155382	-2.984500	3.748500	-11.186000	23.814337	0.001051	20.796546
555.152035	-3.006500	3.748200	-11.267000	23.852594	0.001052	20.799344
556.151494	-2.982700	3.747900	-11.178000	23.855907	0.001050	20.805511
557.151027	-2.985300	3.748800	-11.189000	23.857150	0.001051	20.815766
558.153115	-2.982900	3.747500	-11.177000	23.845532	0.001051	20.820712
559.150607	-2.981400	3.748700	-11.176000	23.850261	0.001051	20.790841
560.149016	-2.997500	3.746900	-11.229000	23.874951	0.001052	20.805640
561.151138	-3.003700	3.745200	-11.248000	23.879260	0.001051	20.828927
562.150566	-2.994000	3.744900	-11.211000	23.921147	0.001053	20.810712
563.149633	-2.982800	3.746900	-11.176000	23.929038	0.001052	20.800608
564.151206	-2.977900	3.745600	-11.153000	23.935436	0.001052	20.806075
565.153050	-2.992400	3.744900	-11.205000	23.956165	0.001054	20.786559
566.150767	-2.981800	3.744400	-11.165000	23.962144	0.001051	20.812942
567.159458	-2.999100	3.743300	-11.225000	23.959633	0.001051	20.801890
568.151326	-3.001700	3.743700	-11.236000	23.937212	0.001054	20.814020
569.154272	-3.009900	3.743500	-11.267000	23.943606	0.001051	20.795776
570.153197	-3.004300	3.742600	-11.244000	23.932441	0.001052	20.805442
571.152569	-2.980900	3.743200	-11.158000	23.943864	0.001050	20.802198
572.153525	-3.000100	3.743500	-11.230000	23.958898	0.001051	20.825334
573.152897	-2.995800	3.743800	-11.215000	23.944541	0.001051	20.820420
574.153324	-2.995200	3.742900	-11.210000	23.980451	0.001053	20.795265
575.153119	-2.998800	3.741300	-11.217000	23.983492	0.001053	20.794522
576.153089	-2.990000	3.741100	-11.185000	23.981676	0.001054	20.810718
577.154278	-2.999500	3.741200	-11.221000	23.961942	0.001050	20.809896
578.154510	-3.015300	3.740400	-11.277000	23.947091	0.001051	20.796899
579.153238	-2.999000	3.739900	-11.214000	23.949233	0.001052	20.818487
580.153639	-3.002700	3.741000	-11.231000	23.966258	0.001052	20.813275
581.154259	-3.007300	3.739100	-11.244000	23.983405	0.001051	20.820513
582.156093	-3.006800	3.738900	-11.241000	24.011326	0.001051	20.801098
583.155993	-3.002100	3.739600	-11.225000	24.035070	0.001050	20.817323
584.160168	-2.969700	3.740100	-11.106000	24.040797	0.001051	20.806946
585.157026	-2.982900	3.738900	-11.152000	24.000881	0.001051	20.798210
586.155988	-2.992200	3.737900	-11.183000	24.000015	0.001052	20.814884
587.157604	-3.015800	3.737600	-11.270000	23.995487	0.001053	20.801809
588.157284	-3.009500	3.738800	-11.251000	23.983018	0.001052	20.800211
589.158842	-3.016400	3.736400	-11.270000	23.994717	0.001049	20.827115
590.159148	-3.013000	3.737000	-11.259000	24.031578	0.001051	20.813347
591.158149	-2.995100	3.737200	-11.192000	24.027294	0.001050	20.798619
592.158867	-3.009100	3.737500	-11.244000	24.018214	0.001051	20.795678
593.159569	-3.042800	3.734600	-11.363000	24.018092	0.001051	20.814996
594.166638	-2.999400	3.735800	-11.204000	24.033920	0.001051	20.799101
595.158313	-2.987800	3.736400	-11.163000	24.058032	0.001049	20.843196
596.159305	-2.996900	3.735500	-11.193000	24.062116	0.001049	20.798928
597.160341	-2.976700	3.735000	-11.116000	24.066922	0.001052	20.809913
598.158696	-3.005100	3.733800	-11.219000	24.068269	0.001049	20.802254
599.159413	-2.970800	3.734900	-11.094000	24.074712	0.001049	20.804449
600.160555	-2.997200	3.735100	-11.194000	24.059189	0.001050	20.820649
601.159596	-2.978300	3.736000	-11.126000	24.048960	0.001051	20.800907
602.160553	-2.996200	3.735000	-11.190000	24.062971	0.001050	20.797890
603.160178	-2.997700	3.733800	-11.192000	24.066037	0.001049	20.828465
604.162064	-2.989400	3.734100	-11.162000	24.070891	0.001050	20.813893
605.160948	-3.014800	3.733100	-11.253000	24.080400	0.001049	20.820584
606.160762	-2.995400	3.733200	-11.181000	24.071442	0.001050	20.819661
607.160977	-2.991000	3.732500	-11.163000	24.033748	0.001050	20.829273
608.161063	-3.009300	3.732300	-11.230000	24.024840	0.001050	20.807538
609.160035	-2.978900	3.732100	-11.117000	24.013869	0.001049	20.826407
610.163222	-3.009400	3.730300	-11.225000	24.034350	0.001050	20.816601
611.162766	-2.982800	3.731100	-11.127000	24.017529	0.001050	20.816802
612.161566	-2.993700	3.730900	-11.168000	24.008127	0.001050	20.823020
613.161672	-2.987800	3.731200	-11.147000	23.976699	0.001050	20.824220
614.162414	-3.014800	3.730800	-11.247000	23.955920	0.001050	20.819977
615.164541	-2.963600	3.731100	-11.057000	23.947187	0.001049	20.813117
616.163339	-3.002300	3.729700	-11.196000	23.936165	0.001049	20.830039
617.164011	-3.003500	3.729900	-11.201000	23.906279	0.001049	20.845114
618.163923	-2.988600	3.729800	-11.146000	23.897152	0.001049	20.826953
619.165536	-3.012800	3.728900	-11.233000	23.908776	0.001050	20.837187
620.166187	-3.010200	3.727200	-11.218000	23.912111	0.001049	20.831522
621.165267	-2.997700	3.728700	-11.176000	23.927672	0.001049	20.839065
622.166559	-3.015100	3.727800	-11.239000	23.961318	0.001048	20.827287
623.165963	-2.994400	3.727900	-11.163000	23.992177	0.001048	20.824568
624.166974	-2.999600	3.728100	-11.181000	23.982900	0.001048	20.822377
625.168342	-2.987500	3.727700	-11.134000	23.995841	0.001048	20.814019
626.168906	-3.017800	3.726500	-11.245000	23.986636	0.001048	20.831813
627.170099	-2.993200	3.726700	-11.154000	24.023769	0.001048	20.848189
628.169264	-3.016100	3.725800	-11.236000	24.024665	0.001047	20.828699
629.169544	-3.013000	3.726200	-11.226000	24.050447	0.001046	20.827054
630.169227	-3.000400	3.726000	-11.179000	24.066203	0.001049	20.830528
631.168494	-2.980800	3.725900	-11.104000	24.082227	0.001048	20.845176
632.167814	-2.990800	3.725700	-11.142000	24.099104	0.001048	20.839816
633.168759	-2.987700	3.725600	-11.130000	24.107860	0.001048	20.839116
634.170967	-2.969100	3.725100	-11.060000	24.106697	0.001047	20.841268
635.171720	-2.980900	3.724300	-11.101000	24.110776	0.001047	20.842988
636.172622	-2.985300	3.724500	-11.118000	24.121703	0.001049	20.844465
637.171085	-3.013200	3.722100	-11.215000	24.078782	0.001047	20.836979
638.171175	-3.008200	3.723000	-11.199000	24.072589	0.001049	20.844993
639.173585	-3.003000	3.721700	-11.175000	24.118648	0.001046	20.840453
640.173195	-2.988700	3.722100	-11.123000	24.105691	0.001047	20.838836
641.173976	-3.005900	3.721900	-11.187000	24.107284	0.001044	20.841857
642.173882	-2.981500	3.721800	-11.096000	24.123211	0.001047	20.837917
643.173135	-2.992800	3.721700	-11.137000	24.114652	0.001045	20.845453
644.173999	-2.999900	3.721700	-11.163000	24.130081	0.001046	20.840065
645.175669	-3.002100	3.722300	-11.174000	24.166189	0.001046	20.848779
646.174485	-3.009800	3.720400	-11.197000	24.189604	0.001047	20.848082
647.174791	-3.000300	3.720000	-11.160000	24.199735	0.001046	20.855399
648.173441	-3.003800	3.720600	-11.175000	24.197995	0.001050	20.847964
649.175049	-3.004400	3.719500	-11.174000	24.214368	0.001046	20.853955
650.174452	-3.044700	3.718800	-11.322000	24.205838	0.001046	20.853934
651.175445	-3.004100	3.719200	-11.172000	24.212137	0.001046	20.852192
652.176229	-2.993500	3.719500	-11.133000	24.237041	0.001044	20.847300
653.175457	-3.012700	3.717800	-11.199000	24.242495	0.001047	20.865098
654.177263	-2.987800	3.718900	-11.111000	24.221972	0.001045	20.843090
655.177961	-2.976300	3.718200	-11.065000	24.167784	0.001045	20.858913
656.177525	-2.987500	3.718700	-11.108000	24.159973	0.001045	20.840648
657.177819	-2.985700	3.718300	-11.101000	24.146220	0.001045	20.862889
658.176884	-3.005300	3.717900	-11.173000	24.138535	0.001046	20.859449
659.176650	-2.986100	3.717700	-11.100000	24.129427	0.001045	20.870702
660.178051	-3.008800	3.715600	-11.179000	24.153842	0.001044	20.840189
661.178946	-2.988400	3.717900	-11.110000	24.128163	0.001043	20.858529
662.177436	-2.967200	3.716700	-11.028000	24.111749	0.001045	20.864826
663.178527	-2.985500	3.716200	-11.093000	24.100725	0.001044	20.849977
664.179256	-3.006600	3.715600	-11.170000	24.118594	0.001045	20.840398
665.179079	-3.006300	3.715100	-11.167000	24.149849	0.001043	20.871270
666.182044	-2.987200	3.716200	-11.100000	24.140498	0.001042	20.877538
667.179160	-3.002100	3.715400	-11.153000	24.150108	0.001042	20.883856
668.189598	-2.986400	3.716700	-11.099000	24.159935	0.001043	20.863369
669.180209	-2.999400	3.713700	-11.138000	24.186563	0.001042	20.857834
670.183318	-2.999000	3.714200	-11.137000	24.209358	0.001043	20.881644
671.180753	-2.988400	3.715200	-11.102000	24.206593	0.001043	20.888354
672.181776	-2.984200	3.714000	-11.083000	24.250734	0.001043	20.875732
673.181448	-2.989500	3.712500	-11.098000	24.248371	0.001041	20.853923
674.182565	-3.001500	3.713000	-11.144000	24.244271	0.001042	20.875413
675.179652	-2.998200	3.711000	-11.124000	24.257109	0.001041	20.860317
676.182363	-3.008000	3.711100	-11.161000	24.247035	0.001040	20.864437
677.181400	-3.011800	3.711900	-11.179000	24.248805	0.001040	20.861944
678.180881	-3.031700	3.710300	-11.248000	24.212481	0.001042	20.878614
679.181618	-3.019700	3.710900	-11.204000	24.226742	0.001043	20.884382
680.182014	-2.994900	3.710000	-11.110000	24.196416	0.001042	20.869139
681.183117	-3.009500	3.711200	-11.168000	24.173675	0.001039	20.870037
682.182289	-3.012300	3.709100	-11.170000	24.145883	0.001041	20.881042
683.183303	-2.986700	3.711300	-11.083000	24.161287	0.001041	20.881793
684.183523	-3.012400	3.710900	-11.177000	24.146732	0.001040	20.866722
685.183841	-2.998800	3.708500	-11.120000	24.182966	0.001040	20.869872
686.184271	-2.992200	3.709800	-11.099000	24.171817	0.001040	20.871966
687.184876	-3.010900	3.708300	-11.164000	24.176971	0.001042	20.888988
688.187596	-3.009600	3.708000	-11.158000	24.184011	0.001040	20.862387
689.183506	-2.989800	3.710000	-11.091000	24.192248	0.001040	20.904785
690.184625	-2.995600	3.709500	-11.111000	24.220616	0.001040	20.878712
691.184818	-2.994100	3.708400	-11.102000	24.243782	0.001040	20.893888
692.185262	-2.989900	3.706000	-11.080000	24.259532	0.001041	20.893565
693.186140	-2.989000	3.706800	-11.078000	24.267593	0.001040	20.908287
694.186013	-2.993000	3.706700	-11.093000	24.289115	0.001038	20.885307
695.187480	-2.973100	3.707500	-11.021000	24.289358	0.001040	20.895034
696.187011	-2.985000	3.706600	-11.062000	24.299539	0.001038	20.887703
697.187359	-3.001300	3.704700	-11.117000	24.290265	0.001040	20.884090
698.188268	-3.007400	3.706300	-11.144000	24.330020	0.001039	20.869917
699.187366	-2.998000	3.705900	-11.109000	24.346986	0.001036	20.871469
700.188282	-2.988700	3.705500	-11.073000	24.340991	0.001039	20.889930
701.187467	-2.997300	3.705900	-11.106000	24.360893	0.001038	20.897093
702.186872	-3.010400	3.704500	-11.150000	24.377687	0.001037	20.882172
703.191796	-2.980000	3.706400	-11.044000	24.354857	0.001036	20.900520
704.188892	-3.008700	3.704300	-11.144000	24.380376	0.001038	20.895775
705.191511	-3.022800	3.702900	-11.193000	24.394555	0.001036	20.903835
706.192921	-2.983200	3.705000	-11.051000	24.382442	0.001036	20.897847
707.190845	-2.998400	3.702700	-11.102000	24.376549	0.001035	20.892409
708.190295	-2.987600	3.702400	-11.060000	24.365030	0.001037	20.886544
709.193651	-2.991000	3.702400	-11.073000	24.364210	0.001036	20.919383
710.191620	-3.022500	3.701800	-11.188000	24.346822	0.001035	20.884400
711.190830	-2.973200	3.703400	-11.009000	24.351724	0.001035	20.888369
712.193472	-2.996700	3.701000	-11.089000	24.356103	0.001034	20.900822
713.194718	-2.985200	3.703400	-11.054000	24.330826	0.001035	20.890165
714.192188	-3.006100	3.700600	-11.123000	24.343048	0.001035	20.910010
715.195926	-3.001100	3.700900	-11.105000	24.333444	0.001033	20.898480
716.191549	-2.997300	3.701300	-11.093000	24.312174	0.001034	20.904169
717.195538	-2.987300	3.701800	-11.058000	24.313295	0.001034	20.907190
718.198015	-3.007000	3.700200	-11.126000	24.315955	0.001035	20.890894
719.191918	-3.011300	3.700400	-11.142000	24.303917	0.001035	20.924808
720.194102	-3.013900	3.700400	-11.150000	24.302227	0.001034	20.912208
721.196362	-3.001100	3.700800	-11.106000	24.327604	0.001035	20.908268
722.193952	-2.991900	3.698300	-11.063000	24.307702	0.001033	20.918648
723.194126	-3.014400	3.698600	-11.148000	24.346887	0.001035	20.949418
724.195578	-3.015900	3.696600	-11.146000	24.375326	0.001033	20.892605
725.194996	-2.964500	3.698800	-10.964000	24.392542	0.001031	20.925994
726.195909	-2.993300	3.698100	-11.069000	24.384335	0.001033	20.914443
727.198666	-3.014100	3.696300	-11.139000	24.397548	0.001032	20.936231
728.195325	-2.980000	3.698200	-11.020000	24.377220	0.001032	20.928167
729.195825	-3.014400	3.695800	-11.139000	24.392223	0.001030	20.919511
730.202036	-3.020100	3.696200	-11.162000	24.391558	0.001034	20.914103
731.195561	-3.021500	3.695200	-11.164000	24.333070	0.001032	20.907587
732.195867	-2.996100	3.695500	-11.071000	24.348471	0.001030	20.902175
733.196932	-3.009300	3.696900	-11.124000	24.382607	0.001033	20.920769
734.196630	-2.993400	3.696200	-11.063000	24.389847	0.001029	20.911438
735.197141	-2.997300	3.694700	-11.072000	24.419054	0.001031	20.934098
736.202412	-3.022600	3.694600	-11.166000	24.387341	0.001029	20.939741
737.199106	-2.998100	3.694200	-11.075000	24.395824	0.001030	20.929286
738.199583	-3.014700	3.694100	-11.135000	24.401048	0.001030	20.932630
739.203341	-2.997600	3.692300	-11.067000	24.406769	0.001031	20.942636
740.201014	-2.981300	3.695300	-11.015000	24.424909	0.001029	20.921956
741.198934	-3.001500	3.694000	-11.088000	24.422872	0.001031	20.942195
742.203939	-3.021000	3.693800	-11.157000	24.420484	0.001030	20.937903
743.200111	-2.998200	3.692800	-11.070000	24.455290	0.001028	20.925882
744.200713	-3.014000	3.692100	-11.127000	24.470485	0.001031	20.955348
745.204453	-3.008600	3.692100	-11.107000	24.461534	0.001028	20.922664
746.200995	-2.985300	3.693900	-11.027000	24.477929	0.001030	20.929155
747.202030	-2.996200	3.692000	-11.060000	24.428681	0.001030	20.926213
748.203897	-3.013200	3.692100	-11.122000	24.437163	0.001028	20.928559
749.202318	-3.001000	3.692700	-11.081000	24.467239	0.001028	20.939291
750.201013	-3.007200	3.691400	-11.099000	24.469229	0.001027	20.953140
751.206734	-2.988200	3.692300	-11.032000	24.480827	0.001027	20.952448
752.202363	-3.006200	3.690500	-11.093000	24.488614	0.001027	20.929918
753.202693	-3.010000	3.690200	-11.107000	24.510454	0.001028	20.960360
754.208285	-3.020700	3.689800	-11.145000	24.505259	0.001028	20.955623
755.202969	-3.004400	3.690000	-11.086000	24.501131	0.001026	20.940578
756.203949	-2.984600	3.690000	-11.012000	24.504891	0.001027	20.931075
757.206841	-3.014900	3.688300	-11.119000	24.478426	0.001024	20.931075
758.206189	-3.001400	3.687300	-11.066000	24.482729	0.001027	20.958149
759.205184	-2.999600	3.689900	-11.067000	24.516936	0.001025	20.958803
760.207349	-2.980400	3.690500	-10.999000	24.489354	0.001026	20.934452
761.205668	-2.995400	3.687800	-11.045000	24.525693	0.001025	20.937720
762.207424	-3.018600	3.687200	-11.129000	24.543977	0.001023	20.938996
763.208496	-3.002600	3.686700	-11.069000	24.538632	0.001024	20.962553
764.207113	-2.991000	3.688600	-11.031000	24.573929	0.001025	20.943443
765.208162	-3.025900	3.685900	-11.151000	24.608103	0.001022	20.959239
766.208753	-2.988100	3.688800	-11.021000	24.608504	0.001024	20.958693
767.207053	-3.010000	3.686900	-11.096000	24.624596	0.001023	20.954926
768.207222	-2.987100	3.687700	-11.014000	24.598735	0.001022	20.953159
769.211110	-3.004800	3.686600	-11.076000	24.546825	0.001024	20.950386
770.207559	-2.992700	3.686800	-11.032000	24.522852	0.001023	20.967109
771.208277	-3.014300	3.684300	-11.103000	24.545415	0.001020	20.963194
772.209895	-3.000600	3.684700	-11.056000	24.525889	0.001021	20.963043
773.209788	-3.019500	3.684400	-11.124000	24.554047	0.001022	20.960476
774.210024	-3.026300	3.682300	-11.143000	24.553750	0.001022	20.981037
775.212708	-3.000400	3.685100	-11.056000	24.585344	0.001020	20.967222
776.212418	-2.993300	3.685000	-11.029000	24.572259	0.001021	20.976376
777.211964	-2.984400	3.684300	-10.992000	24.586340	0.001021	20.957790
778.213872	-3.008500	3.684600	-11.082000	24.595343	0.001019	20.957816
779.212365	-2.997300	3.681700	-11.034000	24.580150	0.001021	20.971018
780.214706	-2.996100	3.682200	-11.030000	24.572393	0.001020	20.984570
781.218277	-3.012200	3.683800	-11.094000	24.547075	0.001020	20.974815
782.213891	-3.020600	3.684000	-11.126000	24.538246	0.001019	20.986344
783.213294	-3.012200	3.682700	-11.092000	24.548622	0.001019	20.961197
784.218517	-3.000100	3.681200	-11.042000	24.542332	0.001018	20.983806
785.216204	-2.996200	3.681800	-11.031000	24.541311	0.001018	20.969982
786.214826	-3.011800	3.681000	-11.085000	24.553874	0.001019	20.971207
787.219585	-2.995800	3.681600	-11.028000	24.558750	0.001017	20.976573
788.217128	-2.982200	3.682300	-10.979000	24.571309	0.001019	20.971156
789.215704	-2.986000	3.681500	-10.993000	24.555769	0.001017	20.983537
790.218870	-2.990000	3.681300	-11.006000	24.572037	0.001018	20.960034
791.216680	-2.983900	3.681100	-10.983000	24.570519	0.001020	20.955667
792.216788	-2.981400	3.680300	-10.972000	24.611087	0.001017	20.961758
793.220561	-2.989000	3.680100	-10.999000	24.604279	0.001015	20.978158
794.219422	-2.971700	3.680900	-10.938000	24.605124	0.001017	20.974739
795.217742	-3.002800	3.679200	-11.047000	24.600971	0.001016	20.985269
796.218749	-3.014400	3.679100	-11.090000	24.593611	0.001017	20.973145
797.220849	-3.011900	3.679300	-11.080000	24.606746	0.001015	20.956455
798.219738	-3.002800	3.678300	-11.043000	24.621173	0.001016	20.957655
799.218475	-3.009400	3.679300	-11.072000	24.648932	0.001017	20.967015
800.218391	-2.987000	3.677800	-10.985000	24.658232	0.001016	20.951693
801.218342	-2.988600	3.677200	-10.988000	24.652365	0.001015	20.963348
802.219347	-3.003000	3.677100	-11.041000	24.631573	0.001018	20.951496
803.221977	-2.987000	3.678000	-10.985000	24.642743	0.001015	20.963176
804.218767	-3.001700	3.676400	-11.035000	24.588701	0.001013	20.950204
805.221428	-3.001400	3.678000	-11.038000	24.615243	0.001013	20.962135
806.217896	-3.009400	3.674500	-11.056000	24.639715	0.001013	20.946390
807.218776	-2.996100	3.677400	-11.017000	24.642475	0.001012	20.954374
808.218040	-2.986100	3.675800	-10.974000	24.636361	0.001013	20.947766
809.220543	-2.995500	3.676000	-11.010000	24.652875	0.001014	20.947267
810.217645	-2.988600	3.677700	-10.990000	24.647652	0.001012	20.941552
811.218038	-2.995800	3.675800	-11.011000	24.645812	0.001011	20.929750
812.219971	-3.002900	3.676000	-11.036000	24.610028	0.001012	20.930354
813.222421	-2.993600	3.674500	-10.999000	24.597395	0.001012	20.945177
814.219909	-2.989200	3.674700	-10.983000	24.582202	0.001011	20.936572
815.218058	-2.993400	3.674200	-10.997000	24.582307	0.001012	20.943314
816.219861	-2.984500	3.673400	-10.962000	24.581462	0.001011	20.945311
817.218894	-3.018200	3.672100	-11.081000	24.552736	0.001010	20.911277
818.219464	-2.989300	3.673800	-10.980000	24.591264	0.001010	20.920536
819.221966	-2.994300	3.673600	-11.000000	24.585447	0.001008	20.945991
820.220590	-3.024700	3.670900	-11.102000	24.627533	0.001007	20.932745
821.223625	-3.008800	3.671800	-11.046000	24.648852	0.001012	20.935645
822.220928	-2.994900	3.673200	-11.000000	24.653326	0.001010	20.932548
823.221936	-3.000100	3.671700	-11.014000	24.700507	0.001009	20.934847
824.223588	-2.997200	3.669700	-10.997000	24.680862	0.001008	20.935997
825.224276	-3.016900	3.670500	-11.071000	24.672285	0.001007	20.934977
826.221145	-3.007900	3.670600	-11.040000	24.647518	0.001008	20.943788
827.230720	-3.007500	3.669800	-11.035000	24.638192	0.001006	20.929691
828.224166	-3.019900	3.670500	-11.084000	24.642771	0.001006	20.908684
829.223069	-2.997900	3.669500	-11.000000	24.648964	0.001006	20.916794
830.229309	-2.984300	3.670000	-10.951000	24.604746	0.001007	20.930744
831.223841	-2.983300	3.670600	-10.949000	24.600272	0.001006	20.912506
832.226497	-2.991700	3.670200	-10.978000	24.590080	0.001006	20.925038
833.223949	-2.966600	3.670300	-10.887000	24.590231	0.001005	20.904328
834.225478	-3.007700	3.668400	-11.032000	24.559238	0.001005	20.924438
835.228394	-2.995200	3.668600	-10.986000	24.545885	0.001003	20.908671
836.224748	-2.992000	3.668900	-10.975000	24.520964	0.001004	20.913064
837.224233	-3.001300	3.667500	-11.006000	24.489233	0.001003	20.923901
838.224961	-2.994700	3.667400	-10.982000	24.525447	0.001005	20.929414
839.224887	-3.019200	3.667800	-11.072000	24.548311	0.001004	20.921061
840.227809	-2.990700	3.667100	-10.966000	24.562709	0.001004	20.920809
841.229037	-2.989700	3.667800	-10.964000	24.593928	0.001002	20.918942
842.226609	-2.982400	3.666300	-10.931000	24.637302	0.001001	20.931168
843.226710	-3.016400	3.665700	-11.056000	24.663174	0.001002	20.922516
844.228302	-3.020200	3.665100	-11.067000	24.637904	0.001003	20.918971
845.228632	-2.988900	3.666800	-10.958000	24.614925	0.001003	20.908243
846.232333	-2.990900	3.666100	-10.963000	24.620052	0.001002	20.884466
847.235327	-3.005800	3.665500	-11.017000	24.606996	0.001002	20.926838
848.230035	-2.993900	3.665300	-10.973000	24.583368	0.001001	20.888909
849.230489	-2.983400	3.664600	-10.932000	24.567381	0.001001	20.902264
850.229560	-3.014700	3.663700	-11.043000	24.594442	0.001000	20.908079
851.230586	-3.006900	3.664400	-11.017000	24.623544	0.000998	20.892237
852.233697	-3.015600	3.663600	-11.046000	24.616535	0.001001	20.907014
853.231248	-2.996800	3.663300	-10.977000	24.608025	0.000998	20.903691
854.230359	-3.005800	3.662400	-11.007000	24.628449	0.000998	20.901899
855.230876	-3.023000	3.661000	-11.066000	24.656876	0.001000	20.895337
856.231178	-3.031600	3.661400	-11.098000	24.663069	0.000998	20.920989
857.233073	-3.003700	3.661400	-10.997000	24.697839	0.000998	20.898035
858.231768	-3.034900	3.661100	-11.111000	24.674887	0.001000	20.892073
859.238923	-3.000800	3.660400	-10.983000	24.662430	0.000997	20.892849
860.232886	-3.003500	3.662000	-10.998000	24.612491	0.000998	20.884940
861.233049	-3.007000	3.661300	-11.009000	24.598265	0.000998	20.902906
862.236001	-2.984100	3.661700	-10.926000	24.561731	0.000996	20.901337
863.232896	-3.003800	3.660000	-10.993000	24.592080	0.000997	20.897175
864.236448	-2.957400	3.662700	-10.830000	24.588400	0.000995	20.902965
865.233163	-2.991700	3.660900	-10.950000	24.595693	0.000997	20.906016
866.233661	-2.975900	3.660800	-10.892000	24.619120	0.000994	20.880686
867.234405	-2.989300	3.660500	-10.942000	24.609226	0.000995	20.890672
868.238768	-3.009200	3.660200	-11.013000	24.632903	0.000995	20.891196
869.234505	-2.992700	3.660400	-10.954000	24.677743	0.000993	20.907740
870.233669	-3.003700	3.660200	-10.992000	24.683739	0.000993	20.892422
871.234845	-3.006600	3.658100	-10.997000	24.701720	0.000993	20.880120
872.236900	-2.975900	3.660600	-10.892000	24.730371	0.000994	20.883267
873.240849	-3.013400	3.656800	-11.018000	24.711647	0.000994	20.891029
874.238655	-3.019300	3.656400	-11.038000	24.734180	0.000992	20.902261
875.239503	-2.999100	3.657700	-10.969000	24.734628	0.000994	20.910295
876.243498	-2.998800	3.656000	-10.961000	24.755125	0.000992	20.910002
877.238921	-2.986500	3.656200	-10.917000	24.746695	0.000992	20.896328
878.241130	-2.997700	3.656500	-10.959000	24.711283	0.000992	20.881182
879.240988	-3.010000	3.655500	-11.001000	24.715565	0.000992	20.890219
880.241873	-3.006900	3.656000	-10.992000	24.696514	0.000993	20.900025
881.241282	-3.000200	3.656000	-10.966000	24.674235	0.000992	20.888100
882.240460	-2.993600	3.656000	-10.943000	24.689506	0.000990	20.893467
883.242240	-2.983400	3.656400	-10.908000	24.684610	0.000990	20.895191
884.245522	-3.000700	3.654900	-10.966000	24.691003	0.000991	20.883116
885.242558	-2.995200	3.655500	-10.947000	24.693541	0.000990	20.878077
886.243509	-2.998500	3.654600	-10.957000	24.712764	0.000988	20.892150
887.244378	-2.992300	3.655500	-10.937000	24.706851	0.000987	20.879579
888.243556	-2.987100	3.655100	-10.916000	24.701854	0.000988	20.885470
889.244246	-3.017700	3.654000	-11.025000	24.723494	0.000989	20.862616
890.247649	-3.006000	3.654900	-10.986000	24.757760	0.000989	20.908379
891.243928	-3.002100	3.654500	-10.970000	24.719120	0.000990	20.889045
892.245986	-2.985700	3.654000	-10.909000	24.696615	0.000988	20.895859
893.249442	-3.002300	3.652900	-10.967000	24.672990	0.000988	20.880213
894.247034	-3.003100	3.652700	-10.968000	24.654645	0.000987	20.876030
895.243739	-2.998700	3.653000	-10.953000	24.657300	0.000986	20.856885
896.245969	-2.999800	3.650700	-10.950000	24.611318	0.000985	20.887082
897.248440	-2.999700	3.650500	-10.950000	24.647105	0.000987	20.864672
898.246106	-2.993600	3.651200	-10.929000	24.669247	0.000986	20.885941
899.246589	-3.009000	3.650300	-10.982000	24.677698	0.000986	20.885886
900.247016	-3.014900	3.651200	-11.007000	24.673600	0.000988	20.878456
901.247221	-3.011300	3.649900	-10.990000	24.687650	0.000985	20.888286
902.247057	-3.004500	3.651200	-10.969000	24.686931	0.000984	20.873341
903.247342	-2.991500	3.650100	-10.918000	24.726024	0.000983	20.868000
904.252954	-2.983900	3.649900	-10.890000	24.737795	0.000984	20.863217
905.248537	-3.011800	3.649200	-10.989000	24.754353	0.000984	20.878884
906.248094	-3.004400	3.649700	-10.964000	24.735508	0.000983	20.877042
907.249485	-3.001500	3.648500	-10.950000	24.738865	0.000983	20.878515
908.248335	-3.006600	3.647500	-10.965000	24.768682	0.000982	20.888047
909.252816	-2.988900	3.648300	-10.903000	24.767219	0.000981	20.875200
910.249566	-2.986400	3.649300	-10.897000	24.783458	0.000982	20.871583
911.256251	-3.009100	3.648200	-10.977000	24.815043	0.000982	20.882891
912.249173	-2.997600	3.646500	-10.929000	24.815264	0.000982	20.871260
913.249404	-2.992400	3.647200	-10.912000	24.815390	0.000980	20.875653
914.252083	-3.011200	3.646400	-10.979000	24.818918	0.000981	20.887255
915.250276	-2.993600	3.646600	-10.914000	24.856376	0.000979	20.864157
916.250581	-3.005600	3.646500	-10.958000	24.871022	0.000979	20.880752
917.250544	-2.988200	3.646700	-10.896000	24.815745	0.000980	20.885493
918.250561	-2.990700	3.645700	-10.902000	24.813162	0.000978	20.850659
919.250126	-3.003600	3.645200	-10.947000	24.775540	0.000979	20.852732
920.252472	-3.006900	3.645400	-10.961000	24.758439	0.000979	20.864968
921.251802	-3.021000	3.643600	-11.007000	24.756097	0.000978	20.865462
922.254317	-3.013800	3.642600	-10.977000	24.753438	0.000978	20.863742
923.252691	-2.996500	3.645000	-10.922000	24.758660	0.000977	20.859500
924.252160	-3.000700	3.644900	-10.936000	24.792060	0.000977	20.867888
925.255558	-3.016600	3.642100	-10.985000	24.788853	0.000977	20.873204
926.252688	-3.003200	3.643100	-10.940000	24.788632	0.000976	20.869189
927.254600	-2.988800	3.643100	-10.887000	24.785872	0.000977	20.864523
928.251993	-3.010200	3.641800	-10.962000	24.801162	0.000976	20.858057
929.252453	-3.003600	3.642800	-10.941000	24.785826	0.000977	20.865425
930.253135	-2.968900	3.644800	-10.820000	24.793883	0.000976	20.853597
931.255923	-3.012100	3.642600	-10.971000	24.825162	0.000975	20.873607
932.255207	-2.976100	3.644300	-10.845000	24.845979	0.000975	20.887860
933.253500	-2.995400	3.640100	-10.903000	24.842848	0.000974	20.880450
934.253411	-3.003200	3.641700	-10.936000	24.833821	0.000973	20.879926
935.253629	-2.983100	3.642900	-10.867000	24.834615	0.000974	20.864603
936.257814	-3.019500	3.640300	-10.990000	24.835861	0.000975	20.865853
937.255948	-2.994700	3.640200	-10.899000	24.877691	0.000973	20.849041
938.265177	-2.998500	3.640400	-10.915000	24.884406	0.000973	20.876167
939.253936	-3.007300	3.639600	-10.945000	24.877792	0.000971	20.862891
940.266192	-2.991600	3.640400	-10.889000	24.914917	0.000974	20.849419
941.253364	-3.002800	3.640500	-10.931000	24.918354	0.000972	20.862351
942.254347	-3.006200	3.640800	-10.945000	24.934290	0.000970	20.871707
943.254148	-3.012200	3.637800	-10.957000	24.914449	0.000970	20.866018
944.254797	-2.999000	3.640000	-10.915000	24.899457	0.000969	20.877523
945.254851	-3.005700	3.640100	-10.939000	24.872930	0.000970	20.868443
946.253918	-3.005200	3.639600	-10.937000	24.816262	0.000969	20.858512
947.255650	-3.021500	3.637100	-10.988000	24.771929	0.000971	20.867126
948.254838	-2.992900	3.637100	-10.885000	24.778966	0.000969	20.851903
949.253472	-3.018400	3.637100	-10.976000	24.777453	0.000968	20.867927
950.264472	-2.966800	3.640100	-10.798000	24.768581	0.000968	20.857128
951.254749	-3.020100	3.636700	-10.982000	24.787601	0.000969	20.862465
952.257370	-2.989800	3.638600	-10.878000	24.820452	0.000966	20.851812
953.256736	-3.008900	3.636500	-10.940000	24.836892	0.000969	20.843181
954.258640	-2.990100	3.637900	-10.877000	24.813620	0.000967	20.853490
955.256607	-3.007800	3.634800	-10.932000	24.780050	0.000965	20.861525
956.257410	-2.995500	3.637300	-10.895000	24.754988	0.000966	20.859134
957.259595	-2.992100	3.635800	-10.877000	24.762794	0.000967	20.853218
958.259421	-3.018400	3.634100	-10.968000	24.758597	0.000966	20.840945
959.255551	-3.003100	3.635900	-10.917000	24.789086	0.000964	20.859688
960.257003	-3.001700	3.634600	-10.910000	24.747010	0.000964	20.847335
961.259156	-2.993700	3.635800	-10.882000	24.756259	0.000964	20.855194
962.257128	-2.992500	3.635100	-10.877000	24.720455	0.000963	20.855774
963.261792	-2.996400	3.632900	-10.885000	24.719514	0.000964	20.851985
964.258166	-3.011700	3.634000	-10.944000	24.709190	0.000966	20.840203
965.260132	-3.005200	3.633000	-10.916000	24.683156	0.000963	20.866234
966.258262	-3.018500	3.631800	-10.962000	24.679225	0.000965	20.839057
967.260520	-2.988600	3.632700	-10.856000	24.680371	0.000961	20.841155
968.264005	-3.003200	3.632500	-10.907000	24.721479	0.000964	20.827405
969.261617	-2.996200	3.632400	-10.882000	24.744009	0.000962	20.858073
970.261252	-3.000600	3.632800	-10.900000	24.766592	0.000962	20.839486
971.271672	-2.980400	3.633400	-10.828000	24.807927	0.000960	20.835924
972.262962	-3.027500	3.630600	-10.990000	24.793603	0.000960	20.853315
973.262303	-3.019300	3.629500	-10.957000	24.779826	0.000960	20.820050
974.264272	-3.014200	3.630300	-10.942000	24.803424	0.000958	20.820499
975.262949	-2.996000	3.631500	-10.880000	24.805017	0.000958	20.840115
976.263029	-2.999600	3.631200	-10.891000	24.826675	0.000958	20.820600
977.263928	-2.994400	3.630000	-10.869000	24.852413	0.000960	20.836948
978.264101	-2.987400	3.629300	-10.840000	24.851794	0.000957	20.819732
979.267370	-3.020700	3.627700	-10.957000	24.870341	0.000958	20.844034
980.263444	-2.983600	3.629700	-10.827000	24.874643	0.000958	20.836973
981.267958	-2.985400	3.628600	-10.831000	24.917809	0.000957	20.850425
982.262747	-3.008400	3.627500	-10.911000	24.941952	0.000955	20.835303
983.263088	-2.991000	3.627700	-10.848000	24.966667	0.000955	20.828342
984.266199	-2.988700	3.627100	-10.839000	24.988251	0.000955	20.833411
985.268924	-3.006100	3.627800	-10.905000	25.004412	0.000955	20.841572
986.263836	-3.004900	3.628300	-10.902000	24.956028	0.000956	20.822879
987.262344	-2.996800	3.627800	-10.871000	24.969581	0.000955	20.828896
988.262794	-3.006000	3.628200	-10.904000	24.995864	0.000954	20.831569
989.263798	-3.027800	3.626600	-10.980000	24.992657	0.000954	20.825506
990.267080	-2.990100	3.625300	-10.839000	25.037085	0.000954	20.838333
991.265640	-3.019700	3.625300	-10.947000	25.030201	0.000953	20.815302
992.270104	-3.004500	3.624800	-10.889000	25.016059	0.000952	20.800633
993.266593	-2.996800	3.624600	-10.861000	25.028341	0.000952	20.822918
994.266952	-3.003300	3.625200	-10.887000	25.032868	0.000953	20.831255
995.270325	-3.001100	3.624100	-10.874000	25.005003	0.000953	20.830785
996.267486	-3.018500	3.624100	-10.938000	24.993967	0.000951	20.820657
997.266597	-3.004600	3.623200	-10.885000	24.958789	0.000952	20.834184
998.267864	-3.014300	3.622700	-10.919000	24.935616	0.000951	20.800021
999.267735	-3.000300	3.623400	-10.870000	24.941988	0.000951	20.819218
1000.268399	-2.984000	3.623700	-10.813000	24.924086	0.000952	20.803622
1001.271091	-2.991900	3.622000	-10.836000	24.897510	0.000950	20.826259
1002.268006	-2.974700	3.622900	-10.776000	24.948510	0.000949	20.811540
1003.267869	-3.020400	3.621800	-10.937000	24.954731	0.000952	20.824896
1004.269275	-3.008700	3.622100	-10.897000	24.980491	0.000950	20.825148
1005.268477	-3.037500	3.619400	-10.992000	24.949815	0.000949	20.840824
1006.277941	-3.013500	3.621500	-10.912000	24.939493	0.000951	20.830939
1007.268932	-3.004000	3.620700	-10.876000	24.935196	0.000946	20.810030
1008.269506	-3.012300	3.621500	-10.908000	24.919958	0.000946	20.821288
1009.269948	-3.031700	3.620300	-10.975000	24.925410	0.000948	20.825338
1010.270883	-3.028300	3.620200	-10.962000	24.913403	0.000946	20.817555
1011.273547	-2.977900	3.620700	-10.781000	24.929194	0.000946	20.815860
1012.271810	-3.018900	3.619800	-10.926000	24.932580	0.000946	20.824474
1013.272377	-3.007400	3.619400	-10.883000	24.916071	0.000945	20.796999
1014.272607	-2.988600	3.618900	-10.815000	24.912100	0.000946	20.801548
1015.272844	-2.999200	3.618800	-10.851000	24.896042	0.000944	20.817200
1016.272036	-3.011700	3.617400	-10.894000	24.863152	0.000943	20.809320
1017.272691	-3.004200	3.618400	-10.870000	24.834559	0.000943	20.823297
1018.272875	-2.977600	3.618700	-10.773000	24.842118	0.000945	20.818556
1019.274041	-3.016100	3.616800	-10.908000	24.855949	0.000943	20.803988
1020.273642	-2.986200	3.617900	-10.803000	24.887577	0.000942	20.804911
1021.274967	-2.981800	3.618000	-10.787000	24.919958	0.000942	20.822237
1022.280413	-2.996400	3.616900	-10.836000	24.938683	0.000942	20.817323
1023.275781	-2.995900	3.617100	-10.836000	24.943236	0.000943	20.819522
1024.276205	-2.991700	3.618000	-10.823000	24.948859	0.000941	20.818054
1025.274473	-3.005400	3.615100	-10.864000	24.984489	0.000940	20.800238
1026.275088	-2.982200	3.616100	-10.783000	25.025908	0.000939	20.807673
1027.279845	-3.014100	3.614700	-10.894000	25.040882	0.000941	20.792833
1028.276593	-2.981200	3.616000	-10.779000	25.032651	0.000938	20.812545
1029.276629	-3.010200	3.614500	-10.879000	25.016791	0.000940	20.809428
1030.278587	-2.995400	3.616400	-10.832000	24.976618	0.000937	20.806088
1031.288929	-3.004100	3.613200	-10.853000	24.976669	0.000938	20.808509
1032.280512	-3.003000	3.613100	-10.849000	24.953772	0.000939	20.808287
1033.277669	-2.986500	3.613900	-10.793000	24.958647	0.000936	20.821714
1034.279646	-3.024000	3.612200	-10.922000	24.941495	0.000935	20.808766
1035.278400	-2.987200	3.613800	-10.794000	24.962581	0.000936	20.807646
1036.277999	-2.990100	3.613000	-10.802000	24.982593	0.000936	20.790748
1037.280272	-2.990100	3.614000	-10.805000	25.010639	0.000937	20.805149
1038.279287	-3.016000	3.610600	-10.888000	25.060463	0.000936	20.802531
1039.279665	-2.973800	3.612200	-10.739000	25.050820	0.000934	20.798541
1040.280178	-2.992900	3.611100	-10.806000	25.063201	0.000934	20.796271
1041.280407	-3.002900	3.611200	-10.843000	25.102853	0.000934	20.803358
1042.280217	-2.978700	3.612400	-10.759000	25.126650	0.000934	20.816341
1043.283178	-2.988900	3.611600	-10.793000	25.117897	0.000934	20.804235
1044.283222	-2.993500	3.611100	-10.808000	25.091371	0.000932	20.812220
1045.282247	-3.016900	3.610000	-10.890000	25.056146	0.000933	20.787292
1046.283108	-3.020700	3.608700	-10.900000	25.022286	0.000932	20.798823
1047.282886	-3.010600	3.609400	-10.865000	25.012517	0.000934	20.794707
1048.284485	-3.003100	3.609700	-10.839000	25.026392	0.000931	20.795357
1049.282356	-3.003700	3.609800	-10.842000	25.065773	0.000931	20.788421
1050.287024	-3.012600	3.607900	-10.867000	25.013341	0.000930	20.818767
1051.283378	-3.008800	3.608100	-10.855000	25.032261	0.000929	20.802197
1052.283926	-2.998300	3.609000	-10.820000	25.022446	0.000929	20.809889
1053.290835	-2.999900	3.607600	-10.821000	25.056080	0.000929	20.811407
1054.286397	-2.996200	3.607600	-10.808000	25.059863	0.000930	20.806196
1055.283986	-2.997300	3.607900	-10.812000	25.088902	0.000929	20.802156
1056.285826	-2.983800	3.606400	-10.760000	25.066009	0.000927	20.794821
1057.285324	-2.997600	3.606900	-10.811000	25.056386	0.000928	20.797964
1058.285479	-3.009900	3.605300	-10.851000	25.050571	0.000926	20.800188
1059.287195	-2.980600	3.606600	-10.749000	25.055249	0.000928	20.804884
1060.284758	-3.008400	3.605300	-10.844000	25.067501	0.000926	20.813863
1061.289280	-2.987300	3.606800	-10.774000	25.097384	0.000926	20.792178
1062.287401	-3.027100	3.604600	-10.910000	25.092565	0.000925	20.811048
1063.287657	-3.028500	3.604900	-10.915000	25.146285	0.000925	20.800965
1064.292720	-3.015300	3.603800	-10.866000	25.174824	0.000923	20.811598
1065.289094	-3.011400	3.602900	-10.849000	25.177215	0.000924	20.807834
1066.288264	-2.994900	3.603300	-10.791000	25.182586	0.000923	20.796157
1067.288084	-2.981600	3.603200	-10.743000	25.162403	0.000922	20.805766
1068.289612	-3.019600	3.604200	-10.882000	25.171552	0.000923	20.798830
1069.288843	-2.999700	3.602700	-10.805000	25.174808	0.000924	20.789297
1070.290298	-2.987600	3.603800	-10.766000	25.167975	0.000924	20.787178
1071.290270	-3.015300	3.602300	-10.860000	25.175928	0.000922	20.799904
1072.294538	-2.989300	3.601500	-10.765000	25.182917	0.000920	20.808343
1073.289235	-3.003000	3.601900	-10.816000	25.182495	0.000920	20.799859
1074.292437	-2.991100	3.602200	-10.773000	25.183736	0.000920	20.822916
1075.296797	-3.002000	3.600600	-10.808000	25.168798	0.000919	20.810290
1076.292207	-2.999300	3.601700	-10.801000	25.199477	0.000920	20.796519
1077.291999	-3.000900	3.600300	-10.804000	25.214540	0.000919	20.782718
1078.293044	-2.990000	3.599700	-10.761000	25.181952	0.000920	20.799788
1079.294159	-2.999900	3.599600	-10.798000	25.187524	0.000919	20.784519
1080.293910	-3.011400	3.598800	-10.835000	25.160377	0.000918	20.808948
1081.293538	-2.970500	3.600900	-10.695000	25.142288	0.000918	20.814496
1082.294022	-2.993200	3.599300	-10.772000	25.145639	0.000917	20.805533
1083.294345	-3.003900	3.598400	-10.809000	25.136394	0.000916	20.811898
1084.292128	-3.013900	3.598800	-10.846000	25.133063	0.000917	20.817089
1085.294201	-3.014800	3.596800	-10.843000	25.123098	0.000915	20.819414
1086.295409	-3.004400	3.598700	-10.810000	25.078849	0.000915	20.817194
1087.292635	-2.991400	3.598800	-10.763000	25.062860	0.000915	20.817265
1088.297608	-2.987700	3.597000	-10.745000	25.059679	0.000915	20.819288
1089.292627	-2.984500	3.597100	-10.734000	25.052297	0.000914	20.829421
1090.293152	-3.015400	3.595600	-10.840000	25.052795	0.000913	20.801946
1091.296121	-2.991100	3.596200	-10.756000	25.049116	0.000914	20.800150
1092.297398	-3.007000	3.594500	-10.808000	25.029277	0.000913	20.807262
1093.294782	-2.990900	3.595600	-10.752000	25.080789	0.000911	20.817245
1094.294282	-3.026500	3.593400	-10.874000	25.071694	0.000911	20.818072
1095.294082	-2.976500	3.594700	-10.698000	25.111867	0.000912	20.823312
1096.299436	-3.013200	3.594700	-10.830000	25.095260	0.000911	20.801426
1097.296287	-3.014600	3.593700	-10.832000	25.093200	0.000911	20.800306
1098.297639	-3.009300	3.593000	-10.811000	25.158411	0.000908	20.815509
1099.296332	-3.029600	3.592600	-10.883000	25.154486	0.000909	20.832905
1100.297560	-3.006500	3.593600	-10.803000	25.166018	0.000908	20.833576
1101.297864	-3.008000	3.592600	-10.806000	25.199108	0.000909	20.835503
1102.298405	-3.007800	3.593000	-10.807000	25.235499	0.000909	20.825097
1103.297779	-3.019900	3.592200	-10.846000	25.250069	0.000908	20.818388
1104.299794	-2.995900	3.593100	-10.763000	25.251712	0.000907	20.806287
1105.299710	-2.985400	3.592000	-10.722000	25.269884	0.000906	20.832592
1106.300201	-2.986500	3.591600	-10.726000	25.273617	0.000906	20.824486
1107.302489	-3.013500	3.591400	-10.821000	25.268522	0.000905	20.845449
1108.299128	-3.003000	3.591300	-10.784000	25.307197	0.000905	20.817898
1109.303134	-3.014800	3.590200	-10.823000	25.283765	0.000905	20.830407
1110.300158	-3.003200	3.591500	-10.784000	25.258810	0.000903	20.819103
1111.299651	-2.988900	3.590100	-10.730000	25.263960	0.000905	20.795824
1112.300514	-3.024400	3.588600	-10.851000	25.238859	0.000903	20.805711
1113.300106	-2.985000	3.591000	-10.718000	25.211371	0.000904	20.827899
1114.301629	-2.979900	3.589500	-10.695000	25.213436	0.000902	20.838033
1115.301306	-2.981300	3.588900	-10.698000	25.193705	0.000902	20.822966
1116.304417	-3.019200	3.588100	-10.832000	25.163256	0.000900	20.828434
1117.305942	-3.006000	3.587700	-10.784000	25.161070	0.000901	20.838567
1118.302711	-3.006600	3.586100	-10.781000	25.201989	0.000901	20.823223
1119.303601	-2.999400	3.586600	-10.757000	25.228241	0.000898	20.829664
1120.303342	-3.000000	3.587600	-10.761000	25.254417	0.000899	20.820857
1121.302971	-3.029700	3.586700	-10.865000	25.293494	0.000901	20.830218
1122.309691	-2.984100	3.586700	-10.702000	25.294067	0.000900	20.825104
1123.303259	-3.019100	3.585400	-10.823000	25.266530	0.000899	20.840130
1124.307865	-2.992700	3.586000	-10.731000	25.260541	0.000898	20.836014
1125.304981	-3.005100	3.585700	-10.774000	25.285354	0.000895	20.837693
1126.305163	-2.969900	3.587500	-10.654000	25.315327	0.000898	20.831277
1127.308394	-3.000000	3.585700	-10.755000	25.313689	0.000898	20.837219
1128.304762	-2.995700	3.585200	-10.739000	25.303752	0.000897	20.842414
1129.306757	-2.984400	3.585100	-10.699000	25.264530	0.000898	20.831484
1130.307662	-3.016100	3.583700	-10.808000	25.238560	0.000896	20.835756
1131.308434	-2.995500	3.585700	-10.740000	25.191557	0.000893	20.823181
1132.308573	-3.005000	3.584500	-10.770000	25.165209	0.000895	20.842721
1133.312630	-3.010200	3.582100	-10.781000	25.181071	0.000892	20.838731
1134.310252	-3.001000	3.583500	-10.753000	25.166580	0.000896	20.841253
1135.310570	-3.006000	3.583800	-10.771000	25.173097	0.000894	20.814131
1136.312303	-2.986300	3.582700	-10.698000	25.162083	0.000893	20.860919
1137.310241	-2.997900	3.582400	-10.738000	25.173554	0.000893	20.845883
1138.313497	-3.009800	3.581500	-10.779000	25.162716	0.000893	20.845434
1139.311638	-2.984200	3.581900	-10.689000	25.200203	0.000890	20.841817
1140.314722	-2.998300	3.582400	-10.740000	25.191310	0.000890	20.838105
1141.311409	-2.982300	3.582100	-10.682000	25.247265	0.000890	20.844021
1142.314340	-3.017700	3.580400	-10.803000	25.263448	0.000890	20.839406
1143.315963	-3.017800	3.580800	-10.805000	25.279439	0.000889	20.857831
1144.315000	-2.994600	3.580800	-10.721000	25.317590	0.000889	20.855360
1145.313452	-3.002100	3.579500	-10.745000	25.318987	0.000888	20.841589
1146.314013	-3.010100	3.577700	-10.768000	25.327487	0.000887	20.861977
1147.315402	-2.984200	3.581900	-10.687000	25.297912	0.000887	20.854568
1148.317159	-2.987600	3.579300	-10.693000	25.320333	0.000886	20.879449
1149.317541	-3.004600	3.578200	-10.750000	25.322126	0.000885	20.853750
1150.317884	-3.014600	3.577500	-10.783000	25.325236	0.000886	20.862562
1151.324766	-3.005300	3.576800	-10.748000	25.314103	0.000886	20.843324
1152.321430	-3.003800	3.577000	-10.743000	25.313731	0.000884	20.858597
1153.319506	-2.998600	3.577200	-10.725000	25.285201	0.000883	20.872150
1154.321757	-3.006400	3.577100	-10.753000	25.270093	0.000885	20.852242
1155.320101	-3.007600	3.576200	-10.755000	25.256302	0.000884	20.861628
1156.318907	-2.984400	3.576400	-10.672000	25.257493	0.000883	20.867091
1157.320076	-3.012900	3.576000	-10.773000	25.283944	0.000883	20.866147
1158.320895	-2.982800	3.575700	-10.664000	25.301839	0.000882	20.865623
1159.320383	-2.992000	3.575000	-10.695000	25.342879	0.000883	20.874112
1160.324514	-3.013600	3.573900	-10.770000	25.388237	0.000881	20.858965
1161.320235	-3.004600	3.573600	-10.736000	25.391693	0.000879	20.867176
1162.321537	-3.022600	3.574300	-10.802000	25.404076	0.000881	20.875342
1163.321362	-3.012600	3.573600	-10.766000	25.419558	0.000880	20.870026
1164.321299	-3.011000	3.573500	-10.758000	25.446327	0.000880	20.878414
1165.324221	-2.978700	3.572700	-10.641000	25.463104	0.000879	20.874873
1166.321620	-3.000400	3.571700	-10.714000	25.436762	0.000878	20.850793
1167.321427	-3.004600	3.571100	-10.728000	25.456172	0.000877	20.886403
1168.321725	-3.009400	3.570900	-10.745000	25.465370	0.000875	20.880940
1169.322118	-3.013600	3.572800	-10.766000	25.478570	0.000876	20.877127
1170.325053	-3.022200	3.572500	-10.796000	25.473306	0.000874	20.858091
1171.327412	-2.953500	3.573000	-10.551000	25.443212	0.000875	20.871493
1172.322409	-3.001800	3.571000	-10.718000	25.462868	0.000878	20.867998
1173.322753	-2.987100	3.570800	-10.664000	25.472216	0.000874	20.880229
1174.322828	-2.994600	3.571500	-10.694000	25.439540	0.000872	20.877288
1175.323345	-2.982100	3.570600	-10.646000	25.429473	0.000874	20.872870
1176.324619	-2.977700	3.571500	-10.634000	25.430769	0.000873	20.873697
1177.323817	-2.996100	3.570700	-10.697000	25.410073	0.000872	20.878519
1178.323218	-3.013600	3.569600	-10.756000	25.436837	0.000872	20.865566
1179.324961	-3.010100	3.568100	-10.739000	25.447305	0.000873	20.874181
1180.325116	-2.992800	3.568400	-10.678000	25.451882	0.000872	20.892999
1181.328269	-2.978600	3.568800	-10.628000	25.447557	0.000871	20.874433
1182.324960	-2.988300	3.569300	-10.665000	25.436676	0.000870	20.890533
1183.326643	-3.016400	3.566400	-10.757000	25.382845	0.000870	20.910920
1184.326201	-3.007600	3.567000	-10.727000	25.355713	0.000870	20.866136
1185.328398	-3.030200	3.567200	-10.808000	25.335457	0.000869	20.881358
1186.331048	-2.982200	3.567300	-10.638000	25.342320	0.000869	20.897256
1187.329124	-3.004400	3.567000	-10.716000	25.341506	0.000868	20.894542
1188.331141	-2.996700	3.566900	-10.688000	25.331739	0.000868	20.874306
1189.331811	-3.022300	3.567000	-10.780000	25.320853	0.000868	20.897987
1190.331634	-3.000400	3.566500	-10.700000	25.303927	0.000865	20.887158
1191.333903	-2.997100	3.565200	-10.684000	25.297969	0.000867	20.885917
1192.331690	-3.007900	3.565600	-10.724000	25.320541	0.000865	20.909527
1193.333061	-2.997100	3.565700	-10.685000	25.358968	0.000866	20.899273
1194.332483	-2.988000	3.565000	-10.652000	25.374305	0.000866	20.887647
1195.332457	-3.015400	3.563700	-10.744000	25.381317	0.000864	20.891369
1196.331981	-2.997000	3.565800	-10.684000	25.404883	0.000865	20.897962
1197.333656	-3.018600	3.563000	-10.754000	25.405551	0.000864	20.905744
1198.333238	-3.045900	3.561900	-10.848000	25.424097	0.000862	20.894022
1199.334004	-2.998900	3.563000	-10.684000	25.415201	0.000863	20.916855
1200.333605	-2.998500	3.563000	-10.683000	25.411674	0.000860	20.888187
1201.333209	-3.011200	3.561400	-10.723000	25.391595	0.000861	20.899792
1202.340419	-3.005700	3.561900	-10.705000	25.368633	0.000862	20.891909
1203.333032	-3.011200	3.560900	-10.721000	25.333336	0.000860	20.919054
1204.339407	-2.988900	3.562600	-10.648000	25.350065	0.000859	20.905507
1205.335105	-3.003900	3.562900	-10.703000	25.308313	0.000859	20.900569
1206.344952	-3.004700	3.559000	-10.693000	25.305806	0.000861	20.910853
1207.337430	-2.981100	3.562000	-10.618000	25.340897	0.000860	20.893931
1208.339045	-3.028500	3.559500	-10.779000	25.379353	0.000857	20.917369
1209.337351	-3.022800	3.559100	-10.757000	25.404435	0.000858	20.907469
1210.340125	-2.989700	3.560800	-10.644000	25.419490	0.000856	20.899827
1211.337232	-3.007600	3.558700	-10.702000	25.401652	0.000855	20.915105
1212.347808	-3.012000	3.559800	-10.720000	25.461324	0.000854	20.907222
1213.342074	-2.999400	3.559700	-10.676000	25.433736	0.000854	20.913183
1214.340464	-2.998200	3.559300	-10.670000	25.434912	0.000855	20.916734
1215.344281	-3.001100	3.558500	-10.679000	25.468060	0.000854	20.916356
1216.341437	-3.024000	3.558300	-10.759000	25.464639	0.000856	20.920032
1217.341672	-3.003200	3.556100	-10.679000	25.484420	0.000854	20.911922
1218.347337	-2.999100	3.556100	-10.665000	25.516326	0.000853	20.915039
1219.342410	-2.988400	3.557500	-10.630000	25.528833	0.000851	20.931391
1220.344256	-2.999000	3.557900	-10.670000	25.501448	0.000850	20.911478
1221.342654	-2.979300	3.557900	-10.598000	25.491935	0.000851	20.923260
1222.343628	-2.993700	3.556400	-10.645000	25.451252	0.000852	20.925081
1223.343340	-2.996300	3.554800	-10.649000	25.415693	0.000851	20.912134
1224.347357	-3.003600	3.554800	-10.675000	25.379257	0.000848	20.930548
1225.343854	-3.011200	3.555100	-10.704000	25.357987	0.000849	20.933373
1226.342280	-3.001500	3.553800	-10.666000	25.319787	0.000850	20.919674
1227.342737	-3.010700	3.554100	-10.700000	25.283801	0.000849	20.927638
1228.346546	-2.968600	3.554500	-10.550000	25.268613	0.000847	20.941785
1229.348310	-2.988200	3.553200	-10.617000	25.299194	0.000849	20.935980
1230.346428	-2.979500	3.554800	-10.591000	25.297998	0.000847	20.923401
1231.347805	-3.026800	3.550800	-10.746000	25.347855	0.000845	20.917511
1232.345652	-2.998700	3.552900	-10.653000	25.360841	0.000845	20.929126
1233.347126	-3.011300	3.552900	-10.697000	25.383010	0.000847	20.934316
1234.347887	-3.000400	3.552000	-10.656000	25.383256	0.000846	20.952579
1235.349194	-3.014200	3.550100	-10.699000	25.382442	0.000846	20.948443
1236.348301	-3.005000	3.552400	-10.674000	25.401582	0.000845	20.946799
1237.347265	-3.007600	3.551800	-10.681000	25.438187	0.000843	20.947046
1238.347531	-3.004300	3.550200	-10.665000	25.449876	0.000844	20.930811
1239.348389	-3.020000	3.549200	-10.718000	25.440357	0.000843	20.948751
1240.348470	-2.990500	3.550300	-10.616000	25.432084	0.000843	20.947081
1241.348500	-3.011600	3.549500	-10.689000	25.429899	0.000841	20.950576
1242.354986	-2.967200	3.549800	-10.532000	25.456914	0.000841	20.950677
1243.348213	-3.024700	3.548800	-10.733000	25.468321	0.000843	20.935582
1244.348996	-3.001000	3.549300	-10.650000	25.475454	0.000839	20.937529
1245.350933	-3.012700	3.548400	-10.690000	25.424192	0.000839	20.928254
1246.349801	-2.990800	3.547000	-10.608000	25.421339	0.000837	20.932974
1247.349824	-3.015700	3.546700	-10.694000	25.394393	0.000839	20.940056
1248.350352	-2.979300	3.548900	-10.572000	25.417290	0.000837	20.952140
1249.349739	-3.005100	3.547200	-10.659000	25.434962	0.000837	20.963246
1250.352021	-2.992400	3.548200	-10.617000	25.449751	0.000838	20.952019
1251.348267	-3.012400	3.546500	-10.682000	25.479844	0.000838	20.947152
1252.350635	-3.010000	3.544800	-10.669000	25.471375	0.000835	20.941493
1253.349439	-3.031000	3.543700	-10.740000	25.466056	0.000837	20.935678
1254.351248	-3.006100	3.546500	-10.660000	25.448937	0.000834	20.949780
1255.351592	-3.029300	3.544000	-10.735000	25.494095	0.000833	20.947712
1256.351264	-2.997400	3.544400	-10.622000	25.502373	0.000835	20.956972
1257.350636	-2.999000	3.545400	-10.631000	25.521756	0.000834	20.938982
1258.353225	-2.980800	3.544000	-10.563000	25.563927	0.000835	20.970897
1259.352652	-2.993100	3.544800	-10.609000	25.568528	0.000834	20.969354
1260.352483	-2.995700	3.544700	-10.617000	25.575213	0.000834	20.964214
1261.353819	-3.000800	3.543200	-10.631000	25.551009	0.000833	20.959347
1262.354414	-2.995200	3.543400	-10.612000	25.544279	0.000831	20.990516
1263.356398	-3.006700	3.542000	-10.648000	25.570146	0.000831	20.956281
1264.354558	-2.998900	3.543200	-10.624000	25.594550	0.000831	20.976520
1265.355150	-3.005300	3.541700	-10.643000	25.607649	0.000829	20.951273
1266.358584	-2.994100	3.541100	-10.601000	25.594008	0.000828	20.957012
1267.356660	-2.993700	3.542100	-10.603000	25.647256	0.000830	20.974927
1268.355658	-2.997400	3.542100	-10.615000	25.651213	0.000828	20.957093
1269.357591	-2.984400	3.542300	-10.570000	25.618066	0.000827	20.972163
1270.355356	-2.995500	3.540300	-10.604000	25.623781	0.000826	20.986910
1271.357072	-3.002100	3.540100	-10.627000	25.587604	0.000828	20.962434
1272.356454	-2.990100	3.538700	-10.580000	25.548543	0.000827	20.974886
1273.357717	-3.003900	3.540100	-10.632000	25.520421	0.000826	20.972249
1274.357235	-2.989900	3.540000	-10.584000	25.534952	0.000826	20.960765
1275.357028	-2.982300	3.538800	-10.552000	25.555876	0.000825	20.959968
1276.356822	-2.976300	3.540000	-10.535000	25.531827	0.000826	20.960472
1277.356824	-2.988300	3.538400	-10.573000	25.531185	0.000825	21.002494
1278.356630	-3.007800	3.537100	-10.638000	25.539362	0.000826	20.974675
1279.363335	-2.994000	3.537500	-10.591000	25.523038	0.000823	20.972032
1280.356965	-3.007900	3.537300	-10.638000	25.522465	0.000822	20.975250
1281.358639	-2.998600	3.539400	-10.611000	25.443317	0.000822	20.953618
1282.358068	-2.991100	3.537100	-10.579000	25.431984	0.000823	20.980641
1283.356565	-3.020800	3.535600	-10.680000	25.409053	0.000822	20.974685
1284.358007	-2.984800	3.537200	-10.557000	25.429282	0.000822	20.991676
1285.357038	-2.997200	3.536200	-10.597000	25.415613	0.000820	20.983168
1286.356149	-3.000600	3.536400	-10.610000	25.416166	0.000818	20.976138
1287.361809	-2.994600	3.536700	-10.590000	25.468453	0.000820	20.967478
1288.357596	-3.000700	3.535500	-10.608000	25.448330	0.000818	20.975245
1289.358230	-3.005200	3.534100	-10.619000	25.427529	0.000819	20.958627
1290.357193	-3.000800	3.534200	-10.605000	25.407697	0.000817	20.961472
1291.356389	-2.986600	3.533200	-10.551000	25.415036	0.000819	20.974055
1292.357576	-2.996300	3.533400	-10.586000	25.462551	0.000817	20.970086
1293.360278	-2.982400	3.533500	-10.537000	25.475028	0.000816	20.949902
1294.357274	-3.003200	3.532600	-10.607000	25.516729	0.000816	20.956216
1295.360573	-2.990000	3.534200	-10.566000	25.533059	0.000816	20.968346
1296.358814	-2.991100	3.533700	-10.569000	25.586340	0.000814	20.973491
1297.361136	-2.991600	3.531100	-10.562000	25.618494	0.000814	20.946518
1298.364480	-2.988500	3.531200	-10.552000	25.586496	0.000815	20.967484
1299.361329	-2.994100	3.531400	-10.572000	25.562739	0.000812	20.955955
1300.364217	-2.984000	3.532100	-10.539000	25.546636	0.000812	20.964912
1301.365269	-2.995300	3.530800	-10.575000	25.554441	0.000813	20.942882
1302.361472	-3.014600	3.530400	-10.640000	25.543235	0.000811	20.928311
1303.361725	-3.011100	3.530800	-10.630000	25.583271	0.000811	20.945757
1304.363261	-3.003500	3.528700	-10.598000	25.604000	0.000811	20.965149
1305.361874	-2.997800	3.529000	-10.578000	25.601488	0.000810	20.937501
1306.362660	-3.015400	3.527600	-10.636000	25.570032	0.000808	20.942892
1307.362558	-2.993700	3.528800	-10.563000	25.555451	0.000809	20.941051
1308.364391	-3.001000	3.528800	-10.588000	25.554306	0.000809	20.964080
1309.364504	-3.018200	3.526300	-10.641000	25.540694	0.000808	20.924811
1310.363237	-2.980400	3.528700	-10.516000	25.549565	0.000808	20.947941
1311.363153	-3.014300	3.526500	-10.629000	25.545667	0.000807	20.933597
1312.362030	-3.006100	3.527000	-10.602000	25.572157	0.000806	20.932699
1313.363953	-2.999800	3.526200	-10.577000	25.612493	0.000806	20.946655
1314.367349	-2.996400	3.526400	-10.565000	25.605783	0.000803	20.935650
1315.364019	-3.006200	3.525100	-10.596000	25.620620	0.000804	20.940593
1316.368481	-3.012900	3.525400	-10.621000	25.608244	0.000803	20.930062
1317.363464	-2.982900	3.525100	-10.514000	25.634883	0.000803	20.935479
1318.364736	-3.000000	3.524900	-10.573000	25.644381	0.000804	20.943594
1319.367697	-3.001700	3.524100	-10.576000	25.645255	0.000802	20.931671
1320.367733	-2.990000	3.526100	-10.543000	25.683097	0.000803	20.936014
1321.365212	-2.998000	3.523700	-10.563000	25.663716	0.000803	20.928403
1322.365100	-2.995500	3.523900	-10.555000	25.665635	0.000801	20.930330
1323.367867	-3.003700	3.522300	-10.579000	25.666403	0.000803	20.914982
1324.366205	-2.999800	3.522500	-10.566000	25.699253	0.000801	20.934224
1325.367403	-2.998100	3.524400	-10.565000	25.689711	0.000798	20.921322
1326.365941	-2.989200	3.523800	-10.532000	25.660864	0.000799	20.928857
1327.371948	-2.999600	3.521400	-10.562000	25.623649	0.000800	20.932731
1328.366745	-3.009200	3.521100	-10.595000	25.596593	0.000798	20.920258
1329.367400	-2.998200	3.522300	-10.559000	25.599054	0.000798	20.922255
1330.369673	-2.982600	3.521000	-10.501000	25.616050	0.000796	20.929367
1331.367862	-2.993600	3.520800	-10.539000	25.622464	0.000797	20.913525
1332.371704	-2.997900	3.519400	-10.550000	25.639982	0.000797	20.933488
1333.371175	-3.004500	3.519900	-10.573000	25.652256	0.000796	20.921635
1334.369268	-3.009300	3.519100	-10.589000	25.655410	0.000795	20.910105
1335.372305	-3.008900	3.519300	-10.588000	25.612278	0.000795	20.912779
1336.368253	-2.969900	3.520000	-10.452000	25.589371	0.000796	20.927703
1337.368488	-3.020900	3.518200	-10.627000	25.531564	0.000793	20.931763
1338.368181	-3.013700	3.517900	-10.600000	25.480697	0.000795	20.927622
1339.369471	-3.008600	3.517800	-10.582000	25.462438	0.000793	20.924934
1340.371286	-3.011100	3.517300	-10.590000	25.456918	0.000793	20.900426
1341.370127	-3.015800	3.517100	-10.607000	25.451402	0.000791	20.917172
1342.370211	-3.022700	3.517200	-10.630000	25.455451	0.000792	20.914125
1343.369971	-2.986700	3.516800	-10.503000	25.470465	0.000791	20.904073
1344.370582	-3.014500	3.517400	-10.602000	25.471831	0.000789	20.920142
1345.371827	-3.000000	3.516300	-10.548000	25.460273	0.000789	20.902847
1346.373087	-3.025300	3.514700	-10.632000	25.436046	0.000789	20.918347
1347.370786	-3.003000	3.515400	-10.554000	25.419791	0.000789	20.914826
1348.370532	-2.982400	3.515300	-10.482000	25.430902	0.000787	20.912708
1349.371319	-2.991000	3.516900	-10.517000	25.443325	0.000789	20.923759
1350.370489	-2.989100	3.515600	-10.508000	25.456054	0.000786	20.891025
1351.371379	-2.989300	3.515200	-10.506000	25.460102	0.000787	20.917848
1352.370470	-3.022900	3.513200	-10.619000	25.443526	0.000787	20.909263
1353.374248	-3.004800	3.512700	-10.553000	25.466964	0.000785	20.894394
1354.370822	-3.010900	3.512300	-10.572000	25.460625	0.000785	20.939707
1355.370380	-2.992500	3.512400	-10.509000	25.505612	0.000785	20.910444
1356.373616	-3.006900	3.512700	-10.561000	25.519897	0.000785	20.886859
1357.370857	-2.976000	3.513400	-10.455000	25.552223	0.000784	20.916002
1358.370922	-2.986000	3.512700	-10.488000	25.585202	0.000782	20.907871
1359.371566	-2.992300	3.511400	-10.506000	25.581802	0.000781	20.917732
1360.371060	-2.987200	3.511000	-10.487000	25.601701	0.000783	20.906424
1361.373197	-3.001900	3.510600	-10.537000	25.617035	0.000782	20.922296
1362.377837	-2.990400	3.510300	-10.496000	25.606970	0.000782	20.899862
1363.374905	-3.004700	3.511300	-10.549000	25.638802	0.000782	20.919976
1364.374367	-3.017900	3.510500	-10.593000	25.668840	0.000781	20.896094
1365.374393	-3.003900	3.509600	-10.541000	25.683676	0.000780	20.905304
1366.374071	-3.001500	3.508400	-10.529000	25.668167	0.000778	20.889729
1367.377735	-3.011700	3.508700	-10.566000	25.671854	0.000780	20.907655
1368.375739	-2.982900	3.509800	-10.468000	25.666033	0.000778	20.916506
1369.377422	-3.001600	3.506600	-10.525000	25.674510	0.000781	20.893255
1370.378509	-2.993100	3.508100	-10.499000	25.669348	0.000777	20.911776
1371.380119	-3.025100	3.505600	-10.603000	25.686785	0.000777	20.890884
1372.377619	-3.001400	3.507000	-10.525000	25.674164	0.000778	20.917561
1373.376508	-2.987100	3.507200	-10.475000	25.676329	0.000776	20.885599
1374.378937	-3.000300	3.506300	-10.518000	25.652825	0.000777	20.907983
1375.377440	-3.007000	3.505200	-10.538000	25.620300	0.000778	20.895706
1376.376794	-2.994800	3.507200	-10.502000	25.628949	0.000774	20.890642
1377.380513	-3.006000	3.504900	-10.535000	25.616925	0.000775	20.889947
1378.378520	-2.992200	3.504400	-10.484000	25.630466	0.000774	20.897381
1379.381665	-2.998600	3.504700	-10.508000	25.664261	0.000775	20.890547
1380.380849	-3.011200	3.503200	-10.547000	25.627588	0.000772	20.884535
1381.378490	-3.010000	3.503300	-10.542000	25.600306	0.000773	20.897911
1382.380625	-3.023200	3.502800	-10.588000	25.610743	0.000772	20.883264
1383.383709	-3.000700	3.502500	-10.510000	25.631641	0.000771	20.903303
1384.380903	-2.993900	3.503200	-10.488000	25.635071	0.000774	20.885413
1385.379381	-2.994700	3.502700	-10.488000	25.654829	0.000772	20.901462
1386.380618	-2.999600	3.502200	-10.504000	25.657260	0.000771	20.888257
1387.380238	-2.985700	3.501900	-10.455000	25.667129	0.000769	20.905754
1388.382003	-2.985500	3.500400	-10.450000	25.641535	0.000768	20.884792
1389.380992	-3.013400	3.500300	-10.547000	25.623349	0.000767	20.888338
1390.386418	-2.990700	3.501500	-10.470000	25.621637	0.000768	20.902738
1391.379893	-2.970700	3.502000	-10.402000	25.602878	0.000770	20.877262
1392.380014	-3.012100	3.498300	-10.536000	25.605344	0.000768	20.892066
1393.385491	-3.002300	3.499900	-10.506000	25.626439	0.000766	20.901397
1394.380878	-2.977900	3.498700	-10.417000	25.628307	0.000768	20.899006
1395.382584	-3.006800	3.496600	-10.512000	25.636906	0.000766	20.882039
1396.383331	-2.991400	3.498100	-10.464000	25.614370	0.000767	20.885958
1397.382390	-2.996700	3.496500	-10.477000	25.602662	0.000764	20.873253
1398.383729	-2.996600	3.497700	-10.480000	25.583286	0.000765	20.894568
1399.383701	-3.008100	3.495900	-10.514000	25.595245	0.000765	20.886191
1400.382328	-2.998400	3.497300	-10.485000	25.632039	0.000763	20.882841
1401.383716	-2.977200	3.497400	-10.412000	25.628835	0.000764	20.887209
1402.384393	-3.018400	3.495900	-10.551000	25.653836	0.000761	20.908050
1403.384645	-2.987900	3.497000	-10.448000	25.640718	0.000760	20.882075
1404.385136	-3.008800	3.494800	-10.513000	25.609162	0.000762	20.883099
1405.384569	-2.985000	3.496700	-10.437000	25.638112	0.000760	20.881828
1406.385761	-3.015400	3.493500	-10.533000	25.660777	0.000761	20.878989
1407.386192	-3.000000	3.494700	-10.484000	25.689594	0.000760	20.880431
1408.385411	-3.005800	3.494000	-10.501000	25.707734	0.000760	20.893434
1409.390420	-2.992700	3.495200	-10.459000	25.666267	0.000758	20.871700
1410.385509	-3.000200	3.493200	-10.479000	25.646092	0.000759	20.900747
1411.389471	-3.029800	3.492500	-10.580000	25.622261	0.000759	20.894831
1412.385765	-3.003700	3.494500	-10.496000	25.615134	0.000757	20.909009
1413.387690	-2.984800	3.493300	-10.425000	25.572548	0.000757	20.894690
1414.390250	-2.995200	3.491800	-10.458000	25.573166	0.000757	20.888673
1415.391467	-2.965200	3.493500	-10.356000	25.558505	0.000756	20.888173
1416.387928	-2.998800	3.491100	-10.468000	25.577049	0.000755	20.906321
1417.388270	-2.985500	3.492100	-10.425000	25.568520	0.000754	20.892541
1418.389294	-3.002400	3.489400	-10.476000	25.556175	0.000756	20.877299
1419.391549	-2.993300	3.490500	-10.448000	25.556124	0.000756	20.876775
1420.391510	-3.000200	3.490300	-10.470000	25.565025	0.000754	20.882394
1421.390989	-3.003300	3.489500	-10.479000	25.585667	0.000753	20.882736
1422.396020	-3.014600	3.488100	-10.514000	25.597988	0.000755	20.864765
1423.389717	-3.011300	3.488800	-10.505000	25.604382	0.000751	20.882091
1424.391650	-3.035700	3.487100	-10.584000	25.610092	0.000751	20.881662
1425.395943	-3.004800	3.487300	-10.478000	25.683915	0.000752	20.870934
1426.391539	-2.991100	3.487300	-10.429000	25.683217	0.000751	20.869758
1427.394226	-2.997200	3.487200	-10.450000	25.693753	0.000750	20.873703
1428.391838	-3.002200	3.487100	-10.468000	25.664439	0.000750	20.880770
1429.394173	-3.001500	3.487000	-10.463000	25.623341	0.000748	20.889278
1430.393953	-2.977400	3.489200	-10.388000	25.635440	0.000750	20.879619
1431.396170	-2.983500	3.485300	-10.397000	25.660065	0.000749	20.880643
1432.393727	-3.010900	3.485000	-10.492000	25.672409	0.000748	20.861749
1433.394024	-2.976300	3.484300	-10.370000	25.699644	0.000748	20.844060
1434.394913	-2.983900	3.485000	-10.398000	25.717060	0.000748	20.872931
1435.395412	-3.020800	3.484200	-10.524000	25.713063	0.000747	20.863227
1436.394721	-2.991900	3.484700	-10.424000	25.710697	0.000747	20.860851
1437.394038	-2.974400	3.483300	-10.360000	25.727622	0.000746	20.872160
1438.397602	-2.997300	3.485100	-10.445000	25.754107	0.000745	20.859409
1439.396517	-2.968700	3.484200	-10.342000	25.728024	0.000744	20.846486
1440.397184	-2.996400	3.483300	-10.434000	25.711616	0.000746	20.873153
1441.397911	-3.011200	3.482200	-10.484000	25.716368	0.000743	20.872709
1442.399760	-3.000200	3.482400	-10.446000	25.718281	0.000743	20.846184
1443.397736	-2.981900	3.482600	-10.384000	25.713390	0.000744	20.856443
1444.398804	-3.011600	3.482400	-10.487000	25.731233	0.000741	20.873890
1445.398118	-2.986100	3.480700	-10.392000	25.745545	0.000741	20.880679
1446.398241	-3.000200	3.480400	-10.441000	25.784027	0.000741	20.876659
1447.399586	-2.996500	3.481000	-10.430000	25.793719	0.000740	20.882127
1448.398468	-3.012000	3.480100	-10.481000	25.798981	0.000740	20.874611
1449.400733	-3.007200	3.479000	-10.460000	25.820680	0.000741	20.859425
1450.400224	-2.978700	3.480500	-10.366000	25.833299	0.000740	20.876367
1451.398511	-2.984900	3.480400	-10.387000	25.831486	0.000738	20.855581
1452.401795	-3.019000	3.476900	-10.496000	25.872626	0.000738	20.868932
1453.400633	-3.006500	3.477100	-10.453000	25.887252	0.000737	20.869875
1454.401798	-3.000700	3.477600	-10.434000	25.881317	0.000737	20.843526
1455.400774	-3.003100	3.476000	-10.438000	25.910983	0.000739	20.856257
1456.398269	-2.984000	3.476700	-10.374000	25.863482	0.000737	20.874445
1457.402351	-2.995000	3.475200	-10.406000	25.836689	0.000736	20.859859
1458.404399	-3.009200	3.475900	-10.459000	25.838767	0.000735	20.853412
1459.399457	-2.989400	3.476000	-10.390000	25.800734	0.000735	20.845080
1460.401980	-3.003500	3.475700	-10.438000	25.796240	0.000734	20.860953
1461.399965	-2.998300	3.475700	-10.419000	25.783144	0.000735	20.852540
1462.400601	-2.985400	3.474100	-10.371000	25.794944	0.000732	20.851592
1463.404994	-2.994500	3.474500	-10.403000	25.770921	0.000732	20.874874
1464.403130	-3.005300	3.473500	-10.437000	25.727020	0.000734	20.825565
1465.401123	-2.975700	3.475900	-10.342000	25.725238	0.000732	20.836102
1466.401073	-2.970400	3.473900	-10.318000	25.717830	0.000733	20.840989
1467.402588	-2.997300	3.472200	-10.406000	25.706235	0.000732	20.847834
1468.406137	-2.989600	3.471500	-10.378000	25.721436	0.000730	20.867369
1469.402242	-2.985500	3.472100	-10.365000	25.734081	0.000732	20.870587
1470.401460	-2.984200	3.471400	-10.358000	25.716294	0.000729	20.838498
1471.402674	-2.975500	3.472900	-10.333000	25.688989	0.000730	20.856591
1472.402639	-2.980800	3.470700	-10.344000	25.685011	0.000732	20.856863
1473.403324	-2.990800	3.469900	-10.378000	25.661407	0.000730	20.861130
1474.402943	-2.971700	3.471600	-10.316000	25.653186	0.000730	20.831537
1475.407536	-2.961700	3.470100	-10.276000	25.653387	0.000729	20.841222
1476.404043	-2.996000	3.468600	-10.391000	25.681335	0.000728	20.853171
1477.402451	-2.990200	3.469400	-10.373000	25.686503	0.000727	20.867843
1478.408711	-2.993100	3.468800	-10.382000	25.685910	0.000727	20.838327
1479.404549	-2.996400	3.467700	-10.389000	25.720869	0.000726	20.849257
1480.404170	-2.995900	3.467500	-10.387000	25.718609	0.000725	20.841772
1481.406756	-2.988700	3.467900	-10.364000	25.712176	0.000724	20.853328
1482.404713	-3.007500	3.465900	-10.423000	25.728497	0.000725	20.843643
1483.404455	-2.992500	3.466600	-10.373000	25.756248	0.000723	20.851128
1484.407032	-2.992800	3.467000	-10.375000	25.772423	0.000723	20.835134
1485.403960	-2.999700	3.465300	-10.394000	25.805074	0.000722	20.855128
1486.404574	-3.020800	3.464000	-10.463000	25.824924	0.000722	20.835714
1487.404635	-3.015800	3.465900	-10.452000	25.823955	0.000721	20.823361
1488.405144	-3.001300	3.465000	-10.398000	25.797452	0.000722	20.807170
1489.408713	-2.993000	3.465600	-10.371000	25.767387	0.000724	20.839084
1490.405170	-3.005400	3.463400	-10.407000	25.756183	0.000722	20.824512
1491.407245	-3.001600	3.462400	-10.392000	25.750197	0.000721	20.848370
1492.405192	-2.995200	3.463000	-10.371000	25.765599	0.000719	20.846297
1493.404777	-3.008900	3.461800	-10.415000	25.791170	0.000719	20.834998
1494.407436	-2.980100	3.464200	-10.323000	25.822097	0.000720	20.831926
1495.406526	-2.983200	3.461900	-10.326000	25.780263	0.000721	20.842534
1496.406981	-2.978700	3.462400	-10.312000	25.759197	0.000718	20.837021
1497.406926	-2.992500	3.461000	-10.355000	25.722060	0.000718	20.839075
1498.408312	-3.015600	3.461200	-10.437000	25.717957	0.000719	20.835902
1499.409999	-3.018800	3.458500	-10.439000	25.696890	0.000716	20.818535
1500.407566	-3.005000	3.460700	-10.398000	25.679870	0.000716	20.830838
1501.408464	-3.007800	3.458900	-10.403000	25.677660	0.000719	20.818661
1502.408861	-3.010900	3.459800	-10.415000	25.677590	0.000715	20.809108
1503.407835	-2.974700	3.459600	-10.289000	25.651058	0.000715	20.824659
1504.407761	-3.008100	3.458600	-10.403000	25.666738	0.000716	20.824286
1505.411603	-2.994600	3.458900	-10.356000	25.664629	0.000715	20.817900
1506.408274	-3.011400	3.456600	-10.408000	25.696831	0.000714	20.836493
1507.407077	-2.972400	3.458000	-10.277000	25.708487	0.000712	20.815485
1508.409445	-3.008600	3.456600	-10.398000	25.715719	0.000713	20.824645
1509.410392	-3.024500	3.456700	-10.453000	25.686400	0.000713	20.822224
1510.411646	-2.989100	3.456400	-10.330000	25.640613	0.000711	20.843565
1511.409547	-2.985200	3.456700	-10.318000	25.633185	0.000712	20.832312
1512.411933	-2.995100	3.455400	-10.348000	25.640970	0.000712	20.814053
1513.410750	-3.004500	3.455500	-10.379000	25.660401	0.000709	20.833569
1514.411270	-3.006000	3.454900	-10.385000	25.691011	0.000711	20.833967
1515.412093	-2.990300	3.455300	-10.331000	25.692830	0.000713	20.830104
1516.412553	-3.009100	3.455200	-10.396000	25.688385	0.000709	20.815683
1517.411523	-3.009000	3.454300	-10.393000	25.725237	0.000711	20.841791
1518.411780	-3.019200	3.452800	-10.423000	25.744818	0.000708	20.819260
1519.411725	-2.998200	3.453100	-10.351000	25.768596	0.000710	20.829867
1520.413226	-2.992800	3.453700	-10.335000	25.789692	0.000707	20.825928
1521.412235	-3.000000	3.451600	-10.353000	25.783486	0.000710	20.823961
1522.412452	-2.994500	3.451800	-10.335000	25.769224	0.000706	20.826705
1523.416309	-3.041000	3.450300	-10.491000	25.763470	0.000708	20.824719
1524.413635	-3.001400	3.452200	-10.361000	25.755320	0.000707	20.810368
1525.417443	-2.993500	3.450000	-10.327000	25.774428	0.000706	20.815811
1526.422181	-2.968400	3.451500	-10.243000	25.781860	0.000706	20.824699
1527.416149	-2.994400	3.450600	-10.332000	25.767920	0.000706	20.813541
1528.417253	-3.012500	3.450200	-10.392000	25.738443	0.000704	20.824236
1529.417768	-3.007300	3.449300	-10.372000	25.722166	0.000704	20.823060
1530.419387	-3.007000	3.448700	-10.369000	25.689649	0.000705	20.825013
1531.424280	-3.005000	3.448500	-10.362000	25.665674	0.000705	20.817527
1532.423030	-2.988800	3.448700	-10.306000	25.712842	0.000704	20.829341
1533.420238	-3.010000	3.449500	-10.380000	25.708814	0.000703	20.815339
1534.420483	-3.003900	3.447900	-10.356000	25.732171	0.000703	20.835954
1535.419585	-2.999400	3.446300	-10.336000	25.741146	0.000702	20.811778
1536.419980	-2.989100	3.448400	-10.306000	25.737872	0.000701	20.805645
1537.425282	-3.022800	3.444600	-10.412000	25.767114	0.000700	20.795663
1538.421853	-3.013200	3.445200	-10.380000	25.753480	0.000701	20.795244
1539.423981	-2.986500	3.445700	-10.290000	25.720191	0.000701	20.806377
1540.423368	-3.003000	3.444800	-10.344000	25.721542	0.000700	20.804890
1541.422449	-3.009200	3.444400	-10.364000	25.681964	0.000699	20.807811
1542.424877	-2.995100	3.444900	-10.317000	25.677067	0.000699	20.805263
1543.422817	-2.983000	3.443700	-10.271000	25.665471	0.000699	20.835342
1544.424223	-2.998400	3.445200	-10.328000	25.688232	0.000697	20.813632
1545.425572	-2.994600	3.444500	-10.314000	25.720187	0.000699	20.812538
1546.425805	-3.000100	3.443700	-10.330000	25.706207	0.000697	20.807504
1547.424901	-3.007200	3.442600	-10.352000	25.689609	0.000696	20.814067
1548.424892	-2.998600	3.441800	-10.320000	25.683578	0.000696	20.819389
1549.425453	-2.997100	3.442600	-10.317000	25.690835	0.000696	20.808186
1550.426277	-2.979900	3.443600	-10.260000	25.672750	0.000694	20.817997
1551.425869	-2.995500	3.441100	-10.306000	25.667261	0.000695	20.804898
1552.425657	-2.997800	3.442200	-10.318000	25.626220	0.000696	20.801135
1553.428827	-2.987100	3.442500	-10.281000	25.621202	0.000693	20.786613
1554.427518	-2.998700	3.440400	-10.315000	25.652833	0.000694	20.825494
1555.429596	-2.991900	3.441300	-10.294000	25.697737	0.000693	20.798523
1556.426664	-2.982600	3.440400	-10.260000	25.698812	0.000693	20.818095
1557.425977	-2.996300	3.438500	-10.301000	25.711432	0.000691	20.803270
1558.429758	-3.024100	3.438500	-10.397000	25.734192	0.000693	20.789147
1559.429516	-3.002200	3.438100	-10.321000	25.769847	0.000691	20.822590
1560.425613	-3.003300	3.438200	-10.325000	25.782774	0.000691	20.815660
1561.427293	-3.004200	3.436500	-10.323000	25.789287	0.000690	20.804659
1562.428043	-3.006400	3.436700	-10.331000	25.780916	0.000690	20.811423
1563.428104	-2.993900	3.437200	-10.290000	25.760197	0.000691	20.815267
1564.428649	-2.999600	3.435500	-10.305000	25.742264	0.000688	20.821436
1565.428414	-3.022400	3.436200	-10.384000	25.751932	0.000688	20.815500
1566.428043	-2.981600	3.436600	-10.245000	25.768132	0.000689	20.818022
1567.429315	-2.992300	3.435100	-10.278000	25.795340	0.000689	20.791298
1568.428270	-3.020500	3.433800	-10.371000	25.801356	0.000688	20.800661
1569.430200	-3.014400	3.435400	-10.354000	25.807422	0.000687	20.799642
1570.428601	-3.000400	3.435000	-10.306000	25.838254	0.000686	20.807854
1571.431229	-3.012000	3.434400	-10.343000	25.832370	0.000687	20.804788
1572.428521	-3.026600	3.433200	-10.389000	25.814779	0.000686	20.808455
1573.429089	-3.010200	3.432800	-10.333000	25.783109	0.000686	20.815996
1574.430835	-2.993900	3.433700	-10.279000	25.759601	0.000685	20.791910
1575.441523	-2.987800	3.432200	-10.254000	25.744381	0.000685	20.823089
1576.432197	-2.969100	3.434000	-10.194000	25.746440	0.000684	20.810932
1577.428262	-2.988200	3.432500	-10.256000	25.693625	0.000684	20.791074
1578.430486	-2.989900	3.432400	-10.261000	25.692189	0.000685	20.812391
1579.434104	-2.969800	3.433100	-10.195000	25.646145	0.000681	20.814035
1580.436616	-3.005700	3.430700	-10.311000	25.673582	0.000681	20.791332
1581.432414	-2.972300	3.431900	-10.199000	25.632314	0.000682	20.810101
1582.431422	-2.975600	3.431200	-10.209000	25.663875	0.000682	20.807661
1583.432469	-3.004800	3.430400	-10.307000	25.700949	0.000680	20.835887
1584.432126	-2.989000	3.430000	-10.251000	25.709496	0.000680	20.822662
1585.439220	-2.980000	3.429900	-10.220000	25.766394	0.000681	20.809638
1586.433545	-3.000500	3.427500	-10.283000	25.748929	0.000679	20.815328
1587.437259	-2.998600	3.428700	-10.281000	25.774570	0.000681	20.822118
1588.434182	-3.001900	3.427900	-10.289000	25.766922	0.000677	20.825341
1589.434674	-2.987800	3.428600	-10.243000	25.779698	0.000678	20.819208
1590.438488	-3.007800	3.429800	-10.315000	25.802255	0.000677	20.805357
1591.435464	-2.996400	3.426400	-10.266000	25.815005	0.000679	20.815794
1592.435201	-3.026600	3.425200	-10.365000	25.788030	0.000678	20.814776
1593.435984	-3.012400	3.425200	-10.316000	25.768079	0.000677	20.805641
1594.435137	-2.992700	3.425600	-10.251000	25.727091	0.000676	20.826584
1595.435098	-2.985300	3.425800	-10.225000	25.724681	0.000675	20.815629
1596.437242	-3.003100	3.424600	-10.284000	25.712186	0.000674	20.800234
1597.434833	-2.977400	3.425500	-10.199000	25.730471	0.000674	20.815755
1598.436082	-3.026500	3.424000	-10.362000	25.748711	0.000674	20.842136
1599.438751	-3.027100	3.422500	-10.359000	25.801163	0.000673	20.821330
1600.435646	-3.000600	3.424500	-10.274000	25.804643	0.000673	20.829567
1601.440347	-3.005400	3.423600	-10.288000	25.810333	0.000673	20.840497
1602.436259	-3.000200	3.422200	-10.266000	25.839428	0.000673	20.824679
1603.437550	-2.981300	3.422300	-10.202000	25.858735	0.000673	20.812307
1604.436189	-3.005800	3.421700	-10.284000	25.879849	0.000669	20.825931
1605.436671	-2.990600	3.420700	-10.229000	25.909780	0.000672	20.814274
1606.438867	-3.012900	3.420800	-10.306000	25.913662	0.000672	20.839510
1607.437836	-2.977700	3.422100	-10.189000	25.902139	0.000672	20.816080
1608.436537	-3.023700	3.421200	-10.343000	25.886589	0.000670	20.834597
1609.437222	-2.995400	3.420800	-10.246000	25.865676	0.000670	20.837296
1610.437401	-2.986200	3.421600	-10.216000	25.830445	0.000667	20.828459
1611.437010	-3.006500	3.420000	-10.281000	25.762825	0.000669	20.829760
1612.439286	-3.006400	3.418000	-10.275000	25.754108	0.000670	20.832858
1613.438969	-2.986600	3.417400	-10.205000	25.740393	0.000667	20.842789
1614.442237	-2.989200	3.419700	-10.221000	25.759677	0.000667	20.828969
1615.439502	-2.987100	3.417300	-10.206000	25.749147	0.000667	20.851108
1616.438570	-3.024800	3.416900	-10.334000	25.771252	0.000665	20.823527
1617.441799	-3.002800	3.417000	-10.260000	25.806018	0.000667	20.838059
1618.440222	-2.996100	3.417100	-10.237000	25.846039	0.000665	20.838433
1619.438476	-2.993600	3.417000	-10.228000	25.886580	0.000667	20.846442
1620.438758	-2.989300	3.416400	-10.211000	25.887254	0.000664	20.848541
1621.439668	-3.009200	3.414100	-10.272000	25.870482	0.000664	20.822211
1622.441853	-3.007500	3.414700	-10.268000	25.874239	0.000665	20.840208
1623.446128	-3.005000	3.414200	-10.259000	25.844137	0.000661	20.844108
1624.442258	-2.999200	3.413800	-10.236000	25.834942	0.000661	20.838191
1625.442285	-2.979500	3.416100	-10.177000	25.844011	0.000662	20.839715
1626.441358	-3.002100	3.414900	-10.251000	25.893275	0.000663	20.856012
1627.442459	-3.003300	3.413700	-10.252000	25.866718	0.000662	20.836920
1628.444888	-3.019300	3.414800	-10.308000	25.899511	0.000663	20.826717
1629.443229	-3.001400	3.412400	-10.241000	25.874175	0.000661	20.827817
1630.452418	-2.985800	3.414900	-10.193000	25.900285	0.000660	20.839347
1631.442247	-3.015100	3.412300	-10.288000	25.849486	0.000659	20.862282
1632.442442	-3.019200	3.413500	-10.305000	25.861110	0.000658	20.849304
1633.443988	-2.992600	3.412700	-10.211000	25.813763	0.000660	20.853426
1634.445165	-2.999600	3.410300	-10.229000	25.778191	0.000658	20.847091
1635.446313	-3.004900	3.412100	-10.253000	25.765521	0.000658	20.819192
1636.444817	-2.987300	3.410200	-10.186000	25.724679	0.000656	20.835066
1637.445095	-2.994500	3.410700	-10.213000	25.751762	0.000657	20.846148
1638.447860	-3.018700	3.409500	-10.291000	25.774018	0.000657	20.839580
1639.445663	-3.018100	3.408900	-10.288000	25.772808	0.000655	20.851641
1640.446382	-2.994700	3.408100	-10.205000	25.743793	0.000656	20.850946
1641.447064	-3.014000	3.408500	-10.272000	25.715048	0.000655	20.834876
1642.447711	-3.000600	3.408500	-10.226000	25.746826	0.000656	20.835975
1643.446766	-3.022500	3.406900	-10.296000	25.756016	0.000655	20.843309
1644.450467	-3.013800	3.407800	-10.269000	25.807373	0.000654	20.867394
1645.448358	-3.010900	3.406900	-10.256000	25.852977	0.000653	20.856781
1646.448789	-2.984200	3.406600	-10.165000	25.861278	0.000652	20.857059
1647.448450	-2.988900	3.406100	-10.180000	25.888609	0.000652	20.851325
1648.448851	-2.981200	3.406700	-10.155000	25.918765	0.000652	20.864550
1649.449159	-3.003900	3.405100	-10.227000	25.928897	0.000650	20.847703
1650.448230	-2.999300	3.405900	-10.214000	25.903391	0.000651	20.863803
1651.448794	-3.016200	3.404000	-10.265000	25.916235	0.000651	20.875283
1652.448105	-3.001900	3.405200	-10.221000	25.900559	0.000650	20.868545
1653.449209	-3.009500	3.403000	-10.240000	25.888092	0.000650	20.843694
1654.450037	-2.997900	3.403500	-10.202000	25.874896	0.000651	20.862678
1655.448718	-2.989900	3.403800	-10.176000	25.846160	0.000649	20.866053
1656.450294	-3.021000	3.402800	-10.278000	25.818185	0.000648	20.870668
1657.450186	-3.005000	3.402700	-10.225000	25.853913	0.000648	20.861988
1658.452880	-3.011300	3.402800	-10.246000	25.897211	0.000648	20.882724
1659.453024	-2.975000	3.404400	-10.126000	25.892812	0.000646	20.857443
1660.453312	-2.991600	3.401500	-10.174000	25.902629	0.000645	20.875839
1661.451621	-3.000700	3.402200	-10.208000	25.886953	0.000647	20.849661
1662.456229	-3.019800	3.400900	-10.269000	25.887084	0.000643	20.853586
1663.455211	-3.002800	3.401000	-10.211000	25.903051	0.000645	20.856823
1664.452575	-2.959100	3.401500	-10.064000	25.906084	0.000645	20.866508
1665.456479	-2.999300	3.400400	-10.197000	25.913566	0.000646	20.864542
1666.454763	-3.008800	3.400300	-10.230000	25.885272	0.000642	20.860300
1667.455182	-2.998000	3.398900	-10.189000	25.908298	0.000645	20.856406
1668.452483	-2.999000	3.398700	-10.192000	25.892804	0.000646	20.883038
1669.453625	-2.998600	3.398900	-10.191000	25.896951	0.000642	20.879618
1670.456528	-3.019100	3.398800	-10.260000	25.890073	0.000643	20.883613
1671.457689	-3.003700	3.398000	-10.206000	25.889500	0.000643	20.889202
1672.454109	-2.980800	3.399000	-10.130000	25.887643	0.000641	20.875483
1673.454185	-3.013800	3.397500	-10.238000	25.880462	0.000639	20.876330
1674.454806	-3.003700	3.397800	-10.206000	25.914722	0.000642	20.889409
1675.455125	-3.014700	3.396300	-10.239000	25.926968	0.000640	20.870419
1676.459470	-3.000700	3.397000	-10.192000	25.920361	0.000638	20.878005
1677.456529	-3.013700	3.394600	-10.230000	25.919372	0.000640	20.884598
1678.461781	-3.017600	3.396000	-10.246000	25.966153	0.000639	20.891766
1679.456289	-2.995700	3.396200	-10.174000	25.982244	0.000637	20.878536
1680.457936	-2.996500	3.395900	-10.175000	26.027676	0.000639	20.882929
1681.460274	-3.007900	3.394500	-10.208000	26.012755	0.000638	20.876000
1682.458525	-3.009000	3.395100	-10.214000	25.990127	0.000636	20.882663
1683.458458	-3.013000	3.392700	-10.222000	26.005657	0.000636	20.875506
1684.460976	-2.986300	3.393400	-10.133000	26.013906	0.000637	20.873837
1685.458678	-2.987300	3.393000	-10.134000	25.998307	0.000637	20.887087
1686.459539	-2.992900	3.392500	-10.152000	25.967114	0.000633	20.885146
1687.462550	-3.026300	3.390100	-10.258000	25.991555	0.000634	20.889786
1688.459558	-2.989400	3.393100	-10.142000	25.960638	0.000634	20.890493
1689.459101	-3.003500	3.390800	-10.182000	25.961978	0.000632	20.897529
1690.459902	-3.011800	3.391400	-10.213000	25.963696	0.000633	20.876971
1691.462058	-3.008200	3.391500	-10.201000	25.959574	0.000632	20.886106
1692.464651	-2.986000	3.391200	-10.125000	25.978112	0.000632	20.880548
1693.461786	-3.000400	3.391300	-10.175000	25.949914	0.000632	20.908641
1694.461101	-2.995100	3.389600	-10.151000	25.950965	0.000631	20.903533
1695.461032	-3.006500	3.390100	-10.192000	25.915743	0.000631	20.892805
1696.460762	-2.994500	3.389900	-10.150000	25.945823	0.000630	20.889360
1697.464156	-3.019200	3.387300	-10.225000	25.936686	0.000631	20.897723
1698.462021	-2.991800	3.390200	-10.142000	25.978148	0.000630	20.894809
1699.466373	-3.006800	3.388900	-10.189000	26.019654	0.000628	20.908058
1700.465171	-2.991000	3.389000	-10.135000	26.005597	0.000631	20.882557
1701.465001	-2.995400	3.387900	-10.146000	25.964764	0.000627	20.894163
1702.463838	-3.006700	3.386700	-10.182000	25.947848	0.000629	20.904196
1703.466837	-2.987300	3.388700	-10.121000	25.930442	0.000629	20.924164
1704.466677	-3.007200	3.387300	-10.185000	25.920606	0.000628	20.904802
1705.465214	-2.998200	3.387400	-10.154000	25.877359	0.000626	20.913987
1706.464878	-3.016300	3.387800	-10.217000	25.887894	0.000630	20.894226
1707.464446	-3.007900	3.385800	-10.183000	25.895502	0.000626	20.906135
1708.466585	-3.003200	3.384700	-10.163000	25.896565	0.000626	20.901988
1709.466352	-2.978000	3.386900	-10.085000	25.918673	0.000624	20.907602
1710.467340	-3.007300	3.385900	-10.181000	25.957531	0.000623	20.908707
1711.466825	-3.010500	3.384900	-10.189000	25.974081	0.000623	20.909687
1712.467777	-2.994900	3.384300	-10.135000	26.001951	0.000625	20.911134
1713.472168	-3.010600	3.383400	-10.185000	25.988761	0.000624	20.911159
1714.467568	-3.009300	3.384300	-10.182000	25.982475	0.000622	20.914327
1715.471268	-2.984600	3.383000	-10.095000	25.988421	0.000622	20.923618
1716.469555	-2.998300	3.382100	-10.140000	26.004076	0.000620	20.903313
1717.470348	-2.998500	3.381700	-10.140000	26.013736	0.000623	20.923447
1718.471221	-3.010500	3.381500	-10.178000	26.020072	0.000621	20.929813
1719.472120	-3.003700	3.382700	-10.159000	26.024426	0.000624	20.912378
1720.476573	-3.014700	3.380800	-10.190000	26.036154	0.000620	20.931272
1721.471736	-3.006600	3.381100	-10.165000	26.058505	0.000620	20.930969
1722.472040	-2.989000	3.383000	-10.111000	26.099736	0.000619	20.907440
1723.472171	-2.996300	3.381700	-10.131000	26.112182	0.000619	20.918048
1724.471488	-3.003200	3.379700	-10.149000	26.094948	0.000619	20.917327
1725.472545	-2.988900	3.380700	-10.103000	26.113804	0.000620	20.906877
1726.474308	-3.004200	3.379700	-10.152000	26.081866	0.000617	20.925044
1727.473352	-3.007000	3.379800	-10.161000	26.072635	0.000616	20.929045
1728.473185	-3.003800	3.379100	-10.149000	26.092650	0.000616	20.924026
1729.477322	-3.009300	3.378500	-10.166000	26.103434	0.000616	20.929646
1730.474304	-3.004800	3.378800	-10.152000	26.071119	0.000615	20.937952
1731.475001	-2.986900	3.378800	-10.090000	26.044276	0.000616	20.937534
1732.475095	-2.996600	3.379300	-10.125000	25.996962	0.000615	20.939310
1733.475735	-2.985200	3.378200	-10.083000	26.000166	0.000613	20.933994
1734.478776	-2.989500	3.377200	-10.095000	25.959212	0.000614	20.953065
1735.474287	-2.971000	3.377600	-10.034000	25.941529	0.000612	20.942887
1736.478919	-2.992400	3.377600	-10.106000	25.946821	0.000613	20.940144
1737.475517	-3.001000	3.376200	-10.130000	25.930057	0.000613	20.932312
1738.475062	-3.010100	3.374800	-10.158000	25.953781	0.000611	20.936705
1739.480906	-2.999600	3.376700	-10.127000	25.966706	0.000612	20.930250
1740.476797	-2.988800	3.375100	-10.087000	26.011245	0.000611	20.945598
1741.478045	-2.998500	3.375300	-10.120000	26.038893	0.000610	20.961995
1742.474374	-3.007800	3.374200	-10.148000	26.045394	0.000611	20.936761
1743.475877	-3.007400	3.374900	-10.149000	26.032683	0.000610	20.943430
1744.478411	-2.987600	3.374500	-10.080000	26.035892	0.000608	20.958980
1745.476825	-2.964700	3.374800	-10.004000	26.046380	0.000611	20.961931
1746.476205	-3.006900	3.372500	-10.140000	26.027327	0.000610	20.952272
1747.477086	-2.992700	3.371300	-10.088000	26.077803	0.000607	20.950357
1748.477136	-3.011800	3.370800	-10.150000	26.050287	0.000609	20.948789
1749.477142	-2.991500	3.372600	-10.089000	26.052999	0.000609	20.968580
1750.481081	-3.010700	3.371800	-10.150000	26.084397	0.000605	20.951291
1751.478753	-3.005800	3.373400	-10.140000	26.075663	0.000608	20.957688
1752.478501	-3.018500	3.370100	-10.172000	26.098465	0.000605	20.956417
1753.479500	-2.990100	3.372900	-10.084000	26.103561	0.000606	20.961063
1754.477948	-3.007400	3.370200	-10.134000	26.121222	0.000606	20.973117
1755.481078	-3.041700	3.369000	-10.246000	26.155896	0.000606	20.961492
1756.480871	-2.982900	3.370800	-10.054000	26.144923	0.000603	20.965165
1757.480404	-2.978500	3.370700	-10.037000	26.191638	0.000605	20.955683
1758.479372	-2.989400	3.370800	-10.075000	26.197658	0.000603	20.971687
1759.479319	-2.970700	3.369100	-10.008000	26.218715	0.000601	20.971985
1760.481133	-3.001300	3.369900	-10.113000	26.226912	0.000603	20.966947
1761.480650	-2.976900	3.369200	-10.029000	26.231316	0.000600	20.961889
1762.479876	-2.973200	3.369000	-10.016000	26.201369	0.000602	20.980157
1763.480686	-2.988800	3.367600	-10.064000	26.156467	0.000601	20.963014
1764.480353	-3.028700	3.367100	-10.196000	26.123296	0.000602	20.972356
1765.480556	-2.999400	3.367200	-10.098000	26.100173	0.000601	20.962400
1766.480902	-2.978700	3.367500	-10.029000	26.116274	0.000599	20.968620
1767.480385	-2.994500	3.367200	-10.081000	26.141183	0.000600	20.968045
1768.481466	-2.999300	3.365800	-10.094000	26.111354	0.000601	20.976477
1769.480666	-2.997600	3.366100	-10.089000	26.102079	0.000598	20.960996
1770.481317	-3.021700	3.366900	-10.173000	26.094554	0.000597	21.008903
1771.482774	-3.010000	3.366300	-10.131000	26.062313	0.000597	20.975566
1772.481539	-3.006500	3.363800	-10.111000	26.075432	0.000596	20.984005
1773.484045	-2.996300	3.366100	-10.083000	26.058524	0.000597	20.991198
1774.481124	-3.013800	3.364000	-10.138000	26.026786	0.000596	20.985388
1775.481594	-3.034000	3.362700	-10.200000	26.039949	0.000594	20.962108
1776.483229	-3.000200	3.363800	-10.091000	26.083542	0.000594	21.003529
1777.484035	-3.007500	3.362900	-10.113000	26.088367	0.000593	20.979459
1778.481853	-2.990300	3.365100	-10.062000	26.140256	0.000595	20.988921
1779.481645	-3.000800	3.362300	-10.089000	26.172866	0.000593	20.982334
1780.481914	-2.997300	3.361100	-10.073000	26.144629	0.000593	21.014647
1781.484549	-3.017800	3.362600	-10.147000	26.144106	0.000593	20.976197
1782.483897	-2.991700	3.362200	-10.057000	26.141753	0.000591	20.985684
1783.481641	-2.987300	3.362900	-10.045000	26.134656	0.000591	20.974761
1784.482865	-2.996400	3.362000	-10.073000	26.152322	0.000591	20.971651
1785.482765	-2.998500	3.360400	-10.074000	26.150038	0.000592	20.987371
1786.483928	-3.020400	3.360500	-10.149000	26.142086	0.000590	20.978434
1787.483765	-2.994900	3.360200	-10.062000	26.155059	0.000588	20.990993
1788.485065	-3.004400	3.361400	-10.098000	26.178678	0.000591	20.984855
1789.484621	-2.983100	3.359800	-10.022000	26.145301	0.000588	20.965544
1790.484658	-3.013600	3.358700	-10.121000	26.115773	0.000588	20.970013
1791.484235	-2.993000	3.360800	-10.058000	26.087516	0.000588	20.968647
1792.485625	-2.993500	3.359200	-10.054000	26.044402	0.000588	20.960891
1793.485700	-2.990900	3.360000	-10.048000	26.051310	0.000587	20.969254
1794.484810	-2.983000	3.359600	-10.020000	26.066984	0.000587	20.965562
1795.485127	-2.983900	3.358200	-10.020000	26.102603	0.000588	20.962945
1796.484208	-2.998300	3.356100	-10.062000	26.132288	0.000586	20.957212
1797.485326	-2.994300	3.357200	-10.051000	26.168673	0.000586	20.970063
1798.487811	-2.982900	3.358800	-10.018000	26.185169	0.000583	20.954399
1799.486855	-2.984200	3.357400	-10.018000	26.129469	0.000584	20.943949
1800.488598	-3.016800	3.354600	-10.119000	26.085834	0.000585	20.968381
1801.486763	-2.999000	3.355600	-10.062000	26.098632	0.000583	20.950422
1802.486686	-2.997400	3.355900	-10.058000	26.108416	0.000582	20.943184
1803.487820	-3.011800	3.354800	-10.103000	26.095731	0.000581	20.948930
1804.490599	-3.033900	3.354700	-10.176000	26.087318	0.000583	20.949486
1805.485935	-2.988100	3.354200	-10.022000	26.129292	0.000581	20.953253
1806.486055	-2.997500	3.353400	-10.051000	26.157680	0.000583	20.949536
1807.487646	-3.013400	3.353400	-10.105000	26.175145	0.000579	20.941009
1808.486648	-3.013700	3.352200	-10.101000	26.214717	0.000579	20.945686
1809.488927	-3.008900	3.351300	-10.082000	26.224305	0.000580	20.915969
1810.487680	-2.980300	3.352100	-9.989300	26.241046	0.000578	20.927101
1811.491143	-2.984300	3.353900	-10.008000	26.245720	0.000578	20.955028
1812.489360	-2.976200	3.353800	-9.979900	26.271677	0.000577	20.951242
1813.488351	-2.982300	3.352300	-9.996600	26.263014	0.000578	20.936848
1814.488553	-2.995500	3.351200	-10.038000	26.257754	0.000576	20.941045
1815.489206	-3.020100	3.351500	-10.121000	26.254879	0.000578	20.942897
1816.488232	-3.022100	3.351400	-10.128000	26.273387	0.000575	20.931152
1817.489713	-2.992700	3.351400	-10.029000	26.265586	0.000576	20.948915
1818.489128	-2.994300	3.349300	-10.027000	26.250720	0.000575	20.944408
1819.488941	-2.987800	3.350500	-10.009000	26.238805	0.000575	20.914893
1820.493807	-3.008200	3.349100	-10.074000	26.233740	0.000575	20.949155
1821.491660	-3.000000	3.349000	-10.046000	26.189103	0.000574	20.950766
1822.491389	-2.998500	3.349600	-10.043000	26.141835	0.000572	20.936935
1823.491416	-3.016900	3.348300	-10.101000	26.109753	0.000572	20.944053
1824.493203	-3.013600	3.349500	-10.093000	26.059139	0.000571	20.912168
1825.496128	-2.985800	3.348200	-9.995300	26.051318	0.000572	20.932757
1826.494010	-2.964500	3.348900	-9.926800	26.079393	0.000570	20.930620
1827.492676	-3.018300	3.346400	-10.099000	26.116302	0.000572	20.943047
1828.493556	-2.982200	3.347600	-9.981600	26.150328	0.000569	20.927453
1829.497068	-3.006100	3.346500	-10.059000	26.115094	0.000570	20.921921
1830.499288	-2.990900	3.346300	-10.006000	26.101289	0.000568	20.919905
1831.495331	-3.003400	3.346400	-10.050000	26.109758	0.000568	20.916087
1832.496270	-3.015500	3.344000	-10.083000	26.125236	0.000567	20.895605
1833.494613	-3.014100	3.345200	-10.082000	26.167113	0.000567	20.915871
1834.496461	-3.012800	3.345100	-10.078000	26.203245	0.000567	20.911876
1835.499021	-2.975400	3.345100	-9.952300	26.222937	0.000566	20.915543
1836.499042	-2.989600	3.345200	-9.999700	26.231266	0.000567	20.922016
1837.500377	-3.006200	3.343800	-10.051000	26.222528	0.000567	20.923666
1838.500874	-3.004600	3.344400	-10.048000	26.225466	0.000567	20.911446
1839.500810	-2.991700	3.343700	-10.003000	26.226208	0.000564	20.922622
1840.500453	-2.991100	3.344500	-10.003000	26.176173	0.000564	20.916440
1841.500090	-2.986200	3.343300	-9.983000	26.120907	0.000564	20.914487
1842.500541	-2.986400	3.344000	-9.985800	26.101968	0.000562	20.914423
1843.503060	-2.972400	3.343400	-9.936800	26.100452	0.000564	20.926649
1844.502107	-3.005200	3.341000	-10.039000	26.099558	0.000562	20.924803
1845.502917	-2.983000	3.342000	-9.968100	26.115162	0.000565	20.940006
1846.505062	-2.963200	3.340900	-9.898000	26.149018	0.000562	20.898638
1847.502253	-2.996500	3.340800	-10.009000	26.145394	0.000562	20.899264
1848.506370	-2.982600	3.340800	-9.963900	26.141021	0.000561	20.915258
1849.504345	-3.006600	3.342100	-10.047000	26.102949	0.000559	20.900238
1850.504674	-2.995900	3.340600	-10.007000	26.124461	0.000561	20.929910
1851.504078	-3.012200	3.338500	-10.055000	26.165495	0.000559	20.923254
1852.507856	-2.996200	3.338200	-10.001000	26.172819	0.000558	20.918759
1853.505995	-3.000200	3.339700	-10.018000	26.193511	0.000560	20.897829
1854.506798	-2.986400	3.338800	-9.970100	26.163495	0.000560	20.919347
1855.507251	-2.991100	3.338000	-9.983100	26.159745	0.000558	20.920795
1856.508596	-2.997700	3.336900	-10.001000	26.147627	0.000556	20.925687
1857.509205	-3.002100	3.338100	-10.021000	26.121478	0.000555	20.915061
1858.508394	-2.991500	3.339100	-9.988100	26.137648	0.000554	20.922299
1859.513698	-3.009000	3.337800	-10.043000	26.140687	0.000555	20.913974
1860.511769	-2.996300	3.337700	-9.999600	26.094889	0.000555	20.911578
1861.508614	-2.996500	3.335300	-9.993100	26.097198	0.000554	20.916742
1862.510455	-2.991600	3.337100	-9.982200	26.066555	0.000554	20.921515
1863.512049	-3.027300	3.335300	-10.096000	26.071520	0.000553	20.903746
1864.511830	-2.993900	3.334400	-9.982100	26.130192	0.000554	20.902007
1865.512847	-3.009200	3.333500	-10.030000	26.112412	0.000551	20.892677
1866.511782	-3.003800	3.333000	-10.011000	26.176983	0.000550	20.898290
1867.512508	-3.008200	3.334200	-10.029000	26.146066	0.000551	20.876234
1868.517352	-3.005600	3.333400	-10.018000	26.146463	0.000549	20.912665
1869.513463	-2.984800	3.335600	-9.955400	26.165960	0.000549	20.899068
1870.511870	-3.002900	3.333700	-10.010000	26.167653	0.000550	20.908354
1871.512948	-3.023500	3.331300	-10.071000	26.213329	0.000550	20.919163
1872.513639	-2.988000	3.333100	-9.957300	26.214845	0.000548	20.909782
1873.516824	-3.016600	3.331100	-10.047000	26.234763	0.000549	20.892815
1874.512033	-2.988900	3.331300	-9.955500	26.216808	0.000549	20.902272
1875.512949	-2.986900	3.331400	-9.950200	26.245370	0.000546	20.911059
1876.513497	-2.997700	3.330900	-9.983300	26.246609	0.000547	20.901400
1877.513445	-2.985300	3.331800	-9.945700	26.252573	0.000547	20.904074
1878.514389	-2.969900	3.332300	-9.895700	26.235864	0.000547	20.907197
1879.513848	-2.972600	3.331700	-9.902800	26.204923	0.000547	20.900761
1880.516258	-2.984100	3.330200	-9.937100	26.130720	0.000544	20.896848
1881.513182	-3.023700	3.329700	-10.067000	26.108196	0.000543	20.897449
1882.514216	-2.985800	3.328400	-9.936800	26.124435	0.000543	20.900490
1883.515745	-3.004800	3.328400	-10.000000	26.159411	0.000543	20.896754
1884.514127	-3.033000	3.327300	-10.091000	26.172327	0.000542	20.896456
1885.515216	-3.012300	3.328600	-10.026000	26.221576	0.000541	20.909434
1886.514824	-2.983800	3.328900	-9.931300	26.233454	0.000543	20.892923
1887.515587	-3.008300	3.328300	-10.012000	26.248282	0.000540	20.895495
1888.514928	-3.022300	3.326400	-10.052000	26.272050	0.000539	20.880027
1889.519051	-2.973800	3.328200	-9.897000	26.268999	0.000542	20.900192
1890.515515	-3.022100	3.325100	-10.047000	26.248987	0.000539	20.916116
1891.516112	-3.010300	3.325000	-10.007000	26.252862	0.000540	20.890615
1892.517428	-2.994900	3.326200	-9.960500	26.280429	0.000540	20.897455
1893.516617	-2.990800	3.326300	-9.947300	26.300849	0.000537	20.883364
1894.518712	-2.981000	3.324200	-9.907300	26.306335	0.000535	20.888877
1895.520033	-2.983000	3.325100	-9.917600	26.326333	0.000538	20.897594
1896.517606	-3.002000	3.325300	-9.981400	26.366655	0.000537	20.911090
1897.516129	-2.985500	3.324000	-9.922200	26.378802	0.000534	20.879205
1898.516552	-2.996000	3.323800	-9.957800	26.395414	0.000536	20.900641
1899.517806	-2.985800	3.324100	-9.924100	26.425462	0.000533	20.893384
1900.518565	-2.977900	3.323200	-9.895100	26.385759	0.000532	20.885722
1901.517975	-2.994200	3.322900	-9.945900	26.344771	0.000533	20.883883
1902.518186	-3.008100	3.322600	-9.992900	26.364661	0.000532	20.892967
1903.516924	-3.008100	3.320600	-9.987400	26.333303	0.000532	20.895116
1904.519018	-3.032900	3.321000	-10.071000	26.345890	0.000532	20.896387
1905.522065	-2.962600	3.322800	-9.843100	26.340808	0.000531	20.878004
1906.520569	-2.992800	3.319900	-9.934600	26.349847	0.000530	20.875235
1907.521229	-2.988100	3.319400	-9.917200	26.424091	0.000533	20.883946
1908.520094	-3.007800	3.319600	-9.984200	26.444232	0.000532	20.880956
1909.520920	-2.989500	3.320600	-9.926200	26.450339	0.000530	20.887094
1910.523674	-2.981000	3.321100	-9.899400	26.458057	0.000530	20.883946
1911.521345	-3.004600	3.320600	-9.976300	26.450094	0.000530	20.888744
1912.523791	-2.994300	3.318100	-9.934100	26.418097	0.000528	20.889300
1913.520906	-3.008500	3.319500	-9.985600	26.433338	0.000528	20.888497
1914.520868	-3.005400	3.317700	-9.969400	26.428180	0.000526	20.890900
1915.523304	-2.995300	3.317800	-9.937000	26.417059	0.000527	20.875930
1916.524204	-3.016600	3.317100	-10.005000	26.382173	0.000529	20.888283
1917.523066	-3.016400	3.317700	-10.006000	26.428809	0.000524	20.873041
1918.521117	-3.003300	3.318200	-9.964200	26.383595	0.000526	20.866005
1919.521788	-3.005300	3.317100	-9.967800	26.366485	0.000526	20.858767
1920.525757	-3.004700	3.315400	-9.960800	26.375160	0.000524	20.866536
1921.521422	-3.004000	3.316400	-9.960900	26.416298	0.000525	20.874217
1922.525089	-2.987100	3.316300	-9.905200	26.420481	0.000523	20.859456
1923.525387	-3.007100	3.315100	-9.968100	26.420550	0.000522	20.863793
1924.522175	-2.978500	3.316800	-9.877800	26.439754	0.000521	20.882144
1925.521676	-3.004300	3.314500	-9.956600	26.434879	0.000521	20.883883
1926.522187	-3.003200	3.315100	-9.955000	26.417355	0.000521	20.880020
1927.522341	-2.992700	3.314300	-9.917100	26.431187	0.000520	20.883017
1928.523272	-3.022300	3.314500	-10.016000	26.384734	0.000518	20.851977
1929.521975	-2.984600	3.314400	-9.891300	26.390892	0.000518	20.864804
1930.523837	-3.013500	3.312200	-9.979300	26.404925	0.000520	20.877011
1931.526150	-2.991000	3.312600	-9.905900	26.431470	0.000519	20.876190
1932.524585	-3.003500	3.313600	-9.951500	26.444477	0.000519	20.889737
1933.523898	-2.999200	3.311600	-9.930700	26.455535	0.000517	20.869558
1934.523258	-3.014400	3.311000	-9.979600	26.443861	0.000516	20.858299
1935.529039	-3.003400	3.312400	-9.947400	26.468373	0.000519	20.872030
1936.528765	-2.978400	3.311600	-9.862100	26.445786	0.000515	20.864501
1937.527400	-3.014000	3.311400	-9.979800	26.463259	0.000512	20.883485
1938.527961	-3.013200	3.310300	-9.972600	26.468851	0.000514	20.888156
1939.528151	-3.034700	3.309700	-10.042000	26.499362	0.000512	20.881367
1940.526611	-3.007600	3.309800	-9.954200	26.522011	0.000513	20.878529
1941.528725	-2.999600	3.310900	-9.929900	26.535175	0.000513	20.867580
1942.529644	-3.003200	3.308300	-9.934900	26.582093	0.000513	20.862586
1943.526705	-2.999000	3.309700	-9.923600	26.583759	0.000512	20.879907
1944.527888	-2.987800	3.308400	-9.884100	26.620676	0.000510	20.881456
1945.527534	-2.999000	3.308800	-9.920600	26.625078	0.000510	20.861701
1946.527795	-3.001400	3.307800	-9.926700	26.610853	0.000511	20.873952
1947.528852	-2.989000	3.307900	-9.886100	26.646448	0.000509	20.864217
1948.526673	-2.985400	3.308600	-9.875800	26.616638	0.000509	20.865070
1949.531027	-3.000800	3.306700	-9.921800	26.583822	0.000508	20.863850
1950.527149	-3.009000	3.306400	-9.948200	26.526433	0.000507	20.866853
1951.528322	-3.025800	3.305600	-10.001000	26.496111	0.000508	20.860082
1952.533216	-2.998400	3.305800	-9.911100	26.462567	0.000507	20.851023
1953.527626	-2.990200	3.306200	-9.885000	26.426004	0.000505	20.879231
1954.527509	-2.979200	3.305300	-9.846600	26.403435	0.000507	20.863186
1955.528800	-3.012700	3.305800	-9.957500	26.385288	0.000505	20.869603
1956.529050	-2.997900	3.305200	-9.907600	26.356365	0.000505	20.855234
1957.529170	-2.986200	3.304800	-9.867400	26.362228	0.000503	20.866341
1958.529286	-3.005000	3.303500	-9.925600	26.357510	0.000503	20.862548
1959.530453	-2.995400	3.304600	-9.897900	26.371638	0.000504	20.841187
1960.530843	-2.991500	3.304400	-9.884500	26.393421	0.000503	20.864502
1961.530414	-2.993800	3.302800	-9.887400	26.378457	0.000500	20.834290
1962.533566	-2.995600	3.302600	-9.892100	26.365524	0.000503	20.858275
1963.529820	-3.009000	3.303100	-9.938300	26.356164	0.000500	20.863566
1964.531776	-3.001100	3.302700	-9.911100	26.343923	0.000501	20.839411
1965.529428	-2.980200	3.303000	-9.841600	26.320314	0.000500	20.861676
1966.530102	-3.017700	3.300400	-9.958800	26.293616	0.000500	20.854760
1967.534955	-2.985400	3.300900	-9.854000	26.282897	0.000499	20.852997
1968.531222	-2.976800	3.301300	-9.825500	26.299901	0.000497	20.843059
1969.530176	-3.010500	3.299300	-9.930100	26.313049	0.000496	20.846789
1970.532320	-3.000700	3.299400	-9.899400	26.333625	0.000495	20.857036
1971.534220	-3.005800	3.298400	-9.913900	26.294101	0.000497	20.857144
1972.533685	-2.996800	3.299700	-9.887700	26.265974	0.000494	20.848319
1973.534926	-2.992400	3.300700	-9.875700	26.271013	0.000496	20.847693
1974.533410	-2.992700	3.299300	-9.872500	26.341017	0.000493	20.840284
1975.532541	-3.011600	3.298700	-9.932600	26.385264	0.000493	20.857251
1976.531939	-2.977500	3.299300	-9.822300	26.400813	0.000492	20.842060
1977.533005	-3.002800	3.297400	-9.900400	26.456228	0.000491	20.855557
1978.536350	-2.977800	3.296400	-9.814700	26.412658	0.000492	20.839740
1979.533948	-2.999300	3.297300	-9.886700	26.428056	0.000491	20.854742
1980.536278	-2.993600	3.297100	-9.869200	26.432013	0.000490	20.827900
1981.533168	-2.991900	3.296900	-9.863800	26.408695	0.000490	20.844766
1982.534489	-3.001600	3.296900	-9.894700	26.388736	0.000489	20.832768
1983.538648	-3.003500	3.295100	-9.895100	26.343276	0.000489	20.855830
1984.539183	-2.994200	3.296300	-9.869200	26.342854	0.000487	20.845449
1985.535383	-2.999700	3.295000	-9.882300	26.315792	0.000489	20.853813
1986.540662	-2.997800	3.295100	-9.876600	26.319743	0.000489	20.832654
1987.534789	-2.994300	3.294000	-9.862100	26.322825	0.000489	20.858510
1988.534685	-2.998900	3.294100	-9.878400	26.320819	0.000486	20.830890
1989.535897	-2.995300	3.293200	-9.862900	26.327946	0.000484	20.813872
1990.535959	-3.009100	3.292800	-9.906200	26.293957	0.000486	20.843250
1991.540678	-2.998300	3.292400	-9.869500	26.302878	0.000486	20.829930
1992.538329	-2.996500	3.291500	-9.862400	26.297763	0.000486	20.845178
1993.538364	-2.991700	3.290900	-9.844600	26.346214	0.000484	20.817533
1994.542713	-3.005700	3.292700	-9.895300	26.379296	0.000483	20.828021
1995.539451	-2.994900	3.291500	-9.857000	26.383422	0.000480	20.833591
1996.539454	-3.015900	3.289900	-9.920800	26.395047	0.000483	20.837687
1997.539519	-3.001200	3.290100	-9.873400	26.433857	0.000482	20.838288
1998.539607	-3.019200	3.290700	-9.934500	26.483761	0.000480	20.846721
1999.538437	-2.988800	3.290900	-9.834500	26.497101	0.000481	20.844484
2000.540906	-2.997900	3.289900	-9.861300	26.499240	0.000480	20.817711
2001.540205	-3.010900	3.289000	-9.901600	26.511630	0.000479	20.823527
2002.540058	-2.996700	3.288600	-9.853900	26.526109	0.000481	20.831916
2003.540613	-3.000200	3.288500	-9.865200	26.550512	0.000478	20.829893
2004.540105	-2.999600	3.289000	-9.863600	26.592448	0.000479	20.832220
2005.544547	-3.001900	3.287300	-9.867700	26.610555	0.000476	20.812015
2006.540683	-3.005400	3.288600	-9.882700	26.649609	0.000478	20.823774
2007.543196	-2.990900	3.287800	-9.831700	26.644219	0.000474	20.832106
2008.541549	-3.005000	3.287000	-9.877300	26.615775	0.000475	20.840021
2009.542325	-3.002500	3.287200	-9.868900	26.583330	0.000474	20.839648
2010.545528	-3.008500	3.284900	-9.882500	26.592575	0.000474	20.836614
2011.543834	-3.015200	3.285400	-9.904800	26.577355	0.000474	20.826057
2012.544979	-2.990200	3.286200	-9.825600	26.639969	0.000475	20.830678
2013.544512	-2.997800	3.286200	-9.850300	26.649578	0.000473	20.825640
2014.546104	-3.004200	3.284300	-9.865900	26.643377	0.000471	20.802337
2015.544874	-3.024500	3.283600	-9.930400	26.649459	0.000471	20.833580
2016.548677	-3.016800	3.283800	-9.905900	26.672853	0.000469	20.839081
2017.547830	-2.997400	3.283100	-9.839900	26.687323	0.000470	20.823282
2018.550361	-3.014900	3.283300	-9.897200	26.702969	0.000468	20.829528
2019.547583	-3.007400	3.281500	-9.867100	26.700221	0.000470	20.819654
2020.549793	-2.994400	3.282600	-9.828200	26.682418	0.000468	20.810765
2021.551145	-3.010500	3.281400	-9.877900	26.654943	0.000468	20.842413
2022.549183	-3.020300	3.281800	-9.910800	26.656189	0.000467	20.824225
2023.549135	-3.003000	3.281000	-9.851000	26.636184	0.000467	20.829245
2024.550040	-3.004300	3.280300	-9.853400	26.667572	0.000465	20.819073
2025.548609	-3.004400	3.280700	-9.854700	26.655183	0.000466	20.845498
2026.553628	-3.007200	3.280200	-9.863100	26.631852	0.000465	20.828208
2027.553401	-2.996200	3.280600	-9.828800	26.591068	0.000464	20.853590
2028.549341	-3.006100	3.280900	-9.861600	26.558251	0.000462	20.842888
2029.549482	-2.990200	3.279000	-9.804400	26.557314	0.000463	20.813024
2030.549187	-2.995300	3.279800	-9.822900	26.518069	0.000461	20.818619
2031.549129	-2.995300	3.279300	-9.821700	26.460392	0.000460	20.818492
2032.553658	-3.002700	3.278700	-9.844100	26.444183	0.000462	20.819270
2033.549407	-3.026100	3.277100	-9.914600	26.421017	0.000461	20.798831
2034.553833	-3.013900	3.277100	-9.875900	26.371784	0.000458	20.802454
2035.550457	-2.990600	3.277600	-9.801100	26.381345	0.000459	20.820598
2036.550741	-2.986400	3.277400	-9.786600	26.400342	0.000459	20.821198
2037.553160	-2.993700	3.276500	-9.808300	26.427710	0.000456	20.812670
2038.550813	-3.000600	3.276700	-9.831000	26.486408	0.000458	20.823304
2039.550858	-3.004600	3.275700	-9.840500	26.511881	0.000456	20.815718
2040.552859	-3.015200	3.274600	-9.872600	26.542397	0.000457	20.809409
2041.552496	-2.989600	3.275000	-9.789300	26.575246	0.000456	20.839583
2042.553697	-3.006700	3.274700	-9.845200	26.615415	0.000454	20.813107
2043.556480	-3.003200	3.275000	-9.833900	26.612119	0.000453	20.818329
2044.554060	-3.002200	3.274100	-9.828400	26.596781	0.000455	20.828040
2045.556787	-2.980200	3.273700	-9.755600	26.615522	0.000452	20.801361
2046.553541	-3.036600	3.271600	-9.933200	26.633125	0.000452	20.785866
2047.554863	-3.010400	3.272300	-9.849900	26.668606	0.000450	20.837656
2048.556329	-3.007200	3.273200	-9.842000	26.677668	0.000451	20.795558
2049.554587	-3.005600	3.272600	-9.834600	26.661016	0.000451	20.821965
2050.557886	-3.001700	3.272900	-9.822900	26.608567	0.000449	20.821871
2051.555676	-3.050300	3.272500	-9.981100	26.557625	0.000447	20.818552
2052.559389	-3.014700	3.271000	-9.860000	26.571632	0.000447	20.828364
2053.560053	-3.015900	3.269500	-9.859100	26.609913	0.000447	20.807103
2054.556913	-3.000400	3.270700	-9.812500	26.638144	0.000448	20.819836
2055.560572	-2.988000	3.269500	-9.767300	26.649024	0.000447	20.830299
2056.561219	-3.015600	3.270100	-9.859800	26.666846	0.000445	20.815973
2057.558232	-2.998200	3.270200	-9.803700	26.664293	0.000444	20.830476
2058.561591	-2.986600	3.269900	-9.765100	26.679505	0.000445	20.810208
2059.562689	-3.015700	3.267700	-9.853100	26.663281	0.000444	20.844631
2060.559535	-3.014400	3.268000	-9.850200	26.671469	0.000444	20.808767
2061.561076	-3.000100	3.269000	-9.806900	26.633121	0.000444	20.815734
2062.563128	-2.989400	3.268100	-9.769000	26.623543	0.000441	20.810847
2063.562202	-3.000300	3.266900	-9.800300	26.622084	0.000440	20.819812
2064.566521	-3.012100	3.266400	-9.838100	26.588790	0.000440	20.809576
2065.563378	-2.979600	3.268400	-9.737700	26.576728	0.000440	20.813572
2066.566702	-3.007700	3.267400	-9.825100	26.585740	0.000438	20.832114
2067.564291	-2.978500	3.265200	-9.723400	26.633134	0.000439	20.834713
2068.563830	-3.002100	3.265700	-9.803200	26.660169	0.000438	20.817321
2069.564202	-3.007000	3.264500	-9.815100	26.646466	0.000438	20.819667
2070.563856	-2.962900	3.266700	-9.677600	26.678614	0.000438	20.806941
2071.562613	-2.980100	3.265700	-9.731000	26.658063	0.000436	20.836540
2072.564646	-3.024400	3.262800	-9.865300	26.680186	0.000434	20.839815
2073.565120	-3.008800	3.263200	-9.817400	26.685450	0.000434	20.823770
2074.564821	-2.996400	3.263900	-9.779200	26.684777	0.000433	20.821197
2075.565392	-2.991400	3.262700	-9.759600	26.677357	0.000434	20.812789
2076.564362	-3.010600	3.263300	-9.822700	26.674527	0.000432	20.822746
2077.565930	-3.020900	3.260100	-9.846700	26.702328	0.000431	20.817505
2078.564889	-3.021000	3.259400	-9.844300	26.719188	0.000433	20.827816
2079.565947	-2.988800	3.261100	-9.745300	26.736713	0.000431	20.812720
2080.569144	-2.992300	3.259900	-9.752200	26.740461	0.000431	20.804160
2081.565917	-2.992700	3.261400	-9.759800	26.777530	0.000430	20.811557
2082.569344	-2.993400	3.260600	-9.758500	26.769318	0.000430	20.823215
2083.566356	-3.031400	3.258900	-9.877800	26.752164	0.000430	20.842477
2084.566745	-2.997300	3.261300	-9.773800	26.775499	0.000427	20.829904
2085.569778	-2.996000	3.260800	-9.767800	26.810491	0.000427	20.821464
2086.568418	-2.974100	3.260500	-9.696600	26.814263	0.000428	20.832369
2087.568068	-2.992500	3.259800	-9.754500	26.814666	0.000426	20.827558
2088.566885	-3.007800	3.258500	-9.799700	26.759911	0.000425	20.830827
2089.567396	-3.023000	3.255700	-9.840100	26.731628	0.000424	20.820883
2090.568407	-3.004100	3.258100	-9.786300	26.722660	0.000424	20.833204
2091.568269	-3.014100	3.257500	-9.817600	26.709580	0.000426	20.827167
2092.568680	-3.015000	3.256000	-9.814900	26.701670	0.000423	20.830594
2093.570252	-3.000500	3.256400	-9.769400	26.714882	0.000421	20.831549
2094.567334	-2.994500	3.255500	-9.747900	26.740300	0.000423	20.836713
2095.568413	-3.011500	3.254500	-9.799200	26.783266	0.000422	20.824436
2096.572777	-3.000300	3.254900	-9.765200	26.804048	0.000421	20.841538
2097.568381	-3.012400	3.252800	-9.797900	26.793918	0.000421	20.856482
2098.568739	-2.991200	3.254500	-9.733800	26.789158	0.000418	20.843637
2099.568552	-2.982500	3.253500	-9.703400	26.805300	0.000418	20.808658
2100.567908	-2.989700	3.254700	-9.729500	26.795422	0.000418	20.823856
2101.576950	-3.028100	3.251800	-9.845500	26.803741	0.000416	20.834117
2102.572264	-2.986800	3.252800	-9.714500	26.817586	0.000417	20.837132
2103.569077	-3.005400	3.252300	-9.771600	26.829451	0.000415	20.814923
2104.569307	-3.005000	3.251100	-9.768500	26.815732	0.000416	20.849491
2105.569028	-2.991200	3.252800	-9.728700	26.784488	0.000415	20.834673
2106.570175	-2.995700	3.250800	-9.737600	26.743220	0.000414	20.824003
2107.570858	-2.986900	3.252100	-9.712500	26.725770	0.000415	20.833486
2108.569117	-2.992600	3.250800	-9.727700	26.737341	0.000412	20.841799
2109.570545	-3.021900	3.247600	-9.812800	26.746377	0.000415	20.847565
2110.570094	-2.978200	3.250300	-9.679000	26.770410	0.000411	20.829529
2111.569840	-2.973800	3.248900	-9.660400	26.777509	0.000413	20.857528
2112.572946	-3.005400	3.248400	-9.762500	26.818790	0.000409	20.858255
2113.571075	-2.997700	3.248500	-9.735900	26.862577	0.000410	20.863876
2114.572388	-2.986300	3.248400	-9.699800	26.885708	0.000409	20.843988
2115.571278	-2.991000	3.247800	-9.712200	26.899566	0.000407	20.838482
2116.569413	-2.997600	3.246800	-9.730800	26.935994	0.000406	20.849981
2117.574407	-3.003200	3.247100	-9.750700	26.895077	0.000406	20.855778
2118.571762	-3.003400	3.245900	-9.747300	26.864602	0.000406	20.855956
2119.571558	-2.997700	3.246700	-9.732100	26.838648	0.000406	20.860678
2120.572141	-3.038600	3.244100	-9.856600	26.790125	0.000404	20.846505
2121.571733	-3.029300	3.244700	-9.828000	26.745939	0.000403	20.833374
2122.572492	-3.010800	3.243900	-9.766000	26.721051	0.000404	20.838698
2123.577142	-2.994200	3.244800	-9.713300	26.717328	0.000403	20.852024
2124.573926	-3.009500	3.243100	-9.758600	26.714203	0.000402	20.846512
2125.575138	-3.008600	3.245900	-9.764100	26.768093	0.000403	20.859914
2126.574176	-2.979100	3.244300	-9.663900	26.778543	0.000401	20.849085
2127.575426	-2.992100	3.243600	-9.703300	26.800312	0.000401	20.845842
2128.577211	-2.997900	3.243000	-9.721100	26.823150	0.000398	20.847467
2129.575780	-2.991800	3.243900	-9.703400	26.869320	0.000399	20.830828
2130.575294	-2.996800	3.242200	-9.715600	26.875148	0.000400	20.830999
2131.574927	-3.010400	3.240800	-9.753900	26.883762	0.000398	20.856254
2132.576870	-3.019500	3.240400	-9.783100	26.900197	0.000398	20.868038
2133.576565	-3.001800	3.240000	-9.725400	26.878160	0.000397	20.850148
2134.578516	-3.010100	3.239900	-9.751500	26.904913	0.000397	20.877047
2135.575883	-3.005500	3.239400	-9.735200	26.922662	0.000394	20.866446
2136.576349	-2.995100	3.240800	-9.705300	26.981897	0.000393	20.873380
2137.575641	-2.989800	3.239300	-9.683900	27.010691	0.000394	20.860611
2138.576730	-3.019400	3.237100	-9.773100	27.039106	0.000393	20.861212
2139.577830	-3.022200	3.236800	-9.780600	27.046336	0.000391	20.856629
2140.576242	-2.996900	3.237900	-9.702300	27.071155	0.000390	20.857881
2141.581876	-2.983100	3.238000	-9.658600	27.113561	0.000390	20.877769
2142.575502	-3.012700	3.237100	-9.751500	27.100537	0.000390	20.888851
2143.577790	-2.988600	3.237500	-9.674500	27.056024	0.000388	20.875854
2144.586239	-3.004900	3.235800	-9.722100	26.992517	0.000390	20.869362
2145.578229	-3.000200	3.234600	-9.703600	26.963171	0.000389	20.858344
2146.579470	-2.991200	3.236400	-9.680300	26.987438	0.000389	20.876107
2147.577476	-3.006000	3.234600	-9.722100	27.003822	0.000388	20.866031
2148.578266	-2.984700	3.235600	-9.655000	27.052284	0.000384	20.869249
2149.582663	-3.000700	3.233000	-9.700400	27.077204	0.000383	20.866335
2150.579304	-2.979700	3.235300	-9.639200	27.096414	0.000385	20.879016
2151.580669	-3.008100	3.233200	-9.724900	27.095849	0.000382	20.876077
2152.579147	-2.999400	3.233900	-9.698600	27.006891	0.000385	20.882393
2153.578666	-2.977400	3.233800	-9.627600	27.007319	0.000384	20.896572
2154.579664	-3.006900	3.232200	-9.716100	26.929336	0.000381	20.873157
2155.580463	-3.005000	3.230200	-9.705300	26.896630	0.000380	20.863978
2156.580921	-2.988400	3.231900	-9.656500	26.866433	0.000380	20.896200
2157.581087	-2.990400	3.230500	-9.659900	26.873826	0.000381	20.864756
2158.581054	-2.991800	3.228700	-9.658700	26.905445	0.000380	20.863359
2159.583205	-2.975700	3.230200	-9.611400	26.872783	0.000379	20.894524
2160.585145	-3.018700	3.228800	-9.745800	26.900190	0.000379	20.886996
2161.585613	-3.015200	3.229300	-9.735300	26.943521	0.000380	20.876514
2162.586872	-3.012200	3.228900	-9.724200	26.982707	0.000379	20.893159
2163.583900	-3.017700	3.227300	-9.738500	26.965664	0.000377	20.889297
2164.584906	-2.998800	3.227500	-9.677600	26.951147	0.000376	20.887976
2165.589873	-3.001400	3.227000	-9.684800	26.973830	0.000375	20.885656
2166.586133	-2.995000	3.227300	-9.664600	27.023514	0.000373	20.867343
2167.588602	-3.000700	3.227100	-9.682300	27.079444	0.000373	20.890871
2168.597461	-3.001900	3.225800	-9.683200	27.105752	0.000373	20.900259
2169.587376	-3.022800	3.224900	-9.746300	27.129475	0.000373	20.882395
2170.590979	-3.000100	3.225300	-9.675000	27.094512	0.000373	20.893224
2171.591093	-3.018400	3.226200	-9.735900	27.059397	0.000371	20.881143
2172.588073	-2.997300	3.224700	-9.664000	27.011043	0.000371	20.899369
2173.589068	-3.002200	3.223400	-9.675400	26.947313	0.000370	20.885069
2174.588816	-3.007600	3.223200	-9.692600	26.946320	0.000370	20.885967
2175.589075	-2.996800	3.223900	-9.659600	26.944271	0.000368	20.889122
2176.592387	-3.000900	3.222200	-9.667500	26.997898	0.000368	20.887099
2177.589764	-2.977100	3.222000	-9.590900	27.052742	0.000368	20.887251
2178.593274	-2.978600	3.223100	-9.598300	27.095771	0.000367	20.896386
2179.590395	-2.975800	3.222500	-9.588600	27.152571	0.000365	20.896614
2180.591230	-2.985700	3.220600	-9.614600	27.153615	0.000366	20.891974
2181.595483	-3.002300	3.219500	-9.664900	27.132752	0.000366	20.907026
2182.592991	-2.989100	3.220700	-9.625500	27.137636	0.000363	20.880646
2183.592464	-3.021100	3.218600	-9.723000	27.121513	0.000364	20.886715
2184.592687	-3.002500	3.219500	-9.665000	27.124720	0.000360	20.907481
2185.592335	-2.996200	3.217900	-9.640100	27.135833	0.000361	20.879780
2186.593060	-3.001600	3.217500	-9.657100	27.165590	0.000361	20.914922
2187.598010	-3.013000	3.216500	-9.689700	27.154056	0.000362	20.902848
2188.592890	-2.956400	3.217700	-9.511400	27.108773	0.000360	20.907564
2189.594934	-2.994300	3.216800	-9.629500	27.077537	0.000359	20.901281
2190.595723	-3.022400	3.215100	-9.716400	27.053096	0.000359	20.892823
2191.597735	-3.016300	3.214500	-9.694100	27.080071	0.000358	20.917578
2192.597710	-2.996900	3.216400	-9.638300	27.144987	0.000359	20.925493
2193.594518	-2.978700	3.216600	-9.580000	27.144339	0.000358	20.890231
2194.595094	-2.994800	3.214200	-9.624800	27.146980	0.000356	20.906163
2195.595183	-2.988500	3.214700	-9.605900	27.142367	0.000356	20.909108
2196.595716	-3.001300	3.213800	-9.645000	27.173959	0.000356	20.897263
2197.595726	-2.994000	3.214300	-9.622800	27.181163	0.000356	20.909723
2198.595880	-2.980500	3.211900	-9.572900	27.144291	0.000354	20.909622
2199.594955	-3.014300	3.211700	-9.679600	27.162634	0.000354	20.935180
2200.595318	-3.010200	3.211100	-9.665100	27.196306	0.000353	20.920685
2201.599836	-3.022100	3.210400	-9.700800	27.222158	0.000353	20.927721
2202.596870	-2.977500	3.211800	-9.562100	27.226785	0.000352	20.919099
2203.597125	-2.988000	3.211800	-9.596300	27.236263	0.000352	20.914409
2204.597624	-3.020300	3.208700	-9.690000	27.229099	0.000353	20.920004
2205.597786	-3.001700	3.212200	-9.641300	27.231110	0.000351	20.928664
2206.597704	-3.000100	3.209100	-9.626500	27.229213	0.000347	20.915852
2207.601215	-3.019900	3.206900	-9.683200	27.232117	0.000349	20.949589
2208.598824	-3.010700	3.208500	-9.658800	27.233714	0.000349	20.925120
2209.600538	-3.013700	3.207600	-9.666000	27.244279	0.000348	20.946176
2210.599437	-3.024900	3.206000	-9.696700	27.255430	0.000346	20.905240
2211.602774	-2.994400	3.208800	-9.607400	27.284041	0.000345	20.941601
2212.603146	-2.967600	3.208000	-9.518600	27.304957	0.000345	20.936563
2213.601414	-2.972500	3.207000	-9.531800	27.313650	0.000346	20.928239
2214.603834	-2.979200	3.208700	-9.558700	27.272867	0.000342	20.953120
2215.601927	-2.992400	3.205300	-9.590600	27.237758	0.000342	20.930609
2216.602238	-2.972000	3.205100	-9.524300	27.243252	0.000343	20.936609
2217.602909	-2.983100	3.206200	-9.563500	27.225296	0.000342	20.945574
2218.602642	-2.971800	3.204500	-9.522100	27.218653	0.000340	20.939841
2219.601778	-2.973200	3.204500	-9.526600	27.208534	0.000341	20.927767
2220.601921	-2.985400	3.204300	-9.565200	27.189735	0.000338	20.936359
2221.602090	-2.980800	3.203600	-9.548700	27.140480	0.000340	20.950828
2222.602425	-3.013800	3.199700	-9.642600	27.133044	0.000338	20.970848
2223.604430	-3.009600	3.200900	-9.632600	27.190710	0.000336	20.957725
2224.603814	-3.005500	3.199600	-9.614900	27.209026	0.000338	20.949123
2225.605258	-2.988900	3.201300	-9.568300	27.261722	0.000337	20.952814
2226.606792	-3.009000	3.200000	-9.626900	27.303361	0.000338	20.937328
2227.608557	-2.991900	3.199900	-9.572500	27.336734	0.000336	20.957620
2228.610384	-2.991900	3.200700	-9.575200	27.401533	0.000336	20.945521
2229.608066	-3.013700	3.199400	-9.641300	27.418483	0.000334	20.953089
2230.609832	-3.007700	3.198600	-9.619300	27.396507	0.000334	20.948999
2231.610090	-3.014900	3.199800	-9.645700	27.389915	0.000333	20.967495
2232.609905	-3.001700	3.198400	-9.599600	27.357098	0.000333	20.957717
2233.611805	-2.984100	3.197500	-9.541000	27.362679	0.000333	20.962382
2234.609891	-3.012100	3.196700	-9.628300	27.345605	0.000331	20.955165
2235.608190	-2.999800	3.196400	-9.587500	27.369687	0.000331	20.951416
2236.607955	-3.000300	3.196300	-9.589600	27.372573	0.000330	20.978971
2237.610301	-2.988300	3.196200	-9.550200	27.432531	0.000329	20.961531
2238.610232	-3.005400	3.195200	-9.601500	27.438111	0.000330	20.966196
2239.611564	-2.999900	3.194600	-9.582400	27.451409	0.000328	20.967245
2240.610202	-3.006600	3.194300	-9.603000	27.448789	0.000326	20.958921
2241.615262	-2.991800	3.194000	-9.554800	27.376307	0.000326	20.966608
2242.609696	-2.998500	3.192000	-9.570100	27.337060	0.000325	20.970748
2243.612414	-3.029000	3.192100	-9.667300	27.325132	0.000327	20.959699
2244.615480	-3.010400	3.192100	-9.608600	27.312099	0.000324	20.974088
2245.614127	-3.003200	3.189900	-9.579200	27.321048	0.000322	20.957014
2246.613668	-2.977800	3.191700	-9.503700	27.312300	0.000324	20.976661
2247.614040	-2.989700	3.191600	-9.541500	27.289279	0.000323	20.976263
2248.614377	-3.000100	3.189100	-9.565500	27.275735	0.000324	20.966908
2249.614035	-3.009000	3.188900	-9.594300	27.295809	0.000323	20.997053
2250.617640	-2.976000	3.189500	-9.490400	27.305276	0.000321	20.988559
2251.614544	-2.986300	3.188100	-9.519300	27.320950	0.000320	20.989627
2252.614716	-3.028900	3.187400	-9.652100	27.275630	0.000321	21.002832
2253.613523	-2.995800	3.188900	-9.552100	27.294686	0.000320	20.959420
2254.614051	-2.985700	3.189900	-9.523000	27.334727	0.000320	20.986891
2255.614598	-3.025000	3.186400	-9.637200	27.378443	0.000318	20.992934
2256.615907	-2.988800	3.188900	-9.530000	27.414371	0.000318	20.977872
2257.617944	-2.992700	3.185400	-9.531200	27.435926	0.000318	20.982961
2258.616948	-3.001700	3.185300	-9.560500	27.466737	0.000317	20.993568
2259.616727	-3.018200	3.184300	-9.609700	27.455897	0.000317	20.985508
2260.618596	-3.013700	3.182700	-9.590800	27.481159	0.000315	20.998120
2261.616772	-2.980900	3.184200	-9.490900	27.477760	0.000316	20.980004
2262.618868	-2.995200	3.183100	-9.533100	27.493420	0.000314	20.991964
2263.618188	-2.984100	3.185300	-9.505100	27.528942	0.000315	20.974600
2264.618647	-2.987000	3.181200	-9.501700	27.487318	0.000314	20.996256
2265.620061	-2.986400	3.182600	-9.503800	27.470812	0.000312	20.987238
2266.622367	-3.004800	3.181800	-9.558500	27.487012	0.000311	20.993578
2267.621468	-2.975900	3.181800	-9.467400	27.472572	0.000311	20.978578
2268.621351	-2.982300	3.181600	-9.487300	27.430532	0.000309	20.968528
2269.620666	-2.972100	3.181700	-9.454900	27.408456	0.000312	21.001315
2270.621916	-2.999800	3.178300	-9.532800	27.401839	0.000309	20.981386
2271.623943	-3.016800	3.177700	-9.583900	27.394342	0.000308	20.998970
2272.622027	-2.995500	3.177400	-9.516800	27.408193	0.000310	20.974976
2273.623566	-2.987400	3.178200	-9.493200	27.414572	0.000309	20.969067
2274.621424	-2.991500	3.176400	-9.501100	27.442606	0.000309	20.974035
2275.622296	-3.021600	3.174600	-9.591000	27.491200	0.000308	20.985464
2276.625988	-2.996300	3.177000	-9.517000	27.556688	0.000308	20.971223
2277.623978	-3.005800	3.174800	-9.541000	27.584391	0.000307	20.983922
2278.625140	-3.002100	3.173900	-9.528300	27.603096	0.000307	20.971451
2279.623880	-2.983700	3.173700	-9.468000	27.594790	0.000305	20.965940
2280.624546	-3.018800	3.172900	-9.576900	27.589708	0.000303	20.967463
2281.628134	-3.018900	3.172200	-9.575700	27.573836	0.000303	20.947229
2282.629899	-2.998100	3.172200	-9.509500	27.599585	0.000303	20.957489
2283.626722	-3.004200	3.171600	-9.527500	27.605956	0.000302	20.956313
2284.627674	-3.009200	3.171600	-9.543500	27.642492	0.000301	20.976952
2285.627749	-3.009100	3.171600	-9.542000	27.636618	0.000303	20.962983
2286.628543	-3.003400	3.170500	-9.521700	27.651816	0.000301	20.963576
2287.633046	-3.021600	3.169900	-9.576700	27.677023	0.000301	20.940107
2288.631524	-3.008300	3.169200	-9.532900	27.694458	0.000299	20.959545
2289.633036	-2.982400	3.169800	-9.452400	27.677639	0.000299	20.956845
2290.629417	-2.983900	3.167900	-9.451800	27.691674	0.000297	20.949632
2291.630847	-3.014200	3.165700	-9.540700	27.690469	0.000298	20.952213
2292.634183	-3.006600	3.166000	-9.517800	27.644586	0.000297	20.946346
2293.630509	-3.021100	3.165400	-9.561900	27.619291	0.000299	20.937490
2294.630798	-3.008700	3.165500	-9.523000	27.572066	0.000297	20.972946
2295.630503	-2.975100	3.167000	-9.421600	27.569063	0.000297	20.958072
2296.632342	-3.016700	3.164400	-9.545300	27.563458	0.000295	20.959071
2297.632761	-3.009500	3.162700	-9.517300	27.609571	0.000296	20.941935
2298.635466	-3.030800	3.162100	-9.582300	27.614528	0.000296	20.932225
2299.631735	-2.990000	3.162600	-9.455300	27.672099	0.000292	20.937523
2300.632298	-3.000900	3.162300	-9.488900	27.641017	0.000293	20.937067
2301.637152	-3.009200	3.161000	-9.509900	27.616866	0.000293	20.939318
2302.632719	-2.996300	3.160200	-9.468000	27.549622	0.000293	20.961745
2303.635437	-3.012100	3.159700	-9.515300	27.576189	0.000291	20.941537
2304.632399	-3.008100	3.160400	-9.505200	27.568102	0.000289	20.935771
2305.633546	-2.997200	3.160400	-9.471700	27.580236	0.000292	20.935178
2306.632416	-3.005300	3.158100	-9.490000	27.554831	0.000289	20.941385
2307.632040	-2.980300	3.159500	-9.414900	27.530754	0.000291	20.936600
2308.636297	-3.002500	3.157400	-9.478600	27.542064	0.000289	20.941815
2309.635023	-3.013600	3.156300	-9.510600	27.545734	0.000288	20.922276
2310.635390	-2.996800	3.157300	-9.460300	27.603722	0.000287	20.939369
2311.635190	-2.998700	3.159500	-9.472200	27.640309	0.000285	20.914545
2312.636241	-2.986300	3.156200	-9.424600	27.686631	0.000285	20.942188
2313.636252	-3.008800	3.153700	-9.488100	27.669642	0.000285	20.940266
2314.637973	-3.003400	3.156100	-9.478100	27.658974	0.000285	20.944229
2315.638076	-3.015200	3.153000	-9.506300	27.645517	0.000284	20.959610
2316.642216	-3.007500	3.153500	-9.483000	27.647898	0.000285	20.929293
2317.638210	-3.002300	3.153100	-9.464900	27.677138	0.000283	20.929319
2318.638361	-2.996100	3.153000	-9.444500	27.683609	0.000283	20.914021
2319.641458	-3.009000	3.150400	-9.478800	27.729433	0.000283	20.921252
2320.640501	-3.000300	3.149700	-9.448700	27.758300	0.000280	20.921378
2321.640615	-3.010900	3.150100	-9.484300	27.778593	0.000281	20.929945
2322.642441	-2.999600	3.149100	-9.445600	27.799179	0.000281	20.926481
2323.641608	-3.022800	3.148000	-9.514500	27.748827	0.000279	20.919431
2324.642146	-3.024200	3.147900	-9.519100	27.725419	0.000281	20.916739
2325.644521	-2.987400	3.148900	-9.406100	27.692443	0.000281	20.918168
2326.641122	-3.000500	3.146000	-9.439300	27.654546	0.000279	20.941670
2327.643093	-3.005800	3.146100	-9.454200	27.610107	0.000280	20.935362
2328.642973	-3.005300	3.144900	-9.450600	27.597233	0.000279	20.913876
2329.642444	-3.005400	3.145800	-9.453700	27.587362	0.000277	20.934287
2330.645981	-3.020900	3.144400	-9.497200	27.653301	0.000278	20.919084
2331.643886	-3.008500	3.143800	-9.456300	27.673160	0.000277	20.904455
2332.644845	-2.989300	3.143000	-9.394200	27.638568	0.000275	20.907104
2333.644804	-3.001200	3.141800	-9.428600	27.605362	0.000276	20.926322
2334.644538	-2.987300	3.142800	-9.387400	27.590905	0.000276	20.907984
2335.645906	-2.997900	3.141000	-9.415600	27.612801	0.000276	20.906782
2336.645158	-3.005800	3.140600	-9.438800	27.644650	0.000276	20.915121
2337.645048	-2.991500	3.140700	-9.394600	27.621730	0.000273	20.926669
2338.645616	-2.979500	3.141600	-9.359600	27.640082	0.000273	20.916214
2339.645491	-3.006200	3.138800	-9.434100	27.691620	0.000275	20.902642
2340.647458	-3.004500	3.136400	-9.422900	27.752219	0.000275	20.905776
2341.647761	-2.972100	3.138600	-9.327500	27.761573	0.000274	20.914715
2342.648133	-3.000400	3.136400	-9.409200	27.813256	0.000273	20.907933
2343.650185	-3.009200	3.135600	-9.435100	27.863793	0.000271	20.907586
2344.649520	-2.990700	3.135800	-9.377300	27.910702	0.000270	20.919710
2345.651480	-2.978000	3.133700	-9.330400	27.949389	0.000272	20.900803
2346.653016	-3.012500	3.132500	-9.435900	27.965733	0.000271	20.900184
2347.651282	-3.009300	3.132300	-9.424600	27.971411	0.000271	20.920122
2348.653675	-3.006400	3.133100	-9.418400	27.975499	0.000272	20.909540
2349.652166	-2.995800	3.132600	-9.383300	27.984424	0.000268	20.911885
2350.653649	-3.007800	3.130300	-9.412700	27.983187	0.000271	20.902580
2351.652255	-3.011000	3.130200	-9.424600	27.992760	0.000269	20.914585
2352.655841	-2.994100	3.130200	-9.370200	27.956883	0.000269	20.909768
2353.652636	-2.998800	3.128800	-9.381600	27.922897	0.000267	20.912070
2354.653749	-3.019500	3.127200	-9.441600	27.902488	0.000266	20.897220
2355.656483	-3.006100	3.126300	-9.397500	27.843952	0.000267	20.911324
2356.653386	-3.011600	3.127000	-9.416100	27.796561	0.000267	20.901089
2357.656274	-2.981200	3.125600	-9.316900	27.792698	0.000264	20.898625
2358.653696	-2.978500	3.125300	-9.306700	27.810922	0.000266	20.907955
2359.652872	-3.021000	3.124500	-9.438500	27.822851	0.000266	20.910003
2360.652554	-2.993100	3.124000	-9.349800	27.869324	0.000266	20.895610
2361.653867	-2.993400	3.124200	-9.349600	27.918294	0.000265	20.917868
2362.654298	-3.006100	3.122300	-9.385300	27.965064	0.000265	20.892874
2363.653745	-3.005200	3.121100	-9.378800	27.976294	0.000265	20.892324
2364.654477	-3.015900	3.120400	-9.409300	27.956365	0.000265	20.895972
2365.656446	-3.009500	3.120100	-9.388900	27.969724	0.000262	20.898986
2366.656342	-3.012800	3.118300	-9.394100	28.013608	0.000262	20.902381
2367.658053	-2.994600	3.119000	-9.339100	28.016359	0.000264	20.907520
2368.662032	-2.977300	3.117100	-9.279900	28.036150	0.000263	20.884770
2369.657105	-2.996600	3.117600	-9.340600	28.033518	0.000262	20.904878
2370.657981	-3.004100	3.115800	-9.359100	28.089377	0.000261	20.887141
2371.658777	-3.010400	3.112300	-9.367800	28.033173	0.000260	20.914013
2372.657241	-2.976000	3.114900	-9.268500	27.989221	0.000261	20.898223
2373.661182	-2.979400	3.113200	-9.274400	27.970033	0.000260	20.908780
2374.662228	-3.005100	3.110900	-9.346900	27.945217	0.000260	20.882856
2375.660169	-3.013300	3.111200	-9.373600	27.946436	0.000259	20.883608
2376.659104	-2.983100	3.112700	-9.284100	27.925971	0.000258	20.888140
2377.659650	-3.011500	3.109000	-9.361200	27.938219	0.000258	20.898570
2378.660447	-2.998700	3.109900	-9.325100	27.976930	0.000260	20.902920
2379.662121	-3.019400	3.107100	-9.380300	27.989228	0.000261	20.882110
2380.659252	-2.999100	3.106800	-9.316800	28.001526	0.000259	20.886902
2381.657115	-2.977500	3.107600	-9.251300	27.934289	0.000259	20.875176
2382.657315	-3.006800	3.106900	-9.341000	27.878009	0.000261	20.901979
2383.658260	-3.018000	3.103800	-9.366200	27.828642	0.000259	20.889754
2384.661417	-2.969700	3.106500	-9.224400	27.858826	0.000258	20.909225
2385.659700	-3.004400	3.104300	-9.326100	27.837129	0.000257	20.893080
2386.664528	-3.008100	3.101600	-9.328500	27.815835	0.000258	20.891089
2387.660461	-3.022100	3.102400	-9.373100	27.803963	0.000259	20.884358
2388.663372	-3.008000	3.100500	-9.325400	27.764260	0.000256	20.874748
2389.665497	-3.007400	3.100400	-9.323200	27.760548	0.000256	20.892349
2390.661446	-3.008800	3.098500	-9.321500	27.740784	0.000255	20.885262
2391.663206	-2.989200	3.099700	-9.264500	27.774539	0.000256	20.883670
2392.661701	-2.993800	3.097700	-9.273000	27.789019	0.000257	20.883069
2393.664027	-3.036100	3.094700	-9.394700	27.811835	0.000257	20.884220
2394.664505	-3.012600	3.095300	-9.323400	27.805862	0.000255	20.885320
2395.668860	-3.008300	3.094300	-9.308000	27.800190	0.000256	20.872501
2396.668291	-3.001500	3.094400	-9.286500	27.831889	0.000255	20.880695
2397.664808	-3.003800	3.093100	-9.289200	27.782193	0.000255	20.894690
2398.664535	-3.002600	3.093000	-9.286100	27.743262	0.000256	20.885860
2399.665008	-3.005200	3.090300	-9.286100	27.723649	0.000255	20.881770
2400.669776	-2.999500	3.091200	-9.271300	27.681764	0.000255	20.898889
2401.663945	-3.017200	3.088900	-9.318700	27.696051	0.000255	20.900463
2402.665502	-3.003800	3.087800	-9.272900	27.701216	0.000252	20.882429
2403.664161	-3.013200	3.088300	-9.304600	27.760189	0.000254	20.889616
2404.663918	-3.015300	3.086300	-9.304800	27.797730	0.000253	20.884249
2405.664987	-2.988100	3.086800	-9.222800	27.833216	0.000251	20.872548
2406.667608	-3.015200	3.084800	-9.299900	27.867641	0.000251	20.914777
2407.664161	-2.989800	3.084500	-9.221100	27.873017	0.000251	20.885103
2408.663943	-2.999600	3.083700	-9.248000	27.892214	0.000251	20.883087
2409.664668	-3.012600	3.081800	-9.283600	27.912396	0.000252	20.885856
2410.670811	-2.981300	3.081300	-9.185300	27.916165	0.000251	20.892968
2411.665968	-2.993600	3.080100	-9.219500	27.888118	0.000251	20.882284
2412.666210	-2.972900	3.080100	-9.155800	27.828865	0.000250	20.883815
2413.668289	-2.962700	3.079500	-9.122800	27.799284	0.000249	20.869693
2414.666703	-2.977200	3.077300	-9.160100	27.770770	0.000249	20.887463
2415.669053	-3.015700	3.077100	-9.278700	27.725915	0.000250	20.894481
2416.671170	-3.000300	3.075500	-9.227300	27.689828	0.000252	20.873815
2417.667613	-2.996600	3.074500	-9.212300	27.702187	0.000249	20.888621
2418.668329	-3.010200	3.074600	-9.254400	27.772148	0.000249	20.884582
2419.668230	-2.989800	3.072600	-9.184600	27.817673	0.000247	20.882034
2420.669775	-3.016000	3.071800	-9.263800	27.860822	0.000247	20.881365
2421.671822	-2.985600	3.070600	-9.166700	27.858693	0.000250	20.889653
2422.669756	-2.981100	3.071000	-9.154100	27.880710	0.000250	20.866294
2423.670057	-2.974400	3.070200	-9.131300	27.875477	0.000247	20.855339
2424.669376	-2.999100	3.066600	-9.195600	27.886572	0.000247	20.868875
2425.669004	-2.977800	3.067600	-9.134100	27.852569	0.000246	20.879696
2426.672056	-3.008700	3.065200	-9.221200	27.885065	0.000246	20.872574
2427.669317	-2.966000	3.065500	-9.091600	27.930585	0.000246	20.875241
2428.671347	-3.025400	3.063500	-9.266300	27.957631	0.000246	20.868799
2429.669968	-2.964800	3.064800	-9.085600	27.977298	0.000248	20.875791
2430.670386	-3.015200	3.061500	-9.229400	27.976589	0.000245	20.866544
2431.671266	-2.993200	3.060700	-9.160000	27.998621	0.000244	20.867384
2432.670951	-3.007200	3.059800	-9.200800	28.000261	0.000245	20.873301
2433.671997	-2.996900	3.058400	-9.163400	27.932948	0.000244	20.874774
2434.671270	-3.022900	3.057400	-9.240300	27.899820	0.000245	20.859450
2435.671614	-3.022700	3.056300	-9.237400	27.832408	0.000244	20.859881
2436.671404	-3.030900	3.054400	-9.255700	27.809340	0.000244	20.850891
2437.675192	-3.002900	3.055900	-9.175100	27.755779	0.000246	20.873327
2438.672888	-2.992600	3.054500	-9.139200	27.731969	0.000244	20.837988
2439.672316	-3.008000	3.053200	-9.181500	27.692810	0.000243	20.885350
2440.675372	-2.989100	3.052000	-9.122100	27.705087	0.000245	20.861195
2441.673281	-3.007900	3.051000	-9.175800	27.683832	0.000241	20.845972
2442.676705	-3.003200	3.048900	-9.155200	27.694972	0.000242	20.874250
2443.674852	-3.011100	3.049000	-9.178400	27.728074	0.000245	20.864412
2444.675421	-3.003100	3.047300	-9.150600	27.768325	0.000244	20.884054
2445.676238	-3.002200	3.044200	-9.137900	27.815666	0.000244	20.861050
2446.677819	-2.986500	3.046200	-9.096400	27.829077	0.000243	20.878339
2447.681501	-3.003800	3.044000	-9.142200	27.895487	0.000243	20.859356
2448.681142	-2.998600	3.043600	-9.126000	27.917453	0.000242	20.861075
2449.679463	-3.003000	3.043000	-9.137500	27.958336	0.000243	20.849595
2450.678835	-3.025200	3.040600	-9.196800	27.999520	0.000242	20.868289
2451.678739	-2.999300	3.040400	-9.118200	27.986557	0.000242	20.850974
2452.682607	-2.977000	3.039600	-9.047500	28.010254	0.000244	20.868187
2453.679867	-3.024100	3.036500	-9.182000	27.999898	0.000243	20.860609
2454.679175	-2.988600	3.036300	-9.073700	28.058106	0.000243	20.857561
2455.684136	-3.002000	3.036000	-9.113300	28.067771	0.000241	20.841687
2456.678236	-2.999700	3.035000	-9.102400	28.120928	0.000242	20.851575
2457.679479	-2.970400	3.032600	-9.006000	28.140188	0.000241	20.877601
2458.680920	-2.979800	3.032800	-9.036200	28.153646	0.000243	20.852744
2459.679352	-2.973500	3.031400	-9.013200	28.143090	0.000241	20.858712
2460.679533	-2.987300	3.029600	-9.049600	28.168203	0.000242	20.857442
2461.679789	-3.010500	3.027600	-9.112900	28.153779	0.000243	20.857619
2462.681783	-3.000700	3.026600	-9.080600	28.162569	0.000241	20.864572
2463.680049	-2.994400	3.026200	-9.060400	28.129927	0.000241	20.860634
2464.682530	-3.009900	3.024500	-9.102600	28.126975	0.000242	20.853395
2465.680701	-3.008500	3.022700	-9.092700	28.073769	0.000241	20.841086
2466.680557	-3.011700	3.021800	-9.099500	28.026597	0.000241	20.838647
2467.681248	-3.019600	3.020700	-9.120700	28.003986	0.000239	20.854293
2468.682878	-2.987600	3.020400	-9.022700	27.995709	0.000239	20.835530
2469.685401	-2.991300	3.019300	-9.030800	27.943445	0.000241	20.843616
2470.683928	-3.006400	3.016200	-9.067000	27.950781	0.000241	20.855267
2471.685187	-2.977200	3.017300	-8.982200	27.993447	0.000241	20.834676
2472.685096	-3.013300	3.015100	-9.083600	27.982461	0.000240	20.870084
2473.684190	-3.039700	3.013200	-9.158700	27.956157	0.000240	20.836971
2474.685845	-3.015800	3.011600	-9.081700	27.973242	0.000241	20.836149
2475.684008	-3.032600	3.010400	-9.128100	27.976658	0.000241	20.844329
2476.684101	-3.007500	3.009800	-9.050300	27.984615	0.000239	20.819149
2477.684954	-3.016500	3.008900	-9.075400	27.958268	0.000240	20.834828
2478.686510	-2.984100	3.007200	-8.972700	27.964787	0.000239	20.840916
2479.685504	-2.984400	3.007000	-8.972800	28.017665	0.000240	20.810690
2480.686112	-2.983400	3.004600	-8.963700	28.020559	0.000238	20.831147
2481.686805	-2.985500	3.004700	-8.969100	28.057998	0.000239	20.808142
2482.688744	-3.015300	3.002400	-9.051600	28.088791	0.000240	20.823966
2483.687553	-3.013000	3.000900	-9.041400	28.105075	0.000239	20.826134
2484.686961	-2.993800	2.999800	-8.979300	28.100246	0.000239	20.824592
2485.692931	-2.963300	3.000600	-8.890400	28.065509	0.000239	20.835143
2486.689436	-3.010600	2.998600	-9.025900	28.075239	0.000240	20.825023
2487.689749	-2.984600	2.996500	-8.941900	28.081877	0.000239	20.810842
2488.690041	-3.019600	2.994300	-9.041000	28.043698	0.000239	20.832627
2489.691430	-2.995700	2.994500	-8.969400	28.052529	0.000238	20.822077
2490.694843	-2.964300	2.993200	-8.872000	28.017428	0.000240	20.822779
2491.690603	-2.998200	2.990100	-8.964000	28.040861	0.000238	20.834513
2492.691295	-2.981300	2.990600	-8.915700	28.046338	0.000239	20.844293
2493.692686	-2.985800	2.987400	-8.919100	28.042274	0.000238	20.815073
2494.692059	-2.983100	2.988000	-8.912700	28.024778	0.000238	20.813108
2495.694617	-2.991300	2.986200	-8.931300	28.035687	0.000240	20.820771
2496.693513	-3.004800	2.983100	-8.962300	28.017543	0.000237	20.830481
2497.692892	-3.024700	2.982400	-9.019700	28.048632	0.000238	20.796817
2498.694086	-3.015400	2.980900	-8.986900	28.105532	0.000240	20.832758
2499.693049	-3.002500	2.980800	-8.949100	28.141548	0.000238	20.804056
2500.694752	-3.010100	2.978700	-8.965400	28.208527	0.000238	20.811744
2501.700971	-2.998200	2.977000	-8.924400	28.220729	0.000237	20.826873
2502.696520	-3.021400	2.974900	-8.987900	28.216818	0.000238	20.810133
2503.698127	-2.994400	2.974800	-8.907000	28.210023	0.000239	20.808034
2504.696742	-2.983900	2.973600	-8.871300	28.245596	0.000238	20.821089
2505.696889	-3.003700	2.972600	-8.926800	28.279731	0.000237	20.800929
2506.698269	-3.016300	2.970100	-8.958000	28.294783	0.000238	20.804704
2507.697318	-2.985500	2.970000	-8.865600	28.250364	0.000237	20.816880
2508.699033	-3.013600	2.967200	-8.940600	28.224738	0.000239	20.816210
2509.697315	-3.010800	2.964900	-8.926000	28.192468	0.000236	20.801740
2510.697942	-3.003300	2.964100	-8.901200	28.141257	0.000239	20.824152
2511.700201	-2.977200	2.964900	-8.825200	28.103620	0.000237	20.809022
2512.698398	-3.013100	2.962200	-8.923600	28.132265	0.000237	20.802772
2513.701902	-2.993300	2.959000	-8.856000	28.170735	0.000238	20.806413
2514.697635	-3.025900	2.958200	-8.949200	28.177379	0.000237	20.802670
2515.697437	-2.981400	2.958100	-8.818000	28.224088	0.000236	20.808443
2516.699169	-3.013300	2.954700	-8.902600	28.193594	0.000237	20.800028
2517.698246	-2.991000	2.955400	-8.838800	28.124905	0.000239	20.810535
2518.698626	-3.036000	2.951500	-8.960100	28.122608	0.000236	20.814861
2519.698788	-3.021400	2.949800	-8.910700	28.075204	0.000238	20.800332
2520.700844	-2.992800	2.950000	-8.827700	28.052275	0.000237	20.812812
2521.699573	-2.956500	2.948300	-8.715400	28.015181	0.000238	20.802500
2522.702958	-2.996400	2.946100	-8.826700	28.002772	0.000237	20.808502
2523.699601	-3.019800	2.943900	-8.888500	28.003017	0.000237	20.815386
2524.701153	-2.970900	2.945300	-8.747400	28.032348	0.000238	20.805081
2525.701304	-3.001200	2.942000	-8.827500	28.067337	0.000237	20.799525
2526.701251	-3.010900	2.939000	-8.847100	28.105263	0.000237	20.812573
2527.704926	-2.993500	2.939400	-8.797900	28.124751	0.000236	20.816070
2528.700074	-3.008400	2.936800	-8.833700	28.115154	0.000236	20.788866
2529.703330	-2.989100	2.935600	-8.773800	28.075873	0.000237	20.805747
2530.703000	-2.981100	2.934100	-8.745100	28.049000	0.000237	20.812834
2531.701530	-2.985300	2.933400	-8.756500	28.051725	0.000235	20.809888
2532.704123	-3.007600	2.931300	-8.815000	28.097472	0.000237	20.800937
2533.705113	-2.986900	2.929400	-8.748700	28.108406	0.000237	20.809573
2534.703206	-3.013700	2.928300	-8.824200	28.129677	0.000238	20.800641
2535.704048	-3.017000	2.926100	-8.826600	28.138701	0.000235	20.790285
2536.703372	-3.001400	2.925000	-8.779000	28.168927	0.000237	20.811705
2537.703937	-2.993200	2.924100	-8.751700	28.204301	0.000236	20.803221
2538.705456	-3.010600	2.921000	-8.793100	28.200508	0.000237	20.812679
2539.703960	-3.026400	2.920600	-8.837800	28.252389	0.000235	20.798531
2540.705341	-2.997600	2.919100	-8.748500	28.274850	0.000236	20.816878
2541.704410	-2.995700	2.915300	-8.731900	28.312549	0.000235	20.800308
2542.703253	-3.017400	2.914600	-8.793500	28.309077	0.000237	20.804872
2543.707114	-3.009600	2.913300	-8.767000	28.293914	0.000237	20.804778
2544.703618	-2.974600	2.912300	-8.661700	28.214997	0.000238	20.784118
2545.703422	-2.988700	2.910400	-8.697600	28.209345	0.000235	20.816834
2546.704534	-2.963300	2.909600	-8.620600	28.183205	0.000237	20.803794
2547.703848	-2.997200	2.907200	-8.711600	28.223280	0.000236	20.810475
2548.703521	-2.981500	2.907200	-8.666200	28.271392	0.000237	20.792533
2549.708173	-2.991500	2.903700	-8.685200	28.303692	0.000235	20.793286
2550.704289	-2.994100	2.902400	-8.689200	28.250628	0.000235	20.806241
2551.706897	-3.000100	2.900000	-8.698800	28.220393	0.000236	20.796664
2552.704770	-2.993100	2.898900	-8.675000	28.247306	0.000235	20.805741
2553.705187	-2.985300	2.895200	-8.642000	28.259072	0.000235	20.774914
2554.707513	-2.995600	2.894900	-8.671200	28.262064	0.000236	20.801633
2555.704584	-2.994800	2.893200	-8.663400	28.329287	0.000236	20.783496
2556.705432	-3.016900	2.890700	-8.720400	28.346542	0.000237	20.812724
2557.704715	-3.013800	2.888400	-8.703800	28.359325	0.000238	20.792878
2558.705136	-3.013100	2.886300	-8.694900	28.362772	0.000236	20.796349
2559.707637	-2.997900	2.885500	-8.649700	28.364016	0.000236	20.798076
2560.704587	-2.991400	2.885100	-8.629800	28.425054	0.000235	20.793631
2561.707565	-2.989400	2.882600	-8.616200	28.460344	0.000235	20.796450
2562.705182	-2.984000	2.880800	-8.595200	28.425996	0.000235	20.811648
2563.706514	-3.004700	2.877200	-8.643300	28.432570	0.000237	20.803570
2564.708485	-3.005400	2.876100	-8.642700	28.426348	0.000236	20.809158
2565.708265	-3.013700	2.874400	-8.661300	28.383053	0.000238	20.791166
2566.711361	-3.028600	2.871400	-8.695300	28.353814	0.000237	20.800132
2567.709719	-3.044300	2.869800	-8.735500	28.397607	0.000236	20.804399
2568.709099	-3.020000	2.867200	-8.657500	28.406705	0.000235	20.814034
2569.709037	-2.987000	2.867600	-8.564000	28.377855	0.000235	20.799683
2570.710773	-3.019800	2.863900	-8.647600	28.364376	0.000232	20.800334
2571.710847	-2.972300	2.864200	-8.512800	28.358851	0.000235	20.793823
2572.711924	-2.999300	2.860900	-8.579500	28.427280	0.000236	20.798717
2573.711537	-3.007700	2.857800	-8.594200	28.457458	0.000236	20.803501
2574.715276	-2.994300	2.856000	-8.550200	28.497537	0.000235	20.816836
2575.715041	-2.997600	2.855100	-8.557400	28.553565	0.000234	20.809724
2576.713125	-3.029800	2.852700	-8.641700	28.588505	0.000236	20.802238
2577.714777	-2.966300	2.849500	-8.451800	28.622032	0.000236	20.802340
2578.713996	-3.003300	2.848800	-8.555100	28.590540	0.000235	20.802865
2579.713088	-3.022300	2.845200	-8.597700	28.533572	0.000234	20.797175
2580.712783	-3.006700	2.844400	-8.550700	28.517086	0.000235	20.810918
2581.717493	-2.983300	2.842900	-8.479400	28.503565	0.000237	20.822431
2582.714237	-2.994800	2.840100	-8.504300	28.487211	0.000234	20.800747
2583.714972	-2.985100	2.839000	-8.474200	28.470505	0.000235	20.810951
2584.714068	-2.994500	2.835200	-8.489400	28.493778	0.000235	20.805464
2585.714154	-3.013600	2.833600	-8.538800	28.490313	0.000235	20.799604
2586.718030	-2.979400	2.831800	-8.436600	28.490608	0.000234	20.817444
2587.713873	-2.995200	2.829500	-8.473500	28.504162	0.000236	20.815446
2588.719003	-2.996400	2.828800	-8.475400	28.531351	0.000236	20.820542
2589.714689	-2.980600	2.825400	-8.420400	28.519882	0.000238	20.817053
2590.719621	-3.042000	2.820200	-8.578000	28.507440	0.000234	20.804997
2591.716258	-2.996100	2.821000	-8.451000	28.529022	0.000236	20.831473
2592.714760	-2.984400	2.817900	-8.408800	28.546795	0.000234	20.813810
2593.717015	-2.990700	2.814200	-8.414500	28.583913	0.000235	20.817528
2594.717650	-3.023000	2.812100	-8.499900	28.566971	0.000236	20.814216
2595.715878	-2.981500	2.810400	-8.378100	28.475060	0.000236	20.805580
2596.717237	-3.006200	2.809000	-8.443500	28.421684	0.000236	20.801143
2597.720572	-3.033300	2.803900	-8.502800	28.390657	0.000236	20.828694
2598.717361	-2.994000	2.803000	-8.391700	28.402436	0.000235	20.812580
2599.716846	-3.022600	2.800600	-8.463300	28.430990	0.000234	20.807669
2600.718253	-3.016000	2.799000	-8.441200	28.443553	0.000236	20.840233
2601.718128	-2.987400	2.796100	-8.351800	28.399374	0.000235	20.822299
2602.720491	-3.020700	2.793100	-8.435700	28.347702	0.000236	20.815313
2603.731678	-3.047900	2.789800	-8.502000	28.376509	0.000234	20.829621
2604.719841	-2.993800	2.790100	-8.351500	28.418443	0.000237	20.806413
2605.719038	-3.008500	2.786500	-8.382100	28.464141	0.000235	20.821611
2606.719462	-3.018300	2.784200	-8.402800	28.501396	0.000235	20.818825
2607.721748	-3.004300	2.780600	-8.352600	28.570682	0.000235	20.829332
2608.719456	-2.996300	2.777300	-8.320700	28.598308	0.000235	20.797412
2609.719035	-3.022800	2.774600	-8.386700	28.609345	0.000235	20.828916
2610.719119	-3.017100	2.772700	-8.364600	28.640265	0.000236	20.832557
2611.719191	-3.017400	2.768600	-8.352600	28.639223	0.000235	20.809697
2612.718505	-2.994700	2.766000	-8.281900	28.575548	0.000234	20.829966
2613.721618	-3.034300	2.763500	-8.384500	28.575707	0.000236	20.820642
2614.718510	-3.000100	2.761100	-8.282600	28.590941	0.000235	20.834088
2615.725097	-2.996700	2.760000	-8.269800	28.620835	0.000235	20.838117
2616.720761	-2.976700	2.757000	-8.206000	28.624231	0.000234	20.828736
2617.720555	-2.976000	2.753400	-8.193500	28.633923	0.000235	20.829963
2618.725772	-3.011500	2.748300	-8.275000	28.638883	0.000236	20.828794
2619.722188	-3.018400	2.745600	-8.286900	28.611215	0.000234	20.845024
2620.722579	-3.014100	2.741900	-8.263000	28.576998	0.000235	20.836641
2621.724023	-2.971900	2.740000	-8.142100	28.605684	0.000233	20.834712
2622.725154	-2.984000	2.737700	-8.168100	28.613350	0.000235	20.841010
2623.725035	-3.021100	2.732700	-8.254000	28.608617	0.000234	20.816803
2624.730199	-3.011300	2.731100	-8.223400	28.634560	0.000235	20.845302
2625.726029	-2.983700	2.728700	-8.140600	28.637384	0.000234	20.855733
2626.729613	-3.017200	2.723900	-8.217400	28.610633	0.000235	20.854394
2627.727683	-3.016300	2.720300	-8.204200	28.647235	0.000235	20.850008
2628.729600	-2.984700	2.717900	-8.109800	28.670051	0.000234	20.839324
2629.735152	-2.980300	2.713000	-8.084600	28.687300	0.000235	20.845792
2630.732196	-2.999900	2.708800	-8.124500	28.706457	0.000233	20.845173
2631.736264	-3.000900	2.706400	-8.121000	28.701430	0.000236	20.838687
2632.730391	-2.966100	2.705000	-8.021900	28.721101	0.000234	20.855180
2633.731621	-3.004900	2.698300	-8.107200	28.725018	0.000236	20.852488
2634.731050	-3.000100	2.695300	-8.085000	28.735895	0.000235	20.864392
2635.734951	-3.028200	2.691400	-8.149300	28.766323	0.000235	20.858058
2636.731586	-2.991600	2.688500	-8.042100	28.809107	0.000234	20.829559
2637.731159	-3.017100	2.684700	-8.099100	28.803685	0.000236	20.828839
2638.731313	-3.010600	2.680500	-8.068200	28.835919	0.000233	20.850403
2639.731500	-2.992800	2.676700	-8.010000	28.782831	0.000235	20.842919
2640.734270	-2.995700	2.673500	-8.007400	28.778871	0.000235	20.871171
2641.733162	-2.985900	2.669800	-7.970400	28.804339	0.000233	20.881178
2642.735674	-2.997600	2.665400	-7.989000	28.837608	0.000237	20.847363
2643.732677	-2.999300	2.660900	-7.979600	28.857829	0.000236	20.847820
2644.733096	-3.005600	2.657400	-7.985900	28.882901	0.000236	20.859326
2645.735565	-3.000900	2.652400	-7.957400	28.876588	0.000235	20.861975
2646.735106	-2.999500	2.647400	-7.940500	28.930696	0.000237	20.852001
2647.736889	-3.013100	2.645100	-7.969400	28.924006	0.000236	20.846210
2648.736093	-3.034900	2.638600	-8.006800	28.928788	0.000235	20.851501
2649.736717	-2.995900	2.637200	-7.898800	28.971372	0.000236	20.864057
2650.737530	-3.007900	2.631800	-7.915400	28.953958	0.000234	20.860264
2651.739398	-3.005300	2.627400	-7.895200	28.981682	0.000235	20.861643
2652.739560	-2.988200	2.622900	-7.837100	29.001944	0.000235	20.831324
2653.744258	-2.986500	2.617700	-7.816000	28.999397	0.000236	20.858154
2654.737824	-3.031200	2.611400	-7.914000	28.976631	0.000236	20.866985
2655.737228	-3.028000	2.605800	-7.889500	28.976538	0.000235	20.870210
2656.737658	-3.004400	2.603000	-7.819500	28.944072	0.000235	20.871640
2657.738270	-2.996800	2.597500	-7.782800	28.921607	0.000235	20.872715
2658.739409	-2.976500	2.593100	-7.717200	28.868700	0.000234	20.857822
2659.737955	-3.001100	2.587000	-7.763400	28.887703	0.000234	20.877438
2660.739191	-2.992000	2.582000	-7.724900	28.878465	0.000235	20.870504
2661.742044	-3.003400	2.577500	-7.740700	28.868254	0.000235	20.870174
2662.742497	-3.030800	2.571100	-7.791800	28.854670	0.000236	20.871189
2663.740158	-2.989800	2.565200	-7.668300	28.846324	0.000236	20.865152
2664.740028	-3.014200	2.558300	-7.710300	28.842659	0.000236	20.879003
2665.753469	-3.010700	2.553000	-7.685200	28.832976	0.000238	20.862137
2666.739192	-3.037100	2.547100	-7.735000	28.881118	0.000235	20.865590
2667.741783	-3.021000	2.542100	-7.678300	28.917477	0.000239	20.867132
2668.738424	-3.007200	2.537200	-7.629000	28.995391	0.000238	20.871186
2669.744103	-2.970400	2.531700	-7.518900	29.057140	0.000238	20.857064
2670.739624	-3.003500	2.523800	-7.579700	29.092584	0.000235	20.870491
2671.739389	-3.011300	2.516700	-7.577600	29.141279	0.000235	20.865978
2672.743394	-3.001800	2.512500	-7.540900	29.231754	0.000236	20.883655
2673.738515	-3.010100	2.506400	-7.542900	29.255943	0.000237	20.886221
2674.739219	-2.994600	2.499700	-7.484200	29.307553	0.000237	20.881335
