LabVIEW Measurement	
Writer_Version	2
Reader_Version	2
Separator	Tab
Decimal_Separator	.
Multi_Headings	No
X_Columns	One
Time_Pref	Absolute
Operator	admin
Description	Clolumns are: time, Current, Voltage, Power, Battery Temp, and Chamber Temp
Date	2024/08/16
Time	13:06:06.104549407958984375
***End_of_Header***	
	
Channels	6						
Samples	1	1	1	1	1	1	
Date	2024/08/24	2024/08/24	2024/08/24	2024/08/24	2024/08/24	2024/08/24	
Time	13:28:16.5233287811279296875	13:28:16.5304918289184570313	13:28:16.537471771240234375	13:28:16.5053400993347167969	13:28:16.5053400993347167969	13:28:16.5053400993347167969	
X_Dimension	Time	Time	Time	Time	Time	Time	
X0	0.0000000000000000E+0	0.0000000000000000E+0	0.0000000000000000E+0	0.0000000000000000E+0	0.0000000000000000E+0	0.0000000000000000E+0	
Delta_X	1.000000	1.000000	1.000000	1.000000	1.000000	1.000000	
***End_of_Header***							
X_Value	Untitled	Untitled 1	Untitled 2	Untitled 3	Untitled 4	Untitled 5	Comment
0.000000	0.031074	4.108000	0.127520	21.030976	0.000976	20.924308
0.999587	-3.002700	3.951200	-11.863000	21.048566	0.000976	20.913927
1.999748	-2.984000	3.944600	-11.769000	21.045746	0.000976	20.931020
3.001054	-3.003500	3.938200	-11.826000	21.032648	0.000977	20.926455
4.000051	-3.003500	3.935100	-11.818000	21.036067	0.000974	20.905694
5.001236	-2.995700	3.932700	-11.779000	21.030581	0.000974	20.927706
6.007642	-2.978800	3.929500	-11.704000	21.026014	0.000975	20.938309
7.003114	-3.008900	3.925100	-11.809000	21.029556	0.000971	20.920991
8.007010	-2.999500	3.924400	-11.770000	21.045676	0.000972	20.930001
9.003309	-3.015600	3.922200	-11.827000	21.047100	0.000971	20.937115
10.001593	-2.983500	3.920200	-11.695000	21.065613	0.000970	20.919124
11.002708	-2.988700	3.918200	-11.710000	21.056508	0.000969	20.930404
12.003719	-3.002200	3.917400	-11.759000	21.053538	0.000969	20.943554
13.002953	-3.021700	3.915100	-11.829000	21.072625	0.000967	20.942731
14.004327	-3.011400	3.914400	-11.787000	21.056309	0.000967	20.939214
15.000931	-2.985900	3.914600	-11.688000	21.063621	0.000969	20.937518
16.001290	-3.000000	3.911200	-11.732000	21.075399	0.000966	20.933178
17.002833	-2.988800	3.911000	-11.689000	21.086352	0.000963	20.935599
18.000706	-3.025900	3.910300	-11.830000	21.077222	0.000965	20.932631
19.002983	-3.009500	3.907600	-11.758000	21.078345	0.000963	20.942762
20.005914	-2.985600	3.908700	-11.669000	21.073482	0.000964	20.936950
21.003337	-3.004600	3.907100	-11.737000	21.098608	0.000964	20.944064
22.006900	-2.989200	3.906200	-11.674000	21.098134	0.000961	20.949279
23.006649	-2.985800	3.905700	-11.661000	21.117120	0.000961	20.945511
24.003671	-3.016500	3.903300	-11.772000	21.124957	0.000961	20.950979
25.006969	-3.002300	3.903700	-11.719000	21.102079	0.000961	20.935682
26.004397	-2.986300	3.903100	-11.654000	21.115477	0.000960	20.940549
27.005940	-2.987100	3.903900	-11.661000	21.140554	0.000959	20.935288
28.007798	-3.005500	3.902500	-11.728000	21.117851	0.000959	20.950983
29.006969	-2.993100	3.901000	-11.675000	21.138359	0.000961	20.950160
30.011120	-3.017700	3.900100	-11.768000	21.149512	0.000960	20.928603
31.012014	-2.989300	3.898900	-11.654000	21.146071	0.000959	20.968303
32.007449	-3.012600	3.898200	-11.742000	21.170220	0.000958	20.946944
33.010083	-2.984700	3.897700	-11.632000	21.164110	0.000958	20.939411
34.012575	-3.000300	3.897000	-11.691000	21.178829	0.000955	20.929006
35.009392	-2.980100	3.897500	-11.614000	21.166733	0.000956	20.940138
36.010266	-3.014700	3.898400	-11.752000	21.154236	0.000956	20.944231
37.008446	-2.983000	3.896700	-11.623000	21.184522	0.000953	20.954137
38.009438	-2.996700	3.896800	-11.677000	21.177861	0.000954	20.931356
39.009442	-3.001400	3.893400	-11.685000	21.177040	0.000955	20.927690
40.018535	-3.002400	3.894800	-11.692000	21.186769	0.000952	20.939317
41.011065	-2.989600	3.893800	-11.640000	21.207902	0.000952	20.932010
42.011351	-3.005300	3.894800	-11.704000	21.182257	0.000952	20.924848
43.014894	-3.018900	3.892800	-11.750000	21.196554	0.000952	20.931563
44.012871	-3.000700	3.892800	-11.680000	21.208180	0.000954	20.942244
45.018973	-2.994800	3.893200	-11.658000	21.205213	0.000951	20.933113
46.014640	-3.008300	3.891900	-11.707000	21.204739	0.000951	20.937380
47.014431	-2.979200	3.891900	-11.593000	21.215841	0.000952	20.922409
48.011596	-3.016300	3.890600	-11.733000	21.227094	0.000951	20.926079
49.017520	-2.990600	3.891600	-11.636000	21.237772	0.000949	20.923485
50.014625	-3.005800	3.891400	-11.696000	21.241215	0.000953	20.917921
51.014705	-2.994200	3.889100	-11.643000	21.248003	0.000951	20.921392
52.017840	-2.986400	3.891200	-11.620000	21.271453	0.000950	20.916403
53.012340	-2.983400	3.889900	-11.604000	21.261550	0.000950	20.930202
54.015309	-3.005700	3.889100	-11.689000	21.258259	0.000952	20.925962
55.015015	-3.013700	3.889000	-11.719000	21.255493	0.000947	20.902809
56.015659	-3.008200	3.889200	-11.699000	21.268789	0.000949	20.911842
57.016281	-2.990300	3.891200	-11.634000	21.270186	0.000950	20.925092
58.013497	-3.019400	3.886900	-11.733000	21.279667	0.000949	20.935050
59.017505	-3.003700	3.886700	-11.674000	21.299077	0.000947	20.920804
60.015666	-2.974000	3.889200	-11.565000	21.283288	0.000948	20.935353
61.014974	-3.027800	3.885600	-11.763000	21.291147	0.000948	20.933258
62.014912	-3.019400	3.885500	-11.731000	21.293095	0.000949	20.912924
63.018338	-3.004300	3.884700	-11.670000	21.311928	0.000947	20.917066
64.023442	-2.997000	3.886100	-11.646000	21.313450	0.000947	20.933286
65.017154	-2.998800	3.885400	-11.649000	21.308590	0.000946	20.913727
66.018174	-2.996100	3.885300	-11.640000	21.324004	0.000946	20.933413
67.019480	-3.015600	3.883900	-11.711000	21.343039	0.000945	20.913579
68.016340	-3.013200	3.884400	-11.703000	21.342640	0.000945	20.932144
69.016951	-3.009200	3.883500	-11.685000	21.341943	0.000947	20.911534
70.019222	-2.988200	3.884300	-11.606000	21.369732	0.000942	20.915628
71.018394	-3.006300	3.883300	-11.674000	21.376692	0.000944	20.918798
72.019348	-3.011000	3.883900	-11.693000	21.362327	0.000946	20.926710
73.017716	-3.011400	3.883200	-11.693000	21.351504	0.000945	20.916831
74.023958	-2.993300	3.882900	-11.622000	21.363302	0.000947	20.918678
75.023060	-3.024100	3.882300	-11.738000	21.367993	0.000946	20.908673
76.022336	-3.006600	3.882100	-11.669000	21.380267	0.000943	20.925693
77.027308	-2.999400	3.883500	-11.647000	21.374829	0.000944	20.905081
78.022911	-2.977200	3.881900	-11.555000	21.397604	0.000945	20.905583
79.025013	-3.007900	3.880800	-11.671000	21.379023	0.000945	20.901692
80.024043	-3.003200	3.882000	-11.657000	21.358996	0.000944	20.906784
81.023565	-3.003700	3.882100	-11.659000	21.399554	0.000942	20.917964
82.025407	-2.998000	3.881400	-11.635000	21.381197	0.000944	20.912875
83.021950	-3.017400	3.881100	-11.710000	21.404020	0.000946	20.894934
84.024771	-3.001300	3.880500	-11.646000	21.394569	0.000943	20.917244
85.025373	-2.996600	3.880600	-11.626000	21.416442	0.000942	20.902146
86.026809	-3.019800	3.878300	-11.711000	21.419510	0.000945	20.894763
87.027781	-3.010000	3.879300	-11.676000	21.448821	0.000943	20.898034
88.028658	-2.999200	3.878200	-11.630000	21.427223	0.000942	20.925258
89.027133	-2.998500	3.879600	-11.632000	21.445456	0.000943	20.908890
90.025699	-2.969500	3.879900	-11.520000	21.440542	0.000944	20.902077
91.028575	-3.005300	3.878800	-11.656000	21.441089	0.000944	20.906891
92.028812	-2.989100	3.878900	-11.594000	21.458402	0.000941	20.895292
93.032437	-3.029300	3.877600	-11.746000	21.476610	0.000944	20.926309
94.029064	-2.988200	3.879000	-11.590000	21.460896	0.000942	20.918648
95.030032	-2.994400	3.878600	-11.613000	21.493819	0.000943	20.895643
96.036401	-3.018900	3.876600	-11.702000	21.505616	0.000941	20.920720
97.032063	-2.986800	3.877200	-11.579000	21.474666	0.000944	20.921520
98.030292	-3.003100	3.877100	-11.642000	21.488181	0.000941	20.902802
99.034079	-3.003300	3.877000	-11.643000	21.497833	0.000942	20.907719
100.031698	-2.995400	3.877200	-11.612000	21.507361	0.000942	20.902554
101.031665	-2.995400	3.876300	-11.610000	21.527762	0.000943	20.901157
102.035066	-2.981200	3.876900	-11.555000	21.522201	0.000942	20.889429
103.032767	-2.998400	3.876400	-11.622000	21.521451	0.000942	20.916178
104.033988	-2.986200	3.875700	-11.573000	21.527912	0.000942	20.890877
105.032918	-2.999200	3.874600	-11.620000	21.552552	0.000943	20.883765
106.034678	-2.983100	3.875300	-11.560000	21.563050	0.000942	20.902328
107.033235	-2.998000	3.874700	-11.615000	21.560929	0.000942	20.891672
108.036831	-2.982500	3.875700	-11.558000	21.566838	0.000944	20.892844
109.038354	-3.007800	3.874500	-11.653000	21.574094	0.000942	20.892992
110.035983	-2.999200	3.874800	-11.620000	21.597462	0.000944	20.890772
111.038105	-3.024400	3.874100	-11.716000	21.603123	0.000943	20.907814
112.034644	-2.999000	3.874000	-11.618000	21.597437	0.000944	20.891695
113.037322	-3.004200	3.874400	-11.639000	21.618308	0.000942	20.874649
114.037254	-3.012300	3.874000	-11.669000	21.617535	0.000944	20.888574
115.040926	-2.984300	3.874500	-11.561000	21.623096	0.000945	20.894612
116.042786	-2.988200	3.873500	-11.573000	21.635738	0.000945	20.874075
117.038373	-3.001300	3.873200	-11.623000	21.606236	0.000945	20.875372
118.038158	-3.005200	3.873200	-11.637000	21.619080	0.000944	20.899602
119.041918	-3.003200	3.873300	-11.631000	21.631823	0.000945	20.888173
120.040758	-3.004100	3.872700	-11.633000	21.633392	0.000944	20.901122
121.038875	-2.996800	3.872900	-11.606000	21.643094	0.000947	20.881435
122.042733	-2.999500	3.873700	-11.618000	21.652294	0.000946	20.874047
123.038393	-3.016300	3.871300	-11.676000	21.666435	0.000944	20.879664
124.042638	-3.027800	3.872600	-11.724000	21.664914	0.000945	20.874348
125.041802	-2.997800	3.872500	-11.608000	21.663517	0.000945	20.881959
126.054140	-2.989000	3.873100	-11.575000	21.674039	0.000946	20.869730
127.054684	-2.989400	3.871600	-11.573000	21.696507	0.000946	20.871827
128.042801	-2.996800	3.871700	-11.602000	21.698154	0.000945	20.890543
129.039644	-3.010500	3.869400	-11.648000	21.679900	0.000947	20.867535
130.045577	-3.030600	3.870400	-11.728000	21.682469	0.000949	20.883382
131.043527	-2.987900	3.870100	-11.562000	21.714263	0.000948	20.890069
132.040776	-3.009100	3.869700	-11.643000	21.703764	0.000948	20.887624
133.044158	-3.021600	3.870000	-11.693000	21.715609	0.000944	20.870555
134.046831	-3.018300	3.870200	-11.680000	21.734334	0.000947	20.857054
135.044189	-3.009300	3.868600	-11.641000	21.717953	0.000946	20.871478
136.043682	-3.027000	3.868000	-11.707000	21.747499	0.000947	20.872600
137.048198	-3.014700	3.867900	-11.659000	21.736357	0.000947	20.863820
138.045849	-3.007300	3.868100	-11.632000	21.754460	0.000946	20.868187
139.043822	-2.992400	3.869400	-11.577000	21.756032	0.000948	20.882561
140.052051	-3.001000	3.868700	-11.609000	21.759198	0.000949	20.865342
141.044406	-2.983800	3.869600	-11.545000	21.772811	0.000947	20.885130
142.049452	-3.022900	3.866900	-11.687000	21.759200	0.000948	20.863922
143.047421	-2.988300	3.869300	-11.562000	21.766903	0.000947	20.866416
144.049268	-2.988500	3.867900	-11.558000	21.786728	0.000949	20.884834
145.046728	-2.973700	3.868600	-11.503000	21.785058	0.000950	20.859931
146.050422	-2.991600	3.867700	-11.568000	21.795280	0.000948	20.877747
147.046502	-3.004400	3.867400	-11.618000	21.800517	0.000950	20.857385
148.047719	-3.004900	3.867300	-11.620000	21.807402	0.000950	20.847681
149.055756	-2.980800	3.867400	-11.527000	21.804883	0.000950	20.868866
150.044311	-2.992100	3.868100	-11.573000	21.795107	0.000952	20.877574
151.045188	-3.004700	3.866800	-11.616000	21.811641	0.000950	20.868518
152.045703	-3.000800	3.867000	-11.602000	21.799250	0.000952	20.872238
153.048901	-3.009000	3.867600	-11.636000	21.823561	0.000950	20.856268
154.046798	-3.001600	3.866900	-11.606000	21.809948	0.000951	20.855919
155.048538	-3.006200	3.866200	-11.622000	21.848172	0.000951	20.847237
156.044835	-3.013200	3.865800	-11.646000	21.838126	0.000949	20.870371
157.048590	-3.000700	3.867400	-11.603000	21.863782	0.000950	20.850533
158.046261	-3.011100	3.865200	-11.637000	21.891208	0.000951	20.852379
159.048421	-2.986400	3.865800	-11.544000	21.877773	0.000951	20.858372
160.051399	-2.996700	3.866200	-11.585000	21.897691	0.000951	20.868826
161.048548	-3.018400	3.864000	-11.660000	21.893107	0.000952	20.855229
162.049541	-2.991300	3.865200	-11.561000	21.894606	0.000953	20.867160
163.051105	-2.995100	3.864700	-11.574000	21.879470	0.000954	20.857700
164.050487	-2.987300	3.866100	-11.548000	21.879720	0.000953	20.853209
165.052933	-3.023400	3.862500	-11.676000	21.900666	0.000952	20.849045
166.052079	-3.010700	3.863300	-11.630000	21.897300	0.000953	20.861796
167.048845	-3.002700	3.863700	-11.600000	21.871895	0.000953	20.857230
168.048584	-3.025500	3.863600	-11.688000	21.890793	0.000954	20.866189
169.051332	-2.969000	3.864400	-11.472000	21.910516	0.000954	20.862697
170.051698	-3.009300	3.863400	-11.624000	21.899197	0.000955	20.850420
171.051092	-3.002200	3.862500	-11.595000	21.912363	0.000955	20.851744
172.051476	-3.017400	3.862600	-11.654000	21.928691	0.000955	20.855286
173.052327	-2.988300	3.863000	-11.542000	21.940411	0.000955	20.863698
174.051764	-3.020400	3.860500	-11.659000	21.919591	0.000956	20.853289
175.051912	-3.013400	3.861800	-11.636000	21.937519	0.000954	20.856061
176.056007	-2.995500	3.861100	-11.565000	21.948388	0.000956	20.856510
177.048229	-2.987500	3.863100	-11.539000	21.937270	0.000955	20.858658
178.055015	-2.984900	3.861900	-11.527000	21.949085	0.000955	20.846777
179.057316	-3.011100	3.860700	-11.624000	21.937571	0.000956	20.840942
180.055337	-3.011500	3.860900	-11.626000	21.951431	0.000958	20.872831
181.054911	-3.007500	3.860600	-11.608000	21.963673	0.000959	20.850949
182.057817	-2.986800	3.860600	-11.529000	21.952777	0.000959	20.849998
183.059101	-3.003500	3.859200	-11.590000	21.960879	0.000958	20.843884
184.054426	-2.974700	3.861000	-11.484000	21.983565	0.000959	20.864222
185.059142	-2.974200	3.860500	-11.480000	21.991893	0.000957	20.843162
186.054744	-2.995400	3.859700	-11.560000	21.971327	0.000958	20.841541
187.055999	-2.998300	3.859900	-11.572000	21.984139	0.000959	20.845831
188.057394	-2.994900	3.860800	-11.561000	21.984788	0.000960	20.843162
189.057297	-2.992000	3.860100	-11.548000	22.018992	0.000961	20.840891
190.056991	-3.011400	3.857700	-11.616000	22.019663	0.000959	20.836348
191.058454	-3.008400	3.858100	-11.606000	22.046238	0.000960	20.849674
192.058247	-3.015900	3.858900	-11.636000	22.040775	0.000962	20.857481
193.056232	-2.975600	3.860400	-11.486000	22.060344	0.000960	20.850520
194.056782	-2.996200	3.858600	-11.559000	22.061191	0.000961	20.837618
195.058423	-2.996500	3.859800	-11.565000	22.048403	0.000963	20.811540
196.055243	-2.980300	3.858000	-11.497000	22.068965	0.000962	20.840184
197.064101	-3.012100	3.859000	-11.622000	22.080282	0.000962	20.827333
198.060630	-3.011100	3.858500	-11.617000	22.073649	0.000963	20.818796
199.056642	-2.995100	3.858100	-11.554000	22.080831	0.000964	20.825037
200.058777	-3.010400	3.858000	-11.613000	22.092170	0.000965	20.832596
201.058307	-3.006100	3.858800	-11.599000	22.090050	0.000966	20.831422
202.059686	-3.012200	3.857800	-11.619000	22.098327	0.000964	20.844923
203.062226	-2.989900	3.857200	-11.531000	22.104158	0.000966	20.837485
204.053870	-2.999100	3.856200	-11.564000	22.121234	0.000964	20.837510
205.054610	-2.996200	3.856100	-11.552000	22.127393	0.000965	20.833246
206.062030	-3.002600	3.855900	-11.577000	22.120735	0.000966	20.828003
207.057941	-3.004800	3.855000	-11.582000	22.164479	0.000967	20.823434
208.057758	-3.004200	3.855400	-11.581000	22.153536	0.000965	20.824332
209.057924	-3.018700	3.855700	-11.639000	22.156230	0.000970	20.829874
210.058700	-3.033900	3.854200	-11.691000	22.179784	0.000967	20.818843
211.059172	-2.987400	3.855800	-11.518000	22.169566	0.000969	20.835165
212.058561	-3.007000	3.854400	-11.588000	22.169092	0.000969	20.844173
213.058397	-2.997600	3.855100	-11.555000	22.196036	0.000969	20.803821
214.059738	-2.994800	3.853600	-11.539000	22.181455	0.000971	20.811982
215.064636	-3.002600	3.854900	-11.574000	22.171036	0.000970	20.824310
216.065081	-2.985200	3.855900	-11.508000	22.166997	0.000970	20.834490
217.063311	-2.983400	3.855100	-11.500000	22.164679	0.000971	20.798979
218.064576	-3.019700	3.853400	-11.634000	22.195114	0.000973	20.819019
219.065682	-3.004600	3.852300	-11.574000	22.178990	0.000974	20.813306
220.060303	-3.017400	3.852300	-11.623000	22.202866	0.000971	20.825832
221.066460	-3.009200	3.852200	-11.591000	22.211068	0.000974	20.827405
222.065289	-2.998800	3.852500	-11.551000	22.226374	0.000973	20.811911
223.062664	-2.973900	3.854600	-11.461000	22.226274	0.000975	20.811337
224.072731	-2.994400	3.853600	-11.538000	22.234177	0.000975	20.816879
225.064897	-2.971800	3.854700	-11.454000	22.214808	0.000973	20.823564
226.070845	-3.002200	3.852400	-11.563000	22.199606	0.000974	20.804551
227.072499	-3.004100	3.852900	-11.573000	22.200879	0.000976	20.807722
228.067964	-2.996900	3.853000	-11.546000	22.194149	0.000975	20.830855
229.064916	-3.014800	3.851300	-11.610000	22.199035	0.000977	20.822470
230.067676	-3.014700	3.851600	-11.610000	22.189841	0.000978	20.823697
231.071593	-2.992700	3.851700	-11.525000	22.220624	0.000977	20.829387
232.069538	-2.989500	3.850200	-11.509000	22.226830	0.000979	20.802885
233.071130	-2.988800	3.851100	-11.510000	22.235655	0.000979	20.826419
234.073443	-3.001100	3.851000	-11.557000	22.243034	0.000979	20.832384
235.067667	-2.974300	3.851000	-11.452000	22.235457	0.000979	20.817212
236.070799	-3.000500	3.850800	-11.553000	22.207992	0.000979	20.822430
237.070052	-2.996200	3.850600	-11.535000	22.205875	0.000982	20.820310
238.071842	-2.997200	3.850000	-11.538000	22.201037	0.000982	20.800767
239.072394	-2.999000	3.850900	-11.548000	22.226015	0.000979	20.816768
240.073780	-3.006500	3.849500	-11.572000	22.249969	0.000979	20.797129
241.073906	-3.011200	3.849000	-11.589000	22.253159	0.000982	20.806013
242.075596	-2.990100	3.850400	-11.513000	22.265448	0.000982	20.814999
243.072042	-3.000600	3.849200	-11.549000	22.274270	0.000982	20.808185
244.076127	-2.980000	3.849700	-11.471000	22.272153	0.000983	20.817919
245.073452	-3.002400	3.848200	-11.552000	22.292367	0.000982	20.810659
246.076055	-2.985900	3.849500	-11.492000	22.277612	0.000983	20.802997
247.070666	-2.987900	3.848800	-11.499000	22.297230	0.000984	20.809838
248.078650	-3.002900	3.847800	-11.554000	22.297877	0.000983	20.794365
249.078806	-3.010800	3.848000	-11.583000	22.288579	0.000984	20.809711
250.076865	-3.027200	3.846900	-11.645000	22.316618	0.000984	20.802699
251.078400	-3.000300	3.847400	-11.542000	22.305526	0.000983	20.786851
252.076036	-3.016700	3.847100	-11.605000	22.319582	0.000983	20.810408
253.083332	-3.020600	3.846100	-11.615000	22.315097	0.000985	20.816349
254.080133	-3.005800	3.845800	-11.559000	22.327579	0.000985	20.795657
255.083613	-3.002000	3.846600	-11.546000	22.331044	0.000987	20.817144
256.076794	-3.004700	3.846900	-11.557000	22.331119	0.000985	20.813426
257.082725	-2.982600	3.847000	-11.473000	22.341261	0.000986	20.816943
258.082094	-3.004300	3.844700	-11.549000	22.339938	0.000986	20.795230
259.079986	-2.975200	3.847500	-11.445000	22.343325	0.000987	20.829442
260.081787	-2.972400	3.846500	-11.432000	22.357904	0.000988	20.803263
261.082439	-3.014700	3.844600	-11.589000	22.355509	0.000987	20.817934
262.077640	-2.997200	3.846200	-11.526000	22.341429	0.000989	20.810474
263.081171	-2.999100	3.844200	-11.527000	22.356278	0.000988	20.804006
264.082648	-2.989300	3.844900	-11.492000	22.369710	0.000989	20.811292
265.079283	-2.973100	3.845300	-11.431000	22.366044	0.000991	20.818527
266.083689	-2.977800	3.844500	-11.446000	22.370128	0.000990	20.810763
267.082741	-3.000400	3.844100	-11.533000	22.379248	0.000990	20.794764
268.081034	-2.983900	3.844800	-11.471000	22.375134	0.000991	20.800602
269.082670	-2.980400	3.844800	-11.458000	22.395367	0.000991	20.781034
270.083599	-2.982500	3.843700	-11.462000	22.385571	0.000992	20.809632
271.082735	-2.984700	3.844200	-11.473000	22.401194	0.000993	20.808207
272.084015	-3.007400	3.842100	-11.553000	22.389380	0.000994	20.783099
273.079731	-2.993700	3.843700	-11.505000	22.406498	0.000994	20.805457
274.082752	-3.010000	3.842700	-11.566000	22.413650	0.000997	20.811672
275.079577	-3.007400	3.842700	-11.556000	22.421422	0.000995	20.793376
276.082802	-3.003300	3.842000	-11.537000	22.423193	0.000996	20.797046
277.084496	-3.002400	3.841900	-11.534000	22.445569	0.000997	20.791005
278.082564	-2.986300	3.841500	-11.471000	22.457404	0.001000	20.816132
279.085207	-2.995800	3.842200	-11.510000	22.461965	0.001000	20.791778
280.082718	-2.995600	3.841300	-11.505000	22.468068	0.000997	20.809743
281.080793	-2.985200	3.841100	-11.465000	22.485015	0.001000	20.784989
282.084419	-2.977300	3.842100	-11.437000	22.509709	0.001003	20.779374
283.083296	-2.990800	3.841400	-11.488000	22.497823	0.001001	20.795920
284.082638	-2.993800	3.841100	-11.499000	22.497224	0.001002	20.805751
285.094008	-3.014100	3.839500	-11.571000	22.512700	0.001002	20.819353
286.083589	-2.980700	3.840200	-11.446000	22.498221	0.001004	20.808172
287.083942	-3.013800	3.839900	-11.571000	22.516362	0.001005	20.807374
288.086145	-3.015900	3.839700	-11.578000	22.533158	0.001005	20.798117
289.089821	-3.015900	3.839600	-11.578000	22.540906	0.001003	20.812515
290.083924	-3.010400	3.837700	-11.552000	22.531289	0.001005	20.798142
291.086418	-2.993900	3.838400	-11.491000	22.544721	0.001007	20.791205
292.094866	-3.020200	3.837800	-11.588000	22.562961	0.001007	20.804732
293.083379	-3.012400	3.839100	-11.564000	22.529125	0.001007	20.786965
294.086097	-2.998000	3.838000	-11.506000	22.560817	0.001006	20.807327
295.088442	-2.999200	3.837700	-11.509000	22.526284	0.001007	20.815415
296.081950	-3.009300	3.837300	-11.546000	22.532962	0.001009	20.775162
297.086935	-2.986400	3.836900	-11.458000	22.527707	0.001007	20.797399
298.085407	-3.003300	3.838700	-11.527000	22.523073	0.001009	20.821207
299.084680	-3.023000	3.836900	-11.598000	22.506951	0.001007	20.813596
300.088747	-3.002700	3.837400	-11.521000	22.501344	0.001010	20.814619
301.085927	-3.011300	3.836400	-11.552000	22.539370	0.001008	20.797700
302.087557	-2.998400	3.836000	-11.500000	22.560676	0.001008	20.809082
303.085511	-2.990000	3.836700	-11.470000	22.586339	0.001010	20.812499
304.090217	-2.992400	3.837300	-11.482000	22.564662	0.001010	20.816393
305.088573	-3.000600	3.837100	-11.512000	22.585442	0.001010	20.818713
306.084797	-2.993900	3.836700	-11.485000	22.588481	0.001010	20.813696
307.091106	-3.009800	3.836300	-11.545000	22.601260	0.001013	20.807530
308.090611	-3.020900	3.833800	-11.581000	22.606568	0.001012	20.818061
309.090482	-3.006900	3.834000	-11.528000	22.623412	0.001010	20.836829
310.090148	-3.016300	3.835100	-11.566000	22.632755	0.001011	20.805410
311.094810	-2.997500	3.835900	-11.496000	22.621642	0.001014	20.814193
312.091843	-2.975100	3.836200	-11.411000	22.634997	0.001017	20.811448
313.096281	-2.986400	3.836500	-11.456000	22.598896	0.001014	20.823653
314.094758	-3.011900	3.832000	-11.541000	22.616484	0.001014	20.805708
315.090137	-3.001900	3.833500	-11.507000	22.622563	0.001018	20.822228
316.091794	-2.994500	3.834100	-11.479000	22.624307	0.001017	20.841991
317.096247	-2.983600	3.834600	-11.439000	22.624755	0.001020	20.820630
318.096074	-2.985400	3.832700	-11.441000	22.635172	0.001016	20.803089
319.092500	-2.971200	3.834300	-11.392000	22.642621	0.001018	20.803438
320.094066	-2.995600	3.833500	-11.482000	22.624209	0.001019	20.807755
321.094417	-3.006900	3.832100	-11.522000	22.661855	0.001020	20.813694
322.094037	-2.985300	3.833100	-11.442000	22.667114	0.001020	20.816591
323.100189	-2.962200	3.833800	-11.356000	22.665223	0.001021	20.804740
324.091003	-2.993600	3.832600	-11.472000	22.676336	0.001021	20.814922
325.094146	-2.990000	3.832400	-11.458000	22.673148	0.001023	20.813625
326.094313	-2.988800	3.833100	-11.455000	22.683537	0.001023	20.825928
327.099092	-3.000600	3.830400	-11.492000	22.716474	0.001023	20.828100
328.097045	-3.007100	3.830800	-11.519000	22.696443	0.001024	20.826053
329.093736	-3.011200	3.830300	-11.533000	22.717997	0.001025	20.815875
330.096641	-2.997800	3.831200	-11.484000	22.729458	0.001023	20.815502
331.094927	-2.979000	3.830000	-11.409000	22.765157	0.001025	20.805269
332.093427	-2.998600	3.829700	-11.483000	22.772236	0.001025	20.846973
333.097111	-3.019000	3.829300	-11.559000	22.757014	0.001028	20.818449
334.096467	-3.005800	3.828500	-11.506000	22.795880	0.001026	20.821347
335.098053	-3.007700	3.830000	-11.518000	22.783849	0.001027	20.842011
336.097306	-2.994600	3.831100	-11.471000	22.782131	0.001027	20.827014
337.099416	-3.004000	3.828900	-11.501000	22.790030	0.001029	20.826866
338.102683	-3.006600	3.827800	-11.508000	22.785422	0.001026	20.829362
339.099458	-2.985100	3.829900	-11.431000	22.795139	0.001026	20.826294
340.100632	-3.019600	3.828000	-11.558000	22.811084	0.001029	20.847482
341.100268	-3.009800	3.828200	-11.521000	22.801221	0.001031	20.833809
342.096780	-3.001000	3.827100	-11.484000	22.803688	0.001030	20.835332
343.097207	-3.000600	3.828600	-11.488000	22.813878	0.001028	20.819936
344.096478	-2.992300	3.826800	-11.450000	22.811539	0.001031	20.834188
345.106655	-3.010300	3.827600	-11.521000	22.804813	0.001030	20.842148
346.104594	-3.011000	3.825800	-11.518000	22.826961	0.001033	20.827826
347.103456	-3.013300	3.826700	-11.529000	22.818418	0.001031	20.830174
348.102597	-3.019800	3.826300	-11.553000	22.793630	0.001032	20.833317
349.100389	-3.006800	3.826700	-11.505000	22.788952	0.001032	20.841907
350.106027	-3.005900	3.826400	-11.500000	22.802228	0.001034	20.843352
351.103038	-3.001900	3.826700	-11.485000	22.787880	0.001033	20.863117
352.103831	-3.020000	3.825400	-11.553000	22.822733	0.001033	20.854410
353.101587	-3.014000	3.824900	-11.526000	22.832375	0.001032	20.827560
354.104308	-3.009600	3.824000	-11.507000	22.844706	0.001033	20.850818
355.101650	-3.011400	3.824700	-11.515000	22.872084	0.001035	20.843633
356.104595	-2.989800	3.824900	-11.435000	22.861299	0.001036	20.845630
357.101443	-2.986400	3.824700	-11.421000	22.873429	0.001033	20.837394
358.103783	-3.009400	3.823400	-11.506000	22.884715	0.001034	20.837321
359.106225	-3.003600	3.824100	-11.485000	22.897021	0.001036	20.852493
360.105091	-3.006000	3.823600	-11.493000	22.918716	0.001036	20.833927
361.106509	-3.012100	3.822200	-11.512000	22.892834	0.001035	20.840239
362.105601	-3.006900	3.822600	-11.493000	22.895924	0.001037	20.837170
363.108694	-3.021500	3.821800	-11.547000	22.907558	0.001036	20.854515
364.105930	-2.986500	3.823400	-11.418000	22.937472	0.001038	20.866466
365.109697	-2.990600	3.822200	-11.428000	22.927335	0.001039	20.837820
366.108380	-2.992100	3.823800	-11.441000	22.945918	0.001038	20.866393
367.104285	-3.024400	3.821000	-11.554000	22.959592	0.001040	20.854016
368.104051	-3.013300	3.820500	-11.511000	22.949924	0.001039	20.846701
369.105944	-3.008500	3.820800	-11.493000	22.961212	0.001039	20.852794
370.107549	-3.007200	3.820900	-11.489000	22.951720	0.001041	20.850870
371.108804	-2.988400	3.819800	-11.413000	22.979491	0.001041	20.852142
372.109902	-2.981000	3.820600	-11.388000	22.958220	0.001040	20.842210
373.112771	-3.005500	3.819700	-11.479000	22.948382	0.001041	20.849897
374.105948	-2.988000	3.819400	-11.412000	22.970622	0.001041	20.860325
375.118453	-3.003300	3.819500	-11.470000	22.974286	0.001043	20.852616
376.110402	-3.006400	3.818800	-11.480000	22.997502	0.001042	20.854066
377.108213	-2.998000	3.818800	-11.448000	22.985869	0.001042	20.854738
378.112583	-2.986100	3.820300	-11.406000	23.013192	0.001045	20.856510
379.113749	-3.013300	3.818800	-11.506000	23.010775	0.001044	20.853140
380.109940	-3.013700	3.819300	-11.509000	23.025548	0.001046	20.856088
381.112638	-3.012400	3.817400	-11.498000	23.018099	0.001046	20.840565
382.113615	-3.007700	3.818300	-11.483000	23.062955	0.001044	20.855637
383.110425	-3.010900	3.818500	-11.496000	23.057725	0.001044	20.859404
384.111765	-3.000600	3.818300	-11.456000	23.053541	0.001044	20.873703
385.114162	-3.007600	3.816900	-11.479000	23.054537	0.001046	20.859056
386.114275	-2.975300	3.817700	-11.358000	23.065794	0.001047	20.871283
387.117291	-3.007000	3.817400	-11.477000	23.065621	0.001046	20.872532
388.116916	-2.997500	3.818000	-11.443000	23.078498	0.001047	20.850822
389.115833	-2.981300	3.818200	-11.381000	23.092669	0.001048	20.855539
390.117351	-2.985200	3.816400	-11.392000	23.094289	0.001048	20.848627
391.114814	-2.976900	3.817600	-11.364000	23.098122	0.001048	20.858632
392.113039	-3.001400	3.815100	-11.449000	23.117824	0.001050	20.863200
393.119746	-2.980300	3.816800	-11.372000	23.100318	0.001050	20.875530
394.113898	-2.992700	3.816400	-11.421000	23.129105	0.001050	20.856013
395.115168	-2.991100	3.815000	-11.409000	23.118998	0.001049	20.869118
396.115985	-3.009000	3.813500	-11.474000	23.121461	0.001052	20.872060
397.114084	-3.001000	3.814600	-11.447000	23.125820	0.001051	20.877850
398.117878	-2.992000	3.815400	-11.415000	23.132943	0.001051	20.851324
399.114931	-2.996100	3.815300	-11.430000	23.138771	0.001052	20.860957
400.121598	-3.025000	3.814100	-11.536000	23.134387	0.001051	20.866521
401.117407	-2.976000	3.813900	-11.348000	23.096783	0.001053	20.878625
402.121514	-2.974800	3.813600	-11.343000	23.120690	0.001050	20.866546
403.121643	-2.995000	3.813400	-11.421000	23.116008	0.001052	20.863752
404.117378	-2.981500	3.813600	-11.369000	23.124924	0.001052	20.879797
405.117199	-2.989200	3.812800	-11.397000	23.118399	0.001052	20.861406
406.118016	-3.015600	3.811800	-11.494000	23.135381	0.001055	20.865621
407.115311	-2.988900	3.812400	-11.393000	23.117723	0.001053	20.879694
408.116385	-2.982000	3.810700	-11.362000	23.117871	0.001054	20.895962
409.120472	-3.003700	3.812100	-11.450000	23.124496	0.001054	20.878420
410.121346	-3.012400	3.811600	-11.481000	23.137745	0.001055	20.884109
411.114672	-3.010700	3.811600	-11.475000	23.124220	0.001053	20.869609
412.116407	-2.994900	3.812300	-11.416000	23.120009	0.001054	20.869657
413.119144	-3.010000	3.811000	-11.470000	23.128376	0.001055	20.889894
414.120464	-2.996900	3.811400	-11.422000	23.128001	0.001055	20.882406
415.118123	-3.009500	3.809000	-11.462000	23.119431	0.001057	20.883776
416.121573	-2.989000	3.811100	-11.390000	23.150609	0.001056	20.886094
417.120567	-3.016500	3.809100	-11.489000	23.176956	0.001058	20.881202
418.120892	-3.013200	3.807800	-11.473000	23.151202	0.001057	20.870094
419.127955	-3.008400	3.808600	-11.457000	23.136709	0.001057	20.880700
420.128896	-3.012800	3.810600	-11.479000	23.121191	0.001058	20.907823
421.123233	-2.998600	3.808900	-11.420000	23.138672	0.001060	20.879823
422.120893	-3.005500	3.808600	-11.446000	23.159389	0.001059	20.875927
423.127903	-2.992500	3.807400	-11.392000	23.178664	0.001060	20.877698
424.128192	-3.004000	3.806900	-11.435000	23.190891	0.001059	20.870985
425.126799	-2.986900	3.808700	-11.375000	23.192210	0.001061	20.902650
426.123535	-3.001400	3.807200	-11.425000	23.215094	0.001061	20.868213
427.126668	-2.995100	3.808200	-11.404000	23.211231	0.001062	20.899901
428.126734	-3.018200	3.806500	-11.488000	23.232871	0.001062	20.909258
429.127934	-3.016000	3.806100	-11.478000	23.204980	0.001063	20.897905
430.126527	-2.997800	3.807000	-11.411000	23.244424	0.001063	20.891440
431.126257	-2.970200	3.807400	-11.308000	23.264719	0.001063	20.894709
432.127689	-3.006300	3.806500	-11.441000	23.280580	0.001063	20.899698
433.123814	-2.996600	3.805400	-11.401000	23.273808	0.001064	20.880586
434.125562	-3.002500	3.805700	-11.426000	23.269350	0.001063	20.889867
435.125752	-2.982100	3.805900	-11.349000	23.246737	0.001065	20.889965
436.124679	-2.988200	3.805000	-11.369000	23.275673	0.001065	20.880558
437.123706	-2.997600	3.803800	-11.401000	23.279085	0.001065	20.886822
438.127113	-2.999600	3.804900	-11.412000	23.276892	0.001065	20.902641
439.126012	-2.993100	3.803100	-11.382000	23.286607	0.001066	20.891515
440.126403	-2.967400	3.804300	-11.288000	23.277218	0.001067	20.902967
441.127062	-2.991800	3.803900	-11.380000	23.287103	0.001066	20.910502
442.125407	-2.974800	3.804300	-11.315000	23.291536	0.001067	20.904041
443.129291	-2.998100	3.803700	-11.403000	23.295569	0.001070	20.899548
444.124614	-3.008600	3.802500	-11.439000	23.300152	0.001068	20.895607
445.130796	-3.010100	3.802800	-11.447000	23.300726	0.001067	20.893337
446.132828	-3.010600	3.802000	-11.445000	23.314198	0.001069	20.911578
447.129617	-3.025400	3.800600	-11.497000	23.300803	0.001068	20.902422
448.132433	-3.018600	3.801100	-11.473000	23.317835	0.001070	20.913801
449.127244	-3.013200	3.800100	-11.448000	23.324931	0.001070	20.901948
450.127762	-3.010800	3.800400	-11.441000	23.328794	0.001072	20.878320
451.131388	-2.987500	3.801200	-11.355000	23.349410	0.001071	20.895188
452.133204	-3.006200	3.800600	-11.425000	23.362681	0.001070	20.914177
453.133164	-2.991100	3.800900	-11.368000	23.364078	0.001073	20.917947
454.131108	-3.002300	3.800200	-11.408000	23.391021	0.001072	20.921243
455.132759	-2.990900	3.800000	-11.362000	23.407976	0.001071	20.918798
456.130014	-2.982200	3.799200	-11.328000	23.377204	0.001072	20.897440
457.129236	-2.978500	3.800500	-11.319000	23.392540	0.001072	20.907120
458.133175	-2.999900	3.798700	-11.394000	23.366673	0.001073	20.925763
459.135642	-3.003400	3.798900	-11.408000	23.377802	0.001074	20.918900
460.131168	-3.019400	3.796600	-11.462000	23.389829	0.001075	20.935220
461.138545	-3.011600	3.798500	-11.438000	23.397999	0.001074	20.917806
462.133042	-2.988200	3.798000	-11.348000	23.384430	0.001073	20.913690
463.133075	-3.005500	3.796200	-11.408000	23.389035	0.001076	20.910720
464.131795	-2.997900	3.798600	-11.387000	23.398947	0.001075	20.918757
465.136363	-3.012500	3.797800	-11.440000	23.403130	0.001074	20.925793
466.136752	-3.004600	3.797200	-11.408000	23.422553	0.001077	20.942414
467.136944	-3.013200	3.795400	-11.435000	23.423451	0.001078	20.930988
468.136443	-2.996300	3.797000	-11.376000	23.410854	0.001077	20.923578
469.136633	-2.986300	3.796500	-11.336000	23.421684	0.001076	20.938225
470.138239	-2.979100	3.795900	-11.308000	23.414466	0.001077	20.923405
471.133849	-2.984400	3.796000	-11.328000	23.431671	0.001076	20.934485
472.137170	-2.995400	3.796200	-11.370000	23.440636	0.001077	20.944892
473.134562	-2.963700	3.795900	-11.249000	23.463938	0.001080	20.916569
474.142375	-2.984100	3.796200	-11.326000	23.473604	0.001078	20.929102
475.139383	-3.012800	3.793700	-11.429000	23.469049	0.001079	20.919321
476.139855	-3.001800	3.794700	-11.390000	23.464071	0.001076	20.941829
477.142267	-2.981100	3.793300	-11.308000	23.455656	0.001079	20.925336
478.139057	-2.975600	3.794500	-11.290000	23.437805	0.001081	20.944426
479.140100	-2.997200	3.793700	-11.369000	23.430339	0.001079	20.944528
480.139629	-3.002300	3.793800	-11.389000	23.444956	0.001079	20.952540
481.138524	-3.010500	3.792200	-11.414000	23.425561	0.001079	20.949696
482.141748	-2.994300	3.793300	-11.357000	23.417571	0.001080	20.952119
483.137581	-2.982700	3.793300	-11.313000	23.432361	0.001079	20.931384
484.142735	-2.994400	3.790500	-11.349000	23.452405	0.001080	20.941516
485.141872	-3.013300	3.790900	-11.422000	23.466150	0.001077	20.949129
486.140898	-2.998700	3.790500	-11.366000	23.465925	0.001077	20.963600
487.143169	-2.996600	3.791400	-11.360000	23.463415	0.001078	20.980995
488.142853	-3.008500	3.790700	-11.404000	23.472077	0.001079	20.949380
489.139196	-3.006700	3.789200	-11.392000	23.473198	0.001079	20.955718
490.145453	-3.017900	3.789800	-11.437000	23.487264	0.001079	20.952748
491.143704	-3.024900	3.788300	-11.458000	23.504891	0.001078	20.955244
492.143014	-3.002400	3.790100	-11.378000	23.515125	0.001077	20.963605
493.144390	-2.998300	3.788700	-11.359000	23.515721	0.001077	20.944290
494.142591	-3.005300	3.789100	-11.387000	23.526550	0.001080	20.966522
495.144810	-3.004600	3.787600	-11.379000	23.530036	0.001080	20.944415
496.145305	-2.985800	3.788000	-11.309000	23.549925	0.001078	20.934956
497.143733	-2.975200	3.788100	-11.269000	23.560058	0.001081	20.954595
498.144427	-2.991700	3.787600	-11.330000	23.582139	0.001080	20.969141
499.148735	-2.997600	3.787100	-11.351000	23.572279	0.001079	20.946457
500.144661	-3.016300	3.787100	-11.422000	23.560081	0.001079	20.954143
501.150331	-3.001600	3.786900	-11.365000	23.550596	0.001078	20.959333
502.143830	-2.998300	3.788000	-11.356000	23.558036	0.001078	20.971057
503.145215	-3.008000	3.785900	-11.387000	23.553879	0.001079	20.948875
504.146482	-3.012500	3.784500	-11.400000	23.552335	0.001078	20.938794
505.145867	-3.016100	3.784200	-11.412000	23.553552	0.001080	20.950917
506.149427	-2.973500	3.786700	-11.259000	23.566743	0.001080	20.956554
507.147061	-2.983300	3.784200	-11.289000	23.574161	0.001079	20.948344
508.148211	-2.994500	3.786300	-11.337000	23.582948	0.001079	20.950514
509.148546	-3.005100	3.784800	-11.373000	23.581849	0.001081	20.940879
510.152544	-3.007900	3.785200	-11.383000	23.595243	0.001081	20.936288
511.152097	-2.981300	3.784400	-11.281000	23.625463	0.001082	20.930075
512.149239	-3.011600	3.784300	-11.395000	23.648962	0.001081	20.930399
513.153511	-2.997000	3.783400	-11.337000	23.642786	0.001081	20.942223
514.151042	-3.014400	3.783400	-11.403000	23.644875	0.001083	20.956644
515.153198	-2.975600	3.783000	-11.255000	23.658491	0.001082	20.930943
516.153053	-2.996900	3.781400	-11.331000	23.639920	0.001083	20.935559
517.153466	-2.990000	3.783800	-11.312000	23.647585	0.001083	20.918115
518.153648	-3.024400	3.780400	-11.433000	23.607706	0.001083	20.926972
519.154722	-3.022900	3.780700	-11.428000	23.606039	0.001083	20.915345
520.155774	-2.992300	3.780500	-11.312000	23.589657	0.001081	20.923104
521.149498	-2.996900	3.780800	-11.330000	23.620203	0.001084	20.909157
522.153447	-3.000600	3.780700	-11.342000	23.620176	0.001082	20.938050
523.154487	-2.987100	3.781600	-11.295000	23.633942	0.001083	20.954219
524.150002	-3.009900	3.778600	-11.372000	23.638321	0.001085	20.920207
525.149983	-2.999200	3.779500	-11.334000	23.653631	0.001085	20.911849
526.150789	-3.003600	3.779600	-11.352000	23.644743	0.001085	20.922377
527.152844	-2.995100	3.778900	-11.317000	23.654350	0.001083	20.904035
528.152345	-2.962000	3.779500	-11.194000	23.643672	0.001084	20.905658
529.154735	-2.986800	3.779500	-11.288000	23.661171	0.001086	20.925096
530.156454	-3.002500	3.777800	-11.342000	23.639065	0.001084	20.906255
531.154791	-3.004600	3.778200	-11.351000	23.614072	0.001083	20.922450
532.157901	-3.009000	3.776800	-11.364000	23.594430	0.001084	20.906553
533.154258	-3.026500	3.776400	-11.428000	23.555467	0.001084	20.918228
534.151872	-2.991600	3.777200	-11.299000	23.556886	0.001084	20.920124
535.155588	-2.989600	3.777000	-11.290000	23.573789	0.001082	20.925214
536.156504	-3.002200	3.776900	-11.338000	23.566644	0.001084	20.913785
537.156016	-2.986700	3.776700	-11.279000	23.597363	0.001084	20.915657
538.154234	-2.986900	3.777200	-11.281000	23.579910	0.001085	20.905748
539.158518	-2.989000	3.776200	-11.286000	23.614736	0.001084	20.900832
540.155803	-2.981200	3.775700	-11.255000	23.617674	0.001086	20.918000
541.155899	-2.958100	3.775800	-11.168000	23.640524	0.001083	20.904399
542.163331	-3.012700	3.774000	-11.368000	23.659663	0.001086	20.900827
543.162153	-2.984900	3.775700	-11.269000	23.686844	0.001085	20.911006
544.157503	-2.977200	3.775600	-11.240000	23.687417	0.001087	20.899728
545.163293	-2.987100	3.772700	-11.268000	23.713751	0.001085	20.898155
546.159232	-2.997600	3.773400	-11.309000	23.720993	0.001084	20.896407
547.158196	-3.009800	3.772100	-11.352000	23.728037	0.001086	20.879289
548.163035	-2.973300	3.773900	-11.220000	23.743766	0.001085	20.891265
549.158566	-2.999400	3.770700	-11.309000	23.739585	0.001085	20.896081
550.162423	-3.015200	3.771700	-11.372000	23.730424	0.001086	20.901121
551.166330	-2.988200	3.771800	-11.269000	23.761012	0.001087	20.890537
552.160297	-3.023800	3.770100	-11.399000	23.757081	0.001088	20.888967
553.167552	-3.000500	3.772100	-11.318000	23.762803	0.001087	20.879058
554.166070	-2.999200	3.771800	-11.311000	23.714092	0.001087	20.894704
555.165684	-3.016700	3.770400	-11.373000	23.732859	0.001089	20.886494
556.165053	-3.010700	3.769700	-11.348000	23.733757	0.001088	20.888342
557.161874	-3.009400	3.769200	-11.342000	23.729251	0.001087	20.894729
558.164545	-2.994200	3.770100	-11.287000	23.737588	0.001087	20.896450
559.161015	-2.991800	3.770100	-11.278000	23.735597	0.001087	20.898720
560.164627	-3.020400	3.769200	-11.382000	23.731763	0.001087	20.881602
561.161730	-3.001200	3.769000	-11.309000	23.714365	0.001088	20.912045
562.164517	-3.013500	3.770100	-11.360000	23.726413	0.001089	20.874816
563.163918	-2.987500	3.770200	-11.260000	23.688924	0.001089	20.877533
564.168793	-3.010100	3.768300	-11.342000	23.722355	0.001086	20.862687
565.166891	-3.013400	3.767900	-11.353000	23.719990	0.001088	20.884023
566.164969	-3.011000	3.768300	-11.344000	23.722505	0.001087	20.859993
567.166534	-3.020800	3.766500	-11.377000	23.704604	0.001087	20.882821
568.163476	-3.024800	3.767000	-11.393000	23.724194	0.001085	20.885867
569.165588	-3.010200	3.767200	-11.339000	23.732432	0.001087	20.884168
570.168701	-3.011300	3.765900	-11.340000	23.750228	0.001087	20.884941
571.165985	-3.003800	3.767300	-11.316000	23.729342	0.001086	20.890079
572.166846	-3.006200	3.765500	-11.319000	23.721502	0.001087	20.885538
573.168047	-2.974300	3.767600	-11.205000	23.747585	0.001088	20.867120
574.165734	-2.990700	3.765500	-11.261000	23.749700	0.001086	20.877300
575.167383	-2.996100	3.766300	-11.282000	23.748877	0.001085	20.871260
576.170268	-2.988500	3.765700	-11.253000	23.760600	0.001087	20.882538
577.175910	-3.009800	3.763600	-11.326000	23.781580	0.001087	20.870859
578.167388	-3.002100	3.763100	-11.296000	23.796536	0.001085	20.876370
579.169975	-2.985700	3.763800	-11.237000	23.810050	0.001087	20.881385
580.168672	-2.998500	3.763100	-11.282000	23.798025	0.001085	20.871225
581.178993	-2.986900	3.764500	-11.242000	23.812585	0.001085	20.871125
582.169407	-2.999900	3.762900	-11.287000	23.810641	0.001090	20.874391
583.171409	-2.993500	3.763400	-11.264000	23.786846	0.001088	20.858121
584.170724	-2.976200	3.763700	-11.200000	23.761059	0.001086	20.841749
585.169938	-3.011700	3.760700	-11.324000	23.769444	0.001089	20.871966
586.177834	-2.986800	3.761100	-11.232000	23.758464	0.001088	20.864277
587.172683	-3.003400	3.760700	-11.294000	23.774198	0.001088	20.860138
588.173141	-2.987500	3.761400	-11.236000	23.786987	0.001091	20.871537
589.173347	-2.974700	3.761100	-11.187000	23.784672	0.001090	20.857364
590.175398	-2.995800	3.761200	-11.267000	23.794228	0.001087	20.867893
591.171140	-2.979800	3.759900	-11.203000	23.784895	0.001088	20.871337
592.170713	-3.004400	3.759800	-11.295000	23.759603	0.001088	20.849773
593.174912	-2.990000	3.760300	-11.242000	23.787084	0.001086	20.855989
594.173089	-2.996500	3.758800	-11.263000	23.790144	0.001088	20.856213
595.172118	-2.981500	3.760700	-11.211000	23.801071	0.001089	20.857685
596.178633	-3.004500	3.757200	-11.287000	23.781059	0.001087	20.847578
597.175238	-2.977400	3.759900	-11.192000	23.785415	0.001088	20.871859
598.175790	-2.984100	3.759200	-11.217000	23.773318	0.001088	20.868738
599.181020	-3.001500	3.756000	-11.273000	23.788448	0.001088	20.861624
600.171761	-3.011900	3.756700	-11.314000	23.793227	0.001089	20.849347
601.172754	-2.987200	3.757300	-11.222000	23.796963	0.001088	20.857359
602.176869	-2.998800	3.755700	-11.260000	23.806318	0.001088	20.843507
603.176234	-2.989000	3.755800	-11.226000	23.791113	0.001090	20.851968
604.172414	-2.981600	3.757700	-11.203000	23.740436	0.001088	20.853790
605.176117	-2.995700	3.755600	-11.249000	23.746684	0.001090	20.838243
606.177357	-3.002300	3.756500	-11.277000	23.761991	0.001090	20.861175
607.182851	-3.011300	3.755900	-11.309000	23.778868	0.001086	20.846803
608.175642	-2.977800	3.755800	-11.183000	23.788548	0.001090	20.858880
609.175527	-3.002400	3.754400	-11.271000	23.804029	0.001090	20.860651
610.176551	-2.981300	3.755400	-11.195000	23.797213	0.001089	20.856188
611.177079	-2.969500	3.754400	-11.148000	23.839150	0.001090	20.853192
612.178245	-2.986200	3.754900	-11.211000	23.852391	0.001089	20.856511
613.174456	-2.987900	3.755000	-11.217000	23.855453	0.001089	20.822599
614.177180	-2.990000	3.753000	-11.220000	23.875491	0.001088	20.848854
615.181458	-3.010700	3.752700	-11.297000	23.893882	0.001089	20.823675
616.180268	-2.992100	3.752600	-11.227000	23.905081	0.001088	20.848180
617.180395	-3.017400	3.752500	-11.322000	23.907845	0.001089	20.838624
618.182402	-2.985600	3.753000	-11.204000	23.925788	0.001089	20.832435
619.177562	-3.016100	3.752200	-11.315000	23.910632	0.001092	20.857065
620.179158	-3.001500	3.750300	-11.256000	23.911705	0.001090	20.845340
621.179003	-3.012600	3.751400	-11.300000	23.902573	0.001090	20.833338
622.183047	-2.999600	3.751400	-11.252000	23.917009	0.001088	20.844968
623.184495	-2.996500	3.751400	-11.240000	23.919646	0.001086	20.843819
624.181696	-2.989200	3.750900	-11.212000	23.895158	0.001089	20.853402
625.185707	-3.000000	3.748600	-11.244000	23.929978	0.001089	20.862714
626.191767	-3.012000	3.749300	-11.292000	23.925277	0.001091	20.852785
627.184515	-3.019500	3.748400	-11.317000	23.934359	0.001088	20.836288
628.189152	-2.995200	3.749100	-11.228000	23.954641	0.001088	20.857574
629.181451	-2.998300	3.748800	-11.238000	23.975993	0.001088	20.850537
630.185758	-2.978600	3.749400	-11.167000	23.973656	0.001088	20.849142
631.183170	-3.008200	3.747000	-11.270000	23.959719	0.001086	20.850339
632.200789	-2.996800	3.747400	-11.229000	23.992942	0.001086	20.840033
633.186027	-2.982900	3.747300	-11.177000	23.975047	0.001086	20.847218
634.188546	-2.979500	3.746700	-11.163000	23.956807	0.001085	20.861168
635.191535	-3.003800	3.746600	-11.253000	23.961163	0.001086	20.848941
636.190670	-2.999700	3.746400	-11.237000	23.954793	0.001086	20.837339
637.186727	-3.018800	3.745800	-11.306000	23.931995	0.001086	20.832495
638.185375	-3.023800	3.746000	-11.326000	23.931272	0.001087	20.850261
639.186754	-3.016100	3.744600	-11.292000	23.935502	0.001083	20.845495
640.185555	-3.015200	3.744700	-11.290000	23.946427	0.001085	20.850286
641.190094	-2.965700	3.746000	-11.108000	23.959787	0.001084	20.833812
642.191374	-2.991100	3.744400	-11.199000	23.970414	0.001086	20.835934
643.189631	-3.008200	3.743300	-11.259000	23.946448	0.001084	20.845091
644.195033	-3.012500	3.743500	-11.276000	23.949458	0.001085	20.841471
645.193559	-3.010800	3.743800	-11.270000	23.956150	0.001083	20.851501
646.192581	-2.985500	3.744800	-11.179000	23.957591	0.001083	20.831136
647.188390	-2.994100	3.744000	-11.209000	23.925213	0.001082	20.826643
648.192576	-2.986900	3.743800	-11.181000	23.927155	0.001085	20.842814
649.189324	-3.004500	3.742100	-11.241000	23.916875	0.001084	20.844359
650.191475	-3.007300	3.742500	-11.254000	23.861398	0.001085	20.840888
651.190768	-2.995200	3.742200	-11.208000	23.853236	0.001083	20.839816
652.191114	-2.993200	3.740800	-11.194000	23.863612	0.001084	20.821772
653.193304	-2.996700	3.742000	-11.213000	23.852486	0.001086	20.836219
654.199361	-3.032200	3.741300	-11.342000	23.858833	0.001084	20.805600
655.193191	-3.000900	3.740900	-11.225000	23.858236	0.001086	20.813061
656.191026	-3.009100	3.741000	-11.256000	23.886207	0.001085	20.818824
657.198523	-2.965600	3.741200	-11.094000	23.893253	0.001085	20.806923
658.196443	-2.990500	3.741100	-11.187000	23.907190	0.001087	20.812838
659.195742	-2.967100	3.741000	-11.098000	23.900768	0.001085	20.824890
660.192482	-2.997700	3.739500	-11.209000	23.904901	0.001084	20.833776
661.191909	-3.002200	3.740100	-11.227000	23.915899	0.001086	20.826312
662.195292	-3.016600	3.737900	-11.275000	23.939789	0.001084	20.827035
663.196732	-2.976600	3.739700	-11.131000	23.933642	0.001085	20.827983
664.196229	-3.001700	3.739700	-11.225000	23.946114	0.001084	20.821523
665.195506	-3.032400	3.737000	-11.331000	23.948528	0.001081	20.803082
666.197078	-3.007700	3.738000	-11.241000	23.984812	0.001084	20.811967
667.197386	-3.003200	3.736500	-11.219000	23.973538	0.001084	20.838118
668.198149	-2.997900	3.736500	-11.201000	23.976500	0.001086	20.816907
669.194154	-2.974100	3.737300	-11.114000	23.966150	0.001083	20.812218
670.198799	-2.991900	3.736400	-11.177000	23.985090	0.001083	20.795650
671.203261	-2.973400	3.737100	-11.110000	23.992580	0.001083	20.812170
672.200244	-3.004700	3.737600	-11.230000	24.006489	0.001083	20.794351
673.202916	-2.987000	3.734800	-11.154000	23.990245	0.001084	20.811726
674.201253	-2.987300	3.736000	-11.159000	23.964913	0.001082	20.798176
675.201717	-2.990800	3.734900	-11.170000	23.985270	0.001085	20.805313
676.204607	-3.040100	3.732900	-11.346000	23.967155	0.001082	20.818915
677.202564	-3.006900	3.734700	-11.229000	24.002916	0.001082	20.803095
678.202570	-3.016100	3.733800	-11.260000	24.035442	0.001082	20.807739
679.201698	-2.985700	3.733400	-11.146000	24.026161	0.001082	20.832096
680.207560	-3.015200	3.731900	-11.251000	24.049875	0.001083	20.805145
681.206779	-2.993800	3.734100	-11.178000	24.077822	0.001081	20.815154
682.205337	-2.975600	3.733600	-11.109000	24.075883	0.001084	20.807520
683.204238	-3.007100	3.733400	-11.225000	24.096213	0.001079	20.797563
684.209234	-2.984100	3.733700	-11.141000	24.095567	0.001082	20.798812
685.209019	-2.979100	3.733400	-11.120000	24.092235	0.001083	20.808747
686.213347	-2.992700	3.733400	-11.172000	24.089921	0.001083	20.814961
687.210796	-2.999000	3.731800	-11.191000	24.084298	0.001084	20.798416
688.204982	-3.009000	3.731200	-11.227000	24.050633	0.001080	20.805430
689.215557	-2.994500	3.732000	-11.175000	24.039013	0.001082	20.813691
690.206335	-2.993000	3.732100	-11.169000	24.045907	0.001082	20.794053
691.208343	-3.013400	3.731100	-11.242000	24.025257	0.001081	20.785197
692.209222	-2.997200	3.730500	-11.180000	24.035760	0.001081	20.786722
693.214291	-2.995800	3.731400	-11.178000	24.030982	0.001081	20.797103
694.207548	-3.009300	3.729800	-11.224000	24.008863	0.001080	20.816172
695.209556	-3.004600	3.729900	-11.205000	24.049024	0.001082	20.791488
696.215222	-3.012300	3.728900	-11.232000	24.037531	0.001082	20.790394
697.214470	-2.989000	3.727700	-11.141000	24.074111	0.001081	20.816174
698.212305	-3.020000	3.727300	-11.255000	24.064558	0.001082	20.802326
699.218942	-2.996700	3.728300	-11.171000	24.073988	0.001082	20.792343
700.212318	-2.993900	3.727000	-11.157000	24.071977	0.001081	20.806922
701.215219	-3.000300	3.728500	-11.186000	24.050902	0.001080	20.797639
702.214458	-2.993400	3.727900	-11.158000	24.035002	0.001081	20.782642
703.212122	-2.996400	3.728000	-11.170000	24.062451	0.001080	20.791678
704.212422	-3.020200	3.725800	-11.252000	24.049983	0.001081	20.802408
705.215906	-2.991700	3.727300	-11.149000	24.063297	0.001080	20.802483
706.216486	-3.025000	3.725700	-11.270000	24.052525	0.001078	20.781249
707.213995	-2.985000	3.726400	-11.123000	24.065070	0.001078	20.795253
708.217083	-3.026900	3.726000	-11.275000	24.049570	0.001078	20.803890
709.220950	-2.987400	3.725600	-11.130000	24.068432	0.001079	20.820435
710.213508	-2.988200	3.725900	-11.132000	24.069677	0.001081	20.800348
711.217886	-3.018900	3.725500	-11.245000	24.083388	0.001078	20.803667
712.223925	-3.009300	3.724700	-11.208000	24.105686	0.001079	20.804219
713.216665	-2.999300	3.723900	-11.167000	24.125419	0.001078	20.808363
714.219450	-3.003600	3.724100	-11.185000	24.117632	0.001078	20.796286
715.220119	-2.987900	3.724100	-11.125000	24.108652	0.001077	20.798185
716.221395	-2.991600	3.724800	-11.142000	24.121194	0.001077	20.792272
717.227025	-3.031600	3.723000	-11.285000	24.144884	0.001078	20.788531
718.220684	-2.983200	3.724200	-11.109000	24.157501	0.001078	20.791703
719.223438	-3.013200	3.722400	-11.215000	24.145337	0.001077	20.795624
720.221507	-2.987100	3.722400	-11.118000	24.166488	0.001077	20.796923
721.216463	-2.996300	3.722200	-11.152000	24.170992	0.001077	20.791484
722.218272	-3.007300	3.721200	-11.189000	24.177541	0.001079	20.794733
723.218771	-3.019500	3.722900	-11.240000	24.177018	0.001077	20.821709
724.217874	-3.031800	3.719400	-11.275000	24.203768	0.001077	20.794013
725.220484	-3.018500	3.721300	-11.232000	24.205857	0.001075	20.818867
726.220644	-2.987600	3.720000	-11.113000	24.192873	0.001076	20.796835
727.218433	-3.002100	3.720200	-11.168000	24.172896	0.001077	20.790548
728.218351	-3.013000	3.719100	-11.204000	24.179689	0.001075	20.801629
729.220109	-3.004000	3.719000	-11.171000	24.214253	0.001074	20.789356
730.221357	-2.968500	3.720500	-11.042000	24.199994	0.001074	20.804926
731.219116	-2.989500	3.720000	-11.119000	24.207860	0.001074	20.794324
732.220572	-3.002300	3.718500	-11.163000	24.215026	0.001073	20.817158
733.221435	-3.027300	3.716900	-11.250000	24.233614	0.001073	20.798820
734.224577	-3.003800	3.718600	-11.169000	24.196917	0.001071	20.809426
735.220842	-3.004500	3.719200	-11.173000	24.218015	0.001070	20.788862
736.220183	-3.011300	3.717700	-11.194000	24.206547	0.001072	20.788739
737.216917	-2.988700	3.718400	-11.112000	24.153476	0.001068	20.808528
738.222989	-3.025000	3.716700	-11.241000	24.135784	0.001070	20.788413
739.220663	-2.999800	3.716900	-11.149000	24.114090	0.001070	20.801268
740.223396	-3.005100	3.716400	-11.167000	24.082859	0.001071	20.791283
741.224295	-2.987100	3.715800	-11.099000	24.074647	0.001071	20.788737
742.221226	-3.016400	3.715100	-11.205000	24.063626	0.001071	20.803762
743.225543	-3.016300	3.715300	-11.206000	24.076416	0.001068	20.793355
744.224813	-2.987900	3.715100	-11.099000	24.076936	0.001069	20.786291
745.225780	-3.009800	3.714900	-11.179000	24.086714	0.001069	20.800365
746.222939	-3.038400	3.713100	-11.281000	24.091614	0.001067	20.813340
747.225862	-2.973300	3.716100	-11.048000	24.096467	0.001069	20.796870
748.226587	-2.992500	3.713900	-11.113000	24.083998	0.001070	20.801908
749.223066	-2.990900	3.714700	-11.109000	24.071755	0.001068	20.800535
750.225618	-2.992800	3.713900	-11.114000	24.133413	0.001069	20.782716
751.231324	-3.007900	3.714100	-11.171000	24.131299	0.001067	20.786760
752.229772	-3.001500	3.712900	-11.143000	24.140154	0.001066	20.789477
753.226270	-2.995800	3.714200	-11.126000	24.155182	0.001068	20.770884
754.225728	-2.999400	3.712800	-11.135000	24.143290	0.001067	20.798787
755.236227	-3.004400	3.712600	-11.153000	24.143911	0.001069	20.790400
756.231700	-3.002500	3.711200	-11.142000	24.173669	0.001067	20.790375
757.231469	-2.989400	3.711800	-11.095000	24.174266	0.001068	20.811837
758.240919	-3.004400	3.711500	-11.150000	24.196432	0.001068	20.794241
759.242711	-3.014600	3.710500	-11.183000	24.184216	0.001068	20.797161
760.225737	-2.977200	3.712900	-11.051000	24.187951	0.001068	20.793320
761.229726	-3.005400	3.710000	-11.148000	24.191507	0.001067	20.795939
762.231473	-3.019100	3.711500	-11.204000	24.197878	0.001067	20.800433
763.230192	-3.015800	3.710900	-11.190000	24.208228	0.001068	20.802279
764.232903	-2.996200	3.710500	-11.116000	24.225173	0.001065	20.799836
765.232480	-3.014800	3.710500	-11.185000	24.231991	0.001065	20.820899
766.231086	-2.999100	3.709600	-11.124000	24.231543	0.001066	20.807174
767.231797	-3.013500	3.710500	-11.181000	24.243611	0.001066	20.798890
768.232204	-3.004200	3.709100	-11.142000	24.248739	0.001067	20.792179
769.230662	-3.006200	3.709500	-11.150000	24.250504	0.001063	20.807226
770.237616	-3.008400	3.708100	-11.153000	24.243736	0.001065	20.794274
771.233407	-3.000500	3.707900	-11.125000	24.212792	0.001066	20.800694
772.232898	-3.012300	3.707600	-11.168000	24.180324	0.001063	20.812224
773.229503	-2.993100	3.708500	-11.099000	24.187863	0.001063	20.799397
774.232198	-3.014200	3.707000	-11.173000	24.173183	0.001063	20.789414
775.233017	-3.005600	3.706900	-11.140000	24.201897	0.001062	20.798774
776.235855	-3.004100	3.707000	-11.135000	24.202745	0.001062	20.814323
777.234082	-2.983400	3.707800	-11.061000	24.197198	0.001062	20.801173
778.233968	-2.987200	3.707000	-11.073000	24.203718	0.001063	20.790169
779.234618	-3.019000	3.704900	-11.185000	24.231884	0.001062	20.796135
780.240511	-2.986000	3.707500	-11.069000	24.271218	0.001061	20.803348
781.238719	-3.001400	3.706100	-11.122000	24.283558	0.001060	20.790596
782.232978	-3.010500	3.704600	-11.151000	24.302343	0.001061	20.820819
783.232628	-3.011800	3.704500	-11.155000	24.316873	0.001060	20.820221
784.234855	-2.980500	3.704200	-11.039000	24.327300	0.001060	20.792748
785.236641	-2.984900	3.704300	-11.056000	24.310158	0.001060	20.789778
786.240464	-2.990200	3.705300	-11.079000	24.315658	0.001061	20.814261
787.236748	-2.993900	3.703000	-11.085000	24.307625	0.001060	20.819005
788.238835	-2.988100	3.702800	-11.064000	24.293767	0.001061	20.806052
789.241156	-2.984400	3.703400	-11.052000	24.311284	0.001059	20.823623
790.240069	-2.996400	3.702900	-11.095000	24.338104	0.001059	20.811647
791.235462	-2.969400	3.703800	-10.997000	24.326089	0.001058	20.796750
792.238796	-3.017200	3.702500	-11.170000	24.343428	0.001058	20.809876
793.239767	-2.989900	3.701600	-11.066000	24.307235	0.001059	20.805338
794.238316	-2.989100	3.703900	-11.069000	24.343033	0.001059	20.797152
795.238586	-2.992300	3.702100	-11.076000	24.315968	0.001059	20.806986
796.238018	-2.988600	3.702000	-11.063000	24.322886	0.001058	20.792114
797.239944	-3.007200	3.699600	-11.124000	24.346544	0.001057	20.808734
798.237969	-3.002400	3.700600	-11.110000	24.332639	0.001056	20.809010
799.237921	-3.004100	3.700100	-11.114000	24.317639	0.001057	20.825731
800.234439	-2.993200	3.701100	-11.077000	24.284949	0.001058	20.808586
801.235784	-3.010700	3.699800	-11.137000	24.310824	0.001056	20.815102
802.241318	-2.987000	3.700700	-11.053000	24.293335	0.001055	20.828378
803.237773	-3.017900	3.698800	-11.161000	24.300775	0.001056	20.808341
804.238223	-2.993500	3.698900	-11.071000	24.299560	0.001057	20.830829
805.241391	-2.987600	3.699600	-11.052000	24.290476	0.001055	20.811760
806.237924	-3.000500	3.699000	-11.097000	24.278859	0.001055	20.792521
807.235981	-2.996000	3.698800	-11.081000	24.288165	0.001055	20.813709
808.239000	-3.011800	3.698300	-11.138000	24.298787	0.001054	20.823416
809.237361	-2.994400	3.697800	-11.072000	24.293090	0.001054	20.816278
810.236783	-2.994000	3.698900	-11.073000	24.309684	0.001053	20.816329
811.239305	-3.012000	3.697200	-11.134000	24.295328	0.001055	20.834170
812.238407	-2.998500	3.697600	-11.086000	24.309334	0.001052	20.829727
813.237686	-3.009300	3.697000	-11.125000	24.297642	0.001052	20.824637
814.237453	-3.014600	3.697600	-11.146000	24.319235	0.001051	20.820219
815.240594	-2.972300	3.698700	-10.991000	24.325279	0.001050	20.818697
816.240727	-3.017300	3.697600	-11.156000	24.350081	0.001051	20.833144
817.240772	-2.980400	3.697300	-11.018000	24.308956	0.001051	20.821288
818.245901	-2.991100	3.696400	-11.055000	24.321941	0.001051	20.821985
819.237633	-2.999900	3.697100	-11.090000	24.324229	0.001051	20.820962
820.240345	-3.001300	3.695800	-11.091000	24.304521	0.001050	20.842444
821.241898	-3.020900	3.696100	-11.164000	24.303949	0.001052	20.832386
822.246191	-2.992000	3.695700	-11.056000	24.306112	0.001049	20.809427
823.243095	-2.995700	3.694900	-11.068000	24.284814	0.001050	20.825994
824.246237	-3.018100	3.693600	-11.147000	24.270283	0.001051	20.831807
825.239504	-3.014800	3.693800	-11.136000	24.300062	0.001050	20.820901
826.241913	-2.989600	3.695200	-11.046000	24.306229	0.001050	20.806700
827.256843	-3.011400	3.694500	-11.125000	24.308943	0.001051	20.824594
828.238443	-2.997000	3.692800	-11.066000	24.307397	0.001049	20.828259
829.242690	-2.997200	3.693500	-11.069000	24.279832	0.001050	20.831902
830.243456	-2.990700	3.692700	-11.042000	24.267592	0.001051	20.827211
831.244889	-3.017000	3.692300	-11.138000	24.257812	0.001050	20.810290
832.242157	-3.002500	3.692700	-11.087000	24.271221	0.001049	20.835592
833.241449	-3.005500	3.692300	-11.097000	24.274454	0.001049	20.843103
834.250407	-2.993900	3.692400	-11.054000	24.284556	0.001049	20.829529
835.252983	-3.005300	3.691900	-11.094000	24.300202	0.001048	20.819619
836.246211	-2.974400	3.692000	-10.980000	24.297566	0.001048	20.825036
837.251058	-2.991800	3.691800	-11.044000	24.305029	0.001048	20.812133
838.246095	-2.992400	3.692100	-11.047000	24.329733	0.001047	20.807517
839.247319	-3.013100	3.690700	-11.119000	24.341697	0.001046	20.818097
840.254632	-3.005400	3.690500	-11.089000	24.359908	0.001046	20.834942
841.248999	-3.027800	3.688600	-11.167000	24.392716	0.001045	20.825655
842.251296	-3.015800	3.690000	-11.127000	24.401224	0.001048	20.835138
843.246094	-3.015600	3.688800	-11.123000	24.367096	0.001045	20.838359
844.245924	-3.000600	3.688700	-11.068000	24.374133	0.001045	20.847315
845.247136	-3.009000	3.690100	-11.102000	24.377814	0.001046	20.831094
846.254142	-3.007700	3.688600	-11.093000	24.384209	0.001045	20.826129
847.250180	-3.013200	3.687800	-11.111000	24.415703	0.001047	20.841129
848.248971	-3.009600	3.686500	-11.094000	24.427816	0.001046	20.829100
849.254941	-2.990800	3.690000	-11.034000	24.433115	0.001044	20.821614
850.255068	-3.003700	3.688000	-11.076000	24.458636	0.001043	20.840579
851.251300	-3.012800	3.686600	-11.105000	24.467916	0.001045	20.836613
852.247982	-3.001500	3.687300	-11.066000	24.479606	0.001045	20.835539
853.258374	-2.999800	3.686100	-11.056000	24.495700	0.001045	20.811857
854.250630	-3.022300	3.684900	-11.136000	24.503711	0.001044	20.826533
855.250033	-2.996200	3.686700	-11.045000	24.523338	0.001042	20.826784
856.257894	-2.997800	3.686900	-11.049000	24.501623	0.001044	20.833921
857.251369	-3.008400	3.685700	-11.086000	24.480134	0.001044	20.822319
858.251796	-3.004400	3.685400	-11.071000	24.467399	0.001042	20.831827
859.255310	-2.994300	3.684900	-11.033000	24.447001	0.001042	20.839338
860.253091	-2.978200	3.684300	-10.971000	24.449214	0.001042	20.846773
861.249187	-3.034800	3.683300	-11.176000	24.452130	0.001042	20.829785
862.251371	-2.984600	3.684400	-10.996000	24.462380	0.001043	20.850025
863.254151	-2.990900	3.684800	-11.020000	24.468449	0.001042	20.853268
864.254648	-2.985500	3.683600	-10.996000	24.503822	0.001043	20.834230
865.255657	-2.990200	3.685700	-11.020000	24.521507	0.001044	20.857189
866.256070	-3.014600	3.683200	-11.102000	24.530139	0.001042	20.857315
867.264694	-3.011900	3.681800	-11.087000	24.510490	0.001041	20.844714
868.254502	-3.013400	3.681900	-11.094000	24.492362	0.001040	20.857819
869.256132	-3.010900	3.681900	-11.084000	24.455154	0.001038	20.857473
870.253329	-3.010700	3.682700	-11.087000	24.480349	0.001038	20.849561
871.257122	-3.004400	3.681700	-11.060000	24.495998	0.001039	20.862889
872.261562	-2.997700	3.681600	-11.036000	24.514106	0.001036	20.877737
873.258323	-3.028200	3.680600	-11.143000	24.524528	0.001037	20.856901
874.257282	-2.994200	3.681500	-11.022000	24.551518	0.001041	20.856954
875.259126	-2.997300	3.682200	-11.035000	24.573059	0.001036	20.856756
876.257415	-3.008000	3.680400	-11.070000	24.563460	0.001037	20.866090
877.254871	-3.027200	3.680300	-11.140000	24.557394	0.001035	20.851470
878.257854	-3.008100	3.680200	-11.068000	24.531800	0.001035	20.864670
879.258397	-2.998600	3.680100	-11.034000	24.545357	0.001038	20.855040
880.263430	-3.007200	3.679400	-11.064000	24.539241	0.001036	20.874507
881.257492	-3.010600	3.679700	-11.077000	24.569286	0.001034	20.866720
882.258563	-3.015500	3.677700	-11.088000	24.556679	0.001035	20.850279
883.258371	-2.991500	3.680500	-11.008000	24.552926	0.001035	20.848884
884.256103	-3.007300	3.679600	-11.065000	24.565166	0.001033	20.865431
885.259447	-3.007600	3.679200	-11.064000	24.570764	0.001033	20.863462
886.254413	-3.015800	3.678600	-11.091000	24.582358	0.001034	20.845698
887.257529	-2.987200	3.678100	-10.986000	24.571039	0.001034	20.868953
888.256059	-3.015300	3.677500	-11.088000	24.577382	0.001031	20.872473
889.254619	-3.010100	3.676200	-11.065000	24.555722	0.001032	20.876344
890.255789	-2.998600	3.677300	-11.026000	24.578458	0.001033	20.880664
891.256195	-2.999300	3.676800	-11.027000	24.530183	0.001033	20.873479
892.255322	-3.010300	3.676700	-11.067000	24.502876	0.001033	20.869789
893.257218	-3.008900	3.676200	-11.060000	24.496779	0.001032	20.878845
894.258754	-2.989700	3.675700	-10.988000	24.476113	0.001032	20.860008
895.258098	-2.999700	3.675000	-11.023000	24.482732	0.001031	20.869493
896.261353	-3.003500	3.673800	-11.033000	24.451617	0.001030	20.888536
897.255822	-2.983000	3.677000	-10.967000	24.467413	0.001030	20.875936
898.256653	-3.005800	3.673800	-11.041000	24.501116	0.001030	20.873239
899.259618	-3.021400	3.674000	-11.099000	24.474255	0.001031	20.869524
900.259422	-2.983700	3.675000	-10.964000	24.468859	0.001029	20.873593
901.259394	-2.994300	3.675900	-11.006000	24.483562	0.001031	20.876490
902.260129	-2.998400	3.674900	-11.018000	24.511696	0.001029	20.863466
903.259909	-2.979100	3.673700	-10.944000	24.503339	0.001028	20.877840
904.257012	-2.996000	3.673800	-11.006000	24.500034	0.001029	20.863145
905.256494	-2.958500	3.674800	-10.870000	24.500584	0.001029	20.864171
906.268842	-3.003800	3.673900	-11.034000	24.473521	0.001030	20.901501
907.259106	-3.006800	3.673800	-11.045000	24.486284	0.001028	20.872583
908.264252	-3.021900	3.672100	-11.095000	24.483103	0.001027	20.897839
909.268359	-2.990400	3.672900	-10.982000	24.507183	0.001027	20.888809
910.260370	-3.005800	3.671600	-11.035000	24.520216	0.001028	20.883393
911.263249	-3.012000	3.671600	-11.058000	24.526710	0.001028	20.884692
912.261090	-2.994800	3.673200	-10.999000	24.548051	0.001028	20.876233
913.260210	-2.997000	3.671400	-11.001000	24.588247	0.001027	20.879580
914.260077	-3.007500	3.670100	-11.037000	24.614887	0.001024	20.900619
915.262731	-2.974800	3.671200	-10.920000	24.638239	0.001025	20.904136
916.262168	-2.999600	3.671100	-11.011000	24.600638	0.001026	20.885375
917.264833	-3.009400	3.670600	-11.045000	24.639165	0.001023	20.908384
918.265575	-3.013200	3.669000	-11.055000	24.626531	0.001026	20.899975
919.265347	-2.999000	3.668600	-11.002000	24.620686	0.001025	20.911178
920.262914	-3.011400	3.670100	-11.050000	24.626981	0.001022	20.911805
921.264280	-3.001200	3.667600	-11.005000	24.626409	0.001023	20.910757
922.261391	-2.992500	3.670200	-10.982000	24.622406	0.001022	20.903422
923.261224	-3.026500	3.667200	-11.099000	24.607560	0.001022	20.916025
924.261282	-2.989100	3.668900	-10.966000	24.596989	0.001022	20.903048
925.261674	-3.005200	3.669000	-11.025000	24.601169	0.001020	20.927155
926.261092	-3.009900	3.667500	-11.038000	24.634520	0.001021	20.897086
927.265422	-3.001200	3.667400	-11.005000	24.647556	0.001021	20.907321
928.266579	-2.977600	3.668000	-10.921000	24.666407	0.001021	20.915805
929.265301	-3.003600	3.665900	-11.009000	24.665512	0.001020	20.907321
930.266938	-3.012600	3.665900	-11.043000	24.679588	0.001020	20.915280
931.266960	-3.002000	3.666800	-11.006000	24.658252	0.001021	20.919001
932.267047	-3.013200	3.665700	-11.045000	24.617864	0.001018	20.890331
933.271135	-2.980300	3.667000	-10.927000	24.595854	0.001020	20.907126
934.267890	-2.997700	3.666100	-10.989000	24.584910	0.001020	20.919377
935.271461	-3.001600	3.666300	-11.003000	24.588243	0.001021	20.907549
936.270251	-3.002900	3.665200	-11.004000	24.616274	0.001016	20.911967
937.265732	-2.982800	3.664700	-10.931000	24.664200	0.001018	20.902686
938.267744	-3.017200	3.663900	-11.054000	24.646892	0.001017	20.927515
939.272596	-3.000700	3.664600	-10.995000	24.663633	0.001019	20.911599
940.267154	-2.980300	3.666100	-10.925000	24.663113	0.001019	20.907758
941.270137	-2.987800	3.663600	-10.945000	24.689972	0.001017	20.916691
942.269203	-2.999400	3.664100	-10.990000	24.687856	0.001017	20.912198
943.268793	-3.006500	3.664000	-11.015000	24.669309	0.001016	20.903544
944.274889	-3.013100	3.664900	-11.041000	24.651080	0.001015	20.909909
945.269862	-3.021600	3.663400	-11.069000	24.610120	0.001016	20.938031
946.269779	-3.009300	3.662900	-11.021000	24.636012	0.001017	20.914229
947.273190	-2.999900	3.663800	-10.990000	24.657576	0.001014	20.925908
948.275771	-3.000300	3.662800	-10.989000	24.656159	0.001015	20.935390
949.274391	-2.992400	3.661700	-10.955000	24.673970	0.001016	20.916755
950.273719	-3.009200	3.660600	-11.015000	24.711521	0.001015	20.907496
951.275625	-3.011700	3.660000	-11.022000	24.686531	0.001016	20.928410
952.277628	-2.985500	3.663000	-10.935000	24.696729	0.001011	20.913515
953.276843	-3.009400	3.660200	-11.014000	24.713742	0.001012	20.936748
954.273352	-2.980100	3.660800	-10.909000	24.699169	0.001013	20.942987
955.274738	-3.022700	3.660000	-11.062000	24.681191	0.001012	20.917837
956.271812	-3.010000	3.659700	-11.014000	24.683159	0.001011	20.936405
957.273618	-2.990300	3.660400	-10.945000	24.680596	0.001010	20.933360
958.276767	-3.010400	3.659600	-11.016000	24.667916	0.001012	20.934386
959.278156	-3.002400	3.660300	-10.988000	24.686867	0.001010	20.936333
960.284258	-3.007000	3.659000	-11.001000	24.689527	0.001010	20.939476
961.279139	-3.013500	3.659700	-11.028000	24.651156	0.001010	20.937482
962.279546	-2.994700	3.658300	-10.953000	24.654413	0.001009	20.945491
963.277167	-2.997900	3.658400	-10.967000	24.676372	0.001010	20.940974
964.278387	-2.999900	3.658400	-10.974000	24.683660	0.001008	20.934063
965.281456	-3.001600	3.657000	-10.976000	24.718103	0.001009	20.929746
966.276441	-2.979800	3.659400	-10.902000	24.694950	0.001009	20.939702
967.306662	-2.999100	3.657700	-10.969000	24.680027	0.001009	20.927099
968.276550	-3.008000	3.656000	-10.996000	24.669409	0.001009	20.941573
969.278347	-3.005300	3.657500	-10.991000	24.678709	0.001009	20.945215
970.282551	-2.996100	3.656200	-10.953000	24.672119	0.001008	20.940974
971.286270	-2.997800	3.656000	-10.958000	24.708080	0.001006	20.941024
972.286471	-2.995400	3.656100	-10.950000	24.732325	0.001006	20.953498
973.282306	-2.979600	3.657100	-10.895000	24.763509	0.001006	20.959661
974.284846	-2.986800	3.656100	-10.919000	24.776438	0.001007	20.953671
975.284549	-2.982500	3.655800	-10.901000	24.798022	0.001006	20.971061
976.283105	-2.995200	3.656000	-10.949000	24.793028	0.001003	20.948509
977.284830	-3.004800	3.655300	-10.982000	24.781810	0.001005	20.956217
978.282523	-3.004800	3.654400	-10.979000	24.792205	0.001002	20.942942
979.282789	-2.997900	3.654600	-10.954000	24.786935	0.001003	20.970841
980.286270	-2.974000	3.654300	-10.867000	24.782683	0.001005	20.971789
981.288277	-2.991400	3.653700	-10.929000	24.774279	0.001003	20.954823
982.285209	-3.005900	3.653500	-10.981000	24.763981	0.001002	20.954446
983.289316	-3.026700	3.651000	-11.048000	24.757119	0.001004	20.957991
984.284891	-3.001900	3.652400	-10.962000	24.739687	0.001003	20.944292
985.284801	-2.987800	3.654100	-10.917000	24.718650	0.001000	20.970593
986.282686	-2.998300	3.653200	-10.952000	24.731383	0.001002	20.955397
987.284336	-2.984400	3.653300	-10.901000	24.718453	0.001002	20.935786
988.283550	-2.997200	3.651800	-10.943000	24.724001	0.001000	20.981176
989.284063	-2.979100	3.651500	-10.876000	24.711916	0.001001	20.970473
990.286188	-3.016700	3.652000	-11.014000	24.714278	0.000999	20.967155
991.287121	-2.997000	3.650900	-10.941000	24.716343	0.001000	20.964486
992.282422	-3.013800	3.650800	-11.001000	24.703986	0.000999	20.952087
993.285744	-2.998200	3.649700	-10.942000	24.713758	0.000999	20.968529
994.283606	-3.000600	3.649900	-10.951000	24.707494	0.000996	20.965562
995.282378	-3.005200	3.649300	-10.966000	24.735819	0.000997	20.962219
996.286545	-3.001900	3.648300	-10.950000	24.768567	0.000996	20.944351
997.313616	-3.004100	3.648700	-10.960000	24.776377	0.000998	20.975418
998.285151	-2.994700	3.648900	-10.925000	24.776227	0.000994	20.931651
999.288018	-2.992400	3.647700	-10.914000	24.797166	0.000996	20.977314
1000.289321	-3.011800	3.648300	-10.987000	24.816662	0.000995	20.965587
1001.285146	-2.998300	3.649000	-10.940000	24.855175	0.000995	20.957773
1002.287130	-3.021800	3.647300	-11.020000	24.848411	0.000995	20.965208
1003.285745	-3.004700	3.648900	-10.962000	24.842344	0.000992	20.954379
1004.287234	-3.021000	3.647000	-11.016000	24.844753	0.000993	20.939730
1005.292102	-2.958000	3.649000	-10.792000	24.857932	0.000993	20.956273
1006.290022	-3.018400	3.645700	-11.003000	24.857954	0.000993	20.962458
1007.286385	-2.981200	3.647400	-10.872000	24.882095	0.000990	20.949705
1008.289119	-2.976800	3.645900	-10.851000	24.888162	0.000992	20.949156
1009.303738	-2.986600	3.647100	-10.892000	24.885572	0.000991	20.940868
1010.289179	-2.984900	3.645600	-10.882000	24.858915	0.000991	20.944934
1011.298670	-2.989100	3.646600	-10.899000	24.885691	0.000990	20.953314
1012.292663	-2.990600	3.644500	-10.898000	24.892925	0.000989	20.959151
1013.291970	-3.014700	3.644600	-10.986000	24.889790	0.000988	20.953160
1014.287372	-2.991600	3.645200	-10.904000	24.903488	0.000989	20.937038
1015.291471	-3.003700	3.644400	-10.946000	24.885633	0.000989	20.949937
1016.289859	-3.009500	3.645900	-10.972000	24.868100	0.000990	20.927127
1017.290557	-3.007500	3.643800	-10.958000	24.866560	0.000986	20.967302
1018.292015	-3.021000	3.643600	-11.005000	24.864490	0.000986	20.926349
1019.289026	-3.004000	3.644300	-10.946000	24.858521	0.000989	20.954493
1020.289818	-2.998500	3.644400	-10.926000	24.860727	0.000985	20.912143
1021.290884	-2.995400	3.644700	-10.916000	24.808383	0.000987	20.940686
1022.288716	-3.005400	3.642800	-10.947000	24.777745	0.000985	20.911839
1023.290309	-3.015000	3.641100	-10.977000	24.767447	0.000986	20.907669
1024.293703	-2.999000	3.642400	-10.923000	24.770304	0.000984	20.926656
1025.292769	-3.011000	3.640600	-10.960000	24.713973	0.000985	20.936980
1026.295089	-2.992300	3.642300	-10.897000	24.706982	0.000985	20.929492
1027.290676	-2.990200	3.641500	-10.887000	24.707027	0.000985	20.913418
1028.297134	-3.012700	3.640000	-10.965000	24.701007	0.000982	20.921126
1029.295619	-2.990600	3.641000	-10.888000	24.685261	0.000983	20.924766
1030.296377	-3.002700	3.640900	-10.932000	24.690006	0.000985	20.917674
1031.295929	-2.971200	3.641400	-10.818000	24.711341	0.000983	20.918695
1032.295596	-2.985600	3.639000	-10.865000	24.696766	0.000983	20.917345
1033.296902	-3.026800	3.638000	-11.009000	24.665352	0.000982	20.908582
1034.306400	-3.017000	3.639300	-10.978000	24.683727	0.000982	20.905211
1035.298578	-3.011000	3.638800	-10.955000	24.690485	0.000981	20.893026
1036.295454	-3.020200	3.639300	-10.991000	24.714905	0.000982	20.932227
1037.300455	-2.985200	3.639600	-10.863000	24.729497	0.000982	20.905621
1038.297570	-2.998300	3.638500	-10.908000	24.762719	0.000981	20.915726
1039.299197	-3.009300	3.638400	-10.947000	24.780318	0.000980	20.900197
1040.300754	-2.975200	3.639700	-10.826000	24.818285	0.000982	20.907954
1041.295941	-2.995000	3.637000	-10.891000	24.829049	0.000980	20.918755
1042.299475	-3.017400	3.636100	-10.971000	24.818702	0.000981	20.909321
1043.301347	-2.996200	3.636500	-10.894000	24.793531	0.000980	20.902552
1044.298922	-3.012000	3.636700	-10.952000	24.785844	0.000979	20.907639
1045.297334	-3.013300	3.636200	-10.955000	24.780319	0.000980	20.894036
1046.298435	-3.004200	3.636800	-10.923000	24.753135	0.000979	20.899946
1047.297024	-2.998700	3.636900	-10.904000	24.739528	0.000981	20.896722
1048.299223	-3.012300	3.634400	-10.946000	24.699413	0.000980	20.888710
1049.301106	-2.988600	3.636600	-10.868000	24.708213	0.000979	20.909867
1050.302411	-3.004200	3.636100	-10.922000	24.728155	0.000977	20.888155
1051.299334	-3.001600	3.634500	-10.907000	24.749735	0.000977	20.888000
1052.297997	-3.015300	3.634500	-10.958000	24.753765	0.000977	20.906741
1053.303845	-2.987100	3.634800	-10.857000	24.779101	0.000976	20.867211
1054.297904	-3.027300	3.633300	-10.997000	24.809062	0.000977	20.886371
1055.301567	-2.987300	3.634200	-10.855000	24.826145	0.000978	20.872223
1056.303254	-2.983500	3.633500	-10.839000	24.824948	0.000975	20.859642
1057.301857	-3.010500	3.632400	-10.934000	24.862868	0.000974	20.880629
1058.306137	-3.002100	3.633100	-10.906000	24.858342	0.000976	20.883672
1059.306924	-3.017200	3.632800	-10.959000	24.861871	0.000974	20.882473
1060.303268	-3.003200	3.632400	-10.908000	24.849785	0.000975	20.870818
1061.309071	-2.987200	3.631400	-10.847000	24.875419	0.000976	20.888958
1062.308268	-3.002600	3.630300	-10.899000	24.904785	0.000975	20.883344
1063.302822	-2.988400	3.631900	-10.852000	24.937778	0.000973	20.874734
1064.306891	-2.993600	3.632800	-10.873000	24.943570	0.000973	20.865849
1065.316822	-2.993800	3.631000	-10.869000	24.917985	0.000971	20.877627
1066.311314	-3.002000	3.629400	-10.894000	24.915523	0.000974	20.871363
1067.303333	-2.976500	3.631200	-10.807000	24.897398	0.000972	20.868345
1068.339950	-3.011700	3.629500	-10.929000	24.911296	0.000973	20.867121
1069.304270	-2.992300	3.629300	-10.859000	24.883820	0.000972	20.895018
1070.304853	-2.995900	3.630400	-10.875000	24.907267	0.000971	20.862603
1071.307390	-3.021800	3.628000	-10.962000	24.897073	0.000969	20.868493
1072.309207	-3.006100	3.629600	-10.910000	24.929373	0.000971	20.881470
1073.309425	-2.990800	3.629200	-10.853000	24.961868	0.000972	20.883740
1074.305660	-3.018700	3.628800	-10.954000	24.936681	0.000968	20.871262
1075.305712	-2.999600	3.628500	-10.883000	24.956647	0.000970	20.876603
1076.305387	-2.994600	3.628800	-10.866000	25.001674	0.000972	20.853996
1077.305986	-3.007400	3.627400	-10.908000	25.005105	0.000968	20.889206
1078.310070	-2.990600	3.627400	-10.847000	24.985140	0.000968	20.862056
1079.306002	-2.990500	3.627300	-10.846000	24.988250	0.000970	20.877029
1080.306005	-2.992800	3.626700	-10.854000	24.975573	0.000969	20.864306
1081.313231	-2.997900	3.627300	-10.874000	24.959511	0.000968	20.860513
1082.307810	-2.989000	3.627400	-10.841000	24.958467	0.000965	20.877007
1083.315328	-3.002100	3.626700	-10.886000	24.947704	0.000967	20.866205
1084.310328	-2.998100	3.625300	-10.868000	24.965333	0.000966	20.883424
1085.306334	-2.992700	3.626100	-10.851000	24.940595	0.000965	20.881354
1086.313331	-3.021600	3.624900	-10.952000	24.952955	0.000965	20.871476
1087.310714	-3.006100	3.625900	-10.899000	24.979759	0.000965	20.866137
1088.321716	-3.005000	3.624200	-10.890000	24.963723	0.000965	20.860947
1089.309715	-2.996100	3.625600	-10.860000	24.972304	0.000965	20.870033
1090.318029	-3.007800	3.624200	-10.900000	24.950848	0.000962	20.872206
1091.308583	-2.996500	3.624200	-10.859000	24.945555	0.000960	20.873056
1092.308366	-3.009500	3.623000	-10.902000	24.934617	0.000961	20.850225
1093.317448	-3.007700	3.624500	-10.900000	24.938446	0.000961	20.852172
1094.308665	-3.015900	3.622300	-10.924000	24.925469	0.000960	20.875655
1095.309768	-2.989600	3.623700	-10.833000	24.920147	0.000961	20.861780
1096.313916	-3.005000	3.622200	-10.884000	24.934122	0.000959	20.869642
1097.309940	-3.026100	3.623600	-10.964000	24.960674	0.000958	20.849352
1098.309642	-3.006000	3.621600	-10.885000	24.980939	0.000959	20.877278
1099.309769	-3.004000	3.622500	-10.880000	24.986980	0.000959	20.849678
1100.313910	-2.993200	3.623300	-10.844000	24.979200	0.000958	20.877429
1101.314909	-2.985800	3.621400	-10.811000	25.022658	0.000957	20.879799
1102.321242	-2.986000	3.621000	-10.810000	25.003789	0.000956	20.858963
1103.312151	-2.998000	3.621900	-10.858000	25.021266	0.000957	20.846635
1104.321904	-3.034900	3.618700	-10.981000	25.019797	0.000956	20.871237
1105.326713	-3.007300	3.621000	-10.889000	25.008985	0.000955	20.876031
1106.312010	-2.998700	3.619500	-10.853000	24.986133	0.000954	20.860681
1107.319300	-3.010100	3.619300	-10.892000	24.991852	0.000955	20.859309
1108.312672	-3.000600	3.620200	-10.861000	24.975096	0.000950	20.865249
1109.324881	-3.013500	3.618700	-10.904000	24.997198	0.000954	20.855667
1110.322397	-3.006800	3.619200	-10.881000	25.011741	0.000953	20.854144
1111.314802	-3.006900	3.619100	-10.879000	25.023576	0.000954	20.857488
1112.315130	-3.003800	3.617900	-10.866000	25.036255	0.000954	20.868792
1113.320228	-2.983100	3.618000	-10.791000	25.039961	0.000954	20.856392
1114.324228	-3.001300	3.617300	-10.856000	25.038022	0.000952	20.861557
1115.333569	-2.982700	3.616800	-10.786000	25.039191	0.000952	20.851352
1116.316222	-2.989100	3.617800	-10.813000	25.083317	0.000953	20.863877
1117.315515	-3.028800	3.615600	-10.950000	25.079094	0.000950	20.845888
1118.318195	-2.993400	3.616700	-10.826000	25.089835	0.000950	20.866627
1119.318332	-2.976800	3.616900	-10.766000	25.071961	0.000950	20.857694
1120.316533	-3.004400	3.615100	-10.859000	25.054904	0.000950	20.855270
1121.317531	-3.011400	3.616400	-10.889000	24.983606	0.000947	20.845344
1122.321532	-2.992300	3.616000	-10.820000	24.980494	0.000948	20.861660
1123.320460	-2.994100	3.615100	-10.823000	24.970577	0.000949	20.846016
1124.318383	-2.988500	3.615100	-10.803000	25.007323	0.000946	20.852553
1125.323346	-3.010000	3.613500	-10.875000	24.999020	0.000945	20.848961
1126.321039	-3.005700	3.613800	-10.861000	24.997705	0.000945	20.860917
1127.322124	-3.007600	3.613400	-10.866000	25.012994	0.000943	20.876736
1128.325013	-2.988200	3.613500	-10.797000	25.020674	0.000944	20.855050
1129.320110	-2.978100	3.614800	-10.763000	25.026468	0.000945	20.860390
1130.320217	-2.979100	3.613000	-10.762000	25.018412	0.000944	20.836659
1131.323402	-3.025900	3.612100	-10.929000	24.974503	0.000942	20.863707
1132.320946	-2.988500	3.612600	-10.795000	25.000162	0.000941	20.853901
1133.322382	-2.998200	3.611900	-10.828000	24.997080	0.000941	20.832316
1134.321318	-2.990000	3.611900	-10.798000	24.990662	0.000942	20.844365
1135.325759	-3.003800	3.610700	-10.845000	25.040361	0.000940	20.822181
1136.323559	-2.997000	3.612300	-10.825000	25.049631	0.000941	20.838598
1137.322910	-3.003300	3.610700	-10.843000	25.032951	0.000940	20.855519
1138.327388	-2.999700	3.610000	-10.828000	25.002939	0.000939	20.831084
1139.328425	-2.995500	3.610600	-10.814000	24.974496	0.000938	20.850898
1140.321378	-2.991700	3.610900	-10.801000	24.997513	0.000939	20.844129
1141.331553	-2.994400	3.611300	-10.812000	24.975013	0.000937	20.840038
1142.320934	-2.992400	3.609600	-10.800000	24.951068	0.000937	20.843030
1143.325026	-3.001100	3.608800	-10.829000	24.969417	0.000934	20.830153
1144.329219	-2.982000	3.607700	-10.758000	24.965858	0.000936	20.839383
1145.326077	-2.983500	3.608100	-10.764000	24.985718	0.000935	20.827549
1146.325664	-3.007000	3.608300	-10.849000	24.957374	0.000935	20.826601
1147.328410	-3.011300	3.606100	-10.858000	24.977635	0.000934	20.837928
1148.331323	-2.988500	3.607600	-10.780000	25.020569	0.000934	20.850202
1149.326657	-3.015300	3.606200	-10.873000	25.042767	0.000933	20.809424
1150.334815	-2.985400	3.607000	-10.767000	25.051812	0.000930	20.806649
1151.329418	-2.981000	3.606800	-10.751000	25.043035	0.000931	20.831029
1152.329979	-2.995800	3.606300	-10.802000	25.074233	0.000932	20.820620
1153.333936	-3.006100	3.605500	-10.837000	25.074230	0.000929	20.820144
1154.330722	-3.004400	3.605700	-10.831000	25.071616	0.000930	20.807088
1155.332571	-2.997400	3.606600	-10.810000	25.099059	0.000930	20.831792
1156.332487	-3.021600	3.604700	-10.891000	25.070292	0.000930	20.811449
1157.328990	-2.993800	3.605100	-10.792000	25.088091	0.000928	20.822678
1158.329762	-2.982000	3.605100	-10.749000	25.078814	0.000928	20.836598
1159.333060	-3.017300	3.605200	-10.877000	25.096935	0.000928	20.838194
1160.332814	-3.011000	3.604500	-10.852000	25.074483	0.000928	20.825613
1161.335354	-2.994500	3.603500	-10.790000	25.087684	0.000929	20.826062
1162.333609	-3.008800	3.602800	-10.840000	25.042733	0.000927	20.810812
1163.333996	-2.995400	3.603500	-10.793000	25.068710	0.000927	20.813654
1164.332281	-3.012800	3.602200	-10.852000	25.046085	0.000928	20.824133
1165.337292	-3.001800	3.601700	-10.811000	25.020672	0.000926	20.817591
1166.330156	-2.987800	3.602700	-10.763000	25.001975	0.000927	20.820634
1167.335166	-2.985200	3.602000	-10.752000	24.995681	0.000927	20.786342
1168.332886	-2.978000	3.601600	-10.723000	25.027800	0.000925	20.809099
1169.334770	-3.015900	3.600000	-10.855000	25.011292	0.000927	20.808176
1170.337033	-2.989900	3.602100	-10.769000	25.016064	0.000922	20.809172
1171.335665	-3.004300	3.600300	-10.815000	25.059793	0.000924	20.822247
1172.335697	-2.998900	3.599900	-10.794000	25.064689	0.000924	20.820998
1173.334234	-2.999900	3.600000	-10.798000	25.046938	0.000925	20.806972
1174.342932	-2.980200	3.599200	-10.726000	25.039652	0.000923	20.800607
1175.333879	-3.030100	3.598200	-10.901000	25.038058	0.000923	20.825559
1176.337944	-2.992500	3.599300	-10.769000	25.064560	0.000923	20.788151
1177.338037	-2.988200	3.599000	-10.753000	25.059561	0.000922	20.787401
1178.342082	-2.988300	3.599800	-10.756000	25.037383	0.000923	20.802123
1179.338395	-3.000400	3.598200	-10.795000	25.032040	0.000921	20.795811
1180.335116	-2.989400	3.598800	-10.758000	25.005707	0.000921	20.813001
1181.335423	-2.996100	3.597400	-10.777000	25.033702	0.000921	20.809333
1182.338639	-3.009300	3.595800	-10.819000	25.048095	0.000922	20.797228
1183.340894	-3.006100	3.596900	-10.811000	25.064825	0.000919	20.787469
1184.336217	-3.011300	3.597200	-10.831000	25.077006	0.000919	20.796378
1185.335063	-3.009800	3.597200	-10.826000	25.086430	0.000919	20.775492
1186.336866	-3.014900	3.595000	-10.837000	25.110690	0.000919	20.784198
1187.339402	-2.991300	3.595500	-10.754000	25.076906	0.000921	20.768302
1188.337751	-2.996600	3.594700	-10.771000	25.066265	0.000920	20.801717
1189.338829	-2.993500	3.595400	-10.761000	25.085306	0.000920	20.775786
1190.343871	-3.000500	3.595700	-10.787000	25.071211	0.000917	20.797199
1191.336042	-2.999900	3.594100	-10.782000	25.093661	0.000915	20.782276
1192.340673	-2.995500	3.595100	-10.767000	25.130627	0.000916	20.779557
1193.340034	-2.999500	3.593700	-10.777000	25.120036	0.000916	20.764183
1194.339255	-2.989700	3.594200	-10.744000	25.131747	0.000914	20.788741
1195.339323	-3.008600	3.592900	-10.809000	25.117003	0.000913	20.791009
1196.344870	-3.006500	3.593200	-10.801000	25.137710	0.000914	20.773865
1197.342351	-3.008700	3.592600	-10.808000	25.117775	0.000914	20.792733
1198.341098	-3.034300	3.589900	-10.891000	25.098979	0.000909	20.789986
1199.342673	-2.984300	3.592000	-10.718000	25.080980	0.000910	20.797996
1200.345502	-2.993300	3.592600	-10.752000	25.084109	0.000912	20.805405
1201.341772	-2.995500	3.591900	-10.758000	25.049705	0.000909	20.801689
1202.339395	-3.001200	3.590800	-10.776000	25.050750	0.000911	20.794203
1203.346946	-3.017100	3.590600	-10.832000	25.065465	0.000907	20.783370
1204.345953	-3.009500	3.590100	-10.804000	25.059747	0.000907	20.782846
1205.343729	-2.999900	3.590600	-10.770000	25.108026	0.000906	20.774886
1206.340884	-3.010800	3.590300	-10.809000	25.113816	0.000905	20.775957
1207.348956	-2.988500	3.589900	-10.727000	25.085277	0.000905	20.780024
1208.348727	-2.982700	3.589500	-10.705000	25.068147	0.000906	20.807874
1209.345695	-3.003000	3.588500	-10.776000	25.006763	0.000905	20.798413
1210.345736	-2.993700	3.588300	-10.741000	24.994059	0.000907	20.771911
1211.344319	-2.965200	3.589600	-10.642000	25.016308	0.000904	20.759156
1212.346135	-3.009000	3.587200	-10.791000	25.025728	0.000903	20.788527
1213.346715	-3.002300	3.587400	-10.769000	25.038927	0.000904	20.767636
1214.347954	-3.002100	3.588700	-10.772000	25.036118	0.000901	20.785205
1215.347587	-3.001800	3.588200	-10.770000	25.023361	0.000901	20.759598
1216.348491	-3.010700	3.587100	-10.799000	25.040267	0.000900	20.795534
1217.348878	-3.008600	3.586200	-10.789000	25.060998	0.000900	20.785050
1218.345725	-3.000800	3.586600	-10.761000	25.098883	0.000900	20.774717
1219.350041	-2.983400	3.587800	-10.703000	25.119986	0.000901	20.792108
1220.352046	-2.997400	3.586400	-10.750000	25.139698	0.000898	20.773964
1221.351143	-3.000800	3.586600	-10.762000	25.133754	0.000901	20.776531
1222.352663	-3.012700	3.583300	-10.794000	25.162265	0.000897	20.775756
1223.353326	-3.001900	3.584700	-10.760000	25.175610	0.000899	20.782515
1224.351041	-3.002700	3.584000	-10.761000	25.168673	0.000896	20.776973
1225.353708	-2.990300	3.585200	-10.720000	25.165462	0.000897	20.766637
1226.351758	-2.995100	3.583400	-10.730000	25.133715	0.000897	20.772699
1227.352707	-2.988600	3.584100	-10.710000	25.103734	0.000895	20.784802
1228.354807	-2.994800	3.583600	-10.730000	25.117799	0.000895	20.782326
1229.348674	-3.002100	3.582900	-10.755000	25.145466	0.000895	20.776910
1230.355428	-3.009100	3.584200	-10.784000	25.153071	0.000894	20.766526
1231.355054	-2.995500	3.582800	-10.731000	25.158187	0.000895	20.774033
1232.350919	-3.012300	3.582000	-10.789000	25.153959	0.000894	20.771685
1233.356596	-2.996600	3.581600	-10.732000	25.147444	0.000893	20.787904
1234.356937	-2.995900	3.581100	-10.728000	25.148037	0.000893	20.779965
1235.356496	-3.004100	3.580600	-10.755000	25.078153	0.000892	20.775718
1236.358234	-2.999700	3.580400	-10.739000	25.078176	0.000895	20.772421
1237.356862	-3.015100	3.578800	-10.788000	25.083194	0.000890	20.771295
1238.354768	-3.013700	3.580500	-10.789000	25.121672	0.000894	20.763928
1239.356299	-2.980100	3.581100	-10.671000	25.129624	0.000892	20.774756
1240.361498	-3.011700	3.579600	-10.780000	25.154332	0.000892	20.776327
1241.362469	-2.997900	3.580700	-10.732000	25.158631	0.000892	20.764047
1242.358302	-2.999700	3.578700	-10.734000	25.159099	0.000889	20.769258
1243.361025	-2.983500	3.579900	-10.680000	25.175825	0.000888	20.764713
1244.360325	-3.002700	3.579200	-10.745000	25.133315	0.000890	20.768030
1245.359403	-2.986900	3.578700	-10.688000	25.119665	0.000890	20.764759
1246.356156	-2.985600	3.580600	-10.688000	25.133460	0.000890	20.755847
1247.358336	-3.003000	3.577000	-10.740000	25.125106	0.000887	20.781127
1248.359175	-2.996800	3.577100	-10.718000	25.129977	0.000887	20.757092
1249.356781	-2.985400	3.577600	-10.679000	25.144442	0.000887	20.754070
1250.365482	-2.987800	3.576500	-10.685000	25.155626	0.000886	20.763875
1251.358514	-3.022700	3.575900	-10.807000	25.167483	0.000887	20.756338
1252.360337	-3.000700	3.576000	-10.730000	25.183987	0.000887	20.766269
1253.367668	-3.004000	3.576900	-10.743000	25.165742	0.000888	20.766444
1254.364780	-2.993200	3.575400	-10.700000	25.173991	0.000885	20.768562
1255.361189	-2.978700	3.575600	-10.649000	25.130811	0.000885	20.767887
1256.359465	-2.981600	3.574400	-10.657000	25.129964	0.000883	20.781736
1257.363613	-2.993300	3.575500	-10.702000	25.137272	0.000882	20.753036
1258.364342	-3.020800	3.574100	-10.796000	25.140878	0.000884	20.772777
1259.361011	-2.976800	3.575000	-10.641000	25.147910	0.000882	20.750913
1260.361343	-2.989700	3.573600	-10.683000	25.160688	0.000883	20.761370
1261.360444	-2.995000	3.572400	-10.698000	25.139706	0.000883	20.768282
1262.364452	-2.979600	3.573600	-10.646000	25.152086	0.000882	20.779762
1263.365762	-2.991700	3.573600	-10.691000	25.172371	0.000881	20.787324
1264.364166	-3.010800	3.571100	-10.750000	25.181417	0.000881	20.794035
1265.363599	-3.017000	3.571000	-10.773000	25.205704	0.000880	20.774321
1266.365807	-3.006800	3.572300	-10.740000	25.197250	0.000881	20.757299
1267.365298	-2.997300	3.572000	-10.705000	25.229790	0.000879	20.793761
1268.364402	-2.994800	3.570100	-10.691000	25.203715	0.000878	20.778962
1269.365998	-2.984000	3.572100	-10.658000	25.216444	0.000878	20.774672
1270.366497	-2.997300	3.569100	-10.697000	25.211323	0.000879	20.779489
1271.373869	-2.984700	3.569900	-10.654000	25.210454	0.000877	20.770555
1272.369203	-3.011100	3.568100	-10.742000	25.203045	0.000877	20.754581
1273.365060	-2.996200	3.568800	-10.692000	25.193849	0.000878	20.777592
1274.365498	-2.996500	3.569300	-10.694000	25.180054	0.000877	20.776071
1275.369705	-2.997500	3.569200	-10.697000	25.178635	0.000877	20.777492
1276.369123	-2.999800	3.567700	-10.701000	25.197207	0.000876	20.777170
1277.372099	-2.995800	3.567900	-10.687000	25.175706	0.000874	20.793043
1278.370983	-2.980700	3.568100	-10.634000	25.168919	0.000875	20.781488
1279.370795	-2.991300	3.567200	-10.670000	25.217692	0.000874	20.768813
1280.371562	-2.975300	3.567500	-10.613000	25.184035	0.000874	20.772007
1281.369943	-2.997600	3.567500	-10.691000	25.217667	0.000872	20.783013
1282.374475	-2.994800	3.567400	-10.683000	25.191121	0.000874	20.803303
1283.369380	-3.020600	3.566300	-10.771000	25.182867	0.000872	20.789327
1284.372951	-3.011500	3.565700	-10.737000	25.181552	0.000873	20.787533
1285.373499	-3.010900	3.566200	-10.736000	25.190004	0.000872	20.805026
1286.375358	-2.979500	3.566600	-10.626000	25.216429	0.000872	20.777502
1287.373689	-2.978400	3.566600	-10.620000	25.244841	0.000870	20.788009
1288.376681	-2.985300	3.564400	-10.640000	25.266318	0.000870	20.807201
1289.376808	-3.003700	3.564900	-10.706000	25.222594	0.000870	20.768992
1290.377967	-2.991800	3.565700	-10.667000	25.206289	0.000868	20.785340
1291.374588	-2.995800	3.564800	-10.679000	25.179443	0.000866	20.809597
1292.374394	-3.009000	3.565000	-10.725000	25.190480	0.000866	20.791280
1293.378738	-2.980600	3.563900	-10.621000	25.216954	0.000868	20.787038
1294.376088	-2.998200	3.564200	-10.685000	25.236242	0.000867	20.790756
1295.385550	-2.984100	3.562300	-10.628000	25.267262	0.000866	20.808623
1296.381523	-3.006400	3.562000	-10.708000	25.295722	0.000863	20.812068
1297.380068	-3.004000	3.561400	-10.697000	25.279218	0.000866	20.812567
1298.380907	-2.991300	3.561800	-10.653000	25.316301	0.000862	20.800962
1299.382038	-3.007200	3.560700	-10.707000	25.307699	0.000863	20.793273
1300.376843	-2.976600	3.560900	-10.598000	25.320626	0.000862	20.795347
1301.380346	-2.998400	3.560500	-10.674000	25.317718	0.000861	20.815186
1302.386120	-3.011700	3.560000	-10.720000	25.319434	0.000861	20.796995
1303.381211	-3.007600	3.560300	-10.708000	25.345205	0.000861	20.803905
1304.378242	-3.031500	3.559400	-10.789000	25.355199	0.000859	20.803982
1305.382627	-2.984000	3.560000	-10.621000	25.348758	0.000859	20.798938
1306.383139	-3.011600	3.558200	-10.714000	25.344908	0.000861	20.798390
1307.380770	-2.994000	3.560000	-10.657000	25.366208	0.000858	20.803182
1308.386831	-2.968000	3.560700	-10.567000	25.306707	0.000858	20.806975
1309.382950	-2.996400	3.558200	-10.661000	25.275388	0.000858	20.798290
1310.384139	-2.980500	3.557400	-10.601000	25.261418	0.000857	20.800385
1311.385913	-2.998900	3.557800	-10.668000	25.288312	0.000858	20.800834
1312.386797	-3.017900	3.556700	-10.731000	25.308146	0.000856	20.812214
1313.389383	-3.015700	3.557100	-10.726000	25.340109	0.000854	20.792149
1314.386021	-2.992600	3.557200	-10.645000	25.333622	0.000855	20.804602
1315.387880	-2.996100	3.555700	-10.653000	25.342393	0.000853	20.812460
1316.390975	-3.019200	3.555800	-10.735000	25.354968	0.000855	20.793793
1317.389034	-3.003800	3.556700	-10.682000	25.369262	0.000853	20.793920
1318.394000	-3.001000	3.554100	-10.665000	25.378433	0.000854	20.794121
1319.388863	-3.007100	3.554700	-10.688000	25.365979	0.000852	20.811961
1320.388534	-2.986600	3.554900	-10.616000	25.406514	0.000851	20.830104
1321.388587	-3.000000	3.553000	-10.658000	25.396250	0.000851	20.815804
1322.388101	-3.003700	3.554100	-10.674000	25.387204	0.000851	20.829005
1323.389021	-3.004300	3.553100	-10.673000	25.387524	0.000852	20.801826
1324.389492	-2.997200	3.553500	-10.650000	25.402684	0.000853	20.798557
1325.388327	-3.009900	3.553200	-10.694000	25.396746	0.000849	20.805870
1326.391555	-2.995400	3.553900	-10.644000	25.411679	0.000848	20.820391
1327.393015	-3.002000	3.553000	-10.665000	25.350516	0.000851	20.813504
1328.390087	-3.003500	3.552600	-10.669000	25.298668	0.000848	20.830198
1329.387887	-3.021000	3.549200	-10.721000	25.290964	0.000847	20.788798
1330.388451	-3.006000	3.551200	-10.674000	25.289693	0.000848	20.826877
1331.398964	-2.966200	3.552400	-10.536000	25.299090	0.000847	20.794112
1332.392388	-2.985200	3.551100	-10.599000	25.287159	0.000849	20.838557
1333.392174	-3.012900	3.548300	-10.689000	25.256138	0.000849	20.810731
1334.396163	-3.003700	3.550200	-10.662000	25.242914	0.000844	20.821162
1335.394157	-2.970800	3.550700	-10.548000	25.249801	0.000845	20.820963
1336.393259	-2.989100	3.551000	-10.613000	25.249029	0.000846	20.814025
1337.395095	-2.993400	3.550000	-10.626000	25.259591	0.000846	20.832215
1338.391919	-2.993500	3.551100	-10.629000	25.297124	0.000846	20.834812
1339.394996	-2.980600	3.549600	-10.579000	25.320189	0.000845	20.813874
1340.399225	-3.029400	3.547600	-10.746000	25.320462	0.000843	20.807984
1341.397325	-2.992600	3.548100	-10.616000	25.320412	0.000842	20.812675
1342.396397	-2.993800	3.547600	-10.620000	25.321504	0.000841	20.840798
1343.398062	-3.015600	3.547600	-10.697000	25.340643	0.000842	20.833462
1344.396918	-2.990400	3.547600	-10.608000	25.351454	0.000843	20.822507
1345.396683	-2.990100	3.548500	-10.609000	25.342755	0.000842	20.819936
1346.396661	-2.978600	3.548200	-10.568000	25.325850	0.000841	20.829989
1347.394993	-2.999800	3.546500	-10.638000	25.339497	0.000842	20.838475
1348.395903	-2.990800	3.546000	-10.605000	25.329282	0.000841	20.827745
1349.401510	-3.004600	3.547000	-10.656000	25.331045	0.000839	20.825247
1350.406127	-3.012000	3.544200	-10.673000	25.319066	0.000839	20.830764
1351.401901	-3.007800	3.546900	-10.666000	25.330870	0.000839	20.826494
1352.404436	-3.011000	3.545800	-10.676000	25.336164	0.000838	20.835129
1353.399034	-3.008700	3.543800	-10.660000	25.349659	0.000837	20.837773
1354.398696	-3.005300	3.543000	-10.647000	25.366709	0.000840	20.852996
1355.397676	-3.003700	3.543700	-10.643000	25.364770	0.000836	20.834929
1356.398741	-2.980500	3.544300	-10.562000	25.312625	0.000838	20.850375
1357.399073	-2.993000	3.542300	-10.600000	25.308772	0.000836	20.820903
1358.397527	-2.990800	3.543500	-10.597000	25.336686	0.000836	20.827119
1359.400529	-2.990700	3.543500	-10.597000	25.338800	0.000839	20.810275
1360.398932	-3.023800	3.541400	-10.708000	25.363181	0.000834	20.835704
1361.399013	-3.017000	3.542500	-10.687000	25.368773	0.000837	20.834680
1362.398615	-3.018700	3.540700	-10.687000	25.365118	0.000834	20.819631
1363.396824	-3.016100	3.540600	-10.678000	25.385993	0.000832	20.851970
1364.398291	-3.010300	3.540200	-10.656000	25.394769	0.000833	20.840395
1365.397749	-3.005900	3.541200	-10.643000	25.391886	0.000831	20.839870
1366.401987	-3.000800	3.540200	-10.623000	25.380853	0.000831	20.852499
1367.399288	-2.991000	3.540200	-10.588000	25.406227	0.000829	20.822029
1368.402122	-2.995500	3.539100	-10.600000	25.390097	0.000829	20.837126
1369.400822	-2.993600	3.539900	-10.596000	25.390445	0.000831	20.846009
1370.401553	-3.007900	3.538100	-10.640000	25.385152	0.000830	20.855868
1371.405395	-3.018600	3.539100	-10.682000	25.375756	0.000829	20.827942
1372.402878	-3.003500	3.538300	-10.627000	25.360000	0.000828	20.842467
1373.403844	-2.995100	3.539300	-10.600000	25.358906	0.000829	20.857489
1374.403764	-2.986300	3.537300	-10.563000	25.361889	0.000831	20.843415
1375.408398	-3.011900	3.537200	-10.653000	25.348517	0.000828	20.832359
1376.401592	-3.003900	3.537000	-10.624000	25.344144	0.000829	20.856891
1377.402245	-3.004300	3.535600	-10.621000	25.354234	0.000825	20.859435
1378.401749	-2.981600	3.537700	-10.547000	25.332314	0.000826	20.856866
1379.408894	-3.002000	3.537200	-10.618000	25.336489	0.000826	20.845412
1380.408015	-2.993900	3.536900	-10.588000	25.357764	0.000824	20.853023
1381.407905	-2.997700	3.534900	-10.595000	25.350283	0.000825	20.859262
1382.406929	-3.004000	3.535000	-10.618000	25.329655	0.000822	20.852774
1383.406718	-3.017000	3.536000	-10.667000	25.340491	0.000823	20.853698
1384.406847	-2.998900	3.534500	-10.597000	25.363456	0.000821	20.875806
1385.404466	-3.010300	3.534300	-10.638000	25.354683	0.000822	20.879325
1386.408287	-2.997300	3.535300	-10.594000	25.377870	0.000820	20.866098
1387.412598	-3.012800	3.534200	-10.647000	25.414801	0.000820	20.868095
1388.407810	-3.008000	3.533600	-10.627000	25.431553	0.000820	20.855519
1389.406079	-2.988600	3.533500	-10.559000	25.443306	0.000821	20.840294
1390.413811	-2.992600	3.534400	-10.575000	25.475711	0.000819	20.867144
1391.409794	-2.972500	3.534000	-10.501000	25.476980	0.000820	20.879323
1392.408311	-2.998800	3.532100	-10.591000	25.462713	0.000820	20.844610
1393.406379	-2.995000	3.531200	-10.574000	25.458116	0.000818	20.865123
1394.404598	-2.977000	3.533500	-10.517000	25.431746	0.000817	20.877997
1395.405278	-2.982700	3.532400	-10.535000	25.429558	0.000818	20.892868
1396.407014	-2.999500	3.531900	-10.593000	25.433583	0.000814	20.871307
1397.409698	-2.985700	3.531500	-10.544000	25.405996	0.000815	20.869210
1398.407525	-2.991200	3.529900	-10.558000	25.400403	0.000813	20.871654
1399.418266	-2.997000	3.529800	-10.577000	25.401072	0.000813	20.867585
1400.409487	-2.991900	3.530600	-10.562000	25.395803	0.000814	20.871303
1401.413038	-2.998200	3.528300	-10.577000	25.396398	0.000813	20.882331
1402.411788	-3.013600	3.527400	-10.630000	25.398880	0.000811	20.882452
1403.411843	-3.014300	3.528000	-10.633000	25.397985	0.000813	20.873020
1404.410247	-2.998200	3.527900	-10.576000	25.411528	0.000811	20.877609
1405.410491	-3.031500	3.526100	-10.688000	25.398304	0.000810	20.879977
1406.411769	-3.001700	3.528100	-10.589000	25.376630	0.000809	20.879551
1407.410170	-2.998400	3.527000	-10.574000	25.400388	0.000809	20.863105
1408.413538	-2.984500	3.527700	-10.527000	25.410875	0.000809	20.869841
1409.418973	-2.986800	3.527700	-10.535000	25.407068	0.000809	20.900630
1410.413409	-2.999700	3.526100	-10.577000	25.414846	0.000809	20.859131
1411.414604	-3.038600	3.525200	-10.710000	25.432565	0.000807	20.877870
1412.415304	-3.034000	3.525000	-10.694000	25.462682	0.000808	20.879190
1413.414210	-3.013700	3.524700	-10.622000	25.469018	0.000808	20.874174
1414.413707	-2.993200	3.526300	-10.553000	25.486834	0.000806	20.893011
1415.416142	-2.990000	3.526400	-10.542000	25.485490	0.000804	20.886921
1416.411127	-3.013700	3.524600	-10.620000	25.494584	0.000805	20.872820
1417.415061	-2.999000	3.524200	-10.568000	25.479149	0.000805	20.880553
1418.415292	-3.002400	3.524700	-10.582000	25.454621	0.000804	20.883423
1419.418710	-3.031300	3.522100	-10.676000	25.420249	0.000806	20.868823
1420.412207	-3.003500	3.522600	-10.579000	25.387143	0.000803	20.901959
1421.414748	-3.006200	3.522600	-10.588000	25.357019	0.000803	20.894472
1422.419855	-3.047100	3.521500	-10.729000	25.341236	0.000805	20.900909
1423.419946	-3.014400	3.521300	-10.614000	25.372103	0.000803	20.899660
1424.416950	-2.996300	3.522400	-10.552000	25.372700	0.000803	20.888406
1425.413383	-3.004300	3.520900	-10.577000	25.387511	0.000803	20.885735
1426.418760	-2.985600	3.521900	-10.514000	25.392853	0.000801	20.873082
1427.414471	-3.000400	3.520900	-10.563000	25.403021	0.000802	20.875705
1428.415962	-2.998200	3.521700	-10.558000	25.400583	0.000804	20.891748
1429.416001	-2.981800	3.521900	-10.501000	25.414824	0.000801	20.902254
1430.415352	-3.007700	3.519600	-10.584000	25.440148	0.000801	20.892596
1431.416044	-2.971800	3.522000	-10.466000	25.462415	0.000801	20.883663
1432.420279	-3.006000	3.518400	-10.575000	25.486793	0.000800	20.894867
1433.420352	-2.988300	3.519500	-10.516000	25.500784	0.000799	20.901329
1434.415997	-2.986600	3.519200	-10.509000	25.509160	0.000796	20.902628
1435.424225	-2.990800	3.520800	-10.529000	25.538556	0.000798	20.869563
1436.423479	-2.977600	3.518500	-10.476000	25.538034	0.000797	20.897960
1437.418978	-3.002500	3.517500	-10.560000	25.535523	0.000797	20.887379
1438.420911	-3.017900	3.516000	-10.610000	25.526478	0.000795	20.910061
1439.419768	-3.006700	3.516800	-10.573000	25.483809	0.000795	20.906567
1440.418155	-2.990200	3.516700	-10.513000	25.436915	0.000793	20.883661
1441.416545	-3.005100	3.514900	-10.562000	25.402146	0.000795	20.886680
1442.419528	-2.997100	3.516500	-10.538000	25.379727	0.000795	20.909211
1443.416446	-3.020700	3.515800	-10.619000	25.378409	0.000792	20.897931
1444.419763	-2.987400	3.516500	-10.503000	25.408357	0.000791	20.897657
1445.426302	-2.972800	3.516600	-10.454000	25.442453	0.000791	20.911031
1446.416959	-2.998400	3.515700	-10.541000	25.471753	0.000790	20.892091
1447.418030	-2.995500	3.515000	-10.529000	25.480697	0.000789	20.918614
1448.419070	-2.997600	3.515600	-10.537000	25.537132	0.000790	20.925975
1449.418721	-2.986900	3.515300	-10.499000	25.534646	0.000792	20.887921
1450.419520	-2.958500	3.514300	-10.395000	25.547120	0.000789	20.886223
1451.423958	-3.006400	3.511800	-10.557000	25.543316	0.000789	20.932184
1452.421687	-2.988800	3.512700	-10.498000	25.548782	0.000787	20.894529
1453.423079	-2.999800	3.511100	-10.531000	25.522117	0.000789	20.922276
1454.420587	-2.991800	3.511900	-10.506000	25.520551	0.000787	20.912170
1455.422178	-3.008600	3.509800	-10.559000	25.526487	0.000786	20.934724
1456.419879	-3.002500	3.512000	-10.544000	25.542688	0.000786	20.921598
1457.435237	-3.012500	3.511000	-10.575000	25.507995	0.000787	20.908570
1458.424571	-3.025500	3.510900	-10.620000	25.466419	0.000786	20.914708
1459.418503	-3.004600	3.509600	-10.544000	25.458663	0.000788	20.919721
1460.426133	-2.994600	3.508000	-10.503000	25.434929	0.000785	20.936663
1461.419423	-2.996700	3.508800	-10.514000	25.450908	0.000787	20.918098
1462.429918	-2.992200	3.509000	-10.499000	25.468103	0.000786	20.930147
1463.419528	-2.996700	3.507900	-10.511000	25.473744	0.000787	20.909262
1464.424573	-2.984900	3.509700	-10.474000	25.484579	0.000783	20.928201
1465.420303	-3.031100	3.506100	-10.626000	25.510469	0.000784	20.908684
1466.425577	-2.990200	3.508000	-10.489000	25.510694	0.000784	20.920288
1467.426150	-2.991800	3.507700	-10.492000	25.516060	0.000784	20.917142
1468.425946	-2.998200	3.506600	-10.512000	25.545333	0.000784	20.927573
1469.426894	-2.999200	3.506200	-10.515000	25.554004	0.000781	20.922531
1470.426374	-2.999400	3.506900	-10.517000	25.552390	0.000783	20.928970
1471.424047	-3.026900	3.504100	-10.605000	25.544387	0.000781	20.943690
1472.425040	-3.012500	3.504400	-10.556000	25.548189	0.000783	20.908158
1473.422104	-3.014300	3.504300	-10.562000	25.578008	0.000781	20.931464
1474.425576	-3.002200	3.505100	-10.520000	25.597365	0.000783	20.948531
1475.425197	-2.979700	3.506100	-10.446000	25.605265	0.000781	20.933707
1476.424679	-3.005200	3.503900	-10.529000	25.624846	0.000780	20.944837
1477.429735	-2.993200	3.504200	-10.488000	25.595152	0.000779	20.941094
1478.429657	-3.007400	3.503400	-10.535000	25.608744	0.000779	20.926771
1479.425739	-2.996800	3.504000	-10.499000	25.612696	0.000779	20.931687
1480.431480	-3.025400	3.501900	-10.593000	25.633593	0.000778	20.950776
1481.429714	-3.004100	3.504100	-10.525000	25.605364	0.000777	20.941867
1482.430873	-2.995500	3.503100	-10.492000	25.603178	0.000777	20.945361
1483.427059	-2.994300	3.502700	-10.487000	25.531937	0.000778	20.925499
1484.429332	-2.981300	3.502600	-10.442000	25.526321	0.000777	20.908956
1485.434754	-2.990100	3.500500	-10.466000	25.531589	0.000776	20.919935
1486.428809	-2.999400	3.501000	-10.500000	25.522545	0.000775	20.909906
1487.428798	-2.981100	3.502400	-10.440000	25.528632	0.000774	20.931188
1488.427561	-2.997900	3.499700	-10.490000	25.544562	0.000775	20.921583
1489.427915	-2.957100	3.501400	-10.353000	25.545880	0.000773	20.938552
1490.428364	-3.010400	3.499100	-10.533000	25.566405	0.000774	20.915071
1491.432190	-3.012400	3.499200	-10.539000	25.563969	0.000772	20.922107
1492.431117	-3.007700	3.499100	-10.522000	25.582409	0.000772	20.929720
1493.434527	-3.012000	3.497800	-10.534000	25.575102	0.000772	20.914797
1494.431798	-3.020500	3.498100	-10.565000	25.554528	0.000772	20.922583
1495.436847	-3.005500	3.498000	-10.511000	25.537880	0.000772	20.934312
1496.436680	-2.981100	3.498400	-10.427000	25.534027	0.000771	20.924279
1497.433501	-3.002300	3.497500	-10.500000	25.577340	0.000770	20.926052
1498.437005	-2.983100	3.497200	-10.431000	25.587405	0.000769	20.912927
1499.438705	-2.993900	3.497800	-10.472000	25.610888	0.000769	20.914226
1500.438684	-3.004800	3.495400	-10.502000	25.573043	0.000766	20.918418
1501.441275	-2.997700	3.496300	-10.480000	25.540368	0.000767	20.902200
1502.439051	-3.014100	3.495700	-10.535000	25.500932	0.000768	20.917123
1503.438850	-3.010800	3.494800	-10.521000	25.551949	0.000768	20.912407
1504.443023	-3.001100	3.495500	-10.490000	25.521981	0.000766	20.911235
1505.440731	-3.016900	3.493900	-10.539000	25.518875	0.000767	20.916177
1506.441498	-3.021500	3.492600	-10.551000	25.519325	0.000766	20.924687
1507.442250	-3.024200	3.493900	-10.565000	25.507198	0.000766	20.904925
1508.440384	-3.007300	3.492400	-10.502000	25.527677	0.000766	20.917429
1509.440973	-2.997400	3.492700	-10.467000	25.511352	0.000764	20.906725
1510.440838	-3.016500	3.492100	-10.532000	25.511676	0.000765	20.935971
1511.440130	-2.994100	3.492100	-10.455000	25.515578	0.000765	20.927089
1512.442134	-2.990600	3.493300	-10.445000	25.496369	0.000765	20.900215
1513.439929	-3.014900	3.490400	-10.522000	25.483947	0.000766	20.907180
1514.443020	-3.017000	3.490200	-10.529000	25.481041	0.000763	20.916589
1515.437997	-3.009000	3.490700	-10.502000	25.471822	0.000763	20.919185
1516.447716	-3.011400	3.489600	-10.507000	25.438896	0.000762	20.914097
1517.445249	-2.973300	3.491200	-10.379000	25.419364	0.000763	20.918190
1518.443564	-3.015300	3.488400	-10.518000	25.412356	0.000760	20.898353
1519.446870	-3.008100	3.490300	-10.498000	25.427990	0.000760	20.907887
1520.445463	-2.977400	3.489900	-10.389000	25.460870	0.000761	20.916722
1521.456823	-2.978000	3.489200	-10.389000	25.495289	0.000759	20.891070
1522.447156	-2.999600	3.488900	-10.464000	25.513307	0.000759	20.911060
1523.445704	-3.005800	3.488100	-10.482000	25.537337	0.000759	20.894890
1524.445579	-2.991500	3.487600	-10.431000	25.567333	0.000761	20.912210
1525.448411	-3.012200	3.487000	-10.501000	25.529512	0.000759	20.930176
1526.447799	-2.984800	3.487000	-10.407000	25.497880	0.000755	20.917851
1527.448606	-2.998100	3.486800	-10.453000	25.499123	0.000757	20.910092
1528.449691	-2.981700	3.487600	-10.398000	25.495396	0.000756	20.910142
1529.453411	-3.005700	3.485800	-10.476000	25.458469	0.000757	20.902458
1530.448325	-2.987300	3.487200	-10.416000	25.448430	0.000757	20.898068
1531.446649	-2.992900	3.487800	-10.438000	25.482304	0.000755	20.902212
1532.450345	-2.992000	3.484600	-10.425000	25.489534	0.000752	20.887188
1533.446723	-2.976000	3.485600	-10.372000	25.461653	0.000753	20.886691
1534.449735	-2.979200	3.485900	-10.384000	25.446371	0.000755	20.916387
1535.458102	-2.980200	3.485400	-10.386000	25.473410	0.000753	20.907504
1536.450655	-2.997200	3.484600	-10.444000	25.491901	0.000753	20.906159
1537.450573	-2.982600	3.484100	-10.391000	25.520133	0.000755	20.895630
1538.455410	-3.006900	3.483600	-10.474000	25.531265	0.000754	20.912498
1539.452325	-3.012200	3.482700	-10.489000	25.566477	0.000751	20.904714
1540.455973	-2.996500	3.482200	-10.434000	25.570579	0.000753	20.886075
1541.462770	-3.004500	3.483900	-10.466000	25.573014	0.000750	20.886624
1542.451874	-2.992800	3.483000	-10.423000	25.580968	0.000749	20.887499
1543.457357	-3.012600	3.481400	-10.485000	25.568815	0.000751	20.899949
1544.454350	-2.988300	3.481800	-10.403000	25.541733	0.000750	20.914001
1545.452772	-3.010100	3.482400	-10.481000	25.525879	0.000749	20.903771
1546.450107	-3.020400	3.478800	-10.505000	25.498742	0.000750	20.903546
1547.451079	-3.001000	3.480200	-10.443000	25.486370	0.000748	20.877373
1548.453414	-3.024500	3.479900	-10.523000	25.487689	0.000747	20.889602
1549.448983	-2.990700	3.479900	-10.407000	25.507270	0.000746	20.875128
1550.456004	-2.993200	3.479600	-10.413000	25.501406	0.000746	20.895791
1551.451698	-3.009800	3.477400	-10.464000	25.422729	0.000746	20.874159
1552.454106	-2.992600	3.479300	-10.410000	25.401033	0.000746	20.876554
1553.454749	-2.983600	3.479100	-10.379000	25.380805	0.000745	20.887062
1554.454154	-2.988100	3.478200	-10.392000	25.353962	0.000746	20.891402
1555.458423	-3.018200	3.475900	-10.488000	25.339077	0.000745	20.902534
1556.452234	-3.000200	3.476200	-10.428000	25.376310	0.000744	20.892031
1557.453305	-3.011000	3.475900	-10.465000	25.404619	0.000746	20.897223
1558.449483	-2.990300	3.476400	-10.394000	25.370470	0.000745	20.876686
1559.454771	-3.003800	3.474900	-10.437000	25.371444	0.000743	20.894257
1560.463536	-2.985900	3.476100	-10.378000	25.381385	0.000744	20.889067
1561.458691	-3.010300	3.475500	-10.462000	25.408153	0.000743	20.884652
1562.451412	-2.990000	3.473700	-10.386000	25.415958	0.000742	20.897703
1563.452327	-3.001500	3.473700	-10.426000	25.426226	0.000742	20.901849
1564.454865	-2.977400	3.474500	-10.343000	25.434675	0.000742	20.874300
1565.450501	-3.000900	3.474500	-10.426000	25.414173	0.000740	20.886903
1566.452734	-2.989400	3.473400	-10.382000	25.386141	0.000740	20.881988
1567.450184	-3.003500	3.472800	-10.429000	25.384526	0.000738	20.882264
1568.455456	-3.005300	3.471800	-10.433000	25.385548	0.000740	20.876178
1569.453090	-2.984000	3.473200	-10.363000	25.397180	0.000738	20.899710
1570.451579	-2.988200	3.472000	-10.374000	25.383266	0.000738	20.878154
1571.455686	-3.015900	3.470100	-10.464000	25.379315	0.000737	20.880825
1572.452116	-3.002800	3.470300	-10.419000	25.396315	0.000737	20.889833
1573.454537	-3.009600	3.471400	-10.446000	25.395323	0.000736	20.878881
1574.454524	-3.013900	3.470800	-10.459000	25.441700	0.000738	20.889414
1575.456456	-3.007400	3.469400	-10.433000	25.436730	0.000736	20.888691
1576.451897	-3.010400	3.468800	-10.440000	25.483004	0.000737	20.891061
1577.457790	-2.991700	3.469300	-10.379000	25.510441	0.000734	20.861718
1578.455924	-2.986100	3.468700	-10.357000	25.523139	0.000734	20.873521
1579.453450	-3.001600	3.468600	-10.410000	25.544064	0.000733	20.857551
1580.463181	-2.996200	3.468100	-10.390000	25.547319	0.000732	20.893060
1581.457791	-2.976100	3.468100	-10.320000	25.561682	0.000732	20.887571
1582.456983	-3.020700	3.467200	-10.472000	25.541333	0.000731	20.871877
1583.455786	-2.977800	3.467700	-10.324000	25.493993	0.000729	20.868907
1584.459391	-2.999300	3.466000	-10.395000	25.473517	0.000730	20.879165
1585.457901	-2.988000	3.467400	-10.360000	25.433257	0.000728	20.872402
1586.458035	-2.982500	3.467900	-10.343000	25.412405	0.000728	20.864266
1587.458174	-3.006200	3.464500	-10.414000	25.428360	0.000728	20.871278
1588.453215	-3.007000	3.465300	-10.419000	25.390010	0.000728	20.854581
1589.459900	-2.984900	3.466400	-10.346000	25.422764	0.000724	20.867082
1590.452512	-3.021600	3.463500	-10.464000	25.435963	0.000726	20.873697
1591.453091	-3.000000	3.463900	-10.391000	25.477712	0.000728	20.869154
1592.455653	-2.987000	3.464300	-10.346000	25.499157	0.000727	20.880731
1593.463739	-3.009100	3.463300	-10.420000	25.524254	0.000727	20.865632
1594.458261	-3.001200	3.463900	-10.395000	25.512773	0.000723	20.874964
1595.457123	-3.007400	3.463200	-10.414000	25.524654	0.000725	20.891162
1596.462062	-3.017300	3.462000	-10.445000	25.541771	0.000723	20.880852
1597.464600	-2.968000	3.464100	-10.278000	25.561279	0.000722	20.856822
1598.460380	-3.024600	3.461300	-10.468000	25.567042	0.000723	20.861662
1599.463394	-3.006900	3.460400	-10.404000	25.598922	0.000721	20.867600
1600.462086	-3.007700	3.460100	-10.407000	25.569800	0.000722	20.859216
1601.461019	-3.014800	3.459500	-10.429000	25.517686	0.000720	20.850502
1602.461976	-2.993900	3.460100	-10.359000	25.516766	0.000723	20.874233
1603.460177	-3.024400	3.458300	-10.458000	25.554486	0.000724	20.868966
1604.466209	-2.991400	3.459000	-10.347000	25.545016	0.000721	20.855663
1605.462354	-3.027600	3.458800	-10.471000	25.572325	0.000721	20.865070
1606.463454	-3.000400	3.460700	-10.383000	25.609598	0.000720	20.849873
1607.464242	-3.004700	3.458300	-10.390000	25.617969	0.000720	20.860177
1608.460854	-2.995200	3.459300	-10.360000	25.583552	0.000720	20.847897
1609.462010	-3.003700	3.458900	-10.389000	25.561038	0.000720	20.863218
1610.457278	-3.014200	3.456100	-10.417000	25.530448	0.000720	20.869008
1611.459143	-3.006900	3.457100	-10.395000	25.485591	0.000719	20.863316
1612.458003	-2.970500	3.458200	-10.272000	25.461411	0.000720	20.850414
1613.461822	-3.002400	3.456100	-10.376000	25.454276	0.000719	20.839457
1614.460954	-3.022800	3.455000	-10.442000	25.436633	0.000719	20.844025
1615.461115	-3.001700	3.456700	-10.375000	25.432009	0.000715	20.852184
1616.465908	-2.995500	3.454900	-10.348000	25.418313	0.000717	20.834639
1617.460044	-3.005500	3.454600	-10.381000	25.385059	0.000716	20.851981
1618.462738	-3.027500	3.453200	-10.454000	25.423031	0.000716	20.850281
1619.463854	-3.020100	3.452400	-10.426000	25.395419	0.000715	20.860012
1620.463290	-3.003100	3.452300	-10.367000	25.437667	0.000714	20.855494
1621.460602	-2.991300	3.454700	-10.332000	25.434310	0.000714	20.841218
1622.470526	-3.008500	3.453100	-10.388000	25.466320	0.000714	20.844439
1623.461563	-3.019800	3.452300	-10.424000	25.508341	0.000714	20.834006
1624.465686	-3.029000	3.451000	-10.452000	25.532668	0.000712	20.830936
1625.469358	-2.989400	3.452300	-10.319000	25.574214	0.000713	20.843261
1626.466789	-2.992500	3.451100	-10.326000	25.590687	0.000712	20.833726
1627.465278	-3.005600	3.449800	-10.368000	25.597816	0.000710	20.847524
1628.468390	-2.999800	3.452300	-10.355000	25.658892	0.000710	20.824941
1629.473392	-2.997400	3.451400	-10.344000	25.641968	0.000709	20.827857
1630.468302	-2.984400	3.450300	-10.296000	25.670019	0.000712	20.840857
1631.467651	-2.993700	3.449600	-10.326000	25.663930	0.000708	20.839009
1632.465790	-3.017400	3.450000	-10.409000	25.655282	0.000709	20.842177
1633.471325	-3.009000	3.448700	-10.376000	25.637068	0.000707	20.842376
1634.467005	-2.987400	3.448600	-10.301000	25.631129	0.000707	20.853954
1635.468673	-2.996400	3.447600	-10.329000	25.619719	0.000705	20.853400
1636.470474	-2.986400	3.448600	-10.298000	25.581553	0.000703	20.823131
1637.467303	-3.010100	3.448200	-10.379000	25.522459	0.000705	20.831114
1638.471883	-3.011300	3.446400	-10.377000	25.525737	0.000705	20.834406
1639.469158	-3.002300	3.447700	-10.351000	25.484532	0.000703	20.831908
1640.468223	-3.025100	3.446300	-10.425000	25.498001	0.000702	20.831683
1641.469198	-3.003800	3.446500	-10.352000	25.442877	0.000702	20.817580
1642.467993	-3.009400	3.446200	-10.370000	25.445883	0.000701	20.819176
1643.468558	-2.969300	3.446700	-10.232000	25.432583	0.000701	20.826209
1644.472673	-3.008300	3.445800	-10.365000	25.472767	0.000700	20.811558
1645.469771	-2.999500	3.445200	-10.332000	25.511557	0.000700	20.799304
1646.469722	-3.031100	3.442900	-10.435000	25.509169	0.000702	20.841001
1647.471859	-3.000600	3.444400	-10.333000	25.515478	0.000700	20.819363
1648.477814	-2.996800	3.442900	-10.317000	25.487866	0.000698	20.807282
1649.472075	-2.983800	3.443800	-10.275000	25.515497	0.000696	20.811322
1650.473774	-3.024300	3.442400	-10.409000	25.533685	0.000698	20.825318
1651.478570	-2.969800	3.445300	-10.231000	25.526823	0.000696	20.810368
1652.475490	-2.985700	3.441300	-10.274000	25.539395	0.000697	20.816828
1653.485562	-3.022000	3.441400	-10.399000	25.541604	0.000695	20.812409
1654.476014	-3.005200	3.440100	-10.338000	25.554671	0.000695	20.806091
1655.478889	-3.006200	3.441900	-10.346000	25.569677	0.000696	20.802670
1656.476836	-3.001800	3.441700	-10.331000	25.587839	0.000693	20.792934
1657.483500	-2.981900	3.443400	-10.267000	25.617977	0.000693	20.817513
1658.474962	-2.997500	3.439600	-10.308000	25.655542	0.000693	20.818257
1659.487839	-2.990600	3.439000	-10.284000	25.654846	0.000691	20.812342
1660.480662	-3.003800	3.440000	-10.332000	25.651908	0.000693	20.823142
1661.483144	-3.006800	3.439900	-10.341000	25.652353	0.000692	20.817425
1662.482272	-3.000100	3.439300	-10.317000	25.661840	0.000691	20.791866
1663.477466	-3.001200	3.438200	-10.318000	25.667751	0.000691	20.790216
1664.481999	-3.001000	3.438600	-10.318000	25.644764	0.000690	20.784673
1665.480433	-3.010400	3.437200	-10.346000	25.585647	0.000690	20.795949
1666.484177	-2.995100	3.437500	-10.294000	25.565120	0.000690	20.795248
1667.482995	-2.984800	3.438200	-10.261000	25.531667	0.000689	20.795318
1668.494567	-2.988500	3.436400	-10.268000	25.520856	0.000690	20.786831
1669.493572	-2.990600	3.437100	-10.278000	25.532606	0.000689	20.802899
1670.482913	-3.012900	3.436000	-10.351000	25.554844	0.000689	20.779238
1671.485591	-2.979900	3.435600	-10.237000	25.574595	0.000690	20.801919
1672.484871	-3.014000	3.434600	-10.351000	25.598794	0.000688	20.815791
1673.483702	-3.002900	3.436100	-10.316000	25.601424	0.000689	20.788086
1674.482306	-3.017700	3.434300	-10.363000	25.558981	0.000688	20.781971
1675.488173	-3.013800	3.433600	-10.347000	25.526949	0.000688	20.782993
1676.485725	-3.025600	3.434300	-10.389000	25.479878	0.000688	20.772232
1677.484878	-2.984100	3.436300	-10.253000	25.498016	0.000688	20.801827
1678.496059	-2.986400	3.433900	-10.253000	25.516179	0.000687	20.771229
1679.492944	-3.001400	3.433000	-10.303000	25.552087	0.000686	20.774099
1680.487371	-3.003900	3.430900	-10.306000	25.568261	0.000686	20.769953
1681.493098	-2.999900	3.432400	-10.296000	25.586647	0.000686	20.780832
1682.491415	-3.013300	3.432700	-10.343000	25.544054	0.000683	20.794007
1683.492591	-3.013000	3.431700	-10.339000	25.572306	0.000684	20.779231
1684.491345	-3.021300	3.431200	-10.366000	25.568033	0.000684	20.776363
1685.487638	-2.998000	3.430500	-10.284000	25.525860	0.000685	20.782374
1686.490991	-3.003300	3.430200	-10.301000	25.546560	0.000684	20.781350
1687.495407	-2.980900	3.431200	-10.227000	25.554932	0.000684	20.774111
1688.495290	-3.010700	3.430100	-10.326000	25.560697	0.000682	20.771366
1689.485219	-2.992500	3.428600	-10.259000	25.559429	0.000685	20.768196
1690.489470	-3.004900	3.428900	-10.303000	25.598541	0.000685	20.765275
1691.489458	-2.994500	3.429100	-10.268000	25.606344	0.000682	20.769793
1692.492309	-3.003400	3.429800	-10.301000	25.583905	0.000683	20.778552
1693.491756	-2.983800	3.428600	-10.228000	25.515618	0.000680	20.771613
1694.494857	-3.015200	3.427600	-10.334000	25.496854	0.000682	20.790229
1695.485848	-3.006900	3.427500	-10.305000	25.466287	0.000680	20.772335
1696.490376	-3.002200	3.427100	-10.288000	25.455004	0.000678	20.763376
1697.489492	-2.993700	3.427500	-10.260000	25.472698	0.000680	20.759332
1698.487097	-3.002500	3.426400	-10.286000	25.472101	0.000678	20.763000
1699.489015	-2.997500	3.426600	-10.270000	25.487634	0.000679	20.769116
1700.493551	-3.018700	3.426500	-10.343000	25.515340	0.000676	20.746204
1701.496654	-3.000600	3.426100	-10.280000	25.532437	0.000676	20.756261
1702.491172	-2.991100	3.424700	-10.243000	25.573911	0.000675	20.772782
1703.491277	-2.995700	3.426500	-10.263000	25.566503	0.000675	20.780990
1704.494015	-3.036200	3.424500	-10.395000	25.561186	0.000675	20.778021
1705.492445	-3.014000	3.422900	-10.315000	25.579300	0.000674	20.776298
1706.499881	-3.025000	3.424200	-10.357000	25.550276	0.000675	20.762322
1707.492109	-3.043700	3.422200	-10.415000	25.511681	0.000676	20.754858
1708.490864	-2.991900	3.421700	-10.235000	25.487826	0.000670	20.774524
1709.494046	-2.970200	3.423800	-10.168000	25.496522	0.000672	20.770929
1710.497150	-2.977600	3.424100	-10.195000	25.508400	0.000675	20.756778
1711.501983	-3.007100	3.422800	-10.292000	25.528355	0.000672	20.768757
1712.494460	-2.975000	3.423400	-10.183000	25.503354	0.000673	20.781583
1713.492798	-3.010000	3.421800	-10.299000	25.519878	0.000672	20.787271
1714.497393	-2.999700	3.421800	-10.264000	25.495376	0.000673	20.776890
1715.494883	-2.981200	3.422200	-10.201000	25.525791	0.000672	20.755277
1716.497112	-3.007600	3.420100	-10.286000	25.529421	0.000671	20.764612
1717.498323	-3.023400	3.419400	-10.337000	25.559884	0.000671	20.745418
1718.495289	-3.010000	3.419300	-10.291000	25.556802	0.000670	20.753229
1719.497985	-3.021600	3.418300	-10.328000	25.583339	0.000670	20.755224
1720.498247	-2.979200	3.419100	-10.186000	25.588406	0.000669	20.765055
1721.507758	-3.001500	3.419000	-10.261000	25.614200	0.000671	20.762984
1722.497308	-2.985800	3.418600	-10.206000	25.649729	0.000669	20.776857
1723.513519	-2.996400	3.417400	-10.239000	25.650425	0.000668	20.771867
1724.500439	-3.020700	3.416700	-10.319000	25.669630	0.000668	20.772663
1725.498893	-3.006100	3.418500	-10.276000	25.671269	0.000667	20.782370
1726.499151	-3.014600	3.416700	-10.298000	25.658647	0.000666	20.746933
1727.501870	-2.993400	3.418100	-10.230000	25.694076	0.000665	20.777776
1728.496289	-3.001500	3.416600	-10.254000	25.705877	0.000665	20.766870
1729.498194	-2.983600	3.417100	-10.195000	25.740933	0.000666	20.768416
1730.501324	-3.015500	3.415400	-10.297000	25.737029	0.000665	20.768288
1731.498839	-2.991100	3.415100	-10.214000	25.749056	0.000664	20.735797
1732.499102	-2.971100	3.416600	-10.150000	25.747338	0.000664	20.764418
1733.502557	-3.013400	3.415300	-10.290000	25.777847	0.000665	20.770881
1734.501323	-3.021400	3.414600	-10.316000	25.778591	0.000662	20.752663
1735.504062	-3.014100	3.413400	-10.287000	25.761669	0.000662	20.757477
1736.499341	-3.013000	3.412600	-10.281000	25.735632	0.000662	20.776368
1737.499090	-2.994500	3.413500	-10.220000	25.744377	0.000664	20.779462
1738.500854	-2.995500	3.412800	-10.221000	25.709817	0.000662	20.771301
1739.501366	-3.025700	3.412800	-10.325000	25.664943	0.000660	20.775542
1740.504864	-3.021000	3.411100	-10.304000	25.624614	0.000662	20.781978
1741.501451	-2.987800	3.412100	-10.193000	25.625558	0.000660	20.756374
1742.503307	-3.021100	3.410700	-10.303000	25.609433	0.000661	20.785224
1743.503652	-2.979300	3.412900	-10.167000	25.627520	0.000659	20.777785
1744.499950	-2.999100	3.411800	-10.232000	25.635347	0.000658	20.783276
1745.502339	-2.990500	3.409500	-10.195000	25.659546	0.000660	20.777234
1746.502689	-2.985800	3.410700	-10.183000	25.679397	0.000659	20.767774
1747.500393	-3.001500	3.409300	-10.232000	25.700466	0.000659	20.781824
1748.502232	-3.016800	3.409800	-10.285000	25.680391	0.000658	20.801490
1749.501698	-2.982900	3.410400	-10.172000	25.704665	0.000657	20.765178
1750.507046	-3.009800	3.409000	-10.259000	25.710528	0.000655	20.769644
1751.507038	-3.003200	3.408600	-10.236000	25.712218	0.000657	20.788886
1752.506341	-3.018300	3.408800	-10.288000	25.693557	0.000655	20.768246
1753.506881	-3.005400	3.407800	-10.240000	25.647442	0.000655	20.790681
1754.502612	-2.985800	3.408600	-10.176000	25.619165	0.000655	20.776032
1755.503318	-3.000000	3.406900	-10.219000	25.596107	0.000654	20.770892
1756.501634	-2.979700	3.407600	-10.151000	25.566336	0.000655	20.772762
1757.503844	-2.985700	3.407900	-10.175000	25.546159	0.000652	20.774784
1758.502489	-3.006200	3.406900	-10.241000	25.581669	0.000652	20.763030
1759.501467	-2.979500	3.405700	-10.145000	25.569071	0.000652	20.790681
1760.500703	-2.991900	3.406600	-10.192000	25.599410	0.000651	20.747182
1761.504685	-2.990500	3.404800	-10.181000	25.595211	0.000652	20.786588
1762.504237	-2.996300	3.405100	-10.201000	25.609772	0.000651	20.792677
1763.504669	-2.982400	3.404900	-10.153000	25.592626	0.000650	20.785888
1764.508563	-2.984100	3.405300	-10.161000	25.564919	0.000650	20.781770
1765.503798	-2.987200	3.405300	-10.171000	25.575528	0.000650	20.780097
1766.504847	-3.003000	3.403600	-10.220000	25.560171	0.000651	20.785062
1767.503083	-2.989900	3.404900	-10.178000	25.577739	0.000647	20.788956
1768.505911	-2.993100	3.403900	-10.188000	25.613296	0.000650	20.790053
1769.505749	-3.000200	3.402200	-10.206000	25.588969	0.000647	20.784112
1770.504515	-3.018600	3.402100	-10.268000	25.624626	0.000645	20.788155
1771.506194	-2.988000	3.402500	-10.165000	25.659288	0.000645	20.785036
1772.513213	-3.003700	3.402300	-10.219000	25.656876	0.000646	20.797312
1773.511460	-3.001600	3.401000	-10.208000	25.652452	0.000644	20.792394
1774.506344	-2.989600	3.402700	-10.172000	25.650166	0.000644	20.791047
1775.507139	-3.008700	3.400900	-10.231000	25.656973	0.000642	20.778443
1776.507634	-3.008500	3.401000	-10.231000	25.683832	0.000642	20.784557
1777.509133	-2.990400	3.401400	-10.170000	25.709694	0.000643	20.793463
1778.508823	-3.007000	3.399600	-10.222000	25.736851	0.000645	20.807938
1779.508452	-2.999600	3.399600	-10.195000	25.763333	0.000641	20.794235
1780.509622	-3.002700	3.400200	-10.209000	25.758115	0.000641	20.774295
1781.507627	-2.993500	3.398800	-10.174000	25.769244	0.000640	20.788793
1782.509650	-2.997400	3.399300	-10.187000	25.729813	0.000640	20.799921
1783.508100	-3.017200	3.398300	-10.251000	25.708743	0.000638	20.797724
1784.508660	-3.016200	3.397000	-10.245000	25.736370	0.000640	20.788490
1785.509439	-3.002600	3.397600	-10.201000	25.755027	0.000639	20.788737
1786.509390	-2.995600	3.397100	-10.175000	25.735100	0.000638	20.814240
1787.509476	-3.010500	3.396500	-10.224000	25.711296	0.000635	20.804555
1788.509796	-2.996400	3.397000	-10.178000	25.716836	0.000637	20.791154
1789.511128	-2.981000	3.397700	-10.128000	25.735566	0.000637	20.809019
1790.511927	-2.977600	3.397300	-10.115000	25.725553	0.000638	20.815083
1791.508230	-3.011400	3.396000	-10.225000	25.711462	0.000636	20.793817
1792.512587	-2.999600	3.395700	-10.185000	25.703238	0.000635	20.798833
1793.512949	-3.010300	3.394600	-10.218000	25.693024	0.000638	20.786677
1794.510059	-3.010400	3.394600	-10.219000	25.716825	0.000637	20.790195
1795.512700	-3.027600	3.394000	-10.275000	25.731829	0.000634	20.811903
1796.512934	-2.991200	3.395100	-10.154000	25.735804	0.000636	20.799774
1797.510098	-2.997600	3.394100	-10.173000	25.746759	0.000634	20.790864
1798.512033	-3.004800	3.392800	-10.194000	25.748920	0.000634	20.805837
1799.510393	-3.001600	3.393200	-10.183000	25.712421	0.000633	20.807582
1800.510881	-3.003700	3.393900	-10.194000	25.707077	0.000633	20.809327
1801.511466	-3.016000	3.392100	-10.229000	25.728617	0.000633	20.808677
1802.510436	-2.995000	3.393600	-10.162000	25.745338	0.000634	20.808403
1803.511254	-3.010100	3.391400	-10.207000	25.770951	0.000633	20.807577
1804.508559	-2.976700	3.392000	-10.095000	25.792689	0.000632	20.812818
1805.516122	-3.004200	3.391400	-10.188000	25.822253	0.000631	20.788935
1806.516630	-3.018000	3.391000	-10.233000	25.839865	0.000631	20.808050
1807.511689	-2.974600	3.391200	-10.086000	25.836883	0.000631	20.800312
1808.513437	-3.002600	3.389500	-10.176000	25.861600	0.000630	20.788632
1809.516173	-3.009700	3.389900	-10.202000	25.857154	0.000630	20.814986
1810.510561	-3.017100	3.390000	-10.227000	25.815837	0.000630	20.797664
1811.513955	-3.007100	3.388700	-10.189000	25.808955	0.000629	20.813984
1812.512380	-3.025100	3.388700	-10.251000	25.799440	0.000630	20.796839
1813.513641	-3.020200	3.387800	-10.231000	25.807687	0.000627	20.807969
1814.514601	-3.006700	3.388800	-10.188000	25.800680	0.000627	20.792870
1815.514615	-3.010600	3.388100	-10.199000	25.756556	0.000626	20.804972
1816.513536	-2.980500	3.388200	-10.097000	25.776531	0.000624	20.821716
1817.513582	-2.978000	3.388400	-10.089000	25.804951	0.000625	20.805694
1818.513765	-2.987700	3.388700	-10.124000	25.843432	0.000625	20.808788
1819.511974	-3.009000	3.387000	-10.191000	25.861294	0.000623	20.820567
1820.515983	-3.024100	3.385000	-10.236000	25.891824	0.000625	20.832744
1821.515722	-3.002600	3.386300	-10.167000	25.916986	0.000624	20.821038
1822.515548	-3.001900	3.386400	-10.165000	25.936784	0.000624	20.811531
1823.515212	-2.999400	3.388100	-10.161000	25.904168	0.000622	20.816696
1824.517324	-3.019900	3.385100	-10.222000	25.891299	0.000624	20.817044
1825.514920	-2.974400	3.386400	-10.071000	25.894330	0.000621	20.802071
1826.516015	-2.986700	3.385900	-10.111000	25.932784	0.000622	20.809409
1827.517609	-2.989000	3.384700	-10.116000	25.944036	0.000620	20.797953
1828.517221	-2.997000	3.384100	-10.141000	25.918771	0.000620	20.831366
1829.515518	-2.991000	3.384000	-10.121000	25.923193	0.000622	20.802618
1830.514625	-2.980600	3.384400	-10.086000	25.906922	0.000620	20.822781
1831.517983	-3.014400	3.383300	-10.198000	25.874727	0.000619	20.835957
1832.517654	-3.017100	3.382000	-10.203000	25.862156	0.000620	20.827597
1833.517644	-3.007400	3.381800	-10.169000	25.863770	0.000618	20.812149
1834.518241	-2.993100	3.381500	-10.121000	25.863919	0.000617	20.815144
1835.520714	-3.013200	3.380500	-10.185000	25.822506	0.000619	20.845139
1836.516472	-2.998000	3.382500	-10.139000	25.823523	0.000618	20.825299
1837.521918	-3.008200	3.381300	-10.171000	25.824492	0.000618	20.815367
1838.520927	-3.007000	3.380900	-10.166000	25.831797	0.000615	20.831238
1839.518358	-3.009500	3.379600	-10.170000	25.812717	0.000617	20.811598
1840.525058	-3.006700	3.380600	-10.164000	25.778980	0.000617	20.827495
1841.518701	-3.010600	3.379000	-10.172000	25.789538	0.000615	20.828143
1842.520110	-3.024400	3.378000	-10.215000	25.775153	0.000614	20.834557
1843.518012	-3.008100	3.378500	-10.162000	25.761688	0.000616	20.839050
1844.523549	-3.012000	3.379200	-10.177000	25.770855	0.000615	20.817912
1845.520206	-2.990500	3.378300	-10.102000	25.771030	0.000616	20.828045
1846.522268	-3.003300	3.377900	-10.143000	25.790358	0.000615	20.831813
1847.524305	-3.016500	3.378000	-10.188000	25.787179	0.000612	20.838576
1848.524485	-3.016000	3.378100	-10.187000	25.781788	0.000614	20.827472
1849.522387	-2.987500	3.377900	-10.089000	25.816195	0.000612	20.825050
1850.522738	-3.007400	3.377800	-10.157000	25.774110	0.000614	20.851526
1851.525373	-3.026900	3.376700	-10.219000	25.827176	0.000612	20.829916
1852.522607	-2.975200	3.377100	-10.047000	25.842778	0.000612	20.840372
1853.527352	-3.014100	3.376300	-10.175000	25.846206	0.000611	20.831963
1854.525914	-2.977500	3.377200	-10.055000	25.845884	0.000609	20.853449
1855.525403	-2.982300	3.375200	-10.065000	25.891443	0.000609	20.847060
1856.532141	-3.007100	3.374400	-10.146000	25.921303	0.000609	20.846237
1857.525951	-2.990000	3.375000	-10.090000	25.939758	0.000608	20.839174
1858.524183	-2.980300	3.376000	-10.060000	25.970982	0.000607	20.840671
1859.529284	-3.002000	3.374700	-10.130000	25.948103	0.000606	20.840919
1860.529070	-3.018400	3.372900	-10.179000	25.953545	0.000607	20.856343
1861.525033	-2.998200	3.374500	-10.116000	25.948600	0.000607	20.855168
1862.524832	-3.004000	3.373300	-10.132000	25.967727	0.000606	20.847832
1863.534004	-2.999100	3.372200	-10.112000	25.993412	0.000606	20.862730
1864.526407	-2.997200	3.372800	-10.108000	25.969813	0.000602	20.839497
1865.529652	-3.036900	3.371700	-10.238000	25.932877	0.000604	20.853123
1866.530927	-3.020400	3.370500	-10.179000	25.935509	0.000602	20.857664
1867.529171	-3.000500	3.371500	-10.115000	25.911015	0.000602	20.847282
1868.530948	-2.999500	3.370900	-10.110000	25.957491	0.000602	20.847032
1869.532098	-2.988200	3.371700	-10.074000	25.950063	0.000602	20.844785
1870.532385	-2.987900	3.371300	-10.072000	25.959454	0.000601	20.852796
1871.536021	-2.979500	3.371900	-10.045000	25.959950	0.000602	20.865621
1872.539880	-3.010000	3.369900	-10.143000	25.987919	0.000602	20.873333
1873.534838	-2.987400	3.371600	-10.069000	25.993035	0.000602	20.848128
1874.532476	-3.003500	3.369000	-10.118000	26.023016	0.000601	20.850748
1875.535551	-3.010700	3.369400	-10.143000	25.963426	0.000600	20.883338
1876.533808	-3.012800	3.368400	-10.148000	25.976986	0.000600	20.863297
1877.534826	-2.991000	3.368900	-10.074000	26.005677	0.000599	20.850871
1878.539770	-2.995000	3.369700	-10.090000	25.984711	0.000599	20.868213
1879.537889	-3.023400	3.368100	-10.181000	25.994373	0.000597	20.867014
1880.534064	-3.027800	3.366700	-10.192000	25.941464	0.000598	20.867438
1881.537920	-2.988900	3.368900	-10.068000	25.853450	0.000597	20.864843
1882.541701	-2.990500	3.368600	-10.073000	25.845725	0.000597	20.869410
1883.541306	-3.006500	3.367000	-10.122000	25.829947	0.000597	20.866837
1884.538432	-2.996100	3.366700	-10.086000	25.876577	0.000594	20.860100
1885.539023	-2.997500	3.365800	-10.088000	25.886860	0.000595	20.877067
1886.542281	-2.982800	3.366800	-10.042000	25.917961	0.000594	20.865638
1887.537147	-3.013200	3.365100	-10.139000	25.928319	0.000594	20.874621
1888.539352	-2.979300	3.365700	-10.026000	25.931796	0.000593	20.854881
1889.544313	-3.013800	3.365200	-10.140000	25.948388	0.000594	20.853533
1890.540457	-2.988500	3.364500	-10.054000	25.976655	0.000593	20.855378
1891.544051	-2.996300	3.364400	-10.080000	25.992676	0.000591	20.863413
1892.541241	-3.000800	3.364100	-10.094000	25.998115	0.000590	20.838533
1893.539180	-3.005600	3.364100	-10.110000	26.010955	0.000592	20.867553
1894.541399	-3.008300	3.364200	-10.119000	25.981271	0.000590	20.880404
1895.543940	-2.988700	3.364900	-10.055000	25.967609	0.000590	20.852454
1896.542209	-2.995500	3.363700	-10.075000	25.917579	0.000590	20.863832
1897.539422	-3.012800	3.363500	-10.133000	25.885956	0.000587	20.878530
1898.537935	-3.004500	3.362000	-10.099000	25.853114	0.000587	20.874462
1899.539783	-2.995500	3.362100	-10.070000	25.839673	0.000585	20.882770
1900.539200	-3.004100	3.362700	-10.100000	25.823151	0.000586	20.896992
1901.540860	-3.007700	3.360900	-10.108000	25.833982	0.000586	20.896018
1902.539400	-3.002600	3.362200	-10.094000	25.849061	0.000585	20.877976
1903.535508	-2.996300	3.360100	-10.067000	25.897525	0.000585	20.876402
1904.540544	-3.019300	3.360600	-10.146000	25.918441	0.000585	20.890774
1905.538644	-2.998000	3.360500	-10.073000	25.938512	0.000586	20.879645
1906.539763	-2.999900	3.359700	-10.076000	25.935679	0.000584	20.869213
1907.539234	-2.989300	3.360800	-10.045000	25.983420	0.000583	20.864072
1908.540674	-2.999900	3.360600	-10.080000	25.960516	0.000583	20.871880
1909.540468	-2.992900	3.358500	-10.051000	25.963224	0.000582	20.886927
1910.540249	-2.997100	3.359000	-10.066000	25.937363	0.000582	20.884181
1911.544067	-3.010900	3.358800	-10.112000	25.883879	0.000581	20.879288
1912.541819	-3.004800	3.359300	-10.093000	25.883283	0.000581	20.885327
1913.545418	-3.003600	3.359200	-10.089000	25.872923	0.000580	20.885825
1914.545895	-3.006800	3.356800	-10.092000	25.907949	0.000582	20.876916
1915.541896	-2.979300	3.359200	-10.007000	25.906781	0.000579	20.889018
1916.541112	-2.993100	3.357500	-10.049000	25.947294	0.000580	20.891311
1917.543541	-3.000500	3.356300	-10.069000	25.973723	0.000578	20.873769
1918.542738	-2.988600	3.356700	-10.031000	25.981249	0.000578	20.895078
1919.541044	-2.986400	3.356200	-10.022000	25.972455	0.000580	20.898571
1920.549919	-3.002200	3.356300	-10.076000	25.950694	0.000578	20.889038
1921.540657	-2.978200	3.356000	-9.993900	25.937429	0.000579	20.886617
1922.539935	-2.972600	3.355900	-9.975000	25.979730	0.000579	20.870321
1923.545164	-3.022400	3.354000	-10.136000	25.976251	0.000578	20.911393
1924.549396	-3.025300	3.353800	-10.146000	25.990857	0.000576	20.879128
1925.543073	-2.994700	3.354100	-10.043000	25.973468	0.000578	20.899589
1926.548407	-3.026900	3.353100	-10.148000	25.968002	0.000577	20.900262
1927.541972	-2.996300	3.353600	-10.048000	25.957942	0.000576	20.909594
1928.546655	-3.007700	3.352100	-10.080000	25.947681	0.000577	20.911139
1929.544125	-3.000700	3.353700	-10.061000	25.875145	0.000576	20.921245
1930.544187	-3.018400	3.351900	-10.117000	25.863692	0.000576	20.893147
1931.544903	-2.982700	3.352400	-9.998200	25.850625	0.000577	20.883814
1932.545823	-2.986600	3.352200	-10.010000	25.848289	0.000574	20.883364
1933.550181	-2.994800	3.351300	-10.035000	25.815372	0.000575	20.907669
1934.550673	-2.989400	3.352400	-10.021000	25.799968	0.000573	20.898834
1935.546007	-3.023700	3.348700	-10.125000	25.799843	0.000574	20.880218
1936.549838	-2.970500	3.352700	-9.956700	25.789136	0.000573	20.901229
1937.550231	-2.998700	3.350900	-10.047000	25.813383	0.000573	20.903774
1938.545997	-3.019200	3.348900	-10.110000	25.846820	0.000573	20.916499
1939.546243	-2.992900	3.351700	-10.030000	25.909074	0.000572	20.911234
1940.548688	-3.001300	3.349600	-10.052000	25.950583	0.000574	20.898883
1941.545117	-3.001200	3.350300	-10.053000	25.948347	0.000572	20.911808
1942.556290	-3.009900	3.348700	-10.078000	25.977956	0.000571	20.903149
1943.548451	-3.015700	3.348200	-10.097000	25.969709	0.000570	20.907665
1944.546922	-3.002500	3.348300	-10.053000	25.939429	0.000568	20.909487
1945.547043	-3.000300	3.347700	-10.043000	25.950855	0.000571	20.906742
1946.548816	-2.998600	3.349500	-10.043000	25.975769	0.000569	20.904745
1947.547133	-2.991700	3.348700	-10.017000	26.009576	0.000569	20.903149
1948.546059	-2.978400	3.347200	-9.969100	26.005751	0.000568	20.894565
1949.549859	-3.011900	3.346800	-10.078000	26.036303	0.000568	20.908190
1950.552487	-2.996200	3.346300	-10.025000	26.041742	0.000568	20.891845
1951.547892	-3.019300	3.347400	-10.106000	26.023461	0.000568	20.891496
1952.551289	-3.015300	3.346300	-10.089000	26.024803	0.000567	20.903275
1953.549750	-2.990300	3.345700	-10.004000	26.069885	0.000567	20.913007
1954.552154	-3.011300	3.344600	-10.071000	26.077312	0.000567	20.902453
1955.548268	-2.999500	3.344900	-10.032000	26.040552	0.000565	20.895391
1956.547329	-2.999400	3.345800	-10.035000	25.977287	0.000565	20.884460
1957.546387	-3.013400	3.343500	-10.074000	25.962160	0.000565	20.885859
1958.550883	-3.017500	3.342500	-10.084000	25.942115	0.000564	20.886110
1959.552955	-2.996100	3.343400	-10.016000	25.901177	0.000563	20.872484
1960.550349	-3.000800	3.343300	-10.032000	25.936651	0.000562	20.897214
1961.549553	-3.008200	3.343100	-10.056000	25.968943	0.000563	20.891251
1962.553202	-3.009300	3.343200	-10.058000	25.977463	0.000562	20.869940
1963.551329	-3.004800	3.342000	-10.041000	26.006104	0.000562	20.882118
1964.549665	-3.010000	3.343100	-10.062000	25.986207	0.000561	20.884414
1965.556958	-3.007800	3.342100	-10.050000	25.977340	0.000559	20.891626
1966.550797	-3.005800	3.340900	-10.041000	25.990107	0.000559	20.892599
1967.551977	-3.002400	3.340800	-10.029000	26.012910	0.000558	20.861457
1968.553543	-2.995900	3.341200	-10.009000	26.022747	0.000558	20.892201
1969.554796	-2.991800	3.340100	-9.991300	26.040233	0.000559	20.870891
1970.553903	-2.994000	3.340000	-9.999100	26.058638	0.000558	20.881321
1971.555971	-3.010800	3.340800	-10.057000	26.044952	0.000554	20.875632
1972.561257	-2.971900	3.341200	-9.927800	26.050193	0.000555	20.884690
1973.556181	-3.014300	3.338700	-10.062000	26.053273	0.000555	20.868345
1974.557500	-3.012900	3.338800	-10.059000	26.050466	0.000556	20.889705
1975.556082	-3.017400	3.336900	-10.067000	26.023317	0.000554	20.891826
1976.556769	-3.001100	3.338100	-10.017000	26.020386	0.000554	20.868020
1977.557226	-3.001100	3.338000	-10.017000	26.046838	0.000551	20.865673
1978.563516	-3.020900	3.336700	-10.079000	26.053916	0.000552	20.887482
1979.558598	-3.002400	3.336800	-10.017000	26.020707	0.000553	20.870239
1980.558442	-2.987800	3.339000	-9.974500	25.999495	0.000551	20.861729
1981.560059	-3.002100	3.337400	-10.018000	25.990006	0.000549	20.868791
1982.557113	-2.988500	3.336700	-9.970500	26.009727	0.000549	20.856837
1983.559629	-3.012400	3.335700	-10.047000	26.058210	0.000549	20.861452
1984.559188	-2.982800	3.335100	-9.947100	26.057142	0.000549	20.855164
1985.560093	-2.990500	3.336200	-9.975200	26.075347	0.000550	20.890049
1986.574451	-2.996500	3.335300	-9.993000	26.032178	0.000550	20.868962
1987.557291	-3.001600	3.334500	-10.008000	25.997850	0.000548	20.856284
1988.562679	-2.989200	3.333700	-9.963700	25.958381	0.000546	20.866416
1989.559610	-2.980600	3.334900	-9.938500	25.940594	0.000547	20.872254
1990.563437	-3.003200	3.333800	-10.010000	25.928620	0.000547	20.858803
1991.561333	-3.002800	3.334500	-10.012000	25.950281	0.000548	20.872977
1992.558706	-3.010300	3.333900	-10.034000	25.969581	0.000546	20.870081
1993.561101	-2.985300	3.333100	-9.949100	25.993252	0.000545	20.857354
1994.565791	-3.024500	3.332500	-10.078000	25.986471	0.000545	20.866662
1995.566733	-2.990900	3.332200	-9.965700	26.045959	0.000546	20.862894
1996.563653	-3.020800	3.330900	-10.060000	26.060141	0.000546	20.860074
1997.566524	-2.988300	3.332000	-9.955900	26.062053	0.000542	20.842081
1998.564142	-2.995600	3.332500	-9.981800	26.035278	0.000545	20.860223
1999.564890	-3.006800	3.331600	-10.016000	26.042381	0.000541	20.847445
2000.565058	-3.007900	3.330600	-10.018000	26.049659	0.000543	20.849068
2001.567572	-2.974300	3.332900	-9.911800	26.058203	0.000543	20.855282
2002.561885	-2.989100	3.330000	-9.952900	26.073155	0.000542	20.846123
2003.562265	-3.001000	3.331000	-9.995900	26.109368	0.000542	20.848370
2004.563242	-2.993500	3.330600	-9.968900	26.112025	0.000540	20.852462
2005.564140	-2.997800	3.329900	-9.981000	26.146150	0.000542	20.866362
2006.564940	-3.010000	3.330200	-10.023000	26.138501	0.000541	20.858202
2007.565700	-3.004000	3.329200	-10.000000	26.139271	0.000540	20.836691
2008.567031	-3.010900	3.328600	-10.021000	26.134900	0.000540	20.856955
2009.566868	-2.986400	3.330200	-9.943800	26.132465	0.000542	20.839336
2010.568266	-3.005400	3.328000	-10.000000	26.161003	0.000538	20.849993
2011.578634	-2.981300	3.328100	-9.921300	26.166988	0.000538	20.859800
2012.569410	-3.007800	3.327200	-10.007000	26.189365	0.000537	20.852414
2013.571631	-2.996900	3.326100	-9.966400	26.140937	0.000536	20.836469
2014.573290	-2.999500	3.327500	-9.979500	26.127377	0.000536	20.833749
2015.571243	-2.992800	3.326600	-9.955200	26.125911	0.000534	20.847923
2016.572890	-3.002300	3.327200	-9.988200	26.146177	0.000533	20.845053
2017.569583	-3.001800	3.325400	-9.982000	26.129488	0.000533	20.857681
2018.569875	-3.025400	3.325100	-10.059000	26.113544	0.000534	20.855410
2019.570678	-2.965000	3.327900	-9.866300	26.111756	0.000536	20.852665
2020.574465	-3.006300	3.326100	-9.998100	26.120771	0.000531	20.847026
2021.573623	-3.004000	3.323600	-9.982800	26.136940	0.000532	20.868487
2022.575484	-3.001500	3.324100	-9.976000	26.135400	0.000531	20.832802
2023.573727	-2.980900	3.324600	-9.908300	26.152388	0.000531	20.827587
2024.577341	-2.975000	3.323000	-9.884800	26.173325	0.000531	20.858107
2025.578840	-2.967100	3.323400	-9.859800	26.219392	0.000531	20.843708
2026.573642	-3.001600	3.322400	-9.971600	26.232207	0.000529	20.844257
2027.574486	-2.975500	3.323600	-9.888900	26.242388	0.000528	20.826040
2028.577971	-3.004900	3.322600	-9.983500	26.222994	0.000528	20.848749
2029.579272	-3.005800	3.321900	-9.984300	26.213382	0.000528	20.832453
2030.579285	-3.006600	3.322500	-9.988900	26.177621	0.000526	20.845355
2031.581104	-2.995200	3.323200	-9.952400	26.147869	0.000527	20.833477
2032.582229	-3.006500	3.321300	-9.984300	26.142082	0.000526	20.848998
2033.582164	-3.000400	3.320500	-9.962000	26.144118	0.000526	20.835872
2034.578750	-3.001100	3.320100	-9.962500	26.121691	0.000525	20.840838
2035.583526	-3.012500	3.318600	-9.996600	26.084959	0.000525	20.848974
2036.579506	-2.989200	3.320100	-9.923900	26.076835	0.000526	20.828484
2037.582300	-2.994500	3.319500	-9.939700	26.096879	0.000526	20.828235
2038.579982	-2.990000	3.320400	-9.927200	26.128818	0.000524	20.829508
2039.584850	-2.985600	3.319300	-9.907400	26.168803	0.000521	20.851193
2040.585203	-3.026900	3.319100	-10.045000	26.180923	0.000522	20.816905
2041.584888	-3.002900	3.317900	-9.961900	26.234664	0.000522	20.833450
2042.589749	-2.985300	3.319600	-9.908400	26.253064	0.000522	20.820173
2043.582623	-3.012000	3.317900	-9.991700	26.283212	0.000521	20.857107
2044.588141	-3.005600	3.317400	-9.970000	26.289121	0.000520	20.818950
2045.587617	-2.996100	3.316200	-9.935000	26.267914	0.000520	20.804750
2046.588580	-2.993100	3.316500	-9.926300	26.262624	0.000520	20.811763
2047.590522	-2.987800	3.316400	-9.907900	26.252815	0.000520	20.826561
2048.587391	-2.997300	3.315700	-9.936200	26.223189	0.000519	20.814808
2049.592006	-2.999500	3.315200	-9.942200	26.243975	0.000519	20.846600
2050.589894	-2.990900	3.316000	-9.916600	26.218745	0.000521	20.824565
2051.593680	-3.005400	3.313800	-9.958700	26.217453	0.000519	20.833699
2052.593188	-2.992800	3.315800	-9.922300	26.249861	0.000519	20.821696
2053.592175	-3.010700	3.313500	-9.974800	26.253089	0.000519	20.833474
2054.593791	-3.005600	3.312900	-9.955700	26.252469	0.000517	20.825739
2055.593042	-2.998600	3.312400	-9.930900	26.292648	0.000518	20.825340
2056.596668	-3.015000	3.312100	-9.985200	26.298161	0.000517	20.833724
2057.600134	-2.999200	3.313000	-9.935200	26.323068	0.000517	20.826513
2058.598798	-3.022200	3.312000	-10.008000	26.330195	0.000516	20.828459
2059.598582	-3.002400	3.312100	-9.942600	26.343355	0.000515	20.820349
2060.592620	-2.994400	3.312300	-9.916600	26.352469	0.000511	20.838043
2061.591386	-3.022200	3.310900	-10.005000	26.347950	0.000514	20.820226
2062.595335	-2.965300	3.312100	-9.820000	26.323715	0.000513	20.822422
2063.591774	-3.007200	3.310200	-9.953700	26.329377	0.000511	20.819103
2064.593884	-2.970700	3.312600	-9.839700	26.307600	0.000512	20.832304
2065.597771	-3.002900	3.310800	-9.940500	26.348721	0.000511	20.826690
2066.601967	-3.002200	3.308600	-9.932300	26.381026	0.000510	20.826915
2067.594709	-2.992300	3.310100	-9.903700	26.384453	0.000507	20.855963
2068.600930	-3.007600	3.310600	-9.955800	26.380356	0.000508	20.828612
2069.598070	-2.999900	3.308500	-9.922800	26.364912	0.000506	20.845806
2070.594354	-2.984100	3.309500	-9.875300	26.363694	0.000507	20.825617
2071.600356	-3.006800	3.308900	-9.948700	26.363894	0.000508	20.825344
2072.596522	-3.005000	3.307700	-9.938200	26.363000	0.000505	20.822075
2073.608985	-2.997100	3.308300	-9.913700	26.396769	0.000505	20.832306
2074.597248	-2.994500	3.307800	-9.903600	26.394038	0.000503	20.829087
2075.597162	-3.008400	3.307800	-9.949500	26.397364	0.000503	20.828637
2076.596349	-3.019800	3.305700	-9.981100	26.374869	0.000502	20.807451
2077.601367	-2.975100	3.307400	-9.839000	26.370623	0.000501	20.823098
2078.599225	-3.003200	3.306200	-9.928500	26.347281	0.000502	20.828562
2079.597528	-3.005700	3.304300	-9.930600	26.345642	0.000502	20.823122
2080.601419	-3.013100	3.304800	-9.956100	26.368039	0.000500	20.825242
2081.598189	-2.995100	3.305800	-9.898500	26.331015	0.000499	20.807947
2082.598103	-2.987200	3.305700	-9.873500	26.323689	0.000500	20.821921
2083.596688	-3.006500	3.303700	-9.931300	26.315469	0.000498	20.793747
2084.600200	-2.989400	3.304600	-9.877400	26.309187	0.000500	20.826313
2085.598171	-3.000700	3.303000	-9.909700	26.343404	0.000497	20.822295
2086.597261	-2.970900	3.304100	-9.813800	26.337766	0.000498	20.799560
2087.602787	-3.003000	3.303600	-9.919300	26.391325	0.000497	20.788902
2088.596490	-3.002700	3.302400	-9.914900	26.341366	0.000497	20.797013
2089.602456	-2.962700	3.303200	-9.785600	26.320903	0.000496	20.805372
2090.602195	-2.990800	3.302600	-9.876900	26.318892	0.000496	20.802876
2091.604250	-3.021300	3.300100	-9.968700	26.321995	0.000495	20.805047
2092.606861	-2.987600	3.302400	-9.865300	26.346331	0.000492	20.800580
2093.601722	-3.034700	3.300500	-10.014000	26.376276	0.000492	20.798908
2094.602475	-3.009600	3.299900	-9.929500	26.400683	0.000492	20.819645
2095.599010	-3.003700	3.301500	-9.915800	26.418088	0.000491	20.790671
2096.604510	-3.002800	3.300000	-9.908300	26.462606	0.000491	20.800329
2097.600989	-3.004300	3.298500	-9.908500	26.473604	0.000490	20.806168
2098.604062	-2.991800	3.298900	-9.868800	26.461389	0.000490	20.808114
2099.606493	-2.999400	3.297700	-9.890000	26.456794	0.000488	20.811082
2100.602931	-2.982600	3.298800	-9.838100	26.451356	0.000487	20.798979
2101.607764	-3.009600	3.299500	-9.928300	26.430723	0.000488	20.799578
2102.603821	-2.981100	3.298500	-9.832600	26.385260	0.000487	20.791816
2103.607784	-3.021100	3.297900	-9.962200	26.365519	0.000486	20.810382
2104.606257	-3.000000	3.296800	-9.889300	26.336441	0.000485	20.781158
2105.601986	-2.981200	3.297600	-9.829700	26.349502	0.000485	20.794285
2106.603539	-2.979900	3.297900	-9.826500	26.360352	0.000486	20.794284
2107.612287	-2.995500	3.295300	-9.869600	26.389403	0.000485	20.790290
2108.607198	-3.020400	3.296600	-9.956300	26.437298	0.000482	20.782952
2109.609414	-2.977500	3.296400	-9.813400	26.436404	0.000482	20.781105
2110.602439	-3.005200	3.295300	-9.902100	26.423069	0.000483	20.782875
2111.604337	-3.010800	3.295500	-9.921300	26.402758	0.000483	20.812247
2112.609232	-2.996100	3.296100	-9.874000	26.422572	0.000482	20.783324
2113.608914	-3.027600	3.294700	-9.974000	26.463091	0.000479	20.786592
2114.609333	-3.011200	3.295200	-9.922200	26.476449	0.000479	20.776784
2115.604470	-2.989400	3.293900	-9.845300	26.440421	0.000478	20.792255
2116.607067	-3.003500	3.293000	-9.889700	26.421078	0.000479	20.777555
2117.608211	-3.005300	3.292900	-9.895600	26.444367	0.000477	20.781997
2118.606732	-3.013500	3.291000	-9.916700	26.439698	0.000476	20.797692
2119.607780	-2.991100	3.292300	-9.845800	26.459412	0.000477	20.788583
2120.613823	-2.992700	3.291600	-9.850000	26.487938	0.000475	20.782643
2121.614275	-2.992500	3.291600	-9.849200	26.489352	0.000475	20.783590
2122.607287	-2.986600	3.292600	-9.832800	26.537714	0.000473	20.769614
2123.608448	-2.980200	3.291100	-9.805500	26.547048	0.000476	20.782790
2124.603984	-2.983100	3.290600	-9.814200	26.554669	0.000473	20.769588
2125.626957	-2.991900	3.290600	-9.844400	26.552409	0.000474	20.752616
2126.607316	-3.013300	3.289400	-9.910800	26.536868	0.000473	20.766866
2127.611075	-2.992600	3.288800	-9.840500	26.576961	0.000472	20.771133
2128.608322	-2.991200	3.289700	-9.838200	26.575471	0.000474	20.789076
2129.608205	-3.009800	3.288700	-9.897400	26.556155	0.000473	20.762072
2130.609001	-3.016800	3.288700	-9.920100	26.592326	0.000472	20.776147
2131.607892	-3.019400	3.286700	-9.922600	26.616382	0.000471	20.777570
2132.609606	-3.010300	3.288700	-9.898900	26.602578	0.000471	20.776970
2133.610956	-2.990500	3.287500	-9.830800	26.600866	0.000470	20.769558
2134.608750	-2.999900	3.286500	-9.856800	26.554715	0.000471	20.772952
2135.620317	-3.000900	3.288600	-9.866900	26.539570	0.000470	20.773850
2136.611223	-2.977600	3.286600	-9.785300	26.515141	0.000470	20.787701
2137.612086	-2.996300	3.286400	-9.846300	26.524177	0.000468	20.780188
2138.615271	-3.008900	3.285100	-9.882400	26.524549	0.000470	20.759225
2139.612761	-3.011000	3.285500	-9.891700	26.497786	0.000467	20.765515
2140.608926	-2.999100	3.283800	-9.847500	26.474225	0.000467	20.773601
2141.611553	-2.993900	3.284600	-9.831700	26.466553	0.000469	20.763992
2142.609235	-3.010700	3.282300	-9.881000	26.494559	0.000467	20.778392
2143.609318	-3.019900	3.283700	-9.915100	26.509431	0.000468	20.753037
2144.611551	-2.998400	3.282600	-9.842000	26.542525	0.000465	20.773501
2145.612776	-2.988700	3.284300	-9.814400	26.565068	0.000466	20.776247
2146.611775	-3.000300	3.282000	-9.846200	26.602182	0.000467	20.768036
2147.611734	-3.034800	3.281900	-9.959000	26.629564	0.000465	20.753837
2148.617367	-3.026400	3.280500	-9.926700	26.638327	0.000464	20.756482
2149.610630	-3.012900	3.281800	-9.886400	26.576489	0.000466	20.772555
2150.612660	-2.997900	3.282000	-9.838000	26.534136	0.000462	20.758904
2151.614066	-3.024400	3.280600	-9.920500	26.474973	0.000463	20.780043
2152.613953	-3.006700	3.281800	-9.866200	26.465712	0.000463	20.758406
2153.615972	-2.995300	3.280600	-9.824400	26.470008	0.000459	20.761301
2154.615128	-3.009700	3.279400	-9.868700	26.475967	0.000460	20.769188
2155.613635	-2.989700	3.280200	-9.805600	26.471325	0.000461	20.765944
2156.612903	-2.983400	3.280300	-9.786000	26.437981	0.000462	20.755663
2157.612211	-2.996200	3.279000	-9.823800	26.437932	0.000459	20.785486
2158.622220	-2.990100	3.278800	-9.802900	26.442575	0.000458	20.761703
2159.614062	-3.002300	3.278400	-9.842000	26.395574	0.000458	20.772311
2160.611227	-3.003900	3.278800	-9.848500	26.440491	0.000456	20.775256
2161.616954	-3.001400	3.277200	-9.835700	26.427109	0.000455	20.768918
2162.614300	-3.006800	3.278800	-9.856900	26.415265	0.000454	20.775032
2163.615328	-2.991000	3.278800	-9.806200	26.404987	0.000455	20.790780
2164.619387	-3.005300	3.276500	-9.845900	26.424379	0.000454	20.788933
2165.618997	-3.008200	3.275400	-9.851700	26.436447	0.000451	20.772614
2166.615963	-3.012000	3.275400	-9.864100	26.468773	0.000452	20.763379
2167.614834	-2.993800	3.275700	-9.804800	26.467831	0.000452	20.754845
2168.615445	-3.002000	3.276300	-9.834100	26.455192	0.000450	20.785291
2169.615158	-3.011000	3.275200	-9.860200	26.434511	0.000449	20.786789
2170.616144	-3.001800	3.274000	-9.827700	26.446106	0.000450	20.788012
2171.614096	-3.003100	3.273800	-9.830800	26.501596	0.000449	20.763180
2172.617730	-2.977500	3.275200	-9.750800	26.511850	0.000450	20.771591
2173.618407	-3.012400	3.274100	-9.861400	26.541295	0.000448	20.798818
2174.631934	-3.010000	3.272500	-9.849500	26.562273	0.000447	20.786240
2175.620344	-3.020200	3.272200	-9.881200	26.572750	0.000447	20.770693
2176.616092	-2.990500	3.272300	-9.784300	26.594299	0.000447	20.775759
2177.619453	-3.029000	3.270200	-9.904100	26.633125	0.000446	20.790608
2178.618729	-3.007200	3.271700	-9.837700	26.605221	0.000445	20.761134
2179.619039	-3.030100	3.271400	-9.910700	26.627861	0.000446	20.779627
2180.619411	-3.010200	3.270700	-9.843500	26.654995	0.000445	20.771817
2181.619007	-3.005400	3.270100	-9.827800	26.648144	0.000442	20.757816
2182.619154	-3.010600	3.270000	-9.843700	26.660257	0.000444	20.776633
2183.619186	-3.036300	3.269900	-9.927300	26.615127	0.000444	20.770618
2184.618233	-2.973300	3.270000	-9.721000	26.580720	0.000442	20.770644
2185.618363	-2.984900	3.269600	-9.759100	26.596385	0.000443	20.771693
2186.619287	-2.975400	3.270300	-9.730100	26.547032	0.000438	20.762384
2187.618168	-2.975700	3.269600	-9.727300	26.531119	0.000443	20.777683
2188.620399	-3.000600	3.268200	-9.804800	26.511481	0.000440	20.784022
2189.621337	-2.983600	3.268500	-9.749100	26.512251	0.000439	20.762036
2190.622886	-3.000300	3.268000	-9.804100	26.517491	0.000439	20.757346
2191.625223	-3.001600	3.266600	-9.803600	26.522828	0.000438	20.779781
2192.623197	-3.007200	3.265700	-9.818500	26.556916	0.000438	20.775165
2193.625548	-3.005200	3.267900	-9.819600	26.571217	0.000438	20.775316
2194.623737	-2.997700	3.265700	-9.788400	26.582934	0.000436	20.783776
2195.624195	-2.989500	3.265200	-9.759800	26.554212	0.000437	20.768653
2196.626995	-2.994100	3.264900	-9.774200	26.513621	0.000437	20.774793
2197.626925	-3.006500	3.263700	-9.809900	26.511734	0.000436	20.783802
2198.625913	-3.000600	3.263400	-9.789700	26.519307	0.000434	20.800898
2199.624218	-3.003500	3.262500	-9.797600	26.530629	0.000434	20.780036
2200.626542	-2.989700	3.263800	-9.756500	26.533659	0.000435	20.785926
2201.625169	-3.013700	3.262300	-9.830700	26.505208	0.000434	20.791467
2202.626525	-2.983100	3.263600	-9.734800	26.495650	0.000432	20.799878
2203.626752	-2.967400	3.261900	-9.678000	26.534729	0.000432	20.784156
2204.627781	-3.031500	3.260500	-9.882900	26.560449	0.000432	20.798631
2205.628199	-3.016200	3.259700	-9.831000	26.623308	0.000431	20.791645
2206.630593	-2.985400	3.261900	-9.736300	26.657713	0.000432	20.794938
2207.625998	-3.018300	3.260900	-9.841300	26.626114	0.000431	20.796836
2208.631091	-3.019900	3.259400	-9.841400	26.595879	0.000429	20.780667
2209.638287	-3.026000	3.259500	-9.862500	26.592701	0.000428	20.797387
2210.633545	-3.001300	3.258500	-9.778800	26.596649	0.000427	20.800881
2211.628247	-3.018200	3.259800	-9.837900	26.576467	0.000428	20.794344
2212.627650	-3.025100	3.259000	-9.857500	26.572520	0.000427	20.797963
2213.628905	-3.021600	3.256800	-9.839000	26.579051	0.000427	20.794571
2214.630405	-3.016400	3.257000	-9.823200	26.593276	0.000427	20.774257
2215.629974	-3.009100	3.258300	-9.803500	26.630341	0.000425	20.772636
2216.632638	-3.007300	3.257300	-9.794100	26.672492	0.000424	20.783243
2217.633039	-2.991200	3.257000	-9.740900	26.686221	0.000423	20.805105
2218.630443	-2.994500	3.258300	-9.755800	26.703473	0.000423	20.794000
2219.635843	-2.994200	3.257000	-9.750700	26.739391	0.000422	20.796920
2220.631510	-3.002900	3.256900	-9.779400	26.781241	0.000422	20.797270
2221.635859	-2.960800	3.257100	-9.642900	26.783451	0.000418	20.802812
2222.633174	-3.029100	3.255000	-9.859200	26.807378	0.000419	20.806954
2223.634660	-3.019500	3.256600	-9.829700	26.835501	0.000419	20.801091
2224.633910	-3.006200	3.255900	-9.786500	26.854215	0.000418	20.811374
2225.637124	-2.992000	3.255000	-9.738300	26.864491	0.000417	20.797050
2226.637846	-3.010700	3.253900	-9.794800	26.867073	0.000416	20.823827
2227.634167	-2.988800	3.254000	-9.724300	26.825425	0.000415	20.794280
2228.633940	-3.000300	3.254000	-9.762200	26.751411	0.000417	20.804737
2229.633522	-3.022700	3.251400	-9.825700	26.730139	0.000412	20.806111
2230.638251	-2.996500	3.254200	-9.749000	26.722965	0.000413	20.811225
2231.634228	-2.997800	3.252900	-9.751200	26.699310	0.000412	20.798824
2232.640637	-2.963600	3.252700	-9.638000	26.724084	0.000413	20.808557
2233.638993	-2.997700	3.251500	-9.745600	26.770526	0.000411	20.815895
2234.636986	-2.984500	3.252200	-9.703600	26.796389	0.000409	20.804440
2235.642073	-2.963100	3.251600	-9.633200	26.798300	0.000407	20.830069
2236.643826	-3.017700	3.249800	-9.806300	26.810735	0.000408	20.830244
2237.638667	-2.978000	3.250000	-9.677400	26.806591	0.000408	20.823232
2238.637150	-2.987400	3.248700	-9.703000	26.781075	0.000408	20.826501
2239.642847	-3.020700	3.248300	-9.811300	26.767647	0.000409	20.831018
2240.639263	-3.014800	3.247600	-9.789200	26.731656	0.000406	20.816170
2241.641112	-3.044600	3.245800	-9.881700	26.717309	0.000404	20.825454
2242.640019	-3.033900	3.246800	-9.849800	26.722720	0.000403	20.820462
2243.642924	-3.007000	3.247400	-9.763400	26.751313	0.000402	20.805113
2244.643594	-2.988300	3.247700	-9.704500	26.767870	0.000400	20.835984
2245.639923	-3.018600	3.244900	-9.794000	26.822227	0.000401	20.819039
2246.636928	-3.004000	3.244700	-9.745900	26.830466	0.000402	20.824004
2247.643724	-2.986100	3.244800	-9.688000	26.822102	0.000399	20.816543
2248.643030	-2.979200	3.245800	-9.668900	26.830044	0.000400	20.823106
2249.639146	-2.995000	3.246300	-9.721000	26.885341	0.000399	20.814221
2250.642601	-2.984900	3.243600	-9.680800	26.893060	0.000398	20.830991
2251.648303	-3.000200	3.243000	-9.728500	26.943290	0.000396	20.805637
2252.640327	-2.987000	3.243100	-9.686100	26.938425	0.000395	20.813546
2253.642458	-2.963900	3.244200	-9.614200	26.929043	0.000395	20.824501
2254.644349	-2.990600	3.243000	-9.696400	26.912862	0.000395	20.844264
2255.642429	-3.003900	3.241800	-9.736700	26.895886	0.000394	20.814868
2256.640265	-3.009400	3.240700	-9.751400	26.886628	0.000394	20.837326
2257.643775	-2.950200	3.242800	-9.565400	26.901220	0.000393	20.830662
2258.648143	-2.981600	3.241000	-9.662600	26.917698	0.000392	20.829688
2259.643620	-3.005300	3.240100	-9.736400	26.880570	0.000392	20.824597
2260.643345	-2.985500	3.239800	-9.671900	26.855651	0.000391	20.837473
2261.642984	-2.963200	3.240200	-9.600400	26.826612	0.000391	20.830561
2262.640238	-2.979200	3.239100	-9.649000	26.836266	0.000391	20.840741
2263.641506	-2.997800	3.238500	-9.707300	26.834701	0.000391	20.814038
2264.641332	-2.969300	3.239700	-9.618000	26.825046	0.000391	20.831830
2265.641305	-3.001500	3.237700	-9.716700	26.839018	0.000390	20.835922
2266.652013	-3.007100	3.236200	-9.730600	26.875799	0.000389	20.845878
2267.645692	-3.000600	3.235500	-9.708000	26.893320	0.000387	20.831253
2268.645312	-3.024600	3.234900	-9.782900	26.913572	0.000388	20.821271
2269.643398	-2.993300	3.236200	-9.686000	26.936155	0.000388	20.838764
2270.645089	-2.990100	3.233900	-9.667800	26.944543	0.000387	20.818750
2271.642435	-3.006100	3.235100	-9.723400	26.934392	0.000388	20.845526
2272.646754	-2.990500	3.236300	-9.676000	26.935111	0.000388	20.822542
2273.649863	-2.997800	3.234400	-9.693800	26.925556	0.000386	20.822890
2274.645821	-2.977900	3.233700	-9.628100	26.931734	0.000387	20.827207
2275.649070	-2.996600	3.233000	-9.687300	26.961863	0.000385	20.836640
2276.651413	-2.992700	3.233300	-9.675500	26.943299	0.000386	20.832671
2277.648357	-2.995000	3.233100	-9.682200	26.907165	0.000384	20.825260
2278.649305	-2.982500	3.233000	-9.642100	26.940024	0.000383	20.827956
2279.651394	-3.021100	3.232200	-9.763400	26.919028	0.000382	20.832447
2280.645687	-3.004900	3.231600	-9.709700	26.918855	0.000382	20.829428
2281.645655	-2.980100	3.232100	-9.631200	26.889543	0.000381	20.834568
2282.648578	-2.987600	3.231700	-9.653200	26.865519	0.000378	20.821791
2283.647139	-2.977200	3.230700	-9.617500	26.870061	0.000380	20.860496
2284.649481	-3.012200	3.228100	-9.722600	26.904186	0.000378	20.838860
2285.655028	-2.994000	3.230400	-9.670800	26.940421	0.000379	20.841631
2286.655759	-2.991800	3.229900	-9.661500	26.960994	0.000379	20.847620
2287.652803	-3.017900	3.228900	-9.742000	26.943547	0.000377	20.852361
2288.653801	-2.997300	3.228300	-9.675000	26.914709	0.000378	20.825734
2289.648886	-3.004800	3.228500	-9.700500	26.891357	0.000377	20.825012
2290.655131	-2.972600	3.227900	-9.594300	26.908183	0.000378	20.840508
2291.655795	-2.985600	3.227400	-9.635400	26.911534	0.000376	20.847670
2292.656111	-2.988300	3.226000	-9.639800	26.907787	0.000376	20.839636
2293.655917	-2.999700	3.226000	-9.675900	26.908681	0.000376	20.833422
2294.654710	-2.987600	3.225700	-9.635900	26.937271	0.000374	20.852214
2295.658633	-2.975200	3.226600	-9.598600	26.961443	0.000374	20.841908
2296.655724	-3.007000	3.223100	-9.691500	26.941367	0.000375	20.820772
2297.653415	-3.015700	3.223100	-9.718200	26.919925	0.000372	20.843780
2298.653783	-2.983800	3.223700	-9.618200	26.889772	0.000373	20.854237
2299.658185	-3.019500	3.222700	-9.729100	26.871901	0.000374	20.841010
2300.654426	-3.034300	3.223500	-9.780200	26.911488	0.000371	20.843832
2301.656202	-3.000400	3.222100	-9.666300	26.953009	0.000371	20.863771
2302.657091	-2.992000	3.223200	-9.643200	26.970033	0.000370	20.853390
2303.660330	-2.999700	3.220700	-9.659700	26.972739	0.000370	20.851370
2304.658073	-3.011500	3.219800	-9.694100	26.951521	0.000371	20.847103
2305.659963	-2.988000	3.221500	-9.625600	26.925613	0.000369	20.856138
2306.660040	-3.018000	3.219400	-9.715500	26.871460	0.000368	20.856213
2307.655971	-3.007700	3.220700	-9.686000	26.827505	0.000368	20.846156
2308.661330	-3.005200	3.219900	-9.674200	26.802661	0.000369	20.840143
2309.657875	-3.002100	3.218400	-9.661400	26.810877	0.000368	20.851248
2310.663450	-3.006200	3.219100	-9.676000	26.820831	0.000367	20.861256
2311.667238	-3.003500	3.217900	-9.663900	26.823140	0.000368	20.861207
2312.664374	-2.998000	3.218100	-9.646400	26.854711	0.000368	20.845537
2313.661635	-3.012300	3.216600	-9.688700	26.871292	0.000365	20.856992
2314.668708	-2.996000	3.216400	-9.635700	26.890650	0.000366	20.855594
2315.660922	-3.017100	3.215600	-9.700900	26.943811	0.000366	20.854997
2316.657018	-3.022900	3.215600	-9.718700	26.973666	0.000365	20.867949
2317.660564	-3.015400	3.214200	-9.691200	26.985257	0.000363	20.868699
2318.667298	-3.009900	3.212300	-9.667000	27.016923	0.000364	20.870197
2319.661358	-2.968700	3.215800	-9.546200	27.060622	0.000362	20.874314
2320.663061	-2.997600	3.215900	-9.637900	27.082112	0.000363	20.877909
2321.666906	-2.988000	3.214700	-9.604500	27.108789	0.000363	20.872496
2322.660683	-2.987400	3.213900	-9.599900	27.093753	0.000362	20.878236
2323.664618	-2.996400	3.212300	-9.624100	27.098492	0.000359	20.871623
2324.663586	-2.992300	3.211800	-9.608900	27.079337	0.000359	20.868481
2325.660751	-3.009600	3.211200	-9.662400	27.074252	0.000358	20.890391
2326.660683	-2.980500	3.211400	-9.569300	27.119910	0.000361	20.861871
2327.664037	-3.010500	3.210100	-9.663200	27.128546	0.000360	20.879089
2328.667459	-3.002100	3.211500	-9.640100	27.140605	0.000359	20.893114
2329.662762	-2.997200	3.210400	-9.621500	27.108424	0.000355	20.887775
2330.662405	-2.977200	3.208900	-9.552400	27.081774	0.000356	20.905068
2331.663643	-3.014500	3.207600	-9.668300	27.104406	0.000355	20.888002
2332.662802	-2.974600	3.209700	-9.546600	27.095201	0.000354	20.876848
2333.664078	-3.000900	3.207800	-9.625600	27.102943	0.000356	20.886530
2334.664063	-2.989800	3.207000	-9.586600	27.103789	0.000354	20.894492
2335.662325	-2.992300	3.205800	-9.591500	27.107163	0.000353	20.885558
2336.669879	-3.009600	3.206200	-9.648500	27.083690	0.000353	20.877125
2337.667824	-3.001400	3.206200	-9.621900	27.070862	0.000351	20.910688
2338.668879	-3.000700	3.204600	-9.614700	27.093716	0.000351	20.895268
2339.671536	-3.049200	3.203500	-9.766400	27.089721	0.000350	20.891724
2340.668833	-2.998100	3.202700	-9.600900	27.114486	0.000350	20.901457
2341.669803	-2.985400	3.203900	-9.564400	27.110839	0.000348	20.895419
2342.668124	-3.005900	3.204800	-9.632400	27.087937	0.000350	20.895145
2343.665743	-3.001100	3.203500	-9.613400	27.056522	0.000349	20.897690
2344.670856	-3.000200	3.201500	-9.604100	27.072726	0.000348	20.880797
2345.668499	-2.998200	3.202400	-9.599900	27.101288	0.000345	20.900037
2346.671223	-3.014500	3.201200	-9.649100	27.122057	0.000345	20.914760
2347.674847	-2.988300	3.201900	-9.567300	27.093423	0.000343	20.917256
2348.670235	-3.003500	3.201200	-9.613500	27.089701	0.000344	20.903557
2349.672177	-3.007000	3.199200	-9.619100	27.101289	0.000341	20.893875
2350.679193	-2.996400	3.200500	-9.589200	27.125035	0.000343	20.904954
2351.682751	-3.010100	3.198700	-9.627900	27.144564	0.000342	20.901837
2352.668027	-2.983400	3.198600	-9.542000	27.173569	0.000342	20.915835
2353.671128	-3.010000	3.197800	-9.624400	27.210167	0.000341	20.906179
2354.671607	-3.007000	3.197900	-9.615200	27.216393	0.000341	20.917182
2355.672767	-3.007000	3.196200	-9.610000	27.247034	0.000339	20.898692
2356.672295	-2.991200	3.197300	-9.563300	27.260110	0.000338	20.914213
2357.675351	-2.989700	3.196100	-9.554400	27.282786	0.000339	20.912367
2358.672434	-3.007900	3.196800	-9.615100	27.283928	0.000336	20.906404
2359.673526	-2.996400	3.195300	-9.573500	27.294670	0.000338	20.926690
2360.670921	-2.999900	3.195700	-9.586100	27.304146	0.000337	20.917257
2361.669073	-3.007800	3.194100	-9.606600	27.282313	0.000338	20.904306
2362.675810	-3.005000	3.194000	-9.596900	27.267305	0.000339	20.905330
2363.672134	-2.997900	3.192900	-9.571400	27.248598	0.000336	20.916384
2364.671945	-2.989900	3.192200	-9.543400	27.199275	0.000338	20.920826
2365.673612	-3.026900	3.190800	-9.657400	27.201408	0.000337	20.925342
2366.675997	-3.001500	3.192700	-9.582000	27.217486	0.000336	20.911170
2367.671118	-3.001700	3.192400	-9.582000	27.218429	0.000335	20.912592
2368.670233	-3.009400	3.190400	-9.599400	27.235524	0.000335	20.917932
2369.674078	-2.994200	3.189500	-9.548800	27.283655	0.000337	20.923197
2370.670033	-2.990900	3.190300	-9.540600	27.288569	0.000336	20.936199
2371.672804	-2.992200	3.190400	-9.545100	27.336721	0.000336	20.922998
2372.676113	-3.001700	3.188900	-9.571000	27.362820	0.000335	20.918434
2373.674901	-3.005800	3.188300	-9.581700	27.375448	0.000333	20.915964
2374.676697	-3.004700	3.187100	-9.573700	27.391498	0.000334	20.918834
2375.675698	-2.996800	3.186800	-9.549100	27.413874	0.000331	20.915740
2376.674892	-2.993600	3.186400	-9.537800	27.402117	0.000334	20.920981
2377.674026	-3.011900	3.187100	-9.597800	27.426254	0.000333	20.913496
2378.676402	-2.991000	3.186100	-9.529100	27.443346	0.000333	20.920259
2379.674094	-2.971300	3.185800	-9.465000	27.441338	0.000332	20.937677
2380.674658	-2.982300	3.186100	-9.501400	27.482910	0.000329	20.917864
2381.676929	-3.020900	3.188000	-9.629800	27.517266	0.000328	20.916868
2382.676608	-2.974900	3.184700	-9.472900	27.508883	0.000327	20.940199
2383.675656	-2.991800	3.183300	-9.521700	27.504196	0.000328	20.962033
2384.683417	-3.025400	3.182700	-9.627600	27.474430	0.000327	20.937779
2385.675184	-2.997600	3.182000	-9.537200	27.455554	0.000328	20.933013
2386.678399	-2.992600	3.182600	-9.522700	27.459350	0.000327	20.943944
2387.685926	-3.007300	3.180400	-9.563200	27.411352	0.000327	20.947339
2388.677713	-2.997600	3.180200	-9.531000	27.434720	0.000326	20.938132
2389.684700	-3.001300	3.180300	-9.543900	27.418275	0.000325	20.940079
2390.679645	-3.008200	3.181300	-9.569300	27.348518	0.000326	20.918745
2391.681039	-3.014400	3.178500	-9.580900	27.285902	0.000326	20.945370
2392.683538	-3.028200	3.180900	-9.631600	27.297143	0.000325	20.947667
2393.678500	-3.005300	3.178500	-9.551400	27.260549	0.000326	20.937412
2394.678561	-2.980300	3.180600	-9.478900	27.252066	0.000325	20.942154
2395.680358	-3.009500	3.177200	-9.559600	27.240282	0.000322	20.953534
2396.679824	-3.010100	3.176200	-9.560000	27.223188	0.000324	20.947721
2397.680071	-3.026500	3.175000	-9.606400	27.213390	0.000323	20.952563
2398.679917	-3.003200	3.175400	-9.533600	27.214432	0.000321	20.956930
2399.687247	-2.994000	3.174900	-9.504900	27.240385	0.000321	20.981608
2400.682662	-3.018700	3.173200	-9.577000	27.297275	0.000322	20.945430
2401.682961	-2.993700	3.175400	-9.505000	27.324068	0.000318	20.964319
2402.683260	-2.986900	3.175100	-9.483100	27.346967	0.000319	20.961275
2403.685529	-3.022900	3.171800	-9.587200	27.377655	0.000317	20.963223
2404.683668	-2.999000	3.171000	-9.509000	27.416875	0.000317	20.953842
2405.682923	-3.009500	3.170500	-9.541100	27.446468	0.000318	20.949950
2406.679539	-2.991500	3.170600	-9.483600	27.484570	0.000316	20.964572
2407.683337	-3.003400	3.169000	-9.516900	27.463684	0.000316	20.959681
2408.684021	-2.984900	3.168500	-9.456500	27.462842	0.000316	20.950775
2409.684880	-2.989700	3.168400	-9.471200	27.463833	0.000314	20.943713
2410.687796	-3.011300	3.168100	-9.539400	27.466191	0.000312	20.956514
2411.688138	-2.997600	3.169500	-9.500200	27.413132	0.000315	20.939647
2412.683582	-2.978300	3.168400	-9.435600	27.347740	0.000314	20.954942
2413.684772	-2.993400	3.166400	-9.477700	27.301770	0.000313	20.956114
2414.688770	-3.009300	3.164300	-9.521300	27.320453	0.000316	20.938400
2415.687556	-3.004000	3.166200	-9.510100	27.359054	0.000313	20.934083
2416.687113	-2.992800	3.164200	-9.469000	27.362625	0.000313	20.944313
2417.687482	-3.007100	3.165200	-9.517100	27.350694	0.000312	20.943216
2418.683987	-2.989400	3.165400	-9.461900	27.346030	0.000312	20.942792
2419.689668	-2.962300	3.164100	-9.372500	27.337644	0.000313	20.939098
2420.683940	-2.998700	3.163500	-9.484000	27.345707	0.000312	20.955741
2421.684660	-3.017300	3.162600	-9.541200	27.350221	0.000313	20.935155
2422.683597	-3.011600	3.162800	-9.524100	27.393932	0.000312	20.946883
2423.687008	-2.994000	3.161100	-9.462700	27.424991	0.000311	20.940671
2424.688129	-3.022600	3.158500	-9.544200	27.468945	0.000312	20.932736
2425.684013	-3.003600	3.160700	-9.492800	27.493553	0.000309	20.925725
2426.685831	-3.003200	3.157600	-9.481900	27.501987	0.000311	20.941322
2427.683537	-2.991900	3.160200	-9.453800	27.447789	0.000309	20.925677
2428.689363	-2.987100	3.157100	-9.429300	27.455851	0.000308	20.940898
2429.687739	-3.000900	3.157300	-9.472800	27.471329	0.000308	20.931341
2430.688962	-2.989400	3.156500	-9.435100	27.480111	0.000308	20.926426
2431.686457	-3.002700	3.157400	-9.479700	27.475944	0.000309	20.927923
2432.689259	-3.011000	3.153700	-9.494500	27.492490	0.000309	20.934138
2433.689250	-2.989500	3.154200	-9.429100	27.507571	0.000306	20.925604
2434.692002	-3.001500	3.154500	-9.466600	27.448983	0.000307	20.924507
2435.691043	-2.997700	3.154400	-9.454200	27.431768	0.000307	20.916672
2436.690673	-2.986600	3.152700	-9.414500	27.422692	0.000306	20.921765
2437.692149	-2.998700	3.152600	-9.452900	27.450200	0.000308	20.913879
2438.693290	-2.998000	3.151600	-9.447200	27.466003	0.000307	20.917449
2439.692687	-3.008600	3.150900	-9.478200	27.465779	0.000304	20.912957
2440.689609	-3.032500	3.151000	-9.554100	27.468459	0.000305	20.908541
2441.691638	-3.005000	3.150200	-9.465300	27.447997	0.000306	20.939634
2442.690587	-2.982700	3.151200	-9.398400	27.434329	0.000307	20.900758
2443.689764	-3.017600	3.147000	-9.494800	27.458267	0.000302	20.916305
2444.692777	-3.009400	3.148700	-9.475200	27.459656	0.000304	20.905375
2445.695110	-3.023400	3.146000	-9.510200	27.454672	0.000302	20.931652
2446.696538	-3.014800	3.146000	-9.483700	27.469582	0.000302	20.927687
2447.694856	-3.001400	3.145500	-9.439700	27.426569	0.000302	20.920450
2448.694111	-3.001200	3.146900	-9.442600	27.370036	0.000302	20.913365
2449.692107	-3.010300	3.143700	-9.462900	27.369765	0.000301	20.937272
2450.696842	-3.018100	3.143100	-9.485800	27.327742	0.000302	20.911596
2451.695920	-3.032500	3.143700	-9.531600	27.352798	0.000302	20.909775
2452.693121	-2.984200	3.141900	-9.374800	27.357885	0.000301	20.911573
2453.695158	-2.988700	3.142700	-9.391200	27.387680	0.000301	20.911674
2454.695338	-2.986800	3.140900	-9.379700	27.384009	0.000302	20.906559
2455.697968	-3.003900	3.140600	-9.433200	27.380711	0.000300	20.912250
2456.699355	-2.999400	3.139200	-9.414600	27.398128	0.000301	20.915546
2457.698868	-3.022000	3.138400	-9.484000	27.428814	0.000300	20.900900
2458.696522	-3.012500	3.136700	-9.448000	27.423977	0.000300	20.926851
2459.697233	-2.992800	3.137400	-9.388500	27.446204	0.000300	20.907489
2460.697154	-2.986800	3.136800	-9.368100	27.434323	0.000299	20.912780
2461.698903	-2.982800	3.136400	-9.354600	27.435043	0.000300	20.927055
2462.697378	-3.011200	3.134000	-9.437000	27.446134	0.000297	20.899358
2463.699500	-3.009600	3.134100	-9.431700	27.463151	0.000298	20.913633
2464.698188	-3.024300	3.133000	-9.474000	27.474067	0.000298	20.897589
2465.698769	-2.991600	3.132000	-9.368400	27.508421	0.000299	20.931675
2466.700399	-3.022900	3.131100	-9.463000	27.531961	0.000299	20.910791
2467.697301	-2.984200	3.131600	-9.344000	27.563140	0.000297	20.912289
2468.704314	-2.998700	3.130200	-9.386100	27.554635	0.000297	20.902311
2469.700514	-2.998900	3.129900	-9.385200	27.579015	0.000295	20.913089
2470.699768	-3.006600	3.127600	-9.402700	27.582044	0.000296	20.909499
2471.699614	-2.963300	3.128600	-9.269700	27.592784	0.000296	20.904185
2472.701731	-2.986400	3.127400	-9.338100	27.587653	0.000296	20.909927
2473.703547	-3.002700	3.126000	-9.385600	27.607446	0.000296	20.896654
2474.703054	-3.021300	3.125700	-9.442500	27.620541	0.000295	20.890390
2475.700671	-2.999800	3.125000	-9.373200	27.558985	0.000294	20.919487
2476.698776	-3.001500	3.123700	-9.373900	27.537358	0.000297	20.911005
2477.701310	-2.989500	3.122600	-9.334400	27.548273	0.000295	20.873152
2478.706917	-3.027100	3.121400	-9.448100	27.559063	0.000296	20.899180
2479.705015	-2.983900	3.121900	-9.314100	27.545548	0.000295	20.919244
2480.705106	-3.002400	3.121100	-9.369900	27.531064	0.000295	20.879545
2481.703536	-3.012200	3.121000	-9.398700	27.535531	0.000294	20.917701
2482.704840	-2.994000	3.119100	-9.337300	27.574844	0.000293	20.900833
2483.703177	-3.017300	3.117500	-9.405200	27.602226	0.000292	20.904202
2484.703472	-3.010900	3.118200	-9.387400	27.654211	0.000293	20.892501
2485.702348	-3.004900	3.117800	-9.367300	27.664158	0.000292	20.880225
2486.706628	-3.011900	3.115900	-9.382900	27.709792	0.000293	20.914764
2487.704556	-3.018300	3.114500	-9.399000	27.724127	0.000293	20.900266
2488.718734	-2.995400	3.115100	-9.329700	27.760334	0.000291	20.898296
2489.703505	-2.993100	3.113100	-9.316600	27.777668	0.000291	20.913369
2490.704034	-3.007800	3.112700	-9.362000	27.786423	0.000292	20.900370
2491.708705	-2.977300	3.113600	-9.268700	27.842095	0.000292	20.905189
2492.707660	-3.016000	3.108900	-9.374600	27.854668	0.000291	20.895558
2493.701560	-2.979700	3.110300	-9.267500	27.866372	0.000289	20.892165
2494.705454	-3.001400	3.108700	-9.329800	27.878523	0.000292	20.891593
2495.705164	-3.012200	3.108500	-9.362700	27.883956	0.000288	20.883310
2496.707385	-3.005500	3.107200	-9.337400	27.875353	0.000291	20.916375
2497.710426	-2.987800	3.107000	-9.282000	27.876643	0.000290	20.910562
2498.708311	-3.010200	3.105200	-9.346100	27.869923	0.000289	20.900006
2499.707115	-3.002200	3.105200	-9.320800	27.849790	0.000289	20.898709
2500.710537	-3.006200	3.104400	-9.329800	27.816492	0.000290	20.888906
2501.709282	-3.003400	3.101900	-9.315600	27.836155	0.000289	20.900159
2502.711844	-2.988500	3.102900	-9.271800	27.824527	0.000288	20.894622
2503.705072	-3.022000	3.101000	-9.370400	27.846747	0.000288	20.911292
2504.710724	-3.032600	3.098900	-9.396700	27.841541	0.000291	20.897994
2505.712353	-2.998200	3.099700	-9.292900	27.808687	0.000291	20.889586
2506.709796	-3.009900	3.097900	-9.323700	27.772880	0.000288	20.898594
2507.711342	-3.015000	3.097300	-9.337500	27.765542	0.000288	20.892633
2508.709430	-2.987300	3.097300	-9.251600	27.755375	0.000287	20.893307
2509.707846	-3.011900	3.095300	-9.321900	27.744615	0.000290	20.894332
2510.707469	-2.969100	3.095400	-9.189500	27.681824	0.000286	20.877140
2511.707557	-2.967100	3.094800	-9.181400	27.649782	0.000287	20.893260
2512.707742	-2.976100	3.092800	-9.202700	27.629795	0.000288	20.897804
2513.713494	-3.013200	3.092100	-9.315900	27.628134	0.000288	20.886651
2514.708559	-3.002000	3.090900	-9.277500	27.604799	0.000287	20.912480
2515.707602	-3.017100	3.089400	-9.320300	27.618639	0.000288	20.891794
2516.713392	-2.987800	3.088700	-9.227900	27.620127	0.000288	20.886180
2517.708384	-3.033000	3.087600	-9.363800	27.637935	0.000286	20.889400
2518.709825	-3.005700	3.087300	-9.278400	27.642400	0.000287	20.891996
2519.713006	-2.987100	3.087100	-9.220100	27.627175	0.000285	20.906547
2520.710463	-3.012700	3.085000	-9.293400	27.619017	0.000287	20.903079
2521.707026	-2.999200	3.085400	-9.252900	27.572688	0.000287	20.895819
2522.712541	-3.004300	3.083300	-9.262300	27.559693	0.000286	20.905029
2523.716133	-2.995500	3.083600	-9.235900	27.584472	0.000285	20.880650
2524.708471	-2.992100	3.080700	-9.217000	27.617062	0.000286	20.892104
2525.714721	-2.986700	3.081000	-9.201100	27.653397	0.000285	20.896423
2526.714142	-2.989100	3.079200	-9.202500	27.671701	0.000285	20.908202
2527.714812	-2.998700	3.078700	-9.231400	27.699900	0.000285	20.898173
2528.716503	-3.007200	3.076500	-9.250200	27.730504	0.000284	20.877762
2529.709807	-2.997300	3.076700	-9.220700	27.755328	0.000283	20.884725
2530.708942	-2.993200	3.075100	-9.203200	27.748561	0.000285	20.901147
2531.711416	-2.998000	3.074800	-9.217000	27.704469	0.000284	20.871952
2532.711358	-2.999200	3.073000	-9.215400	27.673098	0.000284	20.896333
2533.716671	-3.034300	3.071500	-9.317600	27.691179	0.000286	20.875174
2534.713319	-3.028600	3.070500	-9.298300	27.720717	0.000283	20.877397
2535.711856	-3.003600	3.069700	-9.219800	27.699118	0.000283	20.882689
2536.714283	-3.006100	3.069500	-9.226300	27.672089	0.000285	20.875879
2537.714338	-2.983100	3.068100	-9.151400	27.638808	0.000283	20.884588
2538.714067	-3.006500	3.068000	-9.222900	27.577499	0.000282	20.874109
2539.710375	-2.990000	3.067100	-9.169600	27.584024	0.000284	20.868821
2540.715870	-3.018800	3.065900	-9.253400	27.604187	0.000284	20.900486
2541.713519	-3.022200	3.063400	-9.257000	27.653296	0.000281	20.878779
2542.716499	-3.037500	3.064000	-9.305400	27.686257	0.000283	20.883023
2543.718015	-3.005300	3.063000	-9.204100	27.720134	0.000283	20.875862
2544.714076	-3.027900	3.061500	-9.268800	27.741488	0.000282	20.881704
2545.715370	-2.990600	3.060700	-9.152200	27.755575	0.000284	20.888767
2546.711381	-3.011900	3.059900	-9.215400	27.753319	0.000284	20.877963
2547.714527	-2.997800	3.058900	-9.168400	27.766910	0.000283	20.857976
2548.715297	-3.015400	3.058300	-9.220800	27.790245	0.000284	20.885252
2549.720078	-3.014900	3.056000	-9.212300	27.808126	0.000284	20.880013
2550.710609	-2.984400	3.056600	-9.121000	27.838629	0.000284	20.871831
2551.713608	-3.008300	3.054200	-9.186900	27.851598	0.000281	20.873504
2552.713154	-3.022900	3.052000	-9.224500	27.879271	0.000281	20.867217
2553.713371	-2.986200	3.051700	-9.111800	27.898787	0.000282	20.894444
2554.720122	-2.967400	3.051300	-9.053800	27.851230	0.000283	20.871237
2555.711386	-3.032500	3.049200	-9.245700	27.813665	0.000282	20.871364
2556.716154	-3.006900	3.048300	-9.164900	27.832934	0.000283	20.864204
2557.716184	-2.989100	3.047400	-9.108400	27.779894	0.000283	20.873413
2558.714514	-2.985800	3.047800	-9.099400	27.798071	0.000282	20.877481
2559.720118	-3.003100	3.045800	-9.145100	27.821730	0.000281	20.893229
2560.715117	-3.005000	3.045200	-9.149300	27.843628	0.000280	20.873543
2561.714062	-3.014800	3.042400	-9.171100	27.811242	0.000282	20.851857
2562.720724	-2.991900	3.042600	-9.102000	27.807302	0.000281	20.871598
2563.714615	-2.987300	3.042000	-9.085800	27.841101	0.000281	20.840182
2564.714003	-3.023600	3.040200	-9.190100	27.849038	0.000281	20.871401
2565.718480	-2.998100	3.038500	-9.108100	27.855461	0.000281	20.893986
2566.720362	-2.984100	3.037400	-9.062300	27.864265	0.000281	20.875347
2567.716083	-3.022600	3.035200	-9.172600	27.913386	0.000281	20.886378
2568.718374	-2.992400	3.036500	-9.085000	27.898137	0.000279	20.871031
2569.720176	-3.034400	3.031700	-9.197500	27.907957	0.000280	20.882337
2570.721141	-2.998100	3.032600	-9.091100	27.922614	0.000280	20.864374
2571.718704	-2.993300	3.031600	-9.073700	27.929458	0.000280	20.876477
2572.721055	-3.019100	3.029100	-9.144400	27.911185	0.000283	20.867569
2573.721395	-2.987700	3.029000	-9.048300	27.962857	0.000279	20.857464
2574.714455	-3.014100	3.027600	-9.123900	27.980610	0.000280	20.861583
2575.716661	-3.005300	3.025900	-9.092900	27.980216	0.000282	20.851703
2576.717515	-2.997300	3.026300	-9.070000	28.016761	0.000279	20.841074
2577.716556	-3.010800	3.024300	-9.104000	28.001837	0.000282	20.874413
2578.717071	-3.005100	3.024000	-9.086800	27.972856	0.000281	20.833391
2579.716496	-3.002400	3.021800	-9.072000	27.955825	0.000280	20.841378
2580.716737	-2.988500	3.021300	-9.028600	27.989472	0.000282	20.865287
2581.716065	-2.982700	3.020100	-9.005900	27.971399	0.000280	20.853734
2582.719635	-2.972300	3.018800	-8.971000	27.957491	0.000279	20.860123
2583.719527	-3.010100	3.016100	-9.078200	27.961884	0.000279	20.870234
2584.716037	-2.970300	3.016100	-8.957600	27.988859	0.000279	20.851394
2585.720717	-3.000500	3.014800	-9.045100	27.984075	0.000279	20.861278
2586.720850	-3.006600	3.012200	-9.054800	27.948672	0.000277	20.855041
2587.719435	-3.008900	3.011500	-9.060600	27.944212	0.000278	20.862405
2588.722502	-3.005900	3.010700	-9.048700	27.887037	0.000280	20.863654
2589.727716	-3.013200	3.009200	-9.065700	27.908884	0.000280	20.848659
2590.725610	-3.009700	3.010500	-9.058700	27.919028	0.000279	20.847963
2591.721878	-2.994900	3.007300	-9.004000	27.904227	0.000280	20.852032
2592.726173	-2.967100	3.007900	-8.923700	27.892152	0.000278	20.846992
2593.721475	-2.999000	3.005000	-9.010500	27.925009	0.000281	20.860620
2594.725253	-2.995000	3.003300	-8.994100	27.941449	0.000281	20.848719
2595.725466	-3.003300	3.002800	-9.017400	27.958260	0.000280	20.829605
2596.723628	-2.982300	3.002900	-8.955100	27.928310	0.000280	20.857305
2597.726020	-3.018600	2.998500	-9.049400	27.879295	0.000280	20.845431
2598.726958	-3.021900	2.998100	-9.058400	27.861392	0.000278	20.866292
2599.721563	-3.002000	2.996700	-8.994900	27.839054	0.000280	20.843812
2600.722747	-3.017800	2.995100	-9.035800	27.865341	0.000280	20.854146
2601.727290	-2.997800	2.995500	-8.979600	27.884709	0.000280	20.847560
2602.727224	-3.011000	2.993000	-9.011500	27.927703	0.000280	20.841996
2603.722817	-2.984000	2.993400	-8.929600	27.989937	0.000279	20.863384
2604.723942	-2.976100	2.991900	-8.902500	27.991080	0.000278	20.870698
2605.727674	-2.997500	2.989800	-8.961100	28.028916	0.000280	20.833394
2606.725111	-2.976800	2.989700	-8.899000	28.056263	0.000280	20.855706
2607.732514	-3.007000	2.985700	-8.976300	28.039281	0.000278	20.846672
2608.731325	-2.984000	2.986400	-8.910200	28.069456	0.000277	20.857132
2609.733708	-2.986300	2.985300	-8.914400	28.076025	0.000277	20.846202
2610.732700	-3.006200	2.982700	-8.966100	28.054088	0.000278	20.849723
2611.724677	-2.994300	2.981500	-8.927000	28.058850	0.000277	20.846931
2612.727752	-2.997100	2.980700	-8.932500	28.025035	0.000277	20.835652
2613.734224	-2.990800	2.980000	-8.911500	28.043729	0.000275	20.863477
2614.726809	-2.996800	2.977100	-8.921000	28.010880	0.000277	20.841793
2615.730884	-2.981900	2.976300	-8.874000	27.953338	0.000276	20.842668
2616.735479	-2.984000	2.975700	-8.879000	27.943794	0.000275	20.873363
2617.734334	-2.985000	2.975400	-8.880600	27.939925	0.000277	20.842444
2618.728234	-2.977400	2.973600	-8.853000	27.941662	0.000276	20.837554
2619.730195	-3.030300	2.970500	-9.000800	27.968713	0.000275	20.846289
2620.729222	-3.010000	2.969400	-8.937300	27.992961	0.000274	20.834187
2621.730382	-3.009400	2.966600	-8.925500	28.053998	0.000275	20.836832
2622.733213	-3.007500	2.965100	-8.915800	28.093861	0.000275	20.849932
2623.730623	-2.964900	2.966100	-8.793700	28.098897	0.000277	20.847415
2624.728909	-3.033400	2.962500	-8.985600	28.136773	0.000274	20.859939
2625.736920	-2.994800	2.962600	-8.872200	28.124601	0.000275	20.832040
2626.733430	-2.976200	2.960600	-8.810200	28.096193	0.000277	20.842797
2627.729499	-3.027000	2.959300	-8.956900	28.070559	0.000276	20.853027
2628.733243	-3.011100	2.958500	-8.906800	28.072169	0.000275	20.851804
2629.732349	-2.980800	2.955800	-8.809000	28.060170	0.000275	20.841621
2630.733499	-2.994100	2.954000	-8.843800	28.099663	0.000274	20.847238
2631.732768	-3.003400	2.953900	-8.871300	28.137343	0.000274	20.839651
2632.733321	-3.012400	2.951600	-8.890300	28.160544	0.000274	20.855421
2633.734070	-2.978200	2.951100	-8.788000	28.162453	0.000273	20.854024
2634.730830	-2.990300	2.949400	-8.819000	28.136202	0.000275	20.835658
2635.736969	-3.007900	2.947600	-8.865400	28.139426	0.000275	20.835111
2636.729979	-3.035400	2.944700	-8.936300	28.164063	0.000275	20.834783
2637.730582	-3.029200	2.943400	-8.915200	28.170086	0.000275	20.837527
2638.734251	-2.997000	2.942900	-8.819000	28.163939	0.000276	20.838451
2639.732808	-2.993800	2.942100	-8.807200	28.198121	0.000275	20.838250
2640.733094	-3.008900	2.939000	-8.842700	28.164385	0.000274	20.843641
2641.732581	-2.990300	2.938600	-8.785900	28.161065	0.000275	20.850730
2642.730341	-3.013700	2.934900	-8.843800	28.140933	0.000276	20.864127
2643.732088	-3.003900	2.935500	-8.816900	28.164484	0.000273	20.835681
2644.729551	-3.006100	2.933500	-8.817500	28.178365	0.000276	20.848706
2645.734453	-2.988900	2.932900	-8.765300	28.189546	0.000275	20.833410
2646.733767	-2.965500	2.931600	-8.692400	28.218100	0.000276	20.831813
2647.731415	-3.004900	2.927700	-8.796200	28.186373	0.000274	20.843493
2648.733866	-2.979000	2.927800	-8.721000	28.186846	0.000273	20.843021
2649.735639	-3.002800	2.924900	-8.781400	28.190786	0.000276	20.828022
2650.736339	-2.992600	2.924900	-8.752200	28.185431	0.000273	20.851553
2651.732913	-2.993900	2.923400	-8.750900	28.121427	0.000272	20.850181
2652.736074	-2.991600	2.920600	-8.736500	28.059873	0.000272	20.845590
2653.733632	-2.991200	2.920200	-8.734400	28.028041	0.000274	20.850531
2654.732870	-3.007900	2.917500	-8.775200	28.024398	0.000272	20.841648
2655.734981	-2.993600	2.916200	-8.729300	28.028934	0.000274	20.859490
2656.734467	-3.005600	2.914800	-8.759900	28.085609	0.000272	20.835936
2657.735507	-3.018000	2.913000	-8.791000	28.131616	0.000275	20.844792
2658.742572	-3.000500	2.910400	-8.731200	28.136573	0.000273	20.864954
2659.736832	-3.006200	2.909500	-8.745800	28.195994	0.000274	20.839902
2660.739088	-3.019900	2.907400	-8.778800	28.219468	0.000272	20.846465
2661.741527	-3.010500	2.905900	-8.747300	28.210146	0.000273	20.829020
2662.737150	-3.007300	2.904900	-8.735000	28.192496	0.000272	20.848234
2663.739473	-2.979700	2.902300	-8.646800	28.148597	0.000274	20.841498
2664.740463	-3.008300	2.899100	-8.720400	28.145821	0.000276	20.843919
2665.738235	-2.996900	2.899600	-8.688800	28.095198	0.000276	20.829941
2666.737344	-2.998800	2.898500	-8.691100	28.074473	0.000275	20.824251
2667.741752	-2.997300	2.896800	-8.681700	28.099933	0.000273	20.846561
2668.738592	-3.007900	2.893100	-8.701100	28.083596	0.000274	20.842918
2669.741008	-2.997400	2.891800	-8.666800	28.077569	0.000275	20.854868
2670.741516	-2.985700	2.891100	-8.631100	28.063017	0.000274	20.831685
2671.738006	-2.998800	2.888900	-8.662600	28.050050	0.000275	20.841866
2672.745991	-2.985300	2.888700	-8.622100	28.059221	0.000274	20.854417
2673.742529	-3.010800	2.885000	-8.685200	28.067798	0.000274	20.836972
2674.740473	-2.989800	2.884100	-8.621100	28.091770	0.000273	20.857784
2675.741579	-3.012700	2.880800	-8.677400	28.103247	0.000274	20.855586
2676.743737	-3.011900	2.877200	-8.664400	28.145809	0.000272	20.844381
2677.743570	-2.982400	2.878800	-8.584300	28.139958	0.000273	20.850818
2678.742753	-3.013900	2.876300	-8.668200	28.185718	0.000273	20.833350
2679.746557	-3.046900	2.873600	-8.754000	28.199995	0.000273	20.847723
2680.745445	-2.995800	2.871100	-8.600300	28.176494	0.000274	20.858202
2681.743865	-2.994600	2.871000	-8.596100	28.148755	0.000275	20.845450
2682.743627	-3.002700	2.868000	-8.610900	28.126642	0.000274	20.859697
2683.745114	-3.021600	2.865000	-8.655900	28.112063	0.000275	20.847393
2684.744228	-2.962400	2.866300	-8.490400	28.079391	0.000274	20.837737
2685.743556	-3.002900	2.862700	-8.595600	28.090175	0.000275	20.844799
2686.746440	-2.999500	2.861400	-8.581600	28.104179	0.000275	20.844197
2687.750577	-3.021600	2.857800	-8.634600	28.089058	0.000274	20.852209
2688.750007	-3.001500	2.857800	-8.576600	28.085068	0.000275	20.882804
2689.744073	-2.993900	2.855700	-8.548300	28.117394	0.000275	20.839483
2690.747624	-3.011600	2.851500	-8.585900	28.136630	0.000274	20.841304
2691.750969	-3.025600	2.849900	-8.621600	28.176093	0.000276	20.851635
2692.746414	-2.978300	2.849600	-8.485900	28.187200	0.000278	20.833894
2693.753332	-2.994700	2.846800	-8.524000	28.208740	0.000276	20.866483
2694.755670	-3.002400	2.843300	-8.535500	28.175697	0.000277	20.863563
2695.747219	-2.980100	2.841300	-8.466600	28.155841	0.000276	20.851161
2696.750557	-3.003400	2.838900	-8.525900	28.156785	0.000276	20.875818
2697.752976	-2.981700	2.838600	-8.462900	28.204725	0.000275	20.861968
2698.754255	-3.007700	2.835600	-8.527500	28.247709	0.000276	20.854509
2699.751591	-3.030500	2.832900	-8.583200	28.269048	0.000277	20.868881
2700.754905	-2.985500	2.831600	-8.452600	28.323257	0.000274	20.874623
2701.753296	-2.962700	2.829400	-8.381500	28.348982	0.000277	20.863542
2702.756358	-2.971000	2.827100	-8.398000	28.393941	0.000274	20.862346
2703.754933	-3.012100	2.823700	-8.504000	28.408343	0.000276	20.854563
2704.758079	-2.978500	2.823000	-8.406500	28.434191	0.000275	20.857832
2705.754887	-2.986500	2.821100	-8.423000	28.460686	0.000275	20.869812
2706.754842	-2.990800	2.818800	-8.429600	28.502120	0.000276	20.859856
2707.751697	-2.996700	2.815000	-8.435500	28.495974	0.000276	20.847029
2708.756216	-3.008700	2.811800	-8.459300	28.515231	0.000274	20.854567
2709.760589	-2.983400	2.811600	-8.387100	28.491863	0.000275	20.868018
2710.757871	-3.003500	2.806800	-8.429000	28.444631	0.000274	20.863128
2711.760340	-3.032000	2.804300	-8.502100	28.377744	0.000275	20.852675
2712.759336	-3.039000	2.802100	-8.514200	28.332735	0.000274	20.867571
2713.753814	-2.992700	2.799700	-8.376900	28.265048	0.000274	20.880025
2714.760880	-3.007500	2.797500	-8.412600	28.281705	0.000274	20.870244
2715.759409	-3.014100	2.794500	-8.420800	28.313778	0.000275	20.864131
2716.753283	-3.008200	2.793200	-8.401400	28.362628	0.000274	20.846937
2717.754829	-3.006600	2.790200	-8.388300	28.400572	0.000273	20.872815
2718.756047	-3.000900	2.789300	-8.369500	28.415147	0.000273	20.866155
2719.753971	-3.011500	2.785100	-8.386300	28.462285	0.000275	20.864784
2720.759945	-3.020900	2.782200	-8.404000	28.471330	0.000273	20.869152
2721.758432	-2.983400	2.780200	-8.293900	28.471604	0.000275	20.876539
2722.755220	-2.966500	2.778100	-8.240400	28.425334	0.000274	20.879257
2723.759768	-2.990000	2.774800	-8.296300	28.396811	0.000273	20.866658
2724.756987	-2.968700	2.771900	-8.228400	28.362090	0.000273	20.888593
2725.756803	-3.014800	2.768800	-8.346400	28.289819	0.000273	20.883154
2726.759585	-3.006800	2.766000	-8.314000	28.249146	0.000274	20.883455
2727.760371	-3.012600	2.762600	-8.321100	28.231596	0.000273	20.885700
2728.760076	-2.990600	2.760000	-8.253300	28.256731	0.000274	20.889194
2729.763215	-3.002400	2.755800	-8.273200	28.249816	0.000273	20.874647
2730.761529	-3.010900	2.754700	-8.292600	28.296119	0.000273	20.875748
2731.761632	-3.001300	2.752100	-8.258700	28.334039	0.000274	20.870781
2732.764643	-3.003200	2.747200	-8.249600	28.380807	0.000273	20.892267
2733.759358	-2.994300	2.746100	-8.221300	28.442297	0.000273	20.881166
2734.760008	-3.011300	2.741300	-8.253300	28.491462	0.000274	20.869037
2735.763726	-2.982700	2.740100	-8.171300	28.530021	0.000272	20.869935
2736.760897	-3.001300	2.736300	-8.211700	28.557801	0.000274	20.888428
2737.760676	-3.014400	2.730900	-8.231700	28.604881	0.000272	20.873256
2738.762539	-3.012000	2.729400	-8.220600	28.614572	0.000275	20.899136
2739.762046	-2.993800	2.726800	-8.162200	28.639374	0.000272	20.883340
2740.760367	-2.999900	2.721600	-8.163600	28.601612	0.000274	20.889403
2741.759191	-2.985300	2.719400	-8.117600	28.559489	0.000273	20.879697
2742.758353	-2.987500	2.716800	-8.115600	28.523856	0.000273	20.889804
2743.759849	-3.014100	2.712200	-8.174400	28.525468	0.000274	20.880048
2744.760197	-3.010400	2.707900	-8.150100	28.537064	0.000272	20.874657
2745.760998	-3.011800	2.703900	-8.142400	28.591377	0.000272	20.881940
2746.761446	-3.001600	2.702200	-8.110400	28.580748	0.000270	20.878822
2747.763902	-2.971600	2.698500	-8.018100	28.610534	0.000271	20.888432
2748.762058	-2.973800	2.695600	-8.014600	28.639843	0.000272	20.898035
2749.760974	-2.959200	2.692100	-7.965300	28.693584	0.000271	20.900955
2750.763335	-2.994500	2.687100	-8.045100	28.703545	0.000272	20.892970
2751.759721	-2.997000	2.683200	-8.040400	28.739542	0.000271	20.889875
2752.761203	-2.996000	2.678300	-8.023600	28.735354	0.000271	20.897035
2753.765460	-3.032900	2.674700	-8.111000	28.669126	0.000271	20.903347
2754.764895	-3.002800	2.671900	-8.022100	28.656737	0.000270	20.894188
2755.761777	-3.047400	2.665600	-8.121000	28.609311	0.000272	20.904268
2756.764369	-3.015100	2.663400	-8.029300	28.573875	0.000271	20.882331
2757.767735	-3.010100	2.659000	-8.003100	28.545552	0.000270	20.895057
2758.762209	-2.990600	2.654400	-7.938000	28.516508	0.000272	20.917488
2759.765876	-3.026200	2.649900	-8.017900	28.526072	0.000269	20.895828
2760.763550	-3.006200	2.647200	-7.957500	28.561777	0.000271	20.885794
2761.765277	-2.956400	2.643500	-7.813400	28.599439	0.000271	20.903808
2762.765642	-2.996300	2.638400	-7.904800	28.623596	0.000270	20.895423
2763.769083	-3.034200	2.633200	-7.987600	28.634918	0.000269	20.882645
2764.764734	-3.015000	2.628200	-7.923600	28.706892	0.000271	20.893497
2765.767457	-3.001600	2.623600	-7.873700	28.717394	0.000271	20.903126
2766.767982	-3.017400	2.618800	-7.901400	28.771500	0.000270	20.887927
2767.765850	-2.970000	2.613800	-7.761700	28.782847	0.000270	20.893667
2768.767945	-3.005500	2.609200	-7.841100	28.818840	0.000272	20.890569
2769.771733	-3.013400	2.604400	-7.847400	28.797533	0.000272	20.897554
2770.768045	-3.017200	2.599400	-7.842100	28.763368	0.000271	20.880210
2771.770438	-2.963700	2.595800	-7.691200	28.730492	0.000274	20.878863
2772.768596	-3.004500	2.589300	-7.777900	28.761954	0.000273	20.901543
2773.768685	-3.011700	2.583800	-7.779900	28.769782	0.000272	20.899945
2774.769309	-3.009600	2.577900	-7.757800	28.805553	0.000273	20.897099
2775.765860	-3.022100	2.571400	-7.769500	28.846725	0.000274	20.913442
2776.766551	-3.005500	2.565600	-7.709800	28.832655	0.000275	20.891209
2777.772499	-2.997100	2.560500	-7.673800	28.835601	0.000273	20.903659
2778.767633	-2.993400	2.555500	-7.648200	28.885692	0.000276	20.886791
2779.774611	-2.996900	2.549800	-7.640200	28.894558	0.000275	20.895723
2780.770282	-3.002900	2.543700	-7.637200	28.863122	0.000275	20.894875
2781.768890	-2.987800	2.538800	-7.583800	28.824404	0.000277	20.893803
2782.768230	-2.970400	2.533500	-7.524700	28.845535	0.000275	20.906080
2783.770358	-2.964300	2.527400	-7.490200	28.879992	0.000276	20.915660
2784.770516	-3.015900	2.520600	-7.601100	28.899067	0.000275	20.911170
2785.770447	-3.026700	2.512500	-7.602800	28.930304	0.000274	20.920353
2786.771791	-3.002800	2.508300	-7.530600	28.930006	0.000274	20.899192
2787.772736	-2.984100	2.502100	-7.464600	28.933698	0.000276	20.930409
2788.771738	-2.949800	2.497700	-7.366100	28.985318	0.000275	20.914140
