LabVIEW Measurement	
Writer_Version	2
Reader_Version	2
Separator	Tab
Decimal_Separator	.
Multi_Headings	No
X_Columns	One
Time_Pref	Absolute
Operator	admin
Description	Clolumns are: time, Current, Voltage, Power, Battery Temp, and Chamber Temp
Date	2024/08/16
Time	13:06:06.104549407958984375
***End_of_Header***	
	
Channels	6						
Samples	1	1	1	1	1	1	
Date	2024/09/08	2024/09/08	2024/09/08	2024/09/08	2024/09/08	2024/09/08	
Time	05:10:27.9363245964050292969	05:10:27.9405121803283691407	05:10:27.9450845718383789063	05:10:27.9208350181579589844	05:10:27.9208350181579589844	05:10:27.9208350181579589844	
X_Dimension	Time	Time	Time	Time	Time	Time	
X0	0.0000000000000000E+0	0.0000000000000000E+0	0.0000000000000000E+0	0.0000000000000000E+0	0.0000000000000000E+0	0.0000000000000000E+0	
Delta_X	1.000000	1.000000	1.000000	1.000000	1.000000	1.000000	
***End_of_Header***							
X_Value	Untitled	Untitled 1	Untitled 2	Untitled 3	Untitled 4	Untitled 5	Comment
0.000000	0.016786	4.095100	0.068761	20.957596	0.000917	20.786438
0.999677	-2.988600	3.923600	-11.726000	20.966678	0.000917	20.793624
2.001822	-2.983300	3.916500	-11.683000	20.970820	0.000916	20.789232
2.998594	-2.977200	3.910000	-11.639000	20.951781	0.000916	20.791527
3.999544	-3.011900	3.906800	-11.767000	20.983894	0.000913	20.796144
4.999548	-3.015400	3.903700	-11.771000	20.972191	0.000912	20.779223
5.998332	-2.988500	3.900900	-11.657000	20.987635	0.000911	20.787084
7.001659	-2.990900	3.899400	-11.662000	20.980723	0.000910	20.786809
8.000166	-2.983300	3.897400	-11.626000	20.985040	0.000910	20.775953
9.002065	-2.996400	3.894600	-11.669000	20.978652	0.000910	20.783789
10.001064	-3.010100	3.892600	-11.715000	20.982618	0.000910	20.789652
11.000389	-2.976100	3.892700	-11.583000	20.964478	0.000909	20.814658
12.003281	-2.976700	3.892100	-11.584000	20.990752	0.000909	20.793046
13.001872	-2.998300	3.889400	-11.661000	21.002104	0.000908	20.794443
14.002080	-3.001400	3.885900	-11.662000	21.014131	0.000906	20.791773
15.001528	-3.015300	3.885900	-11.716000	21.001904	0.000906	20.798511
16.003458	-3.025300	3.884400	-11.750000	21.034016	0.000905	20.818300
17.003357	-3.015600	3.883100	-11.709000	21.035961	0.000904	20.801280
18.002329	-3.014000	3.881400	-11.698000	21.026779	0.000903	20.793992
19.003500	-2.979300	3.881100	-11.562000	21.040502	0.000902	20.802976
20.001998	-3.001700	3.881200	-11.650000	21.041499	0.000904	20.796388
21.002696	-3.000200	3.881000	-11.642000	21.033017	0.000904	20.794541
22.005694	-3.014800	3.878400	-11.692000	21.049683	0.000902	20.798409
23.002695	-3.022500	3.877500	-11.720000	21.063330	0.000900	20.810162
24.001906	-3.003400	3.877100	-11.643000	21.058789	0.000902	20.812733
25.003274	-3.021900	3.875500	-11.710000	21.079548	0.000900	20.809788
26.004821	-3.003500	3.875600	-11.639000	21.088055	0.000900	20.810237
27.004436	-2.991300	3.875700	-11.592000	21.087955	0.000902	20.803025
28.007390	-2.999100	3.873800	-11.618000	21.099631	0.000900	20.805221
29.005211	-2.986200	3.872900	-11.563000	21.114400	0.000897	20.799132
30.004973	-2.993400	3.874400	-11.596000	21.099531	0.000898	20.815552
31.004050	-2.994900	3.871300	-11.593000	21.099431	0.000898	20.820194
32.005511	-3.012700	3.871800	-11.664000	21.120089	0.000896	20.815253
33.007752	-3.000400	3.871600	-11.613000	21.110957	0.000896	20.814654
34.005096	-3.008100	3.871800	-11.646000	21.134933	0.000896	20.823463
35.006691	-3.013400	3.869500	-11.659000	21.146733	0.000897	20.823412
36.005760	-3.000400	3.868200	-11.605000	21.150675	0.000897	20.813606
37.007262	-2.998100	3.869700	-11.601000	21.128695	0.000895	20.814379
38.010344	-2.977900	3.869800	-11.522000	21.158782	0.000895	20.804172
39.007934	-3.004100	3.869400	-11.623000	21.172604	0.000897	20.808515
40.010415	-3.016900	3.866800	-11.664000	21.159307	0.000896	20.820343
41.009985	-3.009000	3.865900	-11.631000	21.169460	0.000894	20.811060
42.010585	-2.987600	3.867400	-11.554000	21.172703	0.000894	20.815726
43.011178	-2.995500	3.866100	-11.579000	21.181385	0.000893	20.807342
44.015840	-3.002300	3.867900	-11.612000	21.212369	0.000893	20.817948
45.015611	-2.977700	3.866500	-11.512000	21.210798	0.000892	20.820643
46.016569	-3.007100	3.864600	-11.621000	21.203937	0.000893	20.808564
47.018193	-2.986600	3.865700	-11.544000	21.206706	0.000893	20.817024
48.015151	-3.004500	3.865000	-11.610000	21.224967	0.000892	20.808265
49.017848	-2.995900	3.864000	-11.575000	21.239286	0.000893	20.823538
50.013446	-3.006700	3.864100	-11.617000	21.235196	0.000891	20.816126
51.015987	-2.999700	3.862700	-11.586000	21.259892	0.000895	20.816177
52.014101	-2.987500	3.864700	-11.545000	21.241832	0.000893	20.811385
53.015931	-3.000400	3.861300	-11.583000	21.245698	0.000893	20.839434
54.018122	-2.997900	3.862200	-11.578000	21.262960	0.000895	20.807866
55.016753	-2.997900	3.861600	-11.576000	21.267500	0.000890	20.812882
56.016269	-2.983500	3.861200	-11.519000	21.287357	0.000891	20.820893
57.017686	-3.006000	3.860200	-11.602000	21.286134	0.000891	20.807342
58.017385	-3.016500	3.859600	-11.640000	21.301975	0.000891	20.839784
59.019094	-3.005600	3.860000	-11.600000	21.301600	0.000891	20.843676
60.019403	-3.008400	3.860400	-11.611000	21.321232	0.000892	20.824911
61.018266	-2.984500	3.861600	-11.523000	21.338567	0.000890	20.813331
62.024866	-3.004900	3.860000	-11.598000	21.349319	0.000889	20.824562
63.023605	-3.029600	3.857300	-11.684000	21.345377	0.000892	20.811610
64.022833	-2.986700	3.860600	-11.530000	21.345352	0.000888	20.827232
65.026438	-3.024400	3.857400	-11.666000	21.354906	0.000890	20.822091
66.024534	-3.010300	3.859100	-11.615000	21.343582	0.000890	20.835417
67.023006	-3.020700	3.856600	-11.649000	21.365806	0.000891	20.818298
68.026853	-3.009100	3.856600	-11.603000	21.376358	0.000890	20.824587
69.022779	-3.000700	3.857600	-11.575000	21.384888	0.000889	20.842604
70.022814	-3.001400	3.857400	-11.577000	21.398307	0.000889	20.831849
71.027603	-2.990700	3.857400	-11.535000	21.391024	0.000891	20.831674
72.022645	-2.997300	3.855900	-11.557000	21.404967	0.000892	20.838986
73.023346	-2.997400	3.856700	-11.559000	21.402822	0.000889	20.839685
74.022311	-2.993400	3.855700	-11.541000	21.416665	0.000890	20.825561
75.024575	-3.023100	3.855400	-11.654000	21.433577	0.000888	20.838214
76.028167	-2.999800	3.854400	-11.561000	21.435996	0.000889	20.870504
77.024940	-3.006400	3.855500	-11.590000	21.471413	0.000891	20.847147
78.025703	-3.012000	3.854200	-11.607000	21.457296	0.000892	20.829705
79.025140	-3.001700	3.855300	-11.571000	21.455276	0.000890	20.825787
80.026359	-2.996400	3.855000	-11.550000	21.470691	0.000889	20.845477
81.029370	-3.002200	3.855100	-11.572000	21.486877	0.000891	20.829905
82.026654	-3.000700	3.854100	-11.564000	21.477301	0.000891	20.853987
83.026684	-2.979600	3.854800	-11.485000	21.498475	0.000891	20.829182
84.027584	-3.007000	3.854500	-11.590000	21.506954	0.000892	20.842882
85.029685	-3.016200	3.851600	-11.615000	21.520846	0.000892	20.840187
86.029943	-3.011300	3.852800	-11.601000	21.512891	0.000892	20.831753
87.032104	-2.990300	3.853700	-11.523000	21.520422	0.000889	20.850194
88.034083	-3.005900	3.852100	-11.578000	21.541871	0.000891	20.830405
89.031699	-3.009700	3.852900	-11.595000	21.532569	0.000894	20.840537
90.032786	-3.021600	3.851100	-11.635000	21.541523	0.000892	20.853764
91.034422	-3.021900	3.849400	-11.631000	21.540325	0.000890	20.850195
92.038952	-2.978600	3.852600	-11.473000	21.558955	0.000892	20.856982
93.039336	-3.000800	3.851700	-11.557000	21.595041	0.000891	20.843782
94.035095	-3.009200	3.850100	-11.584000	21.594069	0.000893	20.866515
95.034081	-2.989600	3.851400	-11.513000	21.591725	0.000893	20.841412
96.036849	-3.014700	3.851200	-11.609000	21.604818	0.000894	20.845979
97.036125	-2.993600	3.851200	-11.527000	21.633347	0.000895	20.851294
98.035179	-2.997300	3.851400	-11.543000	21.604843	0.000893	20.851694
99.036319	-3.003500	3.848800	-11.558000	21.622898	0.000891	20.822347
100.034772	-3.013300	3.849500	-11.598000	21.629482	0.000895	20.846952
101.035024	-2.988700	3.850400	-11.507000	21.639382	0.000893	20.841687
102.038492	-2.997900	3.848400	-11.536000	21.669482	0.000893	20.867066
103.037311	-2.997400	3.849800	-11.538000	21.656365	0.000894	20.845880
104.040405	-3.020100	3.847400	-11.618000	21.660929	0.000894	20.852344
105.038314	-2.995700	3.848100	-11.526000	21.680553	0.000893	20.875301
106.038890	-3.001000	3.847300	-11.545000	21.680604	0.000892	20.846904
107.042755	-2.982400	3.848000	-11.476000	21.679531	0.000894	20.844408
108.038242	-2.994400	3.847000	-11.517000	21.693346	0.000895	20.851121
109.039969	-3.001900	3.847700	-11.550000	21.689755	0.000896	20.855114
110.041288	-2.994800	3.846500	-11.519000	21.690304	0.000896	20.839542
111.037838	-2.977800	3.848400	-11.457000	21.718083	0.000894	20.831307
112.039486	-3.013800	3.845400	-11.588000	21.699780	0.000896	20.866094
113.041504	-2.999800	3.846000	-11.537000	21.708083	0.000896	20.839318
114.042216	-3.009400	3.846900	-11.576000	21.724665	0.000895	20.832679
115.040144	-2.989800	3.846400	-11.499000	21.729627	0.000896	20.831482
116.039734	-2.970300	3.847600	-11.428000	21.743367	0.000895	20.855188
117.040688	-2.989600	3.845600	-11.496000	21.742768	0.000895	20.825667
118.049044	-2.996600	3.845000	-11.521000	21.759724	0.000895	20.848326
119.042629	-3.005400	3.847000	-11.560000	21.776032	0.000896	20.836199
120.042568	-2.993300	3.846300	-11.512000	21.775009	0.000896	20.835176
121.043731	-2.997200	3.846300	-11.527000	21.780619	0.000897	20.834152
122.044970	-3.015900	3.842800	-11.588000	21.783886	0.000896	20.838370
123.043356	-3.011700	3.844800	-11.578000	21.783836	0.000898	20.844484
124.042291	-3.002100	3.844000	-11.539000	21.796504	0.000896	20.823498
125.043530	-3.003800	3.844900	-11.548000	21.814405	0.000898	20.833829
126.042322	-2.976100	3.844900	-11.441000	21.830487	0.000897	20.831433
127.042664	-2.997700	3.842600	-11.518000	21.833554	0.000898	20.823597
128.045163	-2.985500	3.844900	-11.478000	21.824728	0.000895	20.844634
129.045746	-3.007300	3.844700	-11.561000	21.821013	0.000899	20.837123
130.043409	-2.999200	3.843400	-11.527000	21.838790	0.000898	20.824571
131.045405	-3.010900	3.842300	-11.568000	21.836571	0.000899	20.837048
132.043911	-3.005400	3.842700	-11.548000	21.827571	0.000899	20.816660
133.044882	-2.997700	3.842300	-11.517000	21.842307	0.000898	20.822875
134.047001	-3.025800	3.840300	-11.619000	21.883420	0.000900	20.810447
135.043440	-2.968900	3.842300	-11.406000	21.872400	0.000898	20.813641
136.046720	-2.995800	3.841800	-11.509000	21.885216	0.000900	20.825046
137.045682	-3.016200	3.840300	-11.582000	21.911643	0.000899	20.842015
138.046264	-2.987800	3.842400	-11.479000	21.887984	0.000902	20.824024
139.045037	-2.996300	3.840700	-11.507000	21.899004	0.000902	20.832209
140.049494	-3.003900	3.840500	-11.535000	21.894541	0.000902	20.804983
141.046272	-3.005400	3.842200	-11.546000	21.885491	0.000901	20.796398
142.047248	-2.999100	3.841100	-11.519000	21.897235	0.000903	20.815265
143.053256	-2.996900	3.840400	-11.509000	21.922964	0.000904	20.804510
144.047330	-3.008100	3.838300	-11.544000	21.916931	0.000902	20.810799
145.051436	-3.000200	3.839600	-11.519000	21.944530	0.000904	20.820882
146.048373	-2.975800	3.841000	-11.429000	21.943010	0.000905	20.809402
147.048373	-3.015800	3.837600	-11.573000	21.943832	0.000904	20.803588
148.049065	-2.992300	3.839800	-11.489000	21.966720	0.000906	20.809429
149.047981	-2.987000	3.841100	-11.472000	21.979957	0.000905	20.789489
150.050301	-3.019000	3.838700	-11.588000	21.981827	0.000906	20.827396
151.048273	-3.008100	3.839400	-11.548000	21.992722	0.000907	20.816492
152.050304	-3.001000	3.838900	-11.520000	21.992572	0.000905	20.796427
153.048687	-3.002300	3.838400	-11.523000	21.999653	0.000907	20.812998
154.050711	-2.976800	3.837700	-11.423000	22.017751	0.000908	20.816417
155.055677	-2.979300	3.838900	-11.437000	21.999279	0.000908	20.795081
156.050733	-2.999500	3.836200	-11.505000	22.017478	0.000906	20.804290
157.054313	-2.978600	3.838400	-11.432000	22.013664	0.000909	20.794782
158.052502	-3.014900	3.836600	-11.566000	22.037247	0.000910	20.791364
159.052613	-2.995900	3.838100	-11.497000	22.030591	0.000910	20.801770
160.053263	-2.996100	3.835800	-11.492000	22.047768	0.000910	20.791938
161.055970	-3.008800	3.834600	-11.536000	22.059459	0.000911	20.791314
162.052168	-2.989500	3.835300	-11.464000	22.070304	0.000913	20.801222
163.054554	-2.986500	3.836600	-11.457000	22.048667	0.000913	20.797106
164.056112	-2.987800	3.834700	-11.456000	22.059261	0.000912	20.799651
165.058300	-2.990800	3.836200	-11.472000	22.057143	0.000913	20.794685
166.060375	-2.997700	3.834800	-11.495000	22.066517	0.000911	20.791741
167.053874	-3.004300	3.834200	-11.518000	22.082395	0.000912	20.769705
168.060976	-3.001400	3.834900	-11.510000	22.063401	0.000915	20.794786
169.056601	-3.008600	3.832900	-11.530000	22.070181	0.000917	20.782608
170.056248	-3.002300	3.835000	-11.513000	22.067615	0.000914	20.794263
171.055900	-2.997500	3.834300	-11.492000	22.096032	0.000916	20.789996
172.056702	-3.005800	3.832900	-11.519000	22.086186	0.000918	20.785354
173.062880	-3.007800	3.833100	-11.528000	22.110216	0.000914	20.796609
174.054615	-3.000300	3.832900	-11.499000	22.094811	0.000916	20.786402
175.056791	-3.005900	3.833600	-11.521000	22.093690	0.000916	20.772003
176.057064	-2.978000	3.832700	-11.413000	22.119016	0.000917	20.781711
177.056741	-2.984000	3.834100	-11.440000	22.130956	0.000919	20.796036
178.056920	-2.984000	3.832800	-11.436000	22.133424	0.000915	20.784756
179.056718	-3.013000	3.832100	-11.544000	22.145439	0.000918	20.778767
180.058979	-2.997400	3.831900	-11.485000	22.145464	0.000918	20.806294
181.058471	-3.010600	3.831700	-11.534000	22.150275	0.000918	20.782187
182.060917	-3.017800	3.831000	-11.560000	22.172657	0.000919	20.761922
183.058857	-3.016900	3.831800	-11.560000	22.174179	0.000918	20.762497
184.061108	-2.983600	3.831600	-11.431000	22.177245	0.000919	20.800180
185.056766	-3.001200	3.831200	-11.497000	22.181109	0.000919	20.772280
186.058027	-3.022300	3.830300	-11.575000	22.192401	0.000921	20.774577
187.065314	-3.008100	3.830700	-11.522000	22.191852	0.000922	20.786830
188.062378	-2.989500	3.830600	-11.450000	22.215008	0.000922	20.781091
189.059796	-2.994300	3.829800	-11.467000	22.218149	0.000922	20.764320
190.060018	-2.990100	3.829800	-11.450000	22.210771	0.000922	20.783961
191.060213	-2.978800	3.830900	-11.411000	22.245467	0.000924	20.790251
192.059593	-2.995100	3.830900	-11.473000	22.221988	0.000923	20.781915
193.060634	-2.991500	3.829500	-11.455000	22.241354	0.000924	20.796090
194.059309	-2.995800	3.828300	-11.467000	22.238663	0.000925	20.755462
195.062652	-2.992200	3.828600	-11.454000	22.237815	0.000923	20.776425
196.062240	-2.988500	3.830300	-11.446000	22.250777	0.000924	20.774230
197.063306	-2.996100	3.828800	-11.470000	22.242726	0.000924	20.797938
198.071846	-2.970800	3.827900	-11.369000	22.228220	0.000924	20.774405
199.062169	-2.994900	3.827800	-11.461000	22.234427	0.000924	20.753118
200.062063	-2.999800	3.827100	-11.479000	22.247587	0.000927	20.767717
201.065722	-2.985800	3.828000	-11.429000	22.260123	0.000927	20.789753
202.061644	-2.993400	3.827800	-11.457000	22.263613	0.000927	20.757685
203.061310	-3.004100	3.826000	-11.492000	22.271165	0.000926	20.755289
204.065926	-3.002300	3.827200	-11.489000	22.256859	0.000928	20.758983
205.063225	-3.004700	3.826800	-11.497000	22.253344	0.000928	20.765421
206.062740	-3.004800	3.826700	-11.497000	22.277571	0.000928	20.751272
207.061305	-2.975500	3.828400	-11.391000	22.274081	0.000929	20.780969
208.070549	-2.985400	3.824500	-11.417000	22.295765	0.000930	20.780870
209.068106	-2.974400	3.826200	-11.379000	22.316401	0.000929	20.745582
210.064201	-2.998100	3.825500	-11.468000	22.324076	0.000929	20.770812
211.064774	-3.015100	3.823900	-11.528000	22.340102	0.000930	20.777851
212.064236	-3.013600	3.825300	-11.525000	22.336862	0.000933	20.771761
213.063841	-3.005100	3.823800	-11.489000	22.352239	0.000931	20.744484
214.067865	-2.999000	3.824200	-11.467000	22.360140	0.000934	20.768518
215.063456	-3.000400	3.824200	-11.472000	22.368040	0.000932	20.758411
216.077158	-2.987600	3.825300	-11.428000	22.381772	0.000935	20.770739
217.072541	-2.993200	3.824100	-11.445000	22.397596	0.000933	20.755765
218.070914	-2.991300	3.823400	-11.435000	22.410630	0.000933	20.760757
219.075603	-3.005400	3.823900	-11.490000	22.414692	0.000935	20.789007
220.067925	-2.993000	3.823400	-11.442000	22.411828	0.000934	20.764801
221.067442	-2.993300	3.822400	-11.441000	22.422369	0.000936	20.771090
222.074383	-3.018600	3.822200	-11.537000	22.439215	0.000935	20.738173
223.068470	-2.996300	3.823300	-11.455000	22.431066	0.000936	20.760359
224.076475	-3.012700	3.819900	-11.506000	22.402982	0.000936	20.750252
225.071661	-2.982400	3.822300	-11.398000	22.425136	0.000939	20.742092
226.068821	-2.987800	3.822300	-11.419000	22.398995	0.000939	20.769494
227.072350	-3.002900	3.821300	-11.474000	22.413275	0.000940	20.758189
228.076157	-2.974700	3.822500	-11.369000	22.422620	0.000941	20.763755
229.073377	-3.006400	3.821200	-11.487000	22.443155	0.000939	20.743067
230.073028	-2.987800	3.820700	-11.413000	22.423418	0.000941	20.757916
231.073013	-3.034000	3.819000	-11.586000	22.456164	0.000941	20.735706
232.074599	-2.981900	3.820900	-11.392000	22.455018	0.000943	20.747361
233.069174	-2.988200	3.818900	-11.411000	22.483401	0.000943	20.733585
234.070139	-3.013000	3.818900	-11.505000	22.480362	0.000942	20.748561
235.071276	-3.002900	3.820700	-11.471000	22.506851	0.000944	20.738104
236.073160	-2.989900	3.819400	-11.417000	22.481958	0.000945	20.742097
237.071113	-2.997200	3.819000	-11.444000	22.454896	0.000945	20.744393
238.073503	-2.996400	3.820000	-11.445000	22.474183	0.000942	20.758968
239.070594	-3.022900	3.819300	-11.544000	22.485074	0.000944	20.745692
240.075967	-3.027500	3.817000	-11.555000	22.467556	0.000945	20.747116
241.073021	-3.009300	3.818500	-11.490000	22.495790	0.000947	20.747889
242.070960	-3.014300	3.818000	-11.507000	22.504836	0.000945	20.758372
243.073113	-3.004900	3.817500	-11.470000	22.521581	0.000945	20.735313
244.070987	-3.002700	3.817300	-11.462000	22.512238	0.000948	20.746344
245.075620	-3.008700	3.814900	-11.476000	22.510370	0.000947	20.738783
246.075782	-3.010700	3.816700	-11.489000	22.541317	0.000947	20.750812
247.071501	-2.983900	3.816900	-11.389000	22.540770	0.000949	20.749789
248.075959	-2.995300	3.817600	-11.434000	22.546949	0.000949	20.744124
249.073735	-3.004500	3.815700	-11.463000	22.559110	0.000949	20.732121
250.074602	-2.992500	3.817500	-11.423000	22.564916	0.000947	20.724185
251.077874	-2.991200	3.816200	-11.413000	22.571868	0.000950	20.748219
252.077104	-3.015000	3.815100	-11.501000	22.585324	0.000949	20.722340
253.073440	-2.998100	3.815900	-11.439000	22.587642	0.000950	20.739835
254.075347	-2.999900	3.815900	-11.445000	22.618016	0.000952	20.745601
255.072890	-2.983200	3.814600	-11.378000	22.624967	0.000951	20.750193
256.076234	-2.995100	3.815400	-11.425000	22.614354	0.000953	20.744304
257.077439	-2.992200	3.815900	-11.417000	22.635209	0.000953	20.741485
258.075512	-3.010900	3.814500	-11.484000	22.642609	0.000954	20.749371
259.075782	-3.015100	3.813500	-11.497000	22.657310	0.000955	20.718575
260.073971	-3.000000	3.814300	-11.442000	22.655018	0.000955	20.734299
261.073672	-2.988600	3.814400	-11.398000	22.658158	0.000954	20.719899
262.077178	-3.007700	3.813900	-11.469000	22.675997	0.000954	20.721172
263.075202	-2.996400	3.813900	-11.427000	22.695529	0.000955	20.728884
264.079450	-2.981400	3.814900	-11.373000	22.686089	0.000958	20.732230
265.077231	-3.007900	3.811400	-11.462000	22.718127	0.000957	20.712638
266.076066	-2.990500	3.813400	-11.404000	22.705547	0.000956	20.735124
267.076857	-3.003700	3.811600	-11.448000	22.731008	0.000955	20.727438
268.078677	-3.007600	3.811100	-11.462000	22.730935	0.000958	20.720726
269.077622	-2.980700	3.811600	-11.361000	22.723535	0.000957	20.737496
270.077210	-2.997100	3.811600	-11.422000	22.731732	0.000959	20.726266
271.076842	-2.991600	3.812800	-11.406000	22.742744	0.000959	20.698889
272.076268	-2.993700	3.811300	-11.409000	22.743244	0.000961	20.710296
273.080309	-2.994400	3.810500	-11.410000	22.750693	0.000961	20.733406
274.076614	-3.030900	3.809300	-11.544000	22.759636	0.000963	20.722450
275.080425	-3.007900	3.809500	-11.458000	22.752761	0.000961	20.725046
276.076473	-2.998800	3.810400	-11.425000	22.746933	0.000962	20.727268
277.079311	-3.009500	3.809900	-11.464000	22.746559	0.000962	20.745387
278.082163	-2.982500	3.810300	-11.363000	22.779543	0.000961	20.710622
279.077916	-2.993500	3.809800	-11.403000	22.781461	0.000963	20.710647
280.080002	-3.007800	3.809200	-11.457000	22.788811	0.000962	20.718010
281.079290	-2.993100	3.809900	-11.402000	22.774711	0.000962	20.695349
282.079637	-3.026500	3.808800	-11.527000	22.791453	0.000964	20.707853
283.082011	-2.990000	3.810200	-11.392000	22.803560	0.000966	20.728043
284.078273	-3.014700	3.806900	-11.476000	22.826479	0.000964	20.714967
285.085229	-3.004100	3.808600	-11.440000	22.833031	0.000966	20.708728
286.078313	-3.004700	3.808400	-11.441000	22.837416	0.000968	20.694153
287.079345	-3.014200	3.807400	-11.475000	22.840505	0.000967	20.731863
288.082726	-3.004800	3.807500	-11.440000	22.857918	0.000968	20.739351
289.079752	-3.011900	3.806200	-11.463000	22.843969	0.000967	20.715418
290.079364	-2.987300	3.806800	-11.371000	22.870250	0.000969	20.700020
291.078074	-2.976100	3.807500	-11.330000	22.842052	0.000969	20.712549
292.080302	-2.985900	3.806400	-11.365000	22.864596	0.000968	20.710478
293.079515	-3.013600	3.806000	-11.467000	22.881435	0.000969	20.714545
294.081279	-3.009800	3.806300	-11.453000	22.872543	0.000972	20.708956
295.079269	-2.999900	3.805500	-11.414000	22.877675	0.000969	20.687543
296.078851	-3.006300	3.805200	-11.439000	22.873764	0.000970	20.712550
297.079815	-2.987700	3.804500	-11.366000	22.861583	0.000973	20.726901
298.080452	-3.006900	3.805100	-11.441000	22.883381	0.000970	20.713650
299.082731	-3.006400	3.804000	-11.436000	22.872694	0.000972	20.710056
300.081062	-3.005600	3.804200	-11.433000	22.838467	0.000974	20.719390
301.081809	-3.006700	3.804200	-11.436000	22.841308	0.000973	20.697578
302.080453	-3.001600	3.803700	-11.416000	22.844497	0.000976	20.685124
303.080587	-2.981300	3.804100	-11.341000	22.846714	0.000975	20.717694
304.081023	-2.986100	3.804200	-11.358000	22.885673	0.000975	20.700299
305.082651	-2.994700	3.802900	-11.386000	22.885201	0.000976	20.705042
306.083127	-3.018800	3.802900	-11.479000	22.874016	0.000979	20.715648
307.084576	-2.988800	3.801600	-11.361000	22.862707	0.000978	20.702421
308.083558	-3.010500	3.801600	-11.442000	22.861561	0.000978	20.683728
309.084178	-3.024500	3.801300	-11.495000	22.871924	0.000978	20.705491
310.088400	-3.000700	3.801500	-11.406000	22.858248	0.000979	20.713602
311.085578	-2.972700	3.802700	-11.303000	22.863504	0.000982	20.722187
312.089190	-2.999900	3.799800	-11.397000	22.868162	0.000980	20.714999
313.085560	-2.998800	3.799900	-11.394000	22.901715	0.000981	20.692662
314.086311	-2.999400	3.801500	-11.401000	22.901717	0.000981	20.710209
315.087468	-3.003100	3.800300	-11.411000	22.936515	0.000980	20.714251
316.086059	-2.994400	3.800100	-11.378000	22.922516	0.000982	20.699752
317.086710	-3.022000	3.799400	-11.482000	22.928893	0.000984	20.703769
318.088223	-2.988800	3.800300	-11.358000	22.895515	0.000982	20.693088
319.087610	-2.994100	3.799900	-11.376000	22.896412	0.000982	20.702996
320.087504	-2.969900	3.799400	-11.283000	22.890533	0.000984	20.707065
321.090447	-2.988600	3.799600	-11.354000	22.902190	0.000984	20.701673
322.089613	-2.995600	3.799900	-11.382000	22.898679	0.000984	20.691042
323.089807	-3.034800	3.797500	-11.524000	22.914421	0.000985	20.718670
324.089333	-2.996800	3.797600	-11.380000	22.933526	0.000986	20.712679
325.089050	-3.001200	3.798700	-11.400000	22.946229	0.000985	20.722088
326.092107	-2.985800	3.798700	-11.342000	22.939630	0.000986	20.687498
327.090032	-2.989300	3.798100	-11.353000	22.939130	0.000986	20.693163
328.089660	-2.992400	3.797200	-11.362000	22.952507	0.000988	20.707988
329.091490	-3.000100	3.796800	-11.390000	22.948994	0.000988	20.709685
330.091770	-3.018000	3.795600	-11.454000	22.951012	0.000987	20.717396
331.094317	-2.973600	3.797300	-11.290000	22.964064	0.000988	20.700126
332.092429	-3.000100	3.795600	-11.386000	22.972184	0.000989	20.686924
333.094892	-2.996800	3.795100	-11.372000	22.980403	0.000990	20.687572
334.093357	-3.005900	3.793600	-11.403000	23.017341	0.000989	20.700874
335.094614	-3.004400	3.795200	-11.401000	23.012409	0.000990	20.709685
336.094584	-3.030400	3.794200	-11.496000	23.017814	0.000991	20.703720
337.094815	-3.001900	3.794800	-11.390000	23.025884	0.000991	20.707538
338.095468	-2.979700	3.793700	-11.303000	23.035249	0.000992	20.717396
339.094928	-2.987100	3.795500	-11.337000	23.034900	0.000993	20.706615
340.096628	-2.988600	3.794900	-11.340000	23.052459	0.000991	20.706190
341.096250	-2.990300	3.794400	-11.345000	23.056992	0.000991	20.706939
342.099418	-2.995700	3.794300	-11.366000	23.060578	0.000994	20.734242
343.095804	-2.997900	3.793900	-11.372000	23.072134	0.000992	20.716422
344.099072	-3.004500	3.792100	-11.393000	23.053156	0.000993	20.716373
345.100970	-2.997500	3.792800	-11.368000	23.084960	0.000991	20.701298
346.099939	-3.016800	3.792300	-11.439000	23.115295	0.000996	20.716049
347.103296	-3.000000	3.792700	-11.377000	23.115320	0.000994	20.720341
348.102019	-2.996800	3.791400	-11.360000	23.121272	0.000993	20.707813
349.101736	-2.989900	3.791600	-11.336000	23.137285	0.000995	20.741878
350.101745	-2.992600	3.792800	-11.349000	23.142067	0.000997	20.719168
351.102578	-3.026500	3.790100	-11.469000	23.162413	0.000996	20.708736
352.103289	-2.989500	3.790800	-11.332000	23.184977	0.000996	20.703845
353.102252	-2.982200	3.791400	-11.305000	23.192446	0.000999	20.719392
354.103848	-2.994200	3.791200	-11.350000	23.186345	0.000997	20.722287
355.104403	-2.988600	3.789300	-11.324000	23.181239	0.000999	20.724757
356.103994	-3.013000	3.789700	-11.418000	23.226487	0.000999	20.707037
357.101914	-3.010600	3.788100	-11.404000	23.218569	0.000997	20.709059
358.105928	-2.990000	3.788300	-11.326000	23.235925	0.001000	20.711754
359.103990	-3.006700	3.788400	-11.390000	23.216401	0.000997	20.705938
360.103523	-2.989400	3.789100	-11.326000	23.216998	0.000999	20.712701
361.103893	-3.009200	3.788200	-11.398000	23.214533	0.001000	20.718292
362.103936	-2.983400	3.789600	-11.305000	23.206291	0.001002	20.720464
363.106068	-3.000500	3.787700	-11.363000	23.241079	0.001000	20.724032
364.103616	-2.995500	3.787000	-11.343000	23.221779	0.000999	20.710380
365.107447	-3.014100	3.787800	-11.416000	23.218368	0.001000	20.728774
366.107157	-2.994600	3.787300	-11.339000	23.250840	0.001003	20.723383
367.107216	-3.000000	3.787200	-11.360000	23.291305	0.001001	20.728849
368.108769	-3.002300	3.785600	-11.365000	23.264188	0.001003	20.717793
369.110280	-3.004400	3.785400	-11.372000	23.267425	0.001002	20.735737
370.106105	-3.002900	3.784900	-11.365000	23.270339	0.001002	20.723010
371.106674	-2.968400	3.787200	-11.239000	23.283188	0.001003	20.733517
372.108054	-3.019100	3.784100	-11.424000	23.264413	0.001001	20.711380
373.109890	-2.998400	3.784500	-11.347000	23.237917	0.001004	20.732244
374.108960	-3.018000	3.785600	-11.423000	23.256543	0.001003	20.715347
375.109386	-3.001000	3.785200	-11.357000	23.243943	0.001003	20.727851
376.111150	-3.031900	3.782500	-11.466000	23.253805	0.001004	20.713551
377.109319	-2.989100	3.785100	-11.313000	23.249048	0.001005	20.735813
378.110363	-3.003800	3.784000	-11.365000	23.264389	0.001004	20.711831
379.112670	-3.012500	3.783400	-11.395000	23.277288	0.001006	20.743725
380.110690	-3.011500	3.783000	-11.391000	23.293199	0.001005	20.731696
381.112159	-2.957600	3.785800	-11.194000	23.274723	0.001006	20.740207
382.113175	-3.005500	3.782600	-11.367000	23.275072	0.001007	20.732496
383.116401	-3.012400	3.782300	-11.393000	23.290960	0.001007	20.726606
384.114207	-2.987300	3.783300	-11.299000	23.293599	0.001008	20.730674
385.117553	-3.011300	3.782100	-11.387000	23.302564	0.001009	20.736340
386.115016	-3.013000	3.780900	-11.392000	23.319670	0.001007	20.737837
387.119127	-3.005900	3.782500	-11.370000	23.335955	0.001007	20.738511
388.115367	-2.984600	3.783100	-11.290000	23.353460	0.001010	20.729502
389.116064	-2.983900	3.782900	-11.286000	23.354431	0.001006	20.737114
390.119129	-2.978200	3.781600	-11.262000	23.356098	0.001008	20.724086
391.114976	-2.986000	3.781600	-11.292000	23.357345	0.001010	20.717748
392.116602	-2.997300	3.780000	-11.328000	23.353485	0.001009	20.740434
393.115435	-2.990400	3.779400	-11.301000	23.367677	0.001011	20.753710
394.116843	-2.999500	3.780300	-11.338000	23.342604	0.001011	20.750392
395.118022	-3.011100	3.779700	-11.380000	23.363544	0.001012	20.740084
396.118349	-2.995300	3.778200	-11.316000	23.351070	0.001011	20.736591
397.117719	-3.006600	3.778700	-11.360000	23.330205	0.001010	20.730378
398.118517	-2.995000	3.779000	-11.316000	23.347709	0.001011	20.758827
399.119298	-3.010500	3.778700	-11.373000	23.343252	0.001012	20.747722
400.120584	-2.998300	3.776300	-11.321000	23.367530	0.001013	20.743131
401.121150	-2.975000	3.777800	-11.237000	23.365687	0.001012	20.742232
402.120656	-2.986600	3.777300	-11.280000	23.393425	0.001011	20.727832
403.120955	-3.000900	3.775800	-11.330000	23.400645	0.001012	20.728905
404.120998	-2.988000	3.777100	-11.286000	23.427660	0.001013	20.715679
405.121621	-2.994300	3.776900	-11.308000	23.426539	0.001015	20.753438
406.123210	-3.011700	3.774400	-11.366000	23.438590	0.001012	20.733274
407.120748	-3.014200	3.774600	-11.376000	23.450940	0.001014	20.753714
408.123936	-2.994500	3.775400	-11.305000	23.454725	0.001013	20.754188
409.121432	-3.013000	3.774400	-11.371000	23.477830	0.001015	20.740363
410.119688	-2.992500	3.776500	-11.299000	23.504643	0.001016	20.739264
411.122063	-2.980700	3.776200	-11.255000	23.474269	0.001016	20.747226
412.125977	-3.003700	3.774300	-11.335000	23.502777	0.001014	20.756362
413.122057	-3.018900	3.772800	-11.388000	23.468818	0.001015	20.751245
414.121023	-3.010900	3.772800	-11.358000	23.475018	0.001014	20.745605
415.121365	-2.982000	3.773800	-11.252000	23.482687	0.001015	20.740490
416.127200	-2.978600	3.775000	-11.244000	23.476687	0.001018	20.740640
417.130136	-3.000200	3.772000	-11.316000	23.491675	0.001015	20.758509
418.121969	-3.008500	3.772800	-11.350000	23.492771	0.001020	20.759134
419.124661	-2.983300	3.773400	-11.256000	23.474995	0.001017	20.748901
420.125415	-2.993900	3.771900	-11.292000	23.487942	0.001017	20.729636
421.125040	-2.989500	3.772000	-11.276000	23.465934	0.001020	20.771114
422.127733	-3.004500	3.771100	-11.329000	23.489163	0.001018	20.748404
423.130682	-3.005200	3.770900	-11.331000	23.487769	0.001019	20.749378
424.126704	-3.014900	3.771300	-11.369000	23.507138	0.001018	20.751249
425.126453	-3.024000	3.768800	-11.395000	23.499794	0.001020	20.764277
426.125926	-3.008900	3.771100	-11.346000	23.517394	0.001020	20.741141
427.128120	-2.985000	3.770900	-11.255000	23.511694	0.001020	20.755343
428.128798	-3.009300	3.769200	-11.341000	23.494889	0.001020	20.757938
429.127487	-2.975500	3.769400	-11.215000	23.513065	0.001019	20.745811
430.133277	-3.002200	3.768700	-11.312000	23.507412	0.001019	20.765750
431.133339	-3.003700	3.769300	-11.320000	23.540200	0.001022	20.760684
432.131221	-2.996000	3.767900	-11.288000	23.543984	0.001019	20.775383
433.134998	-2.979200	3.768400	-11.226000	23.553170	0.001019	20.740494
434.131982	-3.002600	3.768700	-11.315000	23.564671	0.001018	20.769568
435.133171	-3.025200	3.767600	-11.396000	23.554390	0.001021	20.770641
436.133874	-2.983500	3.767100	-11.238000	23.578912	0.001022	20.767248
437.131258	-3.010900	3.767300	-11.341000	23.600744	0.001022	20.791979
438.131556	-2.997900	3.765800	-11.288000	23.600195	0.001021	20.770092
439.135317	-2.985000	3.767600	-11.243000	23.603107	0.001022	20.765424
440.131752	-2.984500	3.766500	-11.240000	23.599721	0.001021	20.748753
441.131984	-3.011200	3.764600	-11.335000	23.629269	0.001021	20.767944
442.133471	-2.995400	3.764700	-11.275000	23.622847	0.001021	20.766722
443.132819	-2.989400	3.765400	-11.254000	23.641965	0.001023	20.758386
444.135891	-3.022200	3.764400	-11.376000	23.620906	0.001022	20.753395
445.134310	-3.006800	3.764200	-11.317000	23.601688	0.001023	20.770165
446.133968	-3.006900	3.763300	-11.315000	23.611271	0.001023	20.768867
447.134111	-2.992600	3.763400	-11.261000	23.592975	0.001023	20.757638
448.135641	-2.983500	3.762800	-11.226000	23.621702	0.001021	20.759409
449.135016	-2.949200	3.765200	-11.103000	23.644007	0.001024	20.784615
450.133676	-3.001700	3.761400	-11.290000	23.671364	0.001025	20.773161
451.135508	-2.996600	3.762200	-11.272000	23.640645	0.001024	20.771762
452.132156	-2.978600	3.763100	-11.206000	23.662601	0.001023	20.789506
453.134246	-2.993000	3.763400	-11.263000	23.640472	0.001024	20.769691
454.135009	-3.014900	3.762100	-11.341000	23.653888	0.001024	20.778875
455.135648	-2.989200	3.761900	-11.244000	23.640000	0.001026	20.782020
456.139680	-3.012500	3.761200	-11.328000	23.641416	0.001026	20.783915
457.136201	-2.995800	3.760500	-11.265000	23.648487	0.001026	20.797642
458.137036	-2.991800	3.760800	-11.250000	23.675145	0.001024	20.779323
459.139412	-2.990000	3.760100	-11.242000	23.674450	0.001025	20.791902
460.140960	-2.986400	3.761100	-11.231000	23.699391	0.001024	20.778026
461.137816	-2.999400	3.759900	-11.277000	23.702801	0.001025	20.762952
462.139608	-2.988700	3.760200	-11.238000	23.703995	0.001025	20.756563
463.141298	-3.006800	3.758700	-11.299000	23.712409	0.001026	20.809095
464.138892	-3.002500	3.759300	-11.286000	23.702428	0.001028	20.802408
465.139359	-3.008900	3.758400	-11.308000	23.714598	0.001026	20.804652
466.140358	-3.007800	3.757200	-11.299000	23.744096	0.001028	20.811467
467.141088	-2.989600	3.757800	-11.233000	23.737350	0.001026	20.773883
468.139699	-3.010600	3.757000	-11.311000	23.754399	0.001026	20.794770
469.139197	-3.024000	3.755800	-11.356000	23.752731	0.001028	20.787408
470.141897	-3.003200	3.755900	-11.279000	23.756316	0.001025	20.799063
471.140160	-2.993600	3.755400	-11.241000	23.778270	0.001026	20.793574
472.142966	-2.984800	3.756600	-11.212000	23.789868	0.001027	20.788133
473.142662	-2.997700	3.755800	-11.258000	23.797757	0.001029	20.768542
474.141276	-3.017700	3.753600	-11.326000	23.794373	0.001026	20.822047
475.143431	-2.971800	3.756300	-11.161000	23.790938	0.001027	20.806749
476.140203	-2.992300	3.754600	-11.235000	23.814707	0.001026	20.780795
477.142792	-3.018200	3.754200	-11.330000	23.819087	0.001027	20.805576
478.139422	-2.997500	3.752600	-11.246000	23.845990	0.001028	20.816430
479.140567	-2.984100	3.756100	-11.207000	23.821077	0.001028	20.788605
480.142365	-3.000400	3.753500	-11.261000	23.807139	0.001028	20.793122
481.146063	-3.005200	3.752200	-11.275000	23.806567	0.001026	20.812937
482.142126	-3.017700	3.753300	-11.325000	23.799772	0.001029	20.806124
483.141808	-3.018700	3.753100	-11.327000	23.822644	0.001028	20.784961
484.141757	-2.998000	3.752500	-11.249000	23.817692	0.001026	20.798013
485.141275	-3.016900	3.752100	-11.317000	23.791981	0.001027	20.804002
486.144327	-3.027900	3.751100	-11.357000	23.797955	0.001027	20.822319
487.142202	-3.000100	3.751700	-11.255000	23.816547	0.001029	20.818675
488.142553	-3.018500	3.749900	-11.318000	23.824635	0.001028	20.801182
489.146096	-2.995100	3.750900	-11.233000	23.838399	0.001027	20.828258
490.141771	-2.981200	3.752100	-11.185000	23.823765	0.001029	20.797938
491.142602	-3.004400	3.749300	-11.264000	23.855497	0.001028	20.824065
492.142041	-2.997800	3.751500	-11.245000	23.867492	0.001028	20.807645
493.142501	-2.986700	3.750100	-11.199000	23.863660	0.001028	20.816129
494.141540	-3.004100	3.750000	-11.265000	23.873242	0.001030	20.822893
495.142031	-3.010500	3.749600	-11.288000	23.817094	0.001027	20.801681
496.141218	-3.003300	3.748900	-11.258000	23.842828	0.001031	20.798087
497.144275	-3.030800	3.748300	-11.359000	23.828268	0.001029	20.824265
498.142960	-3.010200	3.747900	-11.281000	23.830185	0.001029	20.815281
499.143893	-3.022800	3.746700	-11.325000	23.800492	0.001029	20.824389
500.144878	-2.989700	3.748000	-11.204000	23.756835	0.001030	20.834196
501.146370	-2.990600	3.748300	-11.209000	23.755468	0.001031	20.807221
502.148341	-2.990900	3.747900	-11.208000	23.741728	0.001031	20.822369
503.143871	-3.009200	3.747000	-11.275000	23.709867	0.001030	20.834047
504.148639	-3.010900	3.744500	-11.273000	23.739935	0.001031	20.820571
505.147113	-2.996300	3.747200	-11.227000	23.762611	0.001032	20.811064
506.146881	-2.959400	3.747300	-11.088000	23.814355	0.001032	20.822642
507.150023	-3.040400	3.743000	-11.379000	23.819033	0.001031	20.829229
508.148602	-3.003400	3.744300	-11.244000	23.855818	0.001032	20.817275
509.147655	-2.994400	3.744100	-11.210000	23.878542	0.001031	20.826785
510.145448	-3.007700	3.745500	-11.264000	23.887575	0.001033	20.816876
511.148227	-3.015700	3.742900	-11.286000	23.883643	0.001032	20.820520
512.146572	-2.978000	3.744400	-11.150000	23.916469	0.001032	20.821668
513.150299	-2.992500	3.744600	-11.205000	23.919406	0.001033	20.842630
514.150774	-2.985900	3.744300	-11.179000	23.921969	0.001031	20.821968
515.154432	-3.019100	3.742900	-11.298000	23.950364	0.001031	20.844277
516.152623	-3.021000	3.742300	-11.305000	23.969003	0.001032	20.841631
517.151054	-3.001800	3.743100	-11.235000	23.980053	0.001031	20.844177
518.156906	-2.988200	3.742600	-11.182000	23.980973	0.001031	20.828031
519.151014	-2.975400	3.742100	-11.133000	24.000309	0.001031	20.841258
520.152753	-2.996200	3.741200	-11.209000	24.000582	0.001032	20.840583
521.152571	-2.981800	3.742000	-11.157000	24.012178	0.001030	20.836091
522.153487	-2.992200	3.741300	-11.194000	24.013496	0.001032	20.854482
523.153140	-3.005500	3.740800	-11.241000	23.997670	0.001032	20.845723
524.156024	-2.996300	3.741500	-11.210000	24.034424	0.001031	20.827106
525.161446	-2.999300	3.740400	-11.218000	24.039898	0.001031	20.834492
526.154675	-2.997900	3.739600	-11.210000	24.036215	0.001032	20.856876
527.154557	-2.996400	3.739800	-11.205000	24.036787	0.001029	20.857924
528.155187	-2.986200	3.739400	-11.166000	24.044873	0.001030	20.860344
529.158003	-2.972200	3.738600	-11.111000	24.009936	0.001032	20.843800
530.155544	-2.998600	3.737700	-11.206000	23.993163	0.001030	20.846893
531.158236	-2.984400	3.739500	-11.159000	23.977510	0.001033	20.881928
532.157170	-2.994600	3.738200	-11.194000	23.954316	0.001032	20.821688
533.157413	-3.009600	3.736400	-11.244000	23.953122	0.001031	20.864585
534.159842	-3.007600	3.737000	-11.237000	23.941624	0.001032	20.866331
535.156956	-2.999000	3.737200	-11.207000	23.938587	0.001029	20.872769
536.156550	-3.008600	3.737100	-11.241000	23.941797	0.001032	20.848962
537.157191	-3.002900	3.736600	-11.220000	23.959491	0.001029	20.858170
538.157540	-3.008800	3.736000	-11.239000	23.999282	0.001030	20.840702
539.158564	-2.988400	3.735500	-11.163000	24.014014	0.001031	20.848363
540.158722	-2.992600	3.735600	-11.178000	24.017497	0.001030	20.861813
541.164928	-2.992900	3.735800	-11.179000	24.045492	0.001031	20.867602
542.159530	-3.000500	3.733300	-11.200000	24.051738	0.001032	20.871970
543.160155	-3.004700	3.734200	-11.219000	24.060919	0.001033	20.866478
544.159133	-3.009100	3.733600	-11.233000	24.058406	0.001033	20.847364
545.167900	-3.000900	3.735100	-11.206000	24.063208	0.001033	20.873516
546.159171	-2.988400	3.734700	-11.159000	24.074555	0.001032	20.869723
547.160158	-3.027400	3.732700	-11.298000	24.073982	0.001032	20.862984
548.161266	-2.992500	3.732800	-11.169000	24.095208	0.001034	20.842074
549.162807	-3.013200	3.732100	-11.245000	24.102398	0.001035	20.848810
550.164413	-3.010100	3.730500	-11.228000	24.069354	0.001033	20.858817
551.161335	-2.999900	3.732900	-11.197000	24.110883	0.001031	20.867750
552.162786	-3.016000	3.729500	-11.247000	24.133874	0.001035	20.860937
553.161670	-3.022800	3.731300	-11.278000	24.140466	0.001032	20.851903
554.163176	-3.014600	3.731000	-11.247000	24.151365	0.001033	20.852403
555.166131	-3.000900	3.730600	-11.193000	24.156067	0.001033	20.871342
556.163379	-2.986000	3.731100	-11.140000	24.159922	0.001031	20.861934
557.162271	-3.002000	3.730800	-11.199000	24.137654	0.001032	20.849556
558.164113	-2.988700	3.730300	-11.148000	24.104064	0.001032	20.855222
559.162915	-2.999900	3.729300	-11.187000	24.063752	0.001029	20.873587
560.163421	-3.013000	3.729000	-11.234000	24.088262	0.001032	20.836056
561.164558	-2.996400	3.729100	-11.173000	24.082712	0.001031	20.866524
562.163426	-3.009000	3.727700	-11.214000	24.121229	0.001032	20.839248
563.165017	-2.993200	3.728500	-11.160000	24.140040	0.001031	20.872812
564.162415	-3.004700	3.729000	-11.204000	24.140016	0.001030	20.868520
565.164380	-2.992200	3.729100	-11.157000	24.144818	0.001032	20.856267
566.167380	-3.015500	3.727700	-11.240000	24.167857	0.001031	20.831012
567.164918	-3.016600	3.727700	-11.244000	24.150615	0.001030	20.847857
568.167583	-3.011500	3.726500	-11.222000	24.171814	0.001029	20.842093
569.164335	-3.009800	3.726400	-11.215000	24.161090	0.001031	20.855992
570.163194	-2.995100	3.725600	-11.157000	24.176715	0.001029	20.859336
571.163734	-2.990700	3.726600	-11.145000	24.155616	0.001030	20.849555
572.164690	-3.004100	3.725600	-11.191000	24.141930	0.001031	20.857639
573.164879	-2.983100	3.726100	-11.115000	24.131804	0.001030	20.857914
574.164510	-2.984600	3.725600	-11.118000	24.166714	0.001031	20.835081
575.172555	-3.001500	3.725000	-11.180000	24.178631	0.001031	20.855095
576.164234	-2.974300	3.725300	-11.078000	24.187240	0.001030	20.856617
577.168721	-2.991300	3.725100	-11.142000	24.198163	0.001029	20.850504
578.165055	-2.983500	3.724300	-11.111000	24.211474	0.001030	20.845363
579.166610	-3.002300	3.723400	-11.178000	24.189778	0.001030	20.809852
580.164325	-2.986100	3.724100	-11.120000	24.211772	0.001027	20.827645
581.164302	-2.979800	3.723300	-11.093000	24.249316	0.001031	20.818836
582.167665	-3.012000	3.721400	-11.208000	24.235061	0.001028	20.832987
583.166066	-3.003900	3.722900	-11.182000	24.244763	0.001029	20.849356
584.173174	-3.022100	3.721900	-11.247000	24.198736	0.001029	20.835906
585.170675	-3.012700	3.721700	-11.211000	24.208738	0.001028	20.834084
586.168706	-3.011100	3.720900	-11.203000	24.211424	0.001028	20.822555
587.168267	-3.007200	3.720300	-11.187000	24.189556	0.001027	20.828595
588.169787	-3.026500	3.719500	-11.255000	24.185676	0.001029	20.838453
589.168979	-2.986800	3.719600	-11.109000	24.168209	0.001027	20.815245
590.168271	-2.976400	3.720800	-11.073000	24.148154	0.001029	20.848235
591.168193	-2.992600	3.720100	-11.132000	24.133226	0.001028	20.818090
592.170030	-2.976400	3.719200	-11.069000	24.111529	0.001029	20.819562
593.172605	-2.994700	3.719200	-11.137000	24.135715	0.001028	20.825802
594.168783	-2.988500	3.718600	-11.112000	24.130017	0.001029	20.815820
595.170190	-3.020600	3.717300	-11.227000	24.137854	0.001027	20.834111
596.167736	-3.004700	3.718800	-11.173000	24.157810	0.001027	20.824255
597.169044	-2.979600	3.719000	-11.080000	24.167887	0.001032	20.818715
598.168758	-2.991200	3.720000	-11.127000	24.192071	0.001031	20.794134
599.171295	-2.996500	3.717100	-11.136000	24.212474	0.001029	20.825504
600.169934	-3.008900	3.716400	-11.181000	24.218295	0.001029	20.806213
601.168672	-2.999600	3.717100	-11.149000	24.195530	0.001030	20.815621
602.168816	-3.005500	3.716300	-11.167000	24.230238	0.001032	20.813925
603.170685	-3.011600	3.716200	-11.190000	24.215335	0.001031	20.816046
604.172467	-3.004900	3.716500	-11.167000	24.201154	0.001031	20.841176
605.170204	-3.007900	3.716000	-11.177000	24.210559	0.001030	20.797979
606.173276	-3.038600	3.715400	-11.287000	24.172591	0.001028	20.822485
607.170826	-2.995500	3.715000	-11.127000	24.194761	0.001030	20.816746
608.171993	-3.000900	3.715000	-11.147000	24.198618	0.001031	20.821563
609.174323	-3.004300	3.713600	-11.155000	24.234245	0.001029	20.838806
610.171712	-2.993000	3.715100	-11.117000	24.247057	0.001028	20.816571
611.171224	-3.018800	3.713900	-11.211000	24.226856	0.001030	20.825231
612.170623	-2.980000	3.714800	-11.069000	24.220038	0.001028	20.822186
613.172793	-3.006400	3.714400	-11.166000	24.199811	0.001028	20.811854
614.172231	-2.997400	3.713700	-11.131000	24.204936	0.001031	20.806090
615.172699	-3.011400	3.713400	-11.181000	24.212723	0.001029	20.799202
616.179708	-3.010300	3.712100	-11.171000	24.204887	0.001029	20.802722
617.174874	-3.007700	3.711600	-11.163000	24.217501	0.001027	20.819167
618.176065	-2.994600	3.713000	-11.117000	24.231533	0.001028	20.810957
619.177155	-2.999900	3.712200	-11.135000	24.286641	0.001029	20.807438
620.177043	-2.988100	3.712100	-11.091000	24.272758	0.001027	20.819117
621.176511	-2.991400	3.710700	-11.098000	24.280769	0.001026	20.824307
622.177498	-3.004000	3.712300	-11.150000	24.266488	0.001029	20.824207
623.177627	-3.001700	3.711100	-11.139000	24.255342	0.001027	20.810656
624.178447	-3.003500	3.709400	-11.140000	24.217973	0.001025	20.810631
625.178600	-3.009500	3.710600	-11.166000	24.248897	0.001026	20.790442
626.177406	-3.005000	3.708900	-11.144000	24.248772	0.001027	20.824455
627.180561	-3.006000	3.708300	-11.146000	24.245761	0.001028	20.810529
628.178267	-3.003000	3.708900	-11.137000	24.252878	0.001029	20.790167
629.180669	-2.988100	3.706400	-11.073000	24.260789	0.001027	20.801895
630.191986	-3.032200	3.707100	-11.240000	24.262778	0.001027	20.813373
631.180841	-3.012300	3.706500	-11.163000	24.287581	0.001027	20.791787
632.179790	-2.991100	3.708000	-11.090000	24.313378	0.001026	20.793008
633.178557	-2.999100	3.707000	-11.117000	24.269891	0.001026	20.803913
634.183136	-3.004300	3.706300	-11.133000	24.262601	0.001026	20.792334
635.181165	-2.968700	3.708300	-11.008000	24.269865	0.001028	20.794879
636.178461	-3.003900	3.705600	-11.129000	24.271730	0.001027	20.792482
637.182144	-2.988700	3.706400	-11.076000	24.273198	0.001027	20.777833
638.182582	-2.996900	3.705600	-11.104000	24.271057	0.001027	20.799393
639.180402	-3.004200	3.705800	-11.132000	24.299915	0.001026	20.790408
640.188424	-3.008000	3.705600	-11.147000	24.322404	0.001027	20.790682
641.184693	-3.014100	3.704900	-11.165000	24.335514	0.001024	20.790083
642.184762	-3.027800	3.703500	-11.213000	24.388152	0.001024	20.814913
643.184891	-2.995500	3.704700	-11.096000	24.393051	0.001023	20.796594
644.184699	-3.015600	3.702900	-11.166000	24.397976	0.001025	20.790156
645.185502	-3.001900	3.704800	-11.120000	24.394469	0.001024	20.801810
646.186045	-2.997900	3.703400	-11.102000	24.443173	0.001024	20.789505
647.188932	-2.986100	3.703000	-11.056000	24.441905	0.001023	20.795820
648.193259	-3.026900	3.704100	-11.211000	24.400661	0.001022	20.803280
649.185811	-2.995200	3.702200	-11.088000	24.428496	0.001024	20.792798
650.188069	-2.987800	3.703300	-11.064000	24.419863	0.001023	20.810690
651.193235	-3.014100	3.702300	-11.157000	24.402300	0.001023	20.794493
652.188960	-3.001700	3.702400	-11.112000	24.427573	0.001023	20.780967
653.188502	-2.983500	3.701400	-11.042000	24.424563	0.001022	20.799284
654.186583	-3.009600	3.700500	-11.136000	24.421577	0.001024	20.799607
655.190388	-2.989400	3.702000	-11.066000	24.407298	0.001023	20.776273
656.192082	-3.000900	3.701500	-11.106000	24.386700	0.001023	20.792594
657.193071	-3.011900	3.701000	-11.145000	24.369560	0.001023	20.788201
658.190100	-2.991400	3.701300	-11.071000	24.343961	0.001021	20.775323
659.188987	-2.989400	3.701300	-11.064000	24.362070	0.001020	20.806292
660.191292	-2.994800	3.700800	-11.083000	24.331944	0.001020	20.788399
661.192466	-3.022500	3.699800	-11.181000	24.344855	0.001020	20.804195
662.192778	-3.009700	3.699900	-11.135000	24.375204	0.001020	20.775370
663.192070	-3.011800	3.697500	-11.135000	24.381372	0.001020	20.797680
664.193085	-3.022900	3.698700	-11.180000	24.386671	0.001023	20.796357
665.192049	-2.999700	3.697500	-11.090000	24.392268	0.001019	20.789170
666.192558	-2.995700	3.698400	-11.079000	24.428162	0.001019	20.784403
667.193667	-2.996900	3.697600	-11.080000	24.435525	0.001020	20.797005
668.191305	-3.027500	3.697000	-11.192000	24.439704	0.001019	20.787921
669.193439	-2.983200	3.698400	-11.032000	24.413162	0.001018	20.795433
670.193433	-3.001300	3.695100	-11.089000	24.388634	0.001019	20.790740
671.200814	-2.995900	3.696000	-11.072000	24.411643	0.001017	20.811453
672.195294	-3.006100	3.695200	-11.107000	24.402365	0.001017	20.786971
673.193646	-2.998900	3.695200	-11.081000	24.400822	0.001018	20.794433
674.191858	-2.992400	3.695500	-11.057000	24.396593	0.001015	20.786397
675.193412	-2.983200	3.695500	-11.024000	24.431096	0.001017	20.786872
676.195398	-3.004600	3.694500	-11.100000	24.410995	0.001016	20.794681
677.193551	-2.991500	3.695300	-11.054000	24.405896	0.001015	20.780556
678.195411	-3.009100	3.694300	-11.116000	24.417364	0.001015	20.795855
679.192720	-3.011100	3.693800	-11.121000	24.462288	0.001016	20.789241
680.195782	-3.004200	3.695100	-11.100000	24.463705	0.001014	20.775490
681.193264	-3.007000	3.694300	-11.108000	24.475968	0.001014	20.777836
682.192075	-2.990200	3.694000	-11.044000	24.470371	0.001013	20.778859
683.193415	-2.995100	3.692900	-11.059000	24.482807	0.001016	20.791336
684.197776	-2.974300	3.693400	-10.984000	24.449376	0.001014	20.786245
685.194754	-2.983000	3.693000	-11.015000	24.459873	0.001014	20.780654
686.195532	-2.979400	3.693000	-11.002000	24.420621	0.001013	20.786320
687.198086	-2.990700	3.693300	-11.044000	24.458629	0.001013	20.770398
688.195582	-2.986600	3.691700	-11.024000	24.480817	0.001014	20.786969
689.198176	-3.003400	3.690500	-11.083000	24.456390	0.001011	20.783325
690.195658	-3.001400	3.692300	-11.081000	24.483055	0.001012	20.772619
691.197376	-3.016500	3.691500	-11.134000	24.479175	0.001014	20.790537
692.197559	-3.004200	3.690900	-11.087000	24.493925	0.001013	20.768351
693.197417	-3.014600	3.690400	-11.125000	24.494347	0.001013	20.788689
694.198592	-3.005800	3.689300	-11.088000	24.478379	0.001013	20.783100
695.197715	-3.005800	3.689900	-11.090000	24.524593	0.001014	20.775413
696.198690	-3.004100	3.688200	-11.078000	24.527553	0.001013	20.777435
697.199197	-3.012700	3.688400	-11.110000	24.545983	0.001013	20.792133
698.198539	-3.001000	3.688000	-11.065000	24.527379	0.001012	20.777734
699.198885	-2.998700	3.688400	-11.059000	24.540735	0.001012	20.779755
700.206626	-3.014400	3.687900	-11.116000	24.509271	0.001012	20.777109
701.205082	-2.987200	3.688600	-11.017000	24.470468	0.001011	20.775637
702.200837	-2.994200	3.687300	-11.039000	24.475119	0.001010	20.756122
703.199467	-2.988400	3.687600	-11.019000	24.504322	0.001011	20.770248
704.201054	-2.981600	3.688200	-10.995000	24.492134	0.001011	20.793107
705.203968	-3.008000	3.685400	-11.084000	24.511858	0.001008	20.798197
706.201595	-2.977100	3.688600	-10.980000	24.532652	0.001009	20.772119
707.202523	-2.994000	3.685500	-11.032000	24.513774	0.001009	20.787317
708.201179	-2.991800	3.685600	-11.025000	24.509074	0.001009	20.762687
709.201363	-2.998900	3.685100	-11.050000	24.504024	0.001009	20.765207
710.205401	-2.984100	3.685700	-10.997000	24.520366	0.001008	20.768801
711.201260	-2.983600	3.684800	-10.993000	24.496688	0.001007	20.775390
712.201540	-3.015500	3.683500	-11.106000	24.499698	0.001008	20.778885
713.204264	-2.986700	3.684200	-11.003000	24.504722	0.001008	20.747414
714.204175	-3.001100	3.683400	-11.054000	24.523104	0.001007	20.758271
715.204356	-3.009500	3.683600	-11.085000	24.567551	0.001007	20.770150
716.202711	-3.016500	3.682400	-11.105000	24.542183	0.001008	20.764612
717.208021	-2.988300	3.684100	-11.008000	24.534696	0.001006	20.752832
718.204624	-2.990600	3.682500	-11.012000	24.539920	0.001007	20.764238
719.205361	-2.977000	3.682900	-10.963000	24.490646	0.001006	20.766010
720.205666	-2.994600	3.681400	-11.022000	24.500795	0.001005	20.758648
721.204285	-3.000500	3.681000	-11.044000	24.514426	0.001005	20.759522
722.206122	-2.990900	3.682100	-11.011000	24.490349	0.001005	20.755280
723.205971	-2.987300	3.680900	-10.994000	24.521467	0.001004	20.767535
724.206769	-3.014600	3.680200	-11.093000	24.546389	0.001005	20.765988
725.207603	-2.994500	3.681600	-11.024000	24.536267	0.001006	20.756779
726.210355	-3.000000	3.679800	-11.039000	24.537486	0.001006	20.751838
727.206487	-2.967000	3.682100	-10.924000	24.537958	0.001003	20.741406
728.208470	-2.989600	3.680100	-11.001000	24.542039	0.001002	20.761622
729.210479	-3.004300	3.680400	-11.055000	24.557759	0.001002	20.753213
730.207718	-2.992700	3.679200	-11.009000	24.538856	0.001002	20.745626
731.211278	-3.011800	3.679300	-11.080000	24.567285	0.001003	20.744279
732.207104	-3.001900	3.679400	-11.043000	24.552189	0.001003	20.745253
733.212569	-2.990300	3.678000	-10.996000	24.548533	0.001003	20.745378
734.207162	-3.000400	3.678900	-11.037000	24.564899	0.000999	20.739040
735.207843	-3.005200	3.679700	-11.057000	24.595392	0.001000	20.749247
736.212964	-2.980700	3.677800	-10.962000	24.586363	0.001002	20.768638
737.211895	-2.997200	3.679400	-11.027000	24.593503	0.001001	20.746403
738.212615	-2.990600	3.677400	-10.996000	24.590544	0.001000	20.734424
739.212466	-3.008300	3.676700	-11.059000	24.569826	0.000999	20.742087
740.211218	-3.002500	3.675700	-11.036000	24.595021	0.000999	20.733701
741.211281	-3.008900	3.675700	-11.058000	24.608427	0.000999	20.747627
742.216090	-3.002200	3.676200	-11.035000	24.611835	0.000999	20.741090
743.209776	-2.976200	3.675600	-10.937000	24.612606	0.000997	20.740441
744.213351	-3.008300	3.676200	-11.058000	24.586442	0.001000	20.735999
745.210301	-3.019400	3.674200	-11.092000	24.548091	0.000999	20.735451
746.214798	-3.004700	3.675100	-11.041000	24.546524	0.000998	20.733879
747.214120	-2.994100	3.674500	-11.002000	24.520806	0.000997	20.729886
748.213974	-2.993900	3.674900	-11.002000	24.522051	0.000998	20.750577
749.213342	-3.002200	3.674100	-11.029000	24.536154	0.000999	20.723000
750.211867	-2.984700	3.674300	-10.965000	24.544263	0.000998	20.737301
751.215677	-3.008800	3.672800	-11.049000	24.553790	0.001001	20.705132
752.213007	-3.022900	3.672200	-11.098000	24.546304	0.000996	20.745987
753.213974	-2.988700	3.673600	-10.978000	24.550956	0.000997	20.728368
754.216230	-3.011500	3.672000	-11.057000	24.556204	0.000997	20.715616
755.213819	-2.999000	3.672700	-11.013000	24.516211	0.000994	20.738078
756.213284	-3.008200	3.671900	-11.045000	24.526260	0.000996	20.721133
757.219418	-2.996000	3.672300	-11.001000	24.528026	0.000996	20.723380
758.215726	-2.966800	3.672500	-10.893000	24.575136	0.000996	20.731766
759.216189	-3.003300	3.670100	-11.022000	24.597646	0.000995	20.704090
760.217663	-3.009800	3.672000	-11.051000	24.603840	0.000995	20.751085
761.217478	-2.994300	3.672200	-10.994000	24.604090	0.000993	20.727153
762.220627	-3.009500	3.670900	-11.046000	24.623414	0.000994	20.710507
763.216787	-3.008400	3.670900	-11.042000	24.603545	0.000992	20.732296
764.218800	-2.994800	3.670400	-10.991000	24.645253	0.000994	20.733844
765.217328	-2.994600	3.669800	-10.988000	24.645976	0.000994	20.716551
766.218454	-2.992700	3.668900	-10.979000	24.640605	0.000994	20.729180
767.216949	-3.008100	3.669800	-11.038000	24.656648	0.000993	20.721569
768.218956	-3.003100	3.668900	-11.016000	24.679628	0.000991	20.729457
769.219473	-2.982200	3.669000	-10.941000	24.688211	0.000992	20.715784
770.222052	-3.012700	3.669000	-11.053000	24.712061	0.000991	20.716957
771.221105	-2.992100	3.668100	-10.975000	24.701170	0.000993	20.733530
772.221607	-2.999900	3.667900	-11.002000	24.695452	0.000992	20.721153
773.222435	-2.988200	3.667500	-10.957000	24.706196	0.000990	20.718658
774.220096	-3.007100	3.665200	-11.020000	24.729076	0.000988	20.718385
775.223006	-3.005300	3.665200	-11.014000	24.743701	0.000991	20.730217
776.222211	-2.983900	3.666800	-10.940000	24.765239	0.000990	20.721484
777.220685	-2.997900	3.665700	-10.988000	24.770313	0.000991	20.709980
778.222800	-3.000400	3.666800	-11.000000	24.752757	0.000989	20.720812
779.220523	-3.002600	3.664700	-11.002000	24.753031	0.000989	20.724406
780.220463	-3.002900	3.664600	-11.002000	24.715309	0.000989	20.707888
781.222205	-2.990700	3.665000	-10.960000	24.710460	0.000989	20.733369
782.222013	-2.989700	3.663400	-10.951000	24.697431	0.000990	20.714604
783.222104	-3.012500	3.664400	-11.038000	24.717030	0.000987	20.719098
784.227351	-2.996900	3.663700	-10.978000	24.715042	0.000986	20.722319
785.220255	-2.957300	3.665000	-10.837000	24.704051	0.000988	20.712712
786.223080	-3.014800	3.664100	-11.046000	24.729691	0.000986	20.727537
787.223348	-3.004200	3.663400	-11.004000	24.714846	0.000987	20.728288
788.223833	-3.000900	3.662100	-10.989000	24.712585	0.000987	20.715587
789.226637	-2.996800	3.663800	-10.978000	24.702864	0.000987	20.726220
790.221429	-3.018200	3.662200	-11.051000	24.698688	0.000987	20.722504
791.224733	-3.012300	3.661000	-11.027000	24.701126	0.000984	20.718312
792.223407	-2.991700	3.661000	-10.952000	24.725125	0.000985	20.714894
793.223967	-2.988300	3.662900	-10.945000	24.747011	0.000986	20.718365
794.225281	-2.980400	3.662700	-10.915000	24.759125	0.000984	20.721987
795.226440	-2.985300	3.661800	-10.931000	24.766761	0.000984	20.713054
796.224677	-2.976400	3.661600	-10.897000	24.764002	0.000984	20.730201
797.224938	-2.992200	3.660600	-10.952000	24.773079	0.000982	20.721292
798.225027	-2.999000	3.659900	-10.975000	24.782383	0.000985	20.720197
799.225339	-2.994800	3.661100	-10.963000	24.796135	0.000982	20.715032
800.226026	-2.992600	3.661100	-10.954000	24.811306	0.000982	20.730258
801.227308	-2.999700	3.659500	-10.976000	24.818344	0.000981	20.716932
802.233456	-3.012300	3.658200	-11.019000	24.820859	0.000982	20.714714
803.232768	-2.998300	3.659300	-10.969000	24.813774	0.000982	20.724674
804.228269	-2.993300	3.658700	-10.951000	24.827626	0.000981	20.718187
805.231935	-2.991400	3.658700	-10.944000	24.813057	0.000982	20.723954
806.229916	-3.017500	3.656600	-11.032000	24.826736	0.000981	20.716345
807.230062	-2.998400	3.657800	-10.966000	24.778397	0.000980	20.719516
808.229269	-2.996100	3.657500	-10.957000	24.782677	0.000979	20.701525
809.232266	-2.981100	3.657900	-10.904000	24.777631	0.000978	20.734869
810.233140	-2.992500	3.657300	-10.944000	24.775122	0.000978	20.711962
811.232582	-2.985100	3.657700	-10.917000	24.803100	0.000979	20.702106
812.241383	-2.985100	3.657900	-10.917000	24.785273	0.000979	20.728788
813.233639	-2.988000	3.657000	-10.925000	24.791468	0.000977	20.698019
814.231327	-3.008700	3.655400	-10.997000	24.748177	0.000977	20.729493
815.231831	-3.021500	3.655200	-11.043000	24.744200	0.000978	20.721708
816.235353	-3.022200	3.653100	-11.040000	24.754698	0.000979	20.716596
817.233054	-3.007900	3.655500	-10.993000	24.757334	0.000977	20.716871
818.238710	-2.996700	3.654500	-10.950000	24.743835	0.000977	20.725135
819.235453	-3.004500	3.655100	-10.980000	24.777333	0.000977	20.730303
820.235412	-2.997900	3.653700	-10.952000	24.794642	0.000976	20.717801
821.240127	-3.009000	3.652700	-10.990000	24.822420	0.000978	20.709642
822.234035	-2.986100	3.654200	-10.911000	24.818493	0.000976	20.728936
823.234649	-2.979000	3.655100	-10.886000	24.830804	0.000974	20.729912
824.236014	-2.994300	3.653500	-10.938000	24.825633	0.000976	20.712393
825.235962	-3.020600	3.652900	-11.032000	24.813973	0.000975	20.720606
826.239780	-3.013200	3.652600	-11.006000	24.799554	0.000975	20.708032
827.240335	-3.024300	3.650000	-11.037000	24.835562	0.000975	20.718565
828.240901	-2.996200	3.653000	-10.943000	24.864807	0.000976	20.724208
829.238462	-3.000700	3.650200	-10.952000	24.854463	0.000973	20.704816
830.236737	-2.997800	3.652200	-10.947000	24.872818	0.000972	20.706169
831.241063	-2.993200	3.651500	-10.929000	24.872297	0.000972	20.710862
832.244296	-2.978800	3.652200	-10.879000	24.836046	0.000975	20.714783
833.240189	-2.966000	3.651200	-10.827000	24.807801	0.000971	20.715834
834.239136	-2.985700	3.651200	-10.900000	24.795769	0.000972	20.738374
835.237976	-2.969800	3.651400	-10.842000	24.811137	0.000971	20.699267
836.238732	-3.013600	3.649500	-10.995000	24.776500	0.000972	20.726622
837.245890	-3.002300	3.648500	-10.953000	24.820368	0.000971	20.729870
838.240562	-2.988900	3.649300	-10.906000	24.839294	0.000971	20.727052
839.242028	-2.975300	3.650800	-10.861000	24.833106	0.000970	20.710409
840.241706	-2.991400	3.648800	-10.914000	24.873863	0.000971	20.718124
841.242592	-3.004300	3.648500	-10.960000	24.880131	0.000970	20.730106
842.243725	-2.984700	3.648400	-10.889000	24.875955	0.000970	20.706947
843.247595	-2.984900	3.650400	-10.894000	24.895130	0.000968	20.731883
844.242414	-2.998400	3.648600	-10.940000	24.917684	0.000969	20.718009
845.243798	-3.015700	3.646900	-10.997000	24.926238	0.000971	20.720431
846.244590	-3.001800	3.647500	-10.947000	24.929102	0.000966	20.724728
847.243140	-3.000600	3.646200	-10.940000	24.921743	0.000970	20.721136
848.247715	-2.975900	3.648000	-10.853000	24.920257	0.000969	20.755207
849.245141	-2.998400	3.645700	-10.930000	24.920159	0.000967	20.740884
850.245152	-3.011500	3.645600	-10.977000	24.911210	0.000967	20.720994
851.245683	-3.004000	3.644600	-10.947000	24.903009	0.000967	20.736472
852.247222	-2.994800	3.646100	-10.918000	24.877004	0.000966	20.744037
853.248182	-3.003900	3.644600	-10.947000	24.856096	0.000965	20.727320
854.247176	-2.977900	3.645900	-10.856000	24.829915	0.000965	20.729967
855.247316	-2.992500	3.643400	-10.902000	24.800849	0.000964	20.742997
856.248393	-2.969300	3.645700	-10.823000	24.816418	0.000964	20.727328
857.249783	-3.015100	3.643500	-10.984000	24.826395	0.000963	20.723589
858.253315	-2.977300	3.644800	-10.851000	24.866903	0.000965	20.725364
859.251477	-2.990000	3.643700	-10.894000	24.863026	0.000962	20.729059
860.250715	-2.995500	3.644300	-10.915000	24.853034	0.000964	20.736575
861.250444	-2.984900	3.642300	-10.869000	24.852713	0.000962	20.757591
862.250961	-2.967300	3.643400	-10.810000	24.866094	0.000963	20.740200
863.248988	-2.980900	3.642500	-10.857000	24.868237	0.000963	20.738557
864.251911	-2.982200	3.642400	-10.861000	24.863440	0.000962	20.729000
865.250639	-3.020800	3.640600	-10.996000	24.846536	0.000961	20.726734
866.264587	-3.000300	3.642900	-10.929000	24.880355	0.000961	20.734124
867.249248	-3.008300	3.641900	-10.955000	24.924069	0.000961	20.741963
868.250490	-3.002500	3.639000	-10.925000	24.943194	0.000961	20.732234
869.255868	-2.980700	3.641400	-10.853000	24.969229	0.000960	20.735133
870.251002	-2.997200	3.640400	-10.910000	24.992181	0.000961	20.730670
871.254035	-2.997900	3.640800	-10.914000	24.987836	0.000961	20.724412
872.266441	-3.003100	3.640800	-10.933000	24.996467	0.000961	20.734497
873.251683	-2.997000	3.638200	-10.902000	25.017925	0.000959	20.733277
874.252290	-2.988000	3.640500	-10.877000	25.027327	0.000959	20.720429
875.258791	-3.009200	3.638500	-10.948000	25.009281	0.000959	20.734084
876.253650	-2.998400	3.638700	-10.909000	24.987506	0.000959	20.724555
877.254012	-2.999600	3.639300	-10.915000	25.040814	0.000959	20.739183
878.254017	-2.996400	3.638300	-10.900000	25.015834	0.000957	20.752516
879.255467	-3.011900	3.638800	-10.959000	25.059468	0.000958	20.731356
880.256022	-2.993900	3.638200	-10.891000	25.059971	0.000958	20.732335
881.253850	-3.013700	3.637100	-10.960000	25.063157	0.000956	20.727947
882.253793	-3.008900	3.636200	-10.940000	25.073328	0.000955	20.723931
883.253946	-3.004800	3.637300	-10.928000	25.029281	0.000957	20.747048
884.255129	-3.004900	3.635500	-10.923000	25.012305	0.000954	20.721471
885.255961	-2.980300	3.636000	-10.836000	25.002591	0.000956	20.717410
886.257852	-3.004600	3.636500	-10.924000	24.965897	0.000955	20.739375
887.256485	-2.994400	3.634300	-10.882000	24.917394	0.000954	20.755652
888.255174	-3.013600	3.634600	-10.953000	24.939777	0.000954	20.719795
889.257408	-3.000900	3.633600	-10.903000	24.957035	0.000953	20.710090
890.260260	-3.003600	3.635400	-10.919000	24.973077	0.000951	20.734254
891.263487	-2.991400	3.635200	-10.873000	24.999636	0.000953	20.721083
892.257402	-3.010500	3.633800	-10.938000	25.010878	0.000952	20.730471
893.261596	-2.985500	3.635100	-10.851000	25.023686	0.000952	20.727206
894.256788	-3.004000	3.632700	-10.912000	25.023294	0.000953	20.741986
895.256779	-3.014100	3.634000	-10.950000	25.033368	0.000950	20.724597
896.261370	-2.985600	3.636300	-10.855000	25.044210	0.000952	20.747809
897.256689	-3.013700	3.633000	-10.947000	25.038127	0.000950	20.715623
898.259059	-2.983000	3.632600	-10.835000	25.049394	0.000951	20.746374
899.257608	-2.989800	3.633100	-10.860000	25.062251	0.000951	20.741262
900.257721	-3.004900	3.630200	-10.906000	25.056317	0.000949	20.741469
901.267173	-3.000600	3.632900	-10.900000	25.093787	0.000949	20.721235
902.262970	-2.989500	3.631900	-10.856000	25.088200	0.000949	20.743128
903.260328	-3.000500	3.631700	-10.896000	25.088800	0.000948	20.736619
904.261066	-2.987300	3.631500	-10.847000	25.078492	0.000947	20.756617
905.259691	-2.991700	3.631500	-10.863000	25.077601	0.000946	20.729169
906.260657	-3.010300	3.629400	-10.924000	25.077111	0.000948	20.742428
907.263606	-3.003200	3.629600	-10.900000	25.064587	0.000947	20.750719
908.262323	-2.988400	3.629900	-10.846000	25.108445	0.000946	20.743063
909.265283	-2.997900	3.630100	-10.882000	25.130080	0.000945	20.746289
910.272149	-3.019800	3.627700	-10.954000	25.131254	0.000945	20.741304
911.259458	-2.982500	3.630200	-10.825000	25.135511	0.000944	20.709540
912.260890	-3.018000	3.628000	-10.948000	25.156174	0.000944	20.736924
913.262412	-2.995900	3.628900	-10.871000	25.150464	0.000945	20.723130
914.262800	-2.993000	3.628600	-10.859000	25.162328	0.000943	20.732670
915.264802	-3.002800	3.627100	-10.890000	25.190349	0.000944	20.745155
916.264432	-2.973900	3.628000	-10.788000	25.182701	0.000943	20.754546
917.267224	-2.994000	3.627300	-10.858000	25.211441	0.000943	20.735509
918.269297	-3.003800	3.627300	-10.894000	25.187658	0.000944	20.747194
919.265251	-3.030300	3.624900	-10.984000	25.163951	0.000942	20.740464
920.265021	-3.006700	3.627100	-10.905000	25.166666	0.000940	20.737025
921.265711	-3.004000	3.625700	-10.890000	25.166399	0.000943	20.742447
922.269929	-3.000400	3.625900	-10.877000	25.152957	0.000941	20.734168
923.272644	-2.985900	3.626100	-10.826000	25.147791	0.000941	20.748897
924.268183	-3.001500	3.625200	-10.880000	25.169923	0.000941	20.736027
925.270882	-3.007900	3.625000	-10.902000	25.184421	0.000941	20.743944
926.269783	-3.018400	3.623100	-10.935000	25.200113	0.000940	20.758750
927.268757	-3.001400	3.625200	-10.880000	25.207625	0.000938	20.750645
928.272252	-2.988900	3.624300	-10.831000	25.185385	0.000938	20.744438
929.271915	-2.978800	3.623500	-10.793000	25.173607	0.000939	20.754900
930.272085	-2.999500	3.623900	-10.869000	25.185299	0.000938	20.742929
931.272088	-3.024200	3.621000	-10.950000	25.188338	0.000938	20.767318
932.271901	-3.026500	3.621100	-10.958000	25.236516	0.000938	20.739821
933.271149	-2.978500	3.622600	-10.789000	25.209255	0.000937	20.757497
934.273168	-3.030300	3.621900	-10.975000	25.191588	0.000935	20.762046
935.272636	-2.977000	3.621500	-10.779000	25.179591	0.000935	20.759010
936.274512	-3.015300	3.620900	-10.916000	25.166023	0.000936	20.760562
937.272142	-2.985300	3.623300	-10.816000	25.158896	0.000936	20.745347
938.275328	-2.977700	3.622800	-10.787000	25.169397	0.000936	20.744982
939.275458	-2.986300	3.621300	-10.812000	25.179842	0.000934	20.742192
940.276031	-2.982900	3.620800	-10.799000	25.197350	0.000936	20.740328
941.276206	-3.004800	3.620300	-10.876000	25.186942	0.000934	20.759278
942.274746	-3.002200	3.619300	-10.864000	25.215288	0.000933	20.764502
943.274824	-2.990600	3.620800	-10.828000	25.231131	0.000932	20.750062
944.282270	-3.021900	3.618600	-10.933000	25.226463	0.000932	20.762920
945.277330	-3.006600	3.619300	-10.881000	25.200076	0.000933	20.747333
946.279696	-2.976200	3.622100	-10.779000	25.197917	0.000932	20.739950
947.278520	-2.999500	3.618300	-10.852000	25.212048	0.000931	20.758878
948.278239	-3.012900	3.619500	-10.904000	25.227740	0.000930	20.741916
949.281167	-2.999600	3.617400	-10.850000	25.243531	0.000930	20.769624
950.279255	-2.978000	3.617500	-10.772000	25.241999	0.000930	20.723988
951.279551	-3.015200	3.617100	-10.904000	25.216804	0.000928	20.748480
952.279398	-2.993200	3.616400	-10.823000	25.200557	0.000928	20.731220
953.277559	-2.985800	3.618000	-10.802000	25.190197	0.000928	20.754959
954.279130	-3.024400	3.615300	-10.933000	25.205393	0.000928	20.760732
955.283229	-3.005300	3.617400	-10.870000	25.217783	0.000928	20.761791
956.279324	-2.997400	3.616300	-10.838000	25.249980	0.000927	20.751917
957.287664	-3.002300	3.615900	-10.855000	25.243424	0.000926	20.742489
958.280577	-3.006600	3.615000	-10.867000	25.287652	0.000928	20.748014
959.280219	-3.005600	3.615800	-10.867000	25.271799	0.000927	20.762918
960.284546	-3.001000	3.614500	-10.846000	25.297763	0.000926	20.760537
961.279566	-3.001700	3.614900	-10.848000	25.305723	0.000924	20.740553
962.279749	-3.006600	3.613000	-10.862000	25.297605	0.000925	20.747101
963.280792	-3.003700	3.615000	-10.858000	25.301166	0.000926	20.765377
964.278454	-2.999000	3.613100	-10.834000	25.270207	0.000924	20.768432
965.281116	-2.993300	3.614800	-10.818000	25.276106	0.000923	20.739266
966.283048	-3.005700	3.612700	-10.857000	25.290060	0.000923	20.745690
967.281075	-3.009800	3.611600	-10.870000	25.294289	0.000923	20.752781
968.281719	-3.006400	3.612600	-10.860000	25.272278	0.000923	20.768140
969.280557	-2.990800	3.612900	-10.804000	25.290680	0.000922	20.760064
970.282247	-3.000000	3.612400	-10.836000	25.274284	0.000921	20.760671
971.283852	-3.022200	3.612100	-10.915000	25.213370	0.000922	20.741239
972.282111	-2.998000	3.611900	-10.828000	25.200850	0.000922	20.746213
973.284475	-3.037900	3.610100	-10.966000	25.186539	0.000919	20.759822
974.284607	-2.996300	3.611600	-10.821000	25.191346	0.000921	20.761328
975.283458	-3.007900	3.611800	-10.863000	25.181162	0.000919	20.758217
976.288282	-2.984900	3.607700	-10.768000	25.194170	0.000917	20.766061
977.284717	-3.007700	3.610000	-10.857000	25.166240	0.000918	20.751771
978.283902	-2.995800	3.609000	-10.810000	25.163811	0.000919	20.768299
979.285125	-2.995900	3.609100	-10.812000	25.174461	0.000918	20.778991
980.291200	-2.990300	3.609000	-10.791000	25.210884	0.000917	20.771935
981.285604	-2.994000	3.609800	-10.806000	25.237017	0.000917	20.753601
982.286832	-2.988700	3.608700	-10.785000	25.238295	0.000919	20.763893
983.286115	-2.974500	3.607500	-10.730000	25.240043	0.000917	20.765648
984.288446	-3.011000	3.605400	-10.855000	25.261925	0.000916	20.769600
985.287123	-3.002700	3.607600	-10.831000	25.276776	0.000916	20.771708
986.287634	-3.000800	3.606700	-10.822000	25.269479	0.000915	20.746838
987.288240	-2.989100	3.605800	-10.777000	25.280197	0.000915	20.754279
988.287308	-2.997300	3.606200	-10.808000	25.312175	0.000914	20.757463
989.289500	-2.994000	3.606400	-10.796000	25.286260	0.000916	20.774592
990.287418	-3.008700	3.604600	-10.843000	25.298123	0.000914	20.795986
991.287502	-3.018000	3.605700	-10.881000	25.253141	0.000912	20.734701
992.289314	-3.021500	3.604600	-10.889000	25.218132	0.000913	20.775893
993.291404	-3.014900	3.605600	-10.870000	25.232928	0.000912	20.751866
994.288506	-3.019500	3.604200	-10.881000	25.263935	0.000910	20.780627
995.288416	-3.009700	3.603500	-10.844000	25.259692	0.000911	20.771151
996.288732	-3.005300	3.603800	-10.829000	25.304718	0.000912	20.761355
997.289466	-3.002400	3.603400	-10.818000	25.281436	0.000910	20.755049
998.300315	-2.999200	3.604100	-10.808000	25.260339	0.000910	20.769430
999.288091	-2.990600	3.604100	-10.778000	25.243799	0.000909	20.763255
1000.291981	-3.014800	3.601900	-10.858000	25.240052	0.000909	20.781305
1001.298173	-3.013100	3.601800	-10.851000	25.260004	0.000908	20.751549
1002.289032	-2.988000	3.603400	-10.766000	25.277259	0.000909	20.759390
1003.290075	-2.986400	3.602000	-10.756000	25.292875	0.000907	20.775544
1004.290327	-3.000200	3.602400	-10.806000	25.278048	0.000908	20.758286
1005.290906	-3.000800	3.601100	-10.806000	25.296921	0.000908	20.761114
1006.290154	-3.010100	3.601500	-10.840000	25.314405	0.000907	20.761124
1007.289912	-3.005200	3.600300	-10.819000	25.356666	0.000905	20.770841
1008.288829	-2.990700	3.600900	-10.768000	25.372609	0.000906	20.776892
1009.292752	-3.004800	3.600200	-10.817000	25.364687	0.000904	20.755187
1010.291603	-3.001300	3.601400	-10.808000	25.366414	0.000904	20.762137
1011.294303	-2.998200	3.599200	-10.790000	25.373755	0.000904	20.758602
1012.290514	-3.002800	3.598600	-10.804000	25.348114	0.000906	20.781221
1013.291227	-3.001100	3.599900	-10.803000	25.352202	0.000904	20.746444
1014.300307	-2.993300	3.599200	-10.772000	25.332651	0.000904	20.746253
1015.293276	-2.992400	3.599200	-10.768000	25.322967	0.000902	20.764031
1016.292582	-3.007700	3.599200	-10.823000	25.301875	0.000901	20.765139
1017.290524	-3.010300	3.597100	-10.828000	25.291521	0.000903	20.755218
1018.294014	-2.980100	3.598400	-10.722000	25.301100	0.000901	20.749663
1019.295738	-2.980900	3.597800	-10.724000	25.297034	0.000901	20.729458
1020.302123	-2.999500	3.598000	-10.790000	25.292446	0.000899	20.738602
1021.294188	-3.016300	3.595500	-10.844000	25.314156	0.000897	20.726734
1022.297090	-2.999500	3.597100	-10.789000	25.345482	0.000900	20.745387
1023.294240	-2.995500	3.596400	-10.771000	25.352771	0.000898	20.739428
1024.294466	-3.034300	3.593900	-10.904000	25.331240	0.000900	20.741991
1025.296359	-3.018000	3.593200	-10.843000	25.342901	0.000898	20.731415
1026.294006	-2.980600	3.596100	-10.717000	25.328721	0.000897	20.747523
1027.297492	-2.996800	3.596400	-10.777000	25.301289	0.000896	20.744162
1028.295165	-2.992900	3.594300	-10.755000	25.338185	0.000897	20.732843
1029.293580	-3.007200	3.593900	-10.806000	25.334591	0.000895	20.724492
1030.300013	-3.008300	3.593600	-10.809000	25.369498	0.000894	20.724455
1031.294003	-3.003300	3.594000	-10.793000	25.399336	0.000895	20.736873
1032.297396	-3.022100	3.591400	-10.852000	25.420146	0.000893	20.756347
1033.295307	-2.986700	3.594200	-10.732000	25.443217	0.000894	20.730201
1034.295124	-3.007300	3.592600	-10.803000	25.437813	0.000892	20.725248
1035.295054	-3.011200	3.591400	-10.811000	25.431087	0.000892	20.716122
1036.298782	-3.014700	3.591400	-10.826000	25.422176	0.000892	20.715710
1037.295928	-2.993100	3.591300	-10.749000	25.412173	0.000890	20.709932
1038.297650	-3.004100	3.589800	-10.783000	25.409126	0.000892	20.722520
1039.297699	-2.974500	3.592000	-10.683000	25.412242	0.000891	20.735133
1040.296877	-2.999600	3.591600	-10.773000	25.411084	0.000889	20.747721
1041.300856	-2.996200	3.592400	-10.762000	25.402424	0.000890	20.726222
1042.300123	-3.028300	3.588500	-10.866000	25.384340	0.000888	20.718021
1043.300213	-2.989100	3.590200	-10.730000	25.411913	0.000888	20.720577
1044.299463	-2.990700	3.588300	-10.731000	25.413764	0.000887	20.718168
1045.300304	-2.999600	3.590100	-10.767000	25.442403	0.000887	20.706149
1046.301651	-3.004400	3.590000	-10.785000	25.452081	0.000885	20.725351
1047.302240	-3.015700	3.587400	-10.817000	25.468767	0.000888	20.710812
1048.299469	-2.998600	3.586600	-10.753000	25.449219	0.000885	20.707303
1049.300775	-3.006600	3.588000	-10.785000	25.496843	0.000887	20.718617
1050.301907	-2.985400	3.587100	-10.708000	25.496235	0.000886	20.701411
1051.305243	-3.005400	3.587100	-10.779000	25.476913	0.000885	20.702396
1052.303511	-3.013200	3.586400	-10.806000	25.459726	0.000884	20.712639
1053.304827	-3.000800	3.588100	-10.766000	25.476609	0.000882	20.710152
1054.305818	-3.009900	3.586100	-10.793000	25.460170	0.000883	20.718300
1055.306032	-2.984300	3.585600	-10.699000	25.477131	0.000883	20.723953
1056.306096	-3.004700	3.584900	-10.771000	25.491383	0.000883	20.701279
1057.308745	-3.012000	3.585300	-10.798000	25.465520	0.000881	20.713241
1058.309761	-2.998600	3.585000	-10.749000	25.442568	0.000882	20.710582
1059.305972	-2.980000	3.586800	-10.688000	25.440618	0.000881	20.696295
1060.306632	-3.020400	3.584000	-10.823000	25.460807	0.000881	20.722734
1061.315682	-2.986200	3.585200	-10.706000	25.462064	0.000880	20.694122
1062.308638	-2.996800	3.583200	-10.737000	25.487866	0.000881	20.696325
1063.310071	-2.985300	3.583100	-10.695000	25.497252	0.000880	20.692474
1064.306942	-3.005800	3.582500	-10.768000	25.494625	0.000880	20.691732
1065.307853	-3.027700	3.581100	-10.839000	25.503535	0.000879	20.692145
1066.308291	-2.990000	3.582700	-10.710000	25.527652	0.000877	20.704986
1067.312562	-2.985800	3.581400	-10.692000	25.542203	0.000876	20.713435
1068.309475	-2.992100	3.583200	-10.720000	25.555657	0.000876	20.688065
1069.315331	-2.999400	3.581500	-10.741000	25.561135	0.000877	20.682185
1070.314419	-2.992200	3.580400	-10.712000	25.569441	0.000877	20.696218
1071.307654	-3.004900	3.580400	-10.758000	25.572242	0.000875	20.686227
1072.310538	-2.986800	3.582000	-10.697000	25.587387	0.000876	20.695275
1073.309625	-2.996200	3.580500	-10.726000	25.563195	0.000875	20.688996
1074.309915	-2.979500	3.580600	-10.668000	25.551006	0.000874	20.679599
1075.326902	-3.010100	3.579600	-10.774000	25.527314	0.000874	20.694214
1076.310246	-2.991900	3.580500	-10.712000	25.541163	0.000872	20.686310
1077.310837	-3.003100	3.579600	-10.749000	25.535235	0.000872	20.667553
1078.309382	-3.007400	3.578800	-10.762000	25.512093	0.000872	20.699317
1079.309130	-3.021600	3.577300	-10.809000	25.501094	0.000872	20.691117
1080.312709	-3.001800	3.579400	-10.744000	25.493204	0.000872	20.681770
1081.310807	-2.994400	3.577200	-10.710000	25.457456	0.000872	20.678588
1082.313719	-2.993600	3.578000	-10.710000	25.462442	0.000870	20.680750
1083.313451	-2.989200	3.578700	-10.697000	25.497543	0.000868	20.697509
1084.313900	-3.009000	3.578000	-10.765000	25.520098	0.000869	20.665627
1085.315839	-3.006500	3.577600	-10.755000	25.545853	0.000870	20.679640
1086.318260	-3.005600	3.576000	-10.747000	25.548203	0.000869	20.690061
1087.315963	-3.017800	3.576000	-10.791000	25.585904	0.000867	20.676240
1088.313899	-2.982900	3.577300	-10.669000	25.588583	0.000867	20.664705
1089.319364	-2.999200	3.575100	-10.721000	25.587127	0.000868	20.680787
1090.312673	-3.003300	3.575500	-10.737000	25.548406	0.000867	20.677936
1091.313865	-2.995400	3.574800	-10.706000	25.539223	0.000866	20.697165
1092.313171	-2.989100	3.574700	-10.684000	25.541947	0.000865	20.688046
1093.314101	-2.993900	3.574200	-10.700000	25.514675	0.000864	20.681520
1094.315604	-3.023300	3.573700	-10.803000	25.521274	0.000864	20.669180
1095.321584	-2.992000	3.574600	-10.694000	25.527225	0.000863	20.676579
1096.318586	-2.989300	3.573600	-10.682000	25.537827	0.000861	20.702876
1097.313980	-3.007300	3.573100	-10.745000	25.546635	0.000860	20.683745
1098.315660	-3.015500	3.572800	-10.773000	25.542474	0.000861	20.670082
1099.320161	-3.002300	3.572400	-10.724000	25.558841	0.000861	20.660439
1100.319786	-2.995400	3.572400	-10.699000	25.539045	0.000861	20.672802
1101.313579	-3.006200	3.572000	-10.735000	25.531510	0.000861	20.665234
1102.314729	-3.016300	3.569600	-10.766000	25.541361	0.000861	20.677025
1103.315669	-2.991100	3.569900	-10.677000	25.557649	0.000858	20.655922
1104.315449	-3.018800	3.569800	-10.774000	25.577941	0.000860	20.660654
1105.317343	-3.006800	3.570200	-10.734000	25.598950	0.000857	20.658520
1106.316682	-3.001800	3.569400	-10.715000	25.593319	0.000858	20.653338
1107.314888	-2.989700	3.569900	-10.672000	25.649937	0.000856	20.661839
1108.321042	-3.003700	3.569900	-10.720000	25.659487	0.000856	20.656731
1109.317186	-3.009600	3.569200	-10.741000	25.641960	0.000855	20.648136
1110.323207	-3.002800	3.569200	-10.717000	25.657008	0.000855	20.664674
1111.317446	-2.979600	3.570000	-10.636000	25.671834	0.000856	20.652063
1112.318808	-3.015400	3.568700	-10.760000	25.641650	0.000855	20.655412
1113.318037	-3.014500	3.567100	-10.751000	25.623499	0.000853	20.650932
1114.319832	-2.993100	3.566400	-10.673000	25.625028	0.000854	20.638242
1115.319768	-2.991700	3.567600	-10.672000	25.637864	0.000853	20.660144
1116.319180	-3.002800	3.566800	-10.709000	25.618020	0.000851	20.646377
1117.320743	-3.012900	3.567400	-10.747000	25.640519	0.000852	20.663760
1118.320149	-3.007400	3.565200	-10.721000	25.627610	0.000849	20.641784
1119.322578	-2.983000	3.567300	-10.640000	25.625732	0.000851	20.660762
1120.326166	-2.992500	3.567400	-10.674000	25.632258	0.000850	20.643607
1121.322452	-2.985100	3.565200	-10.640000	25.630503	0.000850	20.643740
1122.325117	-2.990700	3.565600	-10.662000	25.636257	0.000851	20.651891
1123.321573	-3.019400	3.563900	-10.759000	25.633439	0.000849	20.667555
1124.321878	-2.982300	3.564900	-10.630000	25.644209	0.000848	20.641859
1125.321281	-2.987000	3.564400	-10.645000	25.653066	0.000848	20.627519
1126.324835	-2.990700	3.565500	-10.662000	25.655914	0.000846	20.650771
1127.320497	-2.999200	3.565300	-10.692000	25.657886	0.000846	20.649433
1128.323572	-2.963100	3.563300	-10.557000	25.662194	0.000846	20.644276
1129.323291	-2.979900	3.563200	-10.616000	25.674877	0.000845	20.640419
1130.322314	-2.999500	3.561700	-10.682000	25.674371	0.000847	20.633271
1131.323213	-3.003900	3.563100	-10.702000	25.695379	0.000846	20.661013
1132.321502	-2.989700	3.563600	-10.653000	25.674672	0.000844	20.644481
1133.325679	-3.009600	3.560800	-10.716000	25.682885	0.000843	20.648463
1134.323275	-3.027700	3.559300	-10.775000	25.659389	0.000843	20.635294
1135.326211	-2.998800	3.559400	-10.673000	25.651881	0.000844	20.636288
1136.324696	-2.998600	3.560500	-10.676000	25.647913	0.000842	20.628982
1137.325242	-2.987100	3.561000	-10.635000	25.657897	0.000844	20.638537
1138.323986	-3.010900	3.560300	-10.718000	25.640440	0.000842	20.641867
1139.324386	-3.005200	3.559900	-10.698000	25.639039	0.000841	20.643779
1140.327555	-2.997400	3.558900	-10.666000	25.644739	0.000840	20.638124
1141.323065	-3.022800	3.557400	-10.752000	25.640138	0.000840	20.644409
1142.326823	-2.997100	3.557900	-10.663000	25.639676	0.000838	20.617863
1143.325207	-3.005200	3.556800	-10.688000	25.601255	0.000842	20.627640
1144.329803	-3.026500	3.556200	-10.761000	25.583851	0.000838	20.629128
1145.323418	-3.013800	3.556700	-10.717000	25.585535	0.000837	20.635561
1146.327094	-2.985300	3.557800	-10.620000	25.539399	0.000837	20.627159
1147.327784	-3.038000	3.554700	-10.798000	25.551666	0.000836	20.634738
1148.325732	-2.979700	3.556500	-10.597000	25.545023	0.000837	20.630437
1149.324213	-2.992400	3.555900	-10.639000	25.551128	0.000837	20.636094
1150.325407	-2.996500	3.555800	-10.654000	25.594476	0.000835	20.620357
1151.324608	-3.005200	3.555300	-10.683000	25.623591	0.000834	20.628736
1152.323787	-3.003100	3.555600	-10.677000	25.600725	0.000834	20.636592
1153.327751	-2.986300	3.555400	-10.616000	25.604788	0.000833	20.608426
1154.325469	-3.006400	3.554300	-10.684000	25.568904	0.000831	20.614589
1155.325292	-3.003200	3.553900	-10.672000	25.563176	0.000833	20.633969
1156.326051	-2.996800	3.555300	-10.653000	25.587694	0.000831	20.627297
1157.328144	-2.994300	3.554400	-10.643000	25.580205	0.000834	20.607445
1158.331395	-2.991200	3.553700	-10.628000	25.609045	0.000830	20.620765
1159.329526	-3.021600	3.552400	-10.733000	25.658455	0.000829	20.619180
1160.329655	-3.024800	3.551600	-10.743000	25.658226	0.000829	20.615156
1161.327476	-3.008700	3.553200	-10.690000	25.674299	0.000830	20.617550
1162.329998	-2.983400	3.553800	-10.601000	25.685787	0.000829	20.643317
1163.331050	-3.000900	3.551200	-10.655000	25.701609	0.000826	20.623644
1164.330762	-2.995900	3.552600	-10.642000	25.730943	0.000827	20.617071
1165.333003	-3.016200	3.550400	-10.707000	25.701023	0.000827	20.608354
1166.330460	-3.025700	3.551300	-10.745000	25.681955	0.000826	20.601054
1167.330434	-2.995900	3.550700	-10.637000	25.680132	0.000824	20.596378
1168.332237	-2.996700	3.551300	-10.641000	25.657937	0.000822	20.604907
1169.333097	-3.004400	3.551300	-10.669000	25.695622	0.000823	20.621423
1170.334523	-3.002100	3.549300	-10.654000	25.687761	0.000824	20.589815
1171.332350	-3.012300	3.548600	-10.689000	25.709291	0.000821	20.619979
1172.330009	-2.979400	3.550800	-10.578000	25.691039	0.000824	20.605912
1173.331181	-3.005500	3.549100	-10.666000	25.740402	0.000820	20.603336
1174.332476	-3.011000	3.547100	-10.679000	25.725528	0.000822	20.595982
1175.331790	-3.023000	3.547500	-10.723000	25.728954	0.000821	20.600371
1176.332773	-3.020000	3.546800	-10.710000	25.715821	0.000823	20.594292
1177.332675	-3.001800	3.547400	-10.647000	25.722122	0.000818	20.595880
1178.331392	-3.018600	3.547200	-10.706000	25.700370	0.000822	20.597739
1179.335648	-2.994400	3.546200	-10.618000	25.669677	0.000818	20.602948
1180.337412	-3.010900	3.546400	-10.677000	25.656023	0.000818	20.592077
1181.331719	-3.010500	3.545400	-10.672000	25.684157	0.000818	20.575761
1182.334747	-2.988300	3.546700	-10.598000	25.681746	0.000819	20.619340
1183.333386	-2.999700	3.545100	-10.634000	25.703694	0.000817	20.588274
1184.334159	-2.969200	3.546800	-10.530000	25.680721	0.000817	20.588434
1185.336106	-3.020400	3.543500	-10.701000	25.676141	0.000815	20.599956
1186.334434	-2.981500	3.545600	-10.570000	25.670935	0.000816	20.593778
1187.337246	-2.987200	3.545100	-10.587000	25.647741	0.000816	20.595139
1188.334101	-3.005400	3.543600	-10.648000	25.591099	0.000815	20.582820
1189.335321	-2.982400	3.543900	-10.568000	25.600995	0.000815	20.603194
1190.336940	-2.993500	3.542300	-10.602000	25.570600	0.000812	20.571240
1191.337240	-2.994700	3.543400	-10.610000	25.610491	0.000814	20.573845
1192.335934	-2.989700	3.543100	-10.591000	25.607394	0.000812	20.575477
1193.335569	-2.998000	3.540700	-10.614000	25.635438	0.000812	20.578038
1194.336630	-3.001300	3.541800	-10.629000	25.615548	0.000811	20.571337
1195.337026	-2.984900	3.543200	-10.575000	25.638595	0.000810	20.584529
1196.341116	-2.988400	3.541600	-10.583000	25.640740	0.000811	20.569137
1197.337422	-2.986800	3.542000	-10.578000	25.645651	0.000812	20.579761
1198.338267	-3.008200	3.541400	-10.652000	25.634578	0.000810	20.571009
1199.341396	-3.014300	3.539800	-10.668000	25.626313	0.000809	20.586418
1200.341180	-3.007200	3.538900	-10.641000	25.581952	0.000810	20.589282
1201.344934	-2.996600	3.541700	-10.611000	25.583791	0.000810	20.588284
1202.342827	-3.001400	3.539500	-10.622000	25.588230	0.000810	20.578515
1203.342023	-2.982400	3.539600	-10.555000	25.630554	0.000807	20.593524
1204.342541	-3.000300	3.538000	-10.614000	25.643491	0.000807	20.594663
1205.343640	-3.003900	3.538600	-10.628000	25.656642	0.000806	20.566141
1206.346879	-2.998900	3.537300	-10.606000	25.669032	0.000807	20.562464
1207.342009	-3.018500	3.536700	-10.675000	25.636832	0.000805	20.578964
1208.347419	-2.985600	3.538300	-10.563000	25.612423	0.000808	20.590013
1209.344537	-2.986700	3.536600	-10.562000	25.592238	0.000804	20.595820
1210.343094	-2.974300	3.536600	-10.518000	25.541297	0.000805	20.578797
1211.347227	-3.002700	3.535300	-10.615000	25.559851	0.000804	20.586526
1212.347301	-3.001200	3.536400	-10.612000	25.561004	0.000804	20.574405
1213.347349	-3.011600	3.535300	-10.646000	25.587075	0.000804	20.586840
1214.345725	-3.033200	3.534100	-10.718000	25.609804	0.000801	20.575052
1215.347930	-3.001200	3.535700	-10.611000	25.596278	0.000801	20.577115
1216.347062	-3.005900	3.534500	-10.623000	25.593175	0.000801	20.555977
1217.349981	-2.993800	3.535000	-10.582000	25.572316	0.000800	20.579129
1218.347796	-2.989400	3.534300	-10.564000	25.585971	0.000799	20.578143
1219.348681	-3.005400	3.533600	-10.618000	25.586707	0.000800	20.569397
1220.348268	-2.978000	3.533600	-10.521000	25.616033	0.000798	20.579886
1221.347507	-2.977400	3.534300	-10.522000	25.615892	0.000798	20.593497
1222.353127	-2.991600	3.534700	-10.574000	25.594960	0.000800	20.583852
1223.346605	-3.003200	3.532900	-10.608000	25.613587	0.000798	20.558459
1224.349421	-3.007100	3.532300	-10.621000	25.633495	0.000797	20.569447
1225.347575	-3.004600	3.532900	-10.613000	25.624690	0.000797	20.563448
1226.349024	-3.019800	3.529900	-10.659000	25.587424	0.000795	20.579603
1227.353206	-3.001200	3.532200	-10.600000	25.552352	0.000795	20.579468
1228.351068	-3.008500	3.531200	-10.622000	25.579846	0.000794	20.579578
1229.349821	-3.005700	3.530800	-10.611000	25.578963	0.000794	20.594342
1230.350221	-2.976400	3.531600	-10.511000	25.600736	0.000793	20.568314
1231.350757	-3.001200	3.528900	-10.590000	25.633624	0.000793	20.569577
1232.350602	-2.982300	3.529700	-10.526000	25.634182	0.000794	20.579148
1233.354223	-3.029100	3.527400	-10.683000	25.665623	0.000792	20.563781
1234.352690	-3.000500	3.529300	-10.588000	25.679448	0.000791	20.581464
1235.351726	-2.993200	3.528300	-10.560000	25.684776	0.000789	20.569269
1236.350961	-3.001500	3.527400	-10.586000	25.723345	0.000793	20.579087
1237.352528	-2.989600	3.526400	-10.541000	25.723438	0.000792	20.574437
1238.351905	-2.995700	3.528000	-10.568000	25.751498	0.000789	20.596462
1239.351540	-2.996500	3.526600	-10.567000	25.732904	0.000789	20.574937
1240.350906	-2.997200	3.526500	-10.568000	25.730826	0.000788	20.563364
1241.351471	-3.006600	3.527800	-10.606000	25.687653	0.000789	20.558881
1242.352227	-3.003300	3.527300	-10.592000	25.686771	0.000786	20.571273
1243.355614	-3.019800	3.525700	-10.645000	25.698309	0.000787	20.575751
1244.353781	-2.991600	3.525100	-10.544000	25.717002	0.000787	20.579354
1245.354257	-3.004900	3.525500	-10.593000	25.740593	0.000787	20.590724
1246.352819	-3.005500	3.523900	-10.590000	25.748729	0.000786	20.587041
1247.352921	-3.002800	3.524600	-10.583000	25.746106	0.000786	20.563539
1248.353846	-2.997400	3.523700	-10.561000	25.736254	0.000785	20.584942
1249.355595	-3.006700	3.524200	-10.596000	25.722252	0.000784	20.582257
1250.353109	-2.975400	3.523400	-10.482000	25.680324	0.000784	20.591828
1251.352734	-2.992400	3.522600	-10.539000	25.687418	0.000784	20.589470
1252.354395	-2.981600	3.523700	-10.505000	25.677413	0.000781	20.588429
1253.355081	-2.993100	3.522900	-10.544000	25.678597	0.000783	20.570175
1254.356643	-2.997200	3.520900	-10.552000	25.718184	0.000782	20.586232
1255.354494	-2.983500	3.522500	-10.508000	25.747225	0.000780	20.579840
1256.362015	-2.979100	3.521200	-10.489000	25.729018	0.000781	20.590951
1257.354265	-3.009300	3.520200	-10.593000	25.743811	0.000780	20.585420
1258.355772	-2.999400	3.521400	-10.560000	25.728847	0.000780	20.586511
1259.358884	-2.990700	3.521000	-10.528000	25.731319	0.000778	20.572396
1260.353787	-2.984900	3.522200	-10.512000	25.769641	0.000780	20.567740
1261.354660	-3.004100	3.518800	-10.570000	25.783668	0.000779	20.592740
1262.352913	-3.025500	3.518300	-10.642000	25.782510	0.000777	20.576401
1263.355737	-3.002700	3.517200	-10.559000	25.731517	0.000777	20.597256
1264.361277	-2.998700	3.518000	-10.547000	25.671246	0.000776	20.566584
1265.359704	-3.006900	3.517000	-10.574000	25.675538	0.000777	20.575165
1266.355720	-3.003000	3.516900	-10.560000	25.666379	0.000776	20.598212
1267.360923	-2.964500	3.518800	-10.430000	25.685104	0.000776	20.575764
1268.357534	-3.020200	3.515800	-10.617000	25.693167	0.000776	20.568214
1269.355021	-2.997300	3.517300	-10.541000	25.733704	0.000774	20.584277
1270.361311	-2.983800	3.515100	-10.487000	25.760342	0.000771	20.602502
1271.355605	-3.017100	3.514500	-10.603000	25.780408	0.000772	20.591835
1272.357258	-3.002600	3.516400	-10.557000	25.783970	0.000773	20.587352
1273.357487	-2.982900	3.515700	-10.486000	25.779452	0.000773	20.585659
1274.357108	-3.004300	3.513300	-10.555000	25.783794	0.000773	20.567257
1275.358428	-3.018800	3.512700	-10.603000	25.766782	0.000769	20.577198
1276.357408	-2.979900	3.514000	-10.471000	25.748557	0.000769	20.585920
1277.357995	-2.996700	3.514300	-10.530000	25.764987	0.000769	20.609066
1278.360032	-2.995200	3.512600	-10.520000	25.758189	0.000769	20.603185
1279.361101	-3.001600	3.512200	-10.541000	25.757136	0.000769	20.587425
1280.359359	-2.998200	3.512100	-10.528000	25.743981	0.000769	20.586065
1281.362483	-3.015300	3.511500	-10.587000	25.712059	0.000769	20.594306
1282.361050	-3.018900	3.512600	-10.602000	25.686525	0.000768	20.576242
1283.361704	-3.031300	3.509300	-10.637000	25.689346	0.000767	20.589036
1284.362165	-2.992400	3.511000	-10.504000	25.682792	0.000767	20.576761
1285.360897	-2.997600	3.510900	-10.523000	25.698433	0.000766	20.610020
1286.369098	-3.010800	3.509800	-10.566000	25.700101	0.000767	20.595098
1287.364469	-2.994700	3.510600	-10.512000	25.758968	0.000765	20.607761
1288.366229	-2.962800	3.511100	-10.402000	25.760219	0.000765	20.601430
1289.363647	-3.011900	3.508600	-10.565000	25.768723	0.000764	20.607602
1290.363082	-2.998300	3.509600	-10.522000	25.781401	0.000763	20.587143
1291.364441	-2.985700	3.508500	-10.474000	25.792467	0.000762	20.576446
1292.366272	-3.014900	3.508100	-10.575000	25.760246	0.000763	20.595766
1293.364259	-2.999100	3.508900	-10.523000	25.758518	0.000763	20.607309
1294.364283	-3.005000	3.507900	-10.540000	25.754455	0.000763	20.600381
1295.364466	-3.003300	3.507000	-10.531000	25.770438	0.000763	20.600314
1296.363672	-3.007900	3.506000	-10.545000	25.782742	0.000759	20.599397
1297.366401	-3.011000	3.505800	-10.555000	25.824832	0.000761	20.601375
1298.363877	-2.987500	3.506700	-10.476000	25.797014	0.000762	20.613262
1299.366349	-2.990800	3.505500	-10.483000	25.864169	0.000761	20.608649
1300.363640	-2.989600	3.506400	-10.482000	25.850862	0.000759	20.601444
1301.365247	-2.987100	3.504600	-10.468000	25.886618	0.000759	20.623142
1302.366516	-3.021200	3.505000	-10.588000	25.862731	0.000760	20.609101
1303.364591	-3.019800	3.503600	-10.579000	25.876825	0.000757	20.601446
1304.368339	-2.998700	3.504500	-10.507000	25.879657	0.000757	20.602395
1305.371430	-2.977900	3.505600	-10.437000	25.858228	0.000756	20.623071
1306.368707	-3.008500	3.502800	-10.537000	25.849714	0.000756	20.601713
1307.372931	-2.993500	3.503600	-10.486000	25.826193	0.000757	20.608433
1308.370204	-3.017300	3.501300	-10.564000	25.842028	0.000756	20.621022
1309.373556	-2.974000	3.501800	-10.412000	25.870484	0.000756	20.600293
1310.378101	-3.000800	3.502400	-10.509000	25.874488	0.000754	20.609057
1311.370825	-3.007900	3.500400	-10.528000	25.868879	0.000754	20.599628
1312.370857	-2.991300	3.501400	-10.472000	25.868341	0.000755	20.602881
1313.373688	-3.004400	3.501100	-10.519000	25.876102	0.000754	20.611153
1314.371286	-3.015500	3.499500	-10.551000	25.912361	0.000752	20.609646
1315.372292	-3.008800	3.500300	-10.529000	25.906526	0.000753	20.619433
1316.371113	-3.002300	3.499500	-10.505000	25.895229	0.000751	20.622309
1317.371202	-3.045900	3.497600	-10.652000	25.899068	0.000752	20.601981
1318.372940	-3.001500	3.499800	-10.503000	25.868444	0.000748	20.639975
1319.372975	-3.020300	3.497600	-10.562000	25.863553	0.000751	20.619411
1320.374226	-2.993500	3.498900	-10.473000	25.848805	0.000749	20.600800
1321.375914	-2.993600	3.498400	-10.472000	25.802358	0.000750	20.633806
1322.374232	-2.991200	3.496900	-10.457000	25.792760	0.000748	20.611359
1323.372302	-3.000900	3.496200	-10.490000	25.780592	0.000748	20.623794
1324.373236	-3.004100	3.497000	-10.504000	25.782340	0.000746	20.637406
1325.373846	-3.010300	3.496400	-10.524000	25.795116	0.000746	20.621788
1326.374006	-2.995600	3.497600	-10.476000	25.791189	0.000747	20.630172
1327.379553	-3.001600	3.497700	-10.498000	25.778297	0.000746	20.634767
1328.375342	-2.996800	3.496800	-10.478000	25.748817	0.000746	20.641192
1329.374588	-2.997400	3.494700	-10.474000	25.763636	0.000746	20.633790
1330.374643	-2.991600	3.495000	-10.454000	25.733854	0.000743	20.619521
1331.376104	-2.983600	3.495100	-10.426000	25.709321	0.000746	20.620483
1332.375101	-3.000900	3.493100	-10.482000	25.669005	0.000744	20.628830
1333.376894	-2.984500	3.494200	-10.428000	25.635623	0.000743	20.636080
1334.379652	-3.010600	3.493700	-10.516000	25.630444	0.000743	20.625661
1335.376246	-2.991500	3.493100	-10.449000	25.663920	0.000742	20.622299
1336.378341	-3.027000	3.490700	-10.565000	25.678464	0.000741	20.614146
1337.378548	-3.009600	3.491000	-10.505000	25.731392	0.000740	20.642655
1338.378430	-2.974500	3.491400	-10.384000	25.763463	0.000742	20.626029
1339.378692	-3.023500	3.490900	-10.552000	25.804464	0.000742	20.634499
1340.379292	-2.989600	3.490400	-10.434000	25.823628	0.000740	20.648535
1341.379291	-3.004600	3.490500	-10.486000	25.830568	0.000739	20.628952
1342.381000	-3.004500	3.489000	-10.483000	25.855746	0.000740	20.649979
1343.377607	-2.998900	3.490000	-10.465000	25.883031	0.000738	20.630445
1344.381538	-2.994400	3.489500	-10.448000	25.898491	0.000738	20.621319
1345.380874	-2.996000	3.489800	-10.454000	25.869616	0.000736	20.646368
1346.380148	-3.016100	3.487600	-10.518000	25.805796	0.000738	20.631569
1347.384855	-3.024100	3.487300	-10.544000	25.774778	0.000738	20.627438
1348.381891	-2.981600	3.487900	-10.398000	25.778684	0.000736	20.646063
1349.384034	-3.004000	3.488500	-10.477000	25.764537	0.000737	20.625211
1350.387827	-3.031900	3.487500	-10.572000	25.811422	0.000737	20.632953
1351.382220	-3.000300	3.486800	-10.460000	25.834331	0.000734	20.634629
1352.387124	-3.005900	3.485800	-10.476000	25.842142	0.000735	20.630621
1353.385699	-2.989800	3.487600	-10.426000	25.858393	0.000735	20.639835
1354.385235	-3.015500	3.484800	-10.507000	25.836939	0.000733	20.630136
1355.387516	-2.988600	3.486400	-10.418000	25.841666	0.000734	20.651957
1356.389546	-2.996000	3.485600	-10.442000	25.832453	0.000731	20.645547
1357.386369	-2.997800	3.485500	-10.447000	25.852733	0.000732	20.643632
1358.385195	-2.992800	3.485400	-10.428000	25.863466	0.000730	20.631180
1359.386668	-2.995900	3.483800	-10.436000	25.886472	0.000730	20.646232
1360.385452	-2.991200	3.484000	-10.420000	25.882776	0.000730	20.637777
1361.391522	-2.991500	3.483900	-10.421000	25.848114	0.000730	20.654641
1362.386038	-3.000900	3.483400	-10.453000	25.821063	0.000730	20.656865
1363.387637	-3.003000	3.482400	-10.456000	25.793465	0.000729	20.653324
1364.386794	-2.997000	3.481500	-10.433000	25.741970	0.000728	20.661818
1365.386814	-2.997200	3.482300	-10.435000	25.705328	0.000729	20.627854
1366.388770	-2.995500	3.481900	-10.429000	25.718123	0.000729	20.652088
1367.386118	-2.979200	3.482500	-10.374000	25.698163	0.000728	20.646264
1368.388801	-3.010000	3.480300	-10.474000	25.741894	0.000730	20.677864
1369.388644	-3.016700	3.479200	-10.494000	25.799710	0.000726	20.662918
1370.386931	-2.998800	3.478300	-10.429000	25.789357	0.000724	20.658682
1371.388003	-3.013200	3.478400	-10.480000	25.820941	0.000726	20.670020
1372.390622	-2.991600	3.477900	-10.403000	25.848154	0.000725	20.662268
1373.389778	-2.993900	3.478100	-10.412000	25.841766	0.000726	20.650160
1374.389843	-3.006800	3.478900	-10.460000	25.842025	0.000724	20.665121
1375.390644	-3.000200	3.476800	-10.430000	25.787571	0.000725	20.651197
1376.393039	-3.008300	3.476700	-10.458000	25.782183	0.000725	20.667123
1377.393771	-2.990800	3.477800	-10.399000	25.814760	0.000722	20.643894
1378.389492	-3.012900	3.475400	-10.470000	25.826560	0.000722	20.666656
1379.391270	-3.012100	3.475300	-10.467000	25.833476	0.000723	20.680717
1380.390311	-2.989500	3.476800	-10.393000	25.850493	0.000721	20.675051
1381.390403	-3.014000	3.473700	-10.469000	25.861122	0.000722	20.683359
1382.395518	-3.025500	3.474200	-10.510000	25.880799	0.000721	20.669459
1383.391614	-2.990000	3.474500	-10.388000	25.916922	0.000720	20.673980
1384.393943	-2.981700	3.474500	-10.359000	25.902616	0.000720	20.668142
1385.400541	-2.996100	3.473700	-10.406000	25.884355	0.000720	20.661651
1386.391790	-2.984500	3.474000	-10.368000	25.876289	0.000719	20.675361
1387.395118	-2.999600	3.474100	-10.420000	25.880618	0.000720	20.680658
1388.391381	-2.982900	3.474600	-10.364000	25.898717	0.000720	20.681771
1389.389998	-2.980600	3.472900	-10.351000	25.923788	0.000719	20.668076
1390.391141	-3.015100	3.470300	-10.461000	25.898375	0.000717	20.677633
1391.390802	-3.006900	3.470500	-10.435000	25.875492	0.000718	20.655591
1392.393730	-3.003200	3.470600	-10.421000	25.869975	0.000718	20.677078
1393.390167	-3.006300	3.470100	-10.431000	25.837421	0.000717	20.685628
1394.391338	-3.018200	3.470800	-10.475000	25.836697	0.000716	20.684427
1395.392255	-2.994900	3.470000	-10.391000	25.794344	0.000717	20.678866
1396.392378	-3.001500	3.469200	-10.411000	25.804054	0.000716	20.697631
1397.397157	-3.001600	3.469400	-10.413000	25.826271	0.000715	20.704301
1398.393025	-2.996200	3.469800	-10.395000	25.835809	0.000714	20.673577
1399.397051	-3.008300	3.468100	-10.432000	25.873748	0.000713	20.694621
1400.395745	-2.993100	3.468600	-10.381000	25.898193	0.000715	20.693574
1401.398283	-3.014300	3.468100	-10.452000	25.881503	0.000712	20.683444
1402.394706	-2.998700	3.467500	-10.397000	25.868954	0.000713	20.693598
1403.396858	-2.990100	3.467300	-10.366000	25.874178	0.000711	20.693630
1404.395565	-2.999100	3.466300	-10.395000	25.905924	0.000713	20.695650
1405.396147	-3.008700	3.465300	-10.425000	25.903588	0.000710	20.696149
1406.394331	-2.985100	3.466200	-10.346000	25.948751	0.000710	20.696475
1407.396012	-2.996700	3.465900	-10.385000	25.950443	0.000710	20.698650
1408.396159	-3.000000	3.463600	-10.390000	25.938644	0.000709	20.706711
1409.395708	-2.996700	3.464100	-10.380000	25.937480	0.000710	20.700799
1410.397907	-2.984300	3.464400	-10.336000	25.870133	0.000709	20.704266
1411.395672	-2.984300	3.464500	-10.338000	25.883153	0.000709	20.693637
1412.396664	-2.999200	3.463800	-10.387000	25.909494	0.000708	20.709669
1413.401456	-3.011600	3.462100	-10.426000	25.923597	0.000707	20.706767
1414.397710	-2.991400	3.464200	-10.362000	25.930212	0.000707	20.693497
1415.396612	-3.016900	3.460500	-10.439000	25.952198	0.000705	20.715113
1416.397554	-2.976500	3.461700	-10.303000	25.986081	0.000705	20.722602
1417.398159	-2.974600	3.461700	-10.295000	25.951954	0.000705	20.702539
1418.396924	-2.955600	3.462200	-10.232000	25.975803	0.000704	20.712750
1419.404296	-2.996400	3.459800	-10.366000	26.000205	0.000705	20.706445
1420.398046	-3.007200	3.459800	-10.404000	26.011955	0.000704	20.724415
1421.398023	-3.002900	3.459200	-10.386000	26.006641	0.000705	20.719076
1422.397014	-3.000200	3.458500	-10.376000	25.982212	0.000704	20.719189
1423.397398	-3.007700	3.459400	-10.403000	25.982513	0.000704	20.717594
1424.403316	-3.013300	3.458300	-10.418000	25.999356	0.000702	20.756803
1425.399259	-3.006600	3.458400	-10.397000	25.976881	0.000701	20.726161
1426.400003	-2.983400	3.458600	-10.317000	25.972942	0.000700	20.731687
1427.400138	-2.998800	3.458300	-10.370000	25.978507	0.000702	20.713569
1428.399776	-2.997200	3.457400	-10.362000	25.958465	0.000703	20.750334
1429.401552	-3.003900	3.456800	-10.383000	25.955885	0.000701	20.720714
1430.404047	-3.014300	3.456700	-10.419000	25.910111	0.000702	20.731153
1431.409457	-3.001700	3.456800	-10.376000	25.870537	0.000700	20.726011
1432.401876	-2.994500	3.455100	-10.345000	25.877502	0.000697	20.726369
1433.412068	-3.014100	3.454700	-10.412000	25.913821	0.000697	20.715439
1434.403440	-2.999200	3.455600	-10.363000	25.922568	0.000698	20.718537
1435.405330	-2.988400	3.455700	-10.327000	25.900336	0.000697	20.735558
1436.405329	-2.974900	3.454700	-10.276000	25.929354	0.000697	20.734838
1437.402832	-2.983900	3.454100	-10.305000	25.915153	0.000696	20.723890
1438.402192	-3.006200	3.451900	-10.377000	25.898137	0.000697	20.736668
1439.404984	-3.005700	3.452400	-10.376000	25.881894	0.000696	20.724143
1440.406975	-3.001300	3.451900	-10.359000	25.913720	0.000697	20.742840
1441.405098	-3.001000	3.453500	-10.363000	25.925625	0.000694	20.731565
1442.406448	-3.001300	3.452500	-10.360000	25.974261	0.000696	20.745815
1443.404344	-2.996900	3.450500	-10.340000	25.977751	0.000694	20.730828
1444.403882	-3.009100	3.451100	-10.383000	26.013797	0.000693	20.740017
1445.407156	-3.008500	3.451600	-10.383000	26.048768	0.000693	20.739592
1446.402844	-2.996000	3.450400	-10.335000	25.989508	0.000691	20.728890
1447.403561	-3.027500	3.450200	-10.444000	25.997090	0.000690	20.738405
1448.403274	-3.018300	3.448500	-10.407000	25.964729	0.000692	20.747618
1449.408013	-3.013400	3.448300	-10.389000	25.977780	0.000692	20.748876
1450.406488	-2.996000	3.450900	-10.337000	25.990921	0.000691	20.753544
1451.404249	-3.004200	3.447000	-10.355000	26.039139	0.000693	20.725174
1452.404773	-2.996900	3.448600	-10.334000	26.024932	0.000689	20.757843
1453.404666	-2.983600	3.448600	-10.288000	26.045477	0.000688	20.751458
1454.403565	-2.991800	3.447900	-10.314000	26.046005	0.000689	20.777119
1455.404931	-2.997200	3.445900	-10.327000	26.079591	0.000687	20.744483
1456.405739	-2.979100	3.446500	-10.266000	26.090526	0.000689	20.745512
1457.409575	-2.979000	3.446500	-10.267000	26.051854	0.000688	20.756443
1458.404963	-2.986500	3.446900	-10.292000	26.010356	0.000688	20.742250
1459.404730	-3.005600	3.445500	-10.355000	25.956805	0.000686	20.758624
1460.409286	-2.985100	3.446000	-10.285000	25.905588	0.000685	20.765491
1461.405150	-3.006600	3.445100	-10.356000	25.886334	0.000685	20.756580
1462.409013	-2.985900	3.445200	-10.287000	25.880954	0.000684	20.764452
1463.407794	-2.985500	3.444600	-10.281000	25.883590	0.000685	20.746237
1464.409257	-3.000500	3.444600	-10.335000	25.927436	0.000686	20.749033
1465.410104	-3.000100	3.443500	-10.330000	25.957201	0.000684	20.759022
1466.410554	-2.989800	3.443400	-10.292000	25.997440	0.000682	20.770999
1467.410262	-3.009300	3.442100	-10.357000	26.032615	0.000685	20.768882
1468.409152	-3.008300	3.441500	-10.352000	26.018554	0.000681	20.766609
1469.406424	-3.012800	3.441300	-10.367000	26.032118	0.000684	20.772650
1470.408834	-2.974000	3.443500	-10.239000	25.990123	0.000680	20.785934
1471.411458	-3.025000	3.439700	-10.404000	25.978503	0.000681	20.781372
1472.409263	-3.007900	3.440200	-10.346000	25.984117	0.000679	20.770417
1473.413808	-2.991400	3.440200	-10.290000	25.970015	0.000680	20.772370
1474.408539	-2.990300	3.440600	-10.286000	25.990179	0.000680	20.777930
1475.410991	-2.993600	3.439800	-10.295000	26.051286	0.000677	20.778158
1476.418287	-2.999500	3.439300	-10.314000	26.056379	0.000678	20.784698
1477.410708	-3.000700	3.440100	-10.321000	26.046892	0.000678	20.774218
1478.408525	-2.994100	3.438800	-10.295000	26.024988	0.000678	20.770228
1479.410012	-2.981600	3.437200	-10.246000	26.021863	0.000676	20.786529
1480.410903	-2.991900	3.437900	-10.285000	26.007607	0.000677	20.778370
1481.411025	-3.000800	3.437600	-10.315000	26.002944	0.000676	20.791703
1482.413596	-3.010900	3.435900	-10.343000	25.998843	0.000677	20.777151
1483.411302	-3.012400	3.437600	-10.355000	26.034563	0.000675	20.775107
1484.410459	-3.016500	3.434600	-10.360000	25.998085	0.000677	20.771174
1485.412283	-3.007900	3.435700	-10.333000	26.022821	0.000673	20.770422
1486.412063	-2.974300	3.435900	-10.219000	26.008094	0.000673	20.795454
1487.414786	-3.002800	3.433800	-10.310000	26.050005	0.000674	20.779716
1488.413463	-2.979400	3.435800	-10.236000	26.067294	0.000673	20.769587
1489.415777	-3.005900	3.434200	-10.321000	26.109098	0.000672	20.770338
1490.412722	-2.982600	3.434500	-10.243000	26.107739	0.000673	20.778930
1491.411701	-3.017000	3.433200	-10.357000	26.139883	0.000671	20.757649
1492.414864	-3.011300	3.432400	-10.335000	26.128111	0.000671	20.762889
1493.410706	-2.999500	3.432300	-10.294000	26.130754	0.000670	20.767442
1494.412575	-2.988000	3.433000	-10.257000	26.125612	0.000671	20.804475
1495.418073	-3.009900	3.430800	-10.325000	26.132072	0.000670	20.767344
1496.413091	-2.989400	3.431400	-10.257000	26.130265	0.000670	20.758890
1497.412362	-2.997900	3.431000	-10.285000	26.147658	0.000669	20.752185
1498.413922	-2.979300	3.430600	-10.220000	26.146959	0.000669	20.765707
1499.413634	-3.008200	3.429000	-10.314000	26.145355	0.000668	20.763147
1500.415710	-2.972800	3.431300	-10.199000	26.147592	0.000668	20.764447
1501.413756	-3.004200	3.428800	-10.299000	26.147072	0.000668	20.740689
1502.427346	-3.010800	3.428700	-10.322000	26.103487	0.000665	20.748578
1503.418726	-3.007900	3.428700	-10.312000	26.085164	0.000666	20.761936
1504.414651	-3.026900	3.427200	-10.373000	26.101110	0.000665	20.751406
1505.417216	-2.999300	3.428800	-10.283000	26.108270	0.000665	20.747220
1506.414697	-3.008200	3.426800	-10.308000	26.100198	0.000664	20.767086
1507.415405	-3.012600	3.426500	-10.322000	26.135199	0.000663	20.760529
1508.416536	-2.996100	3.427100	-10.266000	26.094690	0.000662	20.744006
1509.417493	-3.002300	3.427100	-10.288000	26.071102	0.000664	20.759661
1510.415543	-2.981000	3.427900	-10.218000	26.051216	0.000663	20.762914
1511.414717	-2.974200	3.425900	-10.188000	26.077586	0.000661	20.746262
1512.415003	-3.005600	3.424700	-10.293000	26.087878	0.000661	20.740955
1513.414694	-3.002200	3.426000	-10.284000	26.106818	0.000662	20.751451
1514.420503	-3.021600	3.424400	-10.346000	26.091318	0.000661	20.755318
1515.414963	-3.016000	3.424800	-10.328000	26.058463	0.000660	20.754075
1516.421572	-2.987900	3.423700	-10.229000	26.080447	0.000661	20.754827
1517.416842	-2.987600	3.423200	-10.226000	26.053426	0.000660	20.759446
1518.416822	-3.025700	3.421900	-10.352000	26.024695	0.000659	20.763770
1519.418628	-2.989800	3.422000	-10.229000	25.993149	0.000660	20.754834
1520.417907	-3.007700	3.421000	-10.288000	25.977085	0.000659	20.745334
1521.420752	-2.997000	3.422100	-10.254000	25.991919	0.000659	20.748383
1522.418996	-2.988100	3.422200	-10.225000	25.969916	0.000656	20.755675
1523.418581	-2.992100	3.421200	-10.236000	25.990616	0.000656	20.754186
1524.421170	-3.011400	3.420700	-10.300000	25.996010	0.000658	20.728784
1525.418312	-2.993100	3.422000	-10.242000	26.040990	0.000655	20.727983
1526.417932	-3.007100	3.419600	-10.282000	26.049150	0.000656	20.715792
1527.421644	-2.987600	3.420400	-10.218000	26.051395	0.000651	20.736067
1528.420427	-3.025200	3.418400	-10.340000	26.058222	0.000656	20.742452
1529.416975	-3.006800	3.418100	-10.276000	26.074714	0.000655	20.720141
1530.431532	-3.015500	3.417400	-10.303000	26.097104	0.000654	20.759235
1531.419312	-2.992400	3.419600	-10.231000	26.075274	0.000654	20.739197
1532.418654	-2.988100	3.416400	-10.207000	26.100691	0.000653	20.735812
1533.419536	-3.000200	3.416800	-10.250000	26.073402	0.000653	20.731625
1534.422283	-3.011500	3.417100	-10.290000	26.070619	0.000651	20.735468
1535.419518	-3.001800	3.417800	-10.259000	26.087461	0.000651	20.744804
1536.423482	-3.021100	3.415600	-10.318000	26.108484	0.000652	20.735581
1537.422513	-3.017500	3.417400	-10.311000	26.108858	0.000651	20.739750
1538.419672	-3.015100	3.415600	-10.297000	26.105880	0.000651	20.752880
1539.426530	-3.001100	3.415200	-10.248000	26.118426	0.000648	20.751735
1540.419433	-3.007100	3.415700	-10.270000	26.118775	0.000648	20.731223
1541.422691	-3.009000	3.414500	-10.272000	26.126846	0.000648	20.737910
1542.419832	-3.013800	3.415900	-10.293000	26.151546	0.000648	20.729063
1543.422231	-2.988800	3.414000	-10.204000	26.146282	0.000648	20.736102
1544.420281	-3.000500	3.412700	-10.238000	26.142409	0.000647	20.736478
1545.421607	-2.995300	3.412600	-10.221000	26.122817	0.000647	20.741449
1546.424159	-3.023000	3.412400	-10.314000	26.137104	0.000648	20.730199
1547.423460	-3.005100	3.412100	-10.253000	26.124037	0.000648	20.737933
1548.423195	-3.001800	3.410700	-10.237000	26.119399	0.000646	20.741333
1549.436880	-2.987200	3.412000	-10.192000	26.124248	0.000647	20.709219
1550.426394	-3.021900	3.411500	-10.308000	26.139502	0.000643	20.736877
1551.425347	-2.996100	3.409900	-10.215000	26.142952	0.000643	20.705728
1552.427304	-3.008400	3.410500	-10.259000	26.160419	0.000645	20.726600
1553.425594	-3.001000	3.409900	-10.231000	26.147410	0.000644	20.718268
1554.426196	-2.980300	3.411300	-10.165000	26.152331	0.000642	20.715153
1555.425463	-3.020800	3.409300	-10.297000	26.078619	0.000644	20.724064
1556.429465	-2.993100	3.408400	-10.199000	26.022020	0.000643	20.719355
1557.428734	-2.989200	3.408900	-10.189000	25.986698	0.000641	20.712316
1558.424898	-2.988200	3.409400	-10.187000	25.978626	0.000642	20.706576
1559.426081	-2.988300	3.409700	-10.188000	25.967331	0.000642	20.742172
1560.426987	-2.991700	3.408400	-10.196000	25.990293	0.000640	20.703599
1561.428355	-2.996100	3.406700	-10.206000	26.021409	0.000640	20.706412
1562.429746	-2.984900	3.408500	-10.173000	26.032890	0.000639	20.707041
1563.427711	-3.011100	3.405800	-10.255000	26.063369	0.000639	20.721544
1564.433618	-3.005600	3.406000	-10.236000	26.053613	0.000640	20.726441
1565.430103	-3.011900	3.406500	-10.259000	26.026672	0.000638	20.706009
1566.430485	-2.984600	3.405600	-10.164000	26.012360	0.000638	20.690680
1567.428862	-3.001500	3.404900	-10.219000	26.018397	0.000637	20.699592
1568.430418	-3.014600	3.404300	-10.262000	26.017363	0.000636	20.720840
1569.427482	-3.010000	3.405200	-10.248000	26.039454	0.000635	20.707472
1570.430013	-2.999200	3.404500	-10.210000	26.057949	0.000635	20.708511
1571.430175	-2.992400	3.403000	-10.183000	26.080087	0.000634	20.709418
1572.430314	-2.996500	3.402600	-10.195000	26.053790	0.000634	20.733731
1573.432118	-3.040100	3.401100	-10.338000	26.059135	0.000634	20.707332
1574.431623	-3.009300	3.402300	-10.237000	26.050112	0.000634	20.705378
1575.432705	-3.031200	3.401100	-10.309000	26.060526	0.000633	20.694978
1576.437653	-3.005900	3.401300	-10.223000	26.065571	0.000632	20.697676
1577.436187	-2.979800	3.402700	-10.139000	26.074097	0.000632	20.701502
1578.450315	-2.992200	3.400800	-10.175000	26.081900	0.000631	20.712661
1579.431999	-3.008100	3.399200	-10.224000	26.073779	0.000633	20.716357
1580.432202	-2.978600	3.401200	-10.129000	26.046482	0.000632	20.708369
1581.431772	-2.981600	3.401200	-10.140000	26.045025	0.000630	20.702163
1582.432523	-2.998100	3.399700	-10.191000	26.059899	0.000630	20.707151
1583.434983	-3.006700	3.400800	-10.224000	26.107991	0.000629	20.712799
1584.436959	-3.005900	3.398600	-10.215000	26.130894	0.000631	20.683178
1585.434789	-3.009500	3.399000	-10.227000	26.126850	0.000629	20.690495
1586.435266	-3.011100	3.397500	-10.229000	26.129283	0.000628	20.682508
1587.442005	-3.019900	3.398200	-10.261000	26.165048	0.000627	20.717026
1588.437144	-3.000900	3.397500	-10.194000	26.174574	0.000628	20.706208
1589.439444	-3.008400	3.398100	-10.222000	26.170156	0.000626	20.702243
1590.435121	-2.993500	3.397900	-10.170000	26.131763	0.000626	20.680732
1591.437243	-2.985400	3.397000	-10.140000	26.154853	0.000628	20.694926
1592.436230	-2.999700	3.396600	-10.188000	26.169391	0.000627	20.715225
1593.437647	-2.999300	3.396600	-10.187000	26.168765	0.000628	20.701319
1594.441126	-2.993100	3.394600	-10.159000	26.207765	0.000623	20.713958
1595.438375	-3.004900	3.395600	-10.202000	26.201729	0.000624	20.691769
1596.439780	-2.985600	3.395300	-10.136000	26.198654	0.000623	20.694843
1597.439821	-3.008600	3.393800	-10.209000	26.193788	0.000623	20.702282
1598.440226	-3.001600	3.394500	-10.188000	26.211858	0.000623	20.702896
1599.439906	-2.999800	3.393500	-10.178000	26.187508	0.000622	20.683167
1600.440461	-3.014800	3.392400	-10.227000	26.174320	0.000622	20.693624
1601.438385	-3.012500	3.390900	-10.213000	26.159147	0.000620	20.694973
1602.440878	-2.987100	3.393000	-10.134000	26.186767	0.000622	20.688113
1603.439938	-3.003300	3.391000	-10.182000	26.209717	0.000621	20.689838
1604.440324	-3.007400	3.392200	-10.201000	26.221855	0.000620	20.700140
1605.442875	-2.988900	3.392600	-10.139000	26.262074	0.000622	20.693615
1606.441806	-2.992400	3.391600	-10.147000	26.277612	0.000618	20.683150
1607.447630	-3.013000	3.389600	-10.212000	26.275456	0.000619	20.682406
1608.439672	-3.009700	3.390100	-10.202000	26.291799	0.000618	20.703573
1609.439759	-3.017800	3.389500	-10.227000	26.287528	0.000616	20.699281
1610.442042	-3.001100	3.389400	-10.170000	26.293979	0.000616	20.692013
1611.442842	-3.009700	3.389200	-10.200000	26.253109	0.000616	20.681286
1612.441546	-3.006800	3.388600	-10.188000	26.220902	0.000617	20.700131
1613.441196	-2.972200	3.390100	-10.075000	26.182462	0.000615	20.680468
1614.443880	-2.990300	3.389100	-10.133000	26.127612	0.000614	20.686993
1615.442040	-2.991700	3.389000	-10.137000	26.117433	0.000615	20.678187
1616.443979	-3.000500	3.387300	-10.162000	26.108516	0.000617	20.669701
1617.442138	-2.998300	3.387800	-10.157000	26.087599	0.000614	20.674288
1618.444551	-2.989800	3.387800	-10.128000	26.050342	0.000613	20.658664
1619.442075	-2.998700	3.387300	-10.156000	26.072994	0.000614	20.688064
1620.441607	-2.989300	3.387000	-10.123000	26.077405	0.000614	20.677322
1621.445234	-3.008800	3.385700	-10.186000	26.109697	0.000612	20.696020
1622.443001	-3.001100	3.385100	-10.158000	26.114213	0.000613	20.687280
1623.443558	-2.988900	3.386200	-10.120000	26.101220	0.000610	20.669007
1624.442348	-2.994700	3.384000	-10.132000	26.091921	0.000609	20.687641
1625.444765	-3.001000	3.383600	-10.154000	26.129322	0.000610	20.690609
1626.443465	-3.010600	3.385300	-10.190000	26.171099	0.000609	20.702243
1627.446620	-3.008500	3.383700	-10.180000	26.169505	0.000610	20.686889
1628.447638	-3.000100	3.382700	-10.148000	26.167170	0.000608	20.679326
1629.447126	-3.008600	3.382300	-10.175000	26.120325	0.000608	20.687731
1630.444359	-3.019000	3.382400	-10.210000	26.084615	0.000609	20.685515
1631.445269	-3.018300	3.381800	-10.207000	26.070027	0.000607	20.673228
1632.448572	-3.020200	3.382400	-10.214000	26.073372	0.000606	20.673269
1633.443979	-2.999800	3.381000	-10.141000	26.069132	0.000610	20.695090
1634.448439	-3.004100	3.380500	-10.155000	26.079961	0.000606	20.681788
1635.444588	-3.011400	3.379700	-10.177000	26.094314	0.000604	20.693365
1636.443351	-3.024200	3.379500	-10.219000	26.114980	0.000604	20.679041
1637.446417	-3.008000	3.377800	-10.159000	26.141723	0.000604	20.691689
1638.446265	-3.013900	3.379300	-10.184000	26.170409	0.000605	20.683530
1639.445909	-2.989900	3.378100	-10.099000	26.189211	0.000603	20.679662
1640.444113	-2.999100	3.378700	-10.132000	26.206295	0.000603	20.677390
1641.444843	-3.012200	3.377000	-10.171000	26.251095	0.000604	20.686375
1642.446057	-2.957100	3.379200	-9.991400	26.260329	0.000599	20.671471
1643.444220	-2.994200	3.376300	-10.108000	26.306291	0.000603	20.673090
1644.444167	-2.978000	3.378800	-10.061000	26.327644	0.000601	20.684593
1645.445470	-2.993400	3.378400	-10.112000	26.348378	0.000600	20.691682
1646.445708	-3.011900	3.375900	-10.166000	26.345174	0.000602	20.672338
1647.443121	-3.000000	3.375900	-10.127000	26.358489	0.000601	20.660114
1648.446539	-3.008500	3.375300	-10.153000	26.356919	0.000600	20.670392
1649.443567	-2.996000	3.375400	-10.111000	26.311473	0.000600	20.680669
1650.444013	-3.020800	3.374300	-10.192000	26.271239	0.000598	20.670581
1651.443745	-2.998200	3.374900	-10.118000	26.235803	0.000597	20.683335
1652.443445	-3.000300	3.374100	-10.123000	26.170753	0.000598	20.680082
1653.446132	-3.006700	3.374300	-10.144000	26.121808	0.000598	20.679264
1654.443992	-3.021100	3.373500	-10.190000	26.070437	0.000597	20.690711
1655.445883	-2.990200	3.373100	-10.084000	26.038867	0.000596	20.687915
1656.448271	-2.987900	3.375200	-10.084000	26.093584	0.000595	20.684096
1657.446952	-2.994300	3.374200	-10.102000	26.101005	0.000594	20.681595
1658.450999	-2.994700	3.373600	-10.102000	26.145834	0.000596	20.665472
1659.451262	-3.019700	3.372300	-10.182000	26.209902	0.000594	20.683386
1660.447130	-2.992300	3.372700	-10.091000	26.227629	0.000593	20.656152
1661.446809	-2.989800	3.372900	-10.084000	26.258763	0.000593	20.654248
1662.449648	-3.023700	3.372100	-10.195000	26.278628	0.000590	20.669946
1663.448868	-2.985900	3.372600	-10.069000	26.332561	0.000592	20.670093
1664.450933	-2.997500	3.371600	-10.105000	26.339662	0.000591	20.662530
1665.458775	-2.987500	3.370500	-10.069000	26.329381	0.000591	20.668319
1666.454690	-3.011300	3.370500	-10.148000	26.323638	0.000591	20.663970
1667.452156	-2.998000	3.369600	-10.101000	26.309582	0.000591	20.657429
1668.450899	-3.011000	3.368400	-10.141000	26.293467	0.000590	20.675850
1669.452938	-3.013400	3.368600	-10.150000	26.268087	0.000589	20.685432
1670.449514	-3.015800	3.366800	-10.153000	26.271935	0.000588	20.662744
1671.450165	-2.974400	3.368800	-10.018000	26.232570	0.000589	20.661117
1672.450197	-2.998100	3.367500	-10.095000	26.231203	0.000588	20.652631
1673.450603	-3.010600	3.367600	-10.138000	26.252932	0.000588	20.663562
1674.454551	-3.006800	3.368400	-10.126000	26.220790	0.000586	20.660186
1675.452288	-3.010700	3.366500	-10.135000	26.225142	0.000588	20.665508
1676.450672	-2.996600	3.366700	-10.087000	26.148962	0.000586	20.663399
1677.452247	-2.988300	3.367400	-10.061000	26.111513	0.000584	20.660382
1678.451149	-3.011000	3.364600	-10.130000	26.104410	0.000585	20.657512
1679.453167	-3.001000	3.365900	-10.099000	26.126613	0.000583	20.694051
1680.454720	-2.991300	3.363700	-10.061000	26.164779	0.000584	20.657955
1681.452367	-2.995000	3.365800	-10.079000	26.162598	0.000583	20.654340
1682.452611	-3.002300	3.364300	-10.098000	26.156253	0.000583	20.652706
1683.453391	-3.017800	3.363600	-10.150000	26.178113	0.000581	20.652861
1684.454535	-3.017200	3.364100	-10.149000	26.162542	0.000582	20.663768
1685.454499	-3.019800	3.361800	-10.151000	26.135043	0.000582	20.667905
1686.456627	-2.987900	3.362100	-10.044000	26.110163	0.000581	20.678942
1687.454646	-3.023400	3.362600	-10.165000	26.075902	0.000581	20.655421
1688.456759	-2.985600	3.363400	-10.040000	26.085917	0.000579	20.664063
1689.455770	-3.001600	3.361300	-10.089000	26.146881	0.000579	20.676008
1690.457426	-2.997900	3.363100	-10.082000	26.185746	0.000579	20.653418
1691.459300	-3.005700	3.362800	-10.107000	26.211201	0.000579	20.674259
1692.457698	-3.007900	3.360900	-10.109000	26.259678	0.000578	20.672239
1693.460322	-3.000100	3.360300	-10.080000	26.270474	0.000577	20.686409
1694.455629	-3.013800	3.359700	-10.125000	26.303208	0.000578	20.644384
1695.456975	-3.003900	3.361500	-10.096000	26.344540	0.000577	20.676443
1696.462275	-3.022900	3.359400	-10.154000	26.342831	0.000577	20.673303
1697.457699	-3.022400	3.358600	-10.150000	26.345134	0.000575	20.675143
1698.455868	-2.972900	3.360100	-9.987900	26.344386	0.000574	20.667278
1699.458553	-3.020200	3.358400	-10.142000	26.332811	0.000575	20.675561
1700.457013	-2.982500	3.358700	-10.016000	26.290251	0.000575	20.661236
1701.461263	-2.999600	3.358100	-10.072000	26.323798	0.000572	20.670770
1702.461618	-3.000700	3.357100	-10.073000	26.327093	0.000574	20.667443
1703.458847	-2.994900	3.357800	-10.056000	26.347974	0.000574	20.682266
1704.458354	-3.024000	3.356200	-10.148000	26.344867	0.000573	20.688153
1705.459566	-2.981900	3.356600	-10.009000	26.362169	0.000573	20.665236
1706.458249	-3.008600	3.356000	-10.095000	26.346177	0.000573	20.668605
1707.462399	-3.014800	3.355400	-10.115000	26.361665	0.000570	20.683698
1708.459111	-3.009700	3.355300	-10.096000	26.350098	0.000572	20.649784
1709.458669	-3.009100	3.354400	-10.093000	26.372964	0.000571	20.661386
1710.460010	-2.978400	3.353900	-9.988200	26.384954	0.000568	20.649727
1711.463172	-2.988700	3.355500	-10.027000	26.395203	0.000568	20.680894
1712.463379	-3.020300	3.354500	-10.131000	26.397310	0.000567	20.676373
1713.464819	-3.013100	3.354600	-10.106000	26.429113	0.000566	20.678467
1714.461420	-3.021800	3.353700	-10.133000	26.404306	0.000567	20.669179
1715.464147	-3.028400	3.352700	-10.152000	26.365068	0.000567	20.675263
1716.462487	-3.016700	3.351700	-10.109000	26.317099	0.000566	20.675417
1717.464346	-3.016800	3.352700	-10.113000	26.243708	0.000566	20.672312
1718.466201	-2.970400	3.353600	-9.961000	26.188575	0.000567	20.673334
1719.462582	-3.004500	3.352500	-10.072000	26.166471	0.000564	20.666769
1720.466435	-2.975900	3.352100	-9.974700	26.136743	0.000563	20.682891
1721.463784	-2.989100	3.351100	-10.016000	26.109366	0.000564	20.675771
1722.463677	-3.001900	3.351100	-10.058000	26.083111	0.000564	20.650336
1723.468888	-3.007100	3.349900	-10.073000	26.047864	0.000564	20.701223
1724.463550	-3.009300	3.349700	-10.080000	26.035350	0.000562	20.654031
1725.463034	-2.987400	3.350600	-10.008000	26.019915	0.000560	20.680252
1726.464924	-3.023700	3.347700	-10.121000	26.038401	0.000562	20.678911
1727.479084	-2.992800	3.348500	-10.020000	26.059557	0.000562	20.675510
1728.465199	-3.001100	3.349300	-10.050000	26.136249	0.000559	20.689034
1729.469888	-3.001700	3.348600	-10.051000	26.152513	0.000560	20.671235
1730.472484	-2.989300	3.348200	-10.008000	26.208916	0.000557	20.679550
1731.467747	-2.995400	3.347800	-10.028000	26.233567	0.000560	20.679665
1732.468397	-3.007000	3.347200	-10.064000	26.238984	0.000557	20.687481
1733.468348	-3.013300	3.347200	-10.085000	26.249389	0.000559	20.668063
1734.472932	-2.979100	3.347900	-9.972600	26.220331	0.000556	20.663517
1735.468360	-3.004200	3.345800	-10.050000	26.233811	0.000557	20.666633
1736.469157	-2.988800	3.347100	-10.002000	26.236569	0.000557	20.682208
1737.473134	-2.993200	3.345900	-10.014000	26.241742	0.000554	20.698788
1738.470887	-3.002100	3.345200	-10.042000	26.233640	0.000555	20.663616
1739.472159	-2.982300	3.345800	-9.977000	26.246803	0.000555	20.674947
1740.472327	-2.995900	3.344900	-10.020000	26.239718	0.000553	20.695805
1741.472080	-2.985500	3.344200	-9.982400	26.214937	0.000555	20.703146
1742.472373	-3.007600	3.343400	-10.055000	26.231046	0.000553	20.686141
1743.471076	-2.974000	3.344700	-9.945800	26.268849	0.000554	20.674343
1744.470679	-2.993700	3.343200	-10.007000	26.276667	0.000553	20.676984
1745.473301	-2.992900	3.343500	-10.006000	26.334496	0.000552	20.669193
1746.473446	-3.011200	3.341200	-10.060000	26.308149	0.000552	20.681596
1747.473186	-3.007300	3.341300	-10.047000	26.301291	0.000550	20.690353
1748.472779	-3.020500	3.343000	-10.096000	26.320254	0.000552	20.669104
1749.475658	-3.029300	3.341300	-10.120000	26.320684	0.000550	20.695618
1750.478363	-2.985700	3.341900	-9.976400	26.356589	0.000550	20.687606
1751.473526	-3.007200	3.340900	-10.046000	26.319416	0.000548	20.685807
1752.476953	-3.012500	3.339300	-10.059000	26.358494	0.000548	20.695684
1753.473584	-3.007500	3.339500	-10.043000	26.346943	0.000549	20.688817
1754.476470	-2.996400	3.339300	-10.006000	26.360234	0.000548	20.685104
1755.478895	-2.998800	3.338600	-10.010000	26.386695	0.000546	20.678981
1756.477274	-3.010800	3.338500	-10.050000	26.391853	0.000547	20.692701
1757.476587	-3.019300	3.337700	-10.077000	26.393911	0.000546	20.689554
1758.477897	-3.010100	3.338700	-10.049000	26.429667	0.000544	20.697991
1759.480989	-2.972800	3.339100	-9.924900	26.410968	0.000545	20.686308
1760.477067	-3.015800	3.336900	-10.063000	26.438948	0.000542	20.710165
1761.477483	-3.013400	3.336700	-10.054000	26.437476	0.000542	20.692089
1762.476999	-3.004800	3.336400	-10.024000	26.418574	0.000542	20.708180
1763.487256	-2.972000	3.336300	-9.914600	26.400046	0.000544	20.690030
1764.481904	-3.013000	3.335400	-10.048000	26.412979	0.000542	20.714885
1765.479739	-3.010700	3.336400	-10.044000	26.384551	0.000542	20.692949
1766.484499	-3.003800	3.335200	-10.018000	26.423553	0.000541	20.697536
1767.486227	-3.014400	3.335600	-10.054000	26.428564	0.000542	20.696408
1768.480289	-3.026800	3.335500	-10.094000	26.444254	0.000541	20.695583
1769.479770	-3.018700	3.334400	-10.063000	26.422026	0.000538	20.690784
1770.483818	-3.003500	3.334000	-10.012000	26.403155	0.000538	20.712597
1771.480880	-2.985500	3.334100	-9.952500	26.365560	0.000541	20.711322
1772.483396	-2.995500	3.335000	-9.988000	26.381429	0.000538	20.703089
1773.482293	-2.998000	3.333100	-9.991800	26.385472	0.000539	20.706678
1774.482101	-2.982500	3.333700	-9.941400	26.401603	0.000538	20.710089
1775.483936	-2.997300	3.332600	-9.987800	26.437847	0.000537	20.698627
1776.482879	-3.037600	3.331000	-10.117000	26.430673	0.000536	20.712754
1777.490724	-3.021500	3.332100	-10.066000	26.436212	0.000537	20.696983
1778.483612	-3.011700	3.330800	-10.030000	26.433919	0.000535	20.707482
1779.484636	-2.996200	3.331700	-9.980700	26.416269	0.000535	20.712501
1780.486066	-3.001400	3.330800	-9.996200	26.472480	0.000532	20.700246
1781.484255	-2.966600	3.332400	-9.884100	26.442932	0.000533	20.711324
1782.487452	-3.004200	3.330100	-10.003000	26.426982	0.000532	20.712364
1783.488149	-3.001800	3.329300	-9.992000	26.411243	0.000532	20.728788
1784.488864	-3.011400	3.328800	-10.023000	26.401239	0.000534	20.706877
1785.486048	-2.991300	3.329700	-9.959400	26.413749	0.000533	20.706175
1786.485880	-3.001900	3.327800	-9.988400	26.432749	0.000533	20.719108
1787.491599	-3.006900	3.326900	-10.002000	26.463632	0.000531	20.713639
1788.491035	-2.998100	3.328000	-9.977000	26.430903	0.000530	20.711089
1789.487818	-2.995800	3.326000	-9.963000	26.451335	0.000529	20.716926
1790.492473	-3.029800	3.327100	-10.079000	26.452799	0.000530	20.695637
1791.490016	-2.989000	3.327600	-9.945500	26.445747	0.000530	20.708464
1792.488607	-3.007200	3.324900	-9.996700	26.480030	0.000530	20.718268
1793.490257	-3.028000	3.324500	-10.066000	26.492987	0.000527	20.714221
1794.495479	-2.990200	3.327400	-9.949000	26.513222	0.000529	20.720336
1795.491804	-3.000200	3.325200	-9.975900	26.544973	0.000527	20.711948
1796.491262	-2.977400	3.327500	-9.905600	26.534823	0.000527	20.713125
1797.491543	-2.995900	3.324600	-9.958200	26.497037	0.000526	20.713550
1798.492466	-2.992900	3.324900	-9.949500	26.470637	0.000526	20.720206
1799.490724	-3.003500	3.324700	-9.984300	26.482340	0.000525	20.714425
1800.499218	-2.977000	3.323700	-9.893700	26.471336	0.000527	20.714270
1801.490402	-2.988700	3.324700	-9.935800	26.436452	0.000525	20.719037
1802.489947	-2.990800	3.324300	-9.940800	26.413336	0.000524	20.741797
1803.496945	-3.017000	3.323000	-10.024000	26.378198	0.000524	20.714066
1804.494991	-3.004600	3.322100	-9.979800	26.385348	0.000522	20.724098
1805.495899	-2.989200	3.322300	-9.928800	26.349101	0.000520	20.701892
1806.495217	-3.018900	3.321700	-10.027000	26.388325	0.000523	20.731832
1807.495193	-2.985400	3.322600	-9.917700	26.416655	0.000520	20.714786
1808.495327	-3.000500	3.320900	-9.963300	26.454266	0.000521	20.751642
1809.496994	-2.990200	3.321900	-9.932300	26.495680	0.000522	20.742534
1810.493807	-2.979900	3.321700	-9.896100	26.508165	0.000518	20.729478
1811.497747	-3.005900	3.319900	-9.978400	26.522390	0.000519	20.721491
1812.496399	-3.008600	3.318200	-9.981300	26.541632	0.000518	20.719022
1813.496576	-3.001500	3.319300	-9.961900	26.551643	0.000519	20.718179
1814.499498	-2.997800	3.318800	-9.948500	26.591453	0.000519	20.745871
1815.497906	-2.989400	3.318900	-9.921300	26.597536	0.000519	20.730174
1816.500113	-3.021700	3.317900	-10.024000	26.567470	0.000517	20.730297
1817.497065	-3.001500	3.316900	-9.955200	26.559622	0.000516	20.724778
1818.499253	-3.009400	3.317300	-9.981900	26.528930	0.000516	20.739920
1819.501226	-3.008500	3.318800	-9.982400	26.508752	0.000517	20.735758
1820.499410	-2.995700	3.316800	-9.935700	26.492283	0.000513	20.721100
1821.499518	-3.005200	3.316400	-9.965500	26.444980	0.000515	20.720022
1822.502317	-3.005300	3.316700	-9.966300	26.461694	0.000515	20.731132
1823.500184	-3.009200	3.314900	-9.973700	26.481783	0.000512	20.736151
1824.506643	-2.994200	3.315500	-9.925900	26.514429	0.000516	20.725818
1825.501003	-2.990300	3.316500	-9.916900	26.523734	0.000513	20.741335
1826.500177	-3.004100	3.315400	-9.958700	26.537040	0.000512	20.731950
1827.502378	-3.024400	3.312900	-10.018000	26.544010	0.000510	20.744647
1828.499858	-2.993700	3.315700	-9.925400	26.535910	0.000509	20.742669
1829.500563	-2.998200	3.314600	-9.937100	26.550118	0.000510	20.745571
1830.503525	-2.991400	3.313000	-9.909300	26.594498	0.000510	20.747509
1831.500302	-2.984900	3.312400	-9.886600	26.568800	0.000508	20.749178
1832.500768	-3.004800	3.313100	-9.953700	26.538213	0.000508	20.738345
1833.501114	-2.972700	3.313000	-9.847200	26.544247	0.000506	20.761956
1834.501765	-2.985700	3.312200	-9.888000	26.521906	0.000507	20.743765
1835.510049	-3.005800	3.310600	-9.950100	26.518922	0.000507	20.724643
1836.504116	-2.998000	3.312300	-9.929200	26.542856	0.000504	20.731633
1837.502858	-2.995100	3.311200	-9.915000	26.575680	0.000505	20.760361
1838.504033	-2.990900	3.311600	-9.903000	26.615992	0.000506	20.733080
1839.503915	-3.019100	3.308600	-9.987400	26.627004	0.000507	20.744625
1840.505114	-3.004500	3.310300	-9.944700	26.643757	0.000504	20.738707
1841.504635	-2.991600	3.308600	-9.896300	26.664884	0.000504	20.739557
1842.504797	-2.983200	3.309600	-9.872300	26.639585	0.000504	20.750161
1843.508994	-2.999900	3.309200	-9.927000	26.649783	0.000504	20.776060
1844.505997	-3.007000	3.307900	-9.945600	26.657151	0.000502	20.760234
1845.506775	-3.024100	3.308000	-10.002000	26.625250	0.000504	20.761828
1846.509691	-3.022000	3.307300	-9.993000	26.585873	0.000501	20.752590
1847.506183	-3.018500	3.306200	-9.979100	26.583386	0.000499	20.768108
1848.508443	-3.025800	3.306700	-10.004000	26.601757	0.000500	20.744375
1849.507653	-3.006100	3.307200	-9.940900	26.594943	0.000498	20.747957
1850.506989	-3.008300	3.306100	-9.944400	26.582330	0.000499	20.762305
1851.510632	-3.014700	3.306100	-9.965800	26.591861	0.000498	20.755291
1852.506342	-2.989200	3.307300	-9.885700	26.599271	0.000496	20.770326
1853.507996	-2.976900	3.306800	-9.843700	26.623830	0.000499	20.774152
1854.508162	-3.007300	3.304800	-9.936600	26.649041	0.000497	20.761089
1855.510679	-2.995000	3.304900	-9.897100	26.647692	0.000497	20.757362
1856.508118	-2.995000	3.305600	-9.899400	26.700516	0.000497	20.750249
1857.513546	-3.033800	3.302700	-10.019000	26.682618	0.000494	20.756912
1858.507514	-2.990100	3.303300	-9.875800	26.656108	0.000494	20.766297
1859.507276	-2.995400	3.303400	-9.894100	26.652523	0.000494	20.761271
1860.509270	-3.008200	3.302500	-9.933500	26.643684	0.000493	20.761394
1861.510449	-2.979300	3.304400	-9.842700	26.672025	0.000491	20.769496
1862.513405	-2.994400	3.301200	-9.883700	26.680815	0.000491	20.750832
1863.510298	-2.983500	3.302500	-9.852600	26.701022	0.000490	20.770199
1864.511339	-2.964300	3.302000	-9.787400	26.667521	0.000491	20.768762
1865.511248	-3.010600	3.300900	-9.936300	26.659259	0.000492	20.767568
1866.509619	-3.012000	3.299000	-9.935700	26.616858	0.000490	20.771884
1867.513320	-3.003100	3.301100	-9.911900	26.609329	0.000489	20.775695
1868.512589	-3.015500	3.298000	-9.944200	26.575920	0.000488	20.776724
1869.512997	-3.004800	3.299300	-9.913100	26.571513	0.000487	20.786994
1870.511195	-2.983700	3.300100	-9.846500	26.626871	0.000486	20.764880
1871.511569	-2.997000	3.298900	-9.885500	26.626927	0.000489	20.782007
1872.512282	-2.978300	3.300000	-9.826300	26.627066	0.000485	20.780250
1873.512116	-3.007300	3.297000	-9.913000	26.674574	0.000484	20.773482
1874.514003	-3.005800	3.298000	-9.912600	26.674054	0.000485	20.781493
1875.512383	-2.995400	3.297700	-9.876800	26.729926	0.000485	20.780292
1876.514108	-2.990000	3.296800	-9.855900	26.761703	0.000484	20.784265
1877.513255	-3.016900	3.296800	-9.945000	26.780137	0.000484	20.768659
1878.515842	-3.014600	3.295400	-9.933900	26.806116	0.000484	20.764433
1879.513568	-3.021200	3.295900	-9.956700	26.831483	0.000483	20.784250
1880.514921	-3.012700	3.295300	-9.926600	26.836468	0.000483	20.792107
1881.515393	-3.015400	3.296300	-9.937700	26.854314	0.000481	20.776386
1882.516483	-3.015000	3.294200	-9.930300	26.874137	0.000482	20.786361
1883.517625	-3.006600	3.294700	-9.904700	26.899259	0.000481	20.796448
1884.517576	-2.996700	3.294000	-9.870100	26.924463	0.000481	20.774851
1885.515659	-3.010100	3.294100	-9.914600	26.935982	0.000479	20.783589
1886.516729	-2.978000	3.294800	-9.811000	26.931780	0.000479	20.777467
1887.516953	-3.013300	3.292500	-9.919800	26.927341	0.000479	20.794340
1888.517712	-2.989000	3.292900	-9.841200	26.930512	0.000479	20.793262
1889.520043	-3.007000	3.292100	-9.898700	26.943586	0.000477	20.779855
1890.519438	-2.975300	3.292100	-9.794200	26.927896	0.000478	20.791105
1891.520593	-2.993400	3.291100	-9.849500	26.915458	0.000476	20.794719
1892.520463	-3.018100	3.291800	-9.934300	26.958342	0.000475	20.788056
1893.520479	-3.004900	3.292500	-9.892900	26.958433	0.000475	20.798579
1894.521471	-2.999100	3.290000	-9.865600	26.919443	0.000474	20.789717
1895.523693	-3.006900	3.291200	-9.894700	26.896061	0.000475	20.798449
1896.522300	-3.016300	3.290300	-9.923500	26.840801	0.000474	20.784136
1897.520512	-3.012300	3.289800	-9.908900	26.857428	0.000475	20.798483
1898.522885	-3.023000	3.288600	-9.940300	26.826874	0.000473	20.781512
1899.521563	-2.998300	3.288900	-9.859700	26.847372	0.000473	20.796432
1900.524419	-3.012200	3.288900	-9.905900	26.867942	0.000475	20.800520
1901.521057	-2.990100	3.288100	-9.831300	26.882455	0.000472	20.789983
1902.526382	-2.999000	3.288300	-9.861100	26.914562	0.000471	20.808043
1903.521031	-2.980200	3.288400	-9.799300	26.939344	0.000469	20.799297
1904.522619	-2.994200	3.287900	-9.843800	26.922847	0.000471	20.806891
1905.527854	-3.007700	3.288500	-9.888500	26.928166	0.000469	20.782368
1906.524574	-3.022700	3.285900	-9.931300	26.928362	0.000470	20.820022
1907.524510	-2.992700	3.286600	-9.834700	26.946371	0.000466	20.815846
1908.525272	-3.005100	3.286600	-9.875900	26.941753	0.000467	20.801720
1909.524461	-3.016500	3.285900	-9.911000	26.911763	0.000466	20.803806
1910.524962	-3.045200	3.284000	-9.998000	26.946080	0.000468	20.799907
1911.526779	-3.020400	3.283900	-9.918100	26.966478	0.000464	20.806668
1912.524420	-3.012300	3.284100	-9.891600	26.996193	0.000466	20.820903
1913.526058	-3.009800	3.284400	-9.883900	27.015622	0.000465	20.786388
1914.524940	-3.002500	3.282700	-9.854300	27.005878	0.000466	20.814995
1915.525899	-3.010700	3.283600	-9.885900	27.028492	0.000464	20.827306
1916.529783	-2.994600	3.282100	-9.827300	27.041037	0.000463	20.785868
1917.526423	-3.002800	3.282700	-9.855700	27.026487	0.000463	20.819125
1918.529438	-2.990600	3.282800	-9.815500	26.989483	0.000462	20.807992
1919.527094	-2.999800	3.281500	-9.843500	26.990339	0.000461	20.827818
1920.527973	-2.998400	3.281600	-9.838300	27.005371	0.000461	20.832029
1921.530010	-2.987100	3.282000	-9.802800	26.998120	0.000460	20.812884
1922.530974	-2.998000	3.281000	-9.835800	26.998934	0.000459	20.811331
1923.537720	-2.981900	3.280900	-9.782200	27.001745	0.000458	20.831702
1924.528497	-2.985300	3.280700	-9.793600	27.019641	0.000458	20.838793
1925.528860	-2.978500	3.280500	-9.769400	27.055156	0.000457	20.823301
1926.526655	-2.996500	3.279700	-9.826700	27.049540	0.000457	20.838989
1927.530776	-2.967700	3.281100	-9.735700	27.065539	0.000456	20.832320
1928.529663	-2.995700	3.278500	-9.820400	27.057216	0.000455	20.824899
1929.533681	-2.990500	3.278100	-9.802400	27.070857	0.000454	20.842884
1930.528487	-3.007000	3.278100	-9.855700	27.103130	0.000454	20.835986
1931.529150	-2.986500	3.278100	-9.789000	27.079232	0.000452	20.841823
1932.529817	-3.004100	3.276600	-9.842600	27.036841	0.000453	20.848503
1933.529435	-3.009900	3.276100	-9.860500	26.995025	0.000452	20.840116
1934.533237	-3.006400	3.275800	-9.847100	26.967859	0.000449	20.833661
1935.527461	-3.003900	3.275300	-9.837200	26.971582	0.000451	20.823181
1936.529047	-2.989500	3.275800	-9.791400	27.000637	0.000450	20.832010
1937.529018	-2.996800	3.274500	-9.812200	26.977747	0.000448	20.838388
1938.530418	-3.018700	3.273200	-9.879900	26.959406	0.000449	20.839860
1939.534710	-2.967500	3.275000	-9.717400	26.913961	0.000447	20.825456
1940.528324	-2.995500	3.273800	-9.805600	26.858060	0.000448	20.848429
1941.527187	-3.009100	3.273900	-9.850100	26.892410	0.000446	20.822278
1942.528679	-3.003800	3.273200	-9.830900	26.912582	0.000445	20.842086
1943.532227	-2.980600	3.272700	-9.752900	26.913193	0.000444	20.849813
1944.530947	-2.999500	3.271700	-9.812700	26.937486	0.000444	20.843895
1945.532723	-2.995300	3.273300	-9.803000	26.957307	0.000443	20.818309
1946.529272	-3.010900	3.270700	-9.846900	26.967583	0.000443	20.848082
1947.530072	-2.994900	3.271300	-9.796200	26.968316	0.000445	20.851664
1948.532132	-2.998800	3.271400	-9.808600	26.981714	0.000441	20.859447
1949.532875	-3.020500	3.270900	-9.877900	26.966472	0.000443	20.845068
1950.529852	-3.029300	3.270800	-9.904600	26.967195	0.000441	20.827304
1951.529768	-3.004000	3.269100	-9.818000	26.960335	0.000441	20.846483
1952.530464	-3.029800	3.268600	-9.902700	26.978375	0.000441	20.834279
1953.532951	-2.996000	3.269100	-9.792300	27.016836	0.000439	20.839291
1954.543838	-2.987600	3.268200	-9.762900	27.013113	0.000438	20.846452
1955.532073	-2.981900	3.269700	-9.748500	27.011691	0.000437	20.836488
1956.536313	-2.967900	3.269000	-9.700700	27.021806	0.000437	20.832909
1957.533003	-2.985600	3.267800	-9.754300	27.037414	0.000436	20.823001
1958.534204	-3.012500	3.267600	-9.842400	27.075945	0.000435	20.859380
1959.535930	-2.995800	3.267700	-9.788900	27.073361	0.000434	20.829281
1960.532525	-3.010500	3.267200	-9.833800	27.063883	0.000436	20.825439
1961.531940	-2.988300	3.267400	-9.763000	27.069607	0.000432	20.853480
1962.534847	-3.001600	3.265000	-9.799000	27.064990	0.000432	20.836035
1963.533156	-2.989000	3.265000	-9.758100	27.114371	0.000433	20.821214
1964.533074	-3.000700	3.265500	-9.796500	27.101788	0.000429	20.838905
1965.535847	-2.995100	3.265000	-9.778700	27.112667	0.000432	20.836095
1966.533821	-2.994800	3.266600	-9.782300	27.135848	0.000430	20.818158
1967.534590	-3.009400	3.265400	-9.825100	27.166655	0.000429	20.816427
1968.534118	-3.014300	3.263400	-9.835500	27.143182	0.000429	20.834543
1969.534465	-2.997900	3.264300	-9.785500	27.121244	0.000428	20.829548
1970.536520	-2.998000	3.263700	-9.782700	27.114172	0.000427	20.845195
1971.535135	-2.990300	3.263800	-9.758100	27.040145	0.000425	20.812472
1972.535768	-3.022600	3.261400	-9.855900	27.031089	0.000428	20.835607
1973.537272	-3.006700	3.261100	-9.803300	27.012830	0.000427	20.822935
1974.534959	-2.996200	3.262100	-9.773100	27.014922	0.000425	20.830254
1975.537496	-2.987400	3.261600	-9.742500	27.002639	0.000424	20.809842
1976.539881	-2.999200	3.261200	-9.778800	27.033328	0.000422	20.803246
1977.537169	-3.016400	3.259800	-9.831200	27.063405	0.000424	20.822113
1978.538071	-2.987400	3.260600	-9.738000	27.097895	0.000421	20.812230
1979.536805	-3.009900	3.258100	-9.806400	27.105854	0.000422	20.813122
1980.541545	-3.013300	3.259000	-9.818400	27.097954	0.000420	20.829833
1981.539155	-3.011000	3.259900	-9.814300	27.127656	0.000420	20.824143
1982.538548	-3.014600	3.258700	-9.823800	27.108075	0.000420	20.805399
1983.538019	-3.011300	3.258200	-9.810400	27.065619	0.000419	20.818650
1984.538096	-3.001600	3.259000	-9.781200	27.030876	0.000421	20.800306
1985.543200	-3.006100	3.257600	-9.792000	27.007050	0.000419	20.814752
1986.541235	-2.994600	3.258000	-9.755500	27.001881	0.000419	20.818089
1987.539660	-3.027100	3.257600	-9.859900	27.011587	0.000418	20.810306
1988.538578	-2.995000	3.256700	-9.753100	27.054063	0.000420	20.806555
1989.540918	-3.016300	3.257300	-9.824200	27.031456	0.000418	20.804683
1990.538876	-3.032300	3.254500	-9.866700	26.999290	0.000417	20.806000
1991.537631	-3.003100	3.255300	-9.774100	26.965170	0.000414	20.787336
1992.541382	-2.984100	3.256900	-9.718400	26.950179	0.000415	20.809719
1993.538022	-3.020500	3.253400	-9.825600	26.938384	0.000414	20.801178
1994.539093	-3.001500	3.254800	-9.767800	26.944067	0.000413	20.800254
1995.539258	-2.997100	3.253900	-9.751500	26.955733	0.000414	20.794441
1996.537942	-3.011000	3.252500	-9.791500	26.935726	0.000409	20.806091
1997.540131	-2.997100	3.253000	-9.748900	26.910239	0.000410	20.788523
1998.538559	-3.024600	3.252200	-9.835700	26.920728	0.000410	20.808553
1999.541608	-2.971100	3.253100	-9.664500	26.931249	0.000408	20.787838
2000.545760	-3.008400	3.251100	-9.779600	26.914850	0.000408	20.795530
2001.539141	-2.985700	3.251500	-9.707200	26.935143	0.000408	20.791754
2002.542418	-3.002100	3.250900	-9.758400	26.975589	0.000407	20.789278
2003.540782	-3.027300	3.248600	-9.832300	27.000995	0.000405	20.793964
2004.540427	-3.017800	3.250500	-9.808100	27.078741	0.000407	20.802449
2005.539875	-2.996800	3.251100	-9.741300	27.096104	0.000404	20.789092
2006.540957	-2.962500	3.250900	-9.629400	27.086822	0.000403	20.792559
2007.538815	-3.004000	3.249100	-9.758800	27.089546	0.000403	20.792454
2008.539957	-3.005300	3.247800	-9.759800	27.132179	0.000403	20.783648
2009.540812	-3.002100	3.249000	-9.752800	27.093869	0.000401	20.771197
2010.540840	-3.021400	3.246100	-9.807100	27.061380	0.000402	20.785939
2011.539963	-2.985700	3.249200	-9.699600	27.060706	0.000400	20.812288
2012.545763	-3.010600	3.246500	-9.773400	27.067999	0.000400	20.794017
2013.543605	-3.017500	3.245900	-9.793500	27.056212	0.000399	20.783586
2014.544040	-3.005600	3.245400	-9.752600	27.049042	0.000399	20.787280
2015.546880	-3.000500	3.245200	-9.735600	27.055140	0.000398	20.789146
2016.547575	-2.987100	3.246200	-9.695400	27.059278	0.000396	20.788566
2017.554364	-3.020400	3.243800	-9.796600	27.105311	0.000396	20.786497
2018.545430	-3.012400	3.245800	-9.775400	27.103669	0.000396	20.790537
2019.547390	-3.002700	3.244100	-9.740200	27.141011	0.000394	20.783523
2020.550632	-2.990300	3.244800	-9.702100	27.162991	0.000395	20.787137
2021.545936	-3.016300	3.244400	-9.782700	27.146148	0.000395	20.788215
2022.544114	-2.997500	3.242800	-9.719100	27.151352	0.000393	20.803880
2023.547286	-3.016700	3.242600	-9.780700	27.157603	0.000393	20.792149
2024.547107	-2.987300	3.243700	-9.688900	27.170387	0.000391	20.788412
2025.547825	-2.994900	3.243000	-9.711000	27.167307	0.000392	20.776779
2026.545698	-3.012500	3.241500	-9.763500	27.176858	0.000390	20.778799
2027.548590	-2.996000	3.241900	-9.711400	27.187075	0.000390	20.785757
2028.548012	-3.001600	3.240400	-9.725700	27.210401	0.000390	20.777450
2029.550193	-2.996800	3.241800	-9.712800	27.249381	0.000391	20.777302
2030.547358	-3.022500	3.239400	-9.790400	27.265848	0.000390	20.789125
2031.550276	-2.995300	3.239900	-9.703800	27.220643	0.000386	20.770208
2032.553203	-3.003400	3.238600	-9.725500	27.184718	0.000386	20.769161
2033.547529	-2.999400	3.239500	-9.715800	27.227616	0.000385	20.786231
2034.553453	-3.014000	3.237400	-9.755500	27.260858	0.000385	20.800701
2035.549544	-2.985100	3.238300	-9.665500	27.267507	0.000386	20.787948
2036.554226	-2.993400	3.237500	-9.690500	27.247751	0.000385	20.783723
2037.549633	-3.002500	3.237400	-9.719300	27.273953	0.000385	20.766457
2038.554018	-2.974400	3.238100	-9.630100	27.296180	0.000384	20.788816
2039.550838	-2.999500	3.236200	-9.706800	27.277423	0.000382	20.770896
2040.553683	-3.003700	3.236700	-9.721300	27.261225	0.000383	20.776414
2041.551755	-3.003000	3.237100	-9.719200	27.214550	0.000380	20.778778
2042.551943	-3.012500	3.235200	-9.744700	27.164954	0.000378	20.760661
2043.552324	-2.987400	3.234900	-9.663100	27.175667	0.000378	20.782343
2044.552512	-2.988300	3.234900	-9.666000	27.170139	0.000379	20.764455
2045.558478	-2.985500	3.235100	-9.656800	27.214274	0.000377	20.788932
2046.556651	-2.998100	3.234000	-9.695000	27.240949	0.000378	20.762656
2047.556342	-2.992200	3.233200	-9.673400	27.252426	0.000376	20.771357
2048.552646	-2.982900	3.232400	-9.641000	27.279595	0.000375	20.761701
2049.554297	-3.010700	3.233000	-9.731200	27.312200	0.000376	20.759411
2050.554224	-2.998400	3.230300	-9.684800	27.342035	0.000375	20.772828
2051.554694	-2.983700	3.232400	-9.643600	27.335688	0.000373	20.772607
2052.555265	-2.997000	3.231200	-9.682300	27.351316	0.000372	20.764146
2053.556439	-3.000700	3.231000	-9.694300	27.360233	0.000370	20.782126
2054.556789	-2.999800	3.230600	-9.690000	27.366043	0.000371	20.788444
2055.555411	-3.007700	3.230500	-9.714200	27.372041	0.000371	20.756071
2056.565787	-2.992200	3.230300	-9.664300	27.358005	0.000367	20.761867
2057.557900	-3.007900	3.228900	-9.711700	27.382484	0.000369	20.761361
2058.562700	-3.000100	3.230000	-9.689600	27.392015	0.000366	20.764785
2059.559229	-2.983100	3.230300	-9.635000	27.409049	0.000367	20.762007
2060.558340	-3.006300	3.227300	-9.700800	27.394763	0.000366	20.764231
2061.566678	-3.017600	3.225700	-9.732800	27.396390	0.000367	20.766816
2062.558410	-3.006500	3.227100	-9.701600	27.406019	0.000364	20.764175
2063.560296	-2.998200	3.226000	-9.671400	27.418077	0.000365	20.752598
2064.558591	-3.003400	3.225100	-9.684800	27.436972	0.000363	20.756908
2065.561094	-3.004700	3.225700	-9.691200	27.421925	0.000364	20.755521
2066.564021	-2.997300	3.226100	-9.668400	27.389784	0.000362	20.774396
2067.565368	-3.005600	3.225300	-9.691800	27.428904	0.000363	20.758748
2068.561579	-3.004200	3.223600	-9.682900	27.436347	0.000359	20.763866
2069.563168	-2.995600	3.224700	-9.657700	27.432594	0.000359	20.744917
2070.562550	-3.007600	3.223600	-9.693600	27.448263	0.000360	20.762577
2071.560619	-3.012400	3.223600	-9.709000	27.447474	0.000359	20.753722
2072.561236	-3.008600	3.222700	-9.695100	27.424404	0.000359	20.753747
2073.560539	-3.033700	3.220900	-9.770300	27.435415	0.000357	20.761980
2074.565068	-3.025900	3.219800	-9.740900	27.411843	0.000359	20.743480
2075.561442	-3.023700	3.221500	-9.739200	27.430322	0.000356	20.748321
2076.562632	-3.004200	3.219200	-9.669600	27.457982	0.000357	20.750544
2077.565193	-3.021200	3.219400	-9.725800	27.454847	0.000353	20.763986
2078.563827	-2.994400	3.220600	-9.643400	27.417859	0.000355	20.752852
2079.567498	-2.992900	3.219800	-9.635400	27.439759	0.000354	20.754970
2080.564590	-2.986000	3.222300	-9.621100	27.446560	0.000353	20.745690
2081.565712	-2.984000	3.219900	-9.607400	27.472725	0.000351	20.753049
2082.565874	-3.007400	3.219600	-9.682200	27.497599	0.000352	20.759582
2083.567602	-2.988100	3.218000	-9.614900	27.487304	0.000351	20.755862
2084.564720	-3.022400	3.217900	-9.724100	27.515776	0.000350	20.773603
2085.565218	-2.987500	3.218900	-9.615600	27.558679	0.000349	20.739481
2086.567440	-2.991400	3.217600	-9.624100	27.568258	0.000348	20.752438
2087.565671	-2.998200	3.216500	-9.643100	27.564205	0.000350	20.761163
2088.566960	-2.995200	3.216400	-9.633000	27.557485	0.000350	20.746815
2089.567924	-2.994800	3.214800	-9.626700	27.512464	0.000347	20.755571
2090.569703	-2.996400	3.214900	-9.632700	27.482449	0.000346	20.738649
2091.566559	-2.987900	3.214900	-9.604200	27.486739	0.000346	20.734430
2092.576933	-2.994800	3.213900	-9.624000	27.461614	0.000345	20.741869
2093.569384	-2.996400	3.214800	-9.631900	27.469466	0.000345	20.740760
2094.567799	-2.982500	3.213600	-9.582800	27.464208	0.000343	20.742109
2095.567766	-2.984700	3.212800	-9.587300	27.458155	0.000342	20.747873
2096.567693	-3.003700	3.213400	-9.650800	27.449169	0.000341	20.734090
2097.568280	-2.993900	3.211800	-9.615700	27.467103	0.000339	20.744547
2098.568934	-3.016700	3.211000	-9.686300	27.454567	0.000339	20.731934
2099.568999	-2.996000	3.211600	-9.620600	27.481015	0.000340	20.747638
2100.568168	-3.002500	3.210700	-9.639600	27.443604	0.000340	20.739872
2101.568279	-2.971300	3.210500	-9.538300	27.455436	0.000338	20.737076
2102.570179	-2.999900	3.209300	-9.626500	27.459346	0.000336	20.720146
2103.568160	-2.997400	3.207600	-9.613800	27.418741	0.000337	20.743781
2104.573572	-2.987700	3.208700	-9.585300	27.398271	0.000336	20.743578
2105.570953	-2.988900	3.208300	-9.588000	27.423227	0.000334	20.745924
2106.574420	-3.020200	3.207100	-9.683600	27.421691	0.000332	20.720195
2107.571407	-2.984500	3.207500	-9.570900	27.447190	0.000331	20.737789
2108.572504	-2.993700	3.207700	-9.601300	27.426299	0.000332	20.721039
2109.572472	-3.001700	3.207500	-9.626800	27.443211	0.000331	20.735208
2110.570830	-2.998700	3.207500	-9.617600	27.426617	0.000331	20.746016
2111.571321	-3.002700	3.204500	-9.621500	27.376417	0.000330	20.727281
2112.570831	-2.992300	3.205700	-9.591400	27.369989	0.000331	20.733618
2113.573006	-3.008100	3.206200	-9.643700	27.374482	0.000329	20.729129
2114.574713	-3.008000	3.204600	-9.637900	27.404096	0.000327	20.731893
2115.571681	-2.994700	3.203800	-9.593700	27.459215	0.000328	20.717643
2116.572778	-2.976500	3.205900	-9.541900	27.475710	0.000326	20.728075
2117.577163	-2.972500	3.204000	-9.522900	27.501055	0.000326	20.734134
2118.572725	-2.996500	3.201900	-9.592800	27.524238	0.000324	20.728062
2119.573160	-2.993400	3.201600	-9.583000	27.552961	0.000324	20.731830
2120.573575	-2.975200	3.202800	-9.527700	27.625458	0.000323	20.723221
2121.571454	-2.977900	3.201100	-9.530900	27.626443	0.000322	20.739386
2122.574943	-3.027000	3.200800	-9.687800	27.598169	0.000322	20.708564
2123.572694	-3.015100	3.200800	-9.649600	27.576430	0.000323	20.712295
2124.572039	-2.976000	3.201400	-9.527100	27.555891	0.000319	20.722450
2125.572564	-3.002400	3.200000	-9.606900	27.476343	0.000321	20.722074
2126.573045	-3.006400	3.199500	-9.618100	27.485145	0.000319	20.729032
2127.575780	-2.995300	3.198300	-9.578900	27.495408	0.000317	20.718495
2128.572924	-2.995300	3.198700	-9.580900	27.521922	0.000318	20.734266
2129.575675	-2.984900	3.198900	-9.547500	27.501559	0.000317	20.718520
2130.579879	-3.017300	3.196600	-9.643800	27.523005	0.000314	20.708327
2131.575938	-2.995600	3.195600	-9.571600	27.544560	0.000314	20.723852
2132.576932	-3.015300	3.195400	-9.633500	27.599585	0.000314	20.708092
2133.575149	-3.003900	3.196200	-9.599600	27.572700	0.000313	20.733673
2134.574821	-2.977000	3.196100	-9.513500	27.548635	0.000313	20.729374
2135.575108	-2.998900	3.194500	-9.579700	27.564186	0.000311	20.736487
2136.578178	-3.011000	3.194200	-9.615900	27.593372	0.000312	20.716066
2137.576706	-2.972100	3.193100	-9.488800	27.622467	0.000311	20.723056
2138.576577	-2.984500	3.193300	-9.528900	27.627668	0.000309	20.717383
2139.577304	-2.998700	3.191600	-9.569500	27.615343	0.000310	20.712094
2140.577539	-2.999800	3.193600	-9.579200	27.646461	0.000310	20.713534
2141.579593	-3.017400	3.191200	-9.627800	27.670786	0.000308	20.692491
2142.577910	-3.015800	3.190900	-9.621900	27.691048	0.000308	20.697707
2143.581640	-3.001900	3.191200	-9.578500	27.638713	0.000308	20.702892
2144.578531	-3.005900	3.188700	-9.584400	27.608823	0.000306	20.705059
2145.576466	-3.010900	3.189200	-9.601900	27.582207	0.000304	20.692502
2146.580949	-3.014100	3.188800	-9.611000	27.519432	0.000305	20.697145
2147.578271	-2.993400	3.190300	-9.548600	27.548026	0.000303	20.717381
2148.578275	-3.001700	3.188000	-9.569000	27.587684	0.000306	20.721723
2149.578283	-2.980200	3.189100	-9.503200	27.605787	0.000304	20.706746
2150.579474	-3.023200	3.187600	-9.635900	27.644825	0.000305	20.726113
2151.579632	-3.001300	3.186900	-9.564000	27.678494	0.000302	20.715422
2152.578953	-3.004200	3.187200	-9.574000	27.664034	0.000301	20.707983
2153.578270	-3.010100	3.187000	-9.591900	27.675978	0.000300	20.709571
2154.578396	-3.012300	3.186400	-9.597600	27.673298	0.000302	20.686957
2155.577451	-3.014300	3.184800	-9.597900	27.679148	0.000300	20.701380
2156.579403	-3.023900	3.185000	-9.630100	27.667808	0.000299	20.715100
2157.581282	-2.999100	3.183700	-9.546300	27.631843	0.000298	20.696927
2158.579298	-3.023800	3.182900	-9.622900	27.615374	0.000296	20.704538
2159.586490	-2.988500	3.185000	-9.517400	27.624468	0.000297	20.717008
2160.579904	-2.983500	3.186900	-9.507200	27.650758	0.000294	20.697942
2161.580088	-2.988900	3.182000	-9.509600	27.681331	0.000296	20.700257
2162.582097	-3.026400	3.180000	-9.623700	27.713121	0.000296	20.691943
2163.587840	-3.011600	3.180100	-9.576600	27.755789	0.000294	20.702640
2164.580694	-3.009000	3.179400	-9.565800	27.729348	0.000295	20.699264
2165.579852	-2.992600	3.179300	-9.513500	27.746181	0.000295	20.696764
2166.580584	-3.005000	3.178800	-9.551600	27.709600	0.000295	20.712584
2167.579289	-2.997500	3.179500	-9.530300	27.720620	0.000294	20.714665
2168.583347	-3.002100	3.177000	-9.536200	27.745592	0.000294	20.708974
2169.579831	-3.001000	3.178300	-9.537500	27.761581	0.000292	20.707046
2170.584922	-2.994100	3.177600	-9.512400	27.726635	0.000291	20.701276
2171.580581	-2.993700	3.176400	-9.508000	27.690542	0.000292	20.709053
2172.579799	-2.987200	3.177900	-9.492200	27.684832	0.000287	20.720852
2173.581494	-3.000300	3.176900	-9.530000	27.714700	0.000289	20.718191
2174.580219	-2.991300	3.176200	-9.499600	27.704732	0.000288	20.701046
2175.581523	-3.015100	3.175000	-9.571400	27.750429	0.000286	20.712420
2176.581490	-3.013300	3.174600	-9.564800	27.751316	0.000287	20.693871
2177.585166	-2.994700	3.173500	-9.502500	27.770034	0.000286	20.708441
2178.579842	-3.012400	3.172700	-9.556700	27.766503	0.000285	20.722432
2179.583262	-3.005300	3.170600	-9.527100	27.771808	0.000285	20.690310
2180.580581	-3.016900	3.171300	-9.566600	27.767334	0.000281	20.702879
2181.581174	-3.010500	3.170200	-9.543500	27.796668	0.000283	20.716279
2182.580955	-2.970000	3.171500	-9.415900	27.794177	0.000282	20.703340
2183.580259	-2.999400	3.171300	-9.511400	27.746339	0.000281	20.702613
2184.582018	-3.013300	3.169400	-9.549000	27.737656	0.000281	20.720429
2185.579087	-2.970400	3.169500	-9.413000	27.701675	0.000280	20.722153
2186.583443	-2.996400	3.169000	-9.494600	27.678029	0.000281	20.681760
2187.583848	-3.007900	3.168600	-9.529700	27.646035	0.000278	20.702199
2188.587440	-3.010600	3.167500	-9.534600	27.582315	0.000279	20.725330
2189.595880	-3.028500	3.167200	-9.590800	27.505071	0.000278	20.696921
2190.586819	-2.998100	3.168300	-9.497700	27.530544	0.000277	20.717810
2191.584024	-2.986400	3.166800	-9.455400	27.539314	0.000274	20.691544
2192.582891	-2.989700	3.165400	-9.462600	27.544914	0.000275	20.716146
2193.585958	-2.997200	3.166100	-9.488300	27.557631	0.000276	20.722778
2194.584720	-2.998400	3.165300	-9.489200	27.587840	0.000272	20.700541
2195.585645	-3.004000	3.164300	-9.505200	27.612418	0.000275	20.738075
2196.586014	-3.003800	3.163600	-9.502400	27.636792	0.000273	20.710917
2197.583333	-3.007300	3.162500	-9.509800	27.690406	0.000271	20.711287
2198.585335	-2.990600	3.163700	-9.460300	27.739831	0.000270	20.706970
2199.590877	-3.009200	3.162300	-9.515300	27.773528	0.000272	20.713854
2200.591699	-2.997200	3.161200	-9.472700	27.747479	0.000270	20.722728
2201.586906	-2.979400	3.161200	-9.416900	27.758200	0.000273	20.714076
2202.585560	-2.990800	3.160400	-9.450700	27.779738	0.000267	20.706827
2203.587570	-2.993500	3.158700	-9.454200	27.808503	0.000266	20.729138
2204.585990	-3.049900	3.157000	-9.627700	27.803907	0.000268	20.730203
2205.588736	-3.018000	3.156600	-9.525400	27.774072	0.000266	20.724833
2206.588686	-3.018700	3.158100	-9.532200	27.809090	0.000268	20.716452
2207.588578	-2.985500	3.157400	-9.425100	27.818011	0.000265	20.724008
2208.589647	-2.995800	3.157900	-9.458400	27.815777	0.000262	20.729347
2209.589742	-3.010000	3.156900	-9.500900	27.796038	0.000266	20.713274
2210.594612	-3.006700	3.154700	-9.484000	27.819228	0.000263	20.714327
2211.590261	-3.002500	3.155700	-9.474600	27.825860	0.000262	20.707725
2212.591799	-3.013000	3.153300	-9.499500	27.866952	0.000265	20.710201
2213.591791	-3.005200	3.153200	-9.474800	27.893182	0.000263	20.716211
2214.591875	-2.990500	3.155600	-9.436000	27.895904	0.000263	20.697139
2215.593760	-2.993400	3.152300	-9.434300	27.861935	0.000259	20.736921
2216.593219	-2.980500	3.152600	-9.395200	27.831679	0.000261	20.733497
2217.592767	-3.007900	3.151200	-9.477300	27.822856	0.000260	20.726988
2218.592514	-3.001900	3.150800	-9.457000	27.838599	0.000262	20.725762
2219.593359	-3.000800	3.150600	-9.453000	27.861409	0.000260	20.724537
2220.596524	-3.006500	3.149200	-9.467400	27.841517	0.000260	20.705464
2221.595410	-2.987800	3.150800	-9.413200	27.881060	0.000256	20.720133
2222.592142	-3.009600	3.149000	-9.475700	27.892342	0.000259	20.699718
2223.595696	-2.993100	3.149100	-9.424700	27.890531	0.000258	20.722553
2224.594523	-2.976800	3.148900	-9.372700	27.847409	0.000255	20.737474
2225.593728	-3.021600	3.146500	-9.506500	27.793473	0.000255	20.712115
2226.594343	-2.995700	3.148400	-9.431100	27.742110	0.000255	20.739611
2227.592425	-3.001300	3.147000	-9.444400	27.705829	0.000255	20.720169
2228.594294	-3.001200	3.144400	-9.436500	27.718349	0.000253	20.690566
2229.593802	-2.997300	3.144300	-9.422900	27.691265	0.000254	20.725902
2230.596721	-2.993400	3.143600	-9.409000	27.728464	0.000252	20.735361
2231.597306	-3.001800	3.143000	-9.432600	27.748149	0.000252	20.713918
2232.597851	-3.021800	3.141400	-9.491600	27.791624	0.000250	20.732067
2233.595856	-2.993000	3.141300	-9.400400	27.840421	0.000248	20.728544
2234.596827	-3.018400	3.140600	-9.477800	27.832901	0.000250	20.734726
2235.596460	-2.998700	3.140800	-9.417700	27.791336	0.000249	20.734147
2236.598230	-3.006200	3.139600	-9.437500	27.782953	0.000250	20.724762
2237.601575	-2.991100	3.139200	-9.388300	27.762546	0.000248	20.726037
2238.597823	-2.993900	3.139100	-9.395700	27.783051	0.000247	20.741931
2239.597229	-2.997300	3.138900	-9.407300	27.817671	0.000246	20.729356
2240.598392	-2.983300	3.138300	-9.361500	27.879162	0.000245	20.740034
2241.601500	-3.002800	3.136800	-9.418600	27.895797	0.000247	20.754407
2242.601430	-3.002600	3.136200	-9.415500	27.949422	0.000246	20.709754
2243.600870	-2.980200	3.136100	-9.345500	27.981504	0.000244	20.738254
2244.598498	-3.018400	3.134300	-9.459600	27.979124	0.000245	20.725427
2245.603779	-2.994300	3.135200	-9.386500	27.992185	0.000243	20.730039
2246.599146	-3.024800	3.131800	-9.472200	27.980213	0.000242	20.726049
2247.600711	-2.986500	3.133100	-9.355400	27.926932	0.000243	20.727422
2248.601095	-3.001600	3.131800	-9.398300	27.881927	0.000240	20.738550
2249.601398	-3.015100	3.132500	-9.443300	27.860549	0.000242	20.728413
2250.604950	-2.999400	3.129800	-9.386800	27.836197	0.000241	20.764598
2251.601180	-3.011000	3.130000	-9.423300	27.861210	0.000239	20.725285
2252.603218	-2.994300	3.128700	-9.367500	27.860616	0.000241	20.754561
2253.610646	-3.017900	3.127200	-9.436900	27.866954	0.000240	20.713048
2254.608214	-3.026400	3.126400	-9.460600	27.804019	0.000240	20.746912
2255.604980	-3.014800	3.126900	-9.426800	27.786562	0.000239	20.727446
2256.603916	-3.006300	3.125300	-9.394300	27.806454	0.000240	20.737508
2257.601917	-3.021700	3.124100	-9.438700	27.851401	0.000238	20.755243
2258.601770	-3.008800	3.124100	-9.398200	27.879668	0.000237	20.731061
2259.605910	-2.970200	3.124600	-9.280000	27.852288	0.000237	20.744282
2260.603187	-2.970000	3.123500	-9.275100	27.836263	0.000238	20.739060
2261.604415	-2.966600	3.123300	-9.264200	27.855586	0.000237	20.760404
2262.604302	-2.991300	3.121500	-9.336100	27.876700	0.000236	20.747040
2263.604409	-2.995200	3.121500	-9.348100	27.865014	0.000236	20.726743
2264.609144	-2.998500	3.120400	-9.355700	27.926881	0.000235	20.752028
2265.606589	-3.002500	3.120600	-9.369100	27.920653	0.000235	20.734853
2266.607395	-3.002300	3.118700	-9.362000	27.894834	0.000236	20.739213
2267.606414	-3.013600	3.118800	-9.398600	27.856552	0.000233	20.752367
2268.605824	-3.000500	3.118400	-9.356200	27.831129	0.000233	20.767084
2269.605889	-3.011600	3.115400	-9.380100	27.858106	0.000234	20.750137
2270.604337	-3.010300	3.115200	-9.375700	27.867724	0.000232	20.741799
2271.603650	-2.976500	3.115900	-9.273700	27.840399	0.000230	20.733264
2272.606136	-2.985200	3.116700	-9.302900	27.817331	0.000231	20.758887
2273.606543	-2.973400	3.114900	-9.260100	27.845324	0.000230	20.743437
2274.606602	-2.998200	3.112800	-9.330100	27.885833	0.000231	20.765242
2275.608997	-3.005200	3.112000	-9.350500	27.918388	0.000231	20.746799
2276.605563	-3.003000	3.110900	-9.340800	27.957862	0.000232	20.759503
2277.610602	-3.006400	3.110500	-9.350300	27.922206	0.000230	20.738313
2278.605824	-3.001800	3.110500	-9.336300	27.900450	0.000230	20.771418
2279.607324	-2.998100	3.109400	-9.321400	27.908416	0.000229	20.762840
2280.609659	-3.022800	3.109200	-9.397400	27.928642	0.000228	20.768974
2281.607756	-3.001100	3.106900	-9.322900	27.962486	0.000229	20.778857
2282.608876	-2.985300	3.106400	-9.272200	27.991068	0.000228	20.748356
2283.606608	-2.999000	3.106800	-9.315900	28.006418	0.000226	20.759065
2284.607792	-2.978800	3.105400	-9.250300	28.043820	0.000227	20.745031
2285.612882	-2.996500	3.104300	-9.301200	28.002667	0.000227	20.757661
2286.611797	-3.004600	3.104700	-9.327200	27.987416	0.000225	20.765069
2287.608056	-2.994100	3.103500	-9.291700	27.984516	0.000225	20.745554
2288.611451	-3.008400	3.101700	-9.330200	27.996091	0.000226	20.757205
2289.612277	-3.002400	3.100300	-9.306200	28.005316	0.000225	20.777871
2290.612227	-2.988500	3.101000	-9.265500	27.964627	0.000227	20.764890
2291.613400	-2.990800	3.099700	-9.269100	27.946224	0.000225	20.746367
2292.610855	-2.978100	3.099700	-9.229500	27.941367	0.000225	20.762815
2293.611644	-3.013000	3.098600	-9.335100	27.967043	0.000224	20.761158
2294.612231	-2.995000	3.097900	-9.277100	27.980007	0.000228	20.775629
2295.613408	-3.018200	3.095700	-9.342000	27.950605	0.000224	20.758362
2296.615050	-2.966300	3.096100	-9.182700	27.983971	0.000224	20.760653
2297.612775	-2.991000	3.095800	-9.259200	27.985311	0.000223	20.757734
2298.616550	-3.005500	3.093900	-9.298100	28.017067	0.000222	20.765992
2299.615503	-3.005300	3.094100	-9.297900	28.036998	0.000222	20.756656
2300.613836	-2.989200	3.093900	-9.247500	28.075892	0.000223	20.769730
2301.617697	-2.971500	3.093200	-9.190000	28.039567	0.000222	20.747388
2302.614624	-2.990000	3.091400	-9.242500	28.037114	0.000222	20.774792
2303.615531	-3.013000	3.089700	-9.308200	28.034379	0.000224	20.748805
2304.614966	-3.000400	3.089000	-9.268000	28.004728	0.000225	20.774908
2305.615168	-3.005600	3.086100	-9.273800	27.969545	0.000222	20.777901
2306.614703	-2.975100	3.088500	-9.187300	27.953400	0.000222	20.768763
2307.615830	-2.992100	3.087200	-9.236100	27.931852	0.000221	20.758454
2308.619521	-2.999900	3.085200	-9.254300	27.940723	0.000219	20.766435
2309.617902	-3.004100	3.083600	-9.262600	27.946517	0.000221	20.755670
2310.615730	-3.019600	3.082500	-9.307700	28.006887	0.000220	20.769021
2311.617471	-3.022300	3.081600	-9.311800	28.055777	0.000221	20.776509
2312.623888	-2.986400	3.081000	-9.200300	28.123879	0.000221	20.786269
2313.617429	-2.988200	3.079800	-9.201500	28.182080	0.000221	20.767100
2314.620388	-3.016200	3.079000	-9.285900	28.217665	0.000219	20.766416
2315.618607	-3.014200	3.079200	-9.280900	28.243617	0.000220	20.780690
2316.619193	-3.017400	3.077300	-9.284500	28.253433	0.000219	20.776349
2317.622799	-2.974900	3.077700	-9.154700	28.260510	0.000219	20.790586
2318.619988	-2.997300	3.075100	-9.216000	28.289261	0.000218	20.767850
2319.621171	-2.976000	3.076500	-9.154300	28.293004	0.000217	20.766403
2320.620090	-2.964500	3.075200	-9.115300	28.277011	0.000218	20.784914
2321.619634	-2.962900	3.074000	-9.107000	28.229439	0.000217	20.780166
2322.619221	-2.991900	3.073200	-9.194000	28.244956	0.000216	20.791047
2323.621367	-2.973400	3.071900	-9.132600	28.233353	0.000219	20.790271
2324.620874	-3.006200	3.069700	-9.227400	28.248858	0.000216	20.783122
2325.622427	-3.012500	3.069300	-9.245100	28.294636	0.000217	20.782746
2326.622098	-2.992200	3.070200	-9.185600	28.292924	0.000216	20.784341
2327.622490	-2.998500	3.067700	-9.197800	28.271830	0.000217	20.780172
2328.627970	-3.009800	3.066300	-9.228300	28.278619	0.000217	20.788430
2329.622886	-2.964600	3.066400	-9.089500	28.246656	0.000215	20.801767
2330.624961	-3.001800	3.063800	-9.196700	28.196618	0.000216	20.775098
2331.623925	-2.964300	3.063800	-9.080000	28.155435	0.000215	20.779630
2332.622830	-2.997600	3.063200	-9.181200	28.117504	0.000214	20.764204
2333.623158	-2.980300	3.061600	-9.123100	28.073351	0.000214	20.781871
2334.624102	-3.018900	3.060800	-9.239300	28.099551	0.000212	20.778848
2335.624520	-2.989200	3.061300	-9.149000	28.134381	0.000214	20.791625
2336.621783	-2.978400	3.059400	-9.110500	28.142381	0.000213	20.794938
2337.624504	-2.985200	3.057000	-9.124700	28.173075	0.000211	20.795967
2338.623599	-3.002600	3.055100	-9.172900	28.161612	0.000211	20.804341
2339.627611	-3.006500	3.055500	-9.186000	28.205560	0.000210	20.808282
2340.624503	-3.026700	3.053700	-9.240600	28.261304	0.000213	20.784747
2341.630379	-2.983500	3.053700	-9.109500	28.342345	0.000213	20.796170
2342.626299	-2.999700	3.052500	-9.155200	28.356552	0.000212	20.785344
2343.626226	-3.003900	3.051200	-9.164400	28.369737	0.000215	20.795301
2344.630204	-3.019500	3.049200	-9.206200	28.386255	0.000211	20.780639
2345.628018	-3.018400	3.048400	-9.200200	28.368758	0.000213	20.789575
2346.628308	-3.006400	3.047500	-9.161100	28.347959	0.000211	20.782382
2347.629198	-3.013800	3.045600	-9.177200	28.337605	0.000210	20.796139
2348.627395	-3.001800	3.045700	-9.142100	28.322279	0.000212	20.802992
2349.629116	-3.027200	3.043800	-9.212600	28.301975	0.000211	20.806256
2350.629657	-3.000200	3.043700	-9.130800	28.305620	0.000211	20.817987
2351.627579	-2.986700	3.042200	-9.085400	28.332187	0.000211	20.805856
2352.631837	-3.009500	3.040200	-9.147500	28.382867	0.000209	20.818005
2353.630476	-3.009400	3.039900	-9.147100	28.404943	0.000210	20.799458
2354.628463	-3.008900	3.039000	-9.143400	28.422861	0.000210	20.789999
2355.635868	-3.015800	3.037600	-9.159700	28.417608	0.000210	20.815530
2356.630893	-3.019600	3.036700	-9.168800	28.403353	0.000209	20.811133
2357.630036	-3.024200	3.035900	-9.179900	28.426352	0.000210	20.799679
2358.628226	-3.020900	3.034900	-9.167600	28.434222	0.000210	20.827519
2359.631227	-2.992700	3.033100	-9.076000	28.464981	0.000210	20.808707
2360.633846	-3.021300	3.031300	-9.156900	28.453308	0.000208	20.823978
2361.637555	-2.999800	3.031500	-9.092600	28.445223	0.000209	20.807777
2362.630965	-2.961600	3.031900	-8.978700	28.439243	0.000210	20.808393
2363.634277	-3.025400	3.028100	-9.159000	28.449058	0.000209	20.797887
2364.631361	-3.002100	3.027800	-9.089100	28.465134	0.000209	20.807912
2365.631101	-3.002000	3.026700	-9.085400	28.452121	0.000209	20.804292
2366.633716	-3.003200	3.025500	-9.085300	28.491147	0.000208	20.815142
2367.632637	-3.037200	3.023400	-9.181800	28.482892	0.000208	20.821527
2368.635170	-3.000600	3.021900	-9.066200	28.495256	0.000209	20.831133
2369.632861	-2.990400	3.022000	-9.035200	28.499738	0.000207	20.799137
2370.631263	-2.997900	3.020900	-9.055400	28.438595	0.000207	20.821016
2371.635370	-3.005200	3.020100	-9.075300	28.440227	0.000208	20.807487
2372.631439	-2.995600	3.018800	-9.041700	28.476483	0.000209	20.812703
2373.631416	-2.985100	3.016200	-9.002600	28.451473	0.000207	20.827820
2374.633618	-3.008300	3.016200	-9.072300	28.427429	0.000206	20.825419
2375.634695	-3.029800	3.013300	-9.128500	28.389685	0.000207	20.807327
2376.633870	-3.002100	3.013000	-9.044000	28.398357	0.000210	20.843085
2377.638045	-3.002000	3.012400	-9.041300	28.424230	0.000208	20.818405
2378.634047	-2.983000	3.011100	-8.980900	28.422316	0.000207	20.825961
2379.635623	-3.030800	3.009300	-9.119200	28.405634	0.000206	20.811533
2380.635374	-3.006300	3.009200	-9.044200	28.389135	0.000206	20.828584
2381.636616	-3.004400	3.006800	-9.032200	28.419069	0.000205	20.835967
2382.643289	-2.979700	3.006300	-8.956600	28.400974	0.000207	20.817272
2383.640005	-3.008900	3.004700	-9.039800	28.397079	0.000204	20.823781
2384.642000	-3.032900	3.001400	-9.102000	28.417198	0.000207	20.842617
2385.641070	-3.000000	3.002600	-9.006900	28.413504	0.000205	20.843639
2386.641475	-2.979600	3.001600	-8.943100	28.450856	0.000205	20.810603
2387.643703	-2.989500	2.999000	-8.965000	28.457368	0.000205	20.839920
2388.644855	-3.009200	2.998700	-9.023400	28.442447	0.000207	20.831059
2389.640759	-2.993600	2.997000	-8.970100	28.409285	0.000207	20.835598
2390.642414	-2.984800	2.997200	-8.945000	28.458799	0.000207	20.838516
2391.643743	-2.978000	2.995300	-8.918400	28.481222	0.000205	20.844976
2392.642320	-3.003000	2.993000	-8.986700	28.501988	0.000206	20.851663
2393.646165	-3.016300	2.990600	-9.019700	28.482164	0.000206	20.852088
2394.647131	-3.002700	2.991000	-8.979900	28.467293	0.000205	20.822888
2395.645090	-3.015300	2.987200	-9.006000	28.461643	0.000206	20.871250
2396.644171	-2.969100	2.989800	-8.876500	28.462358	0.000206	20.822186
2397.644219	-3.014000	2.985900	-8.998200	28.445260	0.000205	20.851435
2398.647233	-2.998500	2.985300	-8.950600	28.409316	0.000206	20.853172
2399.645127	-2.984600	2.984100	-8.905400	28.396009	0.000204	20.829342
2400.643814	-3.000300	2.982400	-8.947100	28.429612	0.000207	20.844212
2401.644758	-2.963100	2.982800	-8.837200	28.492376	0.000205	20.846725
2402.646546	-2.974800	2.980700	-8.865000	28.488536	0.000205	20.827211
2403.653417	-2.965300	2.979200	-8.832500	28.545873	0.000205	20.853658
2404.655838	-2.995100	2.978400	-8.919700	28.573302	0.000207	20.839557
2405.647328	-2.998600	2.976100	-8.923500	28.623133	0.000206	20.838061
2406.646655	-2.990200	2.973000	-8.888000	28.608783	0.000203	20.834514
2407.645441	-2.965300	2.973900	-8.817700	28.592972	0.000205	20.858418
2408.646784	-3.012400	2.971400	-8.950000	28.577906	0.000204	20.852254
2409.649322	-3.005400	2.969400	-8.923900	28.549254	0.000204	20.845684
2410.649020	-2.986300	2.967800	-8.861400	28.549206	0.000203	20.836152
2411.648066	-2.980900	2.968100	-8.846800	28.571554	0.000205	20.852020
2412.647082	-2.979800	2.965700	-8.836300	28.534800	0.000204	20.876170
2413.648670	-3.009900	2.963800	-8.919500	28.511411	0.000204	20.841713
2414.649476	-3.002700	2.963600	-8.896500	28.564541	0.000202	20.840690
2415.651080	-2.976500	2.962000	-8.814200	28.595204	0.000203	20.858769
2416.652442	-2.981700	2.959100	-8.822300	28.572557	0.000204	20.852082
2417.650455	-2.995800	2.958800	-8.863100	28.529413	0.000203	20.842772
2418.650213	-3.013400	2.956200	-8.907400	28.543611	0.000204	20.865604
2419.655260	-3.018400	2.954400	-8.916400	28.562364	0.000206	20.838973
2420.651834	-3.000700	2.954700	-8.865200	28.545464	0.000204	20.833332
2421.653457	-3.013900	2.952000	-8.896000	28.571083	0.000205	20.867193
2422.652422	-3.022900	2.948400	-8.911200	28.609438	0.000205	20.847501
2423.653437	-3.011700	2.948200	-8.878000	28.627627	0.000205	20.842113
2424.652215	-2.987700	2.948100	-8.806800	28.677645	0.000204	20.847920
2425.654760	-2.997800	2.945700	-8.829200	28.704924	0.000205	20.867809
2426.655716	-2.993600	2.944700	-8.814700	28.720703	0.000204	20.835340
2427.653949	-3.000000	2.942000	-8.824500	28.749411	0.000204	20.849558
2428.651607	-3.037300	2.941400	-8.932500	28.786097	0.000203	20.862329
2429.651698	-3.007800	2.940200	-8.842600	28.831553	0.000202	20.818505
2430.656136	-2.988300	2.938600	-8.781000	28.838686	0.000203	20.855562
2431.655657	-3.020600	2.935100	-8.864800	28.824743	0.000201	20.838197
2432.654901	-3.017300	2.933200	-8.849400	28.809993	0.000204	20.862692
2433.653943	-2.992300	2.933500	-8.776800	28.786684	0.000202	20.832576
2434.653942	-3.024300	2.930800	-8.862800	28.768888	0.000202	20.838358
2435.655468	-3.005300	2.930700	-8.806100	28.791947	0.000203	20.856843
2436.656599	-2.999500	2.928900	-8.784200	28.711435	0.000202	20.808936
2437.655819	-3.021000	2.925700	-8.837800	28.650133	0.000202	20.840599
2438.658176	-2.994200	2.925100	-8.757700	28.639208	0.000203	20.829596
2439.657187	-2.993100	2.923900	-8.751300	28.642350	0.000201	20.837502
2440.657031	-2.998300	2.921600	-8.758900	28.692795	0.000202	20.837102
2441.660946	-2.992500	2.919900	-8.736900	28.696958	0.000203	20.841769
2442.657655	-2.990300	2.919700	-8.730000	28.721413	0.000203	20.845538
2443.657590	-2.979900	2.918000	-8.694700	28.722550	0.000203	20.833407
2444.657828	-3.014500	2.914600	-8.785200	28.700327	0.000202	20.830938
2445.658677	-2.983800	2.914900	-8.696400	28.673268	0.000203	20.843986
2446.657237	-2.991000	2.912000	-8.708800	28.656742	0.000203	20.818333
2447.658109	-3.019100	2.909200	-8.781300	28.681118	0.000204	20.825815
2448.664219	-2.991000	2.908900	-8.700000	28.743335	0.000203	20.832059
2449.660511	-2.971800	2.907100	-8.638700	28.793176	0.000203	20.841486
2450.658484	-3.019100	2.903500	-8.764800	28.772514	0.000206	20.837742
2451.659010	-3.017300	2.902700	-8.757700	28.781506	0.000204	20.821197
2452.661413	-3.020700	2.901900	-8.764200	28.779691	0.000203	20.830273
2453.658103	-3.036400	2.900100	-8.805000	28.814645	0.000200	20.817595
2454.660018	-3.013700	2.897400	-8.730800	28.830606	0.000204	20.813284
2455.657762	-3.003100	2.896100	-8.696200	28.868902	0.000203	20.830052
2456.658484	-3.002000	2.894200	-8.687200	28.882209	0.000205	20.830181
2457.658181	-3.006000	2.892300	-8.693000	28.872197	0.000203	20.822465
2458.670717	-2.997900	2.890700	-8.665100	28.848137	0.000202	20.813401
2459.658515	-2.996900	2.888800	-8.656700	28.820251	0.000204	20.816603
2460.656648	-2.994200	2.887200	-8.642800	28.834616	0.000201	20.808315
2461.659058	-3.030300	2.883300	-8.735500	28.823234	0.000204	20.813919
2462.660375	-3.003200	2.883400	-8.658600	28.824401	0.000202	20.820785
2463.663837	-3.023500	2.881600	-8.711400	28.814419	0.000203	20.818315
2464.660908	-2.991200	2.880200	-8.614200	28.807481	0.000202	20.818438
2465.664558	-3.020700	2.875900	-8.686100	28.819817	0.000202	20.823753
2466.660058	-2.994800	2.875900	-8.611900	28.809657	0.000202	20.793130
2467.661894	-3.035300	2.873300	-8.720200	28.793305	0.000201	20.819806
2468.663352	-3.005600	2.872000	-8.630800	28.774721	0.000202	20.825742
2469.662787	-2.997300	2.870700	-8.603300	28.724874	0.000202	20.792126
2470.664414	-3.014400	2.867500	-8.642700	28.679480	0.000202	20.815157
2471.663694	-3.015400	2.865400	-8.639300	28.716767	0.000202	20.808143
2472.664134	-2.992600	2.864000	-8.569800	28.747047	0.000202	20.811616
2473.663680	-3.064500	2.860200	-8.764500	28.774856	0.000204	20.800748
2474.665715	-2.988500	2.861800	-8.551000	28.830649	0.000202	20.791043
2475.663885	-3.020600	2.857200	-8.629800	28.841004	0.000203	20.786301
2476.667031	-2.990400	2.856300	-8.540000	28.829806	0.000203	20.818168
2477.666790	-3.005400	2.854800	-8.579100	28.862876	0.000202	20.779411
2478.665807	-3.027700	2.851600	-8.632900	28.885841	0.000201	20.793537
2479.665834	-3.008600	2.850000	-8.572500	28.948779	0.000202	20.826124
2480.667631	-3.001900	2.847500	-8.547400	28.897999	0.000201	20.797250
2481.668167	-2.992900	2.846700	-8.519800	28.829653	0.000203	20.798574
2482.666406	-2.991600	2.844000	-8.505300	28.753790	0.000203	20.783321
2483.664069	-3.038700	2.839700	-8.627800	28.658951	0.000202	20.798747
2484.664495	-2.998200	2.841200	-8.517500	28.613378	0.000204	20.781770
2485.667802	-3.006600	2.837200	-8.529900	28.620843	0.000202	20.779805
2486.663367	-3.000100	2.834900	-8.503500	28.628070	0.000202	20.791351
2487.664635	-3.019300	2.833900	-8.555900	28.602452	0.000202	20.787835
2488.669442	-3.008700	2.830100	-8.513900	28.612980	0.000203	20.777102
2489.667155	-2.996900	2.829000	-8.476800	28.647151	0.000203	20.791604
2490.668037	-2.973200	2.828200	-8.407100	28.700573	0.000200	20.785667
2491.665655	-2.997000	2.824800	-8.465700	28.764397	0.000202	20.782151
2492.666818	-3.010200	2.821400	-8.492100	28.788287	0.000200	20.793414
2493.666466	-2.999800	2.819400	-8.456200	28.814805	0.000201	20.773660
2494.672946	-3.002000	2.818200	-8.459000	28.835094	0.000201	20.782718
2495.672271	-3.012100	2.814400	-8.476000	28.860957	0.000202	20.787435
2496.666819	-2.994900	2.813200	-8.423500	28.881611	0.000200	20.772681
2497.669373	-2.984300	2.811000	-8.387600	28.833548	0.000201	20.776893
2498.668362	-3.008900	2.808500	-8.448200	28.845070	0.000201	20.775698
2499.667642	-2.985300	2.806900	-8.378400	28.822184	0.000202	20.784411
2500.670406	-2.988200	2.803100	-8.374300	28.855773	0.000203	20.797860
2501.671150	-2.995700	2.800100	-8.386900	28.854661	0.000202	20.766867
2502.672314	-3.008300	2.797600	-8.414900	28.913934	0.000202	20.784855
2503.671282	-2.979000	2.797000	-8.330900	28.920493	0.000201	20.782928
2504.670521	-2.987200	2.793300	-8.343000	28.914258	0.000202	20.774276
2505.671872	-3.014900	2.790700	-8.411600	28.933029	0.000204	20.779436
2506.676726	-3.024200	2.787600	-8.428500	28.899912	0.000201	20.793014
2507.674906	-3.019000	2.787100	-8.413100	28.871862	0.000201	20.780403
2508.673730	-2.988200	2.783000	-8.314800	28.873476	0.000203	20.756898
2509.673272	-3.008000	2.779600	-8.360200	28.881697	0.000202	20.779405
2510.672578	-2.972800	2.778000	-8.256900	28.903941	0.000202	20.775261
2511.675764	-3.008500	2.775600	-8.349100	28.902229	0.000201	20.769270
2512.673382	-3.001400	2.772000	-8.319100	28.892865	0.000199	20.761258
2513.679925	-2.991600	2.770000	-8.286000	28.903843	0.000201	20.756196
2514.674525	-3.006500	2.765600	-8.313900	28.963162	0.000202	20.760482
2515.674083	-3.034600	2.762900	-8.383200	28.970069	0.000201	20.760803
2516.676473	-2.989300	2.759600	-8.248100	28.980105	0.000200	20.789406
2517.675294	-2.988300	2.757200	-8.238100	28.995360	0.000203	20.787232
2518.677643	-2.996900	2.754600	-8.254800	29.036523	0.000202	20.762324
2519.678366	-2.996200	2.750900	-8.240400	29.044352	0.000202	20.766419
2520.679327	-2.988700	2.749000	-8.214000	29.043906	0.000201	20.764072
2521.677042	-3.001600	2.744000	-8.235800	29.058048	0.000200	20.774055
2522.679450	-3.050200	2.740700	-8.359000	29.084718	0.000203	20.745925
2523.679150	-2.993300	2.738500	-8.195900	29.095199	0.000200	20.776401
2524.679832	-3.002300	2.735200	-8.210600	29.107129	0.000200	20.768032
2525.677862	-3.009300	2.731900	-8.219800	29.166546	0.000202	20.757256
2526.678892	-3.005300	2.729300	-8.201100	29.201066	0.000202	20.758851
2527.684168	-2.974800	2.726800	-8.110900	29.233526	0.000199	20.760741
2528.680052	-2.988000	2.722300	-8.133900	29.273225	0.000201	20.760920
2529.682461	-2.979300	2.720500	-8.104100	29.301741	0.000202	20.737975
2530.678631	-3.014500	2.715400	-8.184100	29.299762	0.000201	20.757792
2531.680994	-2.995600	2.712300	-8.124600	29.313497	0.000200	20.773532
2532.680274	-2.986700	2.709600	-8.092000	29.305725	0.000201	20.763328
2533.684208	-2.994500	2.706200	-8.102000	29.307503	0.000200	20.760379
2534.680799	-2.986700	2.702500	-8.070200	29.337064	0.000202	20.754134
2535.681125	-3.003700	2.697900	-8.103100	29.339318	0.000200	20.757355
2536.681747	-2.982300	2.694000	-8.033200	29.350957	0.000201	20.760551
2537.681418	-2.998500	2.690700	-8.067100	29.384879	0.000199	20.744004
2538.684047	-2.970900	2.688900	-7.986500	29.371132	0.000202	20.767134
2539.680700	-3.003500	2.682300	-8.054900	29.384378	0.000201	20.761044
2540.683191	-3.016100	2.680000	-8.081700	29.389022	0.000201	20.759086
2541.681116	-3.012900	2.675500	-8.060600	29.413386	0.000202	20.757565
2542.682210	-3.010000	2.671600	-8.039700	29.388807	0.000201	20.738007
2543.683010	-2.966000	2.668800	-7.914400	29.403801	0.000201	20.761654
2544.682193	-2.998000	2.664400	-7.986400	29.401943	0.000201	20.747928
2545.686002	-2.997600	2.659700	-7.971300	29.325015	0.000202	20.748630
2546.681138	-2.973400	2.656100	-7.896600	29.300967	0.000201	20.741462
2547.681815	-2.995700	2.652700	-7.945700	29.304388	0.000202	20.742065
2548.683259	-2.997800	2.648000	-7.937200	29.301731	0.000201	20.751241
2549.685005	-3.024300	2.643400	-7.993100	29.264018	0.000200	20.736468
2550.682763	-3.010800	2.638800	-7.943200	29.270361	0.000200	20.753292
2551.684664	-2.997700	2.635300	-7.898800	29.287243	0.000201	20.751340
2552.682415	-2.967100	2.631400	-7.806300	29.285184	0.000200	20.742626
2553.686390	-3.001500	2.624200	-7.874600	29.256765	0.000202	20.743857
2554.685794	-2.996000	2.620400	-7.850400	29.268283	0.000201	20.747879
2555.687162	-3.013600	2.615800	-7.882200	29.301284	0.000199	20.759327
2556.685757	-2.989500	2.611300	-7.804900	29.319560	0.000198	20.730802
2557.683071	-2.995900	2.606500	-7.808400	29.309386	0.000200	20.749948
2558.684524	-3.000400	2.600200	-7.800900	29.271870	0.000199	20.753390
2559.686179	-3.013900	2.594600	-7.817000	29.238593	0.000200	20.748778
2560.686781	-3.004300	2.589400	-7.778400	29.203964	0.000201	20.726208
2561.684708	-2.970400	2.585500	-7.679000	29.169970	0.000201	20.746481
2562.682900	-3.000800	2.580700	-7.743300	29.165142	0.000201	20.734977
2563.682587	-2.997900	2.574700	-7.717700	29.195305	0.000200	20.731233
2564.681979	-2.978400	2.569600	-7.651200	29.204190	0.000198	20.736394
2565.689802	-3.028900	2.561000	-7.756200	29.279398	0.000200	20.736320
2566.683385	-2.998500	2.556700	-7.665600	29.333307	0.000197	20.749874
2567.688058	-3.010100	2.550800	-7.677900	29.376931	0.000199	20.712284
2568.686625	-3.003900	2.545600	-7.645800	29.339148	0.000200	20.731578
2569.686895	-2.983000	2.540700	-7.577900	29.330405	0.000199	20.731775
2570.687718	-3.018200	2.533800	-7.646800	29.324710	0.000200	20.721294
2571.686986	-3.002900	2.527600	-7.588200	29.344451	0.000199	20.730285
2572.686493	-3.000400	2.522800	-7.567400	29.280907	0.000200	20.730254
2573.687309	-3.001700	2.515400	-7.550300	29.248003	0.000199	20.719853
2574.689291	-2.973100	2.509000	-7.458800	29.238446	0.000199	20.729663
2575.687907	-2.957200	2.503800	-7.401800	29.229476	0.000200	20.730106
2576.686477	-3.013000	2.496600	-7.521300	29.165020	0.000200	20.718258
