LabVIEW Measurement	
Writer_Version	2
Reader_Version	2
Separator	Tab
Decimal_Separator	.
Multi_Headings	No
X_Columns	One
Time_Pref	Absolute
Operator	admin
Description	Clolumns are: time, Current, Voltage, Power, Battery Temp, and Chamber Temp
Date	2024/08/16
Time	13:06:06.104549407958984375
***End_of_Header***	
	
Channels	6						
Samples	1	1	1	1	1	1	
Date	2024/09/18	2024/09/18	2024/09/18	2024/09/18	2024/09/18	2024/09/18	
Time	17:47:27.6638879776000976562	17:47:27.6698808670043945312	17:47:27.6758928298950195312	17:47:27.6480488777160644531	17:47:27.6480488777160644531	17:47:27.6480488777160644531	
X_Dimension	Time	Time	Time	Time	Time	Time	
X0	0.0000000000000000E+0	0.0000000000000000E+0	0.0000000000000000E+0	0.0000000000000000E+0	0.0000000000000000E+0	0.0000000000000000E+0	
Delta_X	1.000000	1.000000	1.000000	1.000000	1.000000	1.000000	
***End_of_Header***							
X_Value	Untitled	Untitled 1	Untitled 2	Untitled 3	Untitled 4	Untitled 5	Comment
0.000000	0.025672	4.094900	0.105160	20.937839	0.001001	20.765729
1.006214	-3.003300	3.908200	-11.734000	20.937257	0.000999	20.779372
2.000687	-3.013600	3.899900	-11.751000	20.945061	0.000999	20.776746
3.001218	-2.982200	3.895200	-11.615000	20.959131	0.000998	20.791766
4.000637	-2.995800	3.891500	-11.657000	20.962738	0.000996	20.771191
5.001886	-2.988600	3.887800	-11.618000	20.934737	0.000994	20.781120
6.001770	-3.005700	3.884000	-11.673000	20.938798	0.000992	20.776646
7.001146	-2.990900	3.881200	-11.607000	20.956059	0.000993	20.765934
8.000748	-2.999300	3.878500	-11.632000	20.947991	0.000993	20.771615
9.003419	-2.982300	3.877400	-11.562000	20.975710	0.000990	20.773734
10.003212	-2.977600	3.876100	-11.540000	20.973381	0.000989	20.768085
11.003050	-3.011200	3.873800	-11.664000	20.965119	0.000991	20.797281
12.007795	-3.012800	3.870700	-11.660000	20.961570	0.000989	20.782825
13.006274	-3.008800	3.869500	-11.642000	20.971620	0.000988	20.782920
14.005674	-3.012600	3.868100	-11.650000	20.972787	0.000988	20.802105
15.005993	-2.999500	3.866600	-11.596000	20.972131	0.000986	20.792440
16.004839	-2.979700	3.868400	-11.524000	20.987174	0.000986	20.774294
17.005973	-2.999000	3.865000	-11.591000	20.997974	0.000985	20.779407
18.004189	-3.010000	3.865500	-11.634000	20.994726	0.000984	20.791331
19.004025	-3.011700	3.862900	-11.632000	21.030796	0.000983	20.802277
20.005224	-3.004700	3.863200	-11.606000	21.001750	0.000984	20.797408
21.004643	-2.996600	3.861100	-11.569000	21.030643	0.000982	20.791693
22.004584	-3.000400	3.859800	-11.579000	21.018462	0.000982	20.793260
23.003805	-3.011800	3.858800	-11.621000	21.037371	0.000981	20.774240
24.005358	-2.995900	3.858800	-11.560000	21.024868	0.000982	20.792081
25.004958	-2.986400	3.858300	-11.521000	21.047792	0.000983	20.815957
26.005824	-2.974800	3.858200	-11.477000	21.055401	0.000982	20.815982
27.005669	-3.023900	3.855200	-11.656000	21.048756	0.000981	20.800327
28.006359	-2.997900	3.856000	-11.559000	21.070237	0.000981	20.805217
29.005391	-2.994800	3.856100	-11.547000	21.058810	0.000983	20.771502
30.006075	-3.000300	3.853800	-11.561000	21.080212	0.000980	20.784375
31.014917	-3.006000	3.852900	-11.581000	21.084029	0.000978	20.807633
32.006611	-2.987900	3.852900	-11.510000	21.098019	0.000980	20.812618
33.007483	-2.977400	3.853300	-11.471000	21.124214	0.000979	20.781921
34.010748	-3.009800	3.852100	-11.593000	21.113534	0.000980	20.771713
35.007818	-2.997700	3.851400	-11.544000	21.112211	0.000980	20.796942
36.008619	-2.974100	3.851800	-11.455000	21.136456	0.000977	20.814081
37.010326	-2.994400	3.851000	-11.529000	21.143562	0.000980	20.789896
38.008175	-2.994800	3.849000	-11.525000	21.130859	0.000978	20.809431
39.008078	-2.968700	3.849300	-11.426000	21.155054	0.000978	20.819883
40.011272	-2.985500	3.850300	-11.494000	21.163009	0.000980	20.805081
41.007099	-2.998100	3.848500	-11.536000	21.176055	0.000978	20.816234
42.010726	-2.998600	3.846700	-11.534000	21.196733	0.000978	20.809893
43.014079	-3.003300	3.847800	-11.554000	21.188646	0.000979	20.793268
44.010402	-2.995500	3.846800	-11.522000	21.195431	0.000978	20.814279
45.012216	-3.015700	3.846600	-11.599000	21.199944	0.000977	20.809311
46.013407	-3.014600	3.844000	-11.587000	21.202631	0.000978	20.814844
47.012054	-3.014200	3.844500	-11.585000	21.217972	0.000979	20.812647
48.010607	-3.007700	3.844300	-11.562000	21.221887	0.000977	20.800443
49.014540	-3.020300	3.844300	-11.610000	21.238872	0.000979	20.808425
50.012112	-3.016000	3.843200	-11.590000	21.236251	0.000977	20.804854
51.016821	-3.027000	3.842200	-11.628000	21.232130	0.000977	20.805473
52.016976	-2.982600	3.844000	-11.464000	21.266004	0.000977	20.824661
53.014120	-3.008700	3.843200	-11.561000	21.266824	0.000976	20.825956
54.015441	-2.986400	3.844900	-11.481000	21.272335	0.000979	20.815348
55.017981	-2.991700	3.842000	-11.493000	21.260807	0.000977	20.789591
56.014722	-2.993400	3.842500	-11.501000	21.284155	0.000976	20.813896
57.016109	-2.966700	3.842100	-11.398000	21.292632	0.000975	20.810050
58.018645	-2.988500	3.841500	-11.480000	21.294256	0.000977	20.808829
59.016582	-2.977100	3.841100	-11.435000	21.322586	0.000976	20.829585
60.016161	-2.991200	3.840800	-11.487000	21.317595	0.000977	20.808945
61.018872	-2.976600	3.840200	-11.430000	21.341621	0.000976	20.813068
62.017129	-2.985600	3.840100	-11.463000	21.330243	0.000976	20.830133
63.018255	-2.984000	3.838800	-11.453000	21.360822	0.000976	20.820898
64.022812	-2.999100	3.839400	-11.514000	21.349996	0.000976	20.820498
65.019753	-2.997600	3.838500	-11.505000	21.360294	0.000978	20.816577
66.021459	-2.992800	3.839400	-11.490000	21.371594	0.000978	20.810339
67.024565	-2.992900	3.838500	-11.487000	21.405942	0.000976	20.815781
68.020962	-2.994000	3.838100	-11.490000	21.405938	0.000976	20.826208
69.021541	-2.984800	3.838600	-11.455000	21.414691	0.000975	20.831646
70.026138	-2.990300	3.836100	-11.469000	21.412074	0.000975	20.807692
71.024445	-2.988700	3.837500	-11.468000	21.388952	0.000976	20.816799
72.021599	-3.002000	3.836200	-11.514000	21.413768	0.000975	20.828352
73.026717	-2.988000	3.837800	-11.467000	21.438036	0.000977	20.817546
74.027020	-3.001200	3.835000	-11.508000	21.414592	0.000976	20.821590
75.024857	-2.979800	3.837600	-11.434000	21.438361	0.000978	20.838259
76.026314	-2.982000	3.836000	-11.437000	21.432975	0.000976	20.842353
77.025879	-2.986800	3.835200	-11.453000	21.461730	0.000976	20.842675
78.023066	-2.984900	3.834500	-11.445000	21.454799	0.000977	20.827680
79.031455	-3.003100	3.834100	-11.513000	21.485354	0.000975	20.832174
80.028407	-2.972900	3.833600	-11.395000	21.485972	0.000975	20.825680
81.027979	-2.995300	3.833800	-11.483000	21.488844	0.000976	20.829502
82.030936	-3.013800	3.832700	-11.549000	21.518677	0.000976	20.830904
83.029100	-2.999000	3.832300	-11.491000	21.513435	0.000978	20.838461
84.027333	-3.003500	3.832400	-11.508000	21.514536	0.000977	20.842881
85.031303	-2.983100	3.832900	-11.433000	21.548179	0.000976	20.825812
86.030772	-2.986800	3.832900	-11.447000	21.538706	0.000976	20.835299
87.029114	-3.006800	3.831000	-11.518000	21.557532	0.000978	20.826163
88.031385	-2.980500	3.833000	-11.423000	21.540503	0.000975	20.840416
89.031106	-2.992900	3.832000	-11.468000	21.537787	0.000976	20.818259
90.030047	-3.003600	3.830500	-11.505000	21.569234	0.000978	20.825070
91.032204	-2.990400	3.831400	-11.457000	21.558562	0.000977	20.844736
92.033736	-2.998000	3.832000	-11.487000	21.593325	0.000977	20.818832
93.030993	-2.985000	3.830300	-11.433000	21.600082	0.000976	20.830809
94.034263	-3.002100	3.830300	-11.497000	21.598595	0.000976	20.834062
95.034453	-2.992700	3.829800	-11.461000	21.637543	0.000976	20.841743
96.032200	-2.992400	3.828600	-11.455000	21.616497	0.000978	20.845812
97.037627	-3.002200	3.827800	-11.490000	21.629171	0.000979	20.827675
98.035986	-2.994200	3.828200	-11.462000	21.648246	0.000980	20.842023
99.035522	-3.004000	3.827900	-11.498000	21.641263	0.000977	20.821285
100.037573	-3.003400	3.826900	-11.493000	21.668744	0.000976	20.824604
101.034676	-2.983200	3.829000	-11.422000	21.658373	0.000979	20.842201
102.035009	-3.017000	3.827800	-11.548000	21.670449	0.000978	20.845750
103.037522	-3.006800	3.826900	-11.506000	21.664240	0.000979	20.830054
104.036740	-2.996500	3.827000	-11.467000	21.695589	0.000979	20.841038
105.036278	-3.007200	3.826700	-11.506000	21.695416	0.000980	20.838020
106.039512	-2.979500	3.827300	-11.402000	21.721247	0.000980	20.841586
107.037314	-2.980400	3.826500	-11.402000	21.746637	0.000983	20.839496
108.037202	-2.993900	3.827400	-11.458000	21.734595	0.000982	20.825074
109.038133	-2.994500	3.826300	-11.457000	21.742653	0.000983	20.837879
110.041280	-2.971400	3.826100	-11.367000	21.746340	0.000980	20.835880
111.041296	-3.005100	3.825500	-11.494000	21.747543	0.000982	20.843247
112.040563	-2.983600	3.825400	-11.412000	21.756520	0.000983	20.846542
113.038400	-2.961400	3.825900	-11.329000	21.750142	0.000982	20.841108
114.037623	-3.022600	3.823000	-11.554000	21.749071	0.000984	20.840984
115.041283	-2.985300	3.823500	-11.413000	21.767049	0.000983	20.838588
116.043118	-2.994000	3.825000	-11.451000	21.774831	0.000985	20.862497
117.038274	-2.996900	3.824100	-11.460000	21.793410	0.000985	20.858333
118.039946	-3.004100	3.822600	-11.482000	21.777406	0.000986	20.842790
119.040643	-3.001900	3.822300	-11.472000	21.793814	0.000986	20.860159
120.038429	-3.008700	3.822100	-11.499000	21.813740	0.000986	20.842171
121.043813	-3.013700	3.821000	-11.513000	21.810218	0.000987	20.841491
122.042554	-2.989500	3.822500	-11.427000	21.824385	0.000987	20.838601
123.040564	-2.989100	3.823800	-11.429000	21.853805	0.000987	20.832961
124.042853	-3.021200	3.819700	-11.539000	21.846304	0.000988	20.853427
125.045276	-3.032100	3.821800	-11.587000	21.863580	0.000989	20.825675
126.043975	-3.002900	3.820200	-11.471000	21.862011	0.000989	20.834061
127.043216	-3.017800	3.821400	-11.530000	21.863782	0.000990	20.854800
128.046432	-2.990000	3.821500	-11.425000	21.870533	0.000989	20.849704
129.043686	-3.002300	3.820400	-11.468000	21.876889	0.000990	20.836626
130.046498	-3.012200	3.820300	-11.506000	21.899656	0.000989	20.822431
131.046389	-2.972400	3.821900	-11.360000	21.906634	0.000993	20.854544
132.043515	-3.016200	3.819400	-11.520000	21.929944	0.000993	20.847531
133.048580	-3.003400	3.819800	-11.472000	21.930071	0.000993	20.855245
134.045658	-3.017400	3.819900	-11.525000	21.925128	0.000992	20.838444
135.051661	-2.998600	3.820400	-11.455000	21.933379	0.000993	20.860452
136.044602	-3.027700	3.818400	-11.558000	21.948714	0.000992	20.845931
137.044110	-3.014700	3.818900	-11.511000	21.951502	0.000994	20.860102
138.042368	-3.017300	3.817600	-11.517000	21.949702	0.000994	20.857826
139.048779	-3.010600	3.818100	-11.493000	21.980689	0.000995	20.866558
140.043893	-3.018600	3.816800	-11.520000	21.999561	0.000994	20.879285
141.044785	-2.999900	3.819100	-11.455000	21.979437	0.000994	20.840650
142.048903	-2.998800	3.817100	-11.445000	22.006687	0.000995	20.872668
143.049475	-3.002100	3.817500	-11.459000	22.030143	0.000993	20.848735
144.047024	-3.011200	3.815900	-11.489000	22.031185	0.000997	20.868269
145.046471	-3.002800	3.816500	-11.459000	22.029986	0.000997	20.856639
146.046606	-3.014500	3.816000	-11.501000	22.025398	0.000997	20.876700
147.049742	-2.992500	3.817100	-11.422000	22.029406	0.000996	20.855583
148.049896	-3.006400	3.815400	-11.470000	22.056028	0.000997	20.864691
149.046248	-3.006200	3.815800	-11.469000	22.046980	0.000998	20.866064
150.048400	-2.999300	3.815700	-11.442000	22.069760	0.000999	20.851885
151.059481	-2.991700	3.815200	-11.412000	22.053454	0.000999	20.862114
152.048735	-3.000600	3.815000	-11.446000	22.065670	0.000999	20.843524
153.049814	-3.007100	3.814300	-11.469000	22.080748	0.000999	20.885169
154.048664	-3.013800	3.814800	-11.496000	22.072593	0.001001	20.877480
155.051260	-2.988800	3.814400	-11.399000	22.082737	0.001001	20.870092
156.048141	-3.014600	3.813900	-11.496000	22.104824	0.001001	20.864229
157.049094	-3.005400	3.813600	-11.459000	22.093647	0.001001	20.895711
158.049330	-3.016300	3.813400	-11.501000	22.091279	0.001003	20.877220
159.050808	-3.024100	3.813200	-11.531000	22.122587	0.001002	20.891967
160.049819	-3.005500	3.812900	-11.458000	22.119642	0.001003	20.892813
161.049886	-3.020800	3.811800	-11.513000	22.134448	0.001003	20.883454
162.051341	-2.993400	3.814400	-11.415000	22.120808	0.001005	20.889238
163.051578	-3.007100	3.811200	-11.460000	22.142067	0.001006	20.886814
164.053071	-3.003700	3.812400	-11.450000	22.142611	0.001005	20.882143
165.049317	-3.003000	3.812200	-11.447000	22.169700	0.001007	20.865644
166.050784	-3.019700	3.811300	-11.508000	22.186819	0.001007	20.874723
167.056598	-2.967800	3.812200	-11.312000	22.177294	0.001007	20.861394
168.054432	-3.005400	3.811200	-11.453000	22.195735	0.001008	20.893131
169.052085	-3.015900	3.809600	-11.488000	22.193437	0.001008	20.892253
170.054562	-3.016600	3.810800	-11.494000	22.212751	0.001010	20.883142
171.054163	-3.014600	3.810900	-11.487000	22.201505	0.001008	20.895114
172.055408	-2.999600	3.810100	-11.427000	22.209527	0.001009	20.875647
173.054686	-3.013100	3.809100	-11.476000	22.213757	0.001009	20.897898
174.054662	-3.025400	3.810100	-11.525000	22.217269	0.001010	20.911845
175.056527	-3.019800	3.809000	-11.501000	22.234812	0.001009	20.894798
176.056546	-2.967500	3.811700	-11.309000	22.247368	0.001010	20.910687
177.055839	-3.016900	3.809100	-11.491000	22.256909	0.001012	20.900801
178.055638	-2.978400	3.808300	-11.341000	22.259824	0.001012	20.907513
179.060126	-2.995900	3.810000	-11.413000	22.286883	0.001011	20.910424
180.056336	-3.012800	3.807600	-11.470000	22.302159	0.001012	20.889212
181.063469	-2.977700	3.809100	-11.341000	22.280772	0.001015	20.899090
182.060238	-2.992100	3.808000	-11.392000	22.284705	0.001013	20.889279
183.059152	-2.998200	3.808400	-11.417000	22.309872	0.001013	20.921588
184.057462	-3.002200	3.808000	-11.430000	22.311145	0.001015	20.900105
185.059216	-2.978000	3.808700	-11.341000	22.329336	0.001014	20.892243
186.058769	-3.013600	3.806800	-11.471000	22.337736	0.001015	20.913928
187.058846	-2.994600	3.806900	-11.398000	22.311289	0.001013	20.912102
188.060333	-2.985000	3.807300	-11.363000	22.361210	0.001015	20.901400
189.058361	-3.024300	3.805000	-11.506000	22.350612	0.001013	20.917338
190.059335	-2.995200	3.806800	-11.401000	22.375457	0.001015	20.892907
191.059663	-2.998700	3.807100	-11.415000	22.388241	0.001017	20.919932
192.057952	-3.011500	3.805100	-11.458000	22.400700	0.001017	20.904909
193.062129	-3.005400	3.805300	-11.435000	22.408149	0.001016	20.903833
194.062306	-2.997600	3.805200	-11.404000	22.417470	0.001017	20.925967
195.061133	-3.007500	3.805900	-11.445000	22.433890	0.001019	20.895472
196.059431	-3.006700	3.805700	-11.442000	22.443005	0.001017	20.896066
197.062398	-3.001700	3.804400	-11.419000	22.460923	0.001020	20.896940
198.061562	-3.027900	3.802900	-11.513000	22.468272	0.001019	20.896239
199.060849	-3.023400	3.804100	-11.500000	22.448115	0.001021	20.909716
200.064070	-3.009100	3.802600	-11.441000	22.438271	0.001019	20.889428
201.061917	-2.996600	3.803600	-11.396000	22.486334	0.001020	20.886353
202.063253	-3.000200	3.803000	-11.408000	22.475695	0.001023	20.877122
203.069877	-2.968600	3.804900	-11.294000	22.483967	0.001022	20.904370
204.066567	-2.990300	3.803000	-11.370000	22.478956	0.001024	20.889870
205.066542	-2.997600	3.801800	-11.395000	22.494206	0.001024	20.884754
206.064987	-2.978100	3.803300	-11.325000	22.500385	0.001022	20.881460
207.068309	-2.985000	3.802600	-11.350000	22.524651	0.001025	20.891062
208.065797	-3.005300	3.801900	-11.425000	22.539331	0.001024	20.873523
209.068459	-3.025100	3.799700	-11.494000	22.547623	0.001024	20.889887
210.066989	-3.027800	3.799700	-11.504000	22.568750	0.001025	20.901563
211.067502	-3.011300	3.801000	-11.445000	22.556766	0.001025	20.868700
212.068816	-3.014100	3.799800	-11.452000	22.551703	0.001025	20.881172
213.067597	-3.005900	3.801400	-11.423000	22.591244	0.001026	20.893272
214.067757	-2.994900	3.800700	-11.382000	22.606590	0.001027	20.890152
215.070537	-3.022000	3.800100	-11.483000	22.596945	0.001027	20.874803
216.070150	-3.000100	3.799900	-11.399000	22.592360	0.001027	20.880166
217.070559	-3.010100	3.799100	-11.434000	22.593582	0.001028	20.866693
218.068226	-2.992200	3.799400	-11.368000	22.550518	0.001029	20.866710
219.069530	-2.996600	3.798500	-11.382000	22.545805	0.001029	20.879058
220.068578	-3.016700	3.798000	-11.456000	22.544211	0.001029	20.884100
221.069053	-2.992900	3.798500	-11.367000	22.561498	0.001030	20.873913
222.069508	-3.020000	3.796400	-11.464000	22.566208	0.001031	20.864880
223.069718	-2.995500	3.797800	-11.375000	22.574453	0.001030	20.884517
224.068778	-3.003900	3.797900	-11.407000	22.601307	0.001032	20.868740
225.073889	-2.976700	3.797900	-11.304000	22.603773	0.001032	20.885433
226.070640	-2.987200	3.796700	-11.340000	22.594375	0.001033	20.875073
227.075152	-2.961100	3.798400	-11.246000	22.633313	0.001035	20.866184
228.070527	-2.995300	3.796900	-11.371000	22.630572	0.001033	20.856801
229.071031	-3.009100	3.796300	-11.423000	22.648956	0.001036	20.867154
230.074796	-3.021300	3.796600	-11.468000	22.638937	0.001035	20.860438
231.073178	-3.006400	3.796300	-11.411000	22.637958	0.001035	20.869414
232.074322	-2.991100	3.795600	-11.352000	22.668007	0.001036	20.863951
233.072051	-3.000100	3.796500	-11.389000	22.653777	0.001037	20.880042
234.073049	-3.011100	3.795100	-11.427000	22.659582	0.001036	20.876373
235.073937	-3.016200	3.794500	-11.443000	22.688878	0.001037	20.866363
236.070330	-3.012700	3.793500	-11.427000	22.684741	0.001038	20.872177
237.071397	-2.995200	3.796200	-11.370000	22.669717	0.001037	20.892687
238.074421	-3.026800	3.794400	-11.484000	22.694579	0.001038	20.864488
239.072274	-3.006500	3.793700	-11.405000	22.696123	0.001039	20.886421
240.074915	-2.990200	3.794600	-11.345000	22.718120	0.001038	20.889489
241.075841	-3.001200	3.793600	-11.383000	22.710666	0.001040	20.859739
242.073552	-3.007600	3.793500	-11.408000	22.721907	0.001040	20.852033
243.073915	-3.003300	3.793300	-11.392000	22.733959	0.001041	20.862209
244.077211	-2.988300	3.793300	-11.334000	22.730395	0.001042	20.864802
245.074733	-2.996600	3.792600	-11.364000	22.753292	0.001039	20.847436
246.074147	-3.003600	3.792600	-11.389000	22.769082	0.001042	20.873683
247.077162	-2.997700	3.793900	-11.371000	22.793497	0.001042	20.860209
248.073755	-2.989200	3.792800	-11.337000	22.785998	0.001042	20.852223
249.076792	-2.987600	3.792300	-11.329000	22.805203	0.001044	20.846332
250.075627	-2.992100	3.791900	-11.345000	22.795934	0.001042	20.858383
251.073394	-2.974600	3.792100	-11.279000	22.804355	0.001043	20.858284
252.074578	-3.003300	3.790600	-11.383000	22.808714	0.001045	20.859806
253.075767	-2.990400	3.791600	-11.337000	22.803351	0.001045	20.855857
254.074027	-3.006700	3.790300	-11.395000	22.816414	0.001045	20.849502
255.077804	-2.977000	3.790800	-11.283000	22.826103	0.001044	20.847355
256.074428	-2.994700	3.790600	-11.352000	22.774161	0.001046	20.858383
257.083464	-2.997400	3.789800	-11.359000	22.786665	0.001047	20.826814
258.077490	-3.020600	3.788000	-11.441000	22.819748	0.001047	20.858532
259.075420	-3.012100	3.789100	-11.412000	22.809484	0.001047	20.840189
260.074106	-3.005500	3.788800	-11.386000	22.841920	0.001048	20.851346
261.076149	-2.999400	3.788800	-11.363000	22.794868	0.001047	20.854470
262.075648	-3.005600	3.788400	-11.385000	22.834873	0.001050	20.839071
263.074220	-2.975300	3.788300	-11.270000	22.842150	0.001048	20.836404
264.079465	-3.011100	3.787800	-11.404000	22.848228	0.001049	20.858614
265.081424	-2.979400	3.789700	-11.289000	22.840030	0.001050	20.855617
266.074956	-2.988800	3.787200	-11.318000	22.873511	0.001051	20.838898
267.079515	-2.998400	3.787600	-11.355000	22.877721	0.001053	20.861133
268.079770	-2.973200	3.787300	-11.259000	22.883651	0.001052	20.829143
269.075865	-2.994500	3.784700	-11.332000	22.896208	0.001052	20.855472
270.075355	-2.996200	3.786600	-11.344000	22.887145	0.001051	20.842600
271.076393	-2.998800	3.785500	-11.351000	22.885178	0.001053	20.832569
272.077867	-2.989400	3.785600	-11.315000	22.894965	0.001052	20.838106
273.080421	-3.012900	3.785000	-11.403000	22.892326	0.001054	20.853954
274.079480	-3.004100	3.785000	-11.369000	22.902813	0.001054	20.831744
275.077882	-2.983000	3.784900	-11.290000	22.910360	0.001055	20.845469
276.077975	-2.990000	3.784700	-11.315000	22.936719	0.001055	20.851488
277.078201	-2.999700	3.784300	-11.350000	22.924562	0.001056	20.845473
278.078239	-3.032300	3.782300	-11.468000	22.927550	0.001056	20.848466
279.080960	-3.002500	3.784500	-11.361000	22.930316	0.001057	20.848392
280.081111	-3.005300	3.783000	-11.367000	22.937842	0.001057	20.829381
281.081305	-3.007300	3.783400	-11.377000	22.932188	0.001058	20.839837
282.081773	-3.005100	3.782000	-11.365000	22.940809	0.001059	20.838991
283.080123	-3.015200	3.782600	-11.404000	22.961629	0.001058	20.835194
284.081683	-2.983100	3.782300	-11.282000	22.948134	0.001059	20.849175
285.083064	-2.996400	3.783200	-11.334000	22.969904	0.001060	20.831632
286.081049	-3.000200	3.782200	-11.346000	22.994640	0.001060	20.824173
287.081824	-3.006400	3.780700	-11.365000	22.985422	0.001062	20.822050
288.082554	-3.004000	3.780300	-11.354000	23.017162	0.001063	20.823979
289.081658	-3.005500	3.780500	-11.361000	22.986546	0.001060	20.817486
290.081387	-3.012900	3.779600	-11.384000	22.993426	0.001060	20.843344
291.083120	-3.020400	3.779900	-11.414000	22.999306	0.001062	20.833589
292.079596	-3.005800	3.780600	-11.363000	23.017964	0.001061	20.836162
293.079719	-2.988100	3.780500	-11.296000	22.994853	0.001062	20.828654
294.081770	-3.001900	3.779900	-11.345000	23.011392	0.001063	20.817249
295.082325	-3.013400	3.780300	-11.389000	23.018943	0.001065	20.828134
296.082665	-2.999800	3.779000	-11.335000	22.996227	0.001063	20.847573
297.084490	-2.992400	3.778500	-11.306000	22.995832	0.001067	20.826789
298.081923	-3.005100	3.778200	-11.351000	22.996955	0.001068	20.815587
299.081064	-2.982400	3.778600	-11.269000	23.004255	0.001068	20.831436
300.083393	-3.007400	3.778000	-11.361000	23.013769	0.001067	20.823899
301.082213	-2.999200	3.778200	-11.329000	22.999399	0.001068	20.808079
302.084326	-3.002300	3.778100	-11.340000	23.034846	0.001068	20.830318
303.086447	-3.016200	3.775700	-11.386000	23.062568	0.001068	20.810206
304.085001	-3.006800	3.777100	-11.355000	23.072259	0.001068	20.811855
305.085853	-3.003300	3.776600	-11.341000	23.080776	0.001071	20.814226
306.086308	-2.993400	3.776000	-11.302000	23.072184	0.001071	20.815100
307.083683	-3.003800	3.776200	-11.342000	23.097416	0.001071	20.796286
308.083202	-3.013300	3.776000	-11.377000	23.089075	0.001071	20.805472
309.085496	-2.997800	3.775500	-11.317000	23.104588	0.001072	20.803947
310.083981	-2.994900	3.775300	-11.305000	23.119561	0.001072	20.815157
311.085272	-2.998100	3.774800	-11.314000	23.105810	0.001072	20.807068
312.085208	-3.004700	3.773500	-11.336000	23.115278	0.001073	20.824615
313.084260	-3.008700	3.775700	-11.357000	23.126581	0.001076	20.806070
314.084754	-2.992800	3.774100	-11.295000	23.115970	0.001075	20.822463
315.085814	-2.979300	3.776100	-11.248000	23.098144	0.001075	20.805076
316.084150	-3.008300	3.773100	-11.349000	23.080282	0.001074	20.818946
317.083842	-2.980400	3.773900	-11.246000	23.065366	0.001077	20.805423
318.092988	-2.985600	3.772900	-11.264000	23.082969	0.001076	20.818320
319.083592	-2.966800	3.775000	-11.199000	23.098931	0.001077	20.811080
320.084768	-3.007800	3.771800	-11.344000	23.096343	0.001078	20.814176
321.086410	-2.981800	3.773500	-11.251000	23.085579	0.001077	20.820934
322.083653	-2.989400	3.772900	-11.278000	23.080525	0.001078	20.796431
323.085134	-2.989500	3.773600	-11.279000	23.100195	0.001078	20.798122
324.086004	-2.986800	3.771800	-11.264000	23.104630	0.001078	20.815368
325.084785	-2.979700	3.771200	-11.236000	23.113370	0.001080	20.815117
326.084595	-2.999200	3.771100	-11.309000	23.084452	0.001078	20.786614
327.083766	-3.015100	3.770600	-11.367000	23.133964	0.001079	20.800192
328.084392	-2.993800	3.769600	-11.283000	23.143353	0.001082	20.809126
329.084136	-2.994200	3.769900	-11.286000	23.178590	0.001080	20.790383
330.087101	-3.001600	3.768600	-11.310000	23.184992	0.001079	20.795850
331.084395	-2.993700	3.768900	-11.282000	23.195369	0.001081	20.783489
332.083970	-3.010700	3.768800	-11.345000	23.234418	0.001082	20.789905
333.089494	-2.984100	3.769700	-11.247000	23.227346	0.001083	20.800361
334.088364	-3.012500	3.768300	-11.351000	23.232674	0.001081	20.810916
335.086942	-2.994100	3.767800	-11.279000	23.227914	0.001083	20.794766
336.090291	-3.005300	3.767200	-11.320000	23.231551	0.001083	20.792247
337.085706	-2.991500	3.767300	-11.269000	23.247012	0.001083	20.796836
338.086299	-2.999800	3.768200	-11.302000	23.237076	0.001083	20.786879
339.091430	-2.971100	3.768200	-11.195000	23.258915	0.001083	20.797385
340.088474	-3.000100	3.767800	-11.302000	23.278334	0.001085	20.814001
341.089119	-2.992700	3.766700	-11.270000	23.273705	0.001083	20.794663
342.088699	-2.986400	3.766200	-11.246000	23.283110	0.001085	20.802667
343.088313	-3.000800	3.766300	-11.299000	23.280547	0.001086	20.785873
344.089253	-3.008200	3.766000	-11.328000	23.261668	0.001084	20.783074
345.092667	-2.997000	3.765100	-11.284000	23.248449	0.001085	20.789267
346.091807	-3.013300	3.763900	-11.341000	23.280939	0.001085	20.798594
347.089182	-2.992700	3.766100	-11.270000	23.274093	0.001087	20.768499
348.098452	-3.000900	3.764700	-11.297000	23.299690	0.001088	20.803636
349.090699	-3.020300	3.762600	-11.363000	23.321400	0.001086	20.793626
350.089165	-3.006400	3.763500	-11.313000	23.340748	0.001085	20.787412
351.092945	-3.013800	3.762600	-11.338000	23.326777	0.001088	20.781945
352.089897	-2.992800	3.764000	-11.263000	23.327275	0.001086	20.810893
353.092580	-3.012300	3.762700	-11.334000	23.346195	0.001088	20.811364
354.096013	-3.005500	3.763300	-11.310000	23.351423	0.001087	20.802854
355.091014	-2.984500	3.761900	-11.227000	23.338205	0.001086	20.783916
356.092860	-2.985200	3.763000	-11.231000	23.315147	0.001089	20.781669
357.093284	-3.008400	3.762200	-11.317000	23.301226	0.001088	20.769139
358.092774	-2.990200	3.762100	-11.248000	23.301974	0.001089	20.785536
359.097356	-3.012900	3.760300	-11.328000	23.297194	0.001089	20.793548
360.093395	-3.015800	3.758800	-11.335000	23.309667	0.001088	20.781867
361.094918	-3.006900	3.761100	-11.309000	23.316718	0.001089	20.777080
362.093025	-2.999100	3.760100	-11.275000	23.363699	0.001087	20.789078
363.095942	-3.008800	3.758900	-11.308000	23.371745	0.001090	20.777702
364.094174	-3.003600	3.760300	-11.294000	23.373189	0.001090	20.784365
365.094962	-3.008400	3.759000	-11.308000	23.393528	0.001088	20.780568
366.096679	-2.998000	3.759100	-11.268000	23.392232	0.001090	20.781640
367.095516	-2.997000	3.759500	-11.266000	23.422191	0.001091	20.782745
368.101294	-2.992000	3.758000	-11.243000	23.423236	0.001091	20.769567
369.098945	-2.996800	3.758500	-11.261000	23.389203	0.001092	20.787614
370.097601	-2.988100	3.757500	-11.227000	23.387533	0.001092	20.784044
371.098783	-2.996100	3.757000	-11.254000	23.413630	0.001091	20.777958
372.101691	-2.981500	3.758500	-11.205000	23.397648	0.001091	20.758620
373.099068	-2.977900	3.757800	-11.189000	23.398570	0.001090	20.788467
374.100759	-2.987900	3.758000	-11.228000	23.419261	0.001093	20.779808
375.099570	-2.999500	3.755700	-11.264000	23.430067	0.001092	20.780208
376.101357	-3.002500	3.754700	-11.272000	23.420561	0.001094	20.781111
377.104659	-2.992100	3.754800	-11.234000	23.428779	0.001092	20.762322
378.104357	-3.029100	3.753400	-11.367000	23.453727	0.001095	20.778793
379.101695	-3.014600	3.754600	-11.318000	23.495009	0.001094	20.784611
380.101876	-2.996000	3.755100	-11.248000	23.452534	0.001093	20.777598
381.104857	-3.016500	3.753100	-11.320000	23.459210	0.001093	20.773383
382.101966	-2.991000	3.754500	-11.228000	23.495111	0.001094	20.770489
383.104126	-3.006200	3.752800	-11.280000	23.500245	0.001096	20.777531
384.109870	-2.994500	3.753400	-11.237000	23.488867	0.001095	20.754272
385.102834	-2.980500	3.753400	-11.186000	23.505826	0.001096	20.744244
386.103703	-3.005600	3.753400	-11.280000	23.524598	0.001093	20.756898
387.104910	-2.989500	3.752400	-11.217000	23.516561	0.001095	20.749789
388.102823	-2.992100	3.752200	-11.226000	23.524701	0.001094	20.767433
389.103005	-2.973600	3.751400	-11.153000	23.532866	0.001096	20.770401
390.106732	-3.002700	3.751300	-11.262000	23.529484	0.001095	20.754684
391.101977	-3.002900	3.749800	-11.259000	23.539418	0.001095	20.761796
392.101885	-3.011100	3.751100	-11.294000	23.562669	0.001096	20.752387
393.105618	-2.990100	3.750500	-11.214000	23.548980	0.001095	20.723017
394.104115	-3.017400	3.750100	-11.314000	23.572708	0.001098	20.739217
395.103750	-3.005900	3.749600	-11.269000	23.592623	0.001098	20.746853
396.107363	-2.996300	3.748900	-11.232000	23.613417	0.001098	20.765803
397.104132	-3.009800	3.748600	-11.282000	23.595218	0.001099	20.765576
398.104137	-2.998900	3.748900	-11.242000	23.608416	0.001097	20.742770
399.107650	-3.007000	3.748900	-11.272000	23.613093	0.001098	20.766900
400.105982	-3.002300	3.747600	-11.250000	23.601667	0.001099	20.750230
401.105842	-3.015600	3.747700	-11.300000	23.581785	0.001099	20.767757
402.108190	-3.003100	3.747000	-11.251000	23.609789	0.001098	20.733241
403.107037	-2.991800	3.747900	-11.212000	23.598594	0.001099	20.713008
404.105519	-2.996100	3.747700	-11.227000	23.605364	0.001097	20.742081
405.107513	-3.012200	3.746000	-11.283000	23.612956	0.001100	20.737364
406.104854	-2.992600	3.746300	-11.210000	23.576014	0.001099	20.745376
407.105518	-2.987000	3.748500	-11.195000	23.577885	0.001101	20.746777
408.107071	-3.009100	3.745900	-11.270000	23.585831	0.001100	20.753321
409.108038	-3.005000	3.745500	-11.254000	23.601164	0.001100	20.754467
410.106862	-2.988700	3.745200	-11.192000	23.584860	0.001102	20.745235
411.110063	-2.990100	3.744800	-11.196000	23.589216	0.001101	20.739170
412.107332	-2.985800	3.744800	-11.179000	23.592506	0.001101	20.764280
413.106624	-2.986000	3.744800	-11.180000	23.594649	0.001102	20.750306
414.106965	-2.978700	3.744000	-11.152000	23.567840	0.001101	20.746665
415.108707	-2.995100	3.744200	-11.213000	23.574833	0.001102	20.734234
416.106514	-2.986000	3.743900	-11.178000	23.601003	0.001104	20.739132
417.109338	-3.006500	3.742600	-11.251000	23.604289	0.001103	20.749539
418.109870	-2.984200	3.743000	-11.168000	23.610466	0.001102	20.744352
419.109934	-2.995400	3.742300	-11.209000	23.633465	0.001101	20.746545
420.110564	-3.025600	3.739800	-11.313000	23.637726	0.001104	20.745127
421.112181	-2.974700	3.742900	-11.133000	23.664734	0.001103	20.751815
422.110158	-2.995100	3.743100	-11.209000	23.695356	0.001102	20.740315
423.110083	-2.986500	3.741800	-11.174000	23.708277	0.001103	20.742838
424.111288	-2.991700	3.740100	-11.188000	23.698971	0.001104	20.744887
425.110865	-2.990900	3.740700	-11.187000	23.727918	0.001104	20.745460
426.112528	-3.016700	3.738900	-11.278000	23.699423	0.001103	20.741547
427.113059	-3.014100	3.739700	-11.271000	23.684465	0.001103	20.711851
428.113055	-2.987500	3.739500	-11.171000	23.670228	0.001104	20.725553
429.112328	-3.009500	3.737700	-11.246000	23.656886	0.001103	20.726402
430.112172	-2.970000	3.739200	-11.104000	23.669162	0.001103	20.746297
431.112401	-3.011300	3.738200	-11.256000	23.658658	0.001103	20.741930
432.110903	-3.012200	3.737800	-11.258000	23.656869	0.001105	20.709789
433.110491	-2.984700	3.738400	-11.157000	23.670885	0.001106	20.736170
434.111575	-2.997300	3.737900	-11.202000	23.693463	0.001104	20.722295
435.111998	-3.004000	3.737700	-11.227000	23.692373	0.001106	20.716934
436.112557	-2.982100	3.737600	-11.145000	23.738873	0.001106	20.742218
437.113638	-3.001400	3.737000	-11.216000	23.737602	0.001106	20.743315
438.113778	-3.015700	3.736200	-11.266000	23.772474	0.001106	20.749355
439.113608	-2.999100	3.735500	-11.202000	23.796498	0.001106	20.729819
440.113317	-3.018200	3.736000	-11.275000	23.791847	0.001106	20.751235
441.114715	-3.025400	3.734200	-11.296000	23.833860	0.001106	20.751635
442.115890	-2.994100	3.735800	-11.183000	23.834785	0.001107	20.754460
443.115728	-2.996600	3.733800	-11.188000	23.848848	0.001106	20.743904
444.115966	-2.981700	3.735800	-11.139000	23.865522	0.001108	20.729802
445.116475	-3.006900	3.732100	-11.221000	23.875386	0.001105	20.754867
446.115810	-2.989600	3.733000	-11.159000	23.896467	0.001107	20.726693
447.116639	-2.989300	3.732800	-11.158000	23.867450	0.001108	20.738848
448.121787	-2.984200	3.734100	-11.142000	23.900205	0.001107	20.738976
449.117565	-3.004000	3.732300	-11.211000	23.882339	0.001107	20.743821
450.123843	-2.996100	3.732200	-11.181000	23.864547	0.001107	20.737360
451.118832	-2.976100	3.733800	-11.111000	23.833189	0.001107	20.738634
452.119381	-2.993700	3.733200	-11.175000	23.853255	0.001108	20.726985
453.118538	-2.995100	3.731500	-11.175000	23.867063	0.001109	20.752212
454.120335	-2.984900	3.730400	-11.133000	23.851141	0.001106	20.736720
455.118381	-3.000700	3.732300	-11.197000	23.872421	0.001108	20.742410
456.119955	-3.005900	3.731000	-11.214000	23.833423	0.001108	20.740291
457.119518	-2.995200	3.730400	-11.172000	23.835618	0.001109	20.742018
458.119747	-3.003900	3.731000	-11.206000	23.840795	0.001109	20.750055
459.119710	-2.992600	3.731200	-11.165000	23.836017	0.001111	20.735306
460.120198	-2.998100	3.730600	-11.183000	23.870516	0.001110	20.738130
461.124365	-3.003100	3.727800	-11.194000	23.855409	0.001107	20.729620
462.120847	-3.003300	3.728500	-11.196000	23.859098	0.001109	20.736163
463.121531	-3.024100	3.727800	-11.272000	23.882141	0.001109	20.750735
464.121004	-2.990300	3.729100	-11.150000	23.896104	0.001110	20.741029
465.121166	-3.000100	3.728200	-11.184000	23.897876	0.001107	20.730477
466.122448	-2.993000	3.728300	-11.158000	23.889714	0.001108	20.746475
467.123351	-3.002400	3.726800	-11.188000	23.890709	0.001110	20.742731
468.122410	-3.001400	3.726400	-11.183000	23.876528	0.001109	20.747003
469.121925	-3.005000	3.727300	-11.200000	23.864032	0.001107	20.745379
470.122915	-3.010800	3.725900	-11.217000	23.845894	0.001108	20.735252
471.124157	-3.004900	3.725200	-11.194000	23.861178	0.001109	20.753897
472.124229	-3.011900	3.725300	-11.220000	23.878078	0.001111	20.731487
473.123076	-3.035400	3.723200	-11.301000	23.903439	0.001108	20.738901
474.123720	-2.992600	3.724600	-11.145000	23.931214	0.001110	20.727871
475.125649	-3.024500	3.723200	-11.260000	23.919993	0.001111	20.763562
476.124884	-2.982900	3.725900	-11.112000	23.879504	0.001109	20.743824
477.122757	-2.992500	3.723300	-11.140000	23.836522	0.001110	20.745770
478.124371	-2.987000	3.724600	-11.124000	23.840235	0.001108	20.744751
479.126183	-3.000400	3.722600	-11.168000	23.818857	0.001111	20.750342
480.123337	-2.992400	3.723100	-11.139000	23.822439	0.001110	20.739709
481.125553	-2.978500	3.722500	-11.086000	23.827299	0.001108	20.736521
482.125269	-2.977500	3.722600	-11.083000	23.856889	0.001110	20.741061
483.125290	-2.971600	3.722700	-11.061000	23.858883	0.001110	20.751122
484.124618	-2.985900	3.721800	-11.112000	23.876408	0.001110	20.757789
485.125901	-3.009900	3.721000	-11.198000	23.890795	0.001110	20.733334
486.126660	-2.978900	3.721200	-11.084000	23.904282	0.001108	20.752548
487.127346	-2.976600	3.720300	-11.073000	23.913443	0.001111	20.758890
488.138937	-2.993700	3.719900	-11.133000	23.951323	0.001110	20.758469
489.127032	-3.003500	3.719400	-11.170000	23.984697	0.001110	20.759220
490.130033	-3.010600	3.719600	-11.197000	23.994626	0.001110	20.765858
491.128559	-2.999300	3.719500	-11.156000	23.987040	0.001112	20.743077
492.130562	-2.996500	3.719100	-11.143000	24.020285	0.001110	20.734690
493.129207	-2.999300	3.719200	-11.153000	24.021206	0.001112	20.760271
494.130137	-3.005700	3.717800	-11.174000	24.004111	0.001113	20.757826
495.129222	-3.002100	3.717400	-11.158000	23.996024	0.001112	20.749715
496.131214	-3.006800	3.716300	-11.173000	24.006080	0.001111	20.744153
497.132223	-3.011700	3.718100	-11.197000	24.004834	0.001111	20.760448
498.130859	-2.981100	3.718400	-11.083000	24.039546	0.001111	20.774871
499.134042	-2.988200	3.716500	-11.105000	24.038555	0.001112	20.746376
500.132176	-3.010300	3.717000	-11.189000	24.032606	0.001114	20.762695
501.134447	-3.021100	3.715700	-11.225000	24.054453	0.001113	20.760898
502.132342	-2.999900	3.715800	-11.146000	24.078265	0.001112	20.762019
503.132956	-2.986600	3.716000	-11.098000	24.085238	0.001112	20.759529
504.136001	-2.991600	3.716100	-11.116000	24.082796	0.001112	20.754234
505.136111	-3.005600	3.713900	-11.161000	24.093990	0.001113	20.755979
506.135521	-3.012100	3.713600	-11.185000	24.091877	0.001111	20.749592
507.134593	-3.011300	3.714200	-11.184000	24.113250	0.001112	20.755855
508.137361	-3.003200	3.714800	-11.155000	24.118126	0.001113	20.780660
509.134799	-3.005100	3.713700	-11.159000	24.111285	0.001112	20.753410
510.136698	-2.981600	3.714100	-11.073000	24.142557	0.001113	20.757748
511.136806	-3.031100	3.711800	-11.249000	24.142783	0.001112	20.781683
512.134454	-3.001500	3.713000	-11.143000	24.162264	0.001113	20.761392
513.134805	-2.987100	3.711900	-11.087000	24.168381	0.001112	20.759467
514.138243	-2.997800	3.712600	-11.129000	24.173557	0.001111	20.750907
515.136720	-2.978900	3.711700	-11.055000	24.180101	0.001114	20.757945
516.136072	-3.010400	3.709700	-11.166000	24.181568	0.001112	20.776487
517.140747	-3.001200	3.711400	-11.138000	24.192910	0.001112	20.756568
518.138289	-2.967700	3.710500	-11.008000	24.144666	0.001112	20.784993
519.139214	-2.998300	3.709300	-11.120000	24.150039	0.001112	20.765726
520.139686	-3.005000	3.709300	-11.145000	24.127569	0.001112	20.781122
521.139867	-2.989000	3.708400	-11.084000	24.122817	0.001110	20.775407
522.138424	-3.004500	3.708700	-11.142000	24.113308	0.001113	20.781518
523.138492	-2.979200	3.708600	-11.048000	24.120350	0.001113	20.769140
524.138007	-2.980100	3.709700	-11.054000	24.140481	0.001113	20.767520
525.137675	-2.984000	3.708900	-11.067000	24.153763	0.001114	20.778471
526.142522	-3.002900	3.707500	-11.131000	24.169483	0.001112	20.766262
527.140387	-2.975900	3.707400	-11.031000	24.188841	0.001111	20.769557
528.137822	-3.000600	3.707700	-11.124000	24.163210	0.001112	20.770876
529.142621	-2.983200	3.707200	-11.058000	24.172118	0.001111	20.777914
530.139659	-3.006000	3.705700	-11.138000	24.187418	0.001114	20.779510
531.139190	-2.995500	3.705800	-11.099000	24.179304	0.001113	20.796027
532.148358	-3.000100	3.705700	-11.117000	24.151087	0.001112	20.781477
533.138278	-2.997300	3.706000	-11.106000	24.149299	0.001112	20.778735
534.137923	-3.011600	3.704000	-11.152000	24.151059	0.001113	20.784767
535.138982	-2.987300	3.704600	-11.065000	24.152502	0.001113	20.784792
536.138981	-2.991600	3.704600	-11.081000	24.174096	0.001112	20.789381
537.138431	-2.986200	3.703700	-11.060000	24.179316	0.001114	20.774703
538.137960	-3.018800	3.702700	-11.176000	24.200018	0.001114	20.793570
539.137467	-2.972900	3.702900	-11.007000	24.224867	0.001112	20.799054
540.138777	-2.979300	3.703000	-11.032000	24.216259	0.001113	20.800852
541.139694	-3.016800	3.701200	-11.165000	24.237576	0.001115	20.802794
542.138219	-3.001500	3.702200	-11.111000	24.280863	0.001115	20.792160
543.137129	-3.011200	3.701200	-11.144000	24.327309	0.001113	20.784697
544.139752	-3.001500	3.702000	-11.110000	24.335612	0.001111	20.789707
545.139578	-2.994700	3.701400	-11.083000	24.350758	0.001114	20.785461
546.140229	-3.005700	3.700600	-11.122000	24.352994	0.001111	20.771582
547.140566	-3.007400	3.700000	-11.126000	24.342813	0.001113	20.784603
548.139581	-2.996800	3.700400	-11.087000	24.308308	0.001113	20.785552
549.139262	-3.014400	3.699100	-11.149000	24.282829	0.001113	20.793658
550.139765	-3.018400	3.699400	-11.164000	24.307055	0.001112	20.798519
551.138435	-3.008100	3.698000	-11.123000	24.282126	0.001114	20.815238
552.139318	-3.001500	3.698200	-11.098000	24.306751	0.001114	20.774980
553.140703	-2.994800	3.699100	-11.077000	24.314179	0.001111	20.811355
554.139261	-2.998400	3.698300	-11.087000	24.328010	0.001112	20.800099
555.138854	-2.988800	3.698600	-11.053000	24.337784	0.001111	20.794256
556.143450	-2.988600	3.698700	-11.052000	24.310858	0.001112	20.817507
557.140573	-3.003700	3.697600	-11.106000	24.323748	0.001112	20.803410
558.140601	-2.994700	3.697500	-11.070000	24.276122	0.001112	20.807319
559.143743	-2.984500	3.697900	-11.035000	24.275296	0.001113	20.785628
560.139916	-2.992200	3.696600	-11.059000	24.269497	0.001112	20.790716
561.139183	-3.028900	3.695000	-11.191000	24.248768	0.001111	20.812123
562.142904	-3.004000	3.697000	-11.104000	24.277751	0.001110	20.826022
563.145751	-2.981100	3.697000	-11.020000	24.300908	0.001110	20.808000
564.141017	-3.003000	3.695500	-11.097000	24.312397	0.001112	20.811938
565.144274	-3.017800	3.695800	-11.152000	24.312146	0.001112	20.832549
566.142026	-3.004600	3.694800	-11.101000	24.283239	0.001111	20.806397
567.142458	-3.001100	3.695400	-11.090000	24.297687	0.001111	20.798604
568.142584	-3.003900	3.694200	-11.096000	24.280370	0.001110	20.815373
569.142487	-2.985900	3.693400	-11.027000	24.289499	0.001111	20.807461
570.145478	-3.012600	3.692900	-11.124000	24.304473	0.001110	20.822481
571.150063	-3.022100	3.692200	-11.157000	24.304395	0.001111	20.809601
572.144153	-2.999000	3.694000	-11.077000	24.314942	0.001113	20.820181
573.146270	-2.993800	3.692100	-11.053000	24.328399	0.001112	20.812343
574.150339	-2.990200	3.692200	-11.039000	24.357655	0.001111	20.817983
575.149394	-3.021600	3.690500	-11.149000	24.398771	0.001111	20.817979
576.148611	-3.006000	3.691000	-11.093000	24.433837	0.001110	20.823760
577.151748	-3.003400	3.690500	-11.083000	24.406975	0.001113	20.812933
578.151572	-2.999400	3.690600	-11.069000	24.426398	0.001109	20.818668
579.148755	-2.982900	3.691400	-11.009000	24.438309	0.001110	20.842945
580.153069	-3.005500	3.690200	-11.090000	24.426493	0.001111	20.832514
581.150320	-3.029300	3.690100	-11.176000	24.437483	0.001109	20.828841
582.148078	-3.022100	3.689300	-11.147000	24.427131	0.001109	20.822722
583.154038	-2.999200	3.689400	-11.063000	24.460954	0.001108	20.838163
584.152343	-3.015200	3.688500	-11.121000	24.428566	0.001111	20.820843
585.150528	-3.010300	3.688100	-11.101000	24.445276	0.001111	20.833340
586.151208	-2.995900	3.687100	-11.045000	24.466914	0.001113	20.828021
587.152831	-2.983800	3.689200	-11.006000	24.469820	0.001112	20.833307
588.150643	-2.996300	3.687000	-11.047000	24.475113	0.001109	20.838618
589.157399	-3.012900	3.686800	-11.107000	24.492197	0.001108	20.841059
590.151808	-3.004600	3.686600	-11.075000	24.460476	0.001109	20.824881
591.152614	-2.970300	3.687600	-10.952000	24.468383	0.001110	20.852728
592.156910	-3.002600	3.687100	-11.070000	24.489770	0.001109	20.859960
593.154566	-2.982200	3.686300	-10.992000	24.476282	0.001109	20.840265
594.152272	-2.989800	3.685600	-11.017000	24.435013	0.001108	20.835846
595.158226	-3.009300	3.686000	-11.091000	24.447992	0.001110	20.835591
596.153669	-2.994300	3.685100	-11.034000	24.445132	0.001109	20.828454
597.152707	-2.983100	3.685400	-10.993000	24.490170	0.001107	20.840922
598.160809	-2.988400	3.684900	-11.011000	24.460590	0.001107	20.852022
599.153539	-2.998500	3.682800	-11.043000	24.454491	0.001109	20.850645
600.155021	-2.988500	3.684500	-11.010000	24.464487	0.001107	20.841707
601.159930	-3.007700	3.682300	-11.073000	24.454829	0.001104	20.859992
602.158084	-3.010600	3.681700	-11.081000	24.430098	0.001107	20.851302
603.155452	-3.012000	3.682600	-11.091000	24.446216	0.001106	20.873636
604.159444	-3.002900	3.682900	-11.057000	24.420070	0.001104	20.837449
605.157850	-2.995600	3.682400	-11.030000	24.392181	0.001107	20.854040
606.157069	-3.006900	3.681200	-11.068000	24.415583	0.001107	20.838164
607.160187	-3.022700	3.680000	-11.123000	24.423544	0.001105	20.855158
608.159818	-2.993700	3.682400	-11.022000	24.463286	0.001107	20.873691
609.156402	-2.986200	3.681400	-10.992000	24.500075	0.001106	20.859393
610.163221	-2.992700	3.681000	-11.014000	24.519176	0.001107	20.862436
611.160669	-3.011600	3.680600	-11.083000	24.545711	0.001108	20.863455
612.156464	-2.985400	3.679300	-10.983000	24.530211	0.001105	20.868766
613.156783	-2.990200	3.679100	-11.000000	24.555529	0.001106	20.864771
614.156853	-2.994600	3.679400	-11.016000	24.581943	0.001105	20.864721
615.159714	-2.987500	3.678600	-10.988000	24.599473	0.001105	20.853388
616.156956	-2.988400	3.677500	-10.988000	24.606212	0.001106	20.857305
617.158369	-2.993200	3.678500	-11.009000	24.648363	0.001105	20.884425
618.157567	-2.984600	3.678200	-10.976000	24.648360	0.001105	20.881577
619.158199	-3.036600	3.675100	-11.159000	24.660194	0.001105	20.850780
620.157921	-2.992900	3.677000	-11.004000	24.645299	0.001103	20.862385
621.156048	-3.009900	3.677600	-11.068000	24.639822	0.001105	20.874907
622.163668	-3.030500	3.675700	-11.138000	24.616491	0.001104	20.861454
623.158743	-3.002900	3.676900	-11.039000	24.619873	0.001106	20.865796
624.159457	-2.999200	3.676300	-11.026000	24.617630	0.001104	20.866390
625.159833	-2.986300	3.675500	-10.975000	24.617355	0.001105	20.887924
626.160579	-3.012300	3.675500	-11.071000	24.610390	0.001105	20.879039
627.159808	-2.981000	3.676400	-10.957000	24.581931	0.001103	20.885096
628.162032	-3.013900	3.674200	-11.072000	24.557160	0.001103	20.892958
629.162991	-3.015600	3.673700	-11.078000	24.563494	0.001104	20.874658
630.161335	-2.996000	3.673800	-11.005000	24.561579	0.001102	20.871789
631.162492	-3.009900	3.674300	-11.059000	24.610397	0.001103	20.882365
632.162331	-3.011100	3.672900	-11.059000	24.642304	0.001103	20.875975
633.163137	-2.998100	3.673400	-11.013000	24.636305	0.001101	20.864266
634.163325	-2.999200	3.672700	-11.013000	24.665151	0.001103	20.875666
635.163751	-3.013100	3.671900	-11.063000	24.672235	0.001102	20.887516
636.163751	-3.000700	3.671900	-11.017000	24.660767	0.001101	20.889285
637.164620	-3.005700	3.671000	-11.033000	24.671956	0.001102	20.901934
638.165848	-3.013600	3.669800	-11.058000	24.667947	0.001102	20.910712
639.164719	-2.983400	3.670300	-10.948000	24.709401	0.001102	20.893042
640.166066	-2.995900	3.670700	-10.996000	24.704499	0.001101	20.897606
641.165992	-2.998200	3.671300	-11.006000	24.724986	0.001101	20.916740
642.166231	-3.015500	3.667400	-11.057000	24.747317	0.001101	20.906908
643.165270	-2.981100	3.670200	-10.940000	24.758004	0.001099	20.900564
644.169024	-3.029000	3.668800	-11.111000	24.735547	0.001100	20.905528
645.166842	-2.985800	3.670600	-10.958000	24.767672	0.001098	20.896516
646.167308	-3.007400	3.668000	-11.030000	24.789529	0.001100	20.899485
647.171541	-2.992700	3.668300	-10.977000	24.809666	0.001100	20.900253
648.166808	-2.963100	3.668900	-10.870000	24.775969	0.001100	20.884929
649.166927	-3.024900	3.666700	-11.090000	24.765571	0.001099	20.901045
650.169821	-2.998900	3.668300	-10.999000	24.780612	0.001097	20.896226
651.166816	-2.987200	3.667000	-10.953000	24.761364	0.001097	20.909151
652.165439	-2.983300	3.668100	-10.941000	24.763748	0.001098	20.909646
653.169158	-3.000500	3.665700	-10.997000	24.787022	0.001098	20.904555
654.166660	-2.997400	3.665200	-10.984000	24.795749	0.001097	20.920897
655.168810	-3.011100	3.665800	-11.037000	24.796595	0.001098	20.911790
656.168813	-3.032600	3.665400	-11.115000	24.793933	0.001096	20.904378
657.165943	-2.994000	3.666900	-10.977000	24.800523	0.001096	20.919525
658.166880	-3.017200	3.664200	-11.055000	24.768888	0.001095	20.920494
659.169398	-3.007900	3.664800	-11.022000	24.756530	0.001096	20.900981
660.164363	-3.005800	3.664400	-11.012000	24.757002	0.001094	20.904300
661.167459	-2.999700	3.664600	-10.992000	24.749266	0.001096	20.924036
662.170786	-2.981800	3.665000	-10.927000	24.776448	0.001094	20.916701
663.169631	-3.016000	3.662600	-11.045000	24.786691	0.001096	20.917023
664.168991	-2.992700	3.663300	-10.961000	24.796937	0.001095	20.923038
665.169820	-2.985300	3.663000	-10.934000	24.788062	0.001095	20.908443
666.166612	-2.996800	3.662100	-10.974000	24.805269	0.001095	20.912434
667.167479	-2.980700	3.663000	-10.916000	24.848805	0.001093	20.930995
668.171223	-2.999600	3.661700	-10.983000	24.881350	0.001095	20.922408
669.169295	-2.999100	3.660300	-10.976000	24.888715	0.001091	20.890922
670.169392	-2.969400	3.661300	-10.870000	24.901922	0.001093	20.915081
671.172388	-2.971600	3.661700	-10.879000	24.902962	0.001093	20.934140
672.170313	-2.993400	3.661100	-10.958000	24.894159	0.001092	20.896385
673.170627	-2.984000	3.661500	-10.924000	24.921333	0.001094	20.909908
674.171522	-2.987000	3.660000	-10.931000	24.915121	0.001090	20.901303
675.171569	-2.989300	3.660300	-10.940000	24.954952	0.001091	20.900978
676.171187	-3.012900	3.658800	-11.023000	24.931254	0.001091	20.907537
677.172893	-3.025700	3.657300	-11.065000	24.951818	0.001090	20.896410
678.172421	-3.010500	3.658600	-11.013000	24.933320	0.001092	20.901077
679.171771	-3.022000	3.657100	-11.050000	24.915569	0.001090	20.903649
680.172328	-3.008000	3.658300	-11.002000	24.864395	0.001094	20.900652
681.172664	-3.022400	3.656300	-11.050000	24.835030	0.001091	20.899630
682.172581	-2.980200	3.660100	-10.905000	24.812997	0.001092	20.911182
683.175153	-3.017000	3.656500	-11.030000	24.832943	0.001089	20.907017
684.173857	-3.011700	3.657100	-11.013000	24.851692	0.001091	20.896912
685.174523	-3.013900	3.655800	-11.017000	24.845124	0.001091	20.884631
686.175184	-2.995000	3.656700	-10.951000	24.836571	0.001090	20.894064
687.176794	-3.000700	3.657600	-10.974000	24.857732	0.001091	20.894439
688.172391	-2.989800	3.656700	-10.932000	24.886801	0.001088	20.898009
689.176461	-3.006100	3.655400	-10.987000	24.882246	0.001089	20.913825
690.173303	-2.996600	3.655200	-10.952000	24.916038	0.001088	20.898904
691.176091	-3.022600	3.654600	-11.044000	24.913581	0.001088	20.890275
692.176833	-3.006900	3.655100	-10.989000	24.895999	0.001090	20.889224
693.175205	-3.013500	3.653600	-11.009000	24.904154	0.001088	20.912105
694.175925	-3.005200	3.654600	-10.981000	24.917677	0.001089	20.891067
695.176125	-3.009800	3.654500	-10.996000	24.925388	0.001090	20.882211
696.174693	-2.994700	3.653400	-10.939000	24.926308	0.001089	20.887876
697.176777	-3.004800	3.653400	-10.977000	24.932720	0.001087	20.896682
698.177623	-3.020700	3.651500	-11.029000	24.932498	0.001088	20.886977
699.176775	-2.992400	3.652800	-10.930000	24.930358	0.001085	20.886726
700.179407	-2.982000	3.652100	-10.889000	24.928694	0.001087	20.883634
701.177110	-2.998900	3.651100	-10.948000	24.930954	0.001085	20.874049
702.177282	-2.989100	3.652100	-10.916000	24.912230	0.001085	20.887497
703.181805	-2.989600	3.651900	-10.916000	24.883709	0.001088	20.880683
704.182768	-3.018600	3.650300	-11.018000	24.818089	0.001086	20.876939
705.180546	-3.000600	3.650200	-10.950000	24.788151	0.001085	20.876766
706.179677	-3.006500	3.649500	-10.971000	24.808516	0.001087	20.889617
707.181680	-2.987700	3.650500	-10.904000	24.827584	0.001085	20.870822
708.181186	-2.998000	3.649000	-10.939000	24.842875	0.001086	20.879055
709.178730	-3.029300	3.647600	-11.048000	24.863934	0.001084	20.884543
710.180958	-2.981200	3.649600	-10.879000	24.884594	0.001085	20.871140
711.179086	-3.024300	3.647700	-11.030000	24.838097	0.001083	20.869520
712.178426	-3.009000	3.647700	-10.975000	24.844757	0.001083	20.874781
713.183720	-2.989900	3.647800	-10.905000	24.862760	0.001084	20.855392
714.180164	-3.009800	3.647900	-10.978000	24.880811	0.001085	20.856439
715.180159	-3.006100	3.646500	-10.960000	24.848928	0.001084	20.850519
716.181051	-2.989700	3.646900	-10.902000	24.841419	0.001082	20.876172
717.181203	-3.019000	3.645900	-11.005000	24.840971	0.001081	20.867188
718.180742	-3.005300	3.646500	-10.957000	24.873217	0.001082	20.880110
719.181797	-3.004800	3.647000	-10.958000	24.893732	0.001084	20.875570
720.181063	-3.005900	3.645600	-10.957000	24.898453	0.001082	20.850912
721.185441	-3.004900	3.646500	-10.955000	24.945314	0.001081	20.867125
722.183231	-2.997700	3.647100	-10.931000	24.947330	0.001080	20.873890
723.183329	-3.016200	3.643900	-10.989000	24.971792	0.001082	20.862882
724.183719	-3.016200	3.644200	-10.991000	24.970745	0.001081	20.894546
725.186298	-3.015600	3.644200	-10.988000	24.973901	0.001081	20.852671
726.186845	-3.012800	3.641800	-10.970000	24.994435	0.001080	20.877548
727.185643	-3.030100	3.642700	-11.035000	24.997714	0.001081	20.854762
728.185904	-2.982700	3.645000	-10.871000	24.997189	0.001081	20.844752
729.186461	-3.011600	3.643000	-10.970000	25.000319	0.001081	20.838886
730.184726	-2.997600	3.644000	-10.922000	24.974335	0.001081	20.847417
731.185934	-3.002000	3.642700	-10.933000	24.962447	0.001080	20.862985
732.185379	-3.003100	3.643400	-10.939000	24.952203	0.001077	20.845117
733.187114	-3.017500	3.640500	-10.985000	24.919702	0.001079	20.842368
734.189700	-2.997700	3.642200	-10.917000	24.938076	0.001079	20.852749
735.189408	-3.002300	3.641000	-10.930000	24.942050	0.001079	20.859108
736.187596	-3.011700	3.641000	-10.965000	24.963600	0.001077	20.849445
737.189365	-3.001500	3.641000	-10.927000	24.958630	0.001077	20.857257
738.189155	-2.992900	3.641100	-10.896000	24.948233	0.001077	20.838763
739.188669	-3.014700	3.639900	-10.973000	24.950469	0.001076	20.843377
740.192232	-2.996500	3.641000	-10.910000	24.934030	0.001074	20.862912
741.189302	-3.010200	3.638900	-10.953000	24.896758	0.001076	20.861539
742.189103	-3.012400	3.640000	-10.963000	24.877086	0.001077	20.842744
743.190479	-3.018400	3.638700	-10.982000	24.910381	0.001076	20.860987
744.188491	-2.984500	3.639500	-10.861000	24.888498	0.001076	20.866525
745.189304	-2.993700	3.640100	-10.895000	24.883273	0.001075	20.857488
746.191929	-3.020000	3.637400	-10.983000	24.877453	0.001075	20.855439
747.190590	-3.012300	3.639300	-10.962000	24.915070	0.001075	20.850521
748.190335	-3.005100	3.637800	-10.931000	24.920242	0.001073	20.857134
749.196184	-2.998300	3.635500	-10.898000	24.963552	0.001074	20.855086
750.190502	-3.010800	3.636200	-10.947000	24.992145	0.001073	20.841113
751.190998	-3.013400	3.635800	-10.955000	25.023315	0.001074	20.839684
752.193424	-3.013600	3.635800	-10.956000	25.045023	0.001074	20.853886
753.193218	-2.997100	3.635900	-10.896000	25.054713	0.001075	20.848915
754.191163	-3.010300	3.635900	-10.944000	25.072339	0.001072	20.857598
755.193646	-3.009000	3.635000	-10.935000	25.069180	0.001073	20.852531
756.192758	-3.007600	3.634400	-10.930000	25.050011	0.001070	20.848937
757.193040	-3.006300	3.634900	-10.926000	25.027906	0.001070	20.850929
758.200494	-3.009700	3.634200	-10.937000	24.995160	0.001072	20.850777
759.192544	-3.024300	3.634600	-10.990000	24.978331	0.001071	20.844316
760.191748	-3.011600	3.632900	-10.939000	24.984416	0.001071	20.842837
761.197745	-3.011900	3.633600	-10.943000	24.993514	0.001070	20.851495
762.192674	-3.007100	3.632200	-10.920000	25.007411	0.001070	20.827513
763.191614	-2.989200	3.633900	-10.862000	24.995823	0.001069	20.850020
764.197339	-3.013500	3.632200	-10.944000	25.024614	0.001068	20.849521
765.194951	-2.992400	3.631900	-10.866000	25.003029	0.001068	20.844451
766.195762	-3.013300	3.632200	-10.943000	25.047605	0.001068	20.838461
767.197724	-2.991800	3.632900	-10.867000	25.060309	0.001070	20.841256
768.196720	-2.999700	3.632800	-10.896000	25.083697	0.001068	20.834862
769.192935	-2.990200	3.633300	-10.864000	25.104378	0.001067	20.829070
770.200141	-3.007100	3.631700	-10.920000	25.108752	0.001067	20.839151
771.196141	-3.005700	3.631200	-10.914000	25.101467	0.001068	20.842268
772.193829	-3.011400	3.629100	-10.928000	25.115883	0.001067	20.833508
773.196239	-3.007600	3.629100	-10.914000	25.123113	0.001067	20.834601
774.196327	-3.001900	3.630200	-10.896000	25.107424	0.001066	20.837818
775.196187	-3.014400	3.630800	-10.943000	25.116395	0.001066	20.842082
776.204194	-3.011600	3.628500	-10.926000	25.132550	0.001064	20.827005
777.201100	-3.034000	3.627100	-11.003000	25.152239	0.001065	20.826382
778.198170	-2.969700	3.630500	-10.781000	25.126406	0.001063	20.849286
779.201966	-3.000000	3.629800	-10.888000	25.091524	0.001064	20.837978
780.201545	-2.985300	3.629600	-10.834000	25.045382	0.001065	20.837178
781.198098	-2.985500	3.630200	-10.836000	25.015197	0.001064	20.831061
782.201087	-2.998700	3.628900	-10.881000	24.977456	0.001066	20.830636
783.202285	-3.026100	3.626400	-10.973000	24.939689	0.001063	20.849626
784.200992	-3.003500	3.627100	-10.893000	24.948587	0.001062	20.821575
785.203386	-2.986800	3.627800	-10.833000	24.963302	0.001062	20.836344
786.199564	-3.017800	3.625400	-10.939000	24.989531	0.001060	20.848919
787.199171	-2.997600	3.625400	-10.867000	25.003205	0.001061	20.833722
788.205130	-3.009100	3.624500	-10.906000	25.026024	0.001059	20.843825
789.199617	-2.990100	3.626100	-10.840000	25.042056	0.001062	20.819141
790.199185	-2.990000	3.626400	-10.843000	25.058317	0.001059	20.810334
791.202844	-3.010300	3.623600	-10.906000	25.063087	0.001060	20.841674
792.200642	-2.994200	3.624800	-10.853000	25.045585	0.001061	20.824106
793.199651	-3.006400	3.625000	-10.895000	25.024724	0.001059	20.818338
794.204411	-3.000500	3.623100	-10.870000	25.018329	0.001059	20.805756
795.199249	-2.996700	3.624500	-10.860000	25.035236	0.001059	20.823675
796.199970	-3.013200	3.623800	-10.917000	25.051345	0.001059	20.820405
797.205284	-2.992300	3.623800	-10.841000	25.055294	0.001058	20.804929
798.204800	-3.011600	3.622800	-10.909000	25.068791	0.001059	20.810891
799.201909	-2.992500	3.621600	-10.836000	25.110033	0.001057	20.827635
800.210036	-3.013500	3.621400	-10.911000	25.151146	0.001059	20.822441
801.209434	-2.987200	3.623100	-10.822000	25.169394	0.001056	20.823215
802.207528	-2.997600	3.621800	-10.856000	25.136431	0.001056	20.812409
803.207176	-3.022800	3.620100	-10.942000	25.127252	0.001056	20.817894
804.212219	-2.975100	3.622400	-10.775000	25.141394	0.001056	20.835409
805.213619	-3.011600	3.619800	-10.900000	25.156459	0.001054	20.833463
806.206662	-3.006200	3.620200	-10.882000	25.119911	0.001055	20.819533
807.209446	-2.994400	3.620500	-10.841000	25.119266	0.001054	20.825998
808.209219	-3.004100	3.619900	-10.874000	25.088064	0.001055	20.831185
809.207386	-2.983600	3.621100	-10.803000	25.100070	0.001056	20.817159
810.214541	-3.037800	3.618900	-10.993000	25.126665	0.001054	20.831055
811.207642	-2.995500	3.617800	-10.836000	25.123310	0.001053	20.828635
812.216227	-3.026200	3.617500	-10.946000	25.123507	0.001054	20.839738
813.209571	-2.967600	3.619000	-10.738000	25.107121	0.001053	20.797685
814.212129	-2.993300	3.617900	-10.828000	25.084868	0.001053	20.809486
815.210324	-2.996800	3.618400	-10.842000	25.074103	0.001054	20.821439
816.208651	-2.991000	3.617000	-10.817000	25.059757	0.001052	20.815098
817.210174	-3.005300	3.617900	-10.872000	25.048318	0.001053	20.805987
818.212191	-3.009500	3.616200	-10.882000	25.045385	0.001052	20.810629
819.210937	-3.030700	3.614900	-10.954000	25.072852	0.001049	20.814968
820.211986	-3.006300	3.615700	-10.867000	25.049729	0.001051	20.804084
821.212842	-3.016400	3.615900	-10.906000	25.050124	0.001051	20.816808
822.210320	-2.991800	3.616500	-10.819000	25.084951	0.001052	20.799612
823.212865	-3.011300	3.614500	-10.883000	25.110380	0.001049	20.808069
824.215866	-2.992400	3.615000	-10.817000	25.156988	0.001049	20.827831
825.211666	-2.986600	3.616400	-10.799000	25.187611	0.001048	20.806417
826.210991	-2.963200	3.617500	-10.718000	25.197353	0.001049	20.828525
827.218915	-2.995800	3.614200	-10.827000	25.215642	0.001048	20.831714
828.215330	-3.003500	3.615100	-10.856000	25.252082	0.001046	20.805710
829.217202	-3.019900	3.613600	-10.912000	25.256378	0.001046	20.811446
830.215462	-3.015100	3.612900	-10.892000	25.288538	0.001048	20.809596
831.214507	-2.992600	3.612500	-10.808000	25.265472	0.001048	20.811093
832.213389	-2.979800	3.612800	-10.765000	25.257937	0.001046	20.832451
833.216783	-2.998800	3.611700	-10.830000	25.231660	0.001047	20.817923
834.216022	-3.010500	3.612000	-10.873000	25.203270	0.001044	20.801749
835.213406	-3.000200	3.612400	-10.837000	25.211691	0.001045	20.808781
836.213952	-3.010900	3.610700	-10.870000	25.203934	0.001044	20.824226
837.216950	-3.009100	3.610400	-10.863000	25.212407	0.001044	20.810922
838.215986	-2.980000	3.612600	-10.764000	25.219636	0.001044	20.825767
839.214534	-2.982300	3.611600	-10.769000	25.236043	0.001044	20.804780
840.215516	-2.991100	3.610100	-10.797000	25.246155	0.001042	20.804501
841.214364	-2.994000	3.610200	-10.808000	25.265564	0.001044	20.805022
842.217865	-2.989700	3.609700	-10.791000	25.282985	0.001045	20.813978
843.215581	-3.002200	3.608400	-10.832000	25.326531	0.001042	20.814551
844.220662	-3.012800	3.607600	-10.868000	25.326799	0.001041	20.823356
845.218417	-2.991200	3.608200	-10.792000	25.339599	0.001040	20.817241
846.216063	-2.971400	3.608200	-10.721000	25.355077	0.001039	20.819507
847.219441	-3.010200	3.607300	-10.857000	25.388975	0.001037	20.792852
848.223201	-3.007900	3.607700	-10.851000	25.352861	0.001041	20.798316
849.217349	-3.016000	3.606600	-10.876000	25.352016	0.001040	20.807424
850.219129	-3.014600	3.607500	-10.871000	25.356929	0.001038	20.812832
851.219229	-2.976200	3.607900	-10.736000	25.352179	0.001040	20.788148
852.218446	-2.978700	3.607600	-10.745000	25.351883	0.001039	20.790221
853.219347	-3.008500	3.606100	-10.848000	25.285640	0.001038	20.813799
854.219571	-2.988800	3.605800	-10.777000	25.278726	0.001037	20.801641
855.218253	-2.993300	3.605300	-10.791000	25.281631	0.001035	20.774686
856.217838	-2.991200	3.606300	-10.786000	25.275241	0.001035	20.792453
857.221566	-2.981200	3.606100	-10.748000	25.292039	0.001036	20.813585
858.218503	-3.002900	3.605300	-10.825000	25.283091	0.001037	20.794170
859.218649	-3.007800	3.604900	-10.841000	25.313559	0.001035	20.810536
860.219897	-3.002500	3.603900	-10.819000	25.281270	0.001033	20.803247
861.217677	-2.993500	3.603800	-10.787000	25.288678	0.001035	20.814004
862.219030	-3.010900	3.603600	-10.848000	25.300703	0.001035	20.800473
863.220616	-2.999300	3.603100	-10.806000	25.295061	0.001036	20.795757
864.220375	-3.011800	3.603000	-10.851000	25.340837	0.001034	20.794303
865.219289	-3.000200	3.601900	-10.805000	25.391238	0.001033	20.793702
866.223135	-2.988600	3.601900	-10.763000	25.407988	0.001032	20.793451
867.220725	-2.977600	3.603600	-10.728000	25.393294	0.001033	20.794818
868.218148	-3.005500	3.600500	-10.820000	25.440613	0.001031	20.788753
869.224587	-2.966800	3.602000	-10.684000	25.439193	0.001031	20.777845
870.219822	-3.012200	3.601100	-10.846000	25.467719	0.001031	20.807438
871.220523	-3.006900	3.601400	-10.828000	25.443536	0.001031	20.804016
872.222522	-3.033900	3.599000	-10.918000	25.452007	0.001030	20.786445
873.221445	-2.995100	3.600500	-10.783000	25.481180	0.001032	20.797248
874.222183	-2.998600	3.599700	-10.793000	25.498249	0.001031	20.798268
875.220883	-3.003800	3.599200	-10.810000	25.479733	0.001030	20.781096
876.222716	-2.998300	3.598800	-10.789000	25.453387	0.001028	20.789253
877.220793	-2.998800	3.598800	-10.791000	25.483776	0.001028	20.803174
878.224550	-3.009300	3.598300	-10.827000	25.476172	0.001027	20.784159
879.226782	-3.007800	3.598300	-10.821000	25.491254	0.001029	20.795985
880.223185	-2.994100	3.597800	-10.771000	25.484166	0.001029	20.784125
881.224890	-3.019800	3.597700	-10.863000	25.443729	0.001027	20.781451
882.236763	-3.010000	3.597500	-10.828000	25.396611	0.001028	20.775863
883.224262	-3.010400	3.596900	-10.827000	25.352269	0.001027	20.785393
884.224751	-3.003600	3.596800	-10.802000	25.370186	0.001025	20.794848
885.226129	-3.015800	3.596400	-10.844000	25.347615	0.001025	20.786410
886.227351	-3.018300	3.595200	-10.850000	25.352063	0.001024	20.763374
887.228601	-3.008000	3.596700	-10.816000	25.362970	0.001024	20.784284
888.230582	-2.994300	3.596000	-10.765000	25.338563	0.001023	20.812408
889.230038	-3.019300	3.594400	-10.850000	25.330483	0.001024	20.785329
890.230046	-3.002300	3.594700	-10.791000	25.332366	0.001023	20.805237
891.229887	-2.998000	3.594500	-10.775000	25.343924	0.001024	20.785075
892.234351	-3.013800	3.594400	-10.831000	25.335918	0.001020	20.788416
893.229813	-3.007700	3.593200	-10.806000	25.373122	0.001022	20.778356
894.234802	-3.019800	3.593400	-10.851000	25.343024	0.001020	20.785119
895.241422	-3.004200	3.593200	-10.794000	25.330693	0.001021	20.796446
896.233608	-2.987000	3.593400	-10.732000	25.324107	0.001019	20.779401
897.231608	-2.959800	3.595600	-10.640000	25.338076	0.001018	20.793427
898.236408	-3.009700	3.592300	-10.811000	25.383107	0.001016	20.813038
899.235842	-3.016700	3.590700	-10.830000	25.372867	0.001017	20.787583
900.233223	-3.014900	3.590800	-10.825000	25.379950	0.001017	20.804652
901.233975	-3.019900	3.589300	-10.838000	25.391656	0.001016	20.783216
902.235720	-2.993200	3.590400	-10.745000	25.375253	0.001016	20.787608
903.232947	-3.021100	3.589600	-10.843000	25.368320	0.001013	20.792027
904.236480	-2.981700	3.590600	-10.704000	25.365962	0.001015	20.786814
905.239694	-3.006800	3.589300	-10.791000	25.380200	0.001015	20.777877
906.238507	-2.996200	3.589500	-10.755000	25.403563	0.001014	20.785689
907.236824	-3.007600	3.589000	-10.793000	25.406298	0.001017	20.791280
908.238801	-2.992300	3.589800	-10.741000	25.410421	0.001013	20.791153
909.239151	-3.013500	3.588900	-10.814000	25.389471	0.001015	20.799514
910.236563	-2.997600	3.589600	-10.758000	25.386937	0.001014	20.790332
911.242096	-2.986100	3.588500	-10.714000	25.421880	0.001014	20.805979
912.239768	-3.000900	3.588000	-10.766000	25.389224	0.001012	20.793576
913.237925	-2.999100	3.588000	-10.759000	25.386042	0.001013	20.808399
914.245936	-2.995500	3.588000	-10.747000	25.347271	0.001009	20.780848
915.240777	-3.018900	3.585500	-10.823000	25.313292	0.001012	20.793673
916.239087	-3.016900	3.587200	-10.820000	25.316502	0.001012	20.791680
917.238904	-2.996600	3.587000	-10.748000	25.287321	0.001008	20.783244
918.242834	-3.012100	3.586800	-10.803000	25.284287	0.001009	20.791103
919.238969	-3.000500	3.585600	-10.758000	25.252226	0.001012	20.792578
920.246044	-2.990700	3.585600	-10.722000	25.276209	0.001009	20.773510
921.243038	-3.030500	3.584600	-10.862000	25.284512	0.001009	20.784217
922.242938	-2.997700	3.585500	-10.747000	25.292068	0.001008	20.802235
923.240323	-3.015000	3.583500	-10.803000	25.256550	0.001009	20.798343
924.246563	-2.981400	3.584500	-10.684000	25.239474	0.001007	20.806329
925.241922	-3.004200	3.582800	-10.762000	25.248997	0.001007	20.779853
926.244692	-2.997100	3.584000	-10.740000	25.262492	0.001007	20.796248
927.240442	-2.994900	3.584000	-10.732000	25.294457	0.001005	20.807952
928.238887	-2.981800	3.584000	-10.686000	25.336113	0.001005	20.787663
929.238883	-2.995700	3.583000	-10.732000	25.354678	0.001004	20.796821
930.240573	-2.988800	3.582500	-10.707000	25.381051	0.001004	20.808603
931.241765	-3.022900	3.579900	-10.821000	25.361289	0.001002	20.802511
932.238966	-2.995200	3.580200	-10.722000	25.373968	0.001004	20.793430
933.240371	-3.007700	3.580800	-10.767000	25.385178	0.001002	20.787142
934.239774	-3.000800	3.580800	-10.744000	25.402526	0.001003	20.778957
935.241926	-3.006400	3.579600	-10.761000	25.410652	0.001002	20.790911
936.251032	-3.023100	3.578600	-10.817000	25.439706	0.001002	20.796377
937.242702	-2.983200	3.580000	-10.679000	25.473579	0.001000	20.778709
938.241382	-3.011400	3.578400	-10.776000	25.493706	0.001001	20.795603
939.242422	-2.992500	3.578700	-10.708000	25.538635	0.001000	20.793306
940.241973	-3.009900	3.579200	-10.771000	25.545297	0.000998	20.799997
941.244228	-2.991800	3.578100	-10.704000	25.571885	0.001001	20.781654
942.243247	-2.985000	3.576500	-10.674000	25.583040	0.000997	20.788115
943.242332	-2.988600	3.578600	-10.694000	25.569944	0.000997	20.805783
944.243570	-3.010100	3.576500	-10.765000	25.549519	0.000996	20.807556
945.246466	-3.004500	3.576100	-10.744000	25.568553	0.000998	20.787316
946.247959	-3.006500	3.575200	-10.748000	25.553815	0.000997	20.781050
947.241188	-3.033000	3.576000	-10.843000	25.564674	0.000995	20.791481
948.245414	-2.986000	3.576000	-10.677000	25.565945	0.000995	20.797973
949.245586	-2.989400	3.575900	-10.689000	25.592730	0.000995	20.787415
950.248005	-2.990400	3.576300	-10.693000	25.615515	0.000993	20.790384
951.243803	-2.990600	3.575500	-10.692000	25.635066	0.000993	20.794373
952.243130	-3.005000	3.573700	-10.738000	25.612877	0.000992	20.810020
953.244760	-3.005800	3.574700	-10.744000	25.632530	0.000994	20.799412
954.242469	-2.981400	3.574200	-10.656000	25.640308	0.000992	20.793948
955.243062	-3.019900	3.573200	-10.790000	25.640207	0.000991	20.785786
956.247226	-2.983200	3.573900	-10.661000	25.626661	0.000990	20.801104
957.243388	-2.999900	3.573000	-10.718000	25.595131	0.000990	20.831078
958.243289	-2.993200	3.572400	-10.691000	25.564215	0.000990	20.803822
959.244354	-3.020300	3.571800	-10.787000	25.517198	0.000987	20.817297
960.243258	-3.008800	3.571300	-10.745000	25.465260	0.000988	20.809711
961.247118	-2.980300	3.572100	-10.645000	25.453129	0.000988	20.795158
962.245771	-2.985200	3.571500	-10.660000	25.478552	0.000986	20.801722
963.247032	-3.007800	3.571400	-10.741000	25.482404	0.000986	20.795632
964.243927	-3.003300	3.570400	-10.721000	25.495797	0.000986	20.810979
965.245386	-2.999400	3.570600	-10.709000	25.500473	0.000985	20.806665
966.246965	-2.977000	3.570600	-10.627000	25.505241	0.000985	20.810030
967.250357	-2.989700	3.569600	-10.671000	25.543139	0.000984	20.785975
968.249365	-2.994400	3.569300	-10.687000	25.539957	0.000982	20.813126
969.244984	-2.999900	3.569800	-10.708000	25.539389	0.000983	20.798331
970.246942	-2.986000	3.569800	-10.657000	25.512051	0.000982	20.800749
971.249366	-3.008700	3.569000	-10.737000	25.489813	0.000981	20.822513
972.248465	-2.990700	3.569700	-10.675000	25.506287	0.000983	20.829572
973.251055	-3.004800	3.568700	-10.722000	25.531585	0.000980	20.816098
974.250984	-3.011800	3.567600	-10.743000	25.574031	0.000981	20.803249
975.249662	-2.990800	3.568200	-10.671000	25.554621	0.000981	20.815050
976.249671	-3.030300	3.566300	-10.805000	25.569461	0.000980	20.819996
977.255096	-3.007400	3.567200	-10.727000	25.535590	0.000979	20.813482
978.252630	-3.002600	3.566400	-10.707000	25.526820	0.000979	20.817476
979.249646	-2.991900	3.566700	-10.670000	25.539170	0.000978	20.820396
980.248808	-3.016700	3.565400	-10.754000	25.517328	0.000978	20.820746
981.254758	-2.997500	3.565100	-10.685000	25.522197	0.000978	20.791023
982.254821	-2.999600	3.565100	-10.693000	25.532983	0.000977	20.827458
983.249772	-2.990200	3.565500	-10.660000	25.539049	0.000976	20.812688
984.251471	-2.997800	3.563800	-10.682000	25.539077	0.000978	20.824095
985.249597	-2.989600	3.565400	-10.658000	25.553062	0.000975	20.820597
986.250969	-3.002000	3.565000	-10.701000	25.555997	0.000973	20.818802
987.248833	-3.021300	3.563100	-10.764000	25.567380	0.000973	20.807950
988.250597	-2.992200	3.563100	-10.660000	25.574287	0.000972	20.828635
989.251360	-3.021300	3.562300	-10.761000	25.586244	0.000975	20.815988
990.251150	-2.989500	3.562700	-10.650000	25.586515	0.000972	20.821002
991.254749	-3.010900	3.562800	-10.726000	25.564553	0.000972	20.827869
992.251172	-2.991100	3.562100	-10.654000	25.600160	0.000970	20.824275
993.250653	-3.000500	3.562000	-10.687000	25.585108	0.000970	20.816270
994.255009	-2.990700	3.561700	-10.651000	25.561128	0.000969	20.812576
995.259292	-3.005200	3.560800	-10.699000	25.551287	0.000970	20.826874
996.251852	-3.003700	3.560400	-10.694000	25.539335	0.000968	20.831467
997.287621	-3.008100	3.559600	-10.706000	25.569404	0.000968	20.836534
998.270178	-2.980600	3.561400	-10.615000	25.611848	0.000966	20.817047
999.274506	-2.996500	3.559500	-10.666000	25.629736	0.000965	20.831219
1000.274522	-3.014300	3.558900	-10.725000	25.649073	0.000966	20.814605
1001.258900	-3.005400	3.558400	-10.693000	25.654467	0.000967	20.808642
1002.258283	-3.014400	3.557000	-10.721000	25.696331	0.000966	20.827456
1003.256200	-3.007800	3.557900	-10.701000	25.706522	0.000963	20.832002
1004.259818	-3.007300	3.557200	-10.697000	25.701283	0.000964	20.818206
1005.257936	-2.983500	3.558800	-10.617000	25.720712	0.000963	20.814961
1006.262985	-3.021700	3.556600	-10.746000	25.719619	0.000964	20.838993
1007.258337	-3.037800	3.554800	-10.796000	25.711026	0.000963	20.827992
1008.258229	-3.002800	3.556500	-10.678000	25.719301	0.000962	20.847682
1009.261054	-2.993800	3.556500	-10.645000	25.714084	0.000963	20.838649
1010.261907	-2.989100	3.555800	-10.628000	25.736724	0.000961	20.818716
1011.264680	-3.032000	3.554000	-10.775000	25.755609	0.000960	20.835314
1012.258953	-3.007100	3.554900	-10.689000	25.781272	0.000960	20.841177
1013.258182	-2.990800	3.555300	-10.631000	25.813743	0.000959	20.823061
1014.257930	-3.005300	3.554100	-10.680000	25.772951	0.000960	20.836612
1015.265739	-3.010500	3.552200	-10.693000	25.779933	0.000958	20.820867
1016.260358	-3.003100	3.553300	-10.670000	25.793949	0.000958	20.819772
1017.261813	-2.985700	3.553400	-10.609000	25.802495	0.000958	20.812710
1018.281971	-3.003700	3.553000	-10.671000	25.785279	0.000959	20.833823
1019.261810	-3.000000	3.553000	-10.658000	25.753776	0.000958	20.849594
1020.258178	-2.994500	3.552100	-10.634000	25.756707	0.000957	20.839262
1021.260397	-2.989000	3.553500	-10.621000	25.769631	0.000957	20.833278
1022.263888	-3.001900	3.552700	-10.664000	25.760462	0.000954	20.826438
1023.264531	-3.024700	3.550200	-10.737000	25.771470	0.000955	20.841288
1024.260283	-3.002400	3.551300	-10.662000	25.710254	0.000954	20.831009
1025.294214	-2.982400	3.550100	-10.587000	25.714703	0.000955	20.823150
1026.279999	-2.970600	3.551000	-10.546000	25.720118	0.000954	20.819580
1027.281686	-2.991200	3.551400	-10.622000	25.728420	0.000954	20.835505
1028.283193	-2.983900	3.550500	-10.594000	25.736097	0.000955	20.847483
1029.288391	-3.002900	3.550500	-10.659000	25.746263	0.000953	20.827349
1030.282581	-2.997900	3.549200	-10.639000	25.770189	0.000953	20.864657
1031.286571	-2.989800	3.548900	-10.610000	25.791903	0.000951	20.841898
1032.291406	-3.020500	3.547600	-10.715000	25.767431	0.000951	20.832016
1033.287402	-3.018800	3.547000	-10.706000	25.781845	0.000952	20.836537
1034.266518	-3.007300	3.547300	-10.667000	25.781548	0.000952	20.827231
1035.281099	-3.010100	3.547400	-10.676000	25.777871	0.000951	20.840132
1036.269753	-2.986400	3.547400	-10.593000	25.790989	0.000948	20.832446
1037.267331	-3.012800	3.546200	-10.682000	25.799313	0.000948	20.845549
1038.300991	-3.011900	3.545800	-10.679000	25.816855	0.000950	20.841359
1039.289364	-3.032100	3.544800	-10.747000	25.853894	0.000948	20.821668
1040.270313	-3.008000	3.545600	-10.664000	25.881547	0.000948	20.842809
1041.285853	-3.002200	3.544500	-10.640000	25.876525	0.000945	20.844876
1042.289560	-3.002800	3.544200	-10.641000	25.817898	0.000946	20.838613
1043.296739	-2.996200	3.543900	-10.617000	25.788336	0.000947	20.844953
1044.269735	-2.990700	3.544500	-10.600000	25.757949	0.000945	20.838613
1045.278280	-3.012900	3.542900	-10.674000	25.769303	0.000945	20.828207
1046.285985	-3.007000	3.543600	-10.653000	25.772783	0.000946	20.872003
1047.300247	-3.009000	3.542200	-10.658000	25.761429	0.000943	20.842109
1048.277014	-2.998100	3.543400	-10.621000	25.792754	0.000944	20.861719
1049.270217	-3.001800	3.542900	-10.633000	25.795065	0.000942	20.866410
1050.270804	-3.000800	3.542700	-10.629000	25.794145	0.000941	20.845573
1051.272443	-2.996400	3.541100	-10.608000	25.803138	0.000942	20.857451
1052.274881	-3.001200	3.540400	-10.625000	25.781150	0.000941	20.866658
1053.297288	-3.008700	3.540400	-10.651000	25.764706	0.000938	20.838288
1054.297324	-2.978100	3.540700	-10.543000	25.713672	0.000940	20.842502
1055.300047	-2.993900	3.540000	-10.596000	25.703039	0.000939	20.872124
1056.293744	-2.990900	3.541100	-10.590000	25.678988	0.000939	20.851762
1057.275830	-2.984100	3.539500	-10.560000	25.649444	0.000937	20.858124
1058.278753	-2.992000	3.540200	-10.592000	25.644924	0.000937	20.859748
1059.289833	-3.000700	3.538800	-10.618000	25.681873	0.000937	20.850392
1060.306074	-3.004100	3.539000	-10.628000	25.719466	0.000936	20.855434
1061.314649	-2.992700	3.538900	-10.590000	25.771265	0.000934	20.858152
1062.292987	-3.017300	3.536900	-10.670000	25.800235	0.000935	20.862121
1063.295811	-3.026900	3.535800	-10.701000	25.778349	0.000934	20.883283
1064.312727	-3.002000	3.536600	-10.616000	25.756410	0.000934	20.866463
1065.296978	-3.009400	3.537800	-10.645000	25.703739	0.000933	20.862871
1066.277890	-3.010200	3.535400	-10.640000	25.683764	0.000932	20.857507
1067.280929	-2.999900	3.536200	-10.607000	25.670370	0.000931	20.870132
1068.277540	-3.011600	3.536300	-10.648000	25.690796	0.000932	20.861250
1069.295832	-2.998800	3.534500	-10.598000	25.723295	0.000930	20.881563
1070.283223	-2.996200	3.534900	-10.591000	25.759569	0.000930	20.863472
1071.282609	-2.988500	3.535700	-10.565000	25.809086	0.000928	20.852047
1072.281546	-2.983300	3.536000	-10.548000	25.822972	0.000927	20.886856
1073.284725	-3.009300	3.533600	-10.633000	25.835667	0.000926	20.882065
1074.283454	-2.994900	3.536100	-10.590000	25.840739	0.000924	20.868195
1075.281320	-2.996000	3.533000	-10.584000	25.793759	0.000926	20.885960
1076.287018	-2.986800	3.532900	-10.551000	25.800691	0.000926	20.868269
1077.281175	-2.998400	3.531900	-10.589000	25.813640	0.000924	20.867999
1078.304977	-3.024400	3.530300	-10.674000	25.848393	0.000923	20.890581
1079.284408	-3.020300	3.530900	-10.664000	25.832847	0.000921	20.877336
1080.300446	-3.015700	3.530000	-10.644000	25.888713	0.000921	20.878455
1081.297894	-2.987900	3.530900	-10.548000	25.888941	0.000923	20.872995
1082.303709	-2.965600	3.532100	-10.472000	25.918627	0.000920	20.868204
1083.298069	-3.010000	3.530100	-10.624000	25.888371	0.000921	20.889964
1084.299851	-3.010600	3.529900	-10.626000	25.900948	0.000920	20.868461
1085.284982	-2.975100	3.529700	-10.501000	25.896401	0.000921	20.884754
1086.325697	-3.011200	3.528400	-10.623000	25.901250	0.000919	20.886781
1087.285208	-2.988400	3.528900	-10.544000	25.895589	0.000918	20.884413
1088.284517	-3.003400	3.528200	-10.596000	25.918741	0.000920	20.896765
1089.285015	-3.023700	3.527600	-10.666000	25.933921	0.000919	20.881197
1090.286231	-3.016100	3.528000	-10.638000	25.945449	0.000916	20.879976
1091.287567	-2.988100	3.528000	-10.541000	25.935587	0.000916	20.884767
1092.313939	-3.011500	3.526400	-10.619000	25.941972	0.000918	20.903034
1093.304453	-2.992700	3.526900	-10.553000	25.965968	0.000916	20.875935
1094.304576	-3.021300	3.525700	-10.651000	25.986614	0.000916	20.902364
1095.290170	-2.975900	3.526700	-10.494000	25.997419	0.000915	20.894255
1096.295026	-2.983200	3.526400	-10.519000	25.969031	0.000915	20.892761
1097.295901	-2.989500	3.525200	-10.538000	25.970845	0.000915	20.877989
1098.297103	-2.972200	3.525500	-10.476000	25.962378	0.000913	20.887974
1099.298703	-2.981400	3.525900	-10.511000	26.009128	0.000911	20.888001
1100.292718	-2.993500	3.524400	-10.549000	25.995790	0.000911	20.878869
1101.292734	-3.021600	3.523500	-10.645000	25.981037	0.000910	20.880642
1102.290712	-2.973400	3.523900	-10.477000	25.994081	0.000911	20.900384
1103.316675	-2.994500	3.523700	-10.550000	25.998030	0.000911	20.900084
1104.290522	-3.014800	3.521500	-10.615000	25.968624	0.000910	20.889982
1105.316139	-2.980500	3.523400	-10.501000	25.913780	0.000911	20.889411
1106.322257	-2.994700	3.522100	-10.547000	25.901583	0.000909	20.892805
1107.313003	-2.972600	3.523600	-10.472000	25.854235	0.000908	20.890759
1108.321414	-3.015200	3.521400	-10.616000	25.813596	0.000908	20.912996
1109.322356	-2.993200	3.520200	-10.536000	25.834914	0.000907	20.906436
1110.311229	-3.001600	3.519700	-10.564000	25.833698	0.000908	20.892414
1111.319429	-3.017400	3.519100	-10.617000	25.805482	0.000906	20.887304
1112.316451	-2.985200	3.518800	-10.503000	25.776913	0.000905	20.904124
1113.321377	-2.988700	3.519800	-10.517000	25.785882	0.000905	20.894642
1114.315967	-2.985700	3.518800	-10.505000	25.778952	0.000903	20.885786
1115.303470	-3.006500	3.518400	-10.577000	25.810828	0.000904	20.905001
1116.298179	-3.029400	3.516300	-10.651000	25.847103	0.000905	20.916783
1117.297597	-3.028500	3.518000	-10.653000	25.860843	0.000905	20.909250
1118.332194	-2.986100	3.518600	-10.505000	25.884792	0.000903	20.914341
1119.298344	-3.016500	3.518600	-10.613000	25.905636	0.000904	20.906833
1120.297734	-2.987300	3.517400	-10.507000	25.913910	0.000903	20.909928
1121.302855	-3.014300	3.515000	-10.594000	25.927104	0.000901	20.917967
1122.296104	-2.991300	3.515500	-10.515000	25.907157	0.000900	20.896982
1123.300406	-3.019100	3.514800	-10.609000	25.870243	0.000899	20.919166
1124.295918	-3.017000	3.514800	-10.603000	25.852310	0.000899	20.931022
1125.304747	-3.005800	3.514800	-10.564000	25.860535	0.000899	20.909888
1126.317948	-2.989800	3.514700	-10.507000	25.873631	0.000898	20.884165
1127.327189	-2.989000	3.514300	-10.503000	25.899834	0.000897	20.905271
1128.315775	-2.980500	3.515700	-10.477000	25.891714	0.000897	20.896641
1129.318088	-2.981000	3.513300	-10.472000	25.886674	0.000896	20.886837
1130.321920	-2.997400	3.513800	-10.532000	25.894127	0.000897	20.896694
1131.316713	-2.986800	3.513000	-10.491000	25.927187	0.000897	20.880121
1132.304433	-2.997300	3.512500	-10.528000	25.955459	0.000896	20.903781
1133.296575	-2.991400	3.512500	-10.507000	25.945600	0.000896	20.917109
1134.306208	-3.023100	3.509800	-10.609000	25.956283	0.000893	20.897497
1135.298506	-2.994200	3.511700	-10.513000	25.959192	0.000895	20.883351
1136.300750	-3.002900	3.510900	-10.542000	25.961995	0.000893	20.880004
1137.303246	-2.981500	3.510800	-10.467000	25.986540	0.000892	20.885222
1138.299687	-2.990600	3.511500	-10.500000	25.986290	0.000892	20.871696
1139.298533	-3.030400	3.508600	-10.631000	25.987857	0.000892	20.872796
1140.297629	-3.013000	3.509000	-10.572000	26.026112	0.000890	20.904116
1141.314749	-3.000000	3.510100	-10.529000	26.031303	0.000891	20.909805
1142.312807	-2.990000	3.508000	-10.488000	26.027105	0.000891	20.891364
1143.321126	-3.009900	3.507100	-10.555000	26.041513	0.000888	20.875021
1144.318902	-3.005300	3.507100	-10.539000	26.079914	0.000890	20.895111
1145.317286	-3.001100	3.507300	-10.524000	26.093969	0.000888	20.876992
1146.331613	-2.996100	3.506100	-10.504000	26.111130	0.000888	20.897078
1147.316869	-2.973900	3.507400	-10.430000	26.098071	0.000886	20.885855
1148.301374	-3.000600	3.506300	-10.520000	26.086271	0.000887	20.874473
1149.323414	-3.018700	3.506000	-10.583000	26.084534	0.000887	20.868461
1150.322189	-2.997900	3.505600	-10.508000	26.099684	0.000884	20.886053
1151.324829	-2.980900	3.505800	-10.450000	26.111260	0.000885	20.853590
1152.322312	-3.008200	3.504000	-10.540000	26.122585	0.000883	20.889623
1153.320529	-2.966900	3.506300	-10.402000	26.139228	0.000882	20.891172
1154.341377	-2.998900	3.505000	-10.511000	26.154750	0.000883	20.881640
1155.326986	-2.996800	3.505100	-10.502000	26.157884	0.000882	20.882892
1156.341999	-3.003900	3.503700	-10.524000	26.120158	0.000881	20.863952
1157.317446	-3.006200	3.503400	-10.531000	26.075081	0.000881	20.860860
1158.319215	-3.014900	3.500000	-10.550000	26.066143	0.000879	20.863258
1159.328838	-3.004200	3.503700	-10.525000	26.053176	0.000878	20.849756
1160.302840	-3.004900	3.500800	-10.518000	26.065347	0.000880	20.880475
1161.320651	-2.984700	3.503000	-10.455000	26.058441	0.000880	20.861210
1162.327466	-3.014200	3.500600	-10.550000	26.073622	0.000878	20.858920
1163.323979	-2.986300	3.501200	-10.455000	26.073076	0.000879	20.863113
1164.319989	-2.989600	3.499900	-10.462000	26.101964	0.000877	20.866060
1165.325566	-2.979700	3.499500	-10.427000	26.083610	0.000876	20.860420
1166.305789	-2.995900	3.500400	-10.486000	26.089374	0.000875	20.862893
1167.306701	-3.008200	3.498300	-10.523000	26.095756	0.000875	20.867882
1168.304506	-2.990000	3.498500	-10.459000	26.070143	0.000874	20.844045
1169.303435	-2.982100	3.499100	-10.433000	26.082542	0.000874	20.842753
1170.306386	-2.983500	3.499600	-10.439000	26.113617	0.000873	20.836044
1171.303644	-2.959800	3.499400	-10.356000	26.083437	0.000874	20.850290
1172.307473	-2.972300	3.497400	-10.394000	26.083613	0.000875	20.845725
1173.306498	-3.001100	3.496300	-10.492000	26.089026	0.000872	20.831724
1174.307944	-3.001200	3.498000	-10.497000	26.056859	0.000872	20.852509
1175.306528	-3.019300	3.494800	-10.551000	26.066423	0.000873	20.852636
1176.330466	-3.000000	3.494100	-10.480000	26.052041	0.000871	20.857151
1177.322955	-2.964500	3.495900	-10.362000	26.081895	0.000871	20.857749
1178.333998	-3.015400	3.493800	-10.534000	26.102683	0.000870	20.847817
1179.312062	-2.997900	3.495100	-10.477000	26.112991	0.000872	20.843949
1180.311390	-3.018000	3.493800	-10.543000	26.066294	0.000872	20.854876
1181.333953	-2.989000	3.492900	-10.440000	26.075880	0.000870	20.837008
1182.308238	-2.984800	3.493600	-10.427000	26.072823	0.000869	20.844367
1183.311360	-3.008200	3.491900	-10.503000	26.038719	0.000868	20.853723
1184.308605	-2.990100	3.493200	-10.445000	26.011914	0.000867	20.840543
1185.333418	-3.006000	3.492600	-10.497000	26.009752	0.000867	20.854017
1186.326111	-2.998800	3.492400	-10.472000	26.003540	0.000866	20.853940
1187.334175	-2.991800	3.491400	-10.445000	26.001328	0.000864	20.838442
1188.330723	-2.995100	3.490500	-10.452000	26.018688	0.000865	20.837866
1189.328635	-2.996600	3.491400	-10.461000	25.996158	0.000865	20.858377
1190.326544	-2.988900	3.490200	-10.429000	26.021985	0.000866	20.850661
1191.326618	-3.033300	3.487900	-10.578000	26.003305	0.000863	20.851807
1192.332834	-3.006800	3.488200	-10.488000	26.027244	0.000864	20.857841
1193.310827	-2.994400	3.488200	-10.443000	26.040905	0.000862	20.857816
1194.310349	-2.978500	3.488500	-10.389000	26.039384	0.000862	20.840642
1195.318736	-3.004200	3.488000	-10.477000	26.064442	0.000859	20.853016
1196.332541	-2.990800	3.488200	-10.432000	26.077134	0.000861	20.852018
1197.332614	-2.981800	3.488900	-10.401000	26.081850	0.000860	20.809816
1198.313273	-2.954800	3.487200	-10.302000	26.042031	0.000859	20.843301
1199.312237	-3.004300	3.486300	-10.472000	26.000300	0.000859	20.831720
1200.312891	-2.992900	3.485400	-10.431000	25.980528	0.000858	20.848364
1201.328426	-2.976700	3.486700	-10.378000	25.995303	0.000858	20.853251
1202.332928	-3.002700	3.485600	-10.464000	26.033033	0.000857	20.854649
1203.311997	-2.998100	3.485200	-10.448000	26.038894	0.000856	20.856269
1204.329024	-3.007600	3.483700	-10.477000	26.088050	0.000856	20.867252
1205.316329	-3.004700	3.481400	-10.460000	26.115839	0.000856	20.843018
1206.314495	-3.009600	3.484400	-10.485000	26.118473	0.000853	20.857992
1207.328794	-2.997600	3.482600	-10.437000	26.103989	0.000854	20.836802
1208.321386	-3.002400	3.482000	-10.453000	26.090604	0.000853	20.850852
1209.312387	-3.016800	3.482300	-10.505000	26.055506	0.000853	20.847357
1210.351055	-2.997300	3.482300	-10.436000	26.070037	0.000852	20.851051
1211.337983	-2.989300	3.482500	-10.409000	26.057943	0.000851	20.834633
1212.332945	-3.022200	3.480400	-10.518000	26.054985	0.000849	20.852049
1213.335101	-3.018100	3.479000	-10.499000	26.056725	0.000852	20.827719
1214.334152	-2.993500	3.480500	-10.418000	26.046987	0.000851	20.853022
1215.340687	-3.032600	3.479600	-10.551000	26.051481	0.000849	20.851373
1216.313957	-2.996600	3.480200	-10.427000	26.069491	0.000849	20.828218
1217.370561	-3.010200	3.479800	-10.474000	26.098225	0.000847	20.845708
1218.333064	-3.003300	3.478900	-10.447000	26.127982	0.000848	20.822978
1219.335293	-2.979500	3.478800	-10.364000	26.122319	0.000846	20.843840
1220.346561	-3.007000	3.477200	-10.455000	26.166648	0.000846	20.837648
1221.340269	-2.985400	3.476600	-10.378000	26.171145	0.000845	20.839796
1222.317406	-2.999000	3.475700	-10.422000	26.217957	0.000844	20.825196
1223.315950	-2.992400	3.476800	-10.403000	26.221035	0.000842	20.832082
1224.335482	-2.996300	3.475200	-10.412000	26.212569	0.000843	20.843489
1225.340979	-2.989400	3.476600	-10.392000	26.232112	0.000843	20.828515
1226.335235	-2.983300	3.476100	-10.369000	26.223200	0.000842	20.834732
1227.346731	-2.985900	3.475400	-10.376000	26.248256	0.000841	20.828144
1228.334378	-2.989500	3.475000	-10.387000	26.214013	0.000840	20.829293
1229.340939	-2.991300	3.473800	-10.390000	26.208727	0.000841	20.824456
1230.338730	-2.984000	3.473700	-10.364000	26.209149	0.000839	20.834837
1231.320750	-2.988000	3.472800	-10.376000	26.200286	0.000839	20.850586
1232.319799	-3.008900	3.472200	-10.445000	26.209649	0.000837	20.838184
1233.322098	-3.024900	3.472000	-10.499000	26.211166	0.000836	20.826433
1234.327539	-3.011000	3.472600	-10.454000	26.197757	0.000835	20.836666
1235.322560	-2.990100	3.470500	-10.377000	26.198898	0.000838	20.840183
1236.322195	-2.981000	3.471700	-10.346000	26.205109	0.000835	20.817028
1237.321517	-3.003800	3.470600	-10.424000	26.203324	0.000837	20.821397
1238.323780	-3.009600	3.470600	-10.444000	26.183953	0.000836	20.827062
1239.321289	-3.002400	3.470600	-10.420000	26.128772	0.000835	20.824719
1240.324659	-2.973000	3.469300	-10.313000	26.154256	0.000832	20.830886
1241.324622	-3.000800	3.468200	-10.406000	26.194833	0.000832	20.822349
1242.323387	-3.024400	3.467400	-10.486000	26.227743	0.000833	20.808478
1243.340962	-2.979800	3.468400	-10.334000	26.241454	0.000830	20.824627
1244.324036	-3.006600	3.467800	-10.426000	26.246992	0.000832	20.801269
1245.323977	-3.001700	3.467100	-10.406000	26.238250	0.000830	20.826148
1246.326362	-2.998900	3.466500	-10.395000	26.235098	0.000831	20.797851
1247.323442	-2.997300	3.467100	-10.390000	26.233488	0.000831	20.797656
1248.322984	-3.014300	3.465100	-10.444000	26.190402	0.000829	20.825482
1249.323766	-3.013400	3.464500	-10.439000	26.181511	0.000829	20.811806
1250.326619	-2.996600	3.465400	-10.383000	26.186979	0.000830	20.823465
1251.345015	-2.971500	3.467100	-10.301000	26.199296	0.000828	20.808816
1252.342179	-3.007900	3.464000	-10.419000	26.232653	0.000827	20.809618
1253.349262	-2.998700	3.464700	-10.388000	26.256022	0.000824	20.790429
1254.340632	-2.995700	3.464700	-10.378000	26.266726	0.000826	20.840066
1255.349734	-3.011600	3.463100	-10.428000	26.276786	0.000826	20.818882
1256.324688	-2.981000	3.462800	-10.322000	26.250518	0.000825	20.815243
1257.327013	-2.975800	3.464700	-10.309000	26.212330	0.000824	20.803895
1258.343957	-2.978200	3.464200	-10.316000	26.167383	0.000823	20.815628
1259.327745	-2.998100	3.461700	-10.377000	26.131475	0.000825	20.818901
1260.332769	-2.990500	3.461800	-10.351000	26.103707	0.000824	20.814234
1261.345053	-3.002500	3.461000	-10.391000	26.141933	0.000824	20.800961
1262.350229	-2.987800	3.461700	-10.341000	26.157385	0.000821	20.803685
1263.359975	-3.002100	3.458400	-10.380000	26.125772	0.000821	20.813645
1264.355430	-3.009700	3.460100	-10.413000	26.129399	0.000821	20.794056
1265.353563	-3.021400	3.458300	-10.449000	26.154190	0.000821	20.795259
1266.353208	-2.999300	3.459800	-10.375000	26.172374	0.000817	20.783185
1267.330141	-3.002000	3.458200	-10.380000	26.157697	0.000819	20.806369
1268.330561	-2.988000	3.459400	-10.335000	26.111111	0.000818	20.797491
1269.330113	-3.004900	3.457800	-10.389000	26.098468	0.000818	20.794745
1270.354906	-3.003300	3.456900	-10.381000	26.090973	0.000818	20.813293
1271.367517	-2.991700	3.456600	-10.339000	26.124256	0.000815	20.792207
1272.331315	-2.956500	3.456600	-10.219000	26.141620	0.000814	20.796853
1273.352474	-2.979300	3.456400	-10.295000	26.159583	0.000814	20.806841
1274.356731	-3.004700	3.455500	-10.381000	26.139641	0.000814	20.798657
1275.350754	-3.026500	3.455400	-10.456000	26.126206	0.000816	20.799382
1276.351896	-3.004800	3.455400	-10.382000	26.156363	0.000813	20.794598
1277.334418	-3.006700	3.453600	-10.384000	26.181995	0.000812	20.797121
1278.337005	-3.003400	3.452500	-10.368000	26.174597	0.000813	20.802962
1279.334943	-2.997300	3.454100	-10.352000	26.164666	0.000811	20.802941
1280.332866	-2.986600	3.454200	-10.315000	26.148651	0.000810	20.786848
1281.335083	-3.009700	3.452700	-10.390000	26.110333	0.000813	20.790071
1282.349210	-3.008800	3.451300	-10.383000	26.077352	0.000813	20.777322
1283.333379	-3.003400	3.452500	-10.368000	26.073503	0.000810	20.803326
1284.337513	-3.001600	3.451700	-10.360000	26.040226	0.000809	20.777477
1285.334286	-2.991800	3.450100	-10.320000	26.033896	0.000806	20.780127
1286.351746	-2.983200	3.451700	-10.296000	26.064698	0.000810	20.791160
1287.341509	-3.012300	3.451100	-10.395000	26.133250	0.000808	20.777536
1288.340573	-3.001300	3.449200	-10.351000	26.129027	0.000806	20.780880
1289.340537	-3.006300	3.449800	-10.371000	26.139215	0.000805	20.779737
1290.340751	-2.999700	3.448900	-10.344000	26.172820	0.000805	20.788375
1291.357124	-3.008200	3.448100	-10.372000	26.199149	0.000805	20.778321
1292.366270	-2.981500	3.448800	-10.281000	26.209286	0.000805	20.803207
1293.336944	-2.971700	3.449700	-10.250000	26.200272	0.000804	20.768070
1294.343067	-2.999700	3.448400	-10.342000	26.198884	0.000805	20.775211
1295.337960	-3.003400	3.446300	-10.349000	26.218483	0.000803	20.777836
1296.341114	-2.974300	3.447500	-10.253000	26.207458	0.000803	20.773395
1297.341963	-2.984300	3.447400	-10.286000	26.177139	0.000801	20.777542
1298.349344	-2.999100	3.446500	-10.335000	26.132192	0.000801	20.761774
1299.360298	-2.979500	3.446100	-10.266000	26.107555	0.000802	20.775900
1300.343530	-2.981500	3.446100	-10.273000	26.091862	0.000801	20.769615
1301.343246	-3.013500	3.443300	-10.374000	26.059054	0.000801	20.751823
1302.359696	-2.992500	3.444600	-10.307000	26.034317	0.000800	20.772014
1303.341499	-2.982500	3.444300	-10.272000	26.051584	0.000800	20.775613
1304.343792	-2.989000	3.444000	-10.293000	26.045153	0.000798	20.767729
1305.346143	-3.001200	3.442600	-10.331000	26.044826	0.000798	20.774512
1306.364157	-3.005000	3.443600	-10.347000	26.042096	0.000798	20.753277
1307.365767	-3.025500	3.440800	-10.409000	26.084920	0.000796	20.767856
1308.360947	-2.973100	3.442300	-10.234000	26.107304	0.000798	20.768535
1309.355433	-2.990900	3.442100	-10.293000	26.109068	0.000797	20.768886
1310.346885	-3.003200	3.440300	-10.331000	26.087882	0.000798	20.758029
1311.349679	-3.011000	3.440000	-10.357000	26.064956	0.000796	20.752063
1312.348475	-3.035300	3.437900	-10.433000	26.076510	0.000798	20.774105
1313.347896	-2.998700	3.439500	-10.312000	26.061684	0.000795	20.755888
1314.344303	-2.998200	3.439300	-10.310000	26.100630	0.000793	20.756140
1315.351276	-2.981300	3.439100	-10.252000	26.140713	0.000794	20.752318
1316.346199	-2.985100	3.439100	-10.265000	26.158200	0.000793	20.760407
1317.344991	-3.011000	3.436500	-10.346000	26.124524	0.000793	20.766398
1318.347878	-2.980000	3.437400	-10.242000	26.054183	0.000794	20.768266
1319.352021	-3.002800	3.437900	-10.322000	26.031780	0.000791	20.754292
1320.363380	-3.038200	3.435300	-10.436000	26.043776	0.000791	20.739791
1321.354867	-3.014600	3.436100	-10.356000	26.036549	0.000792	20.770938
1322.375307	-3.015600	3.436100	-10.361000	26.049738	0.000790	20.756214
1323.362091	-2.993200	3.435800	-10.283000	26.046780	0.000791	20.737594
1324.368831	-3.012400	3.434400	-10.344000	26.074049	0.000789	20.755510
1325.374602	-2.996500	3.434400	-10.290000	26.111456	0.000790	20.766543
1326.373749	-3.019300	3.432900	-10.362000	26.114308	0.000786	20.751391
1327.367331	-2.993500	3.434600	-10.281000	26.143914	0.000788	20.754112
1328.372777	-3.006800	3.433300	-10.321000	26.127817	0.000786	20.763543
1329.366084	-2.995500	3.432300	-10.279000	26.098757	0.000788	20.752835
1330.348896	-3.018800	3.432300	-10.361000	26.067287	0.000786	20.744923
1331.367018	-2.993000	3.432400	-10.272000	26.113734	0.000786	20.728528
1332.372398	-3.019200	3.431700	-10.360000	26.125852	0.000784	20.761094
1333.372541	-2.994500	3.431500	-10.275000	26.153221	0.000784	20.741653
1334.363657	-3.022200	3.431500	-10.370000	26.121802	0.000781	20.725255
1335.367085	-3.023700	3.429700	-10.370000	26.102377	0.000782	20.748886
1336.358419	-2.993400	3.429900	-10.266000	26.088819	0.000780	20.750436
1337.368966	-2.974700	3.431100	-10.206000	26.061198	0.000780	20.757771
1338.370626	-2.997000	3.430000	-10.279000	26.051161	0.000778	20.753851
1339.372995	-2.997300	3.429100	-10.277000	26.047537	0.000781	20.773918
1340.359991	-3.006600	3.428800	-10.308000	26.029974	0.000778	20.744417
1341.371822	-3.004500	3.426100	-10.292000	26.096091	0.000778	20.750156
1342.354109	-2.997100	3.427200	-10.270000	26.139033	0.000777	20.753950
1343.350070	-3.003400	3.426500	-10.290000	26.148594	0.000778	20.744590
1344.380823	-2.989400	3.426800	-10.242000	26.204651	0.000777	20.749236
1345.350605	-3.005400	3.425500	-10.293000	26.242845	0.000776	20.758221
1346.349570	-2.980900	3.426200	-10.211000	26.243539	0.000777	20.734261
1347.352387	-3.009100	3.425900	-10.308000	26.233134	0.000775	20.735184
1348.353191	-3.027300	3.424600	-10.365000	26.241778	0.000775	20.773270
1349.355158	-2.993600	3.425100	-10.252000	26.261423	0.000775	20.747017
1350.356432	-3.008500	3.424700	-10.301000	26.309245	0.000773	20.762835
1351.350374	-2.991300	3.424700	-10.244000	26.332043	0.000774	20.759668
1352.371328	-2.988600	3.425000	-10.235000	26.367430	0.000774	20.754930
1353.350721	-3.002500	3.422400	-10.275000	26.363008	0.000773	20.732941
1354.387362	-3.014100	3.421100	-10.311000	26.374282	0.000772	20.745220
1355.362075	-2.966600	3.423600	-10.156000	26.384066	0.000769	20.733716
1356.355103	-2.991400	3.423300	-10.239000	26.340067	0.000771	20.737859
1357.376853	-2.991900	3.420200	-10.232000	26.329511	0.000772	20.748114
1358.371536	-3.002600	3.422400	-10.275000	26.312157	0.000771	20.728302
1359.370606	-2.971500	3.422700	-10.170000	26.303640	0.000771	20.746296
1360.364787	-2.996800	3.420300	-10.249000	26.297506	0.000769	20.744399
1361.380549	-2.994800	3.419300	-10.237000	26.285961	0.000769	20.766462
1362.373712	-3.004500	3.420000	-10.274000	26.276694	0.000768	20.765684
1363.376611	-2.997100	3.418900	-10.246000	26.241085	0.000768	20.742700
1364.384615	-3.002000	3.419000	-10.263000	26.278384	0.000768	20.749364
1365.382301	-3.001000	3.418200	-10.256000	26.312826	0.000768	20.770227
1366.380818	-3.023600	3.416900	-10.330000	26.279947	0.000769	20.758521
1367.381501	-3.018100	3.416300	-10.310000	26.314115	0.000766	20.758246
1368.357766	-3.006300	3.416900	-10.271000	26.290697	0.000766	20.735659
1369.363343	-3.003500	3.416600	-10.260000	26.269141	0.000765	20.750507
1370.359199	-2.985300	3.415600	-10.196000	26.246095	0.000764	20.749633
1371.357819	-2.989800	3.416800	-10.215000	26.244458	0.000763	20.746091
1372.375485	-2.995400	3.416400	-10.231000	26.284060	0.000764	20.758862
1373.366326	-2.989500	3.416200	-10.211000	26.303802	0.000763	20.758787
1374.375348	-3.000400	3.414600	-10.244000	26.340880	0.000763	20.751006
1375.392680	-3.009400	3.415000	-10.275000	26.349542	0.000763	20.745960
1376.367610	-3.036100	3.411800	-10.357000	26.361065	0.000761	20.761335
1377.364800	-2.983900	3.413600	-10.184000	26.383359	0.000761	20.760507
1378.360240	-3.000800	3.411900	-10.238000	26.421005	0.000763	20.768472
1379.360380	-3.007100	3.412900	-10.262000	26.442952	0.000760	20.755917
1380.375328	-3.017400	3.410300	-10.290000	26.452661	0.000760	20.750029
1381.378966	-2.994500	3.411100	-10.214000	26.421871	0.000758	20.769343
1382.393764	-2.985000	3.411400	-10.182000	26.391974	0.000758	20.744983
1383.380047	-3.002600	3.410700	-10.240000	26.403916	0.000758	20.759357
1384.379043	-2.999600	3.411000	-10.230000	26.421547	0.000757	20.752896
1385.382870	-2.980900	3.410700	-10.166000	26.455883	0.000757	20.758483
1386.368602	-3.006300	3.409000	-10.248000	26.434879	0.000756	20.751597
1387.366365	-3.003100	3.408700	-10.236000	26.421843	0.000755	20.744184
1388.385474	-2.976500	3.409100	-10.147000	26.393460	0.000756	20.768763
1389.382341	-2.996900	3.406800	-10.209000	26.351401	0.000756	20.757786
1390.380576	-2.999900	3.408200	-10.223000	26.332427	0.000754	20.761003
1391.362154	-2.985100	3.407500	-10.171000	26.325600	0.000754	20.760780
1392.362771	-3.007400	3.408200	-10.248000	26.358573	0.000754	20.752666
1393.389792	-2.994100	3.406000	-10.196000	26.331110	0.000752	20.768214
1394.373296	-3.010300	3.405900	-10.252000	26.348215	0.000753	20.774025
1395.365222	-3.006800	3.405300	-10.238000	26.337934	0.000754	20.752786
1396.371741	-3.016100	3.407000	-10.275000	26.317570	0.000752	20.765985
1397.363371	-3.018600	3.403700	-10.273000	26.353349	0.000750	20.765908
1398.363573	-3.041400	3.403300	-10.350000	26.358689	0.000750	20.750886
1399.363938	-3.001600	3.403900	-10.216000	26.371551	0.000750	20.777563
1400.373800	-3.005400	3.403900	-10.229000	26.370033	0.000751	20.772719
1401.370222	-2.976500	3.404200	-10.132000	26.329706	0.000747	20.774864
1402.365859	-2.988300	3.403600	-10.170000	26.322901	0.000748	20.777981
1403.374196	-3.004800	3.402400	-10.222000	26.316394	0.000747	20.761485
1404.367393	-2.992600	3.402100	-10.181000	26.350560	0.000748	20.772589
1405.367107	-2.993500	3.402600	-10.183000	26.391404	0.000747	20.752946
1406.390294	-3.009300	3.401500	-10.235000	26.416707	0.000747	20.773162
1407.385602	-3.015400	3.400100	-10.251000	26.376477	0.000745	20.752642
1408.383073	-2.983500	3.401800	-10.147000	26.333766	0.000745	20.754762
1409.391782	-3.009500	3.399500	-10.230000	26.349511	0.000744	20.774854
1410.367155	-3.004800	3.400200	-10.216000	26.336495	0.000746	20.793067
1411.391932	-2.998200	3.399000	-10.190000	26.322440	0.000741	20.766138
1412.376727	-3.005700	3.400000	-10.218000	26.326760	0.000743	20.765739
1413.370352	-2.968000	3.400600	-10.092000	26.359884	0.000742	20.771528
1414.374702	-2.989400	3.399100	-10.161000	26.409790	0.000742	20.776167
1415.369530	-2.997800	3.397700	-10.183000	26.443284	0.000741	20.773796
1416.371068	-3.005400	3.397500	-10.209000	26.428115	0.000739	20.791266
1417.372520	-2.994900	3.398100	-10.175000	26.438317	0.000739	20.777812
1418.374252	-2.984700	3.398200	-10.142000	26.456539	0.000738	20.761514
1419.372397	-3.004200	3.395900	-10.200000	26.469375	0.000739	20.772519
1420.372712	-3.007200	3.396100	-10.212000	26.492613	0.000736	20.784497
1421.369639	-3.002700	3.396000	-10.196000	26.484819	0.000738	20.777137
1422.371821	-2.994900	3.395800	-10.169000	26.446133	0.000735	20.791832
1423.373258	-3.000800	3.393500	-10.182000	26.458722	0.000735	20.789787
1424.376797	-3.018100	3.393800	-10.242000	26.464753	0.000736	20.781150
1425.392810	-3.012000	3.393900	-10.221000	26.414452	0.000734	20.780378
1426.370888	-3.042500	3.392100	-10.319000	26.383713	0.000733	20.785045
1427.375961	-3.023900	3.391200	-10.253000	26.366929	0.000733	20.793308
1428.372189	-3.010400	3.393200	-10.214000	26.357666	0.000732	20.786369
1429.371715	-3.015600	3.391400	-10.225000	26.338450	0.000732	20.795505
1430.376380	-2.997900	3.392200	-10.167000	26.357568	0.000731	20.800020
1431.372898	-2.998800	3.391700	-10.170000	26.367007	0.000730	20.784376
1432.373299	-3.003800	3.391900	-10.188000	26.378576	0.000730	20.792211
1433.376351	-3.004700	3.390200	-10.186000	26.411603	0.000729	20.803594
1434.389808	-2.999800	3.391100	-10.171000	26.423073	0.000729	20.795682
1435.392689	-2.993700	3.390200	-10.148000	26.444105	0.000729	20.774621
1436.394797	-2.993500	3.388800	-10.144000	26.451677	0.000729	20.784603
1437.398524	-2.997100	3.388800	-10.156000	26.440507	0.000730	20.787600
1438.392252	-2.988100	3.389500	-10.127000	26.487585	0.000729	20.780392
1439.404858	-3.007700	3.388800	-10.192000	26.479464	0.000726	20.801152
1440.396430	-3.003900	3.387300	-10.174000	26.497562	0.000728	20.803696
1441.396573	-3.012000	3.387800	-10.203000	26.501934	0.000725	20.781064
1442.398851	-2.988100	3.387000	-10.119000	26.512093	0.000726	20.787008
1443.399539	-2.977000	3.386500	-10.080000	26.527086	0.000726	20.766517
1444.385578	-3.015200	3.385700	-10.207000	26.490890	0.000725	20.791301
1445.382250	-2.990400	3.386600	-10.126000	26.530687	0.000725	20.785310
1446.380957	-3.021300	3.385500	-10.227000	26.551667	0.000726	20.808770
1447.384943	-2.992800	3.386400	-10.134000	26.580916	0.000724	20.800713
1448.383253	-2.992700	3.384700	-10.129000	26.569321	0.000723	20.807075
1449.383931	-2.982500	3.384600	-10.094000	26.589952	0.000723	20.797942
1450.381018	-2.985300	3.384700	-10.103000	26.620216	0.000721	20.796123
1451.385032	-3.002500	3.383700	-10.159000	26.614679	0.000721	20.783919
1452.380910	-2.986000	3.383800	-10.103000	26.657928	0.000723	20.814119
1453.403219	-3.000300	3.383500	-10.149000	26.670687	0.000719	20.813670
1454.398584	-3.009500	3.381200	-10.175000	26.677093	0.000720	20.790713
1455.404470	-2.987300	3.382100	-10.102000	26.620642	0.000719	20.801767
1456.404443	-2.992400	3.382000	-10.119000	26.584573	0.000718	20.819087
1457.403075	-3.015100	3.379700	-10.188000	26.579511	0.000717	20.797404
1458.402428	-3.018800	3.380200	-10.203000	26.542173	0.000716	20.811080
1459.402746	-3.022200	3.380100	-10.214000	26.541479	0.000717	20.834090
1460.400747	-2.984300	3.380800	-10.087000	26.473305	0.000715	20.810135
1461.383868	-2.988100	3.381200	-10.101000	26.458463	0.000714	20.788104
1462.384032	-2.982800	3.379300	-10.079000	26.440861	0.000714	20.801706
1463.383454	-2.995100	3.379100	-10.120000	26.503453	0.000713	20.816730
1464.387954	-3.000900	3.377700	-10.134000	26.491889	0.000714	20.817908
1465.405056	-2.983600	3.378000	-10.076000	26.513936	0.000714	20.783645
1466.399470	-3.005800	3.377600	-10.151000	26.502942	0.000711	20.802466
1467.408266	-2.998600	3.376500	-10.123000	26.509575	0.000712	20.809607
1468.410364	-2.990900	3.377300	-10.100000	26.466228	0.000712	20.811556
1469.408704	-2.983300	3.376400	-10.071000	26.424468	0.000709	20.804196
1470.399146	-3.012700	3.375700	-10.169000	26.390403	0.000709	20.792243
1471.402775	-2.999600	3.376300	-10.127000	26.324036	0.000709	20.790976
1472.429741	-3.011000	3.375600	-10.163000	26.359868	0.000709	20.808495
1473.403384	-3.005000	3.374400	-10.138000	26.358107	0.000708	20.817631
1474.404544	-3.012000	3.373500	-10.160000	26.385153	0.000709	20.799295
1475.401949	-3.008000	3.374100	-10.148000	26.416589	0.000706	20.818562
1476.402863	-3.004200	3.373500	-10.134000	26.465900	0.000707	20.813123
1477.402903	-3.013500	3.373500	-10.165000	26.490758	0.000706	20.823883
1478.410130	-3.027700	3.372700	-10.210000	26.515960	0.000703	20.799429
1479.402774	-3.007300	3.372200	-10.140000	26.538161	0.000705	20.814634
1480.401510	-3.027100	3.372300	-10.208000	26.524682	0.000704	20.802982
1481.403637	-2.991200	3.372800	-10.088000	26.518775	0.000704	20.811743
1482.390410	-2.992000	3.372000	-10.088000	26.543903	0.000703	20.801913
1483.386247	-3.001800	3.371500	-10.119000	26.540354	0.000701	20.818735
1484.389746	-2.968900	3.372700	-10.012000	26.555083	0.000702	20.815048
1485.389634	-3.003700	3.370100	-10.122000	26.570553	0.000701	20.825857
1486.387688	-2.998000	3.370500	-10.104000	26.616056	0.000702	20.830822
1487.389347	-3.004800	3.369600	-10.124000	26.655405	0.000699	20.828653
1488.403389	-2.993500	3.369800	-10.086000	26.641980	0.000699	20.824166
1489.388865	-3.004900	3.369600	-10.125000	26.645704	0.000700	20.823168
1490.392897	-3.011600	3.367400	-10.141000	26.693717	0.000698	20.818331
1491.418993	-3.019100	3.367800	-10.167000	26.682345	0.000700	20.827287
1492.411524	-3.002300	3.367600	-10.109000	26.649354	0.000699	20.806449
1493.408964	-2.990200	3.368300	-10.071000	26.663110	0.000698	20.835450
1494.411462	-2.970800	3.368600	-10.006000	26.688652	0.000699	20.831257
1495.413407	-3.012200	3.366600	-10.139000	26.701017	0.000698	20.809549
1496.419455	-2.979000	3.366700	-10.028000	26.704216	0.000697	20.817507
1497.411338	-2.994000	3.366900	-10.079000	26.678354	0.000694	20.817110
1498.410878	-3.013900	3.364800	-10.140000	26.649456	0.000696	20.830259
1499.415702	-2.982900	3.365900	-10.039000	26.621896	0.000694	20.833373
1500.410250	-2.982300	3.366100	-10.038000	26.671649	0.000694	20.826965
1501.422894	-2.997300	3.364000	-10.081000	26.699299	0.000691	20.842434
1502.413743	-3.015600	3.363700	-10.143000	26.708010	0.000692	20.828907
1503.409727	-2.994700	3.364500	-10.075000	26.722061	0.000692	20.828334
1504.409078	-3.010500	3.363200	-10.124000	26.757404	0.000692	20.813607
1505.418948	-3.016300	3.363700	-10.145000	26.743875	0.000691	20.825610
1506.413207	-3.031200	3.360800	-10.186000	26.735583	0.000693	20.832446
1507.415696	-3.012200	3.361700	-10.125000	26.720537	0.000690	20.828699
1508.429422	-3.001900	3.363700	-10.097000	26.713934	0.000689	20.821587
1509.411695	-3.011200	3.360400	-10.118000	26.736498	0.000688	20.842848
1510.417402	-3.008300	3.362200	-10.113000	26.688237	0.000687	20.836529
1511.420409	-3.008200	3.361300	-10.110000	26.694242	0.000688	20.831186
1512.412249	-2.990500	3.361400	-10.050000	26.648320	0.000689	20.837177
1513.412465	-2.999700	3.360300	-10.079000	26.640643	0.000687	20.847477
1514.396504	-2.997600	3.359300	-10.069000	26.676658	0.000683	20.841009
1515.397326	-3.016000	3.358300	-10.127000	26.679934	0.000685	20.834820
1516.431729	-2.984200	3.360100	-10.026000	26.707986	0.000687	20.853064
1517.424237	-2.982400	3.358500	-10.015000	26.728903	0.000685	20.826679
1518.420450	-3.000900	3.357600	-10.075000	26.748313	0.000683	20.845718
1519.416029	-3.021100	3.358000	-10.144000	26.730836	0.000682	20.851854
1520.400118	-3.008200	3.355800	-10.093000	26.689255	0.000684	20.854621
1521.401739	-3.029100	3.354400	-10.160000	26.704048	0.000683	20.831088
1522.406489	-3.024400	3.354600	-10.144000	26.673712	0.000682	20.856539
1523.402297	-3.025200	3.355200	-10.148000	26.685873	0.000683	20.827040
1524.402806	-3.003000	3.356500	-10.078000	26.718239	0.000683	20.851044
1525.403448	-2.998900	3.354100	-10.057000	26.685496	0.000682	20.847049
1526.402542	-2.987200	3.355300	-10.022000	26.686214	0.000681	20.841133
1527.403322	-3.000000	3.354700	-10.063000	26.680678	0.000680	20.864964
1528.428398	-2.985200	3.355300	-10.016000	26.691846	0.000679	20.843950
1529.419724	-3.019600	3.352400	-10.122000	26.671340	0.000680	20.860318
1530.416514	-3.012200	3.352700	-10.098000	26.662154	0.000680	20.862462
1531.426121	-3.012800	3.352000	-10.098000	26.660809	0.000678	20.865378
1532.429578	-2.991800	3.352100	-10.028000	26.691466	0.000678	20.878653
1533.430465	-3.011600	3.351000	-10.091000	26.716040	0.000676	20.875858
1534.423321	-2.995400	3.351800	-10.039000	26.716213	0.000677	20.862282
1535.425424	-3.006100	3.350900	-10.072000	26.718623	0.000677	20.850956
1536.411730	-2.989200	3.350800	-10.015000	26.697868	0.000676	20.865176
1537.407623	-2.990900	3.350100	-10.019000	26.725518	0.000674	20.858836
1538.408041	-2.993400	3.348800	-10.023000	26.739019	0.000674	20.878098
1539.407301	-2.988000	3.350100	-10.009000	26.736165	0.000674	20.887082
1540.425250	-3.014000	3.349600	-10.095000	26.731921	0.000672	20.872384
1541.435482	-3.006200	3.349200	-10.068000	26.755399	0.000672	20.868963
1542.424015	-3.020100	3.347700	-10.109000	26.781066	0.000673	20.876750
1543.427571	-3.017700	3.348500	-10.104000	26.778286	0.000671	20.865895
1544.423143	-2.993200	3.346800	-10.017000	26.776051	0.000671	20.853691
1545.426326	-2.999800	3.347200	-10.040000	26.760963	0.000670	20.900159
1546.424683	-2.970800	3.347900	-9.943700	26.744035	0.000669	20.873184
1547.407506	-3.025100	3.345600	-10.119000	26.727975	0.000668	20.862254
1548.409433	-3.001000	3.347100	-10.043000	26.749543	0.000670	20.869713
1549.407803	-3.013300	3.345300	-10.078000	26.759721	0.000667	20.900806
1550.407328	-3.023300	3.345600	-10.114000	26.835644	0.000666	20.887528
1551.406662	-2.984800	3.346400	-9.987400	26.832818	0.000665	20.883264
1552.405444	-2.994900	3.345700	-10.019000	26.799061	0.000663	20.887729
1553.406626	-3.013700	3.343400	-10.075000	26.806286	0.000662	20.860856
1554.408451	-2.994500	3.345600	-10.017000	26.764015	0.000661	20.881417
1555.423098	-2.990400	3.344000	-9.998800	26.748776	0.000663	20.870838
1556.408878	-3.000200	3.344000	-10.032000	26.751334	0.000662	20.886211
1557.427299	-3.006800	3.343200	-10.050000	26.784097	0.000663	20.894968
1558.426835	-2.996500	3.342300	-10.014000	26.760618	0.000659	20.884640
1559.434210	-3.013800	3.342600	-10.073000	26.758313	0.000658	20.871892
1560.424201	-3.010600	3.341600	-10.059000	26.770399	0.000659	20.905377
1561.411503	-3.000400	3.342600	-10.028000	26.793039	0.000659	20.880727
1562.424506	-3.024500	3.340100	-10.101000	26.808352	0.000658	20.880476
1563.410511	-3.003000	3.341800	-10.035000	26.831934	0.000658	20.888539
1564.426957	-2.976800	3.341000	-9.944500	26.845884	0.000657	20.897823
1565.429428	-2.991400	3.340400	-9.990700	26.847693	0.000656	20.893478
1566.413216	-3.009900	3.340100	-10.052000	26.862537	0.000657	20.876637
1567.429853	-3.042900	3.338200	-10.156000	26.876015	0.000655	20.894929
1568.431593	-3.015400	3.338800	-10.067000	26.840700	0.000656	20.891663
1569.429670	-3.017900	3.340100	-10.079000	26.829404	0.000654	20.887892
1570.429384	-3.006600	3.338300	-10.036000	26.821689	0.000653	20.886773
1571.429687	-2.992500	3.338500	-9.989500	26.847253	0.000652	20.910104
1572.438885	-3.006700	3.337200	-10.033000	26.888873	0.000653	20.905487
1573.429687	-2.999400	3.336500	-10.006000	26.930893	0.000652	20.894161
1574.429335	-3.016200	3.336000	-10.061000	26.946080	0.000652	20.904691
1575.439219	-3.010700	3.335800	-10.042000	26.959459	0.000649	20.904867
1576.414009	-3.011900	3.336500	-10.048000	26.940200	0.000650	20.897356
1577.413959	-3.029600	3.334300	-10.100000	26.932980	0.000649	20.899104
1578.414730	-2.985300	3.336600	-9.959400	26.952361	0.000650	20.886826
1579.434091	-3.015600	3.334100	-10.052000	26.911465	0.000648	20.904496
1580.432549	-2.987200	3.335200	-9.960900	26.865700	0.000648	20.910160
1581.431950	-2.974100	3.335100	-9.916900	26.878559	0.000648	20.901280
1582.432285	-2.984600	3.334100	-9.948900	26.882605	0.000647	20.890651
1583.432072	-2.979300	3.334000	-9.931800	26.864982	0.000646	20.908964
1584.431129	-2.989000	3.333600	-9.963400	26.850863	0.000645	20.898562
1585.443383	-2.995300	3.332900	-9.982700	26.834608	0.000647	20.923467
1586.435361	-2.997900	3.330900	-9.984600	26.854734	0.000644	20.902928
1587.417955	-2.982500	3.331900	-9.935400	26.870324	0.000644	20.912913
1588.422633	-2.990900	3.330800	-9.959400	26.909638	0.000644	20.905504
1589.418490	-2.993300	3.330300	-9.967500	26.934482	0.000644	20.914837
1590.419518	-2.984200	3.329900	-9.935200	26.928081	0.000640	20.910298
1591.421302	-3.004200	3.329800	-10.002000	26.848839	0.000641	20.917388
1592.457985	-3.000800	3.329100	-9.988700	26.825458	0.000641	20.910949
1593.418620	-2.962600	3.330900	-9.867100	26.788896	0.000641	20.912594
1594.434683	-3.015200	3.328400	-10.035000	26.759488	0.000640	20.911476
1595.418891	-3.005900	3.328100	-10.003000	26.757453	0.000640	20.903742
1596.443333	-2.999100	3.327700	-9.978900	26.804638	0.000638	20.904241
1597.435649	-2.998100	3.328600	-9.978800	26.816480	0.000639	20.901923
1598.422002	-2.999100	3.327400	-9.978300	26.857855	0.000638	20.907963
1599.426417	-3.008900	3.327300	-10.010000	26.888883	0.000637	20.915927
1600.424847	-3.018000	3.325400	-10.034000	26.915363	0.000635	20.893244
1601.422934	-3.020900	3.326400	-10.048000	26.951520	0.000637	20.885506
1602.447783	-2.983800	3.324900	-9.918700	26.936339	0.000636	20.907223
1603.439067	-3.009000	3.326300	-10.008000	26.999843	0.000635	20.908493
1604.424508	-3.006900	3.324800	-9.996600	27.002647	0.000637	20.909891
1605.442858	-3.005700	3.324800	-9.992000	27.014417	0.000632	20.896124
1606.445658	-2.987300	3.324800	-9.930500	27.043001	0.000633	20.912541
1607.426105	-3.004000	3.322300	-9.978400	27.059355	0.000630	20.892005
1608.425672	-2.993600	3.322700	-9.946300	27.035211	0.000631	20.889062
1609.426018	-3.001800	3.323500	-9.974900	27.027150	0.000631	20.907506
1610.425686	-3.002900	3.323500	-9.978500	27.049760	0.000630	20.891365
1611.441037	-2.994900	3.322400	-9.949600	27.009958	0.000628	20.900649
1612.452332	-3.012200	3.321300	-10.003000	26.998892	0.000629	20.878617
1613.442770	-3.004500	3.321000	-9.977200	26.989835	0.000628	20.877095
1614.446491	-2.983300	3.322300	-9.909700	27.024824	0.000624	20.888099
1615.436518	-2.984200	3.321200	-9.910000	27.028427	0.000625	20.865645
1616.427637	-3.017000	3.320700	-10.017000	27.045401	0.000628	20.886981
1617.448944	-2.992400	3.320600	-9.935800	27.060812	0.000624	20.883039
1618.441790	-2.983400	3.320500	-9.905100	27.040394	0.000623	20.886213
1619.445965	-2.993400	3.319600	-9.936000	27.023171	0.000623	20.876005
1620.442283	-2.999700	3.317900	-9.951900	27.062107	0.000621	20.883393
1621.449027	-3.014400	3.318800	-10.001000	27.090722	0.000623	20.887515
1622.445691	-2.993900	3.317400	-9.930700	27.079386	0.000623	20.876115
1623.451766	-2.998700	3.317500	-9.946900	27.051942	0.000621	20.861792
1624.447994	-3.004200	3.317000	-9.963900	27.065023	0.000622	20.880163
1625.446518	-2.999500	3.316700	-9.947300	27.087010	0.000620	20.869085
1626.447165	-2.984800	3.316800	-9.897700	27.082496	0.000619	20.886355
1627.448772	-2.998400	3.316000	-9.942800	27.095130	0.000618	20.878199
1628.451513	-2.986800	3.315400	-9.900400	27.104186	0.000617	20.868342
1629.449804	-3.003900	3.315000	-9.956800	27.117788	0.000618	20.850254
1630.452743	-2.984000	3.314400	-9.888900	27.121855	0.000617	20.864775
1631.448285	-3.004600	3.315500	-9.960700	27.147271	0.000616	20.859043
1632.452150	-2.995000	3.314500	-9.925800	27.157368	0.000614	20.867775
1633.450655	-2.999200	3.314500	-9.939900	27.178213	0.000614	20.896799
1634.455075	-2.987400	3.312800	-9.895500	27.137993	0.000615	20.859669
1635.434196	-3.006800	3.312000	-9.957600	27.098941	0.000614	20.854058
1636.452518	-3.032600	3.312600	-10.044000	27.011897	0.000613	20.862772
1637.435985	-3.020200	3.311400	-10.000000	26.977801	0.000613	20.855512
1638.434708	-3.009800	3.311500	-9.966000	26.920201	0.000610	20.852593
1639.436482	-3.012200	3.311500	-9.973900	26.933830	0.000611	20.852073
1640.436978	-3.009700	3.310400	-9.961400	26.955147	0.000611	20.851224
1641.441208	-2.992000	3.311400	-9.905900	26.985307	0.000610	20.850732
1642.438011	-3.007300	3.311400	-9.957300	26.993818	0.000610	20.869722
1643.437782	-3.015100	3.310900	-9.982000	27.003227	0.000609	20.858796
1644.439589	-2.997900	3.310400	-9.923000	26.964940	0.000609	20.851588
1645.437213	-3.025500	3.308900	-10.010000	26.948265	0.000606	20.860897
1646.446587	-2.994900	3.309300	-9.910400	26.928161	0.000607	20.854907
1647.437719	-3.000100	3.308100	-9.923800	26.889105	0.000608	20.845980
1648.456093	-2.994800	3.309700	-9.911300	26.851482	0.000607	20.850350
1649.459107	-3.003600	3.308000	-9.935300	26.832644	0.000608	20.852745
1650.454248	-2.989800	3.307000	-9.885700	26.869901	0.000607	20.863180
1651.457198	-3.009700	3.305800	-9.948000	26.891146	0.000606	20.845188
1652.482151	-3.023300	3.304900	-9.990800	26.934753	0.000604	20.846362
1653.459943	-2.982800	3.306300	-9.860000	26.964184	0.000602	20.847509
1654.459272	-2.993300	3.307600	-9.898800	26.992380	0.000603	20.849784
1655.454406	-2.983200	3.305700	-9.859600	27.022950	0.000602	20.840698
1656.466073	-3.009500	3.304400	-9.943800	27.002679	0.000603	20.834537
1657.440744	-3.001800	3.303500	-9.915700	27.001187	0.000602	20.842046
1658.440040	-3.000500	3.304100	-9.913300	27.004167	0.000603	20.833189
1659.440843	-3.019100	3.302500	-9.969600	27.003819	0.000601	20.840425
1660.443035	-2.985500	3.303100	-9.860200	26.989354	0.000601	20.832517
1661.440414	-3.001200	3.303000	-9.912200	26.976718	0.000600	20.831664
1662.446057	-2.992400	3.301800	-9.879600	26.952646	0.000599	20.843493
1663.456210	-2.989300	3.302600	-9.871900	26.935052	0.000597	20.841922
1664.459281	-3.011100	3.302600	-9.943400	26.954609	0.000598	20.837881
1665.460519	-2.995600	3.301800	-9.888100	26.951010	0.000597	20.848011
1666.456814	-3.034300	3.300300	-10.013000	26.963269	0.000596	20.822408
1667.466816	-3.025800	3.299500	-9.982500	27.001359	0.000595	20.840797
1668.443485	-2.993700	3.301300	-9.881600	27.034642	0.000594	20.847240
1669.444115	-3.016200	3.298600	-9.947200	27.056084	0.000595	20.835613
1670.444507	-2.980000	3.299800	-9.832000	27.076406	0.000593	20.834714
1671.450547	-2.996600	3.299500	-9.886500	27.042710	0.000593	20.833543
1672.462022	-2.992000	3.298700	-9.868200	27.003728	0.000593	20.826583
1673.462915	-3.006000	3.298000	-9.912700	27.008340	0.000592	20.825532
1674.464082	-3.026400	3.298500	-9.981900	27.023805	0.000591	20.838239
1675.463479	-2.989400	3.298100	-9.858500	27.017454	0.000592	20.830904
1676.472626	-3.034200	3.297500	-10.004000	27.015174	0.000591	20.808697
1677.460667	-3.018400	3.297100	-9.949400	26.987830	0.000591	20.803959
1678.465750	-3.012200	3.296200	-9.927100	26.994702	0.000591	20.821301
1679.463523	-3.008400	3.296100	-9.914700	27.018031	0.000590	20.831010
1680.446222	-3.007200	3.295600	-9.909600	27.025797	0.000589	20.826017
1681.450061	-2.991900	3.296200	-9.861200	27.039994	0.000587	20.816588
1682.446924	-2.985900	3.295300	-9.839200	27.034984	0.000586	20.837627
1683.465173	-3.011700	3.293500	-9.917400	27.052355	0.000587	20.838975
1684.464641	-2.987900	3.295700	-9.846200	27.065105	0.000586	20.819556
1685.463911	-2.973100	3.293900	-9.791400	27.056528	0.000588	20.814249
1686.469066	-2.982600	3.293700	-9.822200	27.015456	0.000585	20.811351
1687.469820	-3.019000	3.291300	-9.935300	26.955873	0.000584	20.813548
1688.475204	-3.004200	3.292500	-9.890100	26.933613	0.000582	20.824355
1689.467615	-3.015900	3.291300	-9.924300	26.947657	0.000581	20.810976
1690.465082	-2.992300	3.292300	-9.849800	26.946295	0.000582	20.830943
1691.467057	-3.014600	3.291500	-9.921300	26.922420	0.000582	20.814996
1692.461833	-3.022000	3.289600	-9.939100	26.929267	0.000581	20.832786
1693.449394	-2.996100	3.290300	-9.857200	26.963917	0.000581	20.840129
1694.451725	-2.960200	3.291200	-9.741300	26.958625	0.000579	20.821057
1695.451285	-3.007800	3.289000	-9.891400	26.965131	0.000579	20.823332
1696.467514	-2.983500	3.289500	-9.812800	26.969058	0.000577	20.843876
1697.452253	-3.014300	3.288600	-9.911400	26.976254	0.000576	20.824560
1698.455953	-2.991100	3.289100	-9.837200	27.042091	0.000577	20.830551
1699.451648	-3.019200	3.286600	-9.921200	27.054420	0.000576	20.810233
1700.451540	-3.000500	3.288300	-9.865400	27.039087	0.000575	20.828477
1701.452304	-2.994100	3.288500	-9.845100	27.034720	0.000575	20.805594
1702.451929	-2.991800	3.286500	-9.831900	27.011420	0.000574	20.817250
1703.454534	-3.007700	3.286500	-9.883900	27.032416	0.000574	20.837889
1704.469137	-2.995100	3.285900	-9.841100	27.010034	0.000572	20.818226
1705.472679	-2.979900	3.287000	-9.792900	27.048101	0.000570	20.825689
1706.453589	-2.987800	3.286400	-9.818000	27.089369	0.000569	20.828311
1707.455963	-2.992800	3.285500	-9.831700	27.115077	0.000569	20.820976
1708.457085	-3.014000	3.284900	-9.899800	27.128503	0.000570	20.797969
1709.456338	-3.009700	3.283200	-9.880700	27.121907	0.000568	20.812672
1710.457485	-3.008000	3.283900	-9.877400	27.081685	0.000567	20.814420
1711.474284	-3.003400	3.283700	-9.861700	27.066201	0.000566	20.807382
1712.475087	-3.014100	3.282400	-9.892900	27.083050	0.000566	20.811999
1713.475299	-2.984100	3.283300	-9.796700	27.100100	0.000567	20.806387
1714.477338	-2.999200	3.281500	-9.840500	27.152484	0.000565	20.799328
1715.475839	-3.007700	3.281700	-9.868900	27.182282	0.000564	20.804643
1716.479221	-3.019000	3.280700	-9.903500	27.186352	0.000562	20.790719
1717.482513	-3.032800	3.280100	-9.946900	27.180622	0.000563	20.792542
1718.476987	-2.986500	3.281000	-9.797300	27.147580	0.000563	20.808621
1719.477155	-3.000100	3.281900	-9.844700	27.110086	0.000562	20.805050
1720.481910	-3.000200	3.280400	-9.840400	27.047680	0.000561	20.804877
1721.476370	-2.992200	3.280100	-9.813800	27.027111	0.000561	20.812166
1722.460765	-2.992900	3.279800	-9.815100	26.966537	0.000560	20.796297
1723.476447	-3.001500	3.280500	-9.844800	26.984581	0.000558	20.799269
1724.465173	-3.011800	3.278500	-9.873500	27.009374	0.000559	20.810925
1725.460632	-3.000400	3.278600	-9.835200	27.070990	0.000557	20.818837
1726.484168	-3.007800	3.277800	-9.857400	27.109284	0.000557	20.799503
1727.476373	-2.969300	3.279000	-9.734700	27.121718	0.000557	20.822913
1728.481091	-3.014400	3.276400	-9.875100	27.157650	0.000556	20.788403
1729.480174	-2.999800	3.277600	-9.830500	27.142363	0.000556	20.786305
1730.475996	-3.015600	3.276300	-9.878100	27.144478	0.000556	20.816881
1731.476343	-3.028600	3.274900	-9.917300	27.115347	0.000554	20.809393
1732.488026	-3.002000	3.275900	-9.832600	27.066143	0.000554	20.797366
1733.483822	-3.014000	3.274600	-9.868700	27.036714	0.000553	20.783418
1734.464151	-3.000900	3.275000	-9.826300	27.029522	0.000554	20.797522
1735.468601	-3.018000	3.272700	-9.875900	27.041785	0.000550	20.786146
1736.464934	-3.006900	3.273500	-9.841700	27.050247	0.000550	20.799872
1737.464659	-2.995500	3.273800	-9.805300	27.030666	0.000549	20.799146
1738.483233	-2.989700	3.273400	-9.784100	26.996078	0.000549	20.796606
1739.465628	-3.014600	3.272300	-9.863600	27.025635	0.000549	20.783181
1740.468039	-2.991200	3.271900	-9.786300	27.019505	0.000548	20.788397
1741.465374	-3.004100	3.271500	-9.827000	27.027525	0.000547	20.778918
1742.468585	-3.005500	3.271700	-9.831900	27.039812	0.000546	20.778472
1743.466271	-3.001400	3.272100	-9.819000	27.102714	0.000545	20.786731
1744.487563	-3.009100	3.269400	-9.836900	27.136190	0.000545	20.770613
1745.471036	-2.969600	3.271200	-9.713200	27.193208	0.000546	20.774856
1746.470287	-3.009900	3.269500	-9.839100	27.221391	0.000543	20.797987
1747.487950	-2.990900	3.270900	-9.781300	27.273100	0.000542	20.786936
1748.471266	-3.034400	3.267700	-9.914300	27.234270	0.000541	20.800036
1749.471093	-2.978700	3.268800	-9.734700	27.246628	0.000540	20.769318
1750.471063	-3.015500	3.266800	-9.849400	27.266902	0.000542	20.782124
1751.472678	-2.995400	3.268800	-9.789900	27.287995	0.000540	20.781056
1752.472425	-2.978000	3.268700	-9.733200	27.307985	0.000539	20.770819
1753.477096	-3.015400	3.266800	-9.850000	27.342377	0.000540	20.781707
1754.473339	-3.001300	3.266800	-9.802700	27.326453	0.000539	20.791767
1755.499776	-2.977900	3.268200	-9.730000	27.345606	0.000537	20.797284
1756.490294	-3.016300	3.264900	-9.847300	27.367837	0.000536	20.777921
1757.488966	-2.989000	3.266100	-9.761400	27.393683	0.000538	20.766463
1758.491225	-3.010100	3.266400	-9.831500	27.371661	0.000536	20.777975
1759.497410	-2.981700	3.266500	-9.739000	27.350848	0.000537	20.766520
1760.489764	-3.001400	3.263700	-9.794500	27.337503	0.000534	20.766372
1761.491538	-2.986600	3.265200	-9.750700	27.347028	0.000534	20.762203
1762.495793	-2.978100	3.264300	-9.719600	27.311131	0.000533	20.762603
1763.498988	-2.982200	3.263100	-9.730400	27.260620	0.000533	20.780547
1764.489945	-2.999200	3.263000	-9.785200	27.279402	0.000534	20.772412
1765.475076	-2.999800	3.262700	-9.787000	27.226332	0.000533	20.785887
1766.493798	-2.989700	3.263100	-9.754500	27.203138	0.000531	20.758764
1767.494647	-3.008800	3.261700	-9.813200	27.192693	0.000531	20.788562
1768.491092	-3.013600	3.261500	-9.827100	27.158283	0.000530	20.772445
1769.495689	-2.969600	3.262200	-9.687100	27.142451	0.000529	20.761737
1770.491049	-3.013700	3.259400	-9.821400	27.099845	0.000530	20.775785
1771.475917	-3.000100	3.260000	-9.779100	27.077641	0.000529	20.773842
1772.497744	-2.987700	3.259800	-9.737800	27.067416	0.000527	20.764982
1773.475942	-3.006500	3.258200	-9.795200	27.103543	0.000527	20.751054
1774.478382	-2.999900	3.259400	-9.776500	27.138610	0.000525	20.773046
1775.489176	-2.998700	3.258200	-9.769000	27.165432	0.000526	20.769204
1776.474381	-3.038600	3.256900	-9.895000	27.167392	0.000524	20.765485
1777.476091	-3.033200	3.257100	-9.878100	27.199198	0.000525	20.758121
1778.491029	-2.996500	3.256400	-9.755900	27.243313	0.000525	20.777838
1779.497066	-3.020800	3.256000	-9.834900	27.264747	0.000526	20.775690
1780.493623	-2.971500	3.257200	-9.677800	27.321611	0.000524	20.765559
1781.497971	-2.996900	3.257000	-9.759500	27.304097	0.000525	20.761217
1782.500341	-3.002100	3.255100	-9.769900	27.350638	0.000522	20.768680
1783.475201	-3.017800	3.254800	-9.821800	27.364627	0.000521	20.738655
1784.477906	-2.986000	3.256100	-9.721900	27.392284	0.000520	20.756047
1785.496215	-2.990600	3.254600	-9.732100	27.418530	0.000517	20.754002
1786.503871	-2.994900	3.254400	-9.745500	27.449612	0.000518	20.777685
1787.491998	-3.003900	3.253700	-9.772000	27.458591	0.000517	20.758269
1788.496377	-3.012800	3.253300	-9.800600	27.431776	0.000516	20.772544
1789.503026	-2.995200	3.253500	-9.743400	27.362741	0.000518	20.754303
1790.494937	-2.997300	3.252100	-9.746600	27.333194	0.000515	20.757296
1791.493527	-2.988100	3.252600	-9.717700	27.316647	0.000515	20.767678
1792.494001	-2.981600	3.253900	-9.699300	27.330317	0.000515	20.746341
1793.498768	-3.006900	3.250900	-9.773600	27.316877	0.000512	20.753209
1794.498400	-2.982600	3.252100	-9.698700	27.319283	0.000515	20.756104
1795.497654	-2.991600	3.251100	-9.723900	27.324095	0.000511	20.758574
1796.492682	-2.998900	3.250000	-9.744500	27.314048	0.000513	20.745623
1797.494246	-2.985000	3.248900	-9.697000	27.315409	0.000511	20.765485
1798.477154	-3.018400	3.249200	-9.804900	27.350413	0.000509	20.768453
1799.476497	-3.011200	3.248600	-9.780700	27.374360	0.000509	20.776897
1800.476039	-2.995500	3.249900	-9.733900	27.417001	0.000510	20.736815
1801.477690	-2.977400	3.248800	-9.671900	27.438857	0.000507	20.764494
1802.477679	-2.991400	3.248100	-9.715500	27.468918	0.000509	20.763443
1803.477577	-2.998700	3.246400	-9.734200	27.449799	0.000506	20.746105
1804.478010	-3.006500	3.246900	-9.760800	27.416365	0.000507	20.764152
1805.476924	-3.000300	3.246400	-9.739600	27.393889	0.000504	20.747704
1806.478010	-2.993300	3.246400	-9.716900	27.354297	0.000505	20.726366
1807.477822	-2.979800	3.246500	-9.672600	27.307957	0.000503	20.756091
1808.478358	-3.001300	3.245800	-9.740500	27.245640	0.000504	20.757418
1809.482005	-3.007300	3.245900	-9.759600	27.184878	0.000501	20.739923
1810.480771	-2.991900	3.243200	-9.702700	27.134464	0.000502	20.741848
1811.483449	-2.989700	3.244000	-9.697700	27.180741	0.000503	20.755203
1812.483305	-2.993600	3.244700	-9.712600	27.228628	0.000501	20.738883
1813.499614	-2.975800	3.243700	-9.651200	27.213916	0.000499	20.747794
1814.500518	-2.978800	3.245300	-9.665900	27.172735	0.000499	20.740512
1815.497714	-3.009500	3.242000	-9.756000	27.165815	0.000499	20.760105
1816.507026	-2.989900	3.242200	-9.692100	27.199683	0.000500	20.729684
1817.479311	-3.019300	3.242800	-9.790000	27.240228	0.000496	20.732533
1818.501111	-3.002800	3.241500	-9.732300	27.315402	0.000499	20.729914
1819.499247	-3.010600	3.239900	-9.752000	27.342995	0.000496	20.748188
1820.497888	-3.008600	3.239900	-9.746400	27.369492	0.000493	20.734540
1821.503055	-2.999100	3.241000	-9.718400	27.381402	0.000495	20.739884
1822.498956	-2.993900	3.241500	-9.703700	27.409186	0.000495	20.738436
1823.500094	-2.984700	3.239900	-9.668900	27.406882	0.000493	20.751292
1824.479947	-3.009800	3.238900	-9.746900	27.384755	0.000493	20.733298
1825.484131	-2.983400	3.239000	-9.661700	27.347748	0.000491	20.723571
1826.480098	-2.991000	3.237000	-9.681400	27.326115	0.000490	20.729785
1827.499217	-2.975200	3.239000	-9.633800	27.285631	0.000491	20.725571
1828.497571	-3.012400	3.236900	-9.750200	27.283876	0.000490	20.722857
1829.498954	-2.988700	3.239100	-9.679500	27.299780	0.000490	20.735062
1830.507992	-2.986000	3.236400	-9.663600	27.340439	0.000486	20.721909
1831.503235	-3.005000	3.236200	-9.722400	27.320794	0.000488	20.735338
1832.479330	-2.984600	3.235700	-9.656100	27.278695	0.000484	20.745622
1833.480974	-2.983900	3.234200	-9.649200	27.256544	0.000485	20.744203
1834.480703	-2.998200	3.233600	-9.694200	27.273693	0.000484	20.721624
1835.480957	-3.031400	3.233300	-9.800700	27.290196	0.000484	20.731111
1836.497071	-3.010600	3.232800	-9.732700	27.361473	0.000482	20.725998
1837.481506	-3.009700	3.232600	-9.728000	27.413520	0.000482	20.734261
1838.482916	-3.014700	3.232300	-9.743000	27.459863	0.000482	20.728727
1839.496735	-3.012800	3.232800	-9.739000	27.506127	0.000482	20.714580
1840.481397	-3.012700	3.231200	-9.734100	27.537083	0.000478	20.728183
1841.503433	-3.016600	3.231100	-9.745600	27.560847	0.000479	20.721272
1842.482965	-2.993100	3.231700	-9.670700	27.573947	0.000480	20.725445
1843.484167	-3.016600	3.231200	-9.745700	27.507081	0.000479	20.710798
1844.485182	-3.002000	3.229900	-9.695500	27.479399	0.000477	20.731786
1845.510042	-3.003800	3.231000	-9.704000	27.493869	0.000478	20.727852
1846.507683	-2.979500	3.231100	-9.625500	27.482435	0.000477	20.722987
1847.500323	-3.005800	3.228100	-9.701800	27.508285	0.000474	20.745677
1848.502597	-3.030200	3.228100	-9.780600	27.480976	0.000476	20.736218
1849.517996	-3.013700	3.227900	-9.726800	27.417477	0.000474	20.740613
1850.508770	-3.015700	3.228700	-9.736100	27.421600	0.000473	20.722475
1851.504160	-2.981200	3.229900	-9.628000	27.431399	0.000471	20.728540
1852.486613	-3.015600	3.227900	-9.733100	27.412427	0.000471	20.722256
1853.505359	-2.988000	3.226200	-9.639700	27.462070	0.000470	20.715300
1854.492074	-2.985100	3.227500	-9.632400	27.514682	0.000471	20.752113
1855.487648	-2.999800	3.226200	-9.676400	27.554989	0.000469	20.715852
1856.488692	-2.994300	3.226000	-9.658100	27.585153	0.000468	20.746678
1857.507589	-3.003000	3.224700	-9.682700	27.593512	0.000470	20.722371
1858.488415	-2.989000	3.224700	-9.638100	27.603093	0.000467	20.728218
1859.491688	-2.989300	3.224600	-9.637700	27.597536	0.000467	20.733533
1860.511309	-2.989900	3.224300	-9.638500	27.571126	0.000467	20.739676
1861.513120	-2.994300	3.223600	-9.651500	27.548141	0.000466	20.701849
1862.509587	-3.004300	3.222200	-9.679900	27.578744	0.000465	20.733116
1863.494385	-3.022800	3.221500	-9.736800	27.591869	0.000461	20.729252
1864.511408	-3.002500	3.223100	-9.676300	27.638971	0.000460	20.730180
1865.506599	-2.974400	3.222300	-9.583400	27.656930	0.000459	20.748252
1866.510371	-3.036300	3.220100	-9.775900	27.690164	0.000460	20.739494
1867.511367	-3.007300	3.220200	-9.683100	27.716088	0.000458	20.754676
1868.512678	-2.993400	3.221700	-9.642600	27.722217	0.000458	20.742826
1869.514947	-3.023600	3.219300	-9.732900	27.724175	0.000457	20.742426
1870.498346	-3.007600	3.219200	-9.681300	27.765147	0.000456	20.751889
1871.497898	-3.013700	3.218800	-9.698700	27.724802	0.000455	20.748747
1872.497889	-2.974300	3.219700	-9.574700	27.746382	0.000454	20.710717
1873.501903	-3.001200	3.218000	-9.656400	27.729674	0.000454	20.741321
1874.497481	-3.018400	3.218200	-9.712700	27.788893	0.000454	20.727895
1875.512218	-3.011000	3.217400	-9.685800	27.804297	0.000452	20.716370
1876.496155	-3.010300	3.216600	-9.682400	27.795177	0.000449	20.730427
1877.521054	-2.992800	3.216800	-9.626400	27.748758	0.000451	20.737766
1878.499894	-2.974800	3.216600	-9.568200	27.707274	0.000452	20.738220
1879.519727	-3.013600	3.214900	-9.686400	27.745468	0.000450	20.718333
1880.500270	-3.014700	3.216200	-9.694400	27.713956	0.000450	20.716020
1881.498285	-2.970400	3.216200	-9.551700	27.659966	0.000448	20.731866
1882.498698	-3.003100	3.215200	-9.654300	27.637130	0.000451	20.736389
1883.501298	-2.979300	3.216200	-9.580100	27.612905	0.000448	20.722918
1884.501565	-2.973400	3.214200	-9.556300	27.598125	0.000448	20.732228
1885.527734	-2.995200	3.215800	-9.631000	27.642371	0.000446	20.750198
1886.523921	-2.998300	3.213000	-9.632800	27.646714	0.000446	20.742714
1887.521109	-2.993900	3.212900	-9.618000	27.665968	0.000446	20.749761
1888.518272	-3.002300	3.214700	-9.651000	27.719336	0.000445	20.738030
1889.518745	-3.010100	3.212300	-9.667700	27.734119	0.000442	20.723034
1890.515239	-3.005900	3.210800	-9.650400	27.772656	0.000443	20.725780
1891.505056	-2.981700	3.212000	-9.576000	27.723757	0.000440	20.722089
1892.500407	-2.985700	3.212000	-9.588300	27.709847	0.000442	20.758828
1893.502551	-3.000300	3.209900	-9.629700	27.654995	0.000441	20.738244
1894.502729	-3.000300	3.209500	-9.628000	27.654196	0.000440	20.755933
1895.502761	-3.003600	3.208500	-9.635800	27.646063	0.000440	20.746326
1896.525928	-2.990000	3.209000	-9.593600	27.649435	0.000437	20.738339
1897.522957	-3.009400	3.207000	-9.650500	27.665706	0.000438	20.762299
1898.503779	-2.979500	3.208200	-9.557700	27.728375	0.000436	20.751868
1899.523627	-3.007800	3.206700	-9.644200	27.702431	0.000436	20.757529
1900.526184	-3.010600	3.206900	-9.653900	27.700894	0.000436	20.742232
1901.530956	-3.011600	3.206200	-9.654700	27.716226	0.000436	20.745332
1902.504827	-3.018500	3.206100	-9.676400	27.720188	0.000434	20.751690
1903.504152	-3.024300	3.204400	-9.689100	27.714657	0.000432	20.750392
1904.502973	-2.994000	3.205800	-9.597100	27.692212	0.000432	20.757203
1905.507924	-2.994800	3.205300	-9.599000	27.725048	0.000429	20.751839
1906.520734	-2.983900	3.204800	-9.560900	27.742260	0.000429	20.735494
1907.521619	-2.993200	3.203900	-9.588700	27.781485	0.000429	20.732294
1908.523183	-2.985300	3.204600	-9.564800	27.827235	0.000429	20.756527
1909.528774	-2.966000	3.205000	-9.504700	27.830804	0.000428	20.759170
1910.508559	-2.997800	3.202600	-9.599000	27.792101	0.000427	20.753410
1911.511171	-3.021700	3.203300	-9.676700	27.753146	0.000427	20.751666
1912.509326	-2.999600	3.201700	-9.601400	27.744509	0.000425	20.763363
1913.510028	-3.015100	3.200800	-9.648400	27.801966	0.000424	20.728724
1914.524531	-3.007100	3.201300	-9.625700	27.818505	0.000425	20.750585
1915.509075	-2.989900	3.199800	-9.565800	27.815232	0.000424	20.755352
1916.513066	-3.002900	3.199100	-9.604400	27.824577	0.000423	20.763808
1917.510798	-2.989800	3.198800	-9.562700	27.864475	0.000422	20.732365
1918.509317	-2.992200	3.200000	-9.574500	27.886093	0.000421	20.773090
1919.510087	-3.007900	3.197800	-9.617900	27.908632	0.000422	20.737453
1920.513666	-3.007800	3.197900	-9.618000	27.926206	0.000419	20.774108
1921.512163	-2.972600	3.198800	-9.507600	27.935038	0.000419	20.764031
1922.513210	-3.010000	3.196600	-9.620600	27.914183	0.000416	20.762955
1923.511815	-3.001500	3.197700	-9.596400	27.919414	0.000416	20.765849
1924.513161	-3.026400	3.196100	-9.671900	27.917083	0.000416	20.753546
1925.514180	-3.018700	3.195500	-9.645200	27.909169	0.000418	20.770711
1926.517789	-3.012000	3.196200	-9.625600	27.956031	0.000415	20.780421
1927.512248	-2.987500	3.196400	-9.546700	27.970385	0.000413	20.755513
1928.512546	-3.003000	3.193400	-9.588200	27.986696	0.000413	20.760551
1929.514207	-2.992100	3.194700	-9.557500	27.995273	0.000413	20.766340
1930.531270	-2.993200	3.194100	-9.559700	28.024974	0.000413	20.774900
1931.533270	-3.013300	3.191500	-9.616400	28.027928	0.000412	20.774079
1932.516675	-2.995000	3.193600	-9.564000	28.029288	0.000410	20.778767
1933.518651	-2.995300	3.191900	-9.559600	28.076411	0.000410	20.757925
1934.518005	-2.998500	3.192400	-9.570400	28.097509	0.000411	20.774896
1935.537013	-2.984300	3.192200	-9.524600	28.084837	0.000410	20.758819
1936.540100	-2.979500	3.193400	-9.513900	28.076231	0.000408	20.765330
1937.538175	-2.988400	3.190700	-9.533900	28.035427	0.000406	20.794905
1938.536759	-2.980800	3.191300	-9.511900	27.936181	0.000405	20.768975
1939.546229	-3.001100	3.190400	-9.572800	27.884110	0.000406	20.777258
1940.519946	-2.996100	3.192500	-9.563200	27.883438	0.000405	20.787962
1941.545051	-3.027000	3.187800	-9.649200	27.876003	0.000403	20.791858
1942.523213	-2.996300	3.189200	-9.555400	27.911999	0.000402	20.792526
1943.537983	-2.992500	3.189000	-9.541300	27.876568	0.000400	20.791479
1944.521538	-3.006700	3.187300	-9.580800	27.856458	0.000400	20.769816
1945.521394	-2.998700	3.188900	-9.562300	27.820328	0.000398	20.785138
1946.521512	-3.002500	3.187000	-9.566800	27.820304	0.000398	20.777052
1947.523724	-3.007100	3.186200	-9.580800	27.875175	0.000399	20.787232
1948.536250	-3.001300	3.186100	-9.561500	27.911450	0.000396	20.793870
1949.540485	-2.983200	3.186400	-9.504100	27.935525	0.000395	20.768789
1950.540560	-3.010500	3.185000	-9.585800	27.978221	0.000396	20.790902
1951.537643	-2.997300	3.184100	-9.542900	28.008914	0.000394	20.806623
1952.539051	-2.991900	3.183900	-9.524400	27.968501	0.000393	20.782540
1953.541959	-2.985200	3.183100	-9.500300	27.945811	0.000393	20.778668
1954.542365	-2.983500	3.184500	-9.499300	27.900636	0.000390	20.794839
1955.547264	-2.992400	3.184700	-9.529400	27.882361	0.000391	20.814378
1956.549328	-2.954500	3.183900	-9.405900	27.907280	0.000390	20.797734
1957.546728	-3.009300	3.182100	-9.574500	27.886527	0.000390	20.786803
1958.549555	-2.994600	3.181000	-9.523900	27.887047	0.000389	20.791120
1959.543462	-2.982700	3.179900	-9.483200	27.890964	0.000388	20.782734
1960.543818	-3.022200	3.178900	-9.606300	27.896715	0.000388	20.805118
1961.541493	-3.002300	3.179700	-9.544400	27.919500	0.000386	20.781584
1962.552640	-3.006900	3.178800	-9.556800	27.946106	0.000389	20.803147
1963.551054	-3.011200	3.179900	-9.574600	27.989416	0.000386	20.813076
1964.525574	-3.006100	3.179900	-9.558800	27.984554	0.000383	20.806285
1965.538968	-3.002200	3.177200	-9.537700	27.922695	0.000384	20.791438
1966.543561	-2.975300	3.177300	-9.452800	27.904544	0.000382	20.815368
1967.547309	-2.998600	3.176600	-9.524200	27.922294	0.000382	20.805258
1968.549999	-3.021900	3.174700	-9.592600	27.963004	0.000381	20.792654
1969.548105	-2.995900	3.175400	-9.511900	27.968849	0.000380	20.804228
1970.544272	-3.002200	3.175100	-9.531200	27.961734	0.000378	20.812239
1971.542072	-3.002900	3.174100	-9.529400	28.009434	0.000378	20.791026
1972.547997	-2.981300	3.174700	-9.463300	28.052344	0.000378	20.817149
1973.546561	-3.001300	3.173500	-9.524200	28.077800	0.000377	20.795359
1974.550341	-2.964600	3.173900	-9.408400	28.065009	0.000376	20.799552
1975.528397	-3.021200	3.172500	-9.582700	28.027916	0.000374	20.793508
1976.529022	-2.994900	3.173200	-9.503000	27.971688	0.000373	20.810404
1977.529888	-2.987000	3.174300	-9.480700	27.957847	0.000373	20.808801
1978.547678	-2.998700	3.171800	-9.510200	27.938041	0.000371	20.801193
1979.530664	-2.994300	3.171000	-9.493900	27.949114	0.000371	20.822769
1980.529223	-2.992800	3.170000	-9.486200	27.943858	0.000371	20.823643
1981.528140	-2.988200	3.170000	-9.472000	27.950572	0.000369	20.841306
1982.529455	-3.003000	3.168100	-9.512900	27.955828	0.000368	20.795388
1983.530406	-2.997800	3.167700	-9.494300	27.988770	0.000366	20.812899
1984.550210	-3.012700	3.169400	-9.546600	28.025287	0.000367	20.834483
1985.553626	-2.968200	3.168000	-9.402100	28.039742	0.000367	20.808257
1986.546731	-2.998400	3.167900	-9.498100	28.044202	0.000366	20.813695
1987.546784	-3.013000	3.165900	-9.537300	28.087684	0.000365	20.844188
1988.547458	-2.985700	3.166700	-9.453600	28.134978	0.000365	20.817831
1989.552038	-2.994200	3.167300	-9.482000	28.193151	0.000363	20.828979
1990.553085	-3.015200	3.163800	-9.537000	28.211961	0.000364	20.828476
1991.553831	-2.997700	3.165200	-9.486700	28.217191	0.000362	20.833741
1992.551758	-2.995600	3.164300	-9.477400	28.248294	0.000360	20.830917
1993.533939	-3.031400	3.161700	-9.582700	28.256746	0.000359	20.819039
1994.534635	-3.010700	3.163400	-9.522800	28.225111	0.000359	20.851198
1995.535426	-3.005600	3.162800	-9.505400	28.183486	0.000359	20.833948
1996.538099	-3.014200	3.162000	-9.529500	28.170225	0.000360	20.840986
1997.535529	-2.990800	3.161600	-9.454500	28.229141	0.000358	20.823014
1998.536239	-3.015100	3.160600	-9.528600	28.213715	0.000358	20.823130
1999.551106	-2.998400	3.161300	-9.476600	28.218895	0.000356	20.844940
2000.534414	-2.998300	3.160900	-9.475200	28.212789	0.000356	20.846380
2001.542293	-3.006600	3.160200	-9.500400	28.256809	0.000355	20.838068
2002.537438	-3.001000	3.158100	-9.477100	28.282928	0.000357	20.823114
2003.538315	-2.983600	3.161900	-9.431800	28.316114	0.000355	20.842303
2004.536551	-2.968500	3.158800	-9.375700	28.387139	0.000353	20.838901
2005.537928	-3.003400	3.156300	-9.478600	28.420813	0.000353	20.853843
2006.538075	-3.013900	3.156600	-9.512300	28.402993	0.000352	20.870038
2007.537770	-2.994200	3.155600	-9.447400	28.371088	0.000351	20.839809
2008.536833	-3.009000	3.155000	-9.492300	28.385703	0.000349	20.854050
2009.536386	-2.996500	3.155300	-9.454000	28.380892	0.000347	20.836404
2010.538193	-3.001000	3.154500	-9.465900	28.383488	0.000348	20.872208
2011.537137	-3.002000	3.155000	-9.468300	28.419025	0.000345	20.858207
2012.564366	-3.005400	3.154700	-9.480500	28.430944	0.000346	20.855036
2013.556231	-2.990000	3.152600	-9.425200	28.461595	0.000346	20.873573
2014.557403	-2.995900	3.153100	-9.445400	28.479156	0.000347	20.859964
2015.538608	-3.008700	3.152200	-9.482500	28.505450	0.000346	20.864631
2016.556165	-2.987900	3.152500	-9.418900	28.490674	0.000342	20.857338
2017.555382	-3.004100	3.150700	-9.464100	28.432686	0.000342	20.863427
2018.554891	-2.966700	3.152000	-9.349400	28.346236	0.000342	20.871208
2019.559811	-3.000000	3.150800	-9.450700	28.314779	0.000339	20.857553
2020.554067	-3.024300	3.147600	-9.517700	28.300697	0.000342	20.874193
2021.560822	-2.989400	3.148700	-9.411800	28.265422	0.000338	20.868075
2022.558393	-3.025400	3.147000	-9.519500	28.292757	0.000339	20.862407
2023.556059	-3.009100	3.146800	-9.468100	28.307201	0.000338	20.865095
2024.560139	-2.999200	3.146800	-9.436500	28.318798	0.000337	20.877719
2025.540303	-2.996000	3.145900	-9.424300	28.359763	0.000335	20.867759
2026.560361	-3.021600	3.145300	-9.503000	28.376416	0.000335	20.894483
2027.566168	-2.995900	3.145000	-9.420900	28.364141	0.000333	20.873589
2028.569006	-2.988100	3.145300	-9.397800	28.325797	0.000333	20.881448
2029.565758	-2.999700	3.144300	-9.430700	28.287104	0.000334	20.872835
2030.560359	-2.994500	3.144700	-9.415500	28.283407	0.000333	20.877173
2031.541233	-2.986200	3.143800	-9.386700	28.328956	0.000332	20.881783
2032.559786	-2.989000	3.143100	-9.393200	28.312920	0.000330	20.856629
2033.557909	-2.988700	3.142300	-9.390600	28.315590	0.000328	20.867852
2034.556748	-3.007800	3.141300	-9.447800	28.300988	0.000329	20.877805
2035.561002	-2.980800	3.142400	-9.365500	28.356646	0.000326	20.878845
2036.564540	-3.001000	3.138900	-9.418400	28.405766	0.000327	20.893691
2037.543291	-2.990200	3.140700	-9.390100	28.412752	0.000325	20.883657
2038.548834	-2.988400	3.140900	-9.385800	28.402389	0.000326	20.895032
2039.543530	-2.975600	3.139400	-9.340400	28.385708	0.000326	20.868753
2040.544663	-2.988100	3.137600	-9.374600	28.389692	0.000323	20.908324
2041.545934	-3.011700	3.136800	-9.446300	28.400965	0.000323	20.895020
2042.545541	-2.996400	3.137700	-9.400400	28.389288	0.000323	20.883737
2043.548337	-2.998500	3.136200	-9.402700	28.375677	0.000322	20.906066
2044.547513	-3.014000	3.136100	-9.449900	28.376718	0.000319	20.876296
2045.545671	-2.994100	3.133600	-9.381700	28.343452	0.000321	20.898275
2046.546188	-2.991900	3.134300	-9.374700	28.340398	0.000320	20.881450
2047.548756	-2.998000	3.133400	-9.393100	28.328348	0.000319	20.884015
2048.548610	-2.994400	3.134900	-9.386100	28.314220	0.000318	20.893024
2049.552564	-2.992600	3.133600	-9.376800	28.319421	0.000318	20.924810
2050.549963	-2.992500	3.131600	-9.370500	28.348638	0.000317	20.909185
2051.565404	-2.991900	3.131500	-9.366700	28.358594	0.000316	20.888391
2052.567762	-2.983800	3.131600	-9.342100	28.384763	0.000315	20.896724
2053.565535	-2.965500	3.131200	-9.284000	28.404909	0.000314	20.893302
2054.553912	-3.029700	3.128700	-9.477900	28.461999	0.000312	20.900056
2055.551565	-2.999300	3.128500	-9.382700	28.410225	0.000313	20.908137
2056.550257	-2.985500	3.128600	-9.339200	28.347667	0.000314	20.902993
2057.550607	-2.991800	3.126600	-9.351900	28.366078	0.000310	20.896401
2058.550622	-2.991500	3.127800	-9.355900	28.367810	0.000311	20.933703
2059.573329	-3.005900	3.126600	-9.397400	28.382552	0.000311	20.902083
2060.577758	-2.985800	3.125700	-9.331300	28.369564	0.000309	20.923142
2061.564765	-3.025500	3.123300	-9.448000	28.397314	0.000307	20.915524
2062.565199	-3.024500	3.123800	-9.446800	28.391962	0.000306	20.926255
2063.550550	-3.003900	3.123300	-9.380400	28.430570	0.000306	20.952327
2064.549713	-3.007200	3.122200	-9.388400	28.475418	0.000304	20.927316
2065.569705	-3.005900	3.121000	-9.379800	28.517072	0.000304	20.913790
2066.569009	-2.989400	3.123200	-9.335100	28.546284	0.000304	20.934672
2067.568309	-2.974300	3.121600	-9.283600	28.581837	0.000302	20.941553
2068.568111	-3.001400	3.120200	-9.362900	28.620913	0.000302	20.906944
2069.569705	-2.977600	3.120400	-9.289800	28.624753	0.000302	20.928353
2070.570639	-2.985400	3.119700	-9.311300	28.635370	0.000300	20.921977
2071.568941	-3.006600	3.117300	-9.371200	28.635268	0.000299	20.904806
2072.586453	-2.992300	3.117600	-9.326400	28.632861	0.000298	20.934622
2073.567648	-2.992600	3.117800	-9.329000	28.644848	0.000299	20.908765
2074.568251	-2.994100	3.116100	-9.329000	28.675546	0.000298	20.935888
2075.570779	-3.040500	3.114300	-9.466900	28.672247	0.000298	20.933040
2076.558418	-3.006500	3.114300	-9.362000	28.711288	0.000295	20.938697
2077.573398	-2.987700	3.114500	-9.303900	28.692131	0.000295	20.950695
2078.573962	-2.991600	3.112500	-9.310300	28.655904	0.000297	20.946449
2079.574622	-3.012800	3.111600	-9.373500	28.614121	0.000295	20.921439
2080.574349	-3.007200	3.112900	-9.360300	28.559828	0.000293	20.929820
2081.579085	-3.008900	3.111300	-9.360700	28.526323	0.000294	20.946810
2082.571705	-3.009200	3.110100	-9.357000	28.499556	0.000292	20.959681
2083.578411	-2.964300	3.111600	-9.221800	28.458139	0.000290	20.930779
2084.573820	-3.003900	3.108900	-9.337400	28.465968	0.000290	20.946722
2085.556151	-2.981300	3.108500	-9.266200	28.478231	0.000291	20.956699
2086.575632	-3.000600	3.108000	-9.325000	28.501348	0.000289	20.937781
2087.577951	-3.011800	3.108700	-9.362100	28.524314	0.000288	20.926771
2088.580081	-2.982300	3.107200	-9.265700	28.600036	0.000287	20.943760
2089.570973	-2.996900	3.106500	-9.308900	28.615418	0.000288	20.932227
2090.557501	-3.013600	3.106800	-9.361800	28.671014	0.000286	20.923265
2091.557883	-3.027600	3.104300	-9.397500	28.676288	0.000285	20.920516
2092.581146	-3.015300	3.103500	-9.356800	28.678564	0.000286	20.931342
2093.557145	-3.004000	3.102100	-9.317700	28.593969	0.000284	20.932436
2094.575787	-3.006200	3.102500	-9.325800	28.558062	0.000282	20.915241
2095.589616	-2.988100	3.102200	-9.269300	28.551021	0.000282	20.907676
2096.560347	-2.987800	3.103100	-9.271100	28.582217	0.000282	20.928187
2097.558541	-3.009500	3.099200	-9.326200	28.569034	0.000280	20.913489
2098.557162	-3.003900	3.101200	-9.314300	28.627954	0.000279	20.931576
2099.558802	-3.012100	3.098500	-9.331400	28.602925	0.000280	20.909690
2100.557072	-2.984300	3.099200	-9.248000	28.621233	0.000278	20.926704
2101.557375	-2.991900	3.099000	-9.270800	28.666104	0.000278	20.937283
2102.558231	-3.005400	3.098200	-9.310500	28.631316	0.000277	20.924532
2103.559464	-2.991400	3.097200	-9.264100	28.591373	0.000277	20.916073
2104.558448	-2.999900	3.095200	-9.284800	28.540871	0.000275	20.917368
2105.558278	-2.992800	3.094300	-9.259000	28.583219	0.000276	20.935833
2106.558269	-3.010100	3.093900	-9.312000	28.612780	0.000274	20.896857
2107.577309	-3.005700	3.093100	-9.295400	28.620531	0.000275	20.914144
2108.576031	-3.029100	3.092400	-9.366900	28.627350	0.000272	20.901099
2109.577738	-2.991200	3.094100	-9.253600	28.638273	0.000272	20.903565
2110.573295	-3.024800	3.089700	-9.343500	28.658171	0.000274	20.903693
2111.579018	-2.999400	3.091200	-9.270500	28.694219	0.000271	20.928145
2112.576701	-2.990100	3.090400	-9.239600	28.719439	0.000271	20.911349
2113.576602	-2.988900	3.089400	-9.232900	28.723405	0.000270	20.909655
2114.559436	-3.016300	3.089500	-9.317500	28.715673	0.000270	20.890014
2115.578178	-2.982200	3.089300	-9.211500	28.726627	0.000270	20.912899
2116.584011	-2.998500	3.087500	-9.257400	28.715354	0.000269	20.913872
2117.559383	-2.991100	3.085900	-9.229600	28.641122	0.000267	20.907383
2118.562768	-2.999900	3.084600	-9.252900	28.582720	0.000268	20.886972
2119.558965	-2.979600	3.086000	-9.194400	28.557145	0.000267	20.895828
2120.558602	-3.005200	3.082800	-9.263500	28.536577	0.000268	20.893132
2121.560211	-2.984400	3.084000	-9.202700	28.514101	0.000266	20.887566
2122.559953	-2.998700	3.081700	-9.240300	28.562222	0.000265	20.905681
2123.564038	-2.994800	3.082100	-9.229400	28.608733	0.000264	20.905108
2124.563036	-2.988500	3.080600	-9.205000	28.625632	0.000263	20.895576
2125.582372	-3.012300	3.078600	-9.271700	28.604496	0.000263	20.888040
2126.586691	-2.968400	3.080100	-9.141300	28.616536	0.000261	20.882149
2127.580153	-2.978800	3.079000	-9.169500	28.612967	0.000260	20.896097
2128.563894	-3.031300	3.076800	-9.325200	28.580257	0.000261	20.896344
2129.562585	-3.023300	3.075800	-9.297700	28.566182	0.000260	20.886438
2130.561699	-3.021500	3.076500	-9.294200	28.585657	0.000259	20.876655
2131.566881	-3.039600	3.074000	-9.343200	28.582460	0.000259	20.890029
2132.562918	-3.008500	3.073800	-9.247300	28.555948	0.000259	20.899363
2133.563577	-3.004600	3.073000	-9.232200	28.585854	0.000259	20.887757
2134.567176	-2.954600	3.074000	-9.080900	28.606667	0.000256	20.876004
2135.566007	-3.016800	3.071000	-9.263300	28.622994	0.000256	20.879644
2136.564227	-3.000600	3.070000	-9.209500	28.657487	0.000257	20.880720
2137.563337	-2.999500	3.069100	-9.205300	28.711448	0.000256	20.888129
2138.563596	-3.022100	3.067300	-9.268300	28.713404	0.000255	20.885359
2139.567054	-2.990100	3.068200	-9.173500	28.672846	0.000256	20.899508
2140.566601	-2.970400	3.067600	-9.111300	28.629339	0.000256	20.892672
2141.567513	-3.009200	3.065700	-9.223300	28.620591	0.000253	20.879595
2142.565928	-2.996400	3.065200	-9.183700	28.647622	0.000252	20.901602
2143.564351	-3.008200	3.065700	-9.221100	28.682634	0.000254	20.892771
2144.568326	-3.009400	3.063100	-9.217800	28.661625	0.000254	20.881095
2145.581895	-2.996300	3.062100	-9.174400	28.631373	0.000252	20.890928
2146.586117	-2.988200	3.061600	-9.147700	28.629511	0.000252	20.878148
2147.566340	-3.007900	3.061200	-9.206600	28.675179	0.000250	20.871988
2148.593617	-3.013800	3.061000	-9.223100	28.702208	0.000251	20.879772
2149.566483	-2.973400	3.061200	-9.101400	28.762318	0.000251	20.872515
2150.569312	-2.997500	3.057000	-9.162600	28.770418	0.000251	20.875933
2151.575271	-3.000300	3.056600	-9.169700	28.790188	0.000248	20.871666
2152.570873	-3.003200	3.056000	-9.177000	28.717030	0.000249	20.863881
2153.567611	-2.983100	3.055900	-9.114400	28.716313	0.000248	20.861737
2154.568819	-3.002200	3.054100	-9.168600	28.726124	0.000248	20.843646
2155.574552	-2.998900	3.053800	-9.156500	28.764302	0.000247	20.859816
2156.571214	-2.990700	3.053800	-9.132300	28.765146	0.000247	20.831269
2157.571019	-3.004200	3.050600	-9.163800	28.807759	0.000246	20.867080
2158.578706	-2.983200	3.050900	-9.100900	28.847451	0.000246	20.858227
2159.572341	-2.992700	3.049600	-9.125900	28.832635	0.000246	20.864638
2160.597160	-2.991300	3.048600	-9.118500	28.802929	0.000245	20.860792
2161.593889	-3.011400	3.047900	-9.177200	28.730147	0.000245	20.859076
2162.588549	-3.003000	3.048200	-9.151400	28.701182	0.000243	20.850291
2163.587496	-3.001000	3.045600	-9.138500	28.703241	0.000244	20.858528
2164.569971	-2.972000	3.046200	-9.051200	28.740309	0.000243	20.857459
2165.572274	-3.000400	3.044000	-9.131500	28.788523	0.000243	20.844859
2166.595994	-2.999200	3.044600	-9.130100	28.805345	0.000243	20.853744
2167.573295	-3.014400	3.040900	-9.164800	28.804256	0.000243	20.858810
2168.588858	-2.989200	3.040900	-9.087400	28.829673	0.000241	20.848854
2169.586821	-3.005400	3.039900	-9.135300	28.884816	0.000241	20.831385
2170.592823	-2.997700	3.038800	-9.108200	28.933743	0.000242	20.843217
2171.587877	-3.039200	3.037200	-9.229800	28.957324	0.000239	20.833310
2172.590187	-2.991400	3.036000	-9.081500	28.968398	0.000240	20.828820
2173.593660	-3.017200	3.035100	-9.156600	28.988346	0.000241	20.853658
2174.590086	-2.985000	3.034000	-9.055800	28.944824	0.000241	20.855328
2175.598406	-2.963100	3.034400	-8.990000	28.925405	0.000239	20.836239
2176.600271	-2.970300	3.033600	-9.009500	28.905167	0.000239	20.850463
2177.589566	-2.955700	3.032400	-8.961200	28.925138	0.000239	20.843556
2178.589303	-3.006100	3.029500	-9.105600	28.916392	0.000240	20.846599
2179.589694	-2.995800	3.028100	-9.070100	28.844134	0.000237	20.858679
2180.573572	-2.979900	3.029400	-9.025500	28.808885	0.000239	20.840715
2181.573845	-3.020300	3.025900	-9.138600	28.728020	0.000240	20.837495
2182.575397	-2.985700	3.024900	-9.030400	28.708552	0.000239	20.834480
2183.572647	-2.970300	3.026100	-8.986000	28.753173	0.000239	20.859985
2184.575715	-3.013500	3.024500	-9.113200	28.789491	0.000238	20.829714
2185.594960	-2.981200	3.023000	-9.011300	28.793531	0.000236	20.850378
2186.591907	-3.028300	3.020000	-9.144900	28.758305	0.000235	20.814895
2187.593017	-2.985200	3.019600	-9.013100	28.770990	0.000237	20.840000
2188.589516	-3.005100	3.018500	-9.069900	28.794279	0.000239	20.835485
2189.598031	-3.013400	3.018400	-9.095300	28.832852	0.000236	20.839728
2190.575330	-2.991200	3.017900	-9.026000	28.888739	0.000237	20.844819
2191.577108	-3.013300	3.015500	-9.085600	28.909694	0.000235	20.843645
2192.599000	-3.041700	3.012800	-9.163000	28.933774	0.000238	20.840878
2193.597823	-3.015900	3.013200	-9.086200	28.929809	0.000235	20.852055
2194.598877	-2.968500	3.012700	-8.941600	28.892255	0.000235	20.830818
2195.601915	-2.978800	3.011300	-8.969400	28.828566	0.000236	20.833514
2196.599134	-3.042200	3.008100	-9.149900	28.855641	0.000235	20.837555
2197.597017	-3.007000	3.007400	-9.041600	28.881553	0.000235	20.822882
2198.599479	-2.995000	3.006500	-9.003300	28.920389	0.000236	20.841617
2199.606287	-3.036300	3.005300	-9.123800	28.919026	0.000236	20.812270
2200.579860	-3.010300	3.004800	-9.043400	28.900621	0.000234	20.846359
2201.580878	-3.011700	3.002800	-9.042500	28.922788	0.000235	20.838344
2202.580819	-2.974300	3.002700	-8.930000	28.970916	0.000235	20.849847
2203.583374	-3.008500	3.000900	-9.027600	28.977972	0.000234	20.848422
2204.590003	-2.996800	3.000700	-8.990800	28.893551	0.000235	20.830228
2205.583835	-3.012000	2.999400	-9.033200	28.863376	0.000235	20.829226
2206.607634	-2.986700	2.999500	-8.957800	28.865086	0.000234	20.839010
2207.602064	-3.014700	2.996200	-9.031600	28.853583	0.000235	20.842594
2208.604026	-3.015100	2.994100	-9.026300	28.867854	0.000232	20.822358
2209.602381	-2.992700	2.994700	-8.961300	28.895915	0.000231	20.822178
2210.588638	-3.032100	2.991500	-9.068400	28.927920	0.000231	20.852523
2211.584569	-3.027800	2.990900	-9.054200	28.977284	0.000232	20.827341
2212.585805	-2.969800	2.991200	-8.882800	28.958483	0.000233	20.820253
2213.589479	-3.004600	2.989500	-8.981300	28.971162	0.000231	20.845829
2214.588089	-2.972100	2.989000	-8.883100	29.037416	0.000232	20.817752
2215.585981	-3.017900	2.984900	-9.006300	29.009352	0.000232	20.823615
2216.584582	-3.017300	2.984400	-9.003800	28.979451	0.000230	20.829050
2217.586967	-3.007900	2.982000	-8.968700	28.919631	0.000230	20.823311
2218.589039	-3.000100	2.982500	-8.945900	28.942468	0.000229	20.838731
2219.588710	-3.008500	2.980500	-8.964700	28.943332	0.000231	20.807834
2220.603862	-3.006700	2.980000	-8.958600	29.006346	0.000230	20.818690
2221.604459	-2.996200	2.978400	-8.922700	29.026456	0.000231	20.834209
2222.611659	-2.988800	2.977200	-8.897200	29.031362	0.000231	20.835833
2223.614714	-2.998100	2.975500	-8.919500	28.995667	0.000232	20.841120
2224.608546	-3.007000	2.973800	-8.941300	28.944467	0.000231	20.826046
2225.613912	-2.983500	2.973000	-8.868500	28.862966	0.000230	20.809374
2226.610011	-2.997000	2.970300	-8.901500	28.848646	0.000230	20.825293
2227.607073	-2.993500	2.969300	-8.887600	28.881867	0.000230	20.804232
2228.611862	-2.997700	2.968600	-8.897900	28.925216	0.000228	20.800014
2229.592145	-2.979000	2.968400	-8.841700	28.974183	0.000228	20.822321
2230.595127	-3.017100	2.964600	-8.943300	28.990553	0.000229	20.829804
2231.592195	-3.002800	2.963600	-8.898200	29.003162	0.000229	20.811214
2232.591946	-2.990500	2.961800	-8.856000	29.003457	0.000229	20.804873
2233.592763	-2.997900	2.961100	-8.876000	29.001697	0.000228	20.827756
2234.592804	-3.007000	2.959700	-8.898900	29.085487	0.000228	20.819720
2235.595394	-3.000000	2.958200	-8.873400	29.116914	0.000226	20.827678
2236.616862	-2.965700	2.956900	-8.767900	29.100563	0.000227	20.822109
2237.595362	-2.991100	2.955900	-8.840000	29.101459	0.000226	20.809261
2238.595959	-3.018300	2.953300	-8.912900	29.129046	0.000226	20.822360
2239.596031	-2.968400	2.951800	-8.760500	29.112032	0.000225	20.823708
2240.609209	-2.990700	2.950300	-8.822100	29.169043	0.000225	20.819041
2241.598729	-3.019000	2.948100	-8.899600	29.190736	0.000225	20.803918
2242.597450	-2.982900	2.947800	-8.791800	29.219540	0.000223	20.801650
2243.597115	-3.011900	2.945700	-8.869900	29.200319	0.000225	20.795557
2244.599093	-2.990700	2.943900	-8.802800	29.177881	0.000223	20.812301
2245.598777	-2.997600	2.942200	-8.818500	29.234098	0.000225	20.807785
2246.600975	-3.016300	2.939100	-8.864000	29.266390	0.000224	20.814250
2247.598444	-2.988700	2.940800	-8.787100	29.289170	0.000224	20.826776
2248.621085	-3.010900	2.936400	-8.839300	29.294869	0.000222	20.801699
2249.616127	-3.001900	2.934400	-8.807700	29.285779	0.000223	20.796331
2250.600873	-3.001900	2.935000	-8.809800	29.294620	0.000223	20.809983
2251.603586	-2.986000	2.932300	-8.755400	29.302618	0.000223	20.804767
2252.601044	-3.000600	2.930400	-8.791900	29.273128	0.000223	20.817721
2253.601719	-2.987600	2.930600	-8.755000	29.296996	0.000225	20.809533
2254.603832	-2.973600	2.929500	-8.710100	29.333451	0.000224	20.811186
2255.602918	-2.976400	2.928600	-8.715400	29.350486	0.000225	20.832621
2256.607720	-2.966300	2.926100	-8.677300	29.327879	0.000223	20.797035
2257.605867	-3.007500	2.923700	-8.791200	29.337193	0.000224	20.797414
2258.607741	-2.988000	2.922600	-8.732400	29.346796	0.000224	20.813256
2259.622091	-2.987800	2.921000	-8.726000	29.368068	0.000224	20.802927
2260.606191	-3.006600	2.917200	-8.769400	29.402831	0.000223	20.800507
2261.606878	-2.998000	2.916400	-8.742700	29.413704	0.000224	20.802930
2262.606937	-2.991900	2.914700	-8.718800	29.431604	0.000223	20.809119
2263.606380	-3.005700	2.911600	-8.750100	29.463171	0.000223	20.825764
2264.607679	-2.985200	2.911100	-8.689300	29.465702	0.000222	20.806504
2265.608230	-3.003200	2.909500	-8.736300	29.478273	0.000224	20.798787
2266.625834	-2.985200	2.907200	-8.677200	29.484192	0.000222	20.808546
2267.634981	-3.003900	2.904600	-8.723900	29.508305	0.000224	20.804876
2268.625840	-2.953600	2.905700	-8.581100	29.479534	0.000223	20.803850
2269.627713	-3.003600	2.902300	-8.715900	29.458615	0.000223	20.794618
2270.622943	-2.998200	2.901500	-8.698300	29.457969	0.000224	20.811511
2271.627399	-3.003900	2.898000	-8.704100	29.468125	0.000224	20.790928
2272.629921	-3.008000	2.897000	-8.712500	29.476167	0.000224	20.795241
2273.608985	-2.997500	2.894700	-8.676600	29.505827	0.000223	20.786731
2274.632709	-3.006300	2.893700	-8.697900	29.525432	0.000224	20.787528
2275.624050	-2.989000	2.891400	-8.641500	29.554718	0.000223	20.785281
2276.627349	-2.976800	2.890200	-8.602400	29.532210	0.000222	20.802421
2277.628379	-2.993500	2.888700	-8.646800	29.502053	0.000224	20.794308
2278.631952	-3.009500	2.885500	-8.683100	29.492891	0.000222	20.798349
2279.632257	-2.994700	2.885000	-8.638100	29.498216	0.000222	20.768154
2280.609099	-3.018900	2.880700	-8.696100	29.481823	0.000222	20.803787
2281.609385	-2.988100	2.879100	-8.602500	29.459191	0.000223	20.783346
2282.613002	-3.000100	2.876800	-8.629700	29.446013	0.000221	20.786184
2283.611225	-3.014000	2.875800	-8.666700	29.383646	0.000222	20.785437
2284.609077	-2.997700	2.874400	-8.614200	29.294947	0.000224	20.788976
2285.612397	-3.031500	2.871200	-8.702300	29.227786	0.000223	20.790045
2286.610306	-3.022400	2.870500	-8.674200	29.144748	0.000222	20.781284
2287.609387	-2.999800	2.866600	-8.598200	29.103072	0.000222	20.786230
2288.612072	-2.993400	2.866600	-8.580100	29.083301	0.000221	20.753032
2289.628680	-2.990700	2.864700	-8.565100	29.092165	0.000224	20.782352
2290.626073	-2.991700	2.861900	-8.560800	29.130007	0.000221	20.783499
2291.627846	-2.993300	2.859000	-8.556800	29.164553	0.000223	20.781326
2292.630384	-3.042900	2.856400	-8.690600	29.191893	0.000220	20.784695
2293.628715	-3.028800	2.855500	-8.648100	29.249714	0.000221	20.775633
2294.630353	-2.990500	2.852600	-8.529800	29.276606	0.000222	20.780923
2295.636097	-3.011000	2.850300	-8.581200	29.294039	0.000220	20.781422
2296.637616	-3.008400	2.849100	-8.570700	29.257165	0.000221	20.776978
2297.631339	-3.000100	2.848400	-8.544100	29.201122	0.000222	20.791624
2298.632952	-2.980600	2.845900	-8.481200	29.192108	0.000221	20.775428
2299.619688	-2.988200	2.844100	-8.498300	29.229104	0.000219	20.781416
2300.615663	-3.015100	2.841100	-8.565300	29.238858	0.000221	20.779866
2301.616969	-3.006900	2.839000	-8.536300	29.275511	0.000221	20.785035
2302.640424	-3.021100	2.837000	-8.570600	29.219247	0.000224	20.774802
2303.634601	-2.986200	2.834900	-8.464100	29.162682	0.000222	20.786079
2304.641290	-3.011000	2.831000	-8.523100	29.093886	0.000220	20.784561
2305.637202	-3.002200	2.830200	-8.495800	29.029241	0.000219	20.796238
2306.637977	-3.010200	2.828900	-8.514400	29.000112	0.000219	20.786331
2307.631697	-2.969700	2.825100	-8.388300	29.031348	0.000220	20.786033
2308.636455	-2.992400	2.823400	-8.448000	29.051611	0.000221	20.782268
2309.639369	-2.975000	2.821300	-8.391100	29.117962	0.000221	20.761879
2310.620262	-3.006100	2.818800	-8.472400	29.180692	0.000221	20.772459
2311.637141	-3.006300	2.816000	-8.465100	29.186886	0.000220	20.782969
2312.646202	-2.997600	2.815300	-8.437700	29.160687	0.000220	20.777905
2313.643277	-3.007800	2.812000	-8.457200	29.156923	0.000217	20.785966
2314.639903	-3.000800	2.809400	-8.429700	29.223267	0.000222	20.788336
2315.648351	-3.016900	2.807700	-8.469700	29.190956	0.000220	20.777112
2316.622945	-2.987100	2.806100	-8.380900	29.186622	0.000220	20.784599
2317.622933	-2.987500	2.804300	-8.377200	29.177310	0.000219	20.759094
2318.642700	-3.011100	2.799000	-8.427600	29.215872	0.000221	20.766185
2319.645930	-2.990800	2.797400	-8.364900	29.220703	0.000219	20.776269
2320.639275	-2.966300	2.795800	-8.291600	29.274393	0.000220	20.773003
2321.649275	-2.975800	2.793300	-8.311000	29.299455	0.000217	20.775975
2322.623822	-2.966900	2.790700	-8.278900	29.259246	0.000217	20.770540
2323.624392	-3.010700	2.787000	-8.389900	29.266998	0.000217	20.766973
2324.624574	-3.004700	2.783100	-8.361600	29.221061	0.000219	20.763353
2325.624052	-2.987900	2.780800	-8.308000	29.184167	0.000217	20.761262
2326.644611	-3.026300	2.777700	-8.404700	29.120942	0.000219	20.765356
2327.625863	-2.983400	2.776400	-8.282100	29.124313	0.000217	20.768278
2328.626378	-3.003500	2.773100	-8.326500	29.127115	0.000219	20.781059
2329.645124	-3.000600	2.770700	-8.312800	29.152082	0.000218	20.776346
2330.647086	-3.018500	2.767200	-8.350400	29.181628	0.000219	20.749693
2331.641306	-3.039600	2.764000	-8.400400	29.247356	0.000218	20.756187
2332.641581	-2.983700	2.761000	-8.237200	29.286831	0.000218	20.765624
2333.652585	-3.037900	2.758400	-8.378500	29.337470	0.000220	20.767347
2334.641498	-3.024800	2.755100	-8.332900	29.359536	0.000217	20.764456
2335.643121	-2.955200	2.754600	-8.138900	29.389153	0.000218	20.770124
2336.650643	-3.000900	2.750200	-8.252100	29.374692	0.000219	20.775464
2337.628678	-2.973500	2.747800	-8.169700	29.370490	0.000218	20.761745
2338.629062	-2.993200	2.743600	-8.210800	29.407651	0.000216	20.766957
2339.629981	-3.018000	2.738700	-8.264400	29.436750	0.000219	20.762148
2340.627689	-2.995000	2.737100	-8.196500	29.484138	0.000219	20.767714
2341.646596	-3.000500	2.733900	-8.201700	29.509887	0.000218	20.777074
2342.647058	-3.019800	2.730400	-8.243800	29.506450	0.000216	20.775506
2343.628733	-2.982400	2.728200	-8.136000	29.490955	0.000216	20.768422
2344.647116	-2.976600	2.725300	-8.111000	29.479171	0.000217	20.750853
2345.647196	-3.010200	2.720200	-8.187200	29.436515	0.000217	20.768075
2346.648948	-3.003300	2.717700	-8.161500	29.420671	0.000218	20.749260
2347.646157	-3.014100	2.713000	-8.176200	29.396634	0.000217	20.762965
2348.645606	-3.022800	2.709700	-8.189800	29.432091	0.000217	20.760297
2349.629997	-2.974000	2.708200	-8.053100	29.457571	0.000217	20.784557
2350.629966	-2.998000	2.701900	-8.099500	29.529221	0.000217	20.755785
2351.646400	-3.035300	2.698500	-8.190000	29.560171	0.000217	20.772285
2352.649468	-2.986000	2.696700	-8.051600	29.618076	0.000217	20.784192
2353.633461	-2.982500	2.693000	-8.029300	29.645850	0.000217	20.770467
2354.629097	-3.002400	2.687200	-8.066900	29.665681	0.000216	20.762484
2355.632359	-3.018600	2.684700	-8.102400	29.689074	0.000219	20.780378
2356.630252	-2.977900	2.682000	-7.984800	29.697939	0.000217	20.788368
2357.631956	-2.980300	2.679300	-7.983700	29.710609	0.000218	20.771744
2358.631660	-2.968100	2.674100	-7.935800	29.738707	0.000218	20.778262
2359.648075	-3.011300	2.669500	-8.037300	29.734176	0.000217	20.763262
2360.650514	-3.032500	2.664700	-8.078800	29.775740	0.000218	20.781461
2361.649600	-2.976800	2.662800	-7.925600	29.811405	0.000215	20.765265
2362.651552	-3.022400	2.656900	-8.029800	29.844596	0.000217	20.783559
2363.656457	-2.983700	2.654300	-7.918600	29.881204	0.000216	20.784436
2364.653807	-2.977300	2.650100	-7.889000	29.924561	0.000215	20.776475
2365.653615	-2.998500	2.645900	-7.932300	29.930702	0.000215	20.763701
2366.657356	-2.995000	2.639400	-7.903800	29.934116	0.000217	20.765247
2367.651622	-2.990200	2.635700	-7.879700	29.965005	0.000216	20.778852
2368.654611	-3.036200	2.630800	-7.986300	29.964931	0.000217	20.778778
2369.654469	-2.988800	2.627400	-7.852300	29.971096	0.000215	20.760339
2370.652241	-2.969400	2.623500	-7.788700	29.911704	0.000218	20.787217
2371.652610	-2.987300	2.617600	-7.818600	29.898542	0.000215	20.771574
2372.663841	-3.000400	2.610600	-7.830900	29.879905	0.000216	20.778860
2373.637722	-2.988900	2.606800	-7.790600	29.845263	0.000217	20.778067
2374.657008	-2.998700	2.601600	-7.800300	29.828208	0.000218	20.772724
2375.638475	-2.976100	2.596700	-7.727300	29.841129	0.000217	20.764889
2376.637242	-2.961900	2.594100	-7.681900	29.862539	0.000219	20.776521
2377.651804	-3.035600	2.585300	-7.845700	29.848730	0.000217	20.791046
2378.636464	-3.019700	2.579800	-7.789100	29.860735	0.000218	20.779917
2379.639962	-3.015000	2.574100	-7.760400	29.829699	0.000219	20.774228
2380.652177	-2.992400	2.569400	-7.687000	29.843066	0.000218	20.778223
2381.654589	-2.992300	2.563300	-7.668600	29.888036	0.000220	20.804602
2382.655334	-3.014500	2.558600	-7.711700	29.902265	0.000220	20.793346
2383.665101	-2.975900	2.552500	-7.595000	29.895854	0.000218	20.775976
2384.657848	-2.990900	2.547500	-7.618000	29.919270	0.000220	20.784415
2385.655591	-2.988000	2.540500	-7.590300	29.975787	0.000218	20.796364
2386.655653	-3.040400	2.532200	-7.697600	30.055171	0.000220	20.793919
2387.637959	-3.028700	2.526600	-7.650100	30.101812	0.000219	20.777423
2388.655971	-3.037600	2.520900	-7.656300	30.047424	0.000219	20.799383
2389.661486	-3.045900	2.514400	-7.656900	30.014187	0.000221	20.790045
2390.657282	-3.004800	2.509400	-7.537800	29.982510	0.000219	20.783230
2391.663639	-2.990900	2.502200	-7.482600	29.957640	0.000220	20.793711
2392.659504	-3.003500	2.495800	-7.495300	29.948534	0.000220	20.803969
