LabVIEW Measurement	
Writer_Version	2
Reader_Version	2
Separator	Tab
Decimal_Separator	.
Multi_Headings	No
X_Columns	One
Time_Pref	Absolute
Operator	admin
Description	Clolumns are: time, Current, Voltage, Power, Battery Temp, and Chamber Temp
Date	2024/08/16
Time	13:06:06.104549407958984375
***End_of_Header***	
	
Channels	6						
Samples	1	1	1	1	1	1	
Date	2024/08/27	2024/08/27	2024/08/27	2024/08/27	2024/08/27	2024/08/27	
Time	03:49:49.79461669921875	03:49:49.8037610054016113281	03:49:49.8126015663146972656	03:49:49.7726898193359375	03:49:49.7726898193359375	03:49:49.7726898193359375	
X_Dimension	Time	Time	Time	Time	Time	Time	
X0	0.0000000000000000E+0	0.0000000000000000E+0	0.0000000000000000E+0	0.0000000000000000E+0	0.0000000000000000E+0	0.0000000000000000E+0	
Delta_X	1.000000	1.000000	1.000000	1.000000	1.000000	1.000000	
***End_of_Header***							
X_Value	Untitled	Untitled 1	Untitled 2	Untitled 3	Untitled 4	Untitled 5	Comment
0.000000	0.028026	4.109200	0.115020	21.061772	0.000972	20.793906
0.996127	-2.999200	3.947700	-11.839000	21.067935	0.000971	20.793906
1.999293	-3.025000	3.940900	-11.920000	21.061235	0.000972	20.786730
2.999106	-3.022100	3.936500	-11.895000	21.055892	0.000969	20.776170
4.001875	-2.999800	3.933300	-11.797000	21.063029	0.000971	20.778093
4.998647	-3.017900	3.928600	-11.854000	21.061221	0.000969	20.797622
6.001359	-3.023700	3.923900	-11.864000	21.048819	0.000969	20.790432
6.996723	-3.020100	3.923000	-11.846000	21.059365	0.000965	20.799084
8.002042	-2.998700	3.919900	-11.754000	21.078441	0.000968	20.812475
8.999993	-2.970700	3.918700	-11.640000	21.067846	0.000965	20.794765
9.997101	-2.974700	3.917900	-11.653000	21.066141	0.000966	20.797802
11.002764	-2.990400	3.914800	-11.706000	21.087807	0.000963	20.789601
11.997636	-3.008300	3.912900	-11.770000	21.087770	0.000965	20.801417
12.996808	-2.990100	3.911100	-11.694000	21.076007	0.000963	20.818575
14.004567	-3.018400	3.910700	-11.804000	21.067552	0.000962	20.782143
15.001771	-2.994500	3.910300	-11.708000	21.092113	0.000962	20.797701
16.000360	-2.983300	3.907400	-11.656000	21.125626	0.000962	20.801826
17.003415	-3.028400	3.906100	-11.828000	21.110638	0.000960	20.783514
18.002459	-2.997200	3.905800	-11.705000	21.104846	0.000959	20.795739
18.998158	-3.015800	3.904500	-11.774000	21.131917	0.000959	20.800058
20.003055	-2.984900	3.903700	-11.651000	21.100952	0.000959	20.798007
20.999960	-2.997200	3.902000	-11.693000	21.117542	0.000957	20.782360
22.002330	-2.996700	3.902300	-11.694000	21.114136	0.000956	20.807401
23.001427	-2.990600	3.901900	-11.668000	21.127317	0.000958	20.802095
24.001810	-3.010800	3.898400	-11.737000	21.135210	0.000955	20.816627
25.001080	-2.973600	3.899600	-11.594000	21.139245	0.000956	20.802646
26.012287	-3.007200	3.897900	-11.721000	21.161946	0.000956	20.789318
27.003147	-3.011700	3.898000	-11.738000	21.171477	0.000956	20.808336
28.002364	-2.983700	3.898800	-11.632000	21.140424	0.000954	20.801455
29.005116	-2.992900	3.896800	-11.661000	21.184466	0.000953	20.812320
30.003165	-3.009000	3.894800	-11.719000	21.169658	0.000953	20.790869
31.004041	-2.998100	3.895300	-11.678000	21.173961	0.000952	20.793751
32.017104	-2.997000	3.894100	-11.669000	21.183595	0.000952	20.811923
33.006400	-3.004200	3.893200	-11.694000	21.192833	0.000952	20.824482
34.005260	-2.988300	3.893800	-11.634000	21.176217	0.000952	20.814974
35.002044	-3.007100	3.891700	-11.702000	21.181482	0.000952	20.834465
36.004370	-3.021800	3.892300	-11.761000	21.191807	0.000950	20.842897
37.001106	-3.005700	3.891800	-11.697000	21.220889	0.000950	20.809875
38.008097	-3.003900	3.890000	-11.684000	21.214676	0.000950	20.815039
39.001141	-2.991600	3.889700	-11.635000	21.231239	0.000949	20.827815
40.003980	-2.995100	3.890200	-11.650000	21.234480	0.000951	20.819204
41.001552	-3.012000	3.889800	-11.715000	21.270196	0.000948	20.821743
42.001905	-2.993300	3.888200	-11.637000	21.232995	0.000948	20.833839
43.003057	-2.983400	3.889600	-11.602000	21.253504	0.000947	20.839657
44.007446	-3.001400	3.888400	-11.669000	21.225605	0.000949	20.828818
45.004368	-2.998900	3.887100	-11.656000	21.239260	0.000949	20.814976
46.005811	-2.982600	3.888100	-11.595000	21.272106	0.000947	20.815593
47.009126	-3.000600	3.886600	-11.661000	21.273605	0.000947	20.846489
48.009296	-3.004000	3.887400	-11.677000	21.310470	0.000947	20.839274
49.012702	-3.003300	3.885700	-11.669000	21.285545	0.000946	20.841365
50.011031	-2.985400	3.885400	-11.599000	21.313008	0.000946	20.821899
51.011400	-3.014800	3.886000	-11.714000	21.305208	0.000946	20.833062
52.012624	-2.988800	3.885500	-11.612000	21.318555	0.000947	20.821285
53.007068	-3.003000	3.883500	-11.661000	21.322181	0.000945	20.831550
54.015411	-3.004600	3.885500	-11.673000	21.327152	0.000946	20.823247
55.007486	-3.000100	3.882800	-11.649000	21.338526	0.000944	20.831308
56.011274	-3.016700	3.883000	-11.712000	21.353423	0.000943	20.831987
57.013941	-2.994200	3.883100	-11.625000	21.360161	0.000945	20.847737
58.010736	-2.984600	3.883500	-11.590000	21.334223	0.000944	20.835538
59.007755	-3.016700	3.881600	-11.707000	21.350914	0.000944	20.827580
60.018074	-3.013800	3.881900	-11.698000	21.371486	0.000943	20.838205
61.015520	-3.005000	3.881600	-11.663000	21.389392	0.000943	20.849956
62.011252	-2.984100	3.882700	-11.586000	21.403610	0.000941	20.824826
63.009993	-2.976400	3.881700	-11.552000	21.376839	0.000941	20.845931
64.008161	-2.984000	3.880500	-11.578000	21.392838	0.000943	20.842972
65.014004	-2.981000	3.880800	-11.568000	21.396681	0.000939	20.846817
66.014223	-2.996400	3.879700	-11.624000	21.413499	0.000941	20.839936
67.008786	-2.982400	3.879500	-11.570000	21.419479	0.000942	20.837385
68.010953	-2.991600	3.880500	-11.608000	21.422491	0.000943	20.832812
69.013030	-3.020100	3.878300	-11.712000	21.423527	0.000941	20.861349
70.016804	-3.017500	3.878400	-11.702000	21.425974	0.000938	20.826340
71.013522	-2.995000	3.878800	-11.616000	21.441895	0.000941	20.855071
72.022346	-2.996000	3.877900	-11.617000	21.448067	0.000940	20.847022
73.011907	-3.006400	3.877800	-11.657000	21.434978	0.000942	20.864271
74.017057	-3.009200	3.877800	-11.667000	21.450014	0.000940	20.877892
75.017739	-2.998500	3.878400	-11.629000	21.486234	0.000939	20.846805
76.020245	-3.015100	3.877300	-11.689000	21.486246	0.000942	20.872894
77.016010	-3.010800	3.876400	-11.670000	21.486899	0.000939	20.870229
78.015570	-3.010200	3.875100	-11.664000	21.482994	0.000942	20.852572
79.017522	-3.007700	3.877900	-11.663000	21.470968	0.000939	20.867090
80.014940	-3.013800	3.874900	-11.676000	21.495338	0.000942	20.853543
81.017445	-2.991100	3.875900	-11.592000	21.501641	0.000940	20.869806
82.013982	-2.987800	3.877600	-11.584000	21.531186	0.000941	20.858593
83.018486	-3.016200	3.874500	-11.686000	21.533030	0.000941	20.872765
84.018206	-3.026500	3.873600	-11.722000	21.532799	0.000938	20.868267
85.015377	-3.004100	3.875400	-11.639000	21.524911	0.000938	20.889296
86.022427	-3.007700	3.874400	-11.652000	21.525397	0.000938	20.875558
87.019159	-2.999400	3.874000	-11.618000	21.563010	0.000939	20.883798
88.020689	-2.994800	3.874300	-11.602000	21.559628	0.000938	20.878043
89.017786	-3.002500	3.873600	-11.628000	21.558207	0.000940	20.860027
90.019286	-2.998600	3.874200	-11.616000	21.562023	0.000939	20.870483
91.021211	-3.017300	3.871800	-11.681000	21.575099	0.000939	20.874559
92.024508	-2.994300	3.874000	-11.599000	21.577403	0.000939	20.878760
93.022602	-2.979500	3.873300	-11.539000	21.577748	0.000939	20.862986
94.019660	-2.987200	3.871700	-11.565000	21.623415	0.000940	20.891139
95.025911	-3.014600	3.872800	-11.673000	21.611621	0.000937	20.872225
96.021846	-3.006600	3.873200	-11.644000	21.621623	0.000939	20.887923
97.027492	-3.008900	3.871600	-11.647000	21.614784	0.000939	20.877287
98.023643	-3.005500	3.872900	-11.638000	21.635183	0.000937	20.891536
99.026915	-3.013000	3.870800	-11.662000	21.640344	0.000936	20.868253
100.020991	-2.991300	3.871800	-11.580000	21.651458	0.000938	20.875107
101.024403	-3.011600	3.871600	-11.658000	21.648616	0.000938	20.879849
102.032482	-3.007500	3.870400	-11.639000	21.646324	0.000939	20.887986
103.026283	-3.009500	3.870900	-11.648000	21.676199	0.000938	20.871891
104.026204	-2.983700	3.871500	-11.551000	21.683677	0.000940	20.895020
105.025358	-2.987800	3.870900	-11.565000	21.687978	0.000939	20.879886
106.026275	-2.993300	3.871400	-11.587000	21.697108	0.000938	20.900401
107.025249	-3.000600	3.871200	-11.614000	21.692690	0.000939	20.873223
108.025471	-3.019700	3.868000	-11.679000	21.709158	0.000938	20.892073
109.021875	-2.992300	3.869700	-11.578000	21.737085	0.000939	20.888254
110.025327	-2.996300	3.869100	-11.591000	21.722116	0.000940	20.905988
111.026100	-2.994400	3.869000	-11.583000	21.700987	0.000938	20.886267
112.026515	-2.966100	3.869800	-11.477000	21.729542	0.000941	20.906782
113.024922	-3.003000	3.869100	-11.618000	21.748827	0.000939	20.883884
114.027318	-3.010500	3.867300	-11.641000	21.749594	0.000939	20.896980
115.030180	-3.010900	3.868500	-11.646000	21.745305	0.000940	20.880834
116.029952	-3.021400	3.868300	-11.685000	21.763385	0.000938	20.906039
117.028154	-2.982100	3.867000	-11.531000	21.769800	0.000940	20.895392
118.025951	-3.008300	3.865900	-11.628000	21.771182	0.000940	20.897248
119.029259	-2.992800	3.868600	-11.578000	21.778853	0.000941	20.886909
120.028806	-2.995700	3.868400	-11.588000	21.779978	0.000941	20.894672
121.030011	-3.009800	3.867500	-11.638000	21.784781	0.000941	20.888574
122.032299	-2.981700	3.866400	-11.528000	21.812923	0.000941	20.892559
123.030122	-3.008600	3.865600	-11.628000	21.794895	0.000941	20.878784
124.033920	-2.994600	3.867300	-11.580000	21.811065	0.000940	20.910138
125.026099	-2.996600	3.866400	-11.585000	21.844112	0.000942	20.913342
126.027232	-2.990300	3.866600	-11.560000	21.831576	0.000940	20.896055
127.026493	-3.008200	3.865100	-11.625000	21.860832	0.000941	20.897363
128.026674	-2.988200	3.867100	-11.553000	21.839911	0.000940	20.908664
129.028911	-3.010100	3.866700	-11.639000	21.848247	0.000943	20.900887
130.032670	-3.005600	3.865000	-11.616000	21.858361	0.000942	20.899631
131.032598	-2.999500	3.865800	-11.594000	21.870269	0.000943	20.922927
132.028936	-2.998100	3.864100	-11.584000	21.859756	0.000943	20.900079
133.026960	-3.003600	3.862700	-11.600000	21.877515	0.000942	20.905051
134.033961	-3.022100	3.863200	-11.673000	21.885157	0.000941	20.898003
135.035836	-3.015200	3.862900	-11.646000	21.864365	0.000943	20.917967
136.026197	-3.011700	3.864800	-11.639000	21.888421	0.000943	20.937302
137.029183	-3.020400	3.864300	-11.670000	21.896026	0.000943	20.906037
138.032368	-2.999800	3.863800	-11.589000	21.915602	0.000942	20.923259
139.030092	-2.984600	3.863100	-11.529000	21.914218	0.000945	20.906702
140.035978	-2.992300	3.863400	-11.560000	21.939055	0.000942	20.920183
141.028397	-2.982400	3.863200	-11.520000	21.936904	0.000942	20.931304
142.034068	-3.000700	3.861700	-11.587000	21.944035	0.000944	20.933701
143.032095	-3.017000	3.861700	-11.648000	21.939298	0.000944	20.943657
144.028783	-3.007900	3.860900	-11.611000	21.934792	0.000944	20.914494
145.028965	-3.000600	3.862500	-11.589000	21.977306	0.000946	20.912006
146.032593	-3.006700	3.861700	-11.610000	21.962905	0.000944	20.943580
147.030437	-2.996000	3.862300	-11.571000	21.978165	0.000944	20.922348
148.027124	-3.029600	3.860800	-11.695000	22.005623	0.000944	20.945565
149.030840	-2.998700	3.861800	-11.579000	21.992375	0.000945	20.937993
150.029816	-2.978800	3.861200	-11.501000	21.993873	0.000945	20.940915
151.033250	-2.992200	3.860500	-11.551000	21.989559	0.000945	20.921425
152.029450	-2.986100	3.861600	-11.530000	21.978408	0.000946	20.921168
153.028857	-3.003600	3.862300	-11.600000	21.998418	0.000946	20.941672
154.029397	-3.003100	3.861300	-11.595000	21.985730	0.000946	20.948409
155.028598	-2.997800	3.859600	-11.569000	22.005406	0.000947	20.928754
156.033705	-2.990900	3.860000	-11.544000	21.995973	0.000946	20.943965
157.029647	-3.010100	3.860900	-11.620000	22.015559	0.000949	20.928486
158.036266	-3.015400	3.859600	-11.637000	22.011307	0.000947	20.941772
159.032712	-2.976800	3.860100	-11.490000	22.011065	0.000947	20.952907
160.030299	-2.989100	3.860400	-11.539000	22.018951	0.000948	20.938993
161.035942	-2.978200	3.860000	-11.495000	22.046269	0.000949	20.938839
162.039606	-2.996000	3.859200	-11.561000	22.019924	0.000948	20.949923
163.031230	-3.028500	3.858500	-11.684000	22.050828	0.000947	20.953358
164.035952	-2.999500	3.857800	-11.570000	22.062937	0.000947	20.936559
165.032917	-2.995800	3.858200	-11.557000	22.067673	0.000949	20.942723
166.034204	-2.980100	3.858500	-11.498000	22.075827	0.000949	20.941403
167.037855	-2.997400	3.858300	-11.563000	22.081600	0.000949	20.950025
168.034171	-3.000300	3.858000	-11.573000	22.079668	0.000951	20.959944
169.035546	-3.015500	3.856200	-11.627000	22.098715	0.000950	20.969054
170.038375	-3.001300	3.857300	-11.576000	22.104821	0.000951	20.951462
171.038292	-2.993400	3.856400	-11.543000	22.105474	0.000951	20.950693
172.039189	-3.003400	3.856300	-11.581000	22.107842	0.000952	20.962546
173.044538	-3.020900	3.856200	-11.647000	22.090601	0.000951	20.958561
174.041852	-3.014200	3.857900	-11.627000	22.122499	0.000952	20.940238
175.039908	-3.022000	3.855900	-11.652000	22.126082	0.000951	20.937188
176.039563	-2.997600	3.856100	-11.557000	22.152438	0.000954	20.964045
177.041293	-2.989900	3.855600	-11.527000	22.113257	0.000954	20.954692
178.039650	-2.991500	3.855900	-11.534000	22.139089	0.000953	20.976757
179.043374	-2.984800	3.855800	-11.507000	22.160951	0.000952	20.935114
180.039910	-2.988100	3.854600	-11.517000	22.154526	0.000953	20.960920
181.037135	-3.000200	3.855300	-11.566000	22.157214	0.000952	20.942751
182.037073	-2.975300	3.855300	-11.470000	22.146372	0.000955	20.955128
183.051004	-3.001400	3.854800	-11.568000	22.173444	0.000954	20.973221
184.041045	-3.004200	3.855600	-11.581000	22.175555	0.000956	20.942148
185.043855	-3.013100	3.854900	-11.614000	22.171613	0.000955	20.956217
186.043727	-2.998000	3.852400	-11.548000	22.164651	0.000954	20.956359
187.041866	-3.004600	3.854600	-11.580000	22.181432	0.000954	20.955617
188.048032	-3.019600	3.852900	-11.633000	22.161847	0.000955	20.950708
189.044182	-2.991600	3.853800	-11.527000	22.194704	0.000956	20.938561
190.047541	-2.990400	3.853300	-11.522000	22.207938	0.000957	20.945173
191.046946	-3.004000	3.854300	-11.578000	22.216463	0.000958	20.936639
192.041825	-2.986000	3.853200	-11.505000	22.218089	0.000956	20.944430
193.049265	-2.998000	3.852500	-11.549000	22.230824	0.000957	20.942482
194.050108	-3.023600	3.852000	-11.646000	22.253107	0.000959	20.936819
195.047617	-2.988200	3.853400	-11.514000	22.249920	0.000959	20.941214
196.048719	-3.025100	3.852500	-11.653000	22.243661	0.000959	20.939215
197.048844	-3.004700	3.854400	-11.580000	22.292257	0.000959	20.938087
198.049720	-2.984600	3.852000	-11.495000	22.268374	0.000959	20.942622
199.048297	-3.018700	3.852200	-11.628000	22.288263	0.000962	20.935511
200.050890	-2.991300	3.851300	-11.519000	22.277551	0.000962	20.918149
201.069344	-3.010400	3.851400	-11.592000	22.282632	0.000961	20.942674
202.051119	-3.015500	3.851300	-11.612000	22.279982	0.000963	20.939072
203.050546	-3.013900	3.849800	-11.601000	22.293626	0.000963	20.916227
204.056231	-2.997100	3.850700	-11.539000	22.277269	0.000963	20.918815
205.051855	-3.020200	3.849500	-11.625000	22.276718	0.000962	20.935805
206.052370	-2.986900	3.851200	-11.502000	22.289376	0.000964	20.929513
207.053716	-3.005400	3.851200	-11.572000	22.276667	0.000964	20.929590
208.051207	-3.019500	3.849900	-11.624000	22.306526	0.000965	20.925823
209.054714	-3.026600	3.848500	-11.647000	22.295033	0.000966	20.920006
210.059015	-2.997200	3.848600	-11.533000	22.321371	0.000968	20.924567
211.054499	-3.018300	3.847700	-11.613000	22.321884	0.000965	20.915599
212.057377	-2.994600	3.849900	-11.527000	22.319106	0.000967	20.906179
213.055323	-3.001200	3.849400	-11.552000	22.314128	0.000965	20.922530
214.057805	-2.980200	3.849900	-11.472000	22.331928	0.000966	20.900053
215.057220	-2.994500	3.849100	-11.524000	22.310109	0.000967	20.912817
216.057178	-3.006000	3.849000	-11.569000	22.312873	0.000965	20.918903
217.053801	-2.987800	3.850000	-11.502000	22.321716	0.000967	20.932024
218.050038	-2.992100	3.847400	-11.512000	22.308611	0.000969	20.907525
219.054834	-2.998800	3.848700	-11.539000	22.308905	0.000968	20.925361
220.057656	-2.993000	3.850100	-11.522000	22.300381	0.000968	20.933895
221.056586	-3.021400	3.846200	-11.619000	22.317377	0.000970	20.935740
222.055546	-3.015900	3.847800	-11.605000	22.315061	0.000969	20.921568
223.055689	-2.993400	3.848100	-11.518000	22.304478	0.000970	20.931832
224.058224	-2.981300	3.849000	-11.473000	22.322189	0.000971	20.901681
225.056850	-3.010700	3.847300	-11.582000	22.360558	0.000968	20.924926
226.054760	-2.991200	3.847500	-11.508000	22.354580	0.000972	20.913725
227.055949	-2.987000	3.846400	-11.489000	22.358727	0.000971	20.909344
228.060484	-2.987500	3.846000	-11.489000	22.371166	0.000972	20.913265
229.054825	-3.001100	3.846600	-11.543000	22.383261	0.000971	20.929642
230.057331	-3.006900	3.845700	-11.563000	22.399576	0.000971	20.909472
231.066354	-3.007400	3.845400	-11.564000	22.417198	0.000971	20.903886
232.059698	-2.997000	3.845800	-11.525000	22.401368	0.000973	20.911266
233.060747	-3.009000	3.845000	-11.569000	22.423570	0.000971	20.918326
234.061062	-3.012300	3.843700	-11.577000	22.421100	0.000973	20.897363
235.057355	-2.991700	3.845400	-11.504000	22.434446	0.000974	20.910727
236.061120	-3.000400	3.845700	-11.537000	22.446770	0.000974	20.905051
237.066714	-2.992500	3.844800	-11.505000	22.449061	0.000975	20.914931
238.064605	-3.002900	3.844100	-11.542000	22.452272	0.000975	20.897286
239.057748	-2.998100	3.844100	-11.524000	22.481396	0.000976	20.909855
240.062011	-2.995000	3.843500	-11.510000	22.476291	0.000976	20.894313
241.062960	-2.982200	3.842900	-11.460000	22.497762	0.000974	20.896375
242.065823	-2.987200	3.843600	-11.479000	22.498158	0.000976	20.910047
243.063805	-3.017200	3.842700	-11.593000	22.495549	0.000978	20.899374
244.063035	-3.012200	3.842100	-11.572000	22.514370	0.000977	20.916325
245.065675	-3.006300	3.843000	-11.552000	22.542137	0.000979	20.899091
246.077903	-2.996100	3.841700	-11.510000	22.503697	0.000978	20.906111
247.065682	-3.001800	3.841900	-11.531000	22.512604	0.000979	20.899859
248.066971	-3.022700	3.842500	-11.614000	22.505349	0.000978	20.904446
249.066943	-3.015100	3.841100	-11.579000	22.495957	0.000982	20.895515
250.068832	-3.002700	3.840200	-11.529000	22.491758	0.000981	20.898423
251.070496	-2.989800	3.841100	-11.483000	22.497517	0.000981	20.896129
252.069946	-2.995900	3.841700	-11.507000	22.478502	0.000982	20.902216
253.067580	-2.994500	3.840300	-11.497000	22.476608	0.000983	20.921180
254.069118	-2.993800	3.841100	-11.498000	22.493498	0.000982	20.887838
255.069586	-2.986300	3.841600	-11.472000	22.481112	0.000984	20.906252
256.069479	-3.006600	3.840800	-11.547000	22.511758	0.000984	20.893796
257.072206	-2.978200	3.841400	-11.440000	22.518694	0.000984	20.886993
258.070860	-2.989000	3.840500	-11.478000	22.539844	0.000985	20.900114
259.070693	-3.016900	3.840600	-11.585000	22.531323	0.000985	20.909122
260.071935	-2.987100	3.840100	-11.470000	22.516581	0.000985	20.902419
261.071300	-2.994100	3.840300	-11.497000	22.535646	0.000986	20.909659
262.067603	-3.006900	3.840000	-11.545000	22.588017	0.000985	20.902842
263.075061	-3.007700	3.838900	-11.546000	22.559612	0.000987	20.899049
264.072001	-2.989100	3.839200	-11.474000	22.580211	0.000986	20.900714
265.073743	-2.981500	3.838800	-11.444000	22.588670	0.000986	20.887376
266.072829	-3.003300	3.838700	-11.527000	22.600094	0.000988	20.883646
267.070795	-3.018100	3.836600	-11.576000	22.595092	0.000986	20.869154
268.075492	-3.024100	3.837400	-11.604000	22.596230	0.000989	20.876457
269.072633	-3.009200	3.837600	-11.546000	22.607709	0.000989	20.893642
270.072811	-3.016800	3.837200	-11.575000	22.621155	0.000989	20.891463
271.072682	-2.995300	3.837800	-11.494000	22.641819	0.000991	20.901254
272.068775	-3.002700	3.838200	-11.523000	22.666192	0.000990	20.885839
273.069414	-2.997300	3.837600	-11.501000	22.651902	0.000991	20.908508
274.070627	-2.989400	3.836100	-11.465000	22.676387	0.000990	20.899843
275.070185	-3.000700	3.837400	-11.514000	22.653243	0.000992	20.894205
276.069246	-3.008700	3.836000	-11.540000	22.682709	0.000992	20.888158
277.068933	-2.982500	3.836400	-11.441000	22.645389	0.000992	20.874012
278.073984	-3.004800	3.834700	-11.522000	22.632428	0.000993	20.888055
279.072213	-2.999300	3.836600	-11.506000	22.642894	0.000993	20.881943
280.073466	-3.005400	3.835700	-11.527000	22.667752	0.000993	20.901151
281.076883	-3.011700	3.834900	-11.548000	22.665961	0.000993	20.875651
282.074074	-3.001400	3.834500	-11.508000	22.668508	0.000994	20.872512
283.072752	-2.985100	3.834800	-11.446000	22.681762	0.000994	20.893848
284.079466	-3.007500	3.834800	-11.532000	22.671271	0.000996	20.884762
285.079175	-3.008000	3.833900	-11.531000	22.655470	0.000997	20.905918
286.073092	-3.017700	3.834400	-11.570000	22.643162	0.000996	20.899754
287.076509	-3.007400	3.834500	-11.531000	22.659246	0.000997	20.880778
288.079304	-2.995100	3.833700	-11.481000	22.653040	0.000998	20.874563
289.077116	-2.983400	3.835000	-11.439000	22.637649	0.000997	20.901345
290.082000	-3.017500	3.833400	-11.565000	22.668750	0.001000	20.876074
291.073373	-2.996500	3.833600	-11.486000	22.677374	0.000999	20.897986
292.084027	-2.988000	3.834200	-11.456000	22.665169	0.001000	20.887184
293.077667	-3.009600	3.833000	-11.534000	22.691601	0.000999	20.865772
294.077902	-3.017400	3.834300	-11.567000	22.688683	0.001001	20.890349
295.077048	-3.003200	3.834100	-11.514000	22.679267	0.001000	20.889926
296.074180	-3.003400	3.833100	-11.510000	22.675455	0.001000	20.878522
297.076992	-2.999200	3.832700	-11.494000	22.682977	0.001001	20.905021
298.078662	-3.005200	3.832100	-11.515000	22.684908	0.001000	20.886094
299.081451	-3.001700	3.831000	-11.498000	22.695590	0.001002	20.874983
300.075467	-2.985900	3.831900	-11.441000	22.699377	0.001003	20.877828
301.082043	-3.011100	3.831900	-11.537000	22.699212	0.001004	20.893308
302.080394	-3.000600	3.831300	-11.495000	22.713336	0.001003	20.877585
303.081235	-3.024600	3.829000	-11.578000	22.730325	0.001002	20.889387
304.080450	-2.996600	3.830900	-11.479000	22.737528	0.001005	20.861990
305.079927	-3.015600	3.829700	-11.547000	22.733753	0.001005	20.862476
306.084868	-2.991000	3.828400	-11.449000	22.736849	0.001005	20.859414
307.085184	-3.003000	3.829800	-11.499000	22.751101	0.001006	20.876534
308.081560	-3.003200	3.829300	-11.498000	22.718349	0.001005	20.894933
309.081733	-3.025800	3.829000	-11.584000	22.730069	0.001006	20.867794
310.083434	-3.002000	3.830500	-11.498000	22.715355	0.001008	20.863487
311.079232	-3.008800	3.828600	-11.518000	22.726282	0.001010	20.859734
312.084012	-3.020700	3.827400	-11.560000	22.708856	0.001007	20.875943
313.083302	-2.988300	3.829600	-11.443000	22.739892	0.001010	20.878582
314.083973	-2.980200	3.828600	-11.409000	22.750140	0.001008	20.872253
315.084100	-3.014600	3.828400	-11.539000	22.730579	0.001009	20.871625
316.084373	-3.000800	3.828500	-11.487000	22.766297	0.001010	20.868523
317.085830	-3.003900	3.827300	-11.496000	22.774458	0.001009	20.885232
318.082834	-3.008700	3.826300	-11.510000	22.771298	0.001012	20.878274
319.084728	-2.984600	3.827500	-11.423000	22.780893	0.001011	20.860860
320.083395	-3.012700	3.827800	-11.531000	22.783297	0.001013	20.883655
321.084712	-3.010200	3.826600	-11.518000	22.781686	0.001013	20.869714
322.092095	-2.995400	3.825500	-11.458000	22.760295	0.001012	20.881950
323.083142	-2.977800	3.825800	-11.391000	22.793671	0.001015	20.896891
324.083924	-2.986100	3.827200	-11.426000	22.822198	0.001013	20.881847
325.085076	-2.994700	3.826500	-11.458000	22.838279	0.001015	20.854336
326.085434	-3.013300	3.824000	-11.521000	22.846516	0.001015	20.867329
327.087168	-3.008800	3.825800	-11.510000	22.862686	0.001015	20.878785
328.096338	-2.985600	3.824200	-11.415000	22.894972	0.001016	20.867509
329.085554	-3.024000	3.823500	-11.560000	22.883382	0.001016	20.865382
330.085538	-3.009400	3.824000	-11.505000	22.888281	0.001015	20.868392
331.083152	-2.987000	3.823500	-11.419000	22.897658	0.001016	20.872570
332.084351	-3.000800	3.825100	-11.477000	22.911905	0.001018	20.878309
333.084836	-2.985800	3.826100	-11.423000	22.916358	0.001019	20.874710
334.081887	-2.987500	3.822300	-11.418000	22.924455	0.001019	20.883295
335.084385	-3.018400	3.823200	-11.537000	22.893717	0.001018	20.869572
336.083781	-3.020500	3.822100	-11.544000	22.914542	0.001018	20.874313
337.085206	-2.995300	3.823800	-11.453000	22.895750	0.001022	20.882513
338.086937	-2.996100	3.823400	-11.455000	22.899038	0.001020	20.858307
339.086044	-2.988000	3.822600	-11.421000	22.896352	0.001021	20.880745
340.083927	-3.007100	3.822000	-11.491000	22.904141	0.001022	20.869109
341.086943	-3.001400	3.822500	-11.470000	22.915346	0.001022	20.868955
342.090762	-2.997700	3.822200	-11.456000	22.920449	0.001022	20.853680
343.087072	-3.033400	3.820600	-11.588000	22.923098	0.001023	20.871980
344.089239	-2.988100	3.822100	-11.419000	22.929672	0.001023	20.861972
345.091483	-2.995100	3.821700	-11.445000	22.922688	0.001024	20.867301
346.087841	-3.005700	3.821300	-11.485000	22.951366	0.001025	20.835817
347.091779	-2.978100	3.822900	-11.384000	22.949216	0.001024	20.862586
348.091630	-3.000700	3.820600	-11.463000	22.978136	0.001026	20.867378
349.095040	-3.019100	3.820000	-11.531000	22.965013	0.001026	20.863240
350.092550	-2.989600	3.819900	-11.419000	22.972534	0.001026	20.862714
351.095390	-2.993500	3.818400	-11.430000	22.982486	0.001027	20.852297
352.091014	-2.997500	3.819600	-11.448000	23.000161	0.001026	20.866687
353.093358	-2.997800	3.818800	-11.447000	23.002707	0.001027	20.854065
354.095635	-3.021100	3.818700	-11.536000	23.016314	0.001028	20.867224
355.093846	-3.006000	3.818600	-11.478000	23.023632	0.001028	20.858435
356.093271	-3.000200	3.819200	-11.457000	23.004588	0.001029	20.829873
357.095285	-2.988100	3.817800	-11.406000	22.998907	0.001031	20.849784
358.095259	-2.996200	3.818700	-11.440000	22.995968	0.001029	20.853003
359.095490	-2.991300	3.819300	-11.424000	23.012363	0.001029	20.841930
360.102217	-2.997700	3.817600	-11.442000	23.018925	0.001028	20.859883
361.096303	-3.003000	3.818900	-11.466000	23.012095	0.001029	20.854463
362.100146	-3.013700	3.816900	-11.502000	23.025602	0.001031	20.852823
363.094692	-2.990700	3.816600	-11.413000	23.015139	0.001031	20.860358
364.092346	-2.990500	3.818800	-11.418000	23.004677	0.001032	20.847979
365.093555	-2.997800	3.816200	-11.440000	23.015088	0.001030	20.819531
366.094402	-2.993400	3.816700	-11.423000	23.005623	0.001032	20.858884
367.094406	-2.987400	3.817400	-11.403000	23.035463	0.001033	20.851323
368.094553	-3.002800	3.817000	-11.460000	23.040834	0.001034	20.826834
369.096894	-3.014500	3.814700	-11.499000	23.060902	0.001034	20.862588
370.095041	-3.003200	3.814400	-11.455000	23.061643	0.001033	20.826823
371.096933	-2.974400	3.817200	-11.352000	23.084856	0.001037	20.855296
372.094268	-2.989800	3.813800	-11.401000	23.070429	0.001036	20.840841
373.099271	-2.974200	3.816800	-11.351000	23.087120	0.001035	20.839547
374.094873	-2.982900	3.814400	-11.377000	23.092938	0.001037	20.833524
375.094585	-2.981400	3.813600	-11.368000	23.075392	0.001036	20.829693
376.100384	-2.982200	3.813400	-11.372000	23.075700	0.001037	20.855605
377.096430	-3.017100	3.813200	-11.504000	23.105574	0.001039	20.848556
378.096838	-3.004500	3.813000	-11.455000	23.135539	0.001038	20.852977
379.099448	-3.004900	3.814100	-11.460000	23.158610	0.001038	20.855233
380.095467	-3.006200	3.811900	-11.457000	23.139977	0.001040	20.826605
381.097064	-3.015200	3.812300	-11.494000	23.163265	0.001039	20.839984
382.107015	-2.988600	3.814200	-11.398000	23.146410	0.001041	20.843957
383.097177	-3.013900	3.810900	-11.485000	23.166796	0.001038	20.827876
384.098087	-2.970500	3.812500	-11.322000	23.157499	0.001039	20.858861
385.096606	-2.997700	3.811700	-11.425000	23.152704	0.001040	20.841255
386.094348	-3.014800	3.811400	-11.491000	23.164354	0.001040	20.826851
387.101965	-3.000600	3.812500	-11.439000	23.153433	0.001042	20.834874
388.096354	-2.994000	3.809900	-11.405000	23.160300	0.001042	20.811409
389.095064	-2.994600	3.811300	-11.412000	23.184215	0.001042	20.813563
390.102341	-3.002700	3.810500	-11.441000	23.183819	0.001042	20.836873
391.099889	-2.997900	3.810900	-11.424000	23.193909	0.001043	20.841294
392.102988	-2.986100	3.810600	-11.377000	23.151746	0.001044	20.826071
393.098071	-2.991700	3.811300	-11.402000	23.161070	0.001044	20.826405
394.100712	-2.999200	3.809800	-11.425000	23.157860	0.001046	20.838361
395.109706	-3.019700	3.809000	-11.500000	23.158359	0.001043	20.838387
396.103042	-3.001200	3.808600	-11.429000	23.171402	0.001046	20.829647
397.099865	-3.001500	3.808100	-11.429000	23.155904	0.001045	20.824548
398.101507	-3.007400	3.808200	-11.452000	23.168540	0.001046	20.819192
399.098548	-2.991200	3.809700	-11.395000	23.166212	0.001046	20.825393
400.102138	-2.986400	3.809700	-11.375000	23.189154	0.001045	20.830366
401.098216	-3.000500	3.806900	-11.420000	23.196251	0.001048	20.844116
402.099799	-2.991600	3.808800	-11.393000	23.206969	0.001045	20.837312
403.116196	-3.007000	3.807200	-11.446000	23.215038	0.001045	20.826433
404.099642	-3.003700	3.805300	-11.427000	23.210882	0.001048	20.836018
405.104591	-2.986900	3.805800	-11.367000	23.212763	0.001050	20.828895
406.098239	-2.995000	3.805800	-11.397000	23.247915	0.001050	20.811491
407.101022	-3.001900	3.805100	-11.422000	23.227111	0.001050	20.822411
408.103409	-2.995100	3.806500	-11.399000	23.251138	0.001048	20.828946
409.103681	-2.993200	3.805600	-11.390000	23.262622	0.001049	20.818169
410.107193	-2.991100	3.806300	-11.382000	23.269069	0.001052	20.812302
411.102058	-2.995100	3.804400	-11.394000	23.250181	0.001051	20.809020
412.099409	-3.004100	3.806300	-11.432000	23.283390	0.001050	20.831870
413.102419	-2.992000	3.805400	-11.385000	23.271691	0.001052	20.813981
414.105182	-3.008700	3.802600	-11.440000	23.272369	0.001052	20.805652
415.100226	-3.004500	3.803700	-11.427000	23.270898	0.001052	20.818877
416.105530	-2.978200	3.804900	-11.331000	23.273763	0.001054	20.817480
417.104412	-2.980500	3.804200	-11.338000	23.283136	0.001051	20.815021
418.104305	-3.015600	3.802300	-11.464000	23.292638	0.001053	20.819802
419.104175	-2.971600	3.803700	-11.302000	23.288942	0.001053	20.815149
420.104158	-2.995900	3.803100	-11.393000	23.301206	0.001054	20.814164
421.101219	-2.992300	3.803200	-11.379000	23.315681	0.001053	20.818240
422.103975	-2.991900	3.802500	-11.376000	23.303508	0.001055	20.834015
423.104620	-2.978300	3.803600	-11.327000	23.347635	0.001055	20.820393
424.108108	-2.997300	3.801100	-11.393000	23.305375	0.001054	20.813127
425.107457	-3.007600	3.801600	-11.433000	23.316436	0.001055	20.824212
426.113022	-3.007700	3.800300	-11.429000	23.310069	0.001055	20.807874
427.107069	-2.979700	3.801400	-11.326000	23.289674	0.001056	20.797865
428.106066	-2.984200	3.800400	-11.340000	23.302154	0.001056	20.782872
429.103038	-2.992200	3.801800	-11.374000	23.317921	0.001057	20.811950
430.109063	-2.982800	3.800200	-11.333000	23.307589	0.001056	20.808708
431.108283	-2.979600	3.800500	-11.323000	23.337241	0.001059	20.804761
432.107078	-3.000100	3.799000	-11.396000	23.335631	0.001057	20.818793
433.104681	-2.998500	3.798800	-11.389000	23.320235	0.001057	20.805735
434.109942	-2.984900	3.799200	-11.339000	23.310428	0.001059	20.811553
435.110515	-2.995400	3.798500	-11.377000	23.318382	0.001058	20.816680
436.113276	-2.992100	3.798500	-11.365000	23.342382	0.001059	20.809439
437.111185	-3.010300	3.797700	-11.430000	23.334775	0.001058	20.799919
438.108805	-3.004100	3.797000	-11.404000	23.366817	0.001057	20.809747
439.109633	-2.977800	3.798500	-11.310000	23.380933	0.001061	20.787385
440.107122	-3.012700	3.796200	-11.435000	23.371779	0.001058	20.802392
441.113537	-3.020700	3.796600	-11.467000	23.374335	0.001060	20.775083
442.108006	-2.999700	3.796700	-11.388000	23.370693	0.001060	20.790873
443.116001	-3.002100	3.796100	-11.396000	23.354454	0.001059	20.793089
444.111933	-2.989400	3.796000	-11.346000	23.358686	0.001060	20.785477
445.111862	-2.984800	3.797600	-11.334000	23.379208	0.001062	20.793717
446.115620	-2.979200	3.797200	-11.312000	23.378505	0.001060	20.798702
447.113580	-2.998800	3.795000	-11.379000	23.383902	0.001062	20.794629
448.112484	-2.994900	3.795300	-11.365000	23.435056	0.001062	20.788053
449.108358	-3.005200	3.794700	-11.402000	23.434047	0.001061	20.781826
450.111833	-3.004000	3.795300	-11.400000	23.436566	0.001064	20.799998
451.109352	-2.987500	3.795500	-11.338000	23.455385	0.001061	20.801792
452.113047	-2.992500	3.797300	-11.361000	23.455476	0.001063	20.764899
453.112940	-3.013000	3.794700	-11.433000	23.470970	0.001062	20.786594
454.113645	-2.989700	3.793700	-11.341000	23.463122	0.001065	20.785839
455.117939	-2.993100	3.793200	-11.353000	23.452242	0.001063	20.797693
456.116992	-2.993700	3.792800	-11.352000	23.452689	0.001063	20.799564
457.117982	-3.007200	3.792900	-11.404000	23.441234	0.001062	20.767693
458.109860	-2.995500	3.792900	-11.361000	23.391896	0.001066	20.793157
459.114140	-2.993900	3.792100	-11.351000	23.411368	0.001065	20.767630
460.111451	-3.004000	3.790700	-11.386000	23.398020	0.001066	20.779381
461.111133	-3.006500	3.792900	-11.401000	23.406740	0.001065	20.771052
462.112916	-2.996200	3.791600	-11.358000	23.390040	0.001066	20.778021
463.114741	-2.991000	3.791700	-11.340000	23.395324	0.001063	20.782843
464.115769	-2.992200	3.791400	-11.343000	23.392101	0.001066	20.782457
465.115331	-3.008400	3.789400	-11.399000	23.424001	0.001067	20.788827
466.115052	-3.014300	3.788300	-11.418000	23.435560	0.001066	20.785713
467.113914	-2.996000	3.789700	-11.353000	23.417301	0.001066	20.765990
468.120951	-2.997500	3.790700	-11.361000	23.412699	0.001066	20.775128
469.115829	-3.012100	3.790000	-11.414000	23.418247	0.001067	20.776422
470.120831	-3.015100	3.788700	-11.422000	23.413696	0.001069	20.787981
471.119214	-2.996300	3.789600	-11.354000	23.422967	0.001068	20.779729
472.120554	-3.018800	3.788200	-11.435000	23.451823	0.001067	20.778307
473.123938	-3.008200	3.786900	-11.391000	23.440891	0.001067	20.795325
474.116827	-2.988700	3.789100	-11.323000	23.447782	0.001068	20.775679
475.120554	-3.001600	3.788700	-11.371000	23.461361	0.001070	20.772220
476.116899	-2.998900	3.787800	-11.359000	23.453114	0.001069	20.757315
477.119606	-2.995500	3.787900	-11.346000	23.468866	0.001070	20.765993
478.122433	-2.989200	3.788400	-11.323000	23.422046	0.001070	20.758892
479.125245	-3.012900	3.786700	-11.408000	23.431610	0.001070	20.750934
480.120998	-2.994700	3.786900	-11.340000	23.420205	0.001069	20.757521
481.117535	-3.004300	3.786000	-11.374000	23.457169	0.001069	20.732455
482.122027	-3.000200	3.786700	-11.359000	23.465017	0.001069	20.759289
483.121817	-3.012900	3.786200	-11.406000	23.474836	0.001070	20.770080
484.126639	-3.006700	3.785800	-11.382000	23.444012	0.001072	20.765261
485.118847	-2.980300	3.786600	-11.284000	23.438629	0.001071	20.765082
486.123623	-3.001200	3.784200	-11.356000	23.439358	0.001071	20.746372
487.121143	-2.999400	3.784000	-11.349000	23.446531	0.001071	20.773951
488.123106	-2.980500	3.786100	-11.283000	23.465005	0.001072	20.763071
489.125790	-3.010900	3.784900	-11.394000	23.481140	0.001073	20.786356
490.121192	-2.999000	3.784400	-11.349000	23.459956	0.001073	20.773656
491.122447	-2.975900	3.784700	-11.261000	23.492760	0.001070	20.774770
492.122156	-3.005700	3.782000	-11.366000	23.506467	0.001071	20.771914
493.123735	-3.012800	3.782200	-11.394000	23.502796	0.001072	20.748794
494.123371	-2.996500	3.783400	-11.336000	23.516719	0.001072	20.780295
495.122842	-3.014700	3.781600	-11.397000	23.516220	0.001070	20.754190
496.123387	-3.041300	3.780800	-11.497000	23.548847	0.001073	20.777412
497.125498	-3.020100	3.782300	-11.422000	23.564328	0.001074	20.759740
498.123795	-2.985700	3.782300	-11.293000	23.598038	0.001074	20.748962
499.124038	-3.013700	3.779000	-11.387000	23.587721	0.001073	20.760905
500.125010	-3.003600	3.781100	-11.356000	23.607484	0.001076	20.788778
501.124654	-2.998100	3.780500	-11.334000	23.615550	0.001075	20.769837
502.123875	-3.021900	3.778300	-11.416000	23.618388	0.001074	20.759880
503.121275	-3.019900	3.778500	-11.409000	23.594214	0.001075	20.777847
504.124360	-2.995200	3.778300	-11.315000	23.594482	0.001073	20.784279
505.125808	-3.001300	3.777900	-11.337000	23.561413	0.001076	20.761085
506.127493	-2.989500	3.778400	-11.294000	23.550303	0.001076	20.780295
507.125762	-2.998900	3.778500	-11.330000	23.544459	0.001075	20.766376
508.126106	-2.979700	3.778600	-11.258000	23.510006	0.001076	20.752702
509.131510	-2.992000	3.777500	-11.302000	23.533899	0.001076	20.751048
510.127623	-3.019000	3.777000	-11.401000	23.563749	0.001075	20.784291
511.130123	-3.022900	3.776900	-11.415000	23.547476	0.001074	20.757546
512.124778	-3.006700	3.778100	-11.359000	23.538130	0.001074	20.767144
513.130399	-3.004500	3.776400	-11.345000	23.556666	0.001078	20.786199
514.129668	-2.977600	3.777200	-11.245000	23.555899	0.001076	20.771206
515.125951	-3.024300	3.774600	-11.415000	23.561499	0.001076	20.777293
516.127406	-3.020000	3.775800	-11.402000	23.574409	0.001076	20.751354
517.129149	-2.985500	3.776400	-11.274000	23.586476	0.001078	20.775305
518.128164	-2.986300	3.776500	-11.277000	23.578948	0.001076	20.762542
519.126770	-2.996500	3.775300	-11.311000	23.596768	0.001078	20.759069
520.130386	-2.984500	3.776800	-11.270000	23.581504	0.001080	20.766527
521.126091	-2.988700	3.775600	-11.283000	23.579342	0.001077	20.788542
522.127762	-2.981200	3.776000	-11.256000	23.562903	0.001079	20.782969
523.128976	-2.992600	3.775300	-11.297000	23.576914	0.001079	20.767616
524.131583	-2.995600	3.774500	-11.306000	23.550719	0.001079	20.769332
525.130233	-2.993300	3.773700	-11.295000	23.530329	0.001079	20.753159
526.133571	-2.995100	3.772500	-11.298000	23.564898	0.001078	20.775485
527.132582	-2.991800	3.773700	-11.290000	23.567135	0.001078	20.763502
528.132123	-3.000900	3.772300	-11.319000	23.580262	0.001080	20.783774
529.130702	-3.004400	3.773000	-11.334000	23.600025	0.001080	20.773714
530.128247	-3.000300	3.773400	-11.320000	23.635065	0.001079	20.769012
531.129333	-3.002100	3.772500	-11.324000	23.628429	0.001081	20.778956
532.130243	-2.999700	3.770600	-11.310000	23.620146	0.001080	20.774445
533.133082	-3.007700	3.771800	-11.343000	23.640945	0.001079	20.786762
534.130066	-2.996200	3.771400	-11.299000	23.644025	0.001079	20.780367
535.133704	-3.005900	3.769300	-11.329000	23.677631	0.001080	20.762374
536.132514	-3.003800	3.769900	-11.322000	23.682423	0.001079	20.793732
537.137386	-2.983400	3.770700	-11.248000	23.699757	0.001080	20.782186
538.139638	-3.005800	3.770100	-11.331000	23.704204	0.001080	20.772894
539.130354	-2.995600	3.769400	-11.290000	23.720617	0.001080	20.789824
540.136422	-3.006100	3.768600	-11.328000	23.731047	0.001082	20.776099
541.134181	-3.008200	3.768000	-11.334000	23.739674	0.001081	20.777162
542.137094	-3.014300	3.768100	-11.358000	23.722330	0.001078	20.782532
543.138224	-3.002500	3.766900	-11.308000	23.731047	0.001081	20.792220
544.136486	-2.991200	3.768200	-11.270000	23.720859	0.001078	20.789593
545.134998	-2.970200	3.768500	-11.193000	23.741349	0.001081	20.784531
546.137309	-2.989800	3.767800	-11.264000	23.743816	0.001082	20.778470
547.134857	-3.008000	3.766900	-11.329000	23.731099	0.001081	20.790849
548.131534	-2.993700	3.766500	-11.275000	23.745184	0.001081	20.773203
549.137903	-2.968900	3.766900	-11.182000	23.738321	0.001080	20.787659
550.140918	-3.002400	3.765400	-11.305000	23.754309	0.001080	20.780455
551.141721	-3.029700	3.765700	-11.407000	23.750092	0.001081	20.791401
552.133880	-3.009500	3.764400	-11.328000	23.742959	0.001081	20.785671
553.139907	-3.001700	3.764700	-11.299000	23.724822	0.001082	20.799256
554.140775	-2.989000	3.764300	-11.251000	23.743124	0.001080	20.771612
555.137477	-2.999800	3.766100	-11.297000	23.749363	0.001079	20.784031
556.136613	-3.001800	3.764900	-11.300000	23.728988	0.001081	20.792052
557.134853	-3.021200	3.763200	-11.367000	23.722432	0.001079	20.804446
558.134171	-3.015000	3.762800	-11.344000	23.725589	0.001080	20.798128
559.133119	-2.990100	3.764000	-11.254000	23.734882	0.001082	20.787056
560.133824	-3.014000	3.763900	-11.344000	23.747956	0.001081	20.778353
561.133661	-2.997000	3.763600	-11.278000	23.741491	0.001080	20.812649
562.133951	-2.985600	3.762600	-11.232000	23.753249	0.001081	20.791246
563.133827	-2.965900	3.765100	-11.165000	23.774504	0.001083	20.805920
564.133763	-2.996200	3.762200	-11.271000	23.793318	0.001081	20.776893
565.136954	-2.995600	3.762000	-11.268000	23.785549	0.001081	20.807036
566.137328	-2.991000	3.762500	-11.253000	23.798061	0.001082	20.801564
567.137284	-3.013900	3.759700	-11.331000	23.824441	0.001081	20.803831
568.136391	-3.001800	3.761200	-11.289000	23.790047	0.001082	20.785942
569.137770	-3.018800	3.760400	-11.351000	23.789050	0.001082	20.790158
570.139026	-3.023900	3.759900	-11.367000	23.806650	0.001082	20.805908
571.140312	-2.999100	3.759100	-11.272000	23.796514	0.001081	20.792900
572.139180	-2.981500	3.759700	-11.209000	23.815624	0.001082	20.806845
573.139672	-2.987300	3.758700	-11.227000	23.797244	0.001081	20.802166
574.135469	-2.986300	3.758900	-11.225000	23.789204	0.001082	20.802166
575.139445	-3.013700	3.758200	-11.326000	23.790304	0.001081	20.817493
576.141778	-3.019100	3.757200	-11.342000	23.796899	0.001082	20.821261
577.140299	-3.008300	3.756400	-11.299000	23.826870	0.001081	20.806268
578.144263	-2.987900	3.758200	-11.227000	23.807508	0.001081	20.786853
579.138116	-2.997900	3.757200	-11.262000	23.835228	0.001083	20.817967
580.139257	-3.007200	3.756000	-11.294000	23.873403	0.001083	20.821632
581.143490	-3.009000	3.755400	-11.298000	23.862362	0.001081	20.820044
582.144658	-2.985600	3.757000	-11.216000	23.852893	0.001082	20.801540
583.139481	-3.008400	3.755800	-11.298000	23.847640	0.001083	20.794377
584.141629	-3.018100	3.755400	-11.333000	23.872714	0.001084	20.821415
585.145173	-3.007900	3.754700	-11.293000	23.876753	0.001082	20.813611
586.141369	-3.013300	3.755200	-11.315000	23.864803	0.001081	20.825811
587.145750	-3.010600	3.754300	-11.301000	23.865213	0.001082	20.799195
588.142833	-2.991100	3.755100	-11.232000	23.871756	0.001084	20.832308
589.138680	-3.006000	3.754800	-11.286000	23.871654	0.001084	20.803283
590.141115	-2.989400	3.754700	-11.224000	23.884205	0.001083	20.812074
591.142734	-2.983700	3.754000	-11.200000	23.886429	0.001081	20.801029
592.147415	-2.990600	3.754500	-11.227000	23.917638	0.001082	20.806245
593.144604	-2.979700	3.754500	-11.187000	23.898966	0.001082	20.839678
594.146534	-3.003300	3.753200	-11.271000	23.917330	0.001083	20.813997
595.143518	-2.988700	3.752800	-11.214000	23.923990	0.001083	20.837270
596.144258	-3.000900	3.752000	-11.257000	23.940015	0.001081	20.814934
597.142855	-2.980300	3.753200	-11.185000	23.962506	0.001081	20.816150
598.145038	-3.005600	3.752200	-11.276000	23.977713	0.001082	20.824288
599.145192	-2.969100	3.752700	-11.141000	23.973751	0.001081	20.813203
600.145638	-3.004100	3.751000	-11.267000	23.981393	0.001084	20.816599
601.149649	-2.969400	3.751500	-11.139000	23.971324	0.001083	20.818355
602.147886	-3.010700	3.749400	-11.288000	23.981587	0.001082	20.826750
603.148973	-2.982200	3.751000	-11.186000	23.993470	0.001083	20.809269
604.147073	-2.990000	3.750000	-11.212000	24.002581	0.001081	20.842114
605.152178	-3.001000	3.748400	-11.247000	24.004715	0.001083	20.823865
606.152210	-2.994500	3.750000	-11.228000	24.005111	0.001083	20.815253
607.150420	-2.999300	3.749500	-11.245000	24.002903	0.001084	20.831531
608.149704	-3.021300	3.747300	-11.320000	24.000360	0.001081	20.829455
609.149407	-2.993300	3.748200	-11.218000	23.997674	0.001085	20.838141
610.154082	-2.995700	3.748700	-11.229000	23.996845	0.001083	20.827353
611.147419	-3.025000	3.746100	-11.330000	23.980820	0.001083	20.833094
612.146954	-3.007600	3.746600	-11.268000	23.964579	0.001081	20.844307
613.153009	-2.990100	3.747200	-11.203000	23.964374	0.001080	20.830352
614.156591	-3.003000	3.747000	-11.251000	23.969345	0.001082	20.852879
615.152002	-2.989900	3.746000	-11.199000	23.986751	0.001082	20.832402
616.151943	-3.007900	3.746800	-11.270000	23.987121	0.001081	20.821868
617.152465	-2.976900	3.747500	-11.155000	23.992578	0.001084	20.829238
618.156075	-2.994600	3.745000	-11.213000	23.961665	0.001081	20.834273
619.159737	-2.993800	3.745500	-11.211000	23.980530	0.001079	20.838492
620.154272	-3.007400	3.744600	-11.260000	23.981102	0.001079	20.828635
621.154336	-2.986100	3.744600	-11.181000	23.989140	0.001081	20.833376
622.154168	-3.024500	3.743200	-11.320000	23.971748	0.001080	20.837746
623.151138	-3.023400	3.743500	-11.317000	23.973500	0.001082	20.855623
624.153281	-2.997000	3.744300	-11.220000	23.971136	0.001082	20.857046
625.155470	-3.016300	3.742100	-11.286000	23.976220	0.001083	20.839860
626.154020	-3.012800	3.743300	-11.277000	23.976363	0.001081	20.856123
627.153838	-2.984900	3.743100	-11.171000	23.996822	0.001081	20.827804
628.154716	-3.000800	3.742200	-11.228000	24.021690	0.001081	20.834250
629.164275	-3.014100	3.741400	-11.275000	24.035042	0.001082	20.847640
630.156847	-3.031500	3.741900	-11.343000	24.068163	0.001081	20.844821
631.157144	-3.012600	3.742700	-11.274000	24.035056	0.001082	20.870887
632.157384	-2.988400	3.741600	-11.180000	24.074808	0.001081	20.864286
633.157012	-3.005300	3.741100	-11.242000	24.075332	0.001081	20.850114
634.155221	-3.012300	3.741500	-11.269000	24.093234	0.001080	20.841991
635.158538	-2.994500	3.740800	-11.201000	24.107736	0.001080	20.849422
636.157354	-3.016200	3.738900	-11.275000	24.114458	0.001081	20.840517
637.155667	-2.994900	3.739600	-11.199000	24.107212	0.001080	20.871655
638.161627	-3.000400	3.740500	-11.222000	24.112618	0.001080	20.855266
639.159308	-3.000000	3.739100	-11.216000	24.154348	0.001080	20.863929
640.163671	-2.995800	3.738400	-11.198000	24.153186	0.001082	20.867505
641.160179	-3.007700	3.737500	-11.240000	24.129241	0.001079	20.867671
642.159756	-3.007600	3.737800	-11.241000	24.132576	0.001081	20.859162
643.156868	-2.988300	3.740100	-11.175000	24.137369	0.001078	20.865865
644.154062	-3.012300	3.737300	-11.257000	24.148254	0.001081	20.864929
645.161320	-3.007700	3.736300	-11.236000	24.156316	0.001079	20.854998
646.159466	-3.002500	3.737400	-11.219000	24.170473	0.001078	20.876782
647.165750	-2.981800	3.737500	-11.143000	24.183427	0.001080	20.869387
648.158370	-2.998300	3.737400	-11.203000	24.194263	0.001079	20.875514
649.162685	-2.977200	3.735700	-11.120000	24.201827	0.001080	20.864135
650.167032	-3.010500	3.735000	-11.243000	24.204791	0.001079	20.882280
651.162292	-2.983900	3.736200	-11.147000	24.224096	0.001077	20.857548
652.163167	-2.981000	3.737100	-11.140000	24.219369	0.001080	20.863238
653.161553	-2.998400	3.735900	-11.201000	24.215997	0.001081	20.857011
654.158360	-3.012200	3.735800	-11.252000	24.222857	0.001080	20.893761
655.159842	-2.974700	3.735000	-11.110000	24.202351	0.001079	20.871772
656.166342	-2.971500	3.734400	-11.095000	24.197854	0.001079	20.888123
657.162427	-3.004500	3.734500	-11.218000	24.220200	0.001079	20.880192
658.161978	-3.022600	3.731900	-11.279000	24.201189	0.001078	20.874874
659.168403	-2.981800	3.734300	-11.133000	24.203732	0.001080	20.879795
660.163826	-2.998300	3.733300	-11.193000	24.213314	0.001079	20.869493
661.170146	-3.000900	3.732100	-11.198000	24.191250	0.001078	20.869647
662.164344	-2.991000	3.734100	-11.168000	24.181565	0.001079	20.888380
663.165281	-2.988400	3.732700	-11.154000	24.195314	0.001076	20.873249
664.168074	-2.997900	3.731900	-11.187000	24.168163	0.001078	20.882999
665.161702	-2.966400	3.732400	-11.071000	24.159745	0.001077	20.884513
666.166998	-3.013100	3.730700	-11.240000	24.148476	0.001079	20.896917
667.168369	-2.980100	3.732700	-11.123000	24.145141	0.001079	20.880297
668.166514	-3.006800	3.730500	-11.216000	24.171167	0.001079	20.874160
669.165493	-2.984700	3.731300	-11.134000	24.152258	0.001078	20.889805
670.165459	-2.996500	3.728900	-11.172000	24.163603	0.001076	20.891228
671.168468	-2.998400	3.729900	-11.183000	24.170606	0.001077	20.886872
672.169010	-3.000400	3.729300	-11.188000	24.142153	0.001079	20.885835
673.164840	-2.993000	3.729700	-11.162000	24.122169	0.001077	20.903249
674.170830	-3.008400	3.728300	-11.215000	24.127498	0.001079	20.908593
675.168401	-3.003100	3.729400	-11.199000	24.087774	0.001077	20.909055
676.165750	-3.008200	3.728500	-11.215000	24.104281	0.001076	20.896214
677.169671	-3.019000	3.727700	-11.253000	24.129953	0.001076	20.880237
678.169441	-3.037300	3.726000	-11.316000	24.157321	0.001076	20.911477
679.173648	-2.990400	3.727200	-11.145000	24.192047	0.001077	20.895101
680.170134	-2.998500	3.726600	-11.173000	24.195396	0.001078	20.895615
681.170235	-3.008600	3.725400	-11.207000	24.186656	0.001076	20.902495
682.168502	-2.993000	3.725900	-11.151000	24.211850	0.001077	20.897420
683.173587	-2.991600	3.725700	-11.144000	24.195612	0.001076	20.900573
684.171956	-3.011900	3.724600	-11.217000	24.203954	0.001076	20.900878
685.171319	-3.009800	3.724000	-11.207000	24.213958	0.001077	20.908067
686.172057	-2.984100	3.725600	-11.117000	24.198551	0.001077	20.883133
687.175999	-3.014600	3.724300	-11.227000	24.169458	0.001076	20.909427
688.175596	-3.010700	3.724500	-11.213000	24.183270	0.001075	20.901944
689.171638	-3.013700	3.724800	-11.224000	24.164104	0.001076	20.904057
690.182327	-2.989900	3.724200	-11.134000	24.198192	0.001075	20.925443
691.173454	-2.978400	3.723600	-11.090000	24.185876	0.001075	20.923995
692.172682	-2.994100	3.722600	-11.144000	24.176883	0.001076	20.913554
693.170039	-3.009000	3.723900	-11.204000	24.174365	0.001076	20.923356
694.168229	-3.017100	3.723100	-11.232000	24.201809	0.001074	20.900624
695.170106	-3.003000	3.722800	-11.179000	24.193351	0.001073	20.897831
696.170596	-3.026000	3.721600	-11.261000	24.207724	0.001072	20.923150
697.170656	-3.017300	3.721800	-11.227000	24.232151	0.001073	20.922522
698.172578	-3.004800	3.720800	-11.179000	24.242463	0.001074	20.897780
699.174407	-3.000500	3.720900	-11.164000	24.250613	0.001072	20.917806
700.174010	-2.991000	3.720800	-11.128000	24.232943	0.001073	20.917152
701.175614	-3.018700	3.720900	-11.231000	24.220641	0.001073	20.929942
702.175599	-3.020600	3.720400	-11.237000	24.209717	0.001072	20.918512
703.171846	-2.992500	3.721400	-11.136000	24.182083	0.001073	20.916398
704.177379	-3.003800	3.719700	-11.172000	24.212235	0.001074	20.898753
705.172568	-2.987900	3.720500	-11.116000	24.233327	0.001072	20.912323
706.176327	-3.014900	3.720000	-11.215000	24.227043	0.001072	20.923561
707.178746	-2.983800	3.720400	-11.100000	24.214892	0.001073	20.931287
708.178226	-3.014500	3.717800	-11.205000	24.252939	0.001072	20.922510
709.177732	-3.008000	3.717700	-11.181000	24.270978	0.001070	20.939181
710.180973	-3.003700	3.719700	-11.172000	24.283473	0.001072	20.929904
711.179650	-2.994100	3.717800	-11.130000	24.284023	0.001069	20.939463
712.183834	-2.998600	3.719100	-11.151000	24.309229	0.001072	20.950048
713.180380	-3.007300	3.718200	-11.180000	24.285939	0.001072	20.922896
714.182207	-3.013400	3.717400	-11.201000	24.278912	0.001071	20.938130
715.186384	-3.012900	3.716400	-11.196000	24.292506	0.001072	20.959824
716.186007	-3.014000	3.716400	-11.201000	24.290131	0.001070	20.952701
717.186514	-3.021500	3.716700	-11.229000	24.297130	0.001071	20.939809
718.184397	-3.022600	3.715700	-11.230000	24.303799	0.001071	20.951713
719.183431	-3.015700	3.716400	-11.207000	24.346775	0.001070	20.946935
720.189166	-3.005300	3.715200	-11.165000	24.360724	0.001070	20.954289
721.183758	-3.004700	3.715100	-11.162000	24.378186	0.001070	20.941937
722.186759	-3.019200	3.715600	-11.217000	24.351590	0.001070	20.946549
723.185635	-2.999100	3.715300	-11.143000	24.338241	0.001069	20.946909
724.186053	-3.003500	3.715100	-11.158000	24.361427	0.001070	20.945512
725.186197	-3.009000	3.714800	-11.177000	24.370920	0.001069	20.944604
726.190554	-3.012700	3.713600	-11.187000	24.380678	0.001068	20.943013
727.187568	-3.023500	3.713200	-11.226000	24.391702	0.001070	20.960709
728.190923	-3.013000	3.713600	-11.187000	24.383528	0.001069	20.947769
729.186567	-3.013000	3.711900	-11.183000	24.376387	0.001068	20.946295
730.187118	-3.000400	3.712600	-11.137000	24.362182	0.001068	20.944847
731.188835	-3.014800	3.712700	-11.192000	24.346994	0.001068	20.949051
732.189332	-2.994300	3.713200	-11.117000	24.330183	0.001069	20.957790
733.193616	-2.974600	3.712300	-11.041000	24.331894	0.001066	20.949077
734.191240	-2.977600	3.712100	-11.051000	24.322276	0.001069	20.972615
735.190037	-3.038800	3.710200	-11.274000	24.341399	0.001067	20.961454
736.191265	-3.002300	3.712100	-11.144000	24.346012	0.001066	20.963236
737.186119	-3.004300	3.710300	-11.145000	24.325508	0.001069	20.957842
738.198736	-2.973900	3.709700	-11.031000	24.334858	0.001068	20.960109
739.189961	-3.013400	3.710300	-11.180000	24.308913	0.001065	20.967746
740.189102	-3.018000	3.710400	-11.197000	24.310943	0.001064	20.984479
741.192926	-3.000700	3.709400	-11.130000	24.302270	0.001066	20.960135
742.190144	-2.994700	3.708900	-11.106000	24.285099	0.001065	20.968040
743.191569	-3.000200	3.709400	-11.128000	24.275264	0.001064	20.980458
744.191942	-3.009900	3.709800	-11.165000	24.265183	0.001065	20.987889
745.192612	-3.014900	3.709200	-11.182000	24.259995	0.001064	20.968463
746.188920	-3.017600	3.708200	-11.189000	24.254158	0.001064	20.971616
747.197348	-3.007000	3.708200	-11.150000	24.275773	0.001065	20.952524
748.194935	-3.000800	3.709200	-11.129000	24.307150	0.001064	20.956970
749.191710	-2.990900	3.709700	-11.094000	24.322734	0.001065	20.955534
750.194828	-2.987700	3.709200	-11.080000	24.334895	0.001065	20.976265
751.200271	-3.002800	3.707100	-11.131000	24.339559	0.001065	20.976676
752.196244	-3.011700	3.706200	-11.160000	24.323335	0.001063	20.978893
753.193712	-2.991200	3.708700	-11.093000	24.333426	0.001065	20.944924
754.196371	-3.014300	3.706000	-11.170000	24.281483	0.001063	20.971050
755.194713	-2.987200	3.707500	-11.073000	24.299331	0.001062	20.959558
756.195041	-2.993600	3.705900	-11.093000	24.281802	0.001064	20.942925
757.197185	-2.946700	3.707700	-10.924000	24.266089	0.001062	20.970308
758.196181	-3.019900	3.704400	-11.185000	24.303776	0.001062	20.952164
759.196002	-2.992000	3.705500	-11.086000	24.300658	0.001061	20.963733
760.196796	-2.991300	3.704700	-11.081000	24.305883	0.001061	20.954277
761.198846	-3.005200	3.704700	-11.132000	24.304146	0.001062	20.946372
762.195472	-3.004700	3.702700	-11.124000	24.321661	0.001062	20.953509
763.202717	-2.974800	3.705600	-11.022000	24.353062	0.001061	20.957982
764.198174	-3.003100	3.703800	-11.121000	24.350673	0.001062	20.934725
765.201051	-2.977400	3.705600	-11.032000	24.342447	0.001062	20.940697
766.195837	-3.006700	3.704400	-11.137000	24.327512	0.001061	20.947052
767.201328	-2.989400	3.703800	-11.070000	24.318110	0.001060	20.935725
768.202340	-2.999100	3.702900	-11.104000	24.347620	0.001060	20.937827
769.200361	-3.000300	3.703600	-11.111000	24.372275	0.001061	20.941223
770.204164	-2.992200	3.703100	-11.078000	24.381535	0.001061	20.943873
771.201264	-3.009800	3.703800	-11.147000	24.396508	0.001060	20.944670
772.201558	-3.000900	3.701300	-11.106000	24.387437	0.001060	20.927511
773.201570	-3.013800	3.702000	-11.156000	24.368557	0.001058	20.934174
774.209765	-3.002000	3.701500	-11.111000	24.403968	0.001057	20.936981
775.202984	-2.998400	3.701300	-11.096000	24.394003	0.001057	20.931252
776.203874	-2.987300	3.701200	-11.055000	24.434894	0.001058	20.924386
777.204171	-2.985800	3.700700	-11.047000	24.455917	0.001057	20.949268
778.209455	-2.999300	3.700100	-11.096000	24.482064	0.001058	20.943733
779.204694	-3.010500	3.700900	-11.141000	24.485042	0.001059	20.929179
780.206821	-2.995500	3.700200	-11.083000	24.461053	0.001057	20.926449
781.212780	-2.971700	3.698800	-10.991000	24.455228	0.001058	20.922976
782.209072	-2.995900	3.699600	-11.083000	24.435338	0.001055	20.909661
783.205219	-2.995800	3.699200	-11.081000	24.430868	0.001055	20.905651
784.213484	-3.005200	3.698900	-11.114000	24.438635	0.001057	20.926243
785.205440	-2.999700	3.699400	-11.097000	24.402613	0.001055	20.903857
786.204926	-2.983100	3.698600	-11.032000	24.398040	0.001056	20.921553
787.204867	-3.007000	3.697200	-11.116000	24.395446	0.001055	20.910418
788.204972	-2.988800	3.696800	-11.048000	24.440486	0.001055	20.913876
789.205153	-3.011900	3.695400	-11.129000	24.452506	0.001055	20.927357
790.209500	-3.009000	3.696900	-11.123000	24.466952	0.001053	20.902498
791.202821	-2.977300	3.697800	-11.008000	24.489714	0.001052	20.912057
792.206626	-2.994000	3.696200	-11.066000	24.495525	0.001053	20.913145
793.206128	-2.993900	3.695600	-11.062000	24.523895	0.001053	20.915530
794.205714	-3.006300	3.696800	-11.111000	24.513165	0.001054	20.892439
795.215438	-3.002300	3.695800	-11.096000	24.526690	0.001053	20.898422
796.208510	-2.990400	3.695800	-11.050000	24.503801	0.001052	20.904380
797.207557	-3.008400	3.695500	-11.117000	24.552107	0.001053	20.892156
798.208892	-2.993900	3.694700	-11.060000	24.534827	0.001054	20.906585
799.207305	-3.007600	3.693300	-11.106000	24.552375	0.001053	20.906174
800.216421	-2.980800	3.693700	-11.009000	24.554968	0.001052	20.916835
801.211796	-3.008000	3.693800	-11.109000	24.540330	0.001053	20.915898
802.218606	-2.998400	3.693200	-11.073000	24.505794	0.001050	20.880777
803.210245	-3.003600	3.693600	-11.094000	24.473017	0.001050	20.896729
804.207328	-3.012400	3.692900	-11.123000	24.454841	0.001051	20.920217
805.213737	-2.987000	3.692900	-11.029000	24.447612	0.001048	20.907276
806.213480	-2.994700	3.692800	-11.057000	24.450459	0.001051	20.891642
807.208788	-3.018600	3.692100	-11.144000	24.450024	0.001051	20.922022
808.218544	-2.997800	3.692400	-11.068000	24.443330	0.001049	20.901558
809.206763	-3.015800	3.690500	-11.129000	24.427887	0.001048	20.886541
810.209783	-3.003100	3.690600	-11.082000	24.450471	0.001050	20.895920
811.213840	-3.000000	3.691000	-11.071000	24.403029	0.001050	20.907593
812.218623	-3.019600	3.689800	-11.141000	24.404945	0.001047	20.888654
813.220710	-2.987600	3.690700	-11.026000	24.404190	0.001046	20.901647
814.209672	-3.011400	3.689800	-11.110000	24.438513	0.001046	20.911423
815.223491	-3.002500	3.690300	-11.078000	24.447097	0.001049	20.903440
816.219989	-3.019000	3.689100	-11.136000	24.451197	0.001048	20.905657
817.217158	-3.006400	3.688900	-11.089000	24.458631	0.001047	20.896520
818.210673	-2.999700	3.689300	-11.065000	24.508393	0.001048	20.888126
819.217761	-2.993400	3.690200	-11.044000	24.489925	0.001045	20.909898
820.211175	-2.996900	3.687900	-11.051000	24.521626	0.001046	20.890971
821.220393	-3.004100	3.689300	-11.082000	24.502506	0.001048	20.890754
822.222198	-2.992300	3.689000	-11.037000	24.507870	0.001046	20.890445
823.211870	-3.019800	3.687600	-11.134000	24.498942	0.001045	20.908039
824.215146	-3.013100	3.686900	-11.107000	24.497344	0.001047	20.887472
825.213291	-3.021200	3.687400	-11.139000	24.500613	0.001047	20.879372
826.223701	-3.006300	3.688300	-11.087000	24.500243	0.001044	20.905077
827.210863	-3.011700	3.686800	-11.102000	24.519172	0.001045	20.875708
828.213186	-3.030000	3.686500	-11.169000	24.535573	0.001044	20.886947
829.223086	-3.005400	3.685800	-11.076000	24.561818	0.001044	20.877244
830.214587	-3.020700	3.684700	-11.129000	24.548241	0.001042	20.899656
831.211216	-3.006200	3.687000	-11.083000	24.521714	0.001043	20.874465
832.218572	-2.996900	3.686400	-11.046000	24.533042	0.001043	20.868287
833.216669	-2.993300	3.684700	-11.027000	24.509501	0.001045	20.888289
834.221959	-3.005400	3.684700	-11.073000	24.474364	0.001045	20.875796
835.221591	-3.002600	3.685100	-11.064000	24.462944	0.001042	20.878564
836.215706	-2.999700	3.685400	-11.054000	24.454730	0.001042	20.880755
837.217918	-3.025600	3.683800	-11.144000	24.435379	0.001041	20.864186
838.218678	-3.002800	3.684000	-11.061000	24.465575	0.001041	20.886892
839.224207	-2.999600	3.683900	-11.049000	24.471195	0.001040	20.882100
840.218747	-2.999000	3.684000	-11.048000	24.496844	0.001041	20.879858
841.220403	-2.987900	3.684300	-11.007000	24.502182	0.001042	20.889006
842.216498	-3.018900	3.682400	-11.116000	24.488260	0.001040	20.856549
843.214291	-2.983300	3.683100	-10.987000	24.479523	0.001041	20.884291
844.217443	-3.023900	3.681000	-11.130000	24.496932	0.001040	20.879472
845.214050	-2.997800	3.684000	-11.042000	24.500522	0.001039	20.892556
846.224163	-3.007500	3.682400	-11.072000	24.527944	0.001038	20.875025
847.219053	-2.997100	3.682900	-11.036000	24.536923	0.001039	20.883085
848.218695	-2.981800	3.682400	-10.979000	24.560244	0.001040	20.862864
849.222116	-3.030100	3.680100	-11.150000	24.561625	0.001038	20.876102
850.233430	-2.989300	3.681300	-11.004000	24.576351	0.001037	20.898937
851.222857	-2.990700	3.680200	-11.005000	24.547741	0.001037	20.879715
852.222156	-2.989900	3.680000	-11.002000	24.537842	0.001038	20.875000
853.221626	-2.987200	3.679300	-10.990000	24.552529	0.001039	20.866977
854.222567	-2.980700	3.680400	-10.969000	24.576018	0.001038	20.865414
855.224424	-2.983600	3.680300	-10.979000	24.592697	0.001035	20.875037
856.221697	-3.007900	3.678500	-11.064000	24.600858	0.001036	20.893656
857.221110	-2.996100	3.678400	-11.019000	24.603093	0.001038	20.868399
858.222135	-2.992500	3.678600	-11.007000	24.617691	0.001035	20.875934
859.223110	-2.980800	3.679300	-10.966000	24.630296	0.001034	20.877676
860.231015	-2.999400	3.678900	-11.034000	24.609159	0.001036	20.861684
861.223932	-3.010000	3.678600	-11.071000	24.594448	0.001038	20.865888
862.228152	-2.984000	3.678800	-10.976000	24.597294	0.001034	20.872064
863.221135	-2.986100	3.677700	-10.981000	24.573871	0.001035	20.862787
864.220901	-2.999700	3.675800	-11.025000	24.593360	0.001034	20.873332
865.225304	-2.999600	3.676400	-11.026000	24.590653	0.001036	20.859711
866.222011	-3.031600	3.675500	-11.142000	24.584752	0.001033	20.864221
867.220972	-3.005900	3.677200	-11.052000	24.574023	0.001032	20.852982
868.221952	-3.010800	3.675300	-11.065000	24.581060	0.001034	20.860042
869.222179	-3.003800	3.675200	-11.039000	24.552105	0.001032	20.849483
870.222969	-3.006600	3.675700	-11.050000	24.557329	0.001033	20.887438
871.223474	-3.000900	3.675300	-11.027000	24.541441	0.001033	20.858223
872.221206	-3.014700	3.673800	-11.074000	24.565095	0.001032	20.876739
873.222841	-3.004900	3.674000	-11.039000	24.603028	0.001032	20.868808
874.224916	-2.992400	3.675100	-10.996000	24.592757	0.001031	20.867037
875.226363	-2.993100	3.674900	-10.999000	24.573140	0.001032	20.870113
876.229576	-2.998000	3.674400	-11.015000	24.575173	0.001030	20.852713
877.229190	-3.008400	3.674100	-11.052000	24.550827	0.001031	20.852468
878.230976	-2.987200	3.674100	-10.973000	24.568349	0.001031	20.865780
879.228235	-2.987600	3.674400	-10.976000	24.555131	0.001030	20.860579
880.227482	-3.022600	3.672000	-11.098000	24.543471	0.001031	20.849828
881.227684	-3.012200	3.673500	-11.064000	24.537672	0.001029	20.855864
882.235634	-3.008300	3.673800	-11.051000	24.555974	0.001029	20.854787
883.230924	-2.994100	3.673200	-10.996000	24.577533	0.001028	20.856029
884.232364	-2.976000	3.672700	-10.929000	24.603000	0.001027	20.870202
885.228671	-2.991900	3.672400	-10.986000	24.600739	0.001027	20.870779
886.233031	-3.008100	3.670000	-11.038000	24.597981	0.001028	20.868959
887.235096	-2.996800	3.670900	-11.000000	24.601403	0.001026	20.856746
888.231690	-2.993500	3.671600	-10.990000	24.618158	0.001026	20.881618
889.236390	-2.986900	3.670100	-10.961000	24.602194	0.001026	20.840946
890.230838	-2.997800	3.671100	-11.005000	24.596256	0.001026	20.846841
891.234513	-2.975500	3.672500	-10.927000	24.582666	0.001025	20.843636
892.237146	-3.010800	3.668300	-11.044000	24.579523	0.001023	20.846173
893.235890	-2.984800	3.668800	-10.949000	24.569013	0.001025	20.842739
894.238715	-3.000500	3.669100	-11.009000	24.583394	0.001026	20.859066
895.233750	-3.010900	3.668000	-11.043000	24.607124	0.001025	20.866754
896.236118	-3.000700	3.670300	-11.012000	24.621799	0.001024	20.859194
897.237296	-2.992200	3.669000	-10.978000	24.641734	0.001023	20.863550
898.238275	-3.011600	3.667700	-11.045000	24.664173	0.001024	20.857617
899.236426	-3.001500	3.668000	-11.008000	24.664620	0.001023	20.853799
900.247643	-2.990000	3.668700	-10.968000	24.654634	0.001023	20.860848
901.239583	-2.992200	3.668200	-10.975000	24.656792	0.001024	20.866806
902.236458	-3.010600	3.668000	-11.042000	24.682092	0.001023	20.846201
903.241297	-3.021200	3.666000	-11.075000	24.690253	0.001022	20.855812
904.236676	-2.990100	3.666700	-10.963000	24.687392	0.001022	20.844407
905.240619	-3.009000	3.668100	-11.034000	24.716955	0.001021	20.849417
906.237338	-3.027500	3.665500	-11.096000	24.708234	0.001020	20.843985
907.236955	-2.997600	3.665500	-10.987000	24.726610	0.001020	20.825916
908.238116	-3.001400	3.664700	-10.999000	24.769925	0.001021	20.845676
909.238042	-3.001500	3.665300	-11.000000	24.750810	0.001020	20.853519
910.257763	-2.982500	3.665800	-10.932000	24.761076	0.001020	20.847226
911.240699	-2.996600	3.665300	-10.982000	24.782452	0.001019	20.846392
912.239136	-2.981600	3.665300	-10.928000	24.790956	0.001020	20.850186
913.238580	-3.004600	3.665400	-11.012000	24.796691	0.001021	20.845510
914.242542	-2.998300	3.664600	-10.986000	24.759454	0.001020	20.845598
915.239473	-2.970900	3.664700	-10.885000	24.777866	0.001019	20.860282
916.240067	-3.023900	3.663200	-11.076000	24.739675	0.001019	20.851354
917.238486	-3.004900	3.663600	-11.007000	24.745459	0.001016	20.850994
918.241886	-2.990800	3.663200	-10.955000	24.751729	0.001016	20.848752
919.248856	-3.024000	3.661500	-11.072000	24.742624	0.001017	20.842934
920.245044	-2.987500	3.663700	-10.944000	24.716252	0.001017	20.852031
921.239834	-3.014500	3.661900	-11.037000	24.690839	0.001018	20.827004
922.239755	-3.016100	3.662100	-11.044000	24.664569	0.001017	20.826722
923.242990	-3.013100	3.661500	-11.030000	24.653994	0.001016	20.827490
924.250418	-3.001700	3.661700	-10.991000	24.647327	0.001017	20.825542
925.244753	-3.006800	3.661800	-11.009000	24.660163	0.001016	20.831309
926.241265	-2.992200	3.661800	-10.956000	24.683100	0.001016	20.843419
927.244004	-2.982500	3.662700	-10.922000	24.690518	0.001016	20.837587
928.241624	-2.976700	3.660700	-10.895000	24.711920	0.001013	20.826348
929.245782	-2.993500	3.660300	-10.955000	24.701793	0.001013	20.820926
930.247139	-3.001000	3.661400	-10.987000	24.715598	0.001015	20.826719
931.245445	-2.984000	3.660200	-10.921000	24.683339	0.001013	20.830384
932.242670	-2.996400	3.659100	-10.963000	24.695050	0.001012	20.833600
933.242889	-3.020100	3.659300	-11.049000	24.674655	0.001015	20.850117
934.246902	-2.992700	3.659300	-10.950000	24.687783	0.001011	20.840058
935.242846	-3.022600	3.657700	-11.054000	24.675267	0.001012	20.823232
936.243119	-3.029400	3.657600	-11.079000	24.676417	0.001014	20.811584
937.244579	-3.033500	3.657400	-11.093000	24.684179	0.001010	20.819373
938.243730	-3.005100	3.657900	-10.992000	24.702863	0.001012	20.847604
939.242711	-3.010500	3.656200	-11.007000	24.686670	0.001010	20.828510
940.247429	-2.985200	3.657900	-10.918000	24.706387	0.001010	20.832175
941.242844	-2.999600	3.657000	-10.969000	24.721533	0.001010	20.832200
942.246815	-2.998400	3.656300	-10.961000	24.714739	0.001010	20.831546
943.242952	-2.985800	3.656800	-10.917000	24.713142	0.001008	20.836108
944.243855	-2.985600	3.657000	-10.917000	24.719105	0.001008	20.828816
945.249635	-2.999800	3.656000	-10.966000	24.745846	0.001009	20.823883
946.250988	-2.989900	3.657000	-10.933000	24.754146	0.001009	20.815143
947.247743	-2.983500	3.656600	-10.907000	24.776621	0.001009	20.828213
948.248308	-2.995400	3.655100	-10.948000	24.761629	0.001007	20.826445
949.243417	-2.993700	3.655600	-10.943000	24.762560	0.001006	20.815052
950.250438	-3.017500	3.654200	-11.025000	24.768793	0.001006	20.831738
951.252872	-3.002600	3.653300	-10.969000	24.770720	0.001005	20.832249
952.245932	-2.971500	3.655800	-10.862000	24.741745	0.001005	20.834940
953.249887	-3.007600	3.652500	-10.984000	24.756278	0.001006	20.815860
954.247222	-2.997700	3.653200	-10.950000	24.734416	0.001006	20.847025
955.247147	-2.985800	3.652700	-10.904000	24.709590	0.001004	20.819742
956.249897	-3.019500	3.651500	-11.025000	24.690766	0.001004	20.831198
957.247602	-3.017100	3.653200	-11.022000	24.669082	0.001005	20.808017
958.247815	-3.009800	3.650900	-10.988000	24.623348	0.001003	20.814283
959.248531	-3.012800	3.652000	-11.002000	24.642774	0.001006	20.815283
960.250027	-3.007100	3.651500	-10.979000	24.658048	0.001003	20.822549
961.249449	-3.003900	3.651700	-10.968000	24.684342	0.001002	20.827597
962.249890	-3.008000	3.652500	-10.986000	24.693001	0.001004	20.810207
963.250434	-3.009200	3.650100	-10.983000	24.718581	0.001004	20.825446
964.249374	-2.983400	3.650700	-10.890000	24.739804	0.001004	20.805492
965.249766	-2.999400	3.651500	-10.951000	24.768716	0.001001	20.818859
966.252151	-2.997700	3.649900	-10.940000	24.779137	0.001001	20.809876
967.252671	-2.983800	3.650900	-10.892000	24.780822	0.001000	20.802558
968.250218	-3.004200	3.650500	-10.966000	24.782891	0.001001	20.812695
969.252743	-2.986900	3.650600	-10.904000	24.758832	0.001001	20.817474
970.249138	-3.017100	3.649300	-11.008000	24.771423	0.000999	20.811144
971.251410	-3.000700	3.649500	-10.950000	24.763827	0.001001	20.828650
972.253838	-2.987400	3.648700	-10.899000	24.761080	0.000999	20.800764
973.253290	-3.036400	3.647500	-11.074000	24.781576	0.001001	20.805212
974.250091	-2.997000	3.647900	-10.932000	24.768768	0.000999	20.800893
975.254654	-2.991500	3.648800	-10.915000	24.735822	0.001000	20.809556
976.254581	-3.001900	3.646800	-10.947000	24.727380	0.000999	20.800610
977.250502	-3.000200	3.645700	-10.937000	24.721530	0.000996	20.815603
978.255705	-3.009600	3.648000	-10.978000	24.715211	0.000998	20.808313
979.251541	-2.995900	3.647500	-10.927000	24.686733	0.000997	20.796331
980.255382	-3.013100	3.647000	-10.988000	24.660718	0.000997	20.795357
981.250602	-3.007300	3.645500	-10.961000	24.656964	0.000997	20.798228
982.251117	-3.040100	3.646100	-11.083000	24.634590	0.000995	20.794269
983.254279	-3.004200	3.644800	-10.949000	24.636480	0.000997	20.817502
984.253839	-2.984300	3.646400	-10.881000	24.684868	0.000995	20.818642
985.253616	-2.972200	3.645800	-10.835000	24.684831	0.000993	20.801061
986.254201	-3.014700	3.644000	-10.984000	24.693860	0.000996	20.812966
987.253842	-2.987200	3.646400	-10.891000	24.724943	0.000996	20.815708
988.252686	-2.985300	3.645300	-10.879000	24.715826	0.000994	20.813198
989.251091	-2.980900	3.644500	-10.862000	24.703017	0.000996	20.822155
990.254422	-2.994400	3.645000	-10.913000	24.706401	0.000993	20.787619
991.255922	-2.978800	3.645500	-10.858000	24.723781	0.000995	20.802689
992.252059	-3.006100	3.642800	-10.948000	24.755618	0.000991	20.809033
993.252417	-2.995900	3.643300	-10.913000	24.759844	0.000994	20.815645
994.257774	-2.990500	3.642700	-10.892000	24.809007	0.000993	20.811878
995.255741	-3.003700	3.643900	-10.944000	24.809147	0.000990	20.786888
996.258930	-3.016700	3.643000	-10.989000	24.804001	0.000991	20.807328
997.255962	-2.976700	3.643800	-10.845000	24.825173	0.000991	20.788747
998.262382	-2.988900	3.641800	-10.883000	24.822643	0.000989	20.813709
999.257777	-2.969500	3.641800	-10.813000	24.846726	0.000990	20.809430
1000.259390	-2.999500	3.642500	-10.925000	24.864474	0.000989	20.817285
1001.259037	-3.013100	3.641900	-10.972000	24.864730	0.000990	20.807585
1002.256859	-3.016500	3.641300	-10.983000	24.909457	0.000990	20.808853
1003.258500	-3.008000	3.641000	-10.951000	24.896600	0.000988	20.802586
1004.258068	-3.017400	3.639500	-10.980000	24.897137	0.000990	20.815928
1005.262324	-3.008600	3.640800	-10.953000	24.897877	0.000986	20.813352
1006.259649	-3.011300	3.638400	-10.955000	24.889066	0.000986	20.813992
1007.258757	-2.994200	3.639800	-10.897000	24.882020	0.000986	20.817825
1008.258346	-3.004800	3.640700	-10.939000	24.881917	0.000986	20.830050
1009.260151	-2.998000	3.639700	-10.911000	24.872429	0.000986	20.817682
1010.261911	-2.979900	3.639800	-10.845000	24.862738	0.000985	20.828819
1011.264283	-3.002500	3.637500	-10.920000	24.818240	0.000985	20.805971
1012.260639	-3.030100	3.636400	-11.018000	24.798869	0.000985	20.784634
1013.264966	-2.996300	3.636900	-10.895000	24.797617	0.000986	20.802343
1014.260164	-3.003300	3.637200	-10.923000	24.796877	0.000982	20.801127
1015.266832	-2.990300	3.638000	-10.878000	24.764162	0.000983	20.814763
1016.261719	-2.994200	3.637500	-10.889000	24.750562	0.000986	20.792580
1017.263741	-3.010900	3.636900	-10.950000	24.772934	0.000986	20.821195
1018.264238	-3.007300	3.635700	-10.932000	24.811486	0.000983	20.811047
1019.267907	-2.979100	3.635800	-10.830000	24.848018	0.000982	20.834908
1020.263888	-2.981800	3.636300	-10.841000	24.831699	0.000983	20.823271
1021.266441	-3.012100	3.635800	-10.950000	24.875369	0.000984	20.814468
1022.264139	-2.997900	3.634900	-10.896000	24.828508	0.000981	20.807267
1023.267138	-3.000200	3.636500	-10.909000	24.803901	0.000982	20.819081
1024.263774	-3.020300	3.634200	-10.975000	24.793228	0.000979	20.816430
1025.263575	-3.013800	3.634800	-10.952000	24.806354	0.000979	20.813957
1026.269838	-2.996200	3.633600	-10.886000	24.807618	0.000980	20.813803
1027.267926	-2.990100	3.635900	-10.870000	24.815664	0.000979	20.833731
1028.266931	-3.026100	3.632200	-10.990000	24.816008	0.000980	20.813688
1029.268557	-3.045100	3.631600	-11.056000	24.810837	0.000978	20.826990
1030.262169	-3.002800	3.632600	-10.907000	24.829709	0.000978	20.831232
1031.268738	-3.021100	3.631700	-10.971000	24.848977	0.000978	20.790826
1032.267220	-3.003600	3.632500	-10.909000	24.873046	0.000978	20.843431
1033.266783	-3.007500	3.632600	-10.924000	24.882648	0.000979	20.825568
1034.269103	-2.997100	3.632200	-10.885000	24.881447	0.000978	20.831949
1035.268817	-2.986900	3.631700	-10.846000	24.886926	0.000976	20.812791
1036.271317	-3.009600	3.630500	-10.926000	24.882814	0.000975	20.809138
1037.270891	-2.987200	3.631600	-10.846000	24.884308	0.000975	20.821543
1038.270802	-2.978000	3.631600	-10.814000	24.854863	0.000974	20.821389
1039.269943	-3.001000	3.631300	-10.897000	24.872420	0.000976	20.835216
1040.272649	-2.988200	3.631700	-10.851000	24.875701	0.000975	20.811483
1041.270486	-3.013800	3.630000	-10.939000	24.882404	0.000976	20.804460
1042.268747	-2.998100	3.630700	-10.883000	24.895262	0.000974	20.823054
1043.269242	-2.989000	3.629900	-10.848000	24.905348	0.000974	20.805203
1044.270902	-2.994000	3.629500	-10.866000	24.922816	0.000973	20.836959
1045.277364	-3.001400	3.629700	-10.893000	24.957939	0.000972	20.845659
1046.268818	-3.015200	3.627400	-10.936000	24.990010	0.000972	20.827590
1047.274399	-2.991500	3.627400	-10.850000	24.965574	0.000974	20.813494
1048.269773	-3.009000	3.627600	-10.914000	24.961092	0.000972	20.838867
1049.270970	-2.975400	3.628600	-10.796000	24.978391	0.000970	20.830152
1050.270846	-3.014500	3.626800	-10.931000	24.973297	0.000971	20.837367
1051.268858	-2.996500	3.628300	-10.872000	25.006836	0.000971	20.836419
1052.268450	-2.997600	3.627600	-10.874000	24.988630	0.000969	20.858446
1053.269878	-3.008100	3.626900	-10.910000	24.985463	0.000970	20.845785
1054.271880	-3.020700	3.625500	-10.950000	24.961729	0.000971	20.826231
1055.269461	-2.998700	3.625800	-10.870000	24.962483	0.000968	20.820350
1056.269265	-3.005800	3.626400	-10.900000	24.984877	0.000969	20.816748
1057.269889	-3.020400	3.626100	-10.951000	25.001142	0.000968	20.830229
1058.270297	-3.026900	3.625300	-10.972000	24.985323	0.000968	20.833791
1059.275342	-2.996800	3.624800	-10.862000	24.985540	0.000968	20.853448
1060.270458	-3.023900	3.624000	-10.957000	24.967105	0.000969	20.838738
1061.272038	-3.016800	3.627100	-10.941000	24.970335	0.000966	20.828704
1062.269571	-3.013500	3.624900	-10.923000	25.005482	0.000968	20.840275
1063.280007	-3.002100	3.624700	-10.881000	25.015083	0.000966	20.839007
1064.273353	-2.988700	3.625300	-10.834000	25.033084	0.000965	20.832420
1065.273808	-2.981700	3.623700	-10.803000	25.012721	0.000965	20.815300
1066.274907	-2.990400	3.624500	-10.838000	25.003516	0.000964	20.852999
1067.271085	-2.990200	3.623200	-10.832000	25.001014	0.000963	20.824885
1068.270141	-3.002000	3.623000	-10.876000	25.000337	0.000963	20.819464
1069.272348	-2.979200	3.623300	-10.793000	24.981749	0.000964	20.848695
1070.275598	-3.014100	3.622800	-10.918000	24.952319	0.000963	20.851397
1071.273973	-3.009900	3.622200	-10.901000	24.917719	0.000962	20.872619
1072.274755	-2.993000	3.621500	-10.838000	24.905946	0.000962	20.850846
1073.274954	-3.008100	3.621400	-10.892000	24.910747	0.000964	20.833380
1074.275863	-3.008900	3.621700	-10.896000	24.928112	0.000961	20.837533
1075.281940	-3.014900	3.620400	-10.914000	24.932119	0.000959	20.842503
1076.279544	-3.010900	3.620300	-10.899000	24.929145	0.000963	20.845682
1077.283230	-2.988500	3.620600	-10.820000	24.935440	0.000961	20.861482
1078.278269	-2.987900	3.620800	-10.817000	24.935799	0.000962	20.852834
1079.279060	-2.999600	3.620700	-10.859000	24.925073	0.000960	20.847284
1080.280943	-3.017400	3.619100	-10.918000	24.906432	0.000961	20.849912
1081.283248	-2.967600	3.620800	-10.743000	24.863606	0.000959	20.852922
1082.276489	-3.040300	3.617900	-10.998000	24.853711	0.000958	20.875706
1083.278814	-2.973400	3.620500	-10.764000	24.852843	0.000957	20.831215
1084.277625	-2.981400	3.619700	-10.790000	24.847799	0.000959	20.845119
1085.284507	-3.004200	3.617400	-10.866000	24.877076	0.000958	20.856958
1086.281553	-3.000800	3.618700	-10.857000	24.868114	0.000956	20.861240
1087.276570	-3.009700	3.616900	-10.884000	24.892860	0.000956	20.857152
1088.282959	-3.001300	3.617500	-10.857000	24.897482	0.000956	20.855627
1089.279775	-2.995100	3.616600	-10.830000	24.908857	0.000956	20.861354
1090.285394	-3.006600	3.616900	-10.874000	24.921510	0.000954	20.844657
1091.287955	-2.993000	3.615900	-10.821000	24.922187	0.000953	20.859086
1092.277719	-3.010400	3.615900	-10.884000	24.899346	0.000954	20.850860
1093.281752	-3.002600	3.615400	-10.855000	24.903507	0.000953	20.874475
1094.277312	-2.992400	3.615600	-10.818000	24.928252	0.000954	20.880345
1095.280680	-2.996400	3.615300	-10.831000	24.905729	0.000952	20.841620
1096.278815	-2.999700	3.615100	-10.843000	24.904286	0.000952	20.868146
1097.282647	-2.980900	3.615800	-10.777000	24.935619	0.000952	20.874464
1098.285345	-2.981200	3.614700	-10.774000	24.981977	0.000951	20.864570
1099.281664	-3.017100	3.614300	-10.903000	24.983829	0.000951	20.864059
1100.277891	-2.997400	3.614200	-10.831000	25.021045	0.000951	20.879128
1101.282135	-3.022900	3.613100	-10.920000	24.990135	0.000952	20.863750
1102.280732	-3.021300	3.612000	-10.912000	25.021210	0.000950	20.874552
1103.279850	-3.021300	3.610800	-10.907000	24.981505	0.000950	20.879742
1104.285285	-2.985200	3.613300	-10.785000	24.973295	0.000948	20.878140
1105.278337	-2.999900	3.612100	-10.835000	25.007346	0.000949	20.878654
1106.288078	-2.975000	3.611800	-10.744000	25.042708	0.000950	20.882855
1107.285201	-2.977200	3.610900	-10.749000	25.044176	0.000949	20.898552
1108.285963	-2.991700	3.611900	-10.805000	25.047611	0.000948	20.871656
1109.280532	-2.990300	3.611500	-10.797000	25.043525	0.000947	20.876563
1110.280095	-2.995200	3.610700	-10.814000	25.046154	0.000947	20.881099
1111.283142	-3.016300	3.611300	-10.892000	25.074547	0.000948	20.896322
1112.285398	-3.015000	3.609400	-10.881000	25.084273	0.000946	20.882853
1113.284321	-3.010500	3.610200	-10.867000	25.062277	0.000946	20.870257
1114.280772	-3.004000	3.610000	-10.843000	25.062929	0.000945	20.883238
1115.285952	-2.995700	3.608800	-10.809000	25.076206	0.000945	20.891824
1116.285212	-3.016000	3.608800	-10.882000	25.083635	0.000943	20.884583
1117.285747	-2.986500	3.609500	-10.779000	25.094704	0.000945	20.897116
1118.288139	-3.000100	3.608400	-10.824000	25.115395	0.000944	20.886594
1119.286564	-3.004600	3.608900	-10.842000	25.139663	0.000942	20.869232
1120.286529	-3.003100	3.608200	-10.835000	25.173797	0.000942	20.875998
1121.285510	-2.995700	3.607700	-10.806000	25.151303	0.000945	20.879494
1122.283914	-2.989300	3.607000	-10.781000	25.148304	0.000943	20.889285
1123.285455	-3.001300	3.606200	-10.822000	25.156103	0.000941	20.888105
1124.297497	-2.985800	3.609300	-10.776000	25.138104	0.000942	20.909863
1125.287306	-3.009200	3.606200	-10.852000	25.126578	0.000940	20.901612
1126.288171	-2.997800	3.606300	-10.810000	25.090476	0.000943	20.888605
1127.289906	-3.001100	3.607500	-10.825000	25.112752	0.000941	20.890104
1128.290094	-2.985100	3.605900	-10.762000	25.108029	0.000937	20.899587
1129.291660	-2.988300	3.606700	-10.777000	25.084156	0.000940	20.888899
1130.291432	-3.009600	3.604400	-10.847000	25.099769	0.000938	20.898407
1131.286491	-3.001100	3.603900	-10.815000	25.082523	0.000939	20.889156
1132.289367	-3.001700	3.604700	-10.819000	25.071901	0.000940	20.901726
1133.290908	-3.000100	3.605200	-10.815000	25.063131	0.000936	20.899087
1134.292727	-3.005900	3.602300	-10.827000	25.087895	0.000937	20.894549
1135.290181	-3.000600	3.603100	-10.811000	25.104683	0.000937	20.895280
1136.296092	-2.985300	3.602900	-10.755000	25.087960	0.000937	20.919268
1137.290799	-3.002600	3.602900	-10.816000	25.080989	0.000935	20.903737
1138.290158	-3.008600	3.602300	-10.836000	25.128171	0.000934	20.887091
1139.292059	-3.010600	3.602800	-10.845000	25.159344	0.000935	20.897996
1140.288806	-3.002000	3.602600	-10.814000	25.191014	0.000934	20.910349
1141.293783	-3.013900	3.603000	-10.858000	25.177445	0.000934	20.913322
1142.290709	-3.007900	3.600100	-10.827000	25.194357	0.000934	20.905171
1143.292701	-2.998900	3.599900	-10.795000	25.171917	0.000934	20.902557
1144.292156	-3.003200	3.600800	-10.812000	25.146566	0.000933	20.922624
1145.295242	-3.004500	3.599300	-10.812000	25.111230	0.000932	20.912756
1146.296203	-2.989200	3.599700	-10.759000	25.083630	0.000933	20.913025
1147.294209	-2.982100	3.599600	-10.734000	25.052979	0.000932	20.896957
1148.296238	-2.982400	3.601100	-10.738000	25.036064	0.000930	20.919331
1149.293711	-2.986500	3.599100	-10.748000	25.052993	0.000932	20.907401
1150.296952	-3.001500	3.598400	-10.799000	25.043213	0.000928	20.924135
1151.290270	-2.984300	3.597800	-10.736000	25.039192	0.000929	20.921047
1152.293925	-2.990900	3.597900	-10.760000	25.069613	0.000929	20.914601
1153.296991	-2.984100	3.596900	-10.732000	25.093754	0.000928	20.900904
1154.292655	-2.994500	3.597900	-10.773000	25.134821	0.000929	20.910360
1155.297951	-3.007300	3.596300	-10.813000	25.146182	0.000929	20.935987
1156.295348	-3.006300	3.596800	-10.813000	25.196067	0.000928	20.906887
1157.292957	-3.010500	3.597500	-10.829000	25.178183	0.000927	20.932078
1158.292154	-3.023200	3.595300	-10.868000	25.165316	0.000925	20.930067
1159.293711	-3.007600	3.596200	-10.814000	25.135663	0.000926	20.926851
1160.293238	-3.006500	3.595400	-10.809000	25.137948	0.000924	20.922981
1161.296854	-3.000200	3.596300	-10.788000	25.146501	0.000925	20.940574
1162.292412	-2.995200	3.596600	-10.771000	25.187145	0.000924	20.930644
1163.296638	-2.991600	3.595700	-10.756000	25.187387	0.000924	20.949376
1164.294604	-2.988100	3.596600	-10.746000	25.178541	0.000925	20.939075
1165.294420	-3.003900	3.594200	-10.795000	25.189557	0.000923	20.915524
1166.299073	-2.997000	3.595200	-10.774000	25.224558	0.000923	20.934065
1167.298032	-3.016900	3.594700	-10.844000	25.245554	0.000923	20.939023
1168.295910	-2.991900	3.594100	-10.752000	25.257296	0.000924	20.936587
1169.299395	-2.999600	3.595600	-10.785000	25.259225	0.000923	20.937101
1170.298573	-3.001700	3.593200	-10.785000	25.245182	0.000923	20.921582
1171.297616	-3.019500	3.593200	-10.849000	25.232573	0.000922	20.947800
1172.299065	-3.017000	3.591100	-10.831000	25.257003	0.000921	20.949094
1173.294966	-3.022700	3.592000	-10.856000	25.287942	0.000920	20.930847
1174.299972	-2.991200	3.592600	-10.745000	25.281905	0.000920	20.958447
1175.309548	-2.991700	3.593100	-10.748000	25.308797	0.000917	20.934717
1176.298752	-2.964900	3.591800	-10.648000	25.300692	0.000919	20.952181
1177.302263	-3.006700	3.590300	-10.793000	25.309691	0.000918	20.940355
1178.300214	-2.993100	3.590900	-10.746000	25.265555	0.000918	20.947723
1179.301792	-2.985700	3.591100	-10.720000	25.276110	0.000919	20.950733
1180.299268	-2.981400	3.589500	-10.700000	25.286039	0.000917	20.956434
1181.298054	-2.977800	3.590900	-10.692000	25.246431	0.000916	20.973090
1182.300960	-3.002700	3.588800	-10.775000	25.195783	0.000916	20.963020
1183.303641	-2.997500	3.589900	-10.760000	25.184818	0.000915	20.957228
1184.296544	-3.007600	3.589100	-10.793000	25.160705	0.000915	20.953409
1185.300651	-3.012600	3.588900	-10.811000	25.144569	0.000914	20.960918
1186.299413	-2.998100	3.588800	-10.759000	25.153620	0.000914	20.966684
1187.300579	-3.000200	3.588200	-10.764000	25.144991	0.000914	20.958022
1188.302146	-3.006600	3.587700	-10.785000	25.150951	0.000913	20.963057
1189.300506	-3.011900	3.586700	-10.802000	25.164648	0.000911	20.963531
1190.306840	-2.994700	3.587300	-10.742000	25.160691	0.000911	20.947232
1191.300034	-3.002600	3.585600	-10.765000	25.165491	0.000911	20.972436
1192.297588	-3.036100	3.584800	-10.882000	25.189743	0.000913	20.953638
1193.306063	-3.011600	3.585500	-10.798000	25.199266	0.000911	20.958930
1194.302674	-3.016700	3.584900	-10.814000	25.207665	0.000909	20.978265
1195.304081	-3.000900	3.584400	-10.755000	25.185504	0.000909	20.969769
1196.300564	-3.012800	3.584600	-10.799000	25.219216	0.000908	20.967104
1197.306287	-3.000800	3.585100	-10.758000	25.199508	0.000910	20.976714
1198.302924	-3.011100	3.583400	-10.789000	25.241922	0.000907	20.987053
1199.308560	-2.996500	3.584800	-10.741000	25.213330	0.000906	20.964514
1200.303041	-2.987000	3.584200	-10.704000	25.234787	0.000908	20.980838
1201.302334	-2.993900	3.583900	-10.729000	25.268497	0.000907	20.968218
1202.300831	-2.977300	3.583000	-10.667000	25.275197	0.000906	20.990114
1203.304700	-3.013000	3.583300	-10.795000	25.274190	0.000904	20.972985
1204.305951	-2.992300	3.582700	-10.720000	25.261271	0.000903	20.951008
1205.305456	-3.023300	3.581500	-10.827000	25.241538	0.000904	20.970549
1206.305710	-2.992300	3.582600	-10.718000	25.236739	0.000905	20.981376
1207.305000	-2.982800	3.582600	-10.685000	25.255209	0.000904	20.974316
1208.306317	-2.988800	3.582300	-10.706000	25.277812	0.000902	20.977095
1209.309299	-2.990100	3.582300	-10.710000	25.281169	0.000901	20.992317
1210.300842	-2.984200	3.582200	-10.688000	25.287015	0.000901	20.979696
1211.304979	-3.012700	3.579800	-10.784000	25.267269	0.000902	20.967459
1212.306435	-3.006300	3.580800	-10.764000	25.246950	0.000901	20.975981
1213.307037	-2.979700	3.579400	-10.665000	25.224101	0.000901	20.966319
1214.309046	-3.020300	3.578500	-10.807000	25.260441	0.000899	20.987153
1215.308483	-3.021100	3.577400	-10.807000	25.240005	0.000901	20.966639
1216.308458	-3.022500	3.579100	-10.817000	25.230509	0.000897	20.986499
1217.306155	-3.005800	3.578700	-10.755000	25.197921	0.000900	20.967536
1218.308695	-3.004100	3.577300	-10.745000	25.178378	0.000899	20.971623
1219.310006	-3.017600	3.577500	-10.794000	25.159639	0.000898	20.981733
1220.307251	-3.019600	3.577900	-10.802000	25.170451	0.000898	20.980259
1221.311940	-2.998000	3.578400	-10.727000	25.188947	0.000896	20.977492
1222.308362	-3.017800	3.576300	-10.791000	25.187033	0.000898	20.960399
1223.309276	-3.010100	3.575700	-10.761000	25.219430	0.000896	20.970637
1224.312255	-3.010600	3.576700	-10.766000	25.237490	0.000896	20.948944
1225.311972	-3.017400	3.575700	-10.788000	25.255041	0.000896	20.953288
1226.316275	-3.013100	3.574900	-10.770000	25.268060	0.000893	20.947867
1227.309962	-2.982900	3.576600	-10.667000	25.305126	0.000894	20.964217
1228.309952	-3.007500	3.574900	-10.750000	25.272757	0.000895	20.958746
1229.307760	-3.016200	3.574100	-10.779000	25.255858	0.000892	20.972123
1230.309387	-2.996600	3.574800	-10.710000	25.251212	0.000892	20.951814
1231.310134	-3.004600	3.574200	-10.738000	25.211413	0.000892	20.962590
1232.308766	-2.993300	3.574400	-10.698000	25.213569	0.000892	20.958117
1233.305671	-3.007600	3.573600	-10.747000	25.239340	0.000892	20.943215
1234.307388	-2.999400	3.573000	-10.716000	25.245007	0.000888	20.964549
1235.312321	-3.006500	3.574100	-10.744000	25.254350	0.000891	20.948327
1236.309247	-3.018800	3.572400	-10.783000	25.248301	0.000890	20.946048
1237.312939	-2.998600	3.571200	-10.707000	25.289158	0.000890	20.949135
1238.309755	-3.000200	3.573000	-10.719000	25.258307	0.000889	20.957989
1239.311924	-3.007900	3.572900	-10.746000	25.275218	0.000887	20.945097
1240.314081	-3.012600	3.570700	-10.756000	25.286094	0.000888	20.928518
1241.314303	-2.985700	3.571600	-10.662000	25.296981	0.000885	20.936603
1242.311220	-3.011100	3.570500	-10.750000	25.309655	0.000888	20.940319
1243.309449	-3.019100	3.569500	-10.776000	25.337312	0.000885	20.923994
1244.313848	-3.007600	3.569700	-10.734000	25.366502	0.000885	20.944292
1245.312951	-2.987100	3.571300	-10.667000	25.349451	0.000885	20.947085
1246.313736	-2.998600	3.569000	-10.701000	25.371938	0.000883	20.931734
1247.309915	-2.993400	3.570100	-10.685000	25.368161	0.000884	20.933156
1248.314618	-3.015100	3.568800	-10.759000	25.389971	0.000883	20.946045
1249.314182	-3.015700	3.568200	-10.760000	25.409152	0.000882	20.948236
1250.316288	-3.034600	3.566700	-10.823000	25.393507	0.000883	20.923994
1251.316751	-2.991000	3.568300	-10.671000	25.383232	0.000881	20.916049
1252.316957	-2.995500	3.567500	-10.685000	25.370585	0.000881	20.946494
1253.313098	-3.031000	3.567400	-10.812000	25.385300	0.000882	20.936141
1254.319797	-3.005200	3.566500	-10.718000	25.363424	0.000882	20.927453
1255.314135	-2.990800	3.568000	-10.670000	25.398445	0.000878	20.946968
1256.319885	-3.007800	3.566700	-10.727000	25.393353	0.000878	20.935218
1257.318816	-2.984100	3.568200	-10.646000	25.404291	0.000878	20.925813
1258.317015	-3.008500	3.566400	-10.728000	25.395765	0.000881	20.955656
1259.317855	-3.004000	3.566400	-10.712000	25.402976	0.000877	20.942510
1260.321750	-3.024600	3.566100	-10.785000	25.360949	0.000878	20.935398
1261.329228	-3.002400	3.566000	-10.703000	25.322648	0.000877	20.930606
1262.318579	-3.023800	3.563100	-10.772000	25.318270	0.000877	20.933322
1263.320885	-2.998400	3.565600	-10.691000	25.303465	0.000877	20.936475
1264.319750	-3.001900	3.564500	-10.700000	25.325060	0.000874	20.929235
1265.316106	-3.007700	3.563900	-10.717000	25.304958	0.000875	20.925648
1266.321867	-3.007200	3.563300	-10.715000	25.295960	0.000874	20.934156
1267.317047	-3.001900	3.564500	-10.699000	25.251070	0.000874	20.931285
1268.319947	-2.989300	3.562900	-10.649000	25.248913	0.000874	20.935284
1269.320920	-2.995200	3.562900	-10.671000	25.245747	0.000875	20.922149
1270.316948	-2.987600	3.563800	-10.646000	25.268123	0.000872	20.914269
1271.320939	-2.994000	3.561900	-10.662000	25.317248	0.000872	20.928030
1272.321714	-2.991800	3.563700	-10.661000	25.311888	0.000873	20.925019
1273.321068	-3.006600	3.561200	-10.706000	25.326949	0.000871	20.928287
1274.322164	-2.986900	3.562500	-10.639000	25.396110	0.000870	20.929926
1275.320410	-3.004600	3.561600	-10.699000	25.390966	0.000871	20.915280
1276.318337	-2.993900	3.560800	-10.659000	25.413914	0.000871	20.927416
1277.326770	-2.980900	3.560800	-10.613000	25.383041	0.000871	20.913961
1278.325951	-2.992800	3.560600	-10.655000	25.375000	0.000870	20.903042
1279.321957	-2.996400	3.560200	-10.667000	25.400641	0.000868	20.915986
1280.321706	-2.997700	3.558400	-10.666000	25.410927	0.000867	20.934847
1281.322049	-2.989400	3.561100	-10.645000	25.429277	0.000867	20.920085
1282.321886	-3.035300	3.558500	-10.800000	25.439079	0.000867	20.914755
1283.324545	-3.002800	3.557700	-10.682000	25.463607	0.000866	20.928478
1284.319496	-3.004100	3.557100	-10.684000	25.478410	0.000867	20.936704
1285.324684	-2.995200	3.558000	-10.656000	25.466568	0.000866	20.926236
1286.321847	-3.012800	3.556200	-10.713000	25.458311	0.000865	20.914626
1287.320633	-3.003000	3.558400	-10.684000	25.435251	0.000866	20.941253
1288.328110	-3.005200	3.557700	-10.691000	25.436821	0.000864	20.904427
1289.323598	-2.998600	3.558000	-10.668000	25.419757	0.000863	20.930912
1290.328715	-3.009200	3.555800	-10.698000	25.438937	0.000864	20.923146
1291.325720	-3.006700	3.555600	-10.689000	25.464831	0.000863	20.912165
1292.326194	-2.991600	3.556700	-10.639000	25.487853	0.000862	20.914895
1293.322261	-3.003600	3.555100	-10.677000	25.464461	0.000863	20.914164
1294.327008	-2.989800	3.555700	-10.629000	25.451814	0.000861	20.907629
1295.333038	-2.995400	3.555500	-10.649000	25.437177	0.000858	20.911422
1296.328121	-3.012200	3.554400	-10.705000	25.392036	0.000860	20.902606
1297.327576	-2.991700	3.553400	-10.630000	25.396056	0.000859	20.936510
1298.330031	-2.992600	3.554700	-10.636000	25.402195	0.000858	20.915649
1299.328750	-3.022300	3.552000	-10.734000	25.428498	0.000860	20.912665
1300.327315	-2.986700	3.555100	-10.616000	25.416170	0.000856	20.913561
1301.327739	-3.031400	3.552400	-10.767000	25.443287	0.000858	20.912816
1302.326437	-2.997400	3.553100	-10.648000	25.457734	0.000857	20.920211
1303.327617	-3.018000	3.551600	-10.717000	25.471376	0.000856	20.891713
1304.329004	-3.013200	3.551400	-10.699000	25.487046	0.000856	20.917877
1305.330819	-2.999000	3.552800	-10.654000	25.521297	0.000856	20.934254
1306.327276	-2.983800	3.551800	-10.597000	25.501862	0.000857	20.909997
1307.329690	-3.011100	3.551500	-10.693000	25.513080	0.000857	20.911779
1308.331463	-3.012200	3.549300	-10.690000	25.544330	0.000853	20.914239
1309.327627	-2.993700	3.551300	-10.631000	25.549026	0.000853	20.900464
1310.332644	-3.018300	3.551200	-10.717000	25.560229	0.000852	20.913136
1311.331570	-3.012700	3.549700	-10.693000	25.559936	0.000853	20.909049
1312.337159	-2.997700	3.548800	-10.638000	25.593011	0.000854	20.902912
1313.334612	-2.999700	3.548300	-10.643000	25.597681	0.000851	20.926091
1314.327630	-3.000700	3.548200	-10.646000	25.621223	0.000853	20.920339
1315.334902	-3.017800	3.547100	-10.703000	25.648745	0.000849	20.915738
1316.332082	-2.996500	3.549100	-10.634000	25.648782	0.000851	20.902500
1317.334897	-3.017700	3.547000	-10.703000	25.645019	0.000851	20.907730
1318.332155	-3.007600	3.547400	-10.668000	25.613744	0.000848	20.913302
1319.341281	-3.009800	3.547000	-10.674000	25.604967	0.000847	20.922504
1320.333746	-3.014900	3.547300	-10.695000	25.617751	0.000848	20.922541
1321.335105	-2.990700	3.547400	-10.608000	25.617228	0.000846	20.902103
1322.340706	-2.989200	3.546800	-10.601000	25.602402	0.000845	20.916135
1323.337573	-2.994900	3.547000	-10.622000	25.561404	0.000849	20.898670
1324.337350	-2.990900	3.547100	-10.608000	25.524130	0.000846	20.907230
1325.338163	-3.002000	3.545800	-10.644000	25.498213	0.000846	20.918660
1326.340147	-2.975400	3.547400	-10.553000	25.464638	0.000845	20.901066
1327.337399	-2.990600	3.545800	-10.603000	25.475523	0.000845	20.902514
1328.336913	-2.998800	3.545300	-10.630000	25.461295	0.000845	20.913830
1329.339386	-2.986800	3.545200	-10.588000	25.496901	0.000843	20.913550
1330.336470	-2.988400	3.545100	-10.594000	25.503344	0.000842	20.894417
1331.338120	-3.016500	3.543000	-10.687000	25.522435	0.000842	20.896045
1332.341492	-2.997600	3.544400	-10.622000	25.530856	0.000842	20.903080
1333.344065	-2.997300	3.542300	-10.616000	25.541818	0.000841	20.919776
1334.339262	-3.011900	3.541400	-10.666000	25.564264	0.000841	20.885423
1335.339911	-2.995200	3.543200	-10.612000	25.549705	0.000839	20.899249
1336.343893	-3.016800	3.540300	-10.679000	25.569842	0.000838	20.891972
1337.344134	-2.985900	3.543700	-10.580000	25.538208	0.000839	20.900032
1338.349022	-2.995800	3.542200	-10.611000	25.511717	0.000840	20.888602
1339.343303	-3.012500	3.540900	-10.666000	25.506970	0.000838	20.893317
1340.342995	-2.990300	3.541800	-10.590000	25.469299	0.000839	20.895316
1341.344494	-3.004600	3.540400	-10.636000	25.426495	0.000837	20.882207
1342.344828	-3.004000	3.540100	-10.634000	25.408515	0.000838	20.912513
1343.345286	-3.000500	3.540800	-10.623000	25.359749	0.000836	20.895316
1344.347190	-3.004700	3.538400	-10.631000	25.338269	0.000834	20.893189
1345.341982	-2.992900	3.539300	-10.591000	25.337440	0.000834	20.889987
1346.344953	-3.010800	3.537600	-10.649000	25.314543	0.000835	20.903979
1347.348146	-3.014200	3.538800	-10.666000	25.341142	0.000833	20.885169
1348.354169	-2.983800	3.538700	-10.557000	25.315462	0.000834	20.893523
1349.352332	-2.997200	3.538300	-10.604000	25.320440	0.000832	20.895202
1350.349432	-2.982400	3.539300	-10.554000	25.305852	0.000833	20.899046
1351.346591	-3.000600	3.536700	-10.611000	25.319623	0.000833	20.896279
1352.349803	-3.003100	3.536500	-10.618000	25.351417	0.000835	20.900700
1353.350297	-2.989700	3.535800	-10.570000	25.347101	0.000829	20.878825
1354.349426	-2.987700	3.537900	-10.569000	25.384663	0.000831	20.910374
1355.350919	-3.016100	3.535900	-10.664000	25.412625	0.000830	20.896253
1356.347625	-3.006500	3.535600	-10.629000	25.393048	0.000829	20.894139
1357.348276	-3.002000	3.534700	-10.610000	25.403067	0.000827	20.896613
1358.351827	-3.005400	3.536400	-10.628000	25.410213	0.000829	20.903313
1359.349286	-3.013600	3.534900	-10.652000	25.403807	0.000828	20.884080
1360.348305	-2.996700	3.536100	-10.597000	25.411706	0.000825	20.896279
1361.351882	-2.992000	3.534900	-10.574000	25.365902	0.000828	20.891538
1362.348328	-3.003600	3.533400	-10.612000	25.371147	0.000828	20.891589
1363.351480	-3.014900	3.533200	-10.651000	25.411388	0.000827	20.880787
1364.356747	-2.998000	3.533900	-10.594000	25.424034	0.000827	20.890167
1365.352179	-2.980400	3.534400	-10.532000	25.448870	0.000825	20.877648
1366.348357	-3.014700	3.531400	-10.645000	25.441008	0.000825	20.896304
1367.349941	-2.988600	3.531800	-10.552000	25.448716	0.000824	20.895510
1368.352157	-3.001600	3.531400	-10.599000	25.462000	0.000822	20.887988
1369.354006	-2.995000	3.531000	-10.575000	25.466059	0.000822	20.902019
1370.355660	-3.006400	3.532400	-10.618000	25.492475	0.000824	20.885400
1371.351606	-3.002400	3.530500	-10.599000	25.515738	0.000825	20.891692
1372.354831	-2.990100	3.530100	-10.555000	25.515050	0.000823	20.897638
1373.352648	-2.972900	3.531800	-10.499000	25.533259	0.000822	20.892691
1374.356269	-2.978100	3.532500	-10.519000	25.504304	0.000820	20.877840
1375.350060	-2.981200	3.532000	-10.529000	25.500132	0.000821	20.900674
1376.351826	-2.980800	3.531400	-10.525000	25.485737	0.000819	20.891909
1377.354468	-3.010100	3.530700	-10.626000	25.464756	0.000819	20.875109
1378.351900	-3.006100	3.529900	-10.610000	25.451791	0.000817	20.880582
1379.354961	-3.020900	3.527700	-10.656000	25.451484	0.000818	20.877428
1380.357834	-3.006800	3.527800	-10.607000	25.457457	0.000815	20.892434
1381.355183	-3.016900	3.528200	-10.643000	25.464526	0.000818	20.890998
1382.356313	-3.025800	3.526200	-10.668000	25.494898	0.000817	20.897790
1383.355707	-3.006400	3.527700	-10.605000	25.489474	0.000816	20.877172
1384.353852	-2.989600	3.528000	-10.546000	25.496941	0.000817	20.868074
1385.358452	-2.991200	3.529400	-10.555000	25.534087	0.000814	20.866024
1386.356966	-3.005400	3.525500	-10.595000	25.501074	0.000815	20.847570
1387.359835	-3.012800	3.526400	-10.623000	25.525358	0.000814	20.878594
1388.357997	-3.000500	3.525200	-10.576000	25.517727	0.000814	20.863819
1389.355443	-3.003300	3.526500	-10.591000	25.514920	0.000813	20.883284
1390.357410	-2.989000	3.524200	-10.532000	25.496250	0.000811	20.879708
1391.360368	-2.988300	3.525500	-10.534000	25.489486	0.000810	20.877183
1392.358644	-3.023200	3.523600	-10.652000	25.466591	0.000811	20.878848
1393.359266	-3.004400	3.525800	-10.592000	25.445841	0.000812	20.854694
1394.365003	-2.993900	3.525300	-10.553000	25.466196	0.000810	20.881770
1395.359444	-2.993500	3.523500	-10.548000	25.486462	0.000810	20.871776
1396.358502	-2.993900	3.523800	-10.549000	25.476240	0.000810	20.882847
1397.356747	-3.006200	3.523700	-10.592000	25.478359	0.000810	20.870751
1398.364695	-2.994800	3.522300	-10.547000	25.471620	0.000807	20.868252
1399.360702	-2.978700	3.521300	-10.488000	25.449542	0.000808	20.862203
1400.359280	-2.989200	3.521200	-10.524000	25.469373	0.000807	20.885909
1401.362777	-2.997700	3.521300	-10.555000	25.476251	0.000809	20.870057
1402.358341	-2.998900	3.521300	-10.559000	25.476851	0.000807	20.880616
1403.365031	-3.006100	3.521100	-10.584000	25.465047	0.000806	20.869712
1404.362716	-2.979500	3.521000	-10.490000	25.449172	0.000805	20.865150
1405.360175	-2.998300	3.520800	-10.555000	25.441859	0.000805	20.868712
1406.366875	-3.008400	3.519000	-10.586000	25.446018	0.000806	20.876207
1407.370510	-3.000700	3.519500	-10.560000	25.441654	0.000804	20.862817
1408.362052	-2.998900	3.518000	-10.549000	25.430922	0.000805	20.867687
1409.360150	-2.994900	3.519100	-10.539000	25.428817	0.000802	20.841392
1410.362317	-2.988300	3.518500	-10.511000	25.471950	0.000805	20.872851
1411.363241	-2.988300	3.518200	-10.512000	25.505946	0.000801	20.875221
1412.371499	-3.005200	3.516800	-10.567000	25.509749	0.000800	20.873350
1413.364608	-3.017100	3.517700	-10.611000	25.471427	0.000802	20.876118
1414.360081	-3.001600	3.517000	-10.555000	25.472881	0.000801	20.874259
1415.364122	-3.010700	3.515900	-10.584000	25.422971	0.000799	20.866816
1416.364434	-3.009300	3.515900	-10.578000	25.418147	0.000800	20.860549
1417.363524	-3.000100	3.517800	-10.553000	25.472320	0.000800	20.863740
1418.360035	-3.011000	3.514800	-10.582000	25.499604	0.000799	20.863637
1419.365193	-3.003400	3.515400	-10.557000	25.490556	0.000798	20.854077
1420.364015	-2.998100	3.516400	-10.542000	25.457108	0.000798	20.863163
1421.364314	-3.012500	3.514500	-10.586000	25.467343	0.000799	20.868224
1422.367236	-3.011700	3.513500	-10.579000	25.461039	0.000798	20.860946
1423.362645	-3.016100	3.513300	-10.595000	25.479070	0.000798	20.882845
1424.366199	-3.010200	3.512900	-10.573000	25.489842	0.000796	20.857627
1425.361366	-3.013800	3.512200	-10.583000	25.458269	0.000796	20.865750
1426.364408	-3.015700	3.513300	-10.594000	25.454619	0.000795	20.848810
1427.365751	-2.987500	3.514400	-10.498000	25.466959	0.000796	20.859778
1428.367081	-3.024600	3.511800	-10.621000	25.478726	0.000795	20.845043
1429.364932	-3.004800	3.512200	-10.552000	25.513743	0.000794	20.857922
1430.366596	-2.989200	3.511900	-10.497000	25.528863	0.000794	20.843235
1431.366580	-2.987600	3.512200	-10.492000	25.510705	0.000795	20.836854
1432.364316	-3.000000	3.510800	-10.531000	25.548298	0.000794	20.857062
1433.365567	-3.010000	3.511300	-10.568000	25.556592	0.000793	20.867287
1434.366653	-2.995300	3.510600	-10.514000	25.563611	0.000792	20.836406
1435.367076	-2.986700	3.509600	-10.481000	25.567630	0.000792	20.840442
1436.364435	-2.986500	3.510100	-10.482000	25.588429	0.000790	20.836674
1437.367738	-3.001800	3.509100	-10.533000	25.563495	0.000791	20.853358
1438.370821	-2.995600	3.509700	-10.512000	25.559220	0.000791	20.833893
1439.368968	-3.010800	3.508600	-10.563000	25.531084	0.000791	20.859215
1440.373237	-2.985200	3.510100	-10.478000	25.493821	0.000790	20.836020
1441.367970	-3.021500	3.507700	-10.597000	25.528505	0.000790	20.847143
1442.369919	-3.023800	3.509500	-10.611000	25.502192	0.000789	20.849642
1443.374740	-3.003400	3.508300	-10.535000	25.551486	0.000787	20.830868
1444.372198	-3.017000	3.506800	-10.578000	25.540360	0.000787	20.832970
1445.374161	-2.970800	3.507700	-10.419000	25.518067	0.000787	20.833341
1446.371965	-2.982900	3.508200	-10.464000	25.483994	0.000788	20.832790
1447.371985	-2.986800	3.506600	-10.471000	25.458292	0.000785	20.839222
1448.369022	-2.988000	3.506500	-10.476000	25.469943	0.000784	20.845706
1449.368419	-2.991000	3.505800	-10.484000	25.484020	0.000786	20.844195
1450.367315	-3.019100	3.505800	-10.583000	25.490349	0.000785	20.842016
1451.369707	-3.015100	3.504400	-10.565000	25.548054	0.000783	20.852550
1452.369608	-3.001200	3.504300	-10.516000	25.538981	0.000782	20.817361
1453.372601	-2.996700	3.503100	-10.497000	25.543267	0.000782	20.830200
1454.378618	-2.982300	3.504800	-10.451000	25.557801	0.000783	20.837209
1455.372063	-2.990100	3.503600	-10.475000	25.554561	0.000780	20.833481
1456.377263	-2.986500	3.503700	-10.462000	25.528172	0.000783	20.836852
1457.379394	-2.960400	3.504900	-10.375000	25.473707	0.000782	20.834313
1458.374494	-2.984000	3.502300	-10.450000	25.447751	0.000781	20.838594
1459.374620	-2.990900	3.502500	-10.475000	25.487732	0.000780	20.824216
1460.378549	-2.999300	3.501800	-10.502000	25.510382	0.000780	20.843167
1461.377334	-2.999800	3.500700	-10.500000	25.558108	0.000779	20.843207
1462.380538	-3.009900	3.501600	-10.538000	25.543548	0.000777	20.829060
1463.377947	-3.014400	3.501200	-10.554000	25.540409	0.000777	20.828752
1464.379401	-2.996100	3.500800	-10.487000	25.529398	0.000777	20.827652
1465.380726	-3.008400	3.500200	-10.529000	25.530289	0.000777	20.837081
1466.380496	-2.999500	3.500700	-10.500000	25.550144	0.000774	20.829520
1467.382398	-2.997400	3.500000	-10.488000	25.561425	0.000776	20.817141
1468.377197	-3.017100	3.499700	-10.558000	25.553538	0.000774	20.805428
1469.380263	-3.009300	3.497600	-10.524000	25.535559	0.000775	20.804442
1470.381198	-2.989400	3.498400	-10.457000	25.552275	0.000774	20.823599
1471.378199	-2.986300	3.498500	-10.446000	25.521344	0.000775	20.821934
1472.376987	-3.037600	3.497100	-10.621000	25.530238	0.000773	20.810477
1473.377345	-3.005800	3.497400	-10.512000	25.538034	0.000773	20.816884
1474.375766	-3.007000	3.497200	-10.513000	25.544249	0.000772	20.822651
1475.376264	-3.000500	3.496900	-10.492000	25.580540	0.000773	20.813105
1476.382832	-2.990000	3.496300	-10.453000	25.567409	0.000772	20.823151
1477.376423	-2.983500	3.495700	-10.428000	25.573623	0.000770	20.802365
1478.379333	-2.997500	3.496600	-10.480000	25.572844	0.000771	20.825764
1479.380982	-3.014300	3.494400	-10.532000	25.586740	0.000771	20.823125
1480.378261	-2.983700	3.496200	-10.431000	25.611572	0.000770	20.812977
1481.384334	-3.006900	3.493000	-10.502000	25.618372	0.000770	20.811746
1482.383891	-2.986500	3.496500	-10.441000	25.585987	0.000768	20.823317
1483.384075	-2.989600	3.494200	-10.445000	25.570483	0.000769	20.806324
1484.381831	-3.012400	3.492600	-10.520000	25.592380	0.000767	20.817884
1485.382863	-2.984000	3.492300	-10.420000	25.578803	0.000766	20.826059
1486.382142	-2.996200	3.492400	-10.463000	25.640189	0.000768	20.809475
1487.384791	-2.993800	3.493000	-10.456000	25.657517	0.000768	20.812654
1488.382578	-2.993000	3.492000	-10.451000	25.645101	0.000767	20.800184
1489.380282	-3.013200	3.491800	-10.520000	25.652566	0.000767	20.817164
1490.382981	-2.992200	3.492600	-10.450000	25.641477	0.000765	20.824045
1491.383751	-3.001000	3.490700	-10.475000	25.616507	0.000763	20.810347
1492.383487	-2.981400	3.492200	-10.411000	25.646619	0.000764	20.795071
1493.384247	-3.011200	3.489200	-10.504000	25.625565	0.000763	20.807116
1494.397015	-3.012300	3.489400	-10.508000	25.609744	0.000763	20.818253
1495.381397	-3.004700	3.489200	-10.483000	25.578672	0.000762	20.801272
1496.385363	-2.987800	3.488800	-10.423000	25.538094	0.000760	20.803195
1497.384038	-2.993000	3.490000	-10.444000	25.495882	0.000761	20.799684
1498.386043	-2.991600	3.488500	-10.435000	25.464105	0.000763	20.793378
1499.386137	-2.997000	3.487000	-10.450000	25.467589	0.000761	20.802092
1500.385038	-3.006100	3.487600	-10.483000	25.451140	0.000761	20.786522
1501.385237	-3.013300	3.488500	-10.511000	25.444657	0.000761	20.792815
1502.396336	-3.009600	3.486600	-10.493000	25.447006	0.000762	20.816036
1503.387776	-3.012400	3.487500	-10.504000	25.425528	0.000759	20.801106
1504.389270	-3.012200	3.486800	-10.501000	25.457406	0.000760	20.788547
1505.390408	-3.009200	3.485300	-10.488000	25.494159	0.000759	20.812652
1506.386954	-3.002500	3.484700	-10.462000	25.491160	0.000758	20.801106
1507.389461	-3.008300	3.485900	-10.485000	25.451714	0.000760	20.784254
1508.392542	-2.984600	3.486400	-10.403000	25.464412	0.000760	20.789418
1509.388916	-3.010600	3.484700	-10.490000	25.488928	0.000757	20.794597
1510.387890	-3.008500	3.485300	-10.485000	25.467068	0.000756	20.793508
1511.395419	-2.990800	3.485700	-10.425000	25.455850	0.000755	20.794571
1512.391763	-2.978300	3.485600	-10.380000	25.481003	0.000755	20.789484
1513.394322	-3.001200	3.482700	-10.450000	25.493037	0.000755	20.796353
1514.394352	-2.989800	3.483600	-10.414000	25.514157	0.000755	20.806182
1515.391702	-2.996500	3.482500	-10.434000	25.504344	0.000756	20.798698
1516.395258	-2.997100	3.483200	-10.438000	25.474967	0.000755	20.801440
1517.391695	-3.010200	3.481400	-10.478000	25.455059	0.000753	20.819855
1518.397435	-3.003800	3.481400	-10.457000	25.430633	0.000752	20.773517
1519.394467	-3.028100	3.479300	-10.534000	25.453235	0.000753	20.792894
1520.389789	-3.017700	3.480700	-10.502000	25.450900	0.000752	20.804774
1521.393466	-2.987800	3.480800	-10.399000	25.492565	0.000753	20.793508
1522.391566	-3.010600	3.479700	-10.475000	25.533720	0.000753	20.805439
1523.395255	-2.990100	3.481200	-10.408000	25.531333	0.000751	20.803594
1524.396772	-3.003500	3.480500	-10.453000	25.559892	0.000749	20.788101
1525.395689	-3.019000	3.481300	-10.509000	25.576186	0.000749	20.813000
1526.395609	-2.982500	3.477900	-10.372000	25.589036	0.000751	20.793188
1527.393904	-3.008700	3.478200	-10.464000	25.623833	0.000748	20.793996
1528.393140	-3.009100	3.477700	-10.464000	25.624814	0.000749	20.796405
1529.396146	-2.988900	3.478600	-10.396000	25.625568	0.000749	20.794791
1530.391225	-3.019300	3.475800	-10.493000	25.643087	0.000746	20.792945
1531.390236	-2.979000	3.478000	-10.359000	25.642666	0.000747	20.790626
1532.395241	-2.996700	3.477000	-10.418000	25.641761	0.000746	20.779760
1533.396953	-3.028600	3.475600	-10.524000	25.611877	0.000745	20.789101
1534.394437	-3.007200	3.475600	-10.451000	25.583384	0.000746	20.794151
1535.400668	-3.012900	3.476800	-10.473000	25.550347	0.000747	20.799852
1536.395522	-3.012200	3.475600	-10.468000	25.571849	0.000746	20.811489
1537.395275	-2.980900	3.475100	-10.356000	25.577119	0.000745	20.813462
1538.392826	-2.996100	3.473600	-10.406000	25.623642	0.000744	20.813719
1539.395025	-3.025600	3.474000	-10.510000	25.617095	0.000745	20.800032
1540.395933	-3.005800	3.474100	-10.442000	25.642691	0.000742	20.803928
1541.395941	-3.011200	3.473000	-10.457000	25.662277	0.000742	20.801788
1542.396880	-3.008800	3.473200	-10.449000	25.699430	0.000741	20.804965
1543.395259	-3.003100	3.472300	-10.426000	25.689007	0.000739	20.810617
1544.398258	-3.024600	3.470900	-10.497000	25.742248	0.000742	20.798661
1545.401930	-3.000500	3.471600	-10.415000	25.740093	0.000742	20.815462
1546.402227	-3.010900	3.470500	-10.448000	25.786646	0.000739	20.823816
1547.397655	-3.041600	3.470800	-10.556000	25.752659	0.000740	20.807221
1548.396923	-3.000700	3.470300	-10.411000	25.769422	0.000740	20.803197
1549.394911	-3.025000	3.470000	-10.494000	25.780126	0.000739	20.801146
1550.399894	-2.991200	3.470200	-10.379000	25.784860	0.000738	20.810169
1551.402643	-3.008200	3.468500	-10.432000	25.789453	0.000736	20.803877
1552.399689	-3.008200	3.470600	-10.439000	25.788381	0.000740	20.820817
1553.401723	-2.988800	3.468300	-10.365000	25.795563	0.000737	20.801954
1554.399742	-2.995200	3.468600	-10.388000	25.794619	0.000736	20.802428
1555.399723	-2.960300	3.469000	-10.268000	25.795933	0.000735	20.802326
1556.402526	-3.014600	3.466400	-10.448000	25.809266	0.000735	20.829943
1557.397597	-2.995800	3.469200	-10.392000	25.830774	0.000734	20.808875
1558.405701	-2.963900	3.468200	-10.278000	25.797682	0.000734	20.796970
1559.401284	-3.010200	3.466500	-10.432000	25.831960	0.000733	20.808170
1560.401804	-3.017600	3.466300	-10.459000	25.875092	0.000734	20.810246
1561.401577	-2.991800	3.466700	-10.371000	25.857616	0.000734	20.813553
1562.402225	-2.988000	3.466700	-10.357000	25.865257	0.000732	20.821703
1563.400712	-2.982200	3.466600	-10.337000	25.864122	0.000733	20.813451
1564.401776	-3.002900	3.464900	-10.404000	25.855191	0.000732	20.823919
1565.402299	-3.005300	3.465000	-10.413000	25.847014	0.000733	20.784885
1566.402489	-2.990400	3.463800	-10.357000	25.834525	0.000731	20.808849
1567.401214	-2.970700	3.465400	-10.292000	25.865933	0.000731	20.809580
1568.402054	-2.995100	3.463700	-10.373000	25.847576	0.000730	20.817692
1569.403660	-2.991900	3.464400	-10.365000	25.878817	0.000730	20.811617
1570.399601	-2.994300	3.462700	-10.368000	25.882197	0.000729	20.815962
1571.403001	-3.005900	3.462200	-10.406000	25.870435	0.000731	20.811732
1572.403996	-2.969500	3.464600	-10.287000	25.864989	0.000728	20.806261
1573.401102	-3.008100	3.461800	-10.412000	25.829128	0.000728	20.820023
1574.403233	-3.005400	3.460700	-10.399000	25.817723	0.000728	20.803825
1575.400749	-3.005300	3.460300	-10.397000	25.812633	0.000728	20.822894
1576.398449	-2.994100	3.462300	-10.364000	25.778735	0.000727	20.812077
1577.400458	-2.992500	3.460700	-10.355000	25.764281	0.000727	20.824111
1578.401759	-3.005300	3.459700	-10.396000	25.765186	0.000726	20.826442
1579.401937	-2.952800	3.461300	-10.220000	25.791583	0.000728	20.824508
1580.407538	-3.011900	3.457800	-10.414000	25.798714	0.000727	20.822188
1581.402654	-3.010200	3.458900	-10.410000	25.803039	0.000726	20.798558
1582.403152	-3.000300	3.459400	-10.379000	25.767816	0.000725	20.829558
1583.409729	-2.979000	3.456700	-10.296000	25.754661	0.000724	20.826302
1584.401287	-2.990200	3.458100	-10.339000	25.715264	0.000722	20.838886
1585.401791	-2.998000	3.456900	-10.363000	25.674091	0.000724	20.830723
1586.403225	-3.014300	3.456700	-10.418000	25.665542	0.000722	20.818344
1587.403919	-2.991600	3.457600	-10.342000	25.647961	0.000721	20.830557
1588.404536	-3.007400	3.455400	-10.391000	25.624203	0.000723	20.844627
1589.407622	-3.004100	3.455800	-10.380000	25.640280	0.000720	20.829955
1590.404370	-2.961400	3.456800	-10.236000	25.623819	0.000721	20.825276
1591.406546	-3.003400	3.454300	-10.373000	25.670314	0.000720	20.837361
1592.404312	-3.000600	3.455300	-10.367000	25.675775	0.000721	20.836207
1593.407274	-3.017100	3.453000	-10.417000	25.689249	0.000721	20.826033
1594.401058	-3.006800	3.453800	-10.384000	25.703499	0.000719	20.837027
1595.405130	-2.996800	3.454400	-10.351000	25.677689	0.000719	20.821060
1596.407726	-3.018300	3.453500	-10.423000	25.698204	0.000718	20.831709
1597.402602	-3.019200	3.452500	-10.423000	25.705362	0.000718	20.833208
1598.407593	-3.000200	3.454400	-10.362000	25.681554	0.000718	20.833477
1599.402966	-3.020400	3.451900	-10.424000	25.704506	0.000717	20.839935
1600.406490	-2.999800	3.451600	-10.352000	25.730305	0.000716	20.836450
1601.403895	-2.985500	3.450700	-10.301000	25.683723	0.000716	20.856044
1602.403716	-2.984800	3.451300	-10.300000	25.666154	0.000715	20.820381
1603.405609	-2.993900	3.450700	-10.329000	25.652922	0.000716	20.809935
1604.404194	-3.013000	3.448200	-10.388000	25.656277	0.000714	20.828004
1605.407731	-3.015600	3.450600	-10.405000	25.660501	0.000714	20.827979
1606.404063	-3.000800	3.449300	-10.349000	25.613060	0.000715	20.838178
1607.405795	-3.012800	3.448900	-10.390000	25.621877	0.000713	20.837076
1608.407002	-3.012600	3.449000	-10.390000	25.604562	0.000714	20.852877
1609.404634	-3.013900	3.448600	-10.392000	25.596039	0.000712	20.840049
1610.408000	-3.008900	3.448900	-10.376000	25.611542	0.000713	20.840921
1611.411913	-2.998100	3.448100	-10.337000	25.662924	0.000711	20.835154
1612.414063	-3.008700	3.447600	-10.371000	25.681247	0.000711	20.862565
1613.409301	-2.991400	3.447800	-10.313000	25.660194	0.000709	20.849006
1614.409252	-2.988100	3.448500	-10.303000	25.660563	0.000712	20.860283
1615.409155	-2.994800	3.448200	-10.325000	25.658675	0.000708	20.857438
1616.412200	-3.001400	3.446300	-10.342000	25.676831	0.000709	20.849595
1617.409047	-3.007800	3.447400	-10.368000	25.669380	0.000710	20.849224
1618.404635	-3.000200	3.446600	-10.339000	25.713029	0.000710	20.878839
1619.407823	-2.999900	3.445000	-10.333000	25.717494	0.000709	20.847764
1620.409163	-3.005000	3.444100	-10.348000	25.742144	0.000708	20.853556
1621.414052	-3.007600	3.444900	-10.360000	25.744339	0.000706	20.840589
1622.409813	-2.996000	3.443000	-10.314000	25.733467	0.000707	20.845790
1623.417761	-2.990000	3.442600	-10.292000	25.749659	0.000707	20.845933
1624.409323	-2.980800	3.443100	-10.262000	25.749441	0.000706	20.853773
1625.406750	-3.002700	3.442800	-10.337000	25.782077	0.000704	20.854313
1626.411933	-3.000500	3.444200	-10.334000	25.772150	0.000703	20.856670
1627.412999	-2.998700	3.442400	-10.322000	25.776208	0.000705	20.852211
1628.409257	-2.999700	3.442900	-10.326000	25.796198	0.000704	20.847635
1629.410440	-3.008900	3.441400	-10.353000	25.791657	0.000703	20.858720
1630.409531	-2.995500	3.442000	-10.310000	25.819762	0.000704	20.858503
1631.414610	-3.002000	3.441100	-10.329000	25.825273	0.000703	20.862616
1632.415828	-3.008200	3.441400	-10.351000	25.845302	0.000702	20.864244
1633.411858	-3.000400	3.439900	-10.320000	25.860062	0.000702	20.873855
1634.413435	-3.009700	3.438900	-10.349000	25.859104	0.000701	20.872419
1635.412778	-2.982400	3.440300	-10.259000	25.879210	0.000701	20.876968
1636.412376	-2.985000	3.440900	-10.270000	25.872997	0.000701	20.857926
1637.412177	-2.980100	3.440800	-10.254000	25.861874	0.000701	20.862399
1638.412341	-3.015800	3.438900	-10.370000	25.854487	0.000698	20.860668
1639.413214	-3.017000	3.437400	-10.369000	25.841615	0.000701	20.880453
1640.412840	-2.992200	3.439000	-10.289000	25.813447	0.000700	20.843151
1641.415246	-2.997700	3.437400	-10.303000	25.849243	0.000698	20.870573
1642.412182	-3.001700	3.437300	-10.316000	25.850176	0.000699	20.892371
1643.417643	-3.006200	3.438000	-10.333000	25.841984	0.000698	20.881298
1644.415631	-3.016200	3.437200	-10.366000	25.793736	0.000697	20.862705
1645.411861	-2.996300	3.435400	-10.292000	25.768450	0.000697	20.880927
1646.416265	-3.028000	3.435800	-10.402000	25.780200	0.000696	20.870445
1647.418662	-3.005000	3.436400	-10.326000	25.728045	0.000698	20.856464
1648.418857	-2.991800	3.435600	-10.278000	25.727177	0.000695	20.891626
1649.416552	-2.990500	3.435000	-10.272000	25.721754	0.000695	20.885232
1650.420373	-2.997500	3.433700	-10.292000	25.673475	0.000695	20.878465
1651.414244	-3.020100	3.433200	-10.367000	25.681310	0.000693	20.882067
1652.418290	-3.009200	3.433800	-10.332000	25.667594	0.000694	20.867817
1653.420304	-3.005800	3.435100	-10.324000	25.656201	0.000694	20.878659
1654.415426	-2.990800	3.432800	-10.265000	25.675440	0.000694	20.884706
1655.420844	-3.001800	3.433200	-10.304000	25.685544	0.000691	20.881105
1656.414744	-3.048800	3.431400	-10.460000	25.691963	0.000693	20.889447
1657.418023	-3.006600	3.432500	-10.319000	25.708588	0.000693	20.882438
1658.424656	-2.982800	3.433300	-10.239000	25.723847	0.000690	20.877377
1659.419190	-2.976800	3.432000	-10.215000	25.747476	0.000692	20.910591
1660.417167	-2.973300	3.432300	-10.204000	25.752847	0.000692	20.877108
1661.419939	-2.986600	3.430700	-10.245000	25.726387	0.000691	20.874238
1662.419669	-3.011000	3.430100	-10.328000	25.703281	0.000691	20.876160
1663.424754	-3.010300	3.430400	-10.325000	25.657056	0.000691	20.897535
1664.419503	-3.006900	3.428600	-10.308000	25.621342	0.000689	20.902916
1665.419137	-3.000300	3.428800	-10.286000	25.638312	0.000691	20.909054
1666.416289	-3.010400	3.427600	-10.318000	25.644552	0.000688	20.878813
1667.419086	-2.987600	3.430300	-10.247000	25.639819	0.000687	20.901559
1668.424500	-3.012000	3.427000	-10.321000	25.665796	0.000689	20.897304
1669.423068	-3.005700	3.427600	-10.301000	25.674586	0.000687	20.915140
1670.421513	-3.021100	3.426000	-10.349000	25.713476	0.000687	20.889244
1671.419407	-2.991700	3.426800	-10.250000	25.701714	0.000685	20.915360
1672.421918	-2.992700	3.427000	-10.255000	25.676986	0.000686	20.907120
1673.421265	-3.001800	3.426100	-10.283000	25.683237	0.000684	20.909131
1674.417615	-2.994400	3.425900	-10.258000	25.704634	0.000685	20.901225
1675.420547	-3.006400	3.424400	-10.294000	25.704813	0.000684	20.904724
1676.420490	-2.998900	3.426100	-10.273000	25.683533	0.000684	20.920806
1677.421671	-2.979700	3.424700	-10.203000	25.714511	0.000682	20.901188
1678.424071	-3.012500	3.422600	-10.309000	25.725061	0.000683	20.928378
1679.421042	-2.994400	3.425500	-10.256000	25.718734	0.000683	20.901162
1680.421388	-3.012300	3.423600	-10.312000	25.743767	0.000683	20.922511
1681.421081	-3.023800	3.422000	-10.346000	25.752824	0.000682	20.933978
1682.420261	-3.011900	3.422300	-10.306000	25.769780	0.000682	20.923985
1683.424765	-2.995400	3.422900	-10.253000	25.766271	0.000678	20.906237
1684.421007	-2.990200	3.423200	-10.235000	25.794440	0.000679	20.922677
1685.423254	-2.991400	3.423500	-10.240000	25.801981	0.000679	20.925036
1686.421614	-2.983300	3.421400	-10.206000	25.804495	0.000680	20.925664
1687.421463	-3.010400	3.420900	-10.298000	25.803130	0.000681	20.921922
1688.420498	-2.982000	3.422500	-10.204000	25.818846	0.000679	20.906417
1689.421844	-2.996100	3.421300	-10.250000	25.803244	0.000680	20.923933
1690.429208	-3.020000	3.420000	-10.327000	25.798958	0.000679	20.939541
1691.423094	-3.009000	3.418700	-10.286000	25.813731	0.000676	20.910287
1692.422762	-3.009800	3.419700	-10.291000	25.800591	0.000679	20.928854
1693.424994	-2.994300	3.419600	-10.239000	25.769411	0.000677	20.956326
1694.424567	-2.980400	3.420900	-10.195000	25.786864	0.000677	20.949677
1695.428392	-2.997200	3.418200	-10.245000	25.799328	0.000678	20.938490
1696.428610	-3.004100	3.417200	-10.264000	25.830112	0.000676	20.938593
1697.427451	-2.995900	3.418700	-10.240000	25.885055	0.000677	20.927880
1698.428804	-2.999800	3.417400	-10.250000	25.897352	0.000674	20.929802
1699.427670	-3.007300	3.416100	-10.272000	25.902174	0.000673	20.934646
1700.430708	-2.990200	3.416700	-10.216000	25.894239	0.000674	20.922408
1701.431530	-2.984800	3.417900	-10.200000	25.870002	0.000673	20.948318
1702.430246	-2.988800	3.416300	-10.211000	25.840954	0.000673	20.931942
1703.427882	-3.003700	3.416400	-10.261000	25.827584	0.000674	20.949803
1704.430962	-3.000200	3.413700	-10.241000	25.810324	0.000672	20.951431
1705.429122	-2.976700	3.415600	-10.166000	25.809840	0.000673	20.932930
1706.433400	-3.004700	3.413200	-10.254000	25.774743	0.000674	20.919012
1707.430690	-3.005000	3.414800	-10.259000	25.779642	0.000670	20.942897
1708.434701	-2.996000	3.415600	-10.231000	25.793968	0.000670	20.941641
1709.436171	-3.017300	3.413400	-10.298000	25.815912	0.000670	20.943768
1710.430897	-3.011200	3.413900	-10.278000	25.841910	0.000669	20.933376
1711.434407	-2.998100	3.413900	-10.233000	25.863201	0.000669	20.931531
1712.432532	-2.990100	3.414000	-10.208000	25.877182	0.000669	20.944151
1713.434005	-3.010300	3.412800	-10.272000	25.877424	0.000668	20.943920
1714.435324	-2.995200	3.413300	-10.223000	25.883127	0.000669	20.932107
1715.429197	-2.991800	3.411300	-10.205000	25.909954	0.000669	20.950046
1716.434591	-2.997600	3.411800	-10.225000	25.921779	0.000667	20.954813
1717.437844	-3.004200	3.411600	-10.248000	25.921384	0.000666	20.931185
1718.431020	-2.999900	3.410900	-10.231000	25.908015	0.000668	20.955684
1719.437192	-3.000800	3.411700	-10.237000	25.915936	0.000665	20.956055
1720.435739	-3.003200	3.410800	-10.243000	25.950109	0.000666	20.944394
1721.434670	-2.986300	3.410000	-10.183000	25.939381	0.000665	20.953056
1722.437323	-2.996500	3.409400	-10.216000	25.955505	0.000665	20.965934
1723.437525	-3.014000	3.410100	-10.277000	25.946472	0.000664	20.962550
1724.437734	-3.011100	3.409400	-10.266000	25.943029	0.000665	20.956247
1725.437262	-3.027400	3.408300	-10.317000	25.940018	0.000662	20.955593
1726.438812	-3.022100	3.407600	-10.297000	25.901228	0.000663	20.966408
1727.443468	-2.999800	3.407900	-10.222000	25.872895	0.000661	20.948378
1728.439286	-2.982200	3.408200	-10.163000	25.870318	0.000660	20.953850
1729.445984	-3.002400	3.407800	-10.231000	25.872641	0.000660	20.977991
1730.438591	-2.991900	3.407800	-10.194000	25.871441	0.000660	20.965882
1731.442468	-2.992700	3.408200	-10.198000	25.850571	0.000661	20.971943
1732.442767	-2.982900	3.406300	-10.160000	25.891546	0.000663	20.959528
1733.445589	-2.993500	3.405700	-10.193000	25.924571	0.000660	20.965203
1734.441163	-2.999300	3.404900	-10.211000	25.929279	0.000659	20.963769
1735.441966	-3.015600	3.405100	-10.267000	25.952406	0.000657	20.959976
1736.440704	-3.007900	3.404800	-10.240000	25.957916	0.000658	20.968830
1737.442163	-3.010700	3.404900	-10.249000	25.975722	0.000657	20.981975
1738.444199	-3.013400	3.403700	-10.256000	26.001628	0.000657	20.958694
1739.441197	-3.002600	3.404000	-10.220000	26.002802	0.000658	20.982629
1740.443073	-2.997200	3.403500	-10.199000	26.018695	0.000658	20.990535
1741.440158	-2.980500	3.405000	-10.147000	26.011195	0.000656	20.967830
1742.441819	-3.018300	3.402700	-10.269000	25.981437	0.000656	20.982975
1743.444455	-3.014600	3.401700	-10.253000	25.952545	0.000655	20.980976
1744.445191	-2.980800	3.403600	-10.145000	25.934266	0.000654	20.983001
1745.448477	-2.972700	3.403400	-10.116000	25.904174	0.000656	20.977426
1746.445518	-2.979500	3.401600	-10.134000	25.924316	0.000653	20.992917
1747.446014	-2.987900	3.401700	-10.163000	25.919991	0.000654	20.997106
1748.443234	-2.994500	3.401700	-10.186000	25.890103	0.000653	20.983678
1749.449051	-3.017000	3.400500	-10.258000	25.890117	0.000654	21.009292
1750.444916	-2.996200	3.399600	-10.185000	25.897771	0.000654	20.996595
1751.448596	-3.003800	3.400300	-10.213000	25.913855	0.000652	20.971032
1752.448820	-3.021200	3.398900	-10.268000	25.928959	0.000650	20.996632
1753.449644	-3.003100	3.399800	-10.209000	25.937022	0.000653	21.007101
1754.454145	-2.992200	3.399300	-10.171000	25.936166	0.000652	21.009086
1755.445141	-3.003600	3.398600	-10.206000	25.939928	0.000651	20.983947
1756.448893	-2.978600	3.397300	-10.118000	25.969331	0.000651	20.994519
1757.444866	-3.000300	3.397600	-10.192000	25.961561	0.000650	21.003306
1758.448950	-3.002000	3.397700	-10.198000	25.954189	0.000648	20.982153
1759.450091	-3.021200	3.397100	-10.262000	25.925336	0.000647	20.978297
1760.453132	-2.991100	3.395300	-10.155000	25.924188	0.000649	21.004166
1761.448860	-3.006500	3.396400	-10.210000	25.847597	0.000647	21.002615
1762.447704	-2.998500	3.395900	-10.182000	25.869653	0.000646	20.974990
1763.449330	-2.980900	3.396700	-10.123000	25.883137	0.000648	20.995170
1764.455059	-2.986700	3.394800	-10.139000	25.903611	0.000648	20.990609
1765.452006	-2.999000	3.393800	-10.178000	25.896748	0.000646	20.982293
1766.455679	-2.990200	3.395400	-10.152000	25.897003	0.000646	20.989187
1767.454222	-3.017300	3.394800	-10.242000	25.924557	0.000644	20.977041
1768.449746	-3.000400	3.394600	-10.184000	25.936305	0.000646	20.963241
1769.450646	-2.986500	3.394000	-10.135000	25.948704	0.000645	20.989918
1770.451881	-2.996200	3.394100	-10.169000	25.957979	0.000643	20.986434
1771.447806	-2.997900	3.393700	-10.173000	25.965721	0.000643	20.984255
1772.454104	-2.998700	3.393600	-10.174000	25.953782	0.000642	20.976055
1773.450491	-3.007900	3.391800	-10.201000	25.987942	0.000643	20.959642
1774.450762	-3.028200	3.391900	-10.271000	26.001565	0.000639	20.953416
1775.448809	-2.983300	3.393000	-10.121000	25.996488	0.000641	20.963012
1776.457279	-3.021000	3.390600	-10.242000	25.994728	0.000641	20.947970
1777.452994	-2.976900	3.392300	-10.098000	26.000454	0.000640	20.947085
1778.452644	-2.993800	3.392100	-10.154000	25.960850	0.000640	20.966562
1779.452791	-2.992300	3.391600	-10.147000	25.946779	0.000638	20.975184
1780.454780	-2.986600	3.389700	-10.123000	25.901788	0.000639	20.955119
1781.454430	-2.988700	3.390400	-10.132000	25.895371	0.000639	20.944406
1782.453532	-3.009500	3.389900	-10.200000	25.875141	0.000640	20.956324
1783.454432	-3.000500	3.388400	-10.166000	25.867907	0.000636	20.974659
1784.452612	-3.007300	3.390000	-10.193000	25.867921	0.000635	20.953339
1785.455256	-2.991900	3.388200	-10.136000	25.895348	0.000635	20.940590
1786.458656	-2.996100	3.388300	-10.150000	25.925262	0.000639	20.955941
1787.457962	-3.011200	3.388200	-10.202000	25.928142	0.000635	20.944611
1788.457799	-3.007600	3.387500	-10.187000	25.945963	0.000636	20.932170
1789.457669	-3.003000	3.387600	-10.172000	25.936257	0.000636	20.951814
1790.458666	-2.986500	3.387000	-10.113000	25.935057	0.000634	20.972891
1791.460248	-3.000300	3.387600	-10.163000	25.939993	0.000635	20.937551
1792.460870	-2.992900	3.388100	-10.139000	26.003593	0.000632	20.942652
1793.460459	-2.988100	3.386800	-10.119000	26.018197	0.000633	20.950212
1794.462949	-2.976000	3.386400	-10.076000	26.040824	0.000632	20.944971
1795.462172	-2.971100	3.386500	-10.061000	26.051971	0.000633	20.938154
1796.461665	-2.968500	3.386500	-10.051000	26.058680	0.000632	20.938257
1797.461994	-2.982900	3.385000	-10.096000	26.060147	0.000631	20.953953
1798.462058	-2.980300	3.386500	-10.092000	26.061563	0.000632	20.933093
1799.462652	-2.999700	3.384300	-10.150000	26.064611	0.000632	20.938525
1800.457985	-3.023900	3.383100	-10.229000	26.037356	0.000630	20.947176
1801.459766	-2.997700	3.384500	-10.143000	26.044332	0.000630	20.933324
1802.462358	-2.995200	3.384500	-10.136000	26.024574	0.000629	20.924853
1803.464796	-2.978600	3.383100	-10.076000	26.024014	0.000628	20.934247
1804.458157	-3.011100	3.382100	-10.183000	26.069227	0.000628	20.941741
1805.459160	-3.021500	3.382000	-10.218000	26.082199	0.000628	20.913052
1806.461786	-2.976700	3.383300	-10.069000	26.102326	0.000627	20.911938
1807.462795	-3.002000	3.382000	-10.152000	26.094469	0.000626	20.927275
1808.462686	-2.996400	3.382600	-10.135000	26.097249	0.000626	20.925802
1809.463633	-2.996300	3.381700	-10.132000	26.069967	0.000627	20.925890
1810.462477	-2.984100	3.381700	-10.091000	26.065503	0.000627	20.920932
1811.463399	-3.020800	3.381000	-10.212000	26.096737	0.000626	20.934770
1812.464513	-3.005000	3.380000	-10.155000	26.128508	0.000625	20.934924
1813.465945	-3.002900	3.379900	-10.149000	26.092655	0.000625	20.937780
1814.462759	-2.988100	3.379600	-10.098000	26.094685	0.000624	20.922752
1815.467167	-3.000200	3.378200	-10.134000	26.086700	0.000623	20.925634
1816.463176	-2.993100	3.378900	-10.112000	26.063997	0.000623	20.923212
1817.464380	-3.013600	3.377800	-10.178000	26.047557	0.000623	20.912858
1818.463949	-3.001900	3.379600	-10.144000	26.018846	0.000623	20.939959
1819.463759	-3.004500	3.377500	-10.147000	26.026473	0.000622	20.921546
1820.464954	-2.995000	3.377500	-10.115000	26.024700	0.000622	20.938254
1821.462749	-3.004000	3.378100	-10.147000	26.049368	0.000620	20.917997
1822.462736	-3.013600	3.375300	-10.171000	26.068409	0.000622	20.908206
1823.463739	-2.986300	3.376800	-10.084000	26.082285	0.000620	20.900338
1824.478738	-2.983100	3.376300	-10.071000	26.107310	0.000618	20.915049
1825.463977	-3.013000	3.374700	-10.167000	26.096035	0.000619	20.908463
1826.462799	-2.980300	3.376400	-10.061000	26.044495	0.000618	20.903619
1827.463817	-2.993800	3.375200	-10.103000	26.032671	0.000619	20.906438
1828.468931	-3.012400	3.374700	-10.164000	26.023054	0.000616	20.908155
1829.467932	-3.015600	3.374600	-10.175000	26.008373	0.000617	20.921378
1830.465083	-3.012200	3.374900	-10.165000	26.023321	0.000617	20.908423
1831.469015	-3.019000	3.374000	-10.185000	26.024725	0.000617	20.918842
1832.464956	-3.021200	3.372300	-10.188000	26.014954	0.000616	20.914715
1833.466958	-3.003600	3.373600	-10.132000	26.015389	0.000617	20.901877
1834.468955	-3.008500	3.373200	-10.147000	25.994086	0.000616	20.903234
1835.467459	-2.993700	3.373100	-10.096000	26.022875	0.000616	20.912716
1836.468459	-2.991000	3.372100	-10.086000	26.019341	0.000614	20.915804
1837.467968	-2.997400	3.373100	-10.110000	26.049698	0.000614	20.922121
1838.474465	-3.017700	3.371600	-10.174000	26.068804	0.000613	20.907181
1839.471605	-2.997900	3.373600	-10.113000	26.120739	0.000613	20.913844
1840.471605	-3.006300	3.371000	-10.133000	26.136616	0.000612	20.895186
1841.468198	-2.999200	3.371500	-10.110000	26.113468	0.000611	20.888048
1842.472267	-3.000800	3.369900	-10.111000	26.124449	0.000612	20.907141
1843.477761	-3.016400	3.370300	-10.165000	26.100127	0.000611	20.889342
1844.468845	-3.027900	3.369500	-10.201000	26.110164	0.000610	20.915073
1845.470895	-3.005500	3.371200	-10.130000	26.097130	0.000611	20.926157
1846.470054	-2.990300	3.371000	-10.079000	26.089796	0.000609	20.905513
1847.470055	-3.004900	3.368100	-10.120000	26.142864	0.000608	20.904782
1848.468053	-2.981600	3.369200	-10.045000	26.145198	0.000607	20.912342
1849.470055	-3.003100	3.368700	-10.116000	26.138503	0.000610	20.896608
1850.471056	-3.006800	3.368900	-10.129000	26.132139	0.000608	20.895903
1851.478537	-2.991400	3.368800	-10.076000	26.108749	0.000608	20.912702
1852.472158	-2.983700	3.368700	-10.050000	26.077794	0.000606	20.902463
1853.472687	-2.999900	3.366600	-10.099000	26.056200	0.000605	20.907793
1854.471351	-3.022900	3.366900	-10.177000	26.045230	0.000606	20.902461
1855.470688	-3.005000	3.367600	-10.118000	26.047717	0.000605	20.900219
1856.475685	-2.989900	3.367200	-10.066000	26.045474	0.000607	20.876630
1857.472535	-3.011100	3.366600	-10.137000	26.043177	0.000603	20.900873
1858.476981	-3.019100	3.364300	-10.156000	26.082780	0.000604	20.894198
1859.475584	-2.989200	3.364500	-10.056000	26.071415	0.000603	20.897003
1860.473720	-3.007700	3.364900	-10.120000	26.094055	0.000603	20.892250
1861.479723	-3.010100	3.363700	-10.124000	26.131716	0.000602	20.893581
1862.473168	-2.992800	3.365400	-10.071000	26.154022	0.000603	20.886598
1863.478918	-3.015600	3.365000	-10.146000	26.164938	0.000603	20.896617
1864.473850	-3.013000	3.364200	-10.135000	26.175677	0.000601	20.883702
1865.474785	-3.005500	3.364400	-10.111000	26.169810	0.000603	20.897720
1866.477063	-2.999200	3.362900	-10.085000	26.177652	0.000601	20.887584
1867.475223	-2.999300	3.363400	-10.086000	26.168738	0.000601	20.897117
1868.476246	-3.003600	3.362300	-10.098000	26.175523	0.000599	20.882125
1869.478627	-2.988000	3.361900	-10.044000	26.198593	0.000597	20.897720
1870.476454	-2.986200	3.363500	-10.043000	26.200543	0.000599	20.879292
1871.481834	-2.991800	3.362900	-10.061000	26.237066	0.000600	20.901767
1872.478010	-3.047200	3.360300	-10.238000	26.217288	0.000596	20.893747
1873.477815	-2.975900	3.361700	-10.002000	26.164426	0.000596	20.894207
1874.476500	-3.014800	3.361400	-10.132000	26.120542	0.000596	20.889940
1875.477629	-2.978300	3.360400	-10.008000	26.087242	0.000596	20.878293
1876.477498	-3.002800	3.359600	-10.088000	26.072166	0.000597	20.884008
1877.478693	-2.982900	3.361100	-10.025000	26.027666	0.000595	20.892876
1878.477090	-2.986300	3.360500	-10.035000	25.997627	0.000595	20.886878
1879.478365	-2.990700	3.360400	-10.048000	25.991134	0.000594	20.873243
1880.478921	-2.974500	3.361200	-9.996400	25.983583	0.000593	20.881303
1881.479858	-3.013400	3.358100	-10.118000	26.008698	0.000592	20.884725
1882.481872	-3.001300	3.359500	-10.082000	25.984006	0.000592	20.894529
1883.479874	-2.999400	3.358400	-10.073000	25.964782	0.000591	20.892285
1884.480233	-2.995300	3.359200	-10.062000	25.910161	0.000591	20.875819
1885.481457	-2.997000	3.359200	-10.067000	25.914179	0.000592	20.885545
1886.483047	-3.028400	3.356600	-10.163000	25.947956	0.000588	20.907623
1887.482947	-3.006800	3.358300	-10.097000	25.954831	0.000590	20.873755
1888.483624	-2.987700	3.357600	-10.031000	25.986452	0.000589	20.877548
1889.491317	-2.989300	3.357900	-10.036000	25.997434	0.000589	20.881943
1890.483522	-3.002700	3.356700	-10.078000	26.036159	0.000590	20.879598
1891.484360	-2.979800	3.356300	-9.999900	26.074626	0.000587	20.895013
1892.483285	-2.985100	3.356200	-10.017000	26.107761	0.000587	20.887530
1893.490586	-3.005600	3.354700	-10.082000	26.135410	0.000587	20.873587
1894.483881	-2.983900	3.355700	-10.011000	26.169117	0.000586	20.880430
1895.485240	-3.004800	3.355600	-10.081000	26.159106	0.000586	20.883172
1896.485566	-3.006100	3.354600	-10.084000	26.095643	0.000585	20.886260
1897.503461	-2.999000	3.353700	-10.057000	26.065811	0.000584	20.881416
1898.485283	-2.986900	3.354800	-10.020000	26.066754	0.000585	20.889476
1899.488570	-2.992900	3.352900	-10.034000	26.071536	0.000583	20.875789
1900.485348	-2.997200	3.351800	-10.045000	26.072429	0.000585	20.894229
1901.492385	-3.018400	3.351500	-10.115000	26.070069	0.000584	20.901814
1902.491306	-2.969600	3.352500	-9.953900	26.082760	0.000583	20.875687
1903.486667	-3.010500	3.351200	-10.088000	26.077006	0.000581	20.874173
1904.487476	-2.983300	3.352700	-10.002000	26.060694	0.000580	20.890973
1905.499228	-3.006500	3.350800	-10.073000	26.076841	0.000581	20.876378
1906.500446	-3.015700	3.349900	-10.101000	26.069163	0.000581	20.883361
1907.488134	-2.998800	3.350500	-10.046000	26.064686	0.000581	20.872225
1908.492785	-2.992000	3.350700	-10.023000	26.085387	0.000580	20.880222
1909.488268	-2.994200	3.350900	-10.032000	26.072452	0.000578	20.879080
1910.489382	-3.005100	3.348300	-10.061000	26.103712	0.000580	20.843161
1911.489375	-3.025800	3.347700	-10.128000	26.069442	0.000579	20.866099
1912.491076	-2.996500	3.349800	-10.036000	26.088597	0.000577	20.882026
1913.493411	-2.984200	3.348100	-9.990800	26.065960	0.000577	20.878721
1914.492850	-2.976500	3.350200	-9.970700	26.073331	0.000578	20.870955
1915.493465	-2.995100	3.348100	-10.027000	26.069823	0.000577	20.903463
1916.493257	-2.993600	3.347300	-10.020000	26.096978	0.000575	20.862946
1917.492601	-3.016100	3.346500	-10.091000	26.090715	0.000575	20.850964
1918.492061	-3.010400	3.347300	-10.076000	26.131591	0.000575	20.844147
1919.489648	-2.998500	3.347500	-10.037000	26.170884	0.000576	20.860870
1920.489240	-2.998400	3.346100	-10.031000	26.185282	0.000573	20.857320
1921.489159	-2.995000	3.348300	-10.028000	26.200088	0.000574	20.861767
1922.489017	-2.994800	3.345900	-10.020000	26.187897	0.000571	20.859947
1923.489258	-2.992800	3.346400	-10.014000	26.202803	0.000574	20.865443
1924.490667	-3.033400	3.344900	-10.146000	26.142342	0.000574	20.872018
1925.490268	-3.032400	3.344200	-10.139000	26.092028	0.000573	20.879783
1926.490545	-3.013000	3.343600	-10.074000	26.092168	0.000571	20.867122
1927.489543	-3.016200	3.343000	-10.083000	26.099935	0.000571	20.867340
1928.490723	-2.995200	3.343500	-10.013000	26.063268	0.000571	20.878387
1929.497726	-3.009300	3.343300	-10.060000	26.105253	0.000570	20.872209
1930.490993	-3.007300	3.341800	-10.048000	26.123606	0.000572	20.843710
1931.493353	-3.006600	3.343500	-10.052000	26.143744	0.000568	20.879116
1932.496351	-2.975100	3.343900	-9.947400	26.107601	0.000568	20.856551
1933.491354	-2.987500	3.342800	-9.985600	26.140787	0.000569	20.876619
1934.495353	-3.019600	3.340500	-10.085000	26.161612	0.000567	20.864829
1935.502354	-2.995600	3.341500	-10.009000	26.188227	0.000566	20.867865
1936.509355	-2.990100	3.342100	-9.991900	26.210239	0.000565	20.858217
1937.493354	-3.009200	3.340300	-10.051000	26.215518	0.000565	20.869685
1938.494170	-2.992100	3.341200	-9.996500	26.223667	0.000565	20.871709
1939.494484	-3.002400	3.340400	-10.029000	26.248291	0.000566	20.855204
1940.522486	-3.013300	3.340000	-10.064000	26.276500	0.000564	20.867431
1941.498424	-3.013700	3.339300	-10.062000	26.296189	0.000563	20.858294
1942.500329	-3.008500	3.339400	-10.046000	26.306529	0.000565	20.829806
1943.506160	-2.998900	3.338900	-10.012000	26.315187	0.000563	20.847989
1944.496597	-2.995300	3.338700	-9.998600	26.337961	0.000562	20.851436
1945.528988	-3.006500	3.339100	-10.038000	26.380001	0.000563	20.850065
1946.508950	-2.982900	3.338000	-9.955400	26.346427	0.000562	20.852833
1947.496661	-2.976600	3.338500	-9.935800	26.287541	0.000561	20.841543
1948.496105	-3.006600	3.338000	-10.035000	26.237732	0.000560	20.845541
1949.495861	-2.975400	3.338600	-9.932100	26.206832	0.000559	20.835828
1950.500863	-3.003100	3.336800	-10.019000	26.183608	0.000562	20.851371
1951.498919	-3.001100	3.336100	-10.011000	26.170613	0.000559	20.853011
1952.499726	-2.983100	3.337700	-9.955200	26.162451	0.000559	20.857138
1953.498944	-3.028900	3.335300	-10.100000	26.179004	0.000559	20.846744
1954.503561	-2.989700	3.337000	-9.974600	26.134278	0.000558	20.844951
1955.509243	-2.981500	3.336300	-9.945500	26.160868	0.000558	20.850806
1956.512708	-3.012500	3.334600	-10.044000	26.135910	0.000557	20.854176
1957.503665	-2.994300	3.336200	-9.988800	26.160294	0.000557	20.841221
1958.502665	-3.006400	3.333600	-10.021000	26.129443	0.000559	20.881816
1959.500867	-2.999800	3.335200	-10.004000	26.107992	0.000555	20.849358
1960.503060	-2.993700	3.335100	-9.983500	26.070659	0.000555	20.835081
1961.501655	-2.985400	3.333300	-9.950100	26.042369	0.000554	20.847908
1962.502772	-2.981900	3.333500	-9.939500	26.080978	0.000555	20.847819
1963.503775	-2.996700	3.334100	-9.990200	26.106702	0.000554	20.838105
1964.503778	-3.011200	3.332700	-10.034000	26.133179	0.000553	20.846691
1965.503073	-2.978200	3.332400	-9.923700	26.188107	0.000551	20.835503
1966.511582	-3.006000	3.331700	-10.015000	26.233276	0.000551	20.829685
1967.502884	-2.995900	3.332000	-9.981500	26.278151	0.000553	20.833056
1968.504886	-2.996900	3.331800	-9.984600	26.301003	0.000552	20.849382
1969.512885	-3.010000	3.331000	-10.025000	26.314416	0.000549	20.840576
1970.505197	-2.997100	3.330500	-9.981400	26.342698	0.000549	20.826327
1971.505197	-3.009100	3.329400	-10.017000	26.345134	0.000550	20.837783
1972.507608	-2.985300	3.330400	-9.941300	26.365281	0.000550	20.836220
1973.510078	-3.015900	3.328700	-10.038000	26.347021	0.000549	20.817869
1974.512259	-2.995700	3.329000	-9.971600	26.341371	0.000547	20.838269
1975.511178	-2.996300	3.329600	-9.976000	26.318929	0.000548	20.834207
1976.507886	-2.994400	3.329300	-9.968800	26.308166	0.000549	20.829081
1977.513885	-3.010300	3.329000	-10.020000	26.330341	0.000547	20.826236
1978.506481	-3.004300	3.327300	-9.995700	26.317793	0.000545	20.831643
1979.514478	-2.973800	3.327300	-9.893600	26.269438	0.000547	20.847058
1980.507481	-2.990200	3.328300	-9.951600	26.286463	0.000543	20.847098
1981.507481	-2.991000	3.326800	-9.949600	26.256813	0.000545	20.818724
1982.509556	-3.003100	3.327000	-9.990200	26.275955	0.000544	20.833694
1983.507768	-3.023100	3.324900	-10.050000	26.256125	0.000543	20.835102
1984.514660	-2.998300	3.326200	-9.972300	26.231933	0.000545	20.837344
1985.507894	-2.992000	3.326200	-9.951000	26.212957	0.000543	20.823017
1986.511692	-2.999600	3.325400	-9.973300	26.171613	0.000543	20.828413
1987.511396	-3.004800	3.325400	-9.991400	26.168361	0.000541	20.810447
1988.513231	-2.991600	3.325600	-9.948000	26.153426	0.000542	20.814880
1989.511134	-3.017200	3.323900	-10.028000	26.134182	0.000541	20.839164
1990.513453	-2.996900	3.324200	-9.961400	26.138747	0.000543	20.828579
1991.522215	-2.975800	3.324500	-9.892100	26.161448	0.000541	20.823414
1992.511928	-3.021500	3.322800	-10.039000	26.164496	0.000541	20.836434
1993.518334	-2.990400	3.323300	-9.936000	26.123417	0.000539	20.790890
1994.513359	-2.979500	3.323100	-9.899900	26.138122	0.000538	20.814200
1995.514798	-2.990800	3.323700	-9.939700	26.185678	0.000537	20.797976
1996.514418	-3.007600	3.322400	-9.990400	26.188777	0.000537	20.814366
1997.516660	-2.981600	3.323000	-9.905800	26.186176	0.000535	20.815071
1998.522006	-2.998600	3.322500	-9.962400	26.206580	0.000536	20.818505
1999.517523	-3.026600	3.320600	-10.049000	26.193265	0.000534	20.814135
2000.519298	-3.016400	3.320600	-10.014000	26.209615	0.000535	20.818236
2001.517262	-2.989900	3.320900	-9.928000	26.232315	0.000536	20.806434
2002.518447	-3.002500	3.320500	-9.969200	26.246635	0.000533	20.811342
2003.518154	-3.001100	3.319500	-9.961200	26.279191	0.000534	20.828411
2004.519642	-3.009300	3.318400	-9.985300	26.285120	0.000533	20.803550
2005.519042	-3.004000	3.319900	-9.971500	26.293027	0.000533	20.829039
2006.521079	-2.997500	3.320200	-9.951500	26.307665	0.000533	20.793964
2007.518939	-3.011100	3.318700	-9.990800	26.337479	0.000532	20.803538
2008.519935	-3.000100	3.318600	-9.955400	26.340921	0.000530	20.807471
2009.522611	-3.018600	3.317700	-10.013000	26.326997	0.000529	20.807228
2010.519676	-2.983100	3.317700	-9.897000	26.322992	0.000528	20.794195
2011.519776	-3.021500	3.317500	-10.022000	26.325084	0.000530	20.791556
2012.515804	-2.998000	3.317800	-9.945800	26.324357	0.000530	20.803627
2013.520411	-2.993300	3.316700	-9.926600	26.344223	0.000529	20.813635
2014.525063	-2.993500	3.316600	-9.927500	26.342731	0.000528	20.827308
2015.520813	-2.977500	3.317400	-9.877300	26.335273	0.000527	20.797054
2016.520454	-3.002900	3.315900	-9.956400	26.365709	0.000525	20.791133
2017.520715	-2.975400	3.315500	-9.863200	26.370262	0.000524	20.808985
2018.521762	-2.982200	3.316600	-9.889900	26.388635	0.000526	20.791889
2019.525501	-2.993600	3.314800	-9.922500	26.416597	0.000526	20.794863
2020.522797	-3.014000	3.313900	-9.987300	26.420434	0.000523	20.782124
2021.520446	-2.990600	3.315200	-9.913800	26.448523	0.000524	20.791390
2022.521470	-3.024100	3.313200	-10.018000	26.407251	0.000523	20.805383
2023.521969	-3.023100	3.312400	-10.012000	26.372811	0.000525	20.799219
2024.526949	-2.989000	3.313400	-9.903300	26.394118	0.000522	20.820633
2025.525991	-2.995800	3.312900	-9.923600	26.405937	0.000520	20.822555
2026.522462	-3.034300	3.312200	-10.049000	26.415844	0.000521	20.784623
2027.525898	-3.017000	3.311000	-9.988000	26.406179	0.000520	20.787237
2028.526258	-3.003900	3.311600	-9.945900	26.346201	0.000520	20.796657
2029.528243	-2.988500	3.312000	-9.896900	26.326934	0.000519	20.801001
2030.524905	-2.999200	3.311400	-9.930000	26.320928	0.000519	20.821518
2031.536544	-3.001000	3.312000	-9.936700	26.360457	0.000520	20.813355
2032.528149	-2.993600	3.309900	-9.907500	26.343740	0.000519	20.815046
2033.527298	-2.998200	3.309800	-9.923200	26.345857	0.000519	20.801052
2034.528368	-2.962200	3.310500	-9.805100	26.349887	0.000517	20.798939
2035.530639	-3.028600	3.309800	-10.023000	26.350014	0.000518	20.800489
2036.526342	-3.014300	3.309000	-9.972700	26.314630	0.000517	20.807128
2037.530056	-2.980100	3.309900	-9.862400	26.289547	0.000515	20.811318
2038.529745	-3.017500	3.309300	-9.984600	26.267971	0.000517	20.812395
2039.526962	-3.000400	3.308800	-9.927100	26.219679	0.000515	20.811755
2040.531311	-3.007300	3.308000	-9.947000	26.210842	0.000512	20.808090
2041.531712	-2.998600	3.307300	-9.916500	26.249149	0.000513	20.798221
2042.530341	-3.001900	3.308000	-9.929300	26.260780	0.000514	20.804219
2043.531742	-3.017600	3.305900	-9.975000	26.296155	0.000513	20.822699
2044.531814	-3.016400	3.307900	-9.976700	26.296664	0.000512	20.817995
2045.527054	-3.016700	3.306000	-9.971100	26.349454	0.000513	20.818892
2046.530347	-3.005700	3.305300	-9.932500	26.383627	0.000513	20.794916
2047.531443	-3.001700	3.306900	-9.924900	26.387745	0.000510	20.794788
2048.533992	-2.999200	3.304200	-9.909300	26.403581	0.000512	20.807859
2049.533689	-3.019400	3.304900	-9.978300	26.391405	0.000509	20.798466
2050.533806	-2.999400	3.305700	-9.912900	26.375990	0.000510	20.820431
2051.534797	-3.008600	3.304500	-9.941700	26.351560	0.000507	20.824801
2052.530731	-2.995400	3.304800	-9.898200	26.311241	0.000508	20.821265
2053.535771	-3.008500	3.303500	-9.936600	26.254112	0.000507	20.820277
2054.532499	-2.987900	3.303200	-9.868800	26.257224	0.000509	20.812974
2055.530148	-2.985100	3.304100	-9.862100	26.253398	0.000506	20.798224
2056.533126	-3.004800	3.303000	-9.923400	26.288517	0.000505	20.811705
2057.529775	-2.998700	3.303300	-9.904700	26.292891	0.000507	20.811834
2058.533347	-2.991000	3.302500	-9.876700	26.303653	0.000505	20.826441
2059.534519	-3.011500	3.301800	-9.941800	26.301447	0.000506	20.810474
2060.533494	-3.018400	3.300400	-9.961000	26.348397	0.000504	20.810717
2061.532190	-2.999800	3.301400	-9.902100	26.358406	0.000504	20.806553
2062.537004	-3.004200	3.299900	-9.912100	26.349354	0.000502	20.819740
2063.536713	-3.032000	3.298400	-9.999800	26.345603	0.000506	20.818815
2064.535279	-3.019800	3.299600	-9.962800	26.283709	0.000502	20.814933
2065.538104	-2.979200	3.301100	-9.833000	26.282319	0.000502	20.804054
2066.535679	-3.011100	3.299700	-9.934900	26.240900	0.000501	20.823596
2067.536482	-2.988200	3.299700	-9.858900	26.202935	0.000501	20.820532
2068.535328	-3.007900	3.299800	-9.924500	26.216058	0.000499	20.811434
2069.536625	-3.003500	3.298900	-9.907300	26.249047	0.000499	20.805705
2070.531932	-3.004400	3.298000	-9.906900	26.251318	0.000500	20.808461
2071.534382	-3.016900	3.297400	-9.947300	26.308266	0.000498	20.813060
2072.538343	-3.019500	3.296700	-9.953300	26.337225	0.000499	20.836947
2073.535437	-3.019700	3.296900	-9.954500	26.369025	0.000497	20.811535
2074.536181	-2.994200	3.297300	-9.871900	26.376562	0.000497	20.809153
2075.535210	-3.014100	3.296100	-9.934000	26.357040	0.000496	20.819404
2076.536010	-2.993500	3.296500	-9.866200	26.354400	0.000495	20.825285
2077.535164	-3.013200	3.295600	-9.928800	26.349606	0.000494	20.805294
2078.539426	-3.021400	3.295700	-9.957700	26.372404	0.000496	20.823466
2079.534097	-3.006200	3.293900	-9.901200	26.417260	0.000494	20.815443
2080.536919	-2.993800	3.294600	-9.862300	26.417234	0.000492	20.810676
2081.537435	-2.982900	3.296100	-9.830700	26.399282	0.000493	20.819659
2082.535308	-2.978900	3.294000	-9.810900	26.425075	0.000493	20.815712
2083.539576	-3.015400	3.293300	-9.928400	26.457702	0.000494	20.817685
2084.537696	-3.030800	3.292700	-9.977800	26.478777	0.000491	20.827488
2085.540881	-3.008900	3.294200	-9.910800	26.496040	0.000491	20.823977
2086.540863	-3.009200	3.291800	-9.903800	26.540598	0.000489	20.817083
2087.538128	-3.012200	3.291900	-9.915000	26.583968	0.000491	20.830333
2088.536737	-3.018000	3.292500	-9.935800	26.590062	0.000489	20.814175
2089.537335	-2.998000	3.291500	-9.865100	26.610382	0.000490	20.822747
2090.539870	-2.975400	3.293200	-9.798000	26.595951	0.000488	20.811559
2091.539219	-2.998800	3.291600	-9.869200	26.637827	0.000487	20.839430
2092.540174	-2.987400	3.291100	-9.831200	26.597161	0.000485	20.813724
2093.540319	-2.999000	3.291200	-9.868400	26.541260	0.000487	20.839559
2094.544270	-2.991900	3.289700	-9.842100	26.492954	0.000487	20.831307
2095.540308	-2.977400	3.290500	-9.796300	26.495211	0.000483	20.836420
2096.543770	-2.994800	3.288500	-9.847600	26.476151	0.000484	20.837650
2097.540962	-3.025000	3.288400	-9.946200	26.455776	0.000485	20.832818
2098.537909	-2.968800	3.289800	-9.764600	26.451263	0.000483	20.825437
2099.544193	-3.017000	3.287800	-9.918400	26.457981	0.000482	20.835983
2100.542814	-3.013300	3.286600	-9.901600	26.452576	0.000481	20.812533
2101.541192	-3.010700	3.287700	-9.897700	26.480957	0.000480	20.805498
2102.542072	-3.003100	3.288000	-9.873200	26.481468	0.000479	20.844417
2103.542406	-3.001200	3.285900	-9.860400	26.520072	0.000480	20.841495
2104.542599	-3.004700	3.287700	-9.875700	26.531788	0.000479	20.857064
2105.545415	-3.009100	3.286000	-9.886900	26.567382	0.000480	20.832627
2106.538608	-2.984400	3.287000	-9.808400	26.611860	0.000478	20.845569
2107.545722	-3.009100	3.283800	-9.880400	26.548324	0.000481	20.819633
2108.543432	-3.005800	3.286200	-9.876400	26.547750	0.000478	20.839918
2109.541451	-3.006300	3.283600	-9.870400	26.509681	0.000478	20.831050
2110.549344	-2.988400	3.284800	-9.814200	26.511912	0.000476	20.836137
2111.544923	-3.000000	3.284400	-9.851600	26.519294	0.000477	20.852092
2112.546212	-3.022200	3.282900	-9.920900	26.528257	0.000476	20.839764
2113.545491	-2.996800	3.283300	-9.838600	26.562398	0.000474	20.833306
2114.543867	-3.023100	3.283200	-9.923700	26.580399	0.000475	20.866572
2115.546091	-2.991500	3.283800	-9.821300	26.595288	0.000474	20.843135
2116.544822	-3.029000	3.281700	-9.939800	26.623997	0.000475	20.840227
2117.548401	-2.979600	3.282900	-9.780700	26.619241	0.000474	20.832601
2118.545408	-2.995900	3.282300	-9.833200	26.629479	0.000472	20.847159
2119.544644	-2.982100	3.282000	-9.786100	26.612626	0.000471	20.858666
2120.546111	-2.998800	3.281800	-9.840300	26.592433	0.000471	20.834100
2121.546940	-2.988800	3.281800	-9.807400	26.574917	0.000471	20.862011
2122.545408	-2.994900	3.280600	-9.823700	26.609006	0.000470	20.845545
2123.545175	-2.978500	3.280100	-9.768900	26.575326	0.000471	20.841560
2124.546999	-2.953900	3.281600	-9.692400	26.561073	0.000469	20.848095
2125.553621	-3.010100	3.279500	-9.870000	26.560934	0.000468	20.855541
2126.550687	-3.002300	3.279500	-9.845400	26.578233	0.000468	20.848275
2127.549632	-2.979500	3.279100	-9.769100	26.593569	0.000466	20.858001
2128.547671	-2.994200	3.280000	-9.820100	26.606587	0.000464	20.863501
2129.548692	-3.004600	3.277700	-9.846500	26.639374	0.000464	20.857580
2130.547256	-3.013900	3.277700	-9.877000	26.654135	0.000465	20.872892
2131.546217	-2.995100	3.277500	-9.814400	26.666093	0.000464	20.845561
2132.545810	-2.996700	3.278100	-9.822000	26.715868	0.000464	20.851979
2133.547959	-2.999400	3.276900	-9.827700	26.714314	0.000463	20.870804
2134.554079	-3.006700	3.275800	-9.848100	26.695985	0.000463	20.831991
2135.548433	-2.990000	3.275600	-9.792200	26.710109	0.000461	20.869421
2136.549526	-2.990900	3.275900	-9.797300	26.701224	0.000462	20.850533
2137.549901	-2.997100	3.276200	-9.817600	26.724360	0.000462	20.848662
2138.550416	-3.029100	3.275000	-9.918200	26.726334	0.000460	20.860605
2139.553105	-2.997000	3.275700	-9.816100	26.711907	0.000459	20.866488
2140.550406	-2.995600	3.274200	-9.806600	26.689013	0.000458	20.874291
2141.547225	-3.014100	3.273200	-9.864200	26.674724	0.000457	20.867039
2142.555427	-2.994600	3.273900	-9.802600	26.694749	0.000458	20.874842
2143.552694	-3.001300	3.275000	-9.827900	26.730797	0.000459	20.887375
2144.559066	-3.009100	3.273800	-9.849400	26.728644	0.000455	20.885210
2145.553983	-3.012300	3.273300	-9.859400	26.715921	0.000455	20.874791
2146.550949	-3.006700	3.273400	-9.840800	26.674355	0.000456	20.874728
2147.557465	-2.984500	3.272800	-9.766800	26.689879	0.000456	20.875162
2148.558436	-2.987700	3.273000	-9.777700	26.677401	0.000454	20.846497
2149.553638	-3.005700	3.270700	-9.828300	26.714163	0.000455	20.874445
2150.551692	-3.012300	3.271800	-9.855300	26.708847	0.000454	20.873843
2151.554257	-2.990200	3.270700	-9.778900	26.705840	0.000452	20.866079
2152.557189	-3.004500	3.270800	-9.824400	26.646374	0.000451	20.880263
2153.558502	-2.994600	3.269400	-9.789900	26.669281	0.000451	20.865834
2154.556278	-3.004700	3.270900	-9.826800	26.670607	0.000450	20.868116
2155.557034	-2.992800	3.268300	-9.779600	26.691933	0.000449	20.890502
2156.558696	-2.997200	3.268400	-9.794700	26.678943	0.000449	20.882659
2157.554361	-2.988100	3.270200	-9.770600	26.680256	0.000448	20.870703
2158.561586	-3.015500	3.267100	-9.850900	26.682856	0.000450	20.861464
2159.554811	-2.998200	3.267000	-9.794000	26.645775	0.000446	20.891039
2160.559971	-2.987900	3.267000	-9.759400	26.639745	0.000446	20.882608
2161.555406	-2.985500	3.267300	-9.753400	26.661058	0.000447	20.883171
2162.556214	-2.994400	3.267500	-9.784200	26.689306	0.000446	20.900188
2163.571391	-2.986700	3.266600	-9.755300	26.678611	0.000445	20.889911
2164.558644	-2.995000	3.265000	-9.777100	26.668005	0.000445	20.892525
2165.558106	-3.008600	3.266100	-9.825300	26.662027	0.000445	20.901213
2166.559421	-3.009700	3.266500	-9.831000	26.609545	0.000443	20.913411
2167.556338	-3.021300	3.264700	-9.861800	26.586228	0.000440	20.896612
2168.555748	-2.986000	3.265300	-9.749700	26.557876	0.000441	20.873329
2169.561412	-3.002700	3.264500	-9.801700	26.551195	0.000442	20.885579
2170.559548	-2.996500	3.265100	-9.782800	26.567526	0.000440	20.882554
2171.563700	-3.011900	3.262800	-9.825900	26.597026	0.000438	20.897983
2172.559117	-2.978000	3.262500	-9.714600	26.607644	0.000441	20.888744
2173.568620	-2.991500	3.263300	-9.761200	26.648437	0.000437	20.874277
2174.563646	-3.028400	3.260000	-9.871100	26.652287	0.000438	20.888104
2175.556882	-2.994100	3.261500	-9.764500	26.608434	0.000437	20.901865
2176.562983	-3.002800	3.260500	-9.789200	26.599205	0.000437	20.890217
2177.559586	-3.021700	3.260800	-9.852400	26.624624	0.000437	20.897752
2178.560774	-3.004800	3.260200	-9.795300	26.612426	0.000437	20.895446
2179.565553	-2.966800	3.262200	-9.676800	26.631713	0.000435	20.904877
2180.562626	-2.978600	3.260000	-9.708500	26.643581	0.000434	20.890731
2181.566677	-3.015700	3.260300	-9.830700	26.667419	0.000431	20.905211
2182.563756	-3.014600	3.259200	-9.824900	26.678114	0.000432	20.886093
2183.563888	-2.977000	3.260000	-9.704500	26.716444	0.000432	20.904711
2184.561323	-3.012000	3.257300	-9.809400	26.721606	0.000430	20.903738
2185.566101	-3.006700	3.258500	-9.796300	26.767978	0.000428	20.908633
2186.561632	-3.029300	3.257300	-9.866100	26.743110	0.000429	20.906865
2187.565313	-2.996900	3.257600	-9.761200	26.746196	0.000431	20.925138
2188.566152	-3.011500	3.256600	-9.806700	26.745073	0.000429	20.922587
2189.565455	-3.007600	3.256400	-9.792600	26.784790	0.000427	20.927905
2190.569062	-2.987800	3.257200	-9.731000	26.773026	0.000426	20.904226
2191.565681	-3.011300	3.254500	-9.799100	26.776813	0.000428	20.929841
2192.568544	-3.008400	3.256400	-9.795000	26.790412	0.000425	20.912696
2193.564391	-2.996000	3.256700	-9.757100	26.748491	0.000425	20.920807
2194.569325	-3.002900	3.254900	-9.772100	26.738204	0.000425	20.923267
2195.576855	-3.025500	3.253900	-9.843800	26.711195	0.000425	20.931200
2196.570207	-3.001200	3.252900	-9.761600	26.695734	0.000425	20.918502
2197.571995	-2.975400	3.254700	-9.683000	26.674766	0.000423	20.903114
2198.569636	-3.004300	3.251700	-9.768700	26.685167	0.000423	20.923526
2199.569542	-2.992600	3.252500	-9.731800	26.689628	0.000425	20.921373
2200.570921	-2.988200	3.253400	-9.720700	26.759098	0.000423	20.914403
2201.573962	-3.003500	3.252500	-9.767800	26.792914	0.000419	20.928486
2202.566241	-2.997500	3.251300	-9.745100	26.834413	0.000418	20.938442
2203.569951	-2.977600	3.252800	-9.685300	26.865485	0.000419	20.917530
2204.570703	-2.989100	3.251300	-9.717200	26.850217	0.000419	20.929203
2205.570718	-2.989200	3.250000	-9.713400	26.803136	0.000420	20.936866
2206.573559	-3.001900	3.249400	-9.753800	26.771374	0.000417	20.945708
2207.569963	-3.012000	3.249900	-9.787000	26.772686	0.000417	20.923797
2208.579203	-2.990500	3.249500	-9.715900	26.766723	0.000416	20.926809
2209.570649	-3.003500	3.248900	-9.756200	26.778462	0.000416	20.933395
2210.571438	-2.987600	3.249800	-9.708000	26.790595	0.000414	20.941800
2211.569986	-3.002800	3.247100	-9.749100	26.800919	0.000414	20.930845
2212.573997	-3.004800	3.246700	-9.754100	26.779914	0.000414	20.928692
2213.572733	-3.000400	3.250400	-9.750300	26.820419	0.000411	20.932433
2214.572283	-2.996300	3.246400	-9.726200	26.855392	0.000412	20.934406
2215.572520	-2.995900	3.246900	-9.726200	26.907532	0.000410	20.951745
2216.571723	-3.010000	3.245400	-9.767600	26.953754	0.000411	20.943697
2217.575562	-3.000700	3.246300	-9.740200	26.978872	0.000411	20.941455
2218.574558	-3.008800	3.245400	-9.763000	27.008514	0.000411	20.927169
2219.575635	-3.004800	3.244600	-9.748000	27.010451	0.000407	20.941917
2220.575617	-2.983600	3.245500	-9.681200	27.023716	0.000410	20.933921
2221.574975	-3.019300	3.244200	-9.793600	27.012133	0.000406	20.941712
2222.579459	-3.001400	3.245000	-9.738600	27.030955	0.000409	20.925555
2223.574767	-3.007100	3.244400	-9.755500	27.051164	0.000406	20.945876
2224.579012	-3.030300	3.241300	-9.820200	27.067640	0.000408	20.953436
2225.576280	-2.991000	3.242000	-9.695700	27.091901	0.000407	20.949386
2226.575907	-3.038100	3.241300	-9.846800	27.122062	0.000404	20.950796
2227.582647	-2.992100	3.243200	-9.702400	27.132167	0.000407	20.943416
2228.573840	-2.995500	3.241300	-9.708700	27.115246	0.000403	20.945364
2229.578175	-3.003000	3.240900	-9.731100	27.113067	0.000404	20.943648
2230.580002	-2.999400	3.240000	-9.716700	27.096566	0.000401	20.958344
2231.575276	-3.029000	3.239500	-9.811600	27.105359	0.000402	20.961971
2232.581749	-2.992300	3.241400	-9.698400	27.121988	0.000402	20.953566
2233.583364	-3.030500	3.237700	-9.811100	27.136131	0.000400	20.962574
2234.579094	-3.012800	3.238500	-9.755000	27.174291	0.000399	20.953540
2235.581638	-2.996100	3.238800	-9.702800	27.167958	0.000400	20.937216
2236.579481	-3.028400	3.236100	-9.799300	27.197365	0.000399	20.958730
2237.576422	-3.022900	3.237600	-9.786000	27.228836	0.000398	20.944867
2238.580405	-3.027900	3.236700	-9.799600	27.208781	0.000399	20.956462
2239.583323	-3.009800	3.235700	-9.738000	27.228185	0.000397	20.967443
2240.578366	-2.986900	3.236000	-9.664700	27.228415	0.000395	20.985215
2241.581498	-2.993600	3.235600	-9.685200	27.253717	0.000396	20.990276
2242.582880	-2.985400	3.237600	-9.663400	27.261401	0.000395	20.964818
2243.581512	-2.984200	3.236600	-9.655500	27.243642	0.000392	20.975876
2244.586716	-2.995000	3.234200	-9.684100	27.272459	0.000395	20.973569
2245.584051	-2.989100	3.235100	-9.669200	27.257196	0.000393	20.969122
2246.581239	-2.998200	3.234000	-9.695300	27.262841	0.000393	20.984755
2247.580626	-3.003500	3.232300	-9.708000	27.279376	0.000391	20.975785
2248.582919	-3.000100	3.234000	-9.701300	27.288625	0.000391	20.976079
2249.582110	-2.992500	3.231700	-9.669400	27.282753	0.000390	20.974440
2250.584164	-3.001900	3.231300	-9.699600	27.308053	0.000391	20.994197
2251.588533	-2.996800	3.231600	-9.683200	27.287274	0.000389	20.975668
2252.586602	-3.005300	3.231100	-9.709800	27.270559	0.000388	20.981614
2253.584554	-2.993000	3.231100	-9.668800	27.263909	0.000387	20.984407
2254.587571	-3.036000	3.229300	-9.802900	27.218681	0.000385	20.972581
2255.585989	-3.010000	3.230200	-9.721000	27.179758	0.000387	20.979424
2256.588705	-2.991200	3.229300	-9.659200	27.167004	0.000385	20.982716
2257.586540	-2.985300	3.229100	-9.639400	27.159805	0.000385	20.975477
2258.581686	-2.999100	3.228400	-9.681100	27.140107	0.000383	20.969416
2259.590256	-3.005000	3.228300	-9.699300	27.114101	0.000384	20.998732
2260.588996	-3.007600	3.227300	-9.705100	27.113769	0.000383	21.005509
2261.585273	-2.998000	3.227900	-9.676100	27.084729	0.000383	20.965878
2262.587955	-3.001800	3.227300	-9.685800	27.061564	0.000383	20.998053
2263.583835	-3.015200	3.226100	-9.725900	27.080767	0.000383	20.982280
2264.585379	-3.001500	3.227600	-9.686500	27.107844	0.000381	20.982485
2265.588246	-3.032300	3.226000	-9.779500	27.175998	0.000381	20.984176
2266.586709	-3.017000	3.225900	-9.731500	27.190433	0.000379	20.953181
2267.586181	-3.020700	3.226500	-9.744900	27.222197	0.000377	20.979435
2268.597714	-2.986500	3.224700	-9.628500	27.228388	0.000379	20.973809
2269.586374	-2.972700	3.225400	-9.587100	27.192370	0.000378	20.953232
2270.585416	-2.978300	3.223800	-9.600300	27.174953	0.000375	20.961317
2271.589073	-3.006700	3.222800	-9.689000	27.137531	0.000376	20.968723
2272.582958	-2.991300	3.222900	-9.639900	27.098694	0.000378	20.963802
2273.585473	-2.998000	3.221800	-9.658200	27.108404	0.000374	20.960292
2274.583954	-2.989100	3.222400	-9.631100	27.054975	0.000375	20.951130
2275.585010	-2.996100	3.221400	-9.651200	27.015663	0.000374	20.947158
2276.591280	-2.993100	3.220200	-9.636600	26.975662	0.000375	20.957665
2277.585215	-2.999000	3.220200	-9.655700	26.975636	0.000374	20.941994
2278.587603	-3.013000	3.220800	-9.703000	27.002779	0.000373	20.967864
2279.586050	-2.987400	3.221600	-9.623100	27.044143	0.000372	20.948772
2280.585578	-3.023000	3.218800	-9.729800	27.047264	0.000372	20.945747
2281.587615	-2.968800	3.219800	-9.557000	27.032980	0.000371	20.936599
2282.587436	-2.990700	3.220100	-9.629500	27.049190	0.000370	20.955743
2283.584835	-3.006600	3.217100	-9.671100	27.078052	0.000372	20.926926
2284.586987	-2.993100	3.219200	-9.635200	27.096743	0.000368	20.939558
2285.583731	-3.015300	3.217500	-9.699700	27.097305	0.000367	20.939649
2286.587187	-3.013000	3.215200	-9.686200	27.092971	0.000367	20.959470
2287.590900	-2.977600	3.216700	-9.576600	27.140613	0.000368	20.941480
2288.588727	-3.003600	3.215600	-9.656900	27.152348	0.000368	20.912983
2289.584186	-3.020800	3.214300	-9.709100	27.146296	0.000366	20.947195
2290.589476	-3.022900	3.213900	-9.714200	27.170618	0.000367	20.937520
2291.589015	-3.010600	3.213600	-9.673000	27.181679	0.000367	20.944376
2292.592544	-3.012400	3.212300	-9.674800	27.198190	0.000365	20.932062
2293.591983	-3.008100	3.213500	-9.665400	27.230220	0.000367	20.929666
2294.589546	-2.978600	3.213100	-9.568600	27.240017	0.000365	20.934304
2295.590547	-3.004700	3.211800	-9.649900	27.218997	0.000364	20.932127
2296.588833	-2.992600	3.211500	-9.609700	27.190928	0.000364	20.925707
2297.595849	-3.010000	3.210500	-9.662700	27.192240	0.000364	20.923708
2298.588814	-3.011800	3.211800	-9.671700	27.182582	0.000362	20.926795
2299.593157	-2.990200	3.212000	-9.603800	27.205937	0.000362	20.925630
2300.592786	-2.984000	3.212300	-9.584400	27.236845	0.000362	20.916890
2301.592589	-2.995700	3.209800	-9.614000	27.241317	0.000361	20.913803
2302.594566	-2.966100	3.211500	-9.524800	27.280187	0.000359	20.931562
2303.591086	-2.982300	3.210000	-9.571300	27.289296	0.000358	20.921286
2304.593191	-2.998300	3.208800	-9.620400	27.332457	0.000359	20.905435
2305.591707	-3.001600	3.207300	-9.625500	27.308418	0.000357	20.923925
2306.592457	-3.012200	3.207100	-9.658500	27.333210	0.000358	20.918044
2307.589692	-2.989700	3.207500	-9.588700	27.285946	0.000357	20.895633
2308.590111	-2.995400	3.207000	-9.605600	27.247420	0.000355	20.913777
2309.594767	-2.976500	3.207000	-9.544600	27.177461	0.000355	20.927335
2310.595914	-3.007100	3.205100	-9.636100	27.116405	0.000354	20.920928
2311.595147	-2.980900	3.205500	-9.554400	27.139608	0.000354	20.908230
2312.597353	-3.005500	3.204100	-9.628200	27.141556	0.000353	20.908767
2313.596763	-3.000200	3.204000	-9.611900	27.188534	0.000354	20.918084
2314.593846	-2.998600	3.203800	-9.606100	27.195796	0.000351	20.929654
2315.605427	-3.008300	3.203200	-9.635000	27.203759	0.000351	20.921069
2316.591441	-3.001100	3.204100	-9.614500	27.201401	0.000350	20.924861
2317.595922	-2.991300	3.201100	-9.574200	27.197630	0.000348	20.914431
2318.596309	-2.992000	3.202000	-9.579200	27.201401	0.000349	20.908742
2319.597141	-2.996900	3.200300	-9.589700	27.281578	0.000348	20.916367
2320.594298	-2.997800	3.199700	-9.590600	27.287297	0.000348	20.914060
2321.593702	-3.012400	3.199600	-9.637600	27.323095	0.000348	20.921146
2322.593201	-3.002300	3.200200	-9.607200	27.337872	0.000347	20.904244
2323.594532	-3.017100	3.198400	-9.649200	27.301910	0.000344	20.925438
2324.598340	-3.015700	3.198800	-9.646000	27.279665	0.000346	20.913969
2325.592098	-3.010500	3.198200	-9.626700	27.236501	0.000345	20.913700
2326.600666	-2.996800	3.198300	-9.582000	27.225838	0.000346	20.899657
2327.601429	-2.978000	3.198800	-9.525600	27.227150	0.000345	20.884382
2328.598180	-2.973000	3.198400	-9.507500	27.262019	0.000342	20.906178
2329.601988	-2.999000	3.196600	-9.585800	27.277538	0.000343	20.899028
2330.602119	-3.019800	3.197300	-9.654300	27.319859	0.000342	20.904141
2331.598687	-3.003400	3.196700	-9.599700	27.331617	0.000341	20.917390
2332.600194	-2.994200	3.195400	-9.567200	27.340865	0.000342	20.919107
2333.600526	-2.994300	3.194700	-9.564100	27.319260	0.000341	20.906383
2334.599703	-2.996600	3.194500	-9.571900	27.339184	0.000339	20.898452
2335.600356	-3.008100	3.193700	-9.605300	27.371363	0.000339	20.913277
2336.599851	-2.989900	3.193500	-9.547700	27.332701	0.000340	20.899042
2337.603415	-3.006700	3.192700	-9.598400	27.301884	0.000338	20.892699
2338.602435	-2.979200	3.192400	-9.510200	27.276035	0.000337	20.905577
2339.602479	-2.999700	3.192400	-9.573900	27.265855	0.000336	20.902450
2340.605292	-2.993600	3.191200	-9.552400	27.300725	0.000337	20.911446
2341.604063	-3.006100	3.191400	-9.592600	27.303642	0.000336	20.903001
2342.605948	-2.999600	3.192600	-9.575600	27.299743	0.000334	20.909036
2343.602441	-2.994400	3.191500	-9.555500	27.295617	0.000336	20.894455
2344.602175	-2.985300	3.190000	-9.521800	27.327159	0.000334	20.902002
2345.601879	-3.004800	3.189300	-9.582500	27.346294	0.000332	20.903706
2346.606380	-3.007400	3.188400	-9.587900	27.356498	0.000332	20.896903
2347.604438	-2.989800	3.188500	-9.531400	27.371593	0.000333	20.903078
2348.601544	-2.999200	3.186400	-9.556100	27.371860	0.000333	20.891968
2349.605111	-2.989800	3.187000	-9.527800	27.395262	0.000331	20.896069
2350.600035	-3.004900	3.185900	-9.572300	27.437590	0.000333	20.887444
2351.606530	-3.002800	3.187000	-9.568400	27.504311	0.000332	20.912843
2352.604294	-2.995300	3.185700	-9.541300	27.507252	0.000331	20.881666
2353.609511	-3.005900	3.185900	-9.575300	27.531248	0.000328	20.884945
2354.600489	-2.999500	3.184900	-9.552100	27.540713	0.000329	20.893519
2355.605565	-2.989400	3.184300	-9.518500	27.492706	0.000327	20.888841
2356.605353	-3.023500	3.184900	-9.629200	27.505711	0.000327	20.892916
2357.606066	-3.024400	3.182500	-9.624000	27.514753	0.000327	20.908177
2358.605439	-2.996400	3.182500	-9.535100	27.558771	0.000327	20.889404
2359.605278	-2.983000	3.182700	-9.492900	27.567228	0.000327	20.895542
2360.608285	-2.995500	3.181900	-9.530300	27.502767	0.000324	20.903704
2361.605321	-2.981900	3.181300	-9.485300	27.417616	0.000325	20.881101
2362.607311	-3.005700	3.180200	-9.556600	27.403794	0.000325	20.891851
2363.604118	-2.989600	3.180900	-9.506700	27.363069	0.000325	20.883600
2364.603279	-2.982100	3.179100	-9.479900	27.284581	0.000324	20.889044
2365.601830	-2.988800	3.179600	-9.502300	27.259177	0.000323	20.905215
2366.605958	-3.011400	3.176900	-9.566000	27.201908	0.000322	20.886968
2367.608768	-3.005900	3.177300	-9.548800	27.157060	0.000322	20.903973
2368.605710	-2.996200	3.177900	-9.521000	27.142687	0.000321	20.891415
2369.606543	-3.006400	3.177800	-9.553500	27.119587	0.000322	20.888570
2370.606199	-3.010300	3.177900	-9.565600	27.063139	0.000322	20.877794
2371.606331	-2.996400	3.176200	-9.515600	27.081322	0.000318	20.890390
2372.606287	-3.014600	3.174400	-9.569600	27.146510	0.000320	20.886725
2373.609938	-2.978800	3.177700	-9.463700	27.191040	0.000319	20.898321
2374.606278	-2.982000	3.176600	-9.471800	27.228318	0.000319	20.881290
2375.607076	-3.005900	3.175400	-9.544200	27.274094	0.000318	20.898410
2376.604676	-2.994300	3.175200	-9.505600	27.276488	0.000317	20.893232
2377.606671	-3.005800	3.172100	-9.531900	27.304580	0.000318	20.875498
2378.607147	-3.007300	3.173100	-9.542200	27.346798	0.000317	20.862965
2379.607958	-2.995600	3.171900	-9.501200	27.307943	0.000316	20.903060
2380.608759	-3.004100	3.172000	-9.528400	27.290042	0.000316	20.882211
2381.610082	-2.983200	3.172200	-9.462100	27.268563	0.000312	20.881942
2382.615586	-3.010700	3.171100	-9.546500	27.208938	0.000316	20.893564
2383.614178	-2.980400	3.169200	-9.444300	27.220354	0.000314	20.871857
2384.615504	-3.005700	3.167200	-9.518900	27.220149	0.000313	20.863117
2385.607718	-3.009600	3.166700	-9.529700	27.275773	0.000312	20.899151
2386.608298	-3.001900	3.167000	-9.506000	27.320744	0.000312	20.879903
2387.611658	-3.026600	3.165900	-9.581300	27.360644	0.000312	20.885901
2388.608236	-3.009100	3.165600	-9.524700	27.401139	0.000311	20.900559
2389.616670	-2.977500	3.168700	-9.433900	27.425176	0.000310	20.870215
2390.612172	-3.010400	3.164200	-9.524500	27.436843	0.000311	20.877685
2391.613778	-2.994500	3.163800	-9.471600	27.460726	0.000309	20.871367
2392.611221	-2.979800	3.165600	-9.431400	27.466203	0.000309	20.875929
2393.618213	-3.002900	3.163800	-9.499800	27.489094	0.000310	20.867665
2394.612458	-2.997600	3.163200	-9.481400	27.511969	0.000308	20.843739
2395.615503	-3.021400	3.163100	-9.555900	27.527240	0.000309	20.862896
2396.614842	-2.997500	3.161800	-9.476600	27.554598	0.000308	20.871930
2397.615932	-2.998900	3.161400	-9.479800	27.566303	0.000308	20.883232
2398.619319	-3.006700	3.161900	-9.506000	27.522107	0.000310	20.875275
2399.617582	-3.018400	3.159600	-9.535300	27.499472	0.000308	20.869571
2400.614998	-2.979200	3.160900	-9.416200	27.471438	0.000306	20.838998
2401.617481	-2.997300	3.160300	-9.471300	27.473590	0.000306	20.861077
2402.619246	-2.995400	3.158000	-9.458500	27.483181	0.000308	20.861717
2403.617826	-3.026300	3.155800	-9.549100	27.457464	0.000303	20.864293
2404.623017	-3.018600	3.156400	-9.526500	27.487780	0.000303	20.863499
2405.619188	-2.979000	3.155700	-9.399700	27.476952	0.000303	20.866829
2406.618530	-3.004600	3.155400	-9.478900	27.450560	0.000304	20.876786
2407.619473	-2.988800	3.156200	-9.431500	27.449963	0.000302	20.878082
2408.619103	-3.012400	3.153400	-9.497900	27.437988	0.000303	20.858923
2409.620253	-2.995700	3.154700	-9.450000	27.383863	0.000302	20.854733
2410.621382	-3.000000	3.151600	-9.453800	27.348220	0.000301	20.855861
2411.618210	-2.986800	3.153800	-9.417200	27.331021	0.000300	20.862742
2412.619700	-3.006700	3.151900	-9.475500	27.347187	0.000301	20.858141
2413.618948	-3.010800	3.151600	-9.487700	27.334423	0.000300	20.861422
2414.619753	-2.997800	3.151600	-9.445900	27.350895	0.000299	20.850018
2415.621703	-2.978900	3.150200	-9.382700	27.378996	0.000299	20.867855
2416.622246	-3.011100	3.149400	-9.482000	27.351826	0.000299	20.854273
2417.625684	-3.013700	3.149300	-9.490000	27.338208	0.000298	20.842945
2418.622443	-3.033100	3.147100	-9.544400	27.365137	0.000299	20.857232
2419.619479	-3.020100	3.146900	-9.503000	27.372806	0.000297	20.853093
2420.622077	-2.993800	3.148500	-9.425100	27.363813	0.000297	20.851634
2421.619520	-3.006700	3.147200	-9.462500	27.374627	0.000297	20.882898
2422.622916	-3.017100	3.144800	-9.487200	27.380501	0.000296	20.845187
2423.626571	-2.990900	3.145100	-9.405800	27.376208	0.000296	20.876902
2424.624756	-2.993700	3.144000	-9.411700	27.402639	0.000295	20.869828
2425.625162	-2.998400	3.142900	-9.422600	27.430893	0.000295	20.858898
2426.628098	-3.013300	3.143100	-9.470100	27.450051	0.000295	20.858258
2427.625823	-2.980600	3.142800	-9.365900	27.450191	0.000294	20.852708
2428.625545	-3.013300	3.141900	-9.465200	27.465616	0.000294	20.864433
2429.625260	-2.981800	3.142400	-9.367500	27.493078	0.000295	20.863613
2430.623561	-3.001200	3.140400	-9.423000	27.463782	0.000293	20.850735
2431.630014	-3.009900	3.140600	-9.451900	27.482875	0.000293	20.847185
2432.626206	-2.998500	3.139400	-9.412200	27.440992	0.000293	20.860049
2433.627546	-2.984900	3.139700	-9.370600	27.413491	0.000292	20.865573
2434.626658	-2.995100	3.139000	-9.400000	27.403874	0.000294	20.847838
2435.627791	-3.003200	3.136500	-9.418500	27.397492	0.000292	20.841418
2436.630808	-2.985000	3.136800	-9.362300	27.427491	0.000291	20.855950
2437.629953	-3.002900	3.136400	-9.417000	27.472353	0.000290	20.857935
2438.629442	-2.979400	3.135500	-9.340400	27.510973	0.000293	20.864548
2439.629011	-3.005100	3.134600	-9.418600	27.491676	0.000291	20.846082
2440.630029	-2.985300	3.134200	-9.356100	27.470329	0.000291	20.836459
2441.625034	-3.018400	3.132100	-9.453000	27.487613	0.000290	20.863805
2442.631349	-3.002800	3.131900	-9.403300	27.548228	0.000288	20.863151
2443.631118	-2.957200	3.131800	-9.260400	27.572745	0.000292	20.846568
2444.628815	-2.996000	3.130800	-9.379000	27.547121	0.000290	20.862511
2445.635100	-3.021000	3.128300	-9.448100	27.511114	0.000288	20.856156
2446.632489	-3.001200	3.128600	-9.388900	27.445745	0.000289	20.834011
2447.638489	-2.995800	3.129700	-9.375000	27.409581	0.000289	20.834614
2448.629954	-2.991200	3.128800	-9.357800	27.392804	0.000287	20.846659
2449.632970	-3.001300	3.126100	-9.381700	27.384894	0.000288	20.831589
2450.628843	-3.002900	3.125600	-9.385000	27.374729	0.000289	20.847441
2451.628378	-3.011700	3.124700	-9.409400	27.404613	0.000287	20.848581
2452.630708	-2.981600	3.124300	-9.313500	27.380385	0.000287	20.837959
2453.633292	-2.980100	3.123300	-9.306500	27.392270	0.000286	20.859872
2454.629923	-3.005900	3.122600	-9.384700	27.370677	0.000286	20.839099
2455.635519	-3.006200	3.122100	-9.384900	27.369479	0.000286	20.845480
2456.634408	-3.044200	3.120000	-9.495600	27.364473	0.000285	20.824797
2457.634194	-2.995800	3.120500	-9.347100	27.411390	0.000285	20.824106
2458.636431	-3.016900	3.119400	-9.409800	27.450890	0.000284	20.813584
2459.631106	-3.006700	3.117700	-9.373200	27.435898	0.000282	20.833589
2460.638526	-2.954300	3.119700	-9.215500	27.419224	0.000282	20.821081
2461.635909	-2.995400	3.116500	-9.332500	27.468035	0.000284	20.821824
2462.633798	-2.998500	3.116000	-9.342900	27.505190	0.000283	20.825540
2463.639657	-2.988900	3.116000	-9.312200	27.541440	0.000283	20.830718
2464.639436	-3.001800	3.114800	-9.348800	27.590386	0.000284	20.828282
2465.636659	-3.017600	3.114400	-9.397400	27.614711	0.000283	20.828577
2466.638192	-2.997400	3.113500	-9.331400	27.671143	0.000281	20.831781
2467.637846	-2.984100	3.111900	-9.285100	27.655071	0.000282	20.834100
2468.638417	-2.990200	3.111000	-9.301900	27.688717	0.000281	20.845197
2469.638407	-3.003700	3.111100	-9.343200	27.695759	0.000282	20.836163
2470.638012	-2.960200	3.110100	-9.205100	27.636004	0.000282	20.838622
2471.640443	-3.004100	3.109000	-9.338600	27.587201	0.000282	20.830768
2472.638444	-2.996300	3.108700	-9.313100	27.598510	0.000280	20.824130
2473.637297	-2.994200	3.106200	-9.299500	27.622824	0.000282	20.821567
2474.640496	-2.994400	3.106300	-9.300400	27.640132	0.000281	20.827603
2475.637088	-2.990600	3.105500	-9.286500	27.671257	0.000280	20.841378
2476.635360	-2.988500	3.104700	-9.277500	27.692333	0.000281	20.833190
2477.634456	-2.993500	3.104200	-9.291500	27.629955	0.000279	20.828743
2478.634785	-2.983300	3.104100	-9.259400	27.583456	0.000278	20.809931
2479.639658	-3.003000	3.102600	-9.315700	27.581075	0.000278	20.819862
2480.639614	-3.007100	3.101800	-9.326700	27.571713	0.000278	20.841736
2481.642123	-2.983400	3.101700	-9.252900	27.586843	0.000277	20.814287
2482.644958	-3.001400	3.099100	-9.300900	27.625408	0.000278	20.807098
2483.639006	-2.997000	3.098200	-9.284100	27.646053	0.000276	20.810802
2484.640112	-3.000700	3.097700	-9.294200	27.631954	0.000277	20.834547
2485.642201	-3.000800	3.096900	-9.290800	27.603362	0.000275	20.828537
2486.640933	-3.023900	3.095500	-9.359400	27.541323	0.000277	20.811634
2487.637712	-3.010600	3.096000	-9.318800	27.540431	0.000278	20.818797
2488.639968	-2.994300	3.096000	-9.269300	27.550123	0.000277	20.807212
2489.637314	-3.009000	3.093200	-9.306200	27.564249	0.000275	20.798192
2490.642066	-3.013800	3.092300	-9.317400	27.601145	0.000275	20.835315
2491.641951	-2.978500	3.093000	-9.211600	27.602190	0.000276	20.806495
2492.645598	-2.989400	3.090700	-9.238700	27.546864	0.000277	20.813416
2493.640958	-2.986700	3.090200	-9.228400	27.532840	0.000277	20.809737
2494.642220	-2.983700	3.089600	-9.217300	27.515951	0.000275	20.794167
2495.645272	-3.003400	3.088900	-9.275900	27.543017	0.000275	20.819029
2496.639575	-2.994900	3.087500	-9.246100	27.542648	0.000274	20.805381
2497.643149	-3.006100	3.086000	-9.276300	27.533030	0.000274	20.789066
2498.639195	-3.002900	3.084400	-9.261400	27.562937	0.000275	20.805407
2499.636914	-3.015800	3.084300	-9.298900	27.601375	0.000275	20.817529
2500.644584	-2.999100	3.084700	-9.250600	27.624848	0.000274	20.809380
2501.647467	-3.015300	3.082500	-9.293300	27.677954	0.000273	20.820617
2502.643274	-2.986400	3.080600	-9.198700	27.697389	0.000274	20.798449
2503.645546	-2.979900	3.081800	-9.181500	27.697412	0.000272	20.786618
2504.645791	-3.012800	3.078200	-9.272900	27.683659	0.000272	20.799806
2505.643366	-2.998900	3.079200	-9.231900	27.656037	0.000274	20.815158
2506.646615	-3.013600	3.076600	-9.270300	27.666568	0.000273	20.789720
2507.643201	-2.989400	3.077200	-9.197600	27.676171	0.000272	20.831625
2508.648678	-3.000500	3.075000	-9.225500	27.729810	0.000273	20.805470
2509.646747	-2.999800	3.074600	-9.222400	27.740622	0.000271	20.804970
2510.648855	-3.010900	3.074700	-9.255000	27.723430	0.000274	20.791937
2511.652438	-2.994200	3.073600	-9.201900	27.724857	0.000274	20.799063
2512.648927	-2.997500	3.071400	-9.205800	27.755037	0.000271	20.797666
2513.649475	-2.996600	3.070400	-9.199900	27.795683	0.000272	20.798741
2514.646785	-3.026800	3.068900	-9.288100	27.839041	0.000272	20.792591
2515.652942	-3.000200	3.070300	-9.210800	27.882461	0.000270	20.787452
2516.655313	-3.004600	3.067300	-9.214200	27.913630	0.000271	20.775675
2517.655868	-2.991200	3.067500	-9.174500	27.914229	0.000271	20.780071
2518.650742	-2.987700	3.066100	-9.159400	27.881774	0.000272	20.806201
2519.660014	-2.991200	3.065800	-9.169900	27.859912	0.000270	20.787517
2520.650638	-3.043700	3.061400	-9.317000	27.907137	0.000271	20.783364
2521.652992	-3.002100	3.063500	-9.194700	27.916203	0.000273	20.791068
2522.655714	-3.003900	3.062600	-9.198500	27.943118	0.000272	20.782596
2523.649347	-2.966200	3.062700	-9.083300	27.938001	0.000272	20.796412
2524.650887	-2.967900	3.061700	-9.086000	27.892637	0.000272	20.779202
2525.652007	-2.990600	3.057000	-9.141700	27.936843	0.000273	20.805203
2526.654926	-3.026000	3.057300	-9.250900	27.949346	0.000272	20.801193
2527.654325	-2.966800	3.056800	-9.068000	27.932273	0.000272	20.798707
2528.656697	-2.986400	3.056500	-9.126800	27.890587	0.000271	20.804640
2529.652329	-2.993300	3.055000	-9.143500	27.862513	0.000271	20.790609
2530.653137	-3.011100	3.053500	-9.193800	27.816252	0.000270	20.801424
2531.657507	-2.980100	3.052800	-9.096900	27.749234	0.000268	20.806525
2532.651359	-3.008800	3.050700	-9.178000	27.710561	0.000271	20.798901
2533.655052	-3.031800	3.049500	-9.244100	27.647471	0.000270	20.783779
2534.652321	-3.011600	3.048900	-9.181200	27.667006	0.000269	20.790635
2535.654539	-3.017300	3.047700	-9.195600	27.642733	0.000270	20.810781
2536.652360	-3.032100	3.044600	-9.230600	27.688505	0.000270	20.808475
2537.650885	-3.028500	3.044900	-9.220200	27.709377	0.000268	20.795813
2538.652068	-3.008100	3.044400	-9.155800	27.700094	0.000269	20.781257
2539.653935	-2.998700	3.041200	-9.118200	27.690199	0.000268	20.781731
2540.653116	-2.993300	3.041500	-9.102100	27.714956	0.000270	20.789574
2541.650143	-3.015700	3.038500	-9.162200	27.779595	0.000271	20.792508
2542.657093	-2.986600	3.041300	-9.082600	27.822279	0.000269	20.793265
2543.655527	-3.026200	3.037800	-9.191200	27.806822	0.000268	20.800942
2544.656250	-2.968300	3.039500	-9.020700	27.805777	0.000266	20.799417
2545.654996	-2.988300	3.037000	-9.074400	27.797691	0.000267	20.788908
2546.653991	-2.984300	3.035100	-9.056100	27.785111	0.000268	20.801379
2547.656486	-2.983100	3.035400	-9.052700	27.830736	0.000267	20.794664
2548.653836	-2.978300	3.035800	-9.040000	27.848383	0.000268	20.808631
2549.656081	-2.989200	3.033300	-9.065100	27.875467	0.000270	20.815500
2550.657538	-2.998700	3.029900	-9.085100	27.914276	0.000268	20.762575
2551.657532	-3.028200	3.029600	-9.173300	27.890250	0.000266	20.781541
2552.657555	-2.976300	3.029800	-9.016800	27.882573	0.000269	20.776185
2553.657507	-3.016200	3.027800	-9.130400	27.839956	0.000268	20.792564
2554.662411	-2.976200	3.026500	-9.005600	27.798076	0.000267	20.784554
2555.654281	-3.000800	3.025500	-9.076700	27.777675	0.000268	20.810490
2556.660063	-3.011100	3.023300	-9.102500	27.739422	0.000268	20.799022
2557.654422	-2.993000	3.023200	-9.047700	27.786246	0.000268	20.774546
2558.658747	-2.996400	3.022000	-9.054200	27.779128	0.000267	20.792038
2559.660073	-2.988600	3.020800	-9.027600	27.792422	0.000267	20.773174
2560.658782	-3.016800	3.018500	-9.105800	27.824165	0.000268	20.798008
2561.662058	-2.997200	3.016400	-9.039700	27.874360	0.000267	20.803955
2562.660925	-2.984600	3.017600	-9.005100	27.894288	0.000266	20.781812
2563.660639	-3.023500	3.013400	-9.110600	27.904244	0.000268	20.814592
2564.661467	-3.017300	3.011800	-9.087200	27.942479	0.000267	20.786220
2565.659457	-3.010100	3.013000	-9.068000	27.937972	0.000268	20.800176
2566.656775	-2.999600	3.011500	-9.032300	27.951861	0.000265	20.789025
2567.661619	-3.006500	3.010100	-9.048700	27.989356	0.000265	20.797842
2568.663028	-2.996700	3.009600	-9.018400	27.970221	0.000266	20.793281
2569.661194	-2.988200	3.007600	-8.986500	27.950512	0.000265	20.783875
2570.665916	-2.985700	3.006900	-8.976400	27.939002	0.000266	20.790307
2571.665885	-2.997800	3.005700	-9.010000	27.968286	0.000265	20.790384
2572.667474	-2.987800	3.006000	-8.979400	28.003564	0.000265	20.796971
2573.665434	-3.024900	3.003700	-9.084700	28.040726	0.000265	20.792652
2574.666065	-2.970500	3.002100	-8.916300	28.056015	0.000264	20.809939
2575.664337	-2.982800	3.001100	-8.950300	28.043081	0.000267	20.804980
2576.667047	-3.011200	3.000200	-9.033200	28.000420	0.000267	20.810401
2577.665362	-3.001900	2.997500	-8.997700	27.993303	0.000266	20.799919
2578.664640	-2.981700	2.996400	-8.933200	28.005665	0.000264	20.791024
2579.665265	-2.997100	2.996800	-8.981000	28.025843	0.000267	20.799956
2580.665128	-2.995400	2.993300	-8.965100	27.984569	0.000264	20.784489
2581.667386	-2.987500	2.993800	-8.942700	27.935972	0.000265	20.795318
2582.663891	-3.011500	2.992100	-9.009800	27.854306	0.000265	20.809850
2583.669147	-2.993600	2.989700	-8.947200	27.804735	0.000268	20.803584
2584.664701	-3.000200	2.989300	-8.967500	27.808632	0.000265	20.791384
2585.665339	-3.010000	2.987400	-8.990000	27.758332	0.000266	20.802404
2586.671950	-2.985200	2.986900	-8.915500	27.790371	0.000266	20.783912
2587.666404	-2.997500	2.986400	-8.951100	27.844526	0.000266	20.797163
2588.670376	-2.997900	2.983000	-8.942000	27.873176	0.000266	20.788539
2589.667425	-2.988100	2.981700	-8.908900	27.947953	0.000265	20.821127
2590.676367	-3.016000	2.981400	-8.990400	27.981782	0.000266	20.802072
2591.666460	-3.006500	2.980900	-8.960700	28.014487	0.000264	20.812233
2592.673591	-3.013400	2.976000	-8.967200	28.022089	0.000263	20.806608
2593.666796	-3.022200	2.976300	-8.994000	28.030758	0.000267	20.830981
2594.671372	-3.043600	2.975500	-9.054800	28.007588	0.000267	20.787745
2595.672010	-2.992100	2.975200	-8.901100	28.014297	0.000265	20.792127
2596.672786	-2.987200	2.973300	-8.880600	27.950410	0.000264	20.799893
2597.676359	-3.004400	2.970600	-8.923600	27.924081	0.000265	20.812272
2598.672332	-3.005800	2.970000	-8.926800	27.960289	0.000266	20.807940
2599.673713	-2.989700	2.969200	-8.875600	27.949710	0.000264	20.818628
2600.668819	-2.970600	2.968500	-8.816200	27.940007	0.000264	20.786577
2601.672675	-2.983600	2.964300	-8.843400	28.000980	0.000266	20.787257
2602.678397	-2.987200	2.964800	-8.856000	28.001794	0.000264	20.821267
2603.676304	-3.025900	2.961300	-8.959300	28.053774	0.000265	20.814321
2604.679448	-2.987200	2.961600	-8.845300	28.064417	0.000264	20.819345
2605.676000	-2.990400	2.960000	-8.850500	28.051126	0.000264	20.802173
2606.675764	-2.990700	2.959100	-8.849200	28.070056	0.000262	20.802262
2607.674923	-3.019200	2.956200	-8.924500	28.070858	0.000264	20.807811
2608.677109	-3.010200	2.956700	-8.899600	28.060763	0.000265	20.809028
2609.671898	-2.992400	2.955300	-8.841700	28.055085	0.000265	20.810425
2610.681244	-3.006500	2.953500	-8.877900	28.031138	0.000264	20.814295
2611.675207	-3.009600	2.951600	-8.882300	28.013009	0.000264	20.800314
2612.675326	-2.997200	2.949100	-8.838000	28.011329	0.000265	20.796252
2613.683275	-3.024100	2.945800	-8.907000	28.023945	0.000263	20.813219
2614.676595	-3.008200	2.945800	-8.858900	28.085727	0.000264	20.818511
2615.680309	-3.014900	2.943800	-8.873600	28.109863	0.000265	20.815781
2616.677030	-3.006100	2.943800	-8.847900	28.058203	0.000267	20.820676
2617.679678	-3.016700	2.941900	-8.872700	28.012232	0.000264	20.807118
2618.675658	-3.031900	2.939900	-8.912800	27.961612	0.000264	20.822073
2619.683157	-3.003100	2.938500	-8.823200	27.991150	0.000263	20.832838
2620.678183	-3.019200	2.936600	-8.864000	28.025027	0.000263	20.810040
2621.681015	-3.017500	2.936000	-8.857500	28.069559	0.000265	20.801762
2622.680809	-3.009000	2.934600	-8.829000	28.123522	0.000262	20.812462
2623.682875	-2.980400	2.934600	-8.745000	28.118315	0.000264	20.816229
2624.680703	-3.021700	2.931300	-8.855700	28.100034	0.000265	20.814422
2625.679546	-3.006500	2.928200	-8.803200	28.073912	0.000266	20.831748
2626.683361	-3.011300	2.928600	-8.817900	28.090447	0.000265	20.812831
2627.678717	-3.012800	2.926300	-8.815800	28.105266	0.000265	20.810206
2628.682492	-3.011200	2.923800	-8.802700	28.144728	0.000263	20.807258
2629.685703	-2.983700	2.923500	-8.721800	28.182356	0.000264	20.827121
2630.684363	-3.010900	2.921500	-8.796000	28.209264	0.000265	20.836193
2631.698874	-2.976300	2.920400	-8.691200	28.184634	0.000263	20.846483
2632.680028	-2.963200	2.920300	-8.652500	28.186365	0.000265	20.831631
2633.686001	-2.956700	2.919700	-8.631800	28.223623	0.000265	20.825044
2634.688687	-3.009800	2.915400	-8.773400	28.214598	0.000264	20.838717
2635.687418	-3.012500	2.912300	-8.772500	28.206311	0.000264	20.824685
2636.684426	-3.017500	2.911200	-8.783200	28.147833	0.000265	20.825082
2637.688630	-3.004400	2.912000	-8.747600	28.099651	0.000264	20.827312
2638.689246	-3.021100	2.909300	-8.788100	28.084145	0.000263	20.815022
2639.690233	-3.013100	2.905800	-8.754400	28.074051	0.000264	20.831888
2640.694259	-2.993300	2.904600	-8.694200	28.103521	0.000263	20.843062
2641.690707	-3.004300	2.903900	-8.723500	28.073567	0.000264	20.838512
2642.693426	-2.988800	2.902800	-8.674500	28.079347	0.000265	20.818726
2643.688817	-3.006200	2.900000	-8.717100	28.060429	0.000266	20.856106
2644.692511	-3.009700	2.899400	-8.725300	28.066195	0.000263	20.838204
2645.695229	-3.015700	2.895400	-8.730100	28.054814	0.000264	20.817264
2646.697866	-2.976200	2.896800	-8.620800	28.102032	0.000263	20.822123
2647.694040	-2.992600	2.894400	-8.661400	28.088257	0.000263	20.838601
2648.694577	-3.000100	2.893000	-8.678900	28.047646	0.000262	20.839446
2649.695955	-2.991300	2.891700	-8.649300	28.028907	0.000263	20.842394
2650.693042	-3.026900	2.887700	-8.739800	28.000300	0.000263	20.852479
2651.699039	-3.005100	2.886500	-8.673000	28.027494	0.000262	20.846187
2652.698487	-3.005000	2.885100	-8.668700	28.054050	0.000263	20.852530
2653.700512	-3.000000	2.883500	-8.649700	28.084477	0.000264	20.845227
2654.692286	-3.010400	2.881300	-8.673100	28.151740	0.000264	20.842291
2655.696230	-3.008600	2.879100	-8.661900	28.186530	0.000263	20.840331
2656.698686	-3.008500	2.875800	-8.650300	28.219853	0.000263	20.844482
2657.696072	-2.999500	2.876300	-8.626200	28.253279	0.000262	20.849212
2658.694959	-2.969500	2.874100	-8.533500	28.205139	0.000265	20.864281
2659.697221	-3.010200	2.871200	-8.641900	28.181273	0.000264	20.835513
2660.698121	-2.980100	2.870100	-8.553100	28.191927	0.000263	20.837230
2661.695381	-2.996100	2.867600	-8.590600	28.179020	0.000263	20.839409
2662.702907	-3.028800	2.866200	-8.679800	28.167206	0.000264	20.846481
2663.698825	-2.991300	2.865200	-8.570500	28.162471	0.000264	20.845507
2664.700044	-3.017000	2.860200	-8.628400	28.144179	0.000263	20.870713
2665.700093	-3.000900	2.858900	-8.578500	28.135077	0.000262	20.848749
2666.698514	-2.983900	2.856800	-8.522800	28.099816	0.000262	20.847866
2667.704902	-2.991400	2.856700	-8.544200	28.119891	0.000262	20.853376
2668.699116	-2.988900	2.854800	-8.531700	28.153420	0.000262	20.865318
2669.698227	-3.013800	2.851200	-8.591400	28.207023	0.000263	20.840100
2670.699572	-2.985000	2.849500	-8.504200	28.240575	0.000264	20.849223
2671.699733	-2.998200	2.848300	-8.537800	28.297737	0.000261	20.867894
2672.709217	-2.996600	2.847400	-8.531800	28.361653	0.000262	20.856387
2673.703434	-2.986200	2.844400	-8.492400	28.370053	0.000263	20.857258
2674.708720	-2.986900	2.842200	-8.488100	28.321907	0.000264	20.851454
2675.708135	-2.976800	2.841100	-8.455700	28.284423	0.000262	20.866343
2676.702867	-2.991800	2.838700	-8.491400	28.241784	0.000266	20.866561
2677.705327	-3.000700	2.834400	-8.504400	28.197680	0.000262	20.843496
2678.710178	-3.016500	2.832500	-8.543600	28.176702	0.000263	20.871213
2679.702652	-2.990400	2.831100	-8.464700	28.158448	0.000262	20.882706
2680.705455	-3.000300	2.828600	-8.486000	28.192486	0.000263	20.869560
2681.706418	-2.991800	2.828000	-8.460100	28.259336	0.000263	20.877120
2682.706631	-2.978800	2.824400	-8.412300	28.302903	0.000263	20.866458
2683.717004	-2.990500	2.822100	-8.438800	28.373794	0.000262	20.872404
2684.709622	-2.967500	2.821200	-8.370500	28.350771	0.000261	20.873878
2685.706350	-2.995600	2.818300	-8.441700	28.344803	0.000262	20.865024
2686.709229	-2.990200	2.815300	-8.417000	28.341544	0.000264	20.868854
2687.709215	-2.976700	2.814900	-8.377900	28.349345	0.000262	20.888088
2688.709768	-3.005800	2.812200	-8.451200	28.315606	0.000261	20.881144
2689.707717	-3.026300	2.808500	-8.498000	28.263600	0.000261	20.864344
2690.711009	-3.005400	2.806000	-8.431800	28.265013	0.000262	20.874775
2691.709780	-3.002100	2.802000	-8.411400	28.247409	0.000262	20.852311
2692.709836	-2.996700	2.800000	-8.389400	28.219382	0.000263	20.880990
2693.712546	-2.996200	2.800700	-8.391000	28.245298	0.000264	20.892382
2694.709943	-2.976500	2.796300	-8.321000	28.243630	0.000261	20.870316
2695.711006	-3.018700	2.794100	-8.433500	28.266948	0.000261	20.866766
2696.710637	-3.019700	2.790900	-8.425700	28.309065	0.000263	20.870290
2697.709803	-2.980900	2.790500	-8.317500	28.374356	0.000262	20.892882
2698.715488	-3.027900	2.787300	-8.439100	28.389359	0.000262	20.897084
2699.712767	-3.000000	2.783800	-8.350400	28.418860	0.000261	20.884117
2700.712374	-2.989500	2.780900	-8.312600	28.458948	0.000263	20.885130
2701.711817	-3.016200	2.776300	-8.373100	28.460131	0.000265	20.889641
2702.713037	-3.013800	2.774100	-8.359700	28.464266	0.000263	20.875788
2703.713611	-2.998400	2.771800	-8.310500	28.435850	0.000261	20.883682
2704.714250	-2.997000	2.770300	-8.301900	28.381050	0.000262	20.886347
2705.714034	-2.964000	2.767100	-8.200600	28.384232	0.000262	20.882914
2706.709404	-2.993900	2.764500	-8.275500	28.413821	0.000262	20.904172
2707.714055	-3.002500	2.760800	-8.288700	28.441132	0.000264	20.898957
2708.715150	-2.982800	2.759400	-8.230200	28.484705	0.000263	20.886887
2709.718070	-2.970300	2.757700	-8.188800	28.545187	0.000264	20.893742
2710.713186	-2.994600	2.753100	-8.243400	28.574899	0.000262	20.878621
2711.714081	-2.979700	2.750500	-8.193600	28.625491	0.000262	20.900650
2712.715263	-3.025500	2.746900	-8.310100	28.635326	0.000262	20.885901
2713.712935	-3.009200	2.743200	-8.254100	28.666142	0.000263	20.887541
2714.716500	-3.007600	2.741500	-8.245000	28.655544	0.000262	20.900573
2715.721284	-3.007200	2.736000	-8.226900	28.626674	0.000265	20.879084
2716.711974	-3.024000	2.732800	-8.262300	28.616382	0.000263	20.908544
2717.711810	-3.011800	2.731000	-8.224500	28.595310	0.000262	20.911977
2718.714355	-2.992900	2.726900	-8.160100	28.551627	0.000260	20.926777
2719.715448	-3.003300	2.724600	-8.181700	28.493755	0.000261	20.913068
2720.716973	-2.992300	2.721200	-8.141100	28.493055	0.000262	20.910466
2721.713534	-2.967700	2.719000	-8.067700	28.454853	0.000262	20.918937
2722.719771	-3.002000	2.714600	-8.148600	28.430916	0.000261	20.897679
2723.718082	-3.010100	2.710000	-8.156000	28.460580	0.000260	20.913799
2724.719112	-3.004300	2.706100	-8.129100	28.430867	0.000261	20.916594
2725.724301	-2.995700	2.704000	-8.099600	28.426718	0.000262	20.933276
2726.719157	-2.988600	2.699100	-8.065700	28.437891	0.000262	20.919399
2727.724844	-3.015000	2.695900	-8.127600	28.414793	0.000262	20.920322
2728.719938	-2.973300	2.693600	-8.007800	28.425407	0.000264	20.923897
2729.722844	-2.992300	2.689100	-8.045700	28.424516	0.000260	20.926793
2730.726962	-3.030300	2.684400	-8.133800	28.393362	0.000262	20.928612
2731.725800	-2.979500	2.680600	-7.986400	28.435499	0.000263	20.926947
2732.723324	-3.001800	2.677700	-8.036500	28.441785	0.000264	20.915261
2733.724795	-2.984700	2.673500	-7.978900	28.483870	0.000264	20.910225
2734.727568	-2.981200	2.669800	-7.956500	28.547622	0.000263	20.925588
2735.726408	-2.977400	2.666000	-7.937300	28.610099	0.000263	20.931137
2736.736913	-2.988100	2.660900	-7.950300	28.648473	0.000261	20.910994
2737.723489	-2.987800	2.657100	-7.938100	28.667939	0.000263	20.910211
2738.731909	-3.019300	2.652100	-8.006500	28.648587	0.000264	20.922487
2739.726820	-2.977800	2.651700	-7.895400	28.641143	0.000263	20.918309
2740.724558	-3.007000	2.645600	-7.954700	28.689288	0.000263	20.929815
2741.726343	-3.023300	2.640300	-7.981000	28.742762	0.000262	20.926779
2742.728649	-3.016600	2.636600	-7.952400	28.766284	0.000263	20.924395
2743.730067	-2.973400	2.631600	-7.823600	28.752074	0.000263	20.926676
2744.726688	-2.945900	2.629600	-7.745400	28.749593	0.000262	20.927970
2745.727770	-3.013800	2.621500	-7.899800	28.724174	0.000263	20.924178
2746.730387	-2.991800	2.618600	-7.832900	28.758282	0.000263	20.929136
2747.736310	-3.021900	2.613000	-7.895100	28.756118	0.000263	20.934068
2748.727974	-3.017800	2.607000	-7.866300	28.795684	0.000262	20.932198
2749.732183	-3.006300	2.602900	-7.824300	28.808418	0.000263	20.921319
2750.732531	-2.984100	2.598900	-7.753600	28.868578	0.000263	20.936875
2751.728587	-3.000600	2.593200	-7.778900	28.902197	0.000263	20.922856
2752.732343	-2.982100	2.587200	-7.713900	28.961588	0.000263	20.930532
2753.732157	-3.014900	2.580100	-7.778100	28.935460	0.000262	20.941666
2754.734494	-2.986500	2.576300	-7.693400	28.950469	0.000264	20.941140
2755.731608	-2.980100	2.572000	-7.664000	28.975820	0.000263	20.934914
2756.732786	-2.980800	2.567700	-7.652200	28.988692	0.000262	20.934606
2757.734438	-3.031200	2.558300	-7.752700	29.031415	0.000262	20.948252
2758.736081	-3.010800	2.553900	-7.687400	29.079009	0.000263	20.944998
2759.736670	-3.025700	2.548300	-7.709500	29.113653	0.000263	20.934862
2760.735391	-3.008200	2.544600	-7.654000	29.174824	0.000262	20.953826
2761.730530	-3.011300	2.536900	-7.638000	29.182047	0.000262	20.937873
2762.735244	-3.013400	2.531300	-7.626900	29.125658	0.000263	20.935580
2763.732473	-2.976000	2.525200	-7.513600	29.070296	0.000264	20.951865
2764.734321	-2.975200	2.520200	-7.496800	29.024864	0.000265	20.953504
2765.735011	-2.980800	2.514700	-7.494400	28.963811	0.000263	20.960270
2766.734106	-3.012900	2.506600	-7.550900	28.980320	0.000264	20.935655
2767.733187	-2.951200	2.502300	-7.383400	28.996080	0.000263	20.962909
2768.734592	-3.003000	2.494900	-7.490800	29.019330	0.000263	20.981590
