LabVIEW Measurement	
Writer_Version	2
Reader_Version	2
Separator	Tab
Decimal_Separator	.
Multi_Headings	No
X_Columns	One
Time_Pref	Absolute
Operator	admin
Description	Clolumns are: time, Current, Voltage, Power, Battery Temp, and Chamber Temp
Date	2024/08/16
Time	13:06:06.104549407958984375
***End_of_Header***	
	
Channels	6						
Samples	1	1	1	1	1	1	
Date	2024/08/31	2024/08/31	2024/08/31	2024/08/31	2024/08/31	2024/08/31	
Time	12:42:28.9631261825561523438	12:42:28.9710216522216796875	12:42:28.9780135154724121094	12:42:28.9438047409057617188	12:42:28.9438047409057617188	12:42:28.9438047409057617188	
X_Dimension	Time	Time	Time	Time	Time	Time	
X0	0.0000000000000000E+0	0.0000000000000000E+0	0.0000000000000000E+0	0.0000000000000000E+0	0.0000000000000000E+0	0.0000000000000000E+0	
Delta_X	1.000000	1.000000	1.000000	1.000000	1.000000	1.000000	
***End_of_Header***							
X_Value	Untitled	Untitled 1	Untitled 2	Untitled 3	Untitled 4	Untitled 5	Comment
0.000000	0.028923	4.110500	0.118930	21.047037	0.000948	20.732224
1.000276	-3.013900	3.944100	-11.885000	21.019885	0.000949	20.743948
2.001474	-3.015100	3.937500	-11.870000	21.035758	0.000947	20.738012
2.997942	-3.013100	3.931200	-11.843000	21.038030	0.000945	20.733172
4.002962	-2.979600	3.928300	-11.704000	21.030764	0.000945	20.734914
4.999772	-3.005300	3.924700	-11.794000	21.017564	0.000946	20.737359
6.000211	-2.999700	3.921400	-11.762000	21.027446	0.000944	20.733018
7.009076	-3.015200	3.919400	-11.816000	21.043939	0.000943	20.747619
8.000911	-3.003400	3.915300	-11.756000	21.056289	0.000943	20.754756
9.000669	-2.995500	3.914600	-11.725000	21.049351	0.000944	20.734064
10.003455	-2.993400	3.913300	-11.713000	21.047128	0.000940	20.752705
11.001727	-3.005100	3.910400	-11.750000	21.056216	0.000939	20.745673
12.000825	-2.982000	3.909800	-11.658000	21.061104	0.000938	20.741553
13.005659	-2.991100	3.907800	-11.687000	21.060826	0.000938	20.753604
14.002326	-2.999400	3.907200	-11.718000	21.060721	0.000938	20.727893
15.000566	-2.996200	3.905300	-11.700000	21.051493	0.000937	20.741423
16.005219	-3.002200	3.902900	-11.716000	21.081080	0.000937	20.737826
17.003716	-2.985500	3.903300	-11.654000	21.060026	0.000937	20.739526
18.001839	-3.005100	3.900900	-11.722000	21.086129	0.000934	20.731497
19.003973	-2.979100	3.899800	-11.617000	21.085754	0.000937	20.740130
20.002871	-3.019000	3.898400	-11.768000	21.090863	0.000934	20.737180
21.002653	-3.026500	3.898700	-11.799000	21.085255	0.000934	20.752434
22.004866	-2.999000	3.897600	-11.687000	21.115365	0.000934	20.748413
23.004404	-2.992500	3.897000	-11.661000	21.113574	0.000931	20.751363
24.003082	-3.010700	3.895400	-11.727000	21.109634	0.000932	20.773975
25.002180	-3.010300	3.895200	-11.724000	21.120105	0.000930	20.744145
26.004658	-2.982300	3.893500	-11.610000	21.126088	0.000930	20.742069
27.004980	-2.979400	3.894000	-11.601000	21.127191	0.000930	20.749336
28.007231	-2.989000	3.893200	-11.635000	21.137749	0.000930	20.771278
29.007866	-2.979700	3.892600	-11.598000	21.133729	0.000929	20.759670
30.005707	-2.987500	3.891800	-11.626000	21.172973	0.000930	20.775693
31.005766	-3.006700	3.890800	-11.697000	21.153693	0.000928	20.754984
32.008589	-3.010200	3.890000	-11.707000	21.167636	0.000929	20.748543
33.004978	-3.005700	3.890200	-11.692000	21.166344	0.000929	20.770958
34.006762	-3.023500	3.887300	-11.752000	21.170308	0.000928	20.756431
35.010112	-3.002200	3.888500	-11.672000	21.188991	0.000926	20.766111
36.006040	-2.990100	3.888000	-11.624000	21.189366	0.000926	20.764116
37.008581	-3.013300	3.886000	-11.709000	21.199590	0.000926	20.775767
38.007273	-2.991800	3.889200	-11.634000	21.205506	0.000925	20.770305
39.007437	-3.022000	3.885500	-11.742000	21.209397	0.000928	20.760920
40.007843	-3.005900	3.885900	-11.679000	21.224195	0.000924	20.760551
41.008086	-3.013500	3.885900	-11.709000	21.239910	0.000925	20.769160
42.008695	-2.997200	3.886300	-11.647000	21.244945	0.000926	20.739108
43.008387	-2.986400	3.886000	-11.604000	21.236593	0.000927	20.764893
44.008002	-3.009200	3.883500	-11.685000	21.240704	0.000924	20.777540
45.007792	-2.993500	3.884100	-11.626000	21.261288	0.000924	20.765416
46.010055	-3.015100	3.882100	-11.702000	21.262278	0.000924	20.777312
47.009865	-2.993700	3.882900	-11.623000	21.261386	0.000922	20.777368
48.010784	-2.967600	3.883300	-11.522000	21.250166	0.000921	20.772307
49.010005	-3.003100	3.882000	-11.656000	21.277354	0.000923	20.760151
50.007226	-2.996600	3.884100	-11.638000	21.266983	0.000921	20.759733
51.010767	-2.986900	3.882600	-11.596000	21.281995	0.000921	20.761475
52.012522	-2.986500	3.881900	-11.592000	21.312998	0.000923	20.782535
53.011948	-2.999100	3.880100	-11.636000	21.305194	0.000921	20.782788
54.015362	-2.997100	3.880900	-11.629000	21.307090	0.000920	20.787529
55.012304	-2.992700	3.880200	-11.610000	21.313767	0.000920	20.786149
56.011426	-3.019800	3.880300	-11.717000	21.323604	0.000922	20.792671
57.014122	-2.983800	3.879300	-11.574000	21.324422	0.000921	20.788274
58.014669	-3.000700	3.877600	-11.635000	21.346549	0.000920	20.775798
59.013272	-2.988700	3.879300	-11.592000	21.336916	0.000920	20.779911
60.016188	-3.014400	3.876500	-11.684000	21.351910	0.000919	20.785903
61.014052	-3.009700	3.877100	-11.667000	21.331629	0.000920	20.786476
62.013259	-2.987100	3.878300	-11.583000	21.369863	0.000918	20.778735
63.014853	-3.006600	3.877100	-11.655000	21.360065	0.000918	20.784105
64.013902	-3.008000	3.876600	-11.658000	21.379927	0.000919	20.772683
65.015664	-3.001900	3.876400	-11.635000	21.398754	0.000919	20.801477
66.014492	-2.992400	3.876800	-11.599000	21.398533	0.000918	20.777547
67.019682	-3.027600	3.874100	-11.727000	21.415741	0.000916	20.792394
68.016584	-3.002000	3.875900	-11.634000	21.414417	0.000916	20.786802
69.013741	-3.007000	3.875500	-11.653000	21.422653	0.000918	20.797887
70.017175	-3.001200	3.874300	-11.626000	21.428740	0.000917	20.782640
71.013819	-3.015800	3.874600	-11.684000	21.468065	0.000921	20.798755
72.013855	-3.015900	3.875800	-11.689000	21.447713	0.000917	20.794986
73.018553	-3.006300	3.873500	-11.643000	21.461733	0.000919	20.808065
74.016823	-3.006900	3.875100	-11.650000	21.444722	0.000916	20.794838
75.015070	-3.041600	3.873300	-11.780000	21.466896	0.000917	20.786679
76.018256	-3.010000	3.874500	-11.661000	21.475296	0.000917	20.776118
77.017853	-3.014800	3.873600	-11.676000	21.478312	0.000917	20.807110
78.015419	-2.995900	3.874300	-11.606000	21.494872	0.000916	20.804241
79.015234	-2.998800	3.873700	-11.616000	21.479031	0.000918	20.808304
80.014910	-3.011000	3.872100	-11.657000	21.511303	0.000917	20.806457
81.014915	-3.005100	3.873900	-11.641000	21.520984	0.000918	20.819937
82.015563	-3.011400	3.871600	-11.658000	21.519064	0.000915	20.789092
83.019144	-2.999500	3.871600	-11.612000	21.516067	0.000917	20.785619
84.016208	-2.996100	3.871300	-11.598000	21.533452	0.000917	20.797325
85.016007	-2.972700	3.871300	-11.508000	21.551033	0.000917	20.826297
86.017692	-3.003300	3.871400	-11.625000	21.540732	0.000915	20.821205
87.015317	-2.983900	3.872800	-11.556000	21.544522	0.000917	20.821679
88.014354	-2.986700	3.871500	-11.562000	21.559882	0.000917	20.811919
89.019019	-2.986500	3.871200	-11.561000	21.552707	0.000916	20.803317
90.017564	-3.017200	3.869200	-11.673000	21.570861	0.000917	20.797301
91.016063	-3.002100	3.870900	-11.619000	21.588294	0.000917	20.795780
92.017698	-3.001000	3.869800	-11.612000	21.590183	0.000914	20.800989
93.016280	-2.991900	3.871000	-11.580000	21.578891	0.000919	20.793483
94.017686	-2.995300	3.869000	-11.588000	21.605352	0.000914	20.798151
95.018417	-3.000800	3.868100	-11.605000	21.599217	0.000917	20.801494
96.021152	-2.975200	3.870100	-11.514000	21.614804	0.000916	20.778211
97.018106	-2.972900	3.869600	-11.503000	21.612115	0.000917	20.799703
98.018460	-3.007000	3.867800	-11.629000	21.616078	0.000916	20.786599
99.021544	-2.984500	3.868900	-11.546000	21.636410	0.000918	20.786556
100.019983	-3.001600	3.868300	-11.610000	21.641794	0.000917	20.808065
101.022197	-2.983400	3.866800	-11.536000	21.630878	0.000916	20.793823
102.019058	-2.984400	3.867200	-11.540000	21.656580	0.000915	20.775447
103.018988	-2.975200	3.867800	-11.507000	21.626165	0.000916	20.779623
104.021588	-2.988400	3.867700	-11.557000	21.643099	0.000917	20.788509
105.022577	-3.000000	3.866600	-11.598000	21.652273	0.000915	20.786311
106.025744	-2.994800	3.867200	-11.580000	21.672327	0.000915	20.786465
107.021348	-2.997500	3.866600	-11.589000	21.665466	0.000918	20.776279
108.022388	-2.997600	3.866200	-11.588000	21.679311	0.000917	20.782549
109.025991	-2.988300	3.867100	-11.554000	21.690812	0.000917	20.785049
110.024035	-3.003100	3.865300	-11.606000	21.681354	0.000918	20.784119
111.029618	-3.002400	3.866100	-11.607000	21.704545	0.000916	20.793577
112.029674	-3.003700	3.865000	-11.608000	21.703443	0.000917	20.778724
113.025519	-2.986500	3.865000	-11.542000	21.729434	0.000918	20.769648
114.030869	-2.981400	3.865900	-11.525000	21.711578	0.000918	20.780227
115.026685	-3.010500	3.865200	-11.635000	21.715368	0.000917	20.779753
116.027756	-3.003200	3.865000	-11.606000	21.745584	0.000918	20.767794
117.028599	-2.990500	3.864700	-11.557000	21.722850	0.000916	20.768275
118.028270	-3.002200	3.863600	-11.599000	21.719934	0.000917	20.777684
119.028944	-2.974200	3.865200	-11.495000	21.733747	0.000918	20.764956
120.030760	-3.008600	3.863500	-11.623000	21.739056	0.000918	20.757941
121.028735	-3.000800	3.863400	-11.593000	21.753073	0.000920	20.785246
122.028436	-3.000100	3.863100	-11.588000	21.743106	0.000916	20.765788
123.027552	-2.998200	3.863000	-11.580000	21.774687	0.000917	20.758514
124.028339	-2.998100	3.862300	-11.578000	21.780828	0.000917	20.774144
125.029604	-2.983200	3.864400	-11.527000	21.778810	0.000918	20.769753
126.031016	-2.998400	3.862700	-11.580000	21.769237	0.000917	20.763017
127.034451	-3.001900	3.862700	-11.594000	21.793749	0.000919	20.771429
128.031315	-2.988900	3.860800	-11.539000	21.786821	0.000917	20.758331
129.031315	-2.993000	3.861100	-11.556000	21.810754	0.000920	20.755732
130.035828	-3.001900	3.860600	-11.588000	21.801508	0.000919	20.756909
131.035331	-3.008400	3.861300	-11.616000	21.806122	0.000920	20.762476
132.032139	-2.994900	3.860600	-11.561000	21.828528	0.000920	20.745546
133.043181	-2.987100	3.861800	-11.534000	21.792482	0.000920	20.759255
134.036520	-3.010700	3.859600	-11.618000	21.817941	0.000919	20.735423
135.032956	-2.980400	3.860500	-11.504000	21.811210	0.000919	20.737221
136.044158	-3.009400	3.859600	-11.614000	21.810902	0.000921	20.757302
137.035676	-2.993600	3.860800	-11.556000	21.826019	0.000918	20.744457
138.034663	-2.987200	3.860600	-11.532000	21.839922	0.000920	20.753157
139.038218	-2.994900	3.860300	-11.560000	21.858330	0.000920	20.746926
140.043398	-2.994800	3.858500	-11.554000	21.856509	0.000919	20.751742
141.037816	-2.989800	3.858100	-11.534000	21.861517	0.000921	20.744426
142.035327	-2.982500	3.860600	-11.511000	21.864040	0.000922	20.748373
143.042400	-2.971900	3.859500	-11.469000	21.861074	0.000921	20.746828
144.035549	-2.989300	3.858200	-11.533000	21.872419	0.000922	20.745381
145.043063	-3.014600	3.858600	-11.630000	21.873588	0.000922	20.745128
146.034963	-3.020800	3.857600	-11.652000	21.903708	0.000921	20.740190
147.036317	-2.997300	3.859200	-11.566000	21.900768	0.000921	20.732978
148.040584	-3.023900	3.857900	-11.665000	21.897199	0.000921	20.744580
149.041782	-2.995100	3.857200	-11.552000	21.939537	0.000922	20.756613
150.040880	-2.986800	3.857700	-11.520000	21.914554	0.000925	20.747727
151.037589	-3.006900	3.856900	-11.596000	21.937119	0.000923	20.741865
152.038071	-3.016800	3.857000	-11.635000	21.932463	0.000923	20.732462
153.038977	-3.021800	3.856100	-11.652000	21.947565	0.000923	20.731932
154.036401	-2.994700	3.856800	-11.549000	21.925210	0.000924	20.721408
155.042771	-3.009800	3.855500	-11.603000	21.929849	0.000924	20.737432
156.042322	-3.005000	3.856800	-11.588000	21.950438	0.000924	20.728170
157.040002	-3.020700	3.856200	-11.646000	21.925259	0.000923	20.735209
158.042954	-3.009000	3.854800	-11.598000	21.953108	0.000926	20.746965
159.043680	-2.994700	3.855700	-11.545000	21.951059	0.000925	20.731162
160.043087	-2.981000	3.856200	-11.495000	21.948028	0.000926	20.744724
161.046864	-3.019900	3.854900	-11.640000	21.955231	0.000928	20.717794
162.045302	-3.000200	3.853600	-11.561000	21.955778	0.000926	20.728300
163.052949	-3.003500	3.854800	-11.576000	21.956701	0.000926	20.719266
164.045366	-3.002300	3.854800	-11.570000	21.958049	0.000927	20.729624
165.054687	-2.992200	3.853900	-11.531000	21.962834	0.000927	20.717819
166.046239	-3.000900	3.853000	-11.561000	21.982255	0.000929	20.740579
167.047893	-3.010700	3.854000	-11.602000	21.977869	0.000927	20.742827
168.044615	-2.986300	3.854100	-11.509000	21.975101	0.000928	20.718718
169.046176	-2.962700	3.856100	-11.424000	21.999233	0.000929	20.730548
170.042959	-2.996800	3.854300	-11.548000	22.015190	0.000926	20.739410
171.044311	-2.994500	3.853900	-11.538000	22.011997	0.000930	20.727204
172.045426	-2.995300	3.853300	-11.540000	22.016464	0.000929	20.729304
173.047632	-3.011600	3.853100	-11.603000	22.030199	0.000928	20.740210
174.047738	-2.999400	3.852200	-11.553000	22.037009	0.000930	20.734699
175.046015	-2.972900	3.854100	-11.456000	22.053815	0.000929	20.718805
176.047219	-2.984100	3.853500	-11.498000	22.039770	0.000931	20.708064
177.048664	-2.996700	3.851400	-11.541000	22.038430	0.000930	20.723793
178.051042	-2.980300	3.853400	-11.482000	22.043886	0.000932	20.713607
179.047363	-2.985500	3.851800	-11.498000	22.024873	0.000931	20.719705
180.048508	-2.986500	3.851700	-11.503000	22.027112	0.000931	20.701555
181.049771	-2.982000	3.851600	-11.485000	22.030059	0.000931	20.702135
182.049724	-2.975100	3.851200	-11.457000	22.072816	0.000933	20.718861
183.048844	-2.987100	3.851800	-11.504000	22.074212	0.000933	20.730217
184.051486	-2.998200	3.851600	-11.546000	22.076107	0.000933	20.710776
185.048398	-3.008400	3.850100	-11.582000	22.102433	0.000932	20.718166
186.050272	-2.998300	3.850300	-11.543000	22.087284	0.000934	20.716750
187.050484	-2.996300	3.850600	-11.536000	22.097827	0.000934	20.705493
188.051538	-2.975900	3.849900	-11.455000	22.110916	0.000936	20.720969
189.050772	-2.990700	3.849600	-11.511000	22.112565	0.000933	20.716455
190.050451	-3.003400	3.850000	-11.562000	22.112565	0.000936	20.723568
191.051747	-3.016100	3.847500	-11.602000	22.127819	0.000935	20.721770
192.051216	-3.014400	3.848400	-11.600000	22.130464	0.000936	20.720625
193.050343	-3.003300	3.848400	-11.557000	22.139143	0.000937	20.710821
194.051992	-2.984600	3.848800	-11.487000	22.129376	0.000937	20.719536
195.051408	-3.012700	3.847300	-11.590000	22.151863	0.000939	20.708858
196.052133	-3.006700	3.847500	-11.567000	22.171028	0.000937	20.694379
197.053147	-2.992900	3.848700	-11.516000	22.161311	0.000938	20.709307
198.051712	-3.022800	3.847000	-11.626000	22.150597	0.000939	20.697157
199.052293	-2.993000	3.848500	-11.518000	22.169116	0.000938	20.719493
200.055197	-2.992300	3.847000	-11.511000	22.171638	0.000938	20.699258
201.052911	-2.983000	3.848500	-11.479000	22.183429	0.000938	20.708692
202.054023	-2.988900	3.847400	-11.498000	22.176756	0.000941	20.693476
203.052711	-2.987700	3.847000	-11.493000	22.219192	0.000940	20.706093
204.053400	-3.003500	3.845400	-11.548000	22.201277	0.000940	20.702855
205.054847	-3.000100	3.847200	-11.541000	22.237595	0.000940	20.701759
206.054512	-3.019300	3.845400	-11.608000	22.222742	0.000941	20.695422
207.062623	-2.978900	3.846600	-11.457000	22.219606	0.000942	20.709353
208.057335	-3.002900	3.844900	-11.545000	22.253629	0.000944	20.696476
209.057858	-2.984200	3.846200	-11.477000	22.245456	0.000942	20.707733
210.060750	-2.994400	3.845100	-11.513000	22.227958	0.000945	20.703016
211.059847	-3.004100	3.845000	-11.550000	22.242842	0.000945	20.690891
212.056861	-2.986300	3.847100	-11.487000	22.234139	0.000945	20.707783
213.059824	-3.022600	3.843500	-11.616000	22.234416	0.000945	20.685299
214.057549	-3.005400	3.844400	-11.552000	22.224693	0.000944	20.685994
215.058300	-3.003300	3.844600	-11.546000	22.232547	0.000945	20.699549
216.061278	-3.010600	3.844300	-11.573000	22.246034	0.000944	20.685077
217.058841	-3.002300	3.843800	-11.539000	22.241022	0.000944	20.687171
218.060147	-2.983500	3.844400	-11.468000	22.277085	0.000947	20.700996
219.065089	-3.012800	3.843600	-11.579000	22.262454	0.000946	20.697726
220.060013	-3.006500	3.843500	-11.554000	22.250124	0.000946	20.690122
221.060868	-3.002300	3.842500	-11.535000	22.284360	0.000946	20.683623
222.062835	-3.021000	3.841000	-11.602000	22.269017	0.000946	20.677269
223.062207	-3.005000	3.842800	-11.546000	22.276440	0.000948	20.695134
224.063353	-2.985300	3.843700	-11.474000	22.291796	0.000949	20.670205
225.063631	-2.984000	3.844800	-11.472000	22.303635	0.000948	20.698657
226.077151	-3.010800	3.841300	-11.565000	22.289306	0.000949	20.695215
227.063453	-2.976600	3.843300	-11.439000	22.272560	0.000950	20.689826
228.064896	-2.991800	3.841900	-11.493000	22.320534	0.000949	20.674800
229.066622	-3.007900	3.842000	-11.555000	22.314386	0.000951	20.673384
230.065646	-3.010400	3.842200	-11.565000	22.319808	0.000950	20.701102
231.065286	-2.996700	3.841500	-11.511000	22.341573	0.000952	20.684487
232.062227	-2.980500	3.841300	-11.448000	22.341720	0.000951	20.686057
233.065107	-3.003400	3.840400	-11.532000	22.359370	0.000952	20.689981
234.064734	-2.998700	3.841300	-11.518000	22.347932	0.000952	20.675681
235.064471	-3.010900	3.841200	-11.565000	22.361411	0.000954	20.675903
236.064903	-2.987900	3.840900	-11.474000	22.356757	0.000955	20.696848
237.065904	-3.020100	3.839900	-11.595000	22.371990	0.000954	20.676538
238.064753	-2.996200	3.840200	-11.505000	22.408263	0.000953	20.682517
239.066654	-2.999900	3.839800	-11.518000	22.398106	0.000954	20.688941
240.070727	-2.998400	3.838800	-11.509000	22.426736	0.000955	20.670195
241.068157	-2.986200	3.840100	-11.465000	22.437208	0.000956	20.693487
242.070039	-3.018400	3.839300	-11.586000	22.432856	0.000954	20.675376
243.065477	-2.988700	3.839200	-11.474000	22.416628	0.000957	20.693265
244.070933	-3.009600	3.838400	-11.551000	22.425575	0.000956	20.673300
245.068344	-3.005200	3.839000	-11.536000	22.431755	0.000958	20.682808
246.072371	-3.015900	3.837900	-11.572000	22.417704	0.000955	20.677747
247.071074	-3.006100	3.837500	-11.535000	22.427199	0.000958	20.676349
248.069511	-2.983000	3.839200	-11.451000	22.432309	0.000958	20.673879
249.070454	-2.988400	3.837300	-11.466000	22.452398	0.000960	20.671712
250.069255	-2.992200	3.837600	-11.482000	22.477842	0.000960	20.668744
251.070557	-3.009200	3.836200	-11.542000	22.475107	0.000958	20.666478
252.075286	-3.009700	3.836300	-11.544000	22.476324	0.000960	20.668645
253.076988	-3.034600	3.834900	-11.635000	22.505180	0.000959	20.683795
254.071973	-3.004500	3.836100	-11.525000	22.475710	0.000960	20.651908
255.075301	-2.991400	3.836600	-11.475000	22.462551	0.000962	20.671923
256.075853	-3.005800	3.836000	-11.529000	22.450788	0.000961	20.659193
257.073896	-3.016300	3.836200	-11.570000	22.473792	0.000963	20.660419
258.080288	-3.002900	3.835000	-11.515000	22.488132	0.000963	20.678101
259.076038	-2.991500	3.835400	-11.472000	22.491218	0.000962	20.677399
260.072356	-3.006200	3.832800	-11.521000	22.499667	0.000963	20.648398
261.078354	-3.011100	3.834000	-11.543000	22.480132	0.000965	20.659657
262.074865	-2.984100	3.834700	-11.442000	22.484948	0.000963	20.654047
263.078053	-2.976100	3.834300	-11.410000	22.516816	0.000966	20.674585
264.077574	-3.006200	3.833100	-11.521000	22.504987	0.000966	20.661315
265.072263	-3.000500	3.833700	-11.502000	22.528887	0.000967	20.662017
266.073725	-3.003200	3.833700	-11.513000	22.529466	0.000967	20.645999
267.077098	-2.980200	3.834700	-11.428000	22.564917	0.000967	20.662066
268.076595	-2.999900	3.831600	-11.493000	22.562434	0.000970	20.661002
269.074142	-3.009500	3.832700	-11.533000	22.571632	0.000968	20.643660
270.079027	-3.000100	3.832200	-11.496000	22.603270	0.000970	20.659228
271.074375	-3.001900	3.832700	-11.504000	22.558376	0.000970	20.654567
272.076672	-2.983100	3.833500	-11.434000	22.559201	0.000969	20.656815
273.076484	-2.999500	3.831600	-11.492000	22.570594	0.000970	20.642620
274.076396	-3.001000	3.832800	-11.502000	22.582756	0.000969	20.651957
275.077271	-3.014000	3.831800	-11.548000	22.588756	0.000972	20.668400
276.075991	-2.997400	3.830700	-11.482000	22.574929	0.000974	20.647910
277.076686	-2.990400	3.832100	-11.457000	22.582910	0.000970	20.625081
278.076802	-2.991400	3.832200	-11.462000	22.570047	0.000972	20.650608
279.084772	-2.993800	3.830600	-11.466000	22.568837	0.000973	20.647025
280.082686	-2.990300	3.831100	-11.456000	22.550465	0.000973	20.655652
281.078656	-3.003100	3.830200	-11.501000	22.566586	0.000974	20.660893
282.079524	-2.997700	3.830000	-11.480000	22.566814	0.000974	20.633143
283.081192	-3.007000	3.831600	-11.520000	22.560088	0.000974	20.647745
284.081102	-2.997800	3.830800	-11.483000	22.539804	0.000974	20.654458
285.079682	-2.995500	3.829900	-11.471000	22.551240	0.000973	20.663067
286.077445	-2.991800	3.829900	-11.458000	22.577131	0.000977	20.652487
287.079704	-2.989900	3.829700	-11.450000	22.581914	0.000977	20.637362
288.079851	-2.983000	3.828000	-11.418000	22.612391	0.000976	20.638489
289.078956	-2.985800	3.828900	-11.431000	22.630201	0.000978	20.642104
290.080483	-2.991100	3.828500	-11.451000	22.650305	0.000977	20.639954
291.080177	-3.004500	3.828500	-11.501000	22.655494	0.000979	20.659853
292.079030	-2.993300	3.827400	-11.455000	22.636306	0.000979	20.653910
293.087448	-2.994700	3.828300	-11.463000	22.632397	0.000981	20.625334
294.079921	-2.998400	3.827800	-11.476000	22.628192	0.000981	20.646730
295.077529	-2.989600	3.827300	-11.441000	22.635742	0.000980	20.653819
296.081359	-3.014100	3.825600	-11.530000	22.627417	0.000982	20.650696
297.081448	-2.977300	3.825900	-11.390000	22.626870	0.000983	20.630231
298.081699	-2.985800	3.826600	-11.424000	22.634911	0.000983	20.645399
299.083544	-3.008800	3.825900	-11.510000	22.627596	0.000982	20.635226
300.081885	-2.991200	3.825900	-11.443000	22.618332	0.000982	20.656295
301.083920	-3.006000	3.825200	-11.498000	22.640507	0.000981	20.641521
302.082787	-3.004300	3.825700	-11.493000	22.656424	0.000982	20.649877
303.082456	-2.979500	3.824900	-11.395000	22.663335	0.000984	20.636410
304.083070	-3.009500	3.825100	-11.509000	22.672158	0.000985	20.634815
305.086695	-3.013200	3.824500	-11.523000	22.680875	0.000985	20.642125
306.085734	-2.979100	3.825000	-11.394000	22.693803	0.000986	20.637056
307.085923	-2.955100	3.825700	-11.304000	22.690791	0.000987	20.649688
308.085666	-2.989100	3.825100	-11.432000	22.686187	0.000988	20.635591
309.088418	-2.990300	3.824400	-11.435000	22.687982	0.000986	20.643080
310.084799	-2.977700	3.824600	-11.387000	22.712075	0.000986	20.650619
311.086466	-2.997400	3.824300	-11.462000	22.725346	0.000986	20.636410
312.094076	-3.027000	3.821700	-11.566000	22.744834	0.000989	20.646449
313.092408	-2.996700	3.823300	-11.456000	22.746956	0.000990	20.633399
314.088806	-3.006300	3.823200	-11.492000	22.760006	0.000989	20.639835
315.090843	-2.986300	3.822300	-11.413000	22.778098	0.000988	20.656063
316.088562	-2.990000	3.823400	-11.431000	22.765423	0.000989	20.647159
317.089560	-2.994900	3.823000	-11.447000	22.776383	0.000990	20.658139
318.087852	-3.012600	3.821200	-11.510000	22.768964	0.000992	20.647861
319.090530	-3.001100	3.822500	-11.470000	22.800320	0.000990	20.658410
320.088013	-2.996000	3.822900	-11.452000	22.810838	0.000991	20.641444
321.092405	-2.984700	3.821500	-11.405000	22.809516	0.000993	20.644861
322.089733	-3.023000	3.821300	-11.551000	22.824743	0.000995	20.648736
323.090514	-2.990000	3.822100	-11.427000	22.838020	0.000994	20.647338
324.089789	-3.011400	3.820700	-11.505000	22.865422	0.000994	20.649186
325.093478	-2.987200	3.822000	-11.416000	22.857759	0.000994	20.650517
326.090685	-2.986000	3.819800	-11.405000	22.852791	0.000997	20.660240
327.090822	-2.982000	3.819900	-11.389000	22.876389	0.000995	20.649741
328.093544	-3.005400	3.818800	-11.476000	22.874299	0.000996	20.651915
329.091142	-3.016900	3.817400	-11.516000	22.884337	0.000997	20.651539
330.092258	-3.006300	3.818700	-11.480000	22.897662	0.000998	20.655407
331.088901	-3.023400	3.817400	-11.540000	22.870741	0.000998	20.636494
332.091579	-3.028100	3.817400	-11.558000	22.892007	0.000999	20.622710
333.101512	-3.011400	3.818500	-11.498000	22.902002	0.000997	20.647900
334.093008	-3.018400	3.816200	-11.518000	22.891794	0.000997	20.655691
335.095168	-3.001000	3.817600	-11.455000	22.882745	0.001001	20.631924
336.100327	-3.010900	3.816400	-11.490000	22.886303	0.001000	20.634541
337.093436	-2.997200	3.819000	-11.445000	22.900158	0.000999	20.650795
338.097912	-3.005300	3.817300	-11.471000	22.904989	0.001001	20.634770
339.093685	-3.020300	3.815500	-11.523000	22.906336	0.001002	20.646551
340.094875	-2.995900	3.817200	-11.434000	22.925421	0.001003	20.650974
341.099546	-3.023200	3.815600	-11.533000	22.916902	0.001003	20.637222
342.095211	-2.989600	3.815900	-11.407000	22.914904	0.001003	20.640436
343.095308	-2.983800	3.816200	-11.386000	22.934658	0.001004	20.664497
344.095864	-2.993000	3.816800	-11.422000	22.920467	0.001002	20.636052
345.099715	-2.997200	3.815100	-11.434000	22.940215	0.001004	20.663900
346.095845	-2.968200	3.817900	-11.331000	22.947787	0.001005	20.661055
347.099030	-2.994800	3.814300	-11.422000	22.939349	0.001004	20.642642
348.096978	-3.009500	3.814700	-11.478000	22.976378	0.001005	20.634222
349.100718	-3.012400	3.813800	-11.487000	22.948218	0.001006	20.635880
350.096588	-3.030300	3.812500	-11.552000	22.941242	0.001006	20.653074
351.097602	-3.013800	3.813900	-11.492000	22.961150	0.001007	20.641725
352.097519	-3.014600	3.813000	-11.493000	22.966430	0.001007	20.629943
353.096026	-2.998600	3.812900	-11.433000	22.972558	0.001007	20.638929
354.094765	-3.003900	3.812200	-11.450000	22.944260	0.001008	20.648986
355.097301	-2.997500	3.813300	-11.430000	22.965834	0.001006	20.658273
356.099618	-2.992700	3.813100	-11.409000	22.963597	0.001005	20.645600
357.100925	-2.959300	3.814000	-11.286000	22.972964	0.001007	20.659728
358.097456	-3.007600	3.812500	-11.465000	22.950812	0.001009	20.653654
359.099205	-3.007200	3.810600	-11.458000	22.953382	0.001011	20.644374
360.099382	-2.991600	3.811500	-11.401000	22.963352	0.001011	20.661003
361.096920	-2.996000	3.811900	-11.419000	22.970377	0.001010	20.654764
362.099930	-2.992900	3.811500	-11.407000	22.952572	0.001011	20.656840
363.097359	-2.994800	3.810200	-11.409000	22.946648	0.001010	20.661337
364.096797	-3.004800	3.810800	-11.450000	22.967864	0.001010	20.666946
365.099651	-2.991400	3.808900	-11.393000	22.980869	0.001012	20.639670
366.099245	-2.974600	3.811900	-11.338000	22.985658	0.001012	20.642098
367.097891	-2.984300	3.809400	-11.367000	22.998159	0.001012	20.645140
368.097306	-2.997900	3.809600	-11.420000	23.013660	0.001012	20.637436
369.099714	-2.991200	3.808800	-11.392000	23.008847	0.001014	20.641623
370.098909	-3.017100	3.808000	-11.488000	23.036326	0.001012	20.644500
371.098950	-3.005900	3.809100	-11.449000	23.032109	0.001013	20.646439
372.101269	-3.005800	3.808200	-11.445000	23.062826	0.001013	20.642129
373.099662	-3.013500	3.807400	-11.472000	23.051689	0.001016	20.650886
374.100004	-3.011500	3.807200	-11.464000	23.092767	0.001016	20.647950
375.099450	-3.003900	3.806800	-11.434000	23.089055	0.001017	20.639488
376.099231	-2.976600	3.810300	-11.340000	23.104941	0.001017	20.658253
377.110688	-3.007600	3.806300	-11.447000	23.103626	0.001018	20.657884
378.101687	-3.031100	3.807200	-11.539000	23.109280	0.001019	20.663075
379.100754	-3.016800	3.806600	-11.482000	23.098071	0.001018	20.670810
380.102542	-3.010200	3.806900	-11.457000	23.101905	0.001019	20.674653
381.102088	-2.996300	3.807200	-11.406000	23.106637	0.001019	20.682240
382.103615	-3.003300	3.805900	-11.429000	23.127335	0.001018	20.637542
383.103990	-2.979300	3.806500	-11.338000	23.114307	0.001019	20.667164
384.103282	-3.019000	3.805300	-11.487000	23.120735	0.001019	20.678823
385.102726	-2.980200	3.805200	-11.339000	23.117374	0.001020	20.663599
386.102322	-2.993700	3.805200	-11.390000	23.123199	0.001021	20.651417
387.104167	-2.996900	3.804200	-11.400000	23.086462	0.001022	20.665341
388.104366	-2.991100	3.804600	-11.379000	23.086363	0.001022	20.686582
389.103524	-3.024800	3.803300	-11.503000	23.085971	0.001021	20.672911
390.103104	-3.000400	3.805000	-11.414000	23.071971	0.001023	20.672633
391.104349	-2.998000	3.804500	-11.405000	23.104899	0.001022	20.673859
392.105964	-2.990600	3.804600	-11.376000	23.124790	0.001024	20.652537
393.104723	-3.001200	3.802800	-11.412000	23.116101	0.001023	20.664221
394.105288	-3.004100	3.803700	-11.426000	23.133080	0.001024	20.662267
395.111521	-3.004500	3.801600	-11.420000	23.134703	0.001024	20.647771
396.104370	-2.994200	3.801800	-11.382000	23.136595	0.001024	20.676223
397.104592	-2.990700	3.801800	-11.369000	23.156297	0.001025	20.670835
398.105962	-3.007100	3.802000	-11.432000	23.145806	0.001026	20.666012
399.104392	-3.003300	3.800900	-11.414000	23.158901	0.001025	20.678187
400.107046	-3.010600	3.803300	-11.448000	23.160377	0.001026	20.674924
401.106627	-3.003600	3.800300	-11.414000	23.189608	0.001024	20.671499
402.106387	-2.985600	3.801400	-11.349000	23.186499	0.001027	20.690196
403.113698	-3.019300	3.800500	-11.474000	23.198825	0.001027	20.684056
404.105558	-2.990500	3.801100	-11.366000	23.187347	0.001026	20.673027
405.112789	-3.014400	3.800200	-11.453000	23.203231	0.001025	20.679936
406.106936	-2.996800	3.799700	-11.386000	23.207587	0.001027	20.691415
407.113713	-2.998400	3.799400	-11.392000	23.205180	0.001026	20.682363
408.108581	-2.980900	3.800600	-11.328000	23.233912	0.001028	20.687449
409.109373	-3.002600	3.800400	-11.409000	23.250072	0.001027	20.684678
410.112831	-2.992200	3.799400	-11.367000	23.210311	0.001026	20.674228
411.112845	-3.007100	3.799900	-11.426000	23.219823	0.001026	20.682813
412.110615	-3.013300	3.798600	-11.445000	23.234417	0.001029	20.682265
413.112027	-2.985700	3.799000	-11.342000	23.217229	0.001029	20.690172
414.115255	-2.991300	3.798700	-11.362000	23.226895	0.001029	20.685159
415.110921	-3.014100	3.797300	-11.444000	23.261630	0.001030	20.682985
416.116023	-2.982600	3.797200	-11.324000	23.259713	0.001030	20.693393
417.114366	-2.992400	3.797400	-11.362000	23.235265	0.001030	20.690228
418.115822	-3.012500	3.797100	-11.437000	23.228346	0.001030	20.676181
419.117584	-3.011900	3.796200	-11.433000	23.217611	0.001031	20.682019
420.114975	-2.994600	3.797000	-11.370000	23.217464	0.001033	20.690407
421.114405	-3.020100	3.794800	-11.460000	23.212978	0.001032	20.702034
422.117413	-3.016800	3.794700	-11.446000	23.229913	0.001034	20.680122
423.115597	-3.012500	3.794800	-11.431000	23.244622	0.001032	20.694390
424.117636	-2.999800	3.795400	-11.385000	23.267616	0.001034	20.697994
425.115082	-2.997200	3.794500	-11.372000	23.261939	0.001033	20.683294
426.118107	-3.025700	3.794400	-11.480000	23.290302	0.001034	20.704608
427.115884	-2.995600	3.794500	-11.366000	23.284673	0.001033	20.693751
428.115991	-3.000200	3.793500	-11.380000	23.278327	0.001034	20.703987
429.116862	-2.992600	3.793600	-11.351000	23.293883	0.001037	20.693498
430.117876	-3.006500	3.793300	-11.403000	23.310327	0.001035	20.705711
431.114685	-2.988200	3.793000	-11.334000	23.328224	0.001034	20.705156
432.119772	-2.986900	3.793700	-11.331000	23.319095	0.001034	20.707861
433.116212	-3.009700	3.791700	-11.411000	23.315587	0.001035	20.708139
434.116318	-2.992900	3.790800	-11.344000	23.317276	0.001037	20.669999
435.118294	-3.000500	3.791500	-11.375000	23.327211	0.001037	20.675215
436.115433	-2.981100	3.793000	-11.306000	23.330596	0.001037	20.720812
437.119051	-3.000100	3.791100	-11.372000	23.324355	0.001037	20.711711
438.116004	-3.011300	3.790700	-11.413000	23.327341	0.001040	20.709487
439.118263	-2.960900	3.792900	-11.229000	23.334339	0.001038	20.729779
440.114341	-2.988600	3.791100	-11.329000	23.356746	0.001038	20.706716
441.118731	-3.003400	3.790100	-11.381000	23.333190	0.001037	20.692589
442.115714	-2.993700	3.789400	-11.343000	23.346892	0.001038	20.703478
443.117840	-3.008200	3.789800	-11.400000	23.364926	0.001038	20.698792
444.117801	-2.974400	3.790400	-11.273000	23.368164	0.001040	20.704409
445.115742	-2.992800	3.789900	-11.341000	23.372144	0.001039	20.694647
446.119078	-3.000600	3.789700	-11.370000	23.353368	0.001040	20.717556
447.118504	-2.992200	3.789000	-11.336000	23.355643	0.001038	20.726000
448.117516	-3.002200	3.788800	-11.374000	23.349184	0.001039	20.696765
449.118806	-3.008400	3.788700	-11.397000	23.323269	0.001038	20.714890
450.118397	-2.989900	3.787900	-11.325000	23.343409	0.001038	20.712315
451.118684	-3.013000	3.787100	-11.409000	23.345014	0.001039	20.705389
452.120958	-2.994200	3.788800	-11.343000	23.333383	0.001042	20.729769
453.122259	-2.983300	3.787100	-11.298000	23.329819	0.001041	20.700590
454.121589	-3.000000	3.786800	-11.359000	23.361940	0.001042	20.692954
455.122324	-2.997000	3.787200	-11.348000	23.385545	0.001043	20.715666
456.120255	-3.003900	3.786800	-11.375000	23.380390	0.001043	20.719509
457.121855	-2.991200	3.786300	-11.323000	23.407264	0.001041	20.701873
458.120891	-3.010500	3.786100	-11.397000	23.423324	0.001041	20.721290
459.121233	-3.000100	3.785700	-11.357000	23.436415	0.001043	20.711651
460.125332	-3.007000	3.784100	-11.376000	23.448714	0.001042	20.716393
461.121920	-3.010000	3.785100	-11.392000	23.435648	0.001043	20.726530
462.122862	-3.009100	3.784300	-11.386000	23.460768	0.001045	20.716622
463.126226	-2.995100	3.785100	-11.336000	23.482903	0.001044	20.711782
464.124421	-3.007100	3.784300	-11.378000	23.458231	0.001046	20.735891
465.124668	-2.992200	3.783800	-11.321000	23.445459	0.001045	20.710759
466.127456	-2.992700	3.783600	-11.322000	23.446552	0.001042	20.717071
467.128312	-3.003600	3.783900	-11.365000	23.476305	0.001044	20.722238
468.123963	-2.994100	3.783200	-11.326000	23.490969	0.001044	20.735515
469.127246	-2.992300	3.782600	-11.318000	23.509547	0.001046	20.740387
470.127548	-3.007700	3.782100	-11.375000	23.518933	0.001045	20.744581
471.124821	-2.992000	3.782300	-11.315000	23.546768	0.001046	20.730282
472.126663	-2.978200	3.783200	-11.265000	23.543555	0.001047	20.733225
473.127399	-3.009700	3.780600	-11.377000	23.561333	0.001044	20.729709
474.128305	-2.993900	3.780700	-11.318000	23.563305	0.001046	20.753025
475.127058	-2.971000	3.781600	-11.235000	23.545478	0.001048	20.737525
476.126722	-2.971900	3.781000	-11.236000	23.554661	0.001046	20.744360
477.127748	-2.998900	3.780800	-11.337000	23.554399	0.001047	20.716594
478.128967	-3.007400	3.779600	-11.366000	23.567913	0.001048	20.724451
479.128088	-2.998400	3.779200	-11.331000	23.574412	0.001047	20.734286
480.128189	-2.980700	3.779300	-11.264000	23.564553	0.001047	20.716815
481.129277	-2.988200	3.780200	-11.295000	23.581360	0.001047	20.744096
482.129084	-3.004700	3.777300	-11.349000	23.589106	0.001047	20.730525
483.128056	-2.997200	3.778800	-11.324000	23.601705	0.001048	20.741259
484.128246	-3.005000	3.778800	-11.353000	23.631527	0.001049	20.737964
485.129614	-2.988100	3.779000	-11.291000	23.626153	0.001049	20.735895
486.128157	-2.991400	3.778500	-11.302000	23.622965	0.001047	20.738863
487.131740	-2.976600	3.778500	-11.245000	23.628721	0.001050	20.739892
488.129632	-2.987400	3.777900	-11.285000	23.592449	0.001047	20.740988
489.129344	-2.979300	3.776800	-11.251000	23.590557	0.001048	20.734350
490.129607	-2.988200	3.776100	-11.282000	23.616399	0.001049	20.761680
491.129725	-2.997900	3.775800	-11.318000	23.621178	0.001050	20.740391
492.128918	-2.995000	3.775700	-11.308000	23.633304	0.001050	20.763928
493.129991	-2.983600	3.775600	-11.264000	23.626381	0.001049	20.754142
494.128382	-2.991400	3.775100	-11.291000	23.614132	0.001050	20.732853
495.131445	-3.007700	3.774600	-11.350000	23.635220	0.001050	20.748779
496.131488	-2.985000	3.776200	-11.270000	23.649630	0.001050	20.760380
497.129337	-2.973700	3.774800	-11.224000	23.667487	0.001052	20.750781
498.132086	-2.985100	3.775000	-11.268000	23.674027	0.001051	20.763503
499.129994	-2.990100	3.773500	-11.282000	23.690686	0.001052	20.754599
500.128804	-3.001200	3.772800	-11.321000	23.692227	0.001049	20.749032
501.132522	-3.019400	3.771500	-11.386000	23.691999	0.001052	20.759235
502.131874	-2.973000	3.773800	-11.219000	23.706937	0.001050	20.749555
503.131797	-2.990000	3.772900	-11.280000	23.725333	0.001051	20.756144
504.130585	-3.017200	3.772600	-11.380000	23.749452	0.001050	20.725797
505.135490	-3.010200	3.773100	-11.356000	23.733071	0.001052	20.758687
506.130711	-2.979100	3.773000	-11.239000	23.735418	0.001052	20.752506
507.130291	-3.020600	3.770300	-11.387000	23.684439	0.001053	20.748811
508.133739	-2.977300	3.772500	-11.231000	23.667886	0.001050	20.759717
509.131164	-2.998100	3.771000	-11.305000	23.645110	0.001052	20.764384
510.130541	-3.011900	3.770300	-11.355000	23.641001	0.001052	20.765006
511.140858	-2.995800	3.771500	-11.298000	23.623329	0.001053	20.768627
512.132849	-3.004500	3.770800	-11.328000	23.660694	0.001053	20.774317
513.133194	-3.017600	3.768600	-11.371000	23.655785	0.001053	20.755646
514.139123	-2.989200	3.770200	-11.268000	23.624780	0.001053	20.762021
515.132686	-3.020100	3.768200	-11.379000	23.643723	0.001053	20.765365
516.133849	-3.009600	3.768600	-11.341000	23.610829	0.001053	20.767001
517.134571	-2.985300	3.769800	-11.253000	23.601727	0.001051	20.782059
518.134319	-2.986500	3.768700	-11.255000	23.605314	0.001053	20.768111
519.134757	-2.997100	3.768500	-11.292000	23.606880	0.001056	20.764940
520.133501	-3.002000	3.767900	-11.310000	23.615296	0.001053	20.764367
521.133685	-3.002700	3.768700	-11.315000	23.648632	0.001054	20.777872
522.136181	-2.999800	3.766200	-11.297000	23.651340	0.001054	20.775845
523.135530	-3.002500	3.767000	-11.309000	23.665651	0.001053	20.760795
524.136603	-2.996400	3.768300	-11.290000	23.709137	0.001053	20.767409
525.135643	-3.008500	3.765800	-11.327000	23.725960	0.001055	20.764834
526.135301	-2.999000	3.765800	-11.293000	23.750005	0.001053	20.783727
527.140592	-2.985200	3.765800	-11.241000	23.748839	0.001053	20.764065
528.137401	-2.994700	3.765200	-11.275000	23.737766	0.001056	20.800379
529.137235	-3.002300	3.766200	-11.305000	23.754987	0.001055	20.774971
530.144510	-2.987700	3.765900	-11.251000	23.737163	0.001055	20.768954
531.139610	-2.976500	3.763800	-11.202000	23.705378	0.001053	20.787348
532.139532	-3.016600	3.763000	-11.350000	23.741794	0.001055	20.787822
533.139664	-2.990200	3.765200	-11.257000	23.721010	0.001055	20.795433
534.139894	-3.001700	3.763400	-11.296000	23.756822	0.001056	20.795303
535.139991	-2.979200	3.764300	-11.212000	23.740645	0.001054	20.774816
536.139024	-3.003900	3.762900	-11.303000	23.733274	0.001055	20.792082
537.137500	-3.011000	3.763500	-11.330000	23.738182	0.001055	20.776614
538.142415	-2.990200	3.762700	-11.250000	23.760637	0.001054	20.776843
539.141900	-2.990900	3.762000	-11.250000	23.762228	0.001055	20.789817
540.145181	-2.993000	3.762500	-11.259000	23.749354	0.001055	20.779280
541.146383	-3.004000	3.763200	-11.303000	23.759187	0.001054	20.775863
542.145127	-3.000400	3.761200	-11.285000	23.737303	0.001056	20.798018
543.144428	-2.979000	3.760700	-11.202000	23.752321	0.001056	20.800747
544.143810	-2.996000	3.759700	-11.263000	23.775935	0.001056	20.800241
545.143399	-2.991000	3.761200	-11.249000	23.797639	0.001056	20.804460
546.144702	-2.994000	3.761100	-11.259000	23.816898	0.001055	20.799588
547.146339	-3.014000	3.759100	-11.329000	23.799573	0.001056	20.783165
548.156380	-3.019300	3.759900	-11.351000	23.806039	0.001056	20.816201
549.146739	-2.979500	3.759200	-11.200000	23.821750	0.001056	20.797814
550.145722	-2.986700	3.759800	-11.229000	23.822223	0.001056	20.804452
551.152042	-3.009800	3.758400	-11.310000	23.850872	0.001056	20.799988
552.147356	-3.007600	3.758100	-11.302000	23.836230	0.001056	20.794790
553.144732	-3.007800	3.757800	-11.302000	23.814313	0.001057	20.789884
554.151989	-2.998000	3.757600	-11.265000	23.809202	0.001056	20.788078
555.147576	-2.991200	3.758100	-11.240000	23.817266	0.001054	20.808965
556.144923	-2.984500	3.758300	-11.215000	23.826601	0.001057	20.788454
557.146918	-2.991500	3.756300	-11.235000	23.853457	0.001056	20.786459
558.145525	-2.991500	3.756100	-11.236000	23.847268	0.001057	20.813918
559.145336	-3.009600	3.755700	-11.302000	23.822443	0.001057	20.802303
560.148594	-2.976000	3.757500	-11.181000	23.814485	0.001056	20.801435
561.147123	-2.992300	3.754800	-11.234000	23.823168	0.001056	20.794969
562.145886	-3.001400	3.755000	-11.269000	23.833474	0.001056	20.786810
563.149323	-3.008100	3.755400	-11.296000	23.873871	0.001055	20.799342
564.146964	-2.986800	3.754900	-11.214000	23.848010	0.001057	20.793326
565.152956	-3.005700	3.754800	-11.283000	23.849552	0.001056	20.794871
566.148472	-2.983300	3.754000	-11.198000	23.874484	0.001058	20.814655
567.148709	-2.982400	3.754300	-11.196000	23.876481	0.001056	20.800536
568.151568	-2.982000	3.754000	-11.193000	23.896936	0.001056	20.784538
569.149485	-2.991500	3.753200	-11.227000	23.947425	0.001056	20.807666
570.151241	-2.991200	3.752300	-11.223000	23.947408	0.001056	20.781570
571.151155	-3.039000	3.750400	-11.396000	23.921752	0.001055	20.802784
572.147572	-3.017600	3.752400	-11.321000	23.947685	0.001054	20.787063
573.148960	-3.027400	3.750200	-11.352000	23.892110	0.001057	20.774008
574.149962	-2.987500	3.751600	-11.207000	23.891409	0.001057	20.786582
575.150361	-2.996200	3.751400	-11.239000	23.879538	0.001054	20.802180
576.149549	-2.971000	3.752700	-11.148000	23.893969	0.001056	20.790572
577.151394	-3.003700	3.749400	-11.261000	23.912866	0.001057	20.781545
578.153695	-3.001200	3.750400	-11.255000	23.896733	0.001056	20.802826
579.151579	-2.972600	3.752300	-11.153000	23.879563	0.001057	20.789402
580.156444	-3.001000	3.749600	-11.252000	23.894295	0.001056	20.765768
581.154497	-2.987900	3.750700	-11.206000	23.911342	0.001057	20.793294
582.154346	-2.996700	3.749000	-11.234000	23.908008	0.001056	20.785209
583.154148	-2.961900	3.749600	-11.104000	23.919038	0.001058	20.766871
584.154938	-3.003200	3.749100	-11.258000	23.902684	0.001056	20.770387
585.154949	-3.009400	3.747500	-11.277000	23.870480	0.001057	20.778398
586.155252	-2.993900	3.748000	-11.220000	23.846886	0.001055	20.776551
587.157178	-2.987900	3.748200	-11.199000	23.807587	0.001056	20.778873
588.156014	-2.992500	3.746900	-11.212000	23.842052	0.001057	20.775971
589.157142	-3.001000	3.747000	-11.243000	23.815056	0.001055	20.751273
590.161875	-2.997100	3.746500	-11.227000	23.833898	0.001056	20.770166
591.164592	-2.985000	3.747100	-11.184000	23.826478	0.001057	20.794021
592.157390	-3.000300	3.745500	-11.236000	23.824464	0.001057	20.762129
593.160051	-3.008700	3.745900	-11.269000	23.849429	0.001056	20.761083
594.161505	-3.008800	3.746300	-11.270000	23.842084	0.001057	20.776951
595.159284	-3.004500	3.746000	-11.253000	23.879815	0.001056	20.779698
596.162290	-2.998900	3.745100	-11.231000	23.886141	0.001056	20.757591
597.162707	-3.013200	3.744900	-11.283000	23.918582	0.001057	20.778742
598.158634	-2.982800	3.744600	-11.168000	23.939174	0.001055	20.767149
599.158705	-3.001400	3.744400	-11.237000	23.976576	0.001056	20.765775
600.161565	-3.002900	3.743500	-11.240000	23.929016	0.001056	20.774033
601.159948	-2.995300	3.743500	-11.211000	23.919542	0.001056	20.778283
602.160029	-2.989200	3.743300	-11.188000	23.912996	0.001056	20.743268
603.161392	-2.995300	3.743000	-11.209000	23.891448	0.001057	20.736833
604.160532	-3.000100	3.742500	-11.227000	23.880229	0.001056	20.758301
605.160757	-3.007200	3.742300	-11.252000	23.878215	0.001055	20.760075
606.161121	-3.026400	3.740100	-11.318000	23.870323	0.001056	20.762119
607.160370	-2.982600	3.743000	-11.162000	23.890036	0.001057	20.758178
608.160079	-3.004000	3.740900	-11.236000	23.908306	0.001056	20.756584
609.161829	-2.995900	3.741600	-11.208000	23.908982	0.001057	20.758684
610.160008	-3.010000	3.741400	-11.261000	23.910352	0.001055	20.762428
611.161586	-2.986700	3.741200	-11.172000	23.882982	0.001054	20.744940
612.163108	-3.007600	3.739300	-11.246000	23.909119	0.001054	20.755028
613.164052	-2.988300	3.740300	-11.176000	23.893736	0.001055	20.741498
614.163466	-2.994600	3.738900	-11.194000	23.910415	0.001055	20.766759
615.165219	-2.992600	3.739800	-11.189000	23.912086	0.001055	20.746149
616.163939	-3.001100	3.738400	-11.219000	23.919105	0.001053	20.745601
617.165850	-2.966100	3.739600	-11.091000	23.914899	0.001056	20.748969
618.172879	-3.012800	3.738700	-11.264000	23.939339	0.001052	20.739338
619.166443	-3.015900	3.738300	-11.274000	23.959034	0.001056	20.728742
620.165835	-3.005800	3.736900	-11.231000	23.938923	0.001056	20.751723
621.165706	-2.983500	3.738500	-11.153000	23.939045	0.001055	20.741889
622.166967	-2.994100	3.737000	-11.188000	24.005524	0.001055	20.757347
623.168166	-3.013500	3.736900	-11.260000	24.022048	0.001054	20.743571
624.167964	-3.008200	3.735600	-11.236000	24.033150	0.001055	20.725307
625.169833	-3.011900	3.736600	-11.254000	24.037535	0.001053	20.741085
626.166741	-2.988900	3.736200	-11.167000	24.065048	0.001053	20.743073
627.169158	-2.977700	3.738400	-11.130000	24.097880	0.001054	20.743284
628.167583	-3.020700	3.734600	-11.280000	24.088750	0.001055	20.729385
629.168637	-3.014400	3.734800	-11.257000	24.116366	0.001055	20.744755
630.169714	-3.006600	3.735100	-11.229000	24.121770	0.001054	20.734527
631.169240	-3.000800	3.732900	-11.201000	24.133613	0.001056	20.742613
632.170315	-3.015400	3.733100	-11.255000	24.133915	0.001054	20.749553
633.172681	-3.007600	3.733800	-11.229000	24.132080	0.001053	20.735385
634.170572	-3.011100	3.733200	-11.240000	24.116283	0.001054	20.718592
635.172618	-3.002600	3.733000	-11.208000	24.128175	0.001054	20.729571
636.172821	-3.014100	3.731000	-11.243000	24.067661	0.001052	20.743797
637.171595	-3.014900	3.731700	-11.250000	24.069626	0.001054	20.726326
638.178753	-2.989000	3.733300	-11.158000	24.061963	0.001053	20.740453
639.173970	-2.999500	3.732200	-11.194000	24.074980	0.001055	20.730274
640.173553	-2.996900	3.730000	-11.177000	24.063984	0.001054	20.726832
641.181548	-2.985600	3.732000	-11.141000	24.086376	0.001052	20.738384
642.175545	-3.020100	3.731200	-11.268000	24.087647	0.001053	20.727331
643.175556	-2.991000	3.731900	-11.162000	24.113348	0.001053	20.721813
644.176548	-3.003500	3.730100	-11.202000	24.090582	0.001054	20.722213
645.175039	-2.988600	3.731300	-11.151000	24.083637	0.001054	20.713825
646.175220	-3.007800	3.729600	-11.218000	24.073709	0.001052	20.727576
647.180524	-2.996900	3.729500	-11.175000	24.086800	0.001053	20.730274
648.175713	-3.016400	3.729000	-11.247000	24.079407	0.001051	20.729024
649.176052	-3.002200	3.729600	-11.196000	24.097355	0.001051	20.726635
650.178460	-3.007600	3.729000	-11.214000	24.110504	0.001053	20.733660
651.179556	-3.015600	3.729400	-11.245000	24.116560	0.001054	20.711756
652.176691	-2.990100	3.729300	-11.150000	24.119046	0.001054	20.689592
653.176484	-2.989700	3.728700	-11.145000	24.127499	0.001052	20.729842
654.180617	-3.002500	3.727300	-11.190000	24.158561	0.001050	20.720218
655.176608	-3.033500	3.727400	-11.306000	24.128158	0.001053	20.727183
656.176738	-2.997600	3.728200	-11.175000	24.137427	0.001052	20.719410
657.180127	-3.041000	3.724600	-11.325000	24.153084	0.001053	20.728476
658.179011	-2.998000	3.726700	-11.171000	24.164846	0.001051	20.722729
659.176558	-3.005100	3.724700	-11.191000	24.179722	0.001053	20.722476
660.183093	-3.011100	3.725200	-11.216000	24.209283	0.001051	20.733635
661.181389	-2.987800	3.727100	-11.133000	24.224035	0.001052	20.722353
662.179843	-3.008200	3.725100	-11.205000	24.240857	0.001052	20.696076
663.181279	-2.974800	3.724800	-11.079000	24.211402	0.001052	20.724380
664.181286	-3.001200	3.725200	-11.180000	24.221696	0.001051	20.710049
665.178750	-3.001000	3.724700	-11.176000	24.222561	0.001050	20.720400
666.187212	-3.011900	3.726200	-11.222000	24.205648	0.001050	20.733783
667.181645	-2.999400	3.722700	-11.165000	24.174424	0.001052	20.725697
668.179656	-2.992000	3.723700	-11.141000	24.152002	0.001051	20.719329
669.180080	-3.006100	3.722800	-11.190000	24.132300	0.001049	20.720906
670.181484	-2.988200	3.722500	-11.123000	24.157398	0.001050	20.729009
671.181612	-2.982500	3.723600	-11.105000	24.146679	0.001050	20.713042
672.182334	-2.998200	3.724200	-11.164000	24.138309	0.001050	20.696111
673.182931	-2.993300	3.721500	-11.138000	24.108484	0.001048	20.736849
674.187300	-3.005300	3.722000	-11.185000	24.120303	0.001048	20.709821
675.183959	-2.977500	3.722500	-11.083000	24.133141	0.001048	20.727913
676.184454	-3.012100	3.720700	-11.206000	24.141275	0.001050	20.702880
677.183680	-3.002400	3.720500	-11.170000	24.144518	0.001050	20.720358
678.183196	-3.012600	3.721000	-11.209000	24.159566	0.001049	20.709371
679.187539	-2.995000	3.720900	-11.144000	24.183398	0.001047	20.711938
680.185206	-2.998600	3.720400	-11.155000	24.175541	0.001048	20.696469
681.184732	-3.010400	3.719800	-11.197000	24.191817	0.001046	20.712322
682.186688	-3.025600	3.717900	-11.247000	24.212413	0.001050	20.707850
683.185845	-2.986000	3.720300	-11.108000	24.241004	0.001047	20.683895
684.185972	-3.010600	3.719600	-11.197000	24.259488	0.001050	20.712395
685.187340	-3.005500	3.719400	-11.178000	24.255535	0.001048	20.734984
686.186278	-2.984500	3.719600	-11.100000	24.262724	0.001048	20.705209
687.185685	-3.018800	3.718000	-11.222000	24.274737	0.001047	20.721528
688.185596	-3.007200	3.717400	-11.178000	24.276946	0.001048	20.715209
689.189489	-3.005300	3.719300	-11.177000	24.255952	0.001046	20.716435
690.187326	-3.004100	3.718100	-11.168000	24.223962	0.001048	20.712796
691.186287	-2.992800	3.716700	-11.122000	24.228787	0.001046	20.694875
692.191270	-2.990000	3.717200	-11.113000	24.246659	0.001047	20.705690
693.188024	-3.005500	3.717200	-11.170000	24.264744	0.001045	20.711029
694.187551	-3.002400	3.717300	-11.160000	24.267752	0.001046	20.703614
695.190071	-2.995800	3.717100	-11.134000	24.238224	0.001045	20.701496
696.187522	-2.987400	3.716700	-11.102000	24.205183	0.001045	20.695381
697.186817	-2.983500	3.715700	-11.085000	24.209308	0.001046	20.710425
698.188746	-2.989800	3.714900	-11.106000	24.198425	0.001046	20.713260
699.189282	-2.988900	3.716700	-11.107000	24.229046	0.001047	20.698929
700.188607	-3.005200	3.714200	-11.161000	24.267115	0.001046	20.686853
701.189844	-2.989600	3.716000	-11.109000	24.254531	0.001045	20.700309
702.189424	-2.976000	3.714900	-11.054000	24.236039	0.001045	20.695037
703.190745	-3.000400	3.712800	-11.139000	24.212736	0.001046	20.696793
704.188251	-2.963300	3.714400	-11.006000	24.212957	0.001043	20.695118
705.190984	-2.990800	3.714300	-11.108000	24.206037	0.001044	20.701928
706.188549	-2.999100	3.711800	-11.130000	24.216763	0.001043	20.688978
707.191276	-2.978800	3.713200	-11.060000	24.259916	0.001043	20.684373
708.190753	-3.001400	3.713000	-11.143000	24.255060	0.001042	20.698943
709.193059	-3.024500	3.712100	-11.226000	24.252721	0.001042	20.695648
710.193690	-2.987800	3.712700	-11.091000	24.214764	0.001041	20.695508
711.192543	-3.016100	3.710700	-11.191000	24.189433	0.001042	20.669624
712.192132	-3.003800	3.712000	-11.149000	24.187314	0.001042	20.689786
713.193482	-3.007100	3.710000	-11.155000	24.170947	0.001043	20.693759
714.195740	-3.011600	3.709800	-11.171000	24.209890	0.001040	20.702474
715.193572	-2.993300	3.710600	-11.106000	24.203566	0.001043	20.702768
716.193468	-2.988800	3.711100	-11.090000	24.203818	0.001041	20.699702
717.197870	-3.003900	3.708400	-11.139000	24.186310	0.001041	20.684036
718.196091	-3.004800	3.710200	-11.147000	24.202383	0.001040	20.703004
719.195014	-2.998100	3.709900	-11.122000	24.244202	0.001040	20.673351
720.195374	-2.988300	3.709200	-11.083000	24.253061	0.001042	20.689825
721.197486	-2.998700	3.708800	-11.120000	24.246117	0.001040	20.706569
722.194392	-2.992000	3.709200	-11.097000	24.235228	0.001038	20.690904
723.200207	-2.996300	3.708800	-11.112000	24.222741	0.001041	20.697346
724.195560	-2.994100	3.707900	-11.101000	24.214281	0.001040	20.687437
725.196525	-2.980800	3.708600	-11.053000	24.185347	0.001038	20.699667
726.195987	-2.983000	3.707700	-11.058000	24.189920	0.001039	20.675803
727.195617	-2.995200	3.706400	-11.100000	24.188330	0.001039	20.675157
728.197753	-2.988200	3.706700	-11.075000	24.238740	0.001039	20.678778
729.197006	-3.016700	3.705300	-11.176000	24.239612	0.001038	20.680601
730.197363	-2.995300	3.706900	-11.103000	24.268356	0.001040	20.673397
731.198245	-2.984900	3.707100	-11.064000	24.290247	0.001038	20.691564
732.196924	-3.000800	3.705200	-11.118000	24.332045	0.001039	20.678016
733.196819	-3.011800	3.705900	-11.159000	24.323317	0.001039	20.661198
734.197367	-3.014100	3.704200	-11.164000	24.332763	0.001037	20.663088
735.196383	-3.015200	3.704700	-11.170000	24.326871	0.001038	20.680886
736.197180	-2.987700	3.704700	-11.068000	24.349681	0.001038	20.650660
737.197637	-2.999800	3.704000	-11.111000	24.346201	0.001037	20.670879
738.197596	-3.001900	3.704200	-11.118000	24.365156	0.001037	20.682309
739.197843	-3.016700	3.704100	-11.172000	24.347798	0.001037	20.695716
740.200280	-3.005600	3.703100	-11.128000	24.324735	0.001036	20.682537
741.201911	-2.990000	3.704800	-11.075000	24.294515	0.001036	20.676879
742.199399	-2.972300	3.703700	-11.007000	24.317620	0.001036	20.668761
743.205183	-3.014500	3.701700	-11.158000	24.344016	0.001035	20.676274
744.201854	-3.030200	3.701500	-11.215000	24.353812	0.001035	20.684206
745.200792	-2.984700	3.701600	-11.047000	24.370363	0.001036	20.663348
746.205463	-3.001300	3.701400	-11.107000	24.331661	0.001035	20.680950
747.202338	-3.000900	3.701100	-11.104000	24.322648	0.001034	20.670011
748.202852	-3.003600	3.700200	-11.113000	24.356638	0.001033	20.653372
749.202630	-2.999400	3.700000	-11.097000	24.353729	0.001033	20.665628
750.205279	-2.987800	3.701300	-11.058000	24.334423	0.001034	20.668547
751.204382	-2.985900	3.700700	-11.049000	24.339924	0.001034	20.675488
752.201652	-2.980700	3.701200	-11.031000	24.370549	0.001034	20.663060
753.204805	-2.997800	3.698900	-11.088000	24.352213	0.001031	20.658416
754.207208	-3.009200	3.698800	-11.129000	24.318352	0.001033	20.672340
755.209372	-2.987500	3.698900	-11.049000	24.285265	0.001034	20.672340
756.204684	-2.972700	3.699300	-10.995000	24.276756	0.001032	20.678031
757.204762	-2.993300	3.698500	-11.069000	24.268728	0.001030	20.669503
758.204385	-3.001800	3.698200	-11.100000	24.255608	0.001032	20.649227
759.208138	-3.012300	3.699600	-11.143000	24.230929	0.001033	20.661933
760.202575	-3.020800	3.697700	-11.168000	24.239021	0.001033	20.675267
761.202642	-3.001400	3.697600	-11.097000	24.245810	0.001031	20.655522
762.208171	-2.991800	3.696500	-11.058000	24.253521	0.001031	20.658515
763.203263	-3.014600	3.696800	-11.144000	24.242827	0.001031	20.666756
764.203745	-2.990800	3.696400	-11.054000	24.259365	0.001031	20.672439
765.208607	-3.006500	3.696100	-11.110000	24.247344	0.001031	20.663225
766.204231	-3.004500	3.696000	-11.104000	24.336689	0.001029	20.665129
767.205723	-3.004300	3.694600	-11.099000	24.310292	0.001030	20.651925
768.203856	-3.006600	3.696500	-11.113000	24.287880	0.001029	20.667851
769.205842	-3.001400	3.694600	-11.088000	24.275681	0.001030	20.668417
770.205044	-3.017100	3.693000	-11.141000	24.261010	0.001027	20.665080
771.204445	-2.992900	3.694900	-11.057000	24.246805	0.001029	20.656045
772.203856	-2.996200	3.695300	-11.070000	24.264263	0.001030	20.652220
773.204221	-3.008300	3.693900	-11.111000	24.283154	0.001029	20.661213
774.205459	-3.006700	3.693700	-11.105000	24.305411	0.001029	20.649873
775.204763	-3.021200	3.692700	-11.156000	24.333698	0.001027	20.647903
776.205591	-3.008700	3.693800	-11.113000	24.338099	0.001027	20.661328
777.205461	-2.982400	3.694100	-11.016000	24.358343	0.001027	20.667412
778.207689	-2.993900	3.692700	-11.054000	24.380141	0.001028	20.655139
779.205694	-2.991600	3.693600	-11.049000	24.374168	0.001027	20.655311
780.206549	-2.989600	3.692600	-11.039000	24.376402	0.001026	20.654707
781.205830	-2.991900	3.691900	-11.043000	24.397646	0.001024	20.653259
782.205491	-2.981500	3.693200	-11.010000	24.381870	0.001027	20.654977
783.205913	-2.990100	3.690400	-11.034000	24.428808	0.001027	20.650382
784.208076	-2.988900	3.690800	-11.031000	24.433902	0.001025	20.640792
785.207847	-3.002700	3.690000	-11.079000	24.469821	0.001026	20.656916
786.206664	-2.995900	3.690100	-11.053000	24.468802	0.001024	20.665852
787.208645	-2.982500	3.690300	-11.005000	24.454739	0.001025	20.661225
788.208778	-3.005800	3.691800	-11.095000	24.425324	0.001025	20.660638
789.206972	-2.993400	3.690000	-11.043000	24.401675	0.001024	20.660621
790.207396	-3.028200	3.689100	-11.170000	24.364882	0.001026	20.652633
791.211259	-3.018000	3.687100	-11.125000	24.360930	0.001023	20.666213
792.209429	-2.990500	3.690000	-11.034000	24.340720	0.001024	20.649732
793.209738	-2.972100	3.689300	-10.963000	24.298449	0.001024	20.670867
794.216034	-3.007400	3.687500	-11.089000	24.307528	0.001022	20.646306
795.213524	-2.978000	3.689300	-10.985000	24.348073	0.001022	20.651891
796.209188	-2.989400	3.688200	-11.024000	24.341823	0.001025	20.662219
797.212876	-2.985200	3.688800	-11.010000	24.410406	0.001022	20.668907
798.211833	-3.022900	3.686600	-11.144000	24.415801	0.001022	20.662939
799.212520	-2.991800	3.687800	-11.032000	24.456047	0.001024	20.654951
800.213166	-2.986700	3.686300	-11.007000	24.458435	0.001023	20.661140
801.214639	-2.991500	3.687200	-11.028000	24.456096	0.001020	20.659268
802.211031	-2.992500	3.687200	-11.033000	24.449847	0.001022	20.661059
803.214073	-3.004500	3.686500	-11.076000	24.473919	0.001020	20.641110
804.214201	-3.014100	3.685200	-11.106000	24.463031	0.001021	20.671917
805.210089	-3.001000	3.685000	-11.058000	24.474864	0.001022	20.663872
806.212288	-2.998400	3.686200	-11.052000	24.456880	0.001019	20.664322
807.211222	-2.992000	3.684300	-11.023000	24.460654	0.001020	20.684706
808.211945	-2.996700	3.684900	-11.042000	24.433372	0.001020	20.658280
809.214476	-3.024400	3.683300	-11.139000	24.438612	0.001019	20.672548
810.213684	-2.997600	3.683600	-11.041000	24.455627	0.001019	20.657848
811.214899	-3.006500	3.683800	-11.074000	24.451446	0.001017	20.645592
812.215222	-2.994300	3.684800	-11.033000	24.452759	0.001019	20.666352
813.224206	-3.000800	3.684100	-11.054000	24.444406	0.001020	20.675517
814.215964	-2.991300	3.682200	-11.013000	24.425900	0.001018	20.660268
815.215915	-3.011000	3.683300	-11.090000	24.446143	0.001018	20.662084
816.217646	-3.012400	3.680900	-11.087000	24.436893	0.001016	20.683153
817.219421	-3.004300	3.681400	-11.059000	24.424157	0.001017	20.658045
818.217990	-2.971500	3.682300	-10.941000	24.429177	0.001016	20.674463
819.218340	-2.997200	3.680800	-11.031000	24.417704	0.001016	20.664848
820.220426	-3.017600	3.680400	-11.105000	24.404796	0.001018	20.668969
821.221075	-3.015600	3.679600	-11.094000	24.434792	0.001017	20.668716
822.218302	-3.004000	3.680700	-11.055000	24.412180	0.001016	20.668790
823.218546	-2.984400	3.680500	-10.984000	24.403770	0.001017	20.662723
824.218397	-2.997400	3.678800	-11.026000	24.431109	0.001015	20.673082
825.221127	-3.003900	3.678600	-11.049000	24.425732	0.001015	20.678119
826.220796	-2.971200	3.681700	-10.936000	24.469262	0.001015	20.664416
827.219875	-3.009400	3.677900	-11.066000	24.499435	0.001014	20.664817
828.221336	-2.989500	3.678800	-10.996000	24.486863	0.001014	20.668325
829.222372	-2.995400	3.678200	-11.017000	24.528500	0.001014	20.665529
830.218643	-3.011100	3.677800	-11.072000	24.532705	0.001012	20.665006
831.218724	-3.001000	3.679600	-11.041000	24.555266	0.001016	20.681954
832.218776	-2.988200	3.677800	-10.988000	24.529617	0.001014	20.678031
833.222811	-2.980300	3.678900	-10.964000	24.539419	0.001013	20.666053
834.222090	-2.972000	3.678600	-10.931000	24.501244	0.001011	20.668529
835.221964	-2.981700	3.677200	-10.963000	24.488925	0.001012	20.674662
836.225565	-2.992100	3.676400	-10.998000	24.520246	0.001012	20.673844
837.225135	-2.996800	3.677100	-11.019000	24.502273	0.001011	20.668613
838.223422	-3.001900	3.676800	-11.036000	24.509768	0.001013	20.696050
839.225721	-2.997500	3.676000	-11.017000	24.522479	0.001012	20.692682
840.223380	-3.003700	3.676600	-11.042000	24.517249	0.001010	20.703556
841.222687	-2.978100	3.675000	-10.942000	24.505816	0.001011	20.689240
842.221316	-3.015500	3.674500	-11.078000	24.506730	0.001010	20.679724
843.226880	-2.988300	3.674600	-10.980000	24.476256	0.001010	20.704628
844.224872	-2.996900	3.674200	-11.010000	24.471414	0.001011	20.667050
845.223389	-2.972400	3.676200	-10.925000	24.442854	0.001009	20.688660
846.228406	-3.007400	3.672400	-11.044000	24.407358	0.001009	20.692878
847.227518	-2.961300	3.674200	-10.880000	24.448778	0.001009	20.682748
848.227197	-3.004500	3.674700	-11.040000	24.447182	0.001009	20.664549
849.231696	-3.012300	3.674400	-11.067000	24.469713	0.001009	20.688105
850.227793	-2.972400	3.674400	-10.919000	24.486685	0.001011	20.675259
851.226031	-2.993300	3.673900	-10.996000	24.484665	0.001009	20.665645
852.229850	-2.989900	3.672400	-10.979000	24.527825	0.001007	20.671016
853.227643	-3.002000	3.672600	-11.024000	24.498647	0.001009	20.690107
854.226623	-2.999100	3.671900	-11.012000	24.506331	0.001006	20.689281
855.227378	-2.996300	3.670500	-10.997000	24.525290	0.001008	20.701193
856.227070	-3.006800	3.672600	-11.042000	24.538026	0.001007	20.670819
857.228063	-2.998200	3.671600	-11.007000	24.542744	0.001006	20.698790
858.226889	-2.980600	3.673100	-10.947000	24.562396	0.001007	20.678677
859.229499	-3.016700	3.670500	-11.072000	24.583655	0.001007	20.703328
860.227573	-3.031100	3.670000	-11.123000	24.601563	0.001006	20.685734
861.229040	-3.011700	3.670000	-11.050000	24.632156	0.001006	20.678972
862.232362	-3.017800	3.669700	-11.073000	24.642926	0.001006	20.693574
863.227758	-3.004400	3.670100	-11.026000	24.630927	0.001006	20.705242
864.229991	-3.007800	3.668400	-11.032000	24.617027	0.001005	20.689397
865.234648	-3.009600	3.670300	-11.045000	24.622827	0.001004	20.679095
866.229814	-3.011400	3.668800	-11.046000	24.597800	0.001004	20.693338
867.230000	-3.008200	3.669800	-11.038000	24.578848	0.001005	20.698031
868.233094	-3.009100	3.669100	-11.039000	24.575222	0.001004	20.711463
869.228743	-3.024900	3.668500	-11.095000	24.564720	0.001004	20.690019
870.230834	-3.016900	3.667000	-11.062000	24.586532	0.001002	20.707164
871.230731	-2.998700	3.667700	-10.998000	24.583696	0.001004	20.703844
872.235843	-2.996500	3.667000	-10.987000	24.620237	0.001003	20.696886
873.235199	-3.013300	3.667200	-11.049000	24.619831	0.001001	20.680356
874.231197	-3.008600	3.666900	-11.031000	24.606354	0.001002	20.698129
875.236475	-3.013000	3.666200	-11.045000	24.611822	0.001002	20.709306
876.230623	-2.995100	3.666600	-10.981000	24.619561	0.001002	20.704743
877.233455	-2.992300	3.666300	-10.970000	24.624483	0.000999	20.692611
878.236427	-3.010900	3.664900	-11.034000	24.639523	0.001001	20.693004
879.233679	-3.007100	3.665100	-11.020000	24.652754	0.000999	20.690159
880.232882	-2.999200	3.664600	-10.990000	24.671883	0.001001	20.708407
881.234198	-2.995900	3.666800	-10.985000	24.669594	0.001002	20.700894
882.236698	-2.963600	3.666100	-10.863000	24.681708	0.000998	20.687444
883.234694	-3.020500	3.664000	-11.066000	24.649152	0.000998	20.707409
884.235618	-3.005400	3.663800	-11.010000	24.647360	0.000998	20.696127
885.236320	-3.011400	3.663400	-11.030000	24.653976	0.000996	20.692333
886.233682	-2.986300	3.664500	-10.942000	24.661487	0.000997	20.701294
887.233813	-2.992400	3.664500	-10.965000	24.674424	0.000997	20.691989
888.238472	-3.020200	3.663400	-11.062000	24.685236	0.000997	20.705685
889.240051	-2.987300	3.664700	-10.946000	24.687850	0.000997	20.710205
890.235892	-2.990200	3.662000	-10.949000	24.678246	0.000995	20.712422
891.238257	-3.005400	3.661900	-11.005000	24.654424	0.000996	20.714122
892.238698	-3.000100	3.662400	-10.987000	24.615326	0.000996	20.703812
893.236524	-2.999900	3.662200	-10.985000	24.629502	0.000997	20.729893
894.237494	-2.989400	3.661700	-10.946000	24.627433	0.000995	20.715488
895.238080	-3.020500	3.660200	-11.053000	24.621371	0.000996	20.702766
896.236380	-3.008600	3.660700	-11.013000	24.632743	0.000994	20.711807
897.238978	-2.991000	3.661300	-10.951000	24.660021	0.000996	20.725428
898.237795	-2.997800	3.660300	-10.971000	24.644672	0.000994	20.742745
899.242336	-2.985700	3.660400	-10.928000	24.622739	0.000993	20.724529
900.238425	-3.008000	3.659900	-11.007000	24.605784	0.000994	20.718421
901.244093	-2.997300	3.659900	-10.969000	24.609834	0.000995	20.702569
902.241874	-2.976700	3.661400	-10.897000	24.622494	0.000995	20.721912
903.242013	-3.010100	3.660000	-11.015000	24.650521	0.000992	20.715896
904.246227	-3.021000	3.656900	-11.046000	24.636947	0.000994	20.710335
905.242244	-2.996600	3.658700	-10.963000	24.661666	0.000994	20.728028
906.241914	-2.984400	3.657800	-10.916000	24.677577	0.000992	20.723605
907.244388	-2.995300	3.659400	-10.960000	24.693268	0.000992	20.696201
908.245246	-2.996000	3.658500	-10.960000	24.696209	0.000990	20.717645
909.243121	-2.985400	3.658000	-10.919000	24.716698	0.000990	20.715920
910.246928	-3.019100	3.657300	-11.040000	24.734408	0.000992	20.732271
911.246696	-3.014200	3.656600	-11.021000	24.727149	0.000992	20.740634
912.243767	-2.988100	3.657300	-10.927000	24.766285	0.000990	20.722534
913.248669	-2.989800	3.657800	-10.935000	24.763173	0.000991	20.732689
914.243241	-3.009500	3.655600	-11.000000	24.765186	0.000991	20.741347
915.245490	-3.012400	3.655300	-11.011000	24.715858	0.000988	20.725509
916.246915	-2.979400	3.657300	-10.895000	24.712470	0.000988	20.724954
917.246920	-3.011200	3.655000	-11.004000	24.704290	0.000989	20.722910
918.243822	-2.987800	3.656200	-10.923000	24.691931	0.000991	20.721414
919.251976	-3.001800	3.654800	-10.970000	24.704266	0.000986	20.722885
920.244735	-3.012000	3.654700	-11.007000	24.704364	0.000988	20.709707
921.245341	-2.980200	3.655800	-10.893000	24.747809	0.000988	20.736236
922.250746	-2.984300	3.655800	-10.908000	24.770667	0.000987	20.730251
923.249625	-3.001900	3.653600	-10.966000	24.749447	0.000988	20.708955
924.249108	-2.988300	3.654500	-10.919000	24.760118	0.000988	20.735312
925.252544	-2.998200	3.652400	-10.948000	24.717709	0.000986	20.721677
926.251527	-3.006300	3.652100	-10.978000	24.706173	0.000987	20.737128
927.248371	-3.014500	3.653100	-11.011000	24.666531	0.000986	20.739548
928.252431	-3.011800	3.652400	-10.999000	24.664200	0.000985	20.741951
929.249744	-3.007700	3.653300	-10.987000	24.674245	0.000984	20.717891
930.248458	-3.002400	3.651500	-10.963000	24.672933	0.000985	20.710883
931.254046	-3.017100	3.651700	-11.015000	24.650049	0.000982	20.731544
932.251588	-2.988500	3.652700	-10.914000	24.634644	0.000984	20.736001
933.247152	-2.984300	3.652300	-10.899000	24.654343	0.000982	20.744863
934.248303	-3.010700	3.650400	-10.990000	24.670238	0.000983	20.735681
935.248363	-2.991600	3.651700	-10.923000	24.674067	0.000982	20.736679
936.249943	-3.011900	3.650500	-10.994000	24.694759	0.000983	20.743219
937.250322	-2.994900	3.648500	-10.925000	24.739126	0.000984	20.739376
938.250774	-3.005900	3.649400	-10.968000	24.733106	0.000983	20.748034
939.251833	-2.981300	3.649500	-10.879000	24.748176	0.000982	20.746088
940.248751	-3.002300	3.649700	-10.956000	24.717237	0.000982	20.757240
941.251520	-3.012000	3.647500	-10.984000	24.721920	0.000981	20.759095
942.252128	-2.993900	3.648700	-10.923000	24.718326	0.000982	20.735573
943.251229	-2.993600	3.649500	-10.923000	24.735444	0.000980	20.742320
944.251850	-2.976400	3.649600	-10.861000	24.761364	0.000981	20.728502
945.254015	-2.995900	3.648200	-10.929000	24.749055	0.000979	20.751238
946.253863	-3.009000	3.646900	-10.973000	24.788418	0.000981	20.748540
947.251814	-3.002300	3.648700	-10.954000	24.812839	0.000978	20.760721
948.255748	-3.007300	3.647100	-10.967000	24.822565	0.000980	20.749619
949.269940	-3.011200	3.646200	-10.979000	24.847034	0.000980	20.740511
950.254358	-2.982500	3.648400	-10.879000	24.854439	0.000978	20.761220
951.256029	-3.004100	3.647100	-10.955000	24.875730	0.000978	20.749872
952.256368	-3.005600	3.646300	-10.959000	24.847352	0.000978	20.770229
953.255800	-3.021700	3.645100	-11.013000	24.826621	0.000980	20.746577
954.258514	-2.988600	3.647600	-10.899000	24.817221	0.000978	20.762274
955.259554	-3.007800	3.645100	-10.962000	24.813042	0.000978	20.754287
956.256886	-3.010900	3.645200	-10.974000	24.797304	0.000978	20.759829
957.257312	-3.002700	3.645900	-10.946000	24.805563	0.000976	20.778076
958.260819	-2.986800	3.645400	-10.886000	24.819233	0.000976	20.753862
959.258390	-2.991100	3.644400	-10.900000	24.840101	0.000976	20.770538
960.259375	-3.019900	3.644400	-11.005000	24.871780	0.000977	20.762028
961.263917	-3.017900	3.644300	-10.996000	24.891499	0.000975	20.773285
962.260306	-3.011800	3.643500	-10.973000	24.914721	0.000976	20.761030
963.260317	-2.989800	3.643600	-10.893000	24.925415	0.000974	20.765600
964.260946	-3.007300	3.643100	-10.955000	24.918753	0.000974	20.784517
965.262790	-3.009600	3.643700	-10.965000	24.919330	0.000974	20.773243
966.259926	-3.004600	3.643100	-10.945000	24.907047	0.000973	20.773717
967.262304	-3.010000	3.642300	-10.962000	24.899856	0.000975	20.747533
968.263221	-3.001400	3.642800	-10.932000	24.859374	0.000973	20.749577
969.261040	-3.008800	3.642800	-10.960000	24.865400	0.000972	20.762264
970.264898	-3.002100	3.641500	-10.931000	24.843458	0.000973	20.772484
971.259468	-2.995000	3.640600	-10.902000	24.863430	0.000972	20.762657
972.261197	-2.988700	3.642600	-10.885000	24.865540	0.000970	20.752446
973.261403	-2.978000	3.641200	-10.843000	24.855227	0.000970	20.754424
974.262156	-2.983400	3.641700	-10.863000	24.864326	0.000970	20.756443
975.263682	-2.969600	3.640900	-10.810000	24.873424	0.000970	20.785016
976.262497	-2.995900	3.640100	-10.904000	24.884021	0.000969	20.770047
977.266379	-3.012800	3.638800	-10.962000	24.876381	0.000967	20.757638
978.262826	-2.993800	3.640600	-10.899000	24.876854	0.000969	20.780397
979.264870	-3.008000	3.639600	-10.947000	24.902438	0.000969	20.780945
980.266094	-3.000300	3.638600	-10.915000	24.922311	0.000969	20.780503
981.264812	-3.000800	3.637900	-10.915000	24.900874	0.000967	20.780324
982.272085	-2.998000	3.638600	-10.907000	24.909070	0.000966	20.798981
983.264722	-3.007300	3.638500	-10.940000	24.872878	0.000965	20.796796
984.265955	-2.961400	3.638600	-10.774000	24.888892	0.000966	20.782523
985.266876	-3.010200	3.638000	-10.949000	24.849624	0.000965	20.789579
986.266416	-3.009600	3.637700	-10.947000	24.829487	0.000966	20.794973
987.267343	-2.996300	3.637300	-10.897000	24.815632	0.000965	20.785810
988.267215	-2.995000	3.637500	-10.893000	24.815632	0.000964	20.785810
989.266523	-3.010600	3.636200	-10.947000	24.863202	0.000964	20.787085
990.273182	-2.985300	3.635600	-10.852000	24.887646	0.000963	20.778427
991.267322	-3.025100	3.635200	-10.995000	24.916667	0.000964	20.798071
992.267638	-3.002200	3.635700	-10.915000	24.946079	0.000965	20.793453
993.274640	-3.014800	3.634900	-10.958000	24.958435	0.000963	20.789259
994.269126	-2.990300	3.635100	-10.870000	24.970073	0.000965	20.795251
995.269504	-2.993700	3.635300	-10.882000	24.949190	0.000964	20.796575
996.271082	-2.996600	3.633400	-10.885000	24.937421	0.000963	20.777177
997.270521	-3.002300	3.633200	-10.906000	24.930367	0.000962	20.789537
998.271063	-3.005600	3.633400	-10.919000	24.943594	0.000961	20.800916
999.272849	-2.983900	3.634100	-10.843000	24.959330	0.000960	20.807228
1000.273780	-3.003300	3.632800	-10.909000	24.949337	0.000961	20.809525
1001.273293	-2.987600	3.632800	-10.852000	24.936109	0.000960	20.785343
1002.275532	-3.009500	3.632800	-10.931000	24.924796	0.000962	20.798170
1003.273483	-3.006900	3.631300	-10.918000	24.942902	0.000959	20.811126
1004.275256	-3.008500	3.630800	-10.922000	24.953816	0.000960	20.791261
1005.274685	-2.999500	3.631300	-10.891000	24.915901	0.000960	20.818639
1006.277929	-3.019200	3.630900	-10.961000	24.901655	0.000959	20.792013
1007.277931	-3.019500	3.629700	-10.959000	24.898642	0.000961	20.819808
1008.275848	-2.988500	3.631900	-10.853000	24.926864	0.000959	20.790288
1009.278955	-3.003600	3.629900	-10.902000	24.917293	0.000961	20.818614
1010.275607	-3.002300	3.630000	-10.897000	24.919526	0.000959	20.812795
1011.275308	-3.009600	3.629400	-10.923000	24.934717	0.000958	20.801489
1012.277498	-3.014200	3.630100	-10.940000	24.907862	0.000956	20.807252
1013.275056	-3.012200	3.630200	-10.933000	24.928103	0.000956	20.800066
1014.276072	-3.007100	3.630000	-10.915000	24.890586	0.000957	20.809827
1015.278536	-2.995100	3.629300	-10.869000	24.898470	0.000957	20.799248
1016.278248	-3.006600	3.627300	-10.905000	24.901501	0.000957	20.823626
1017.276551	-2.988700	3.629300	-10.845000	24.905231	0.000955	20.810775
1018.281433	-3.015300	3.628500	-10.939000	24.897396	0.000955	20.798170
1019.279696	-2.994500	3.628100	-10.862000	24.901224	0.000953	20.814340
1020.279893	-2.994400	3.627100	-10.860000	24.911169	0.000954	20.793976
1021.279273	-2.995400	3.628500	-10.868000	24.931833	0.000951	20.819457
1022.278509	-2.985900	3.627500	-10.831000	24.929373	0.000953	20.804186
1023.282177	-3.035400	3.626100	-11.005000	24.930017	0.000954	20.796298
1024.284884	-2.994700	3.626300	-10.859000	24.951797	0.000948	20.799192
1025.285204	-2.979700	3.627400	-10.806000	24.968932	0.000950	20.794580
1026.285281	-3.010200	3.627100	-10.918000	25.005999	0.000950	20.804759
1027.280070	-3.009100	3.626800	-10.912000	24.994938	0.000950	20.808355
1028.285360	-2.993000	3.625600	-10.849000	24.995557	0.000949	20.795226
1029.281121	-3.009800	3.625700	-10.912000	24.984742	0.000950	20.809026
1030.282911	-2.983200	3.625300	-10.813000	24.974479	0.000950	20.796354
1031.285587	-2.999100	3.624500	-10.868000	24.949018	0.000949	20.784549
1032.285223	-2.991700	3.624700	-10.842000	24.932981	0.000949	20.806859
1033.283688	-3.011900	3.623600	-10.913000	24.927638	0.000948	20.795332
1034.285417	-2.979600	3.625900	-10.802000	24.946086	0.000948	20.790615
1035.282651	-2.997500	3.623000	-10.859000	24.955460	0.000946	20.790541
1036.285234	-2.986000	3.624900	-10.823000	24.920258	0.000949	20.777967
1037.288705	-2.983300	3.624000	-10.811000	24.915134	0.000945	20.790369
1038.283973	-2.974500	3.624300	-10.779000	24.902680	0.000945	20.784507
1039.284271	-3.013000	3.621200	-10.909000	24.920429	0.000947	20.773398
1040.285720	-2.993700	3.622700	-10.845000	24.933037	0.000944	20.797432
1041.287550	-3.031700	3.620500	-10.975000	24.991320	0.000945	20.796189
1042.284104	-2.990200	3.623300	-10.833000	24.983332	0.000946	20.774894
1043.290336	-2.995700	3.620800	-10.846000	25.012276	0.000945	20.775972
1044.287903	-3.003100	3.622400	-10.876000	25.018190	0.000943	20.784279
1045.287587	-3.006600	3.620400	-10.884000	25.033631	0.000944	20.797408
1046.285973	-3.006400	3.620400	-10.883000	25.071843	0.000946	20.765590
1047.285995	-3.011100	3.619800	-10.898000	25.051563	0.000944	20.772734
1048.285338	-2.989300	3.620100	-10.820000	25.036122	0.000942	20.775252
1049.287519	-3.001000	3.619600	-10.861000	25.022221	0.000942	20.760350
1050.287192	-2.989000	3.620500	-10.821000	25.020527	0.000941	20.785203
1051.286563	-3.009700	3.618400	-10.889000	25.002454	0.000940	20.788399
1052.287672	-3.006300	3.619500	-10.880000	25.006478	0.000939	20.779636
1053.288232	-2.994200	3.617600	-10.830000	24.975308	0.000939	20.780591
1054.292066	-2.993500	3.618700	-10.831000	24.956976	0.000938	20.736585
1055.287581	-3.015500	3.616600	-10.905000	24.979455	0.000939	20.771477
1056.287747	-3.005200	3.616700	-10.868000	24.939731	0.000939	20.758632
1057.288563	-2.988000	3.616500	-10.805000	24.948609	0.000939	20.743360
1058.288229	-2.985200	3.618400	-10.801000	24.945327	0.000939	20.782741
1059.289404	-3.006900	3.616500	-10.874000	24.965038	0.000938	20.762696
1060.288367	-3.003000	3.616400	-10.859000	24.993731	0.000937	20.763047
1061.288791	-3.000100	3.616800	-10.849000	25.037319	0.000935	20.775505
1062.287460	-2.990800	3.616100	-10.815000	25.059016	0.000937	20.764094
1063.289043	-2.989100	3.616300	-10.809000	25.072917	0.000937	20.772358
1064.292830	-2.999600	3.616200	-10.845000	25.097878	0.000937	20.755215
1065.291198	-2.979300	3.616100	-10.772000	25.108311	0.000935	20.771852
1066.292391	-2.998900	3.614000	-10.837000	25.146072	0.000937	20.740533
1067.289659	-3.004800	3.614700	-10.861000	25.164118	0.000934	20.750114
1068.290512	-3.002000	3.614000	-10.848000	25.173858	0.000936	20.751832
1069.295372	-2.999000	3.615300	-10.841000	25.172570	0.000934	20.742478
1070.292128	-3.008600	3.613000	-10.867000	25.144819	0.000934	20.773889
1071.290113	-3.008000	3.613400	-10.868000	25.131692	0.000935	20.758814
1072.292450	-2.996600	3.615000	-10.832000	25.087856	0.000933	20.746103
1073.296845	-3.011300	3.612900	-10.878000	25.052511	0.000932	20.763254
1074.299073	-2.998100	3.612200	-10.829000	25.045670	0.000931	20.739317
1075.294767	-3.001000	3.613700	-10.844000	25.032966	0.000932	20.740789
1076.298462	-3.005300	3.611200	-10.852000	25.020554	0.000930	20.758203
1077.293685	-3.005100	3.610800	-10.850000	25.009991	0.000930	20.753289
1078.292488	-2.990000	3.611700	-10.798000	25.011653	0.000931	20.744526
1079.293914	-2.982700	3.612100	-10.773000	25.017118	0.000931	20.741477
1080.294907	-2.994800	3.611300	-10.814000	25.022013	0.000929	20.750658
1081.297582	-2.993300	3.610600	-10.807000	25.006653	0.000931	20.755628
1082.295230	-2.990300	3.611700	-10.800000	25.009725	0.000931	20.751599
1083.295995	-3.017700	3.610100	-10.892000	25.038375	0.000929	20.747641
1084.306829	-3.010800	3.608200	-10.862000	25.063410	0.000927	20.723932
1085.294280	-3.020400	3.607700	-10.894000	25.057115	0.000926	20.732313
1086.296013	-3.017200	3.607500	-10.882000	25.071880	0.000927	20.757567
1087.296331	-2.992900	3.608100	-10.798000	25.083126	0.000927	20.749889
1088.295794	-2.986000	3.609100	-10.776000	25.105098	0.000927	20.745867
1089.296296	-3.009900	3.609100	-10.862000	25.058711	0.000926	20.733915
1090.296577	-3.009600	3.606800	-10.854000	25.082695	0.000925	20.739499
1091.300235	-2.996200	3.606900	-10.806000	25.108306	0.000925	20.756201
1092.298560	-3.011500	3.607600	-10.863000	25.096530	0.000925	20.765716
1093.303343	-2.997600	3.607300	-10.812000	25.097677	0.000924	20.734624
1094.302635	-3.015500	3.606000	-10.872000	25.072808	0.000924	20.727676
1095.302311	-3.004400	3.606200	-10.833000	25.082440	0.000922	20.748727
1096.303411	-3.009400	3.605000	-10.848000	25.093409	0.000922	20.735081
1097.303938	-3.009100	3.605500	-10.848000	25.120871	0.000924	20.730406
1098.303246	-2.988500	3.606700	-10.777000	25.094298	0.000922	20.723644
1099.305308	-2.960700	3.607600	-10.679000	25.106488	0.000921	20.731140
1100.306612	-3.009600	3.603300	-10.844000	25.070184	0.000920	20.727413
1101.302401	-2.976200	3.606200	-10.732000	25.068546	0.000919	20.737150
1102.306525	-2.992800	3.603500	-10.783000	25.045107	0.000919	20.746338
1103.303100	-2.977100	3.603900	-10.727000	25.066892	0.000919	20.722686
1104.304649	-3.001300	3.603300	-10.813000	25.050107	0.000919	20.717217
1105.307706	-2.997800	3.603300	-10.801000	25.064351	0.000919	20.723929
1106.303760	-2.994200	3.605000	-10.792000	25.031815	0.000919	20.721615
1107.304631	-3.015200	3.602500	-10.860000	25.014232	0.000918	20.734312
1108.307400	-3.013100	3.603000	-10.855000	25.018368	0.000916	20.721868
1109.302415	-3.007200	3.602300	-10.831000	25.013637	0.000917	20.734189
1110.305524	-3.008200	3.601900	-10.835000	25.019908	0.000915	20.738587
1111.308816	-3.022700	3.601100	-10.883000	25.034030	0.000915	20.711509
1112.307940	-3.016000	3.599800	-10.856000	25.044471	0.000915	20.711558
1113.307183	-2.995800	3.602200	-10.790000	25.096404	0.000915	20.730027
1114.306736	-2.977600	3.602800	-10.726000	25.114979	0.000915	20.711214
1115.307642	-2.988200	3.601300	-10.761000	25.079701	0.000912	20.730329
1116.305522	-2.995200	3.599200	-10.779000	25.071402	0.000914	20.730533
1117.306086	-2.990900	3.600500	-10.768000	25.089424	0.000911	20.721123
1118.309313	-3.016400	3.597100	-10.849000	25.085205	0.000912	20.720206
1119.307707	-2.997600	3.599000	-10.788000	25.094904	0.000910	20.734211
1120.307942	-2.983600	3.600000	-10.740000	25.108871	0.000912	20.720256
1121.309987	-3.001900	3.599100	-10.802000	25.126973	0.000910	20.718988
1122.307566	-2.995400	3.597600	-10.775000	25.159986	0.000910	20.714197
1123.307492	-2.998800	3.597600	-10.787000	25.162918	0.000911	20.728995
1124.311567	-3.005500	3.597800	-10.813000	25.158048	0.000908	20.729321
1125.308158	-2.986200	3.596200	-10.738000	25.166802	0.000910	20.704917
1126.309131	-2.975900	3.597600	-10.705000	25.119791	0.000909	20.724580
1127.307161	-2.992600	3.597400	-10.764000	25.112387	0.000909	20.706241
1128.313781	-2.982300	3.595900	-10.723000	25.115823	0.000908	20.699732
1129.308432	-2.994300	3.596200	-10.767000	25.145751	0.000909	20.719346
1130.306810	-3.014900	3.595600	-10.839000	25.154424	0.000908	20.707189
1131.311885	-2.979200	3.595600	-10.711000	25.137274	0.000906	20.706094
1132.312041	-2.980100	3.595700	-10.714000	25.116670	0.000907	20.697737
1133.309819	-2.995300	3.594500	-10.765000	25.132453	0.000905	20.711211
1134.312114	-3.000300	3.594100	-10.782000	25.167932	0.000907	20.725967
1135.311603	-3.000900	3.592900	-10.781000	25.196970	0.000905	20.703435
1136.313570	-2.990100	3.594200	-10.746000	25.186954	0.000904	20.708078
1137.311206	-2.978500	3.593600	-10.702000	25.227847	0.000906	20.712624
1138.310060	-3.018000	3.592700	-10.842000	25.214599	0.000904	20.706909
1139.310478	-3.005000	3.593900	-10.798000	25.182287	0.000904	20.701970
1140.310518	-2.998700	3.592100	-10.771000	25.192450	0.000904	20.727822
1141.310638	-3.008500	3.591900	-10.805000	25.220542	0.000903	20.693909
1142.311038	-2.969800	3.594400	-10.674000	25.222334	0.000905	20.706140
1143.311087	-3.020800	3.590700	-10.845000	25.230663	0.000902	20.697432
1144.310204	-3.005200	3.591900	-10.793000	25.183281	0.000904	20.702494
1145.312498	-3.033500	3.589400	-10.888000	25.227008	0.000901	20.686649
1146.311560	-2.991800	3.591100	-10.743000	25.265066	0.000901	20.709688
1147.317146	-3.014500	3.590300	-10.822000	25.258430	0.000901	20.706344
1148.318145	-2.999200	3.589900	-10.765000	25.245255	0.000900	20.699280
1149.315080	-3.005900	3.590200	-10.790000	25.237405	0.000900	20.694717
1150.318836	-2.995500	3.589700	-10.751000	25.236159	0.000898	20.704847
1151.315856	-3.019700	3.589200	-10.837000	25.240655	0.000899	20.713628
1152.316727	-3.009300	3.588100	-10.797000	25.260368	0.000897	20.719670
1153.318655	-2.990000	3.590100	-10.734000	25.277051	0.000898	20.692322
1154.315606	-3.000600	3.589100	-10.768000	25.312470	0.000897	20.706547
1155.316623	-2.967600	3.589000	-10.649000	25.295119	0.000896	20.689599
1156.319953	-3.001600	3.588400	-10.770000	25.296119	0.000896	20.707201
1157.317224	-2.972800	3.588200	-10.666000	25.263411	0.000894	20.698543
1158.316336	-2.993800	3.588300	-10.741000	25.253438	0.000893	20.704177
1159.316522	-2.980100	3.586700	-10.687000	25.248127	0.000895	20.712122
1160.320903	-2.994800	3.586300	-10.739000	25.234229	0.000892	20.709547
1161.318599	-3.007900	3.585900	-10.784000	25.297659	0.000892	20.708272
1162.317143	-3.001000	3.585400	-10.758000	25.307006	0.000892	20.680196
1163.319946	-3.003100	3.586400	-10.769000	25.343595	0.000891	20.686589
1164.323311	-3.012600	3.584800	-10.798000	25.349343	0.000892	20.672919
1165.318130	-2.983900	3.586400	-10.700000	25.383115	0.000892	20.700668
1166.320560	-3.044800	3.582400	-10.905000	25.396914	0.000892	20.678960
1167.321282	-2.986700	3.584000	-10.702000	25.401433	0.000890	20.716218
1168.319597	-2.993200	3.583500	-10.725000	25.383619	0.000890	20.703545
1169.324129	-2.979200	3.584100	-10.676000	25.329981	0.000889	20.695206
1170.321104	-2.997100	3.583000	-10.738000	25.325406	0.000887	20.702466
1171.320111	-2.990800	3.583600	-10.716000	25.299489	0.000887	20.684503
1172.321811	-2.991900	3.584200	-10.722000	25.338506	0.000888	20.693808
1173.320483	-3.017600	3.582600	-10.809000	25.357982	0.000887	20.713840
1174.323145	-3.010900	3.581100	-10.782000	25.383465	0.000885	20.696277
1175.322098	-3.021400	3.581400	-10.820000	25.377179	0.000886	20.698501
1176.322392	-2.983900	3.582100	-10.688000	25.374615	0.000886	20.682174
1177.323670	-2.984600	3.581800	-10.689000	25.384483	0.000886	20.693980
1178.324022	-3.014100	3.581900	-10.795000	25.335372	0.000884	20.700619
1179.328236	-2.995700	3.581200	-10.727000	25.359382	0.000886	20.674464
1180.323328	-2.993000	3.581200	-10.717000	25.321418	0.000884	20.680442
1181.323827	-2.993900	3.581400	-10.721000	25.309399	0.000883	20.704412
1182.329050	-2.960500	3.582400	-10.605000	25.304309	0.000881	20.692189
1183.324527	-3.000600	3.579100	-10.738000	25.290998	0.000884	20.677875
1184.324658	-2.997800	3.579400	-10.729000	25.244895	0.000882	20.674260
1185.328887	-2.981500	3.581100	-10.676000	25.206217	0.000881	20.674309
1186.325679	-2.992300	3.579400	-10.709000	25.194165	0.000881	20.667425
1187.325617	-2.985700	3.578100	-10.682000	25.212210	0.000878	20.663729
1188.328047	-2.988100	3.578500	-10.691000	25.219612	0.000880	20.666894
1189.326523	-2.999500	3.578200	-10.732000	25.230377	0.000880	20.667744
1190.329245	-3.021300	3.577000	-10.806000	25.256939	0.000879	20.673076
1191.329754	-2.995200	3.577500	-10.714000	25.284820	0.000878	20.685423
1192.329543	-2.997500	3.577900	-10.722000	25.283158	0.000877	20.678538
1193.328263	-3.028200	3.575700	-10.827000	25.276099	0.000876	20.694685
1194.329402	-3.002200	3.576600	-10.736000	25.293174	0.000877	20.660617
1195.327779	-2.987100	3.576300	-10.681000	25.331068	0.000879	20.679700
1196.329139	-2.985700	3.576400	-10.677000	25.323666	0.000874	20.670371
1197.328782	-2.992800	3.575300	-10.699000	25.291872	0.000876	20.673536
1198.327402	-3.004700	3.575400	-10.741000	25.294762	0.000875	20.696828
1199.329487	-3.012600	3.573300	-10.764000	25.275084	0.000874	20.687027
1200.329213	-2.992700	3.575200	-10.699000	25.311276	0.000874	20.686381
1201.330431	-2.997100	3.573000	-10.708000	25.306847	0.000875	20.678141
1202.331209	-3.006800	3.573400	-10.743000	25.350293	0.000872	20.669131
1203.328806	-2.990300	3.573600	-10.685000	25.386524	0.000871	20.675165
1204.331191	-2.980800	3.573900	-10.651000	25.418260	0.000870	20.676212
1205.330872	-2.992900	3.573500	-10.694000	25.416199	0.000872	20.652804
1206.331131	-2.989600	3.572900	-10.679000	25.384586	0.000872	20.677487
1207.330532	-3.016000	3.572600	-10.774000	25.382764	0.000871	20.670441
1208.329253	-2.990100	3.572400	-10.679000	25.344546	0.000870	20.682327
1209.330859	-3.009000	3.571200	-10.744000	25.311318	0.000871	20.664610
1210.330886	-3.020400	3.571000	-10.784000	25.308607	0.000870	20.671846
1211.334872	-2.984600	3.572600	-10.661000	25.311905	0.000868	20.661880
1212.334086	-2.993600	3.571000	-10.689000	25.331316	0.000868	20.670465
1213.331154	-2.993800	3.571600	-10.692000	25.368548	0.000867	20.651897
1214.334247	-3.005700	3.570200	-10.730000	25.370129	0.000868	20.659175
1215.330780	-3.028600	3.569000	-10.808000	25.324054	0.000865	20.663173
1216.330364	-2.968100	3.571100	-10.598000	25.337252	0.000866	20.667890
1217.331074	-3.009600	3.568200	-10.738000	25.322148	0.000865	20.660310
1218.329360	-2.983000	3.570300	-10.648000	25.343734	0.000865	20.669183
1219.332657	-2.987000	3.569200	-10.660000	25.365064	0.000866	20.658831
1220.331000	-2.993600	3.567600	-10.680000	25.387388	0.000864	20.672713
1221.333155	-2.991700	3.567300	-10.671000	25.402019	0.000864	20.671758
1222.333986	-2.975100	3.569300	-10.617000	25.374956	0.000865	20.663074
1223.333335	-2.986200	3.567400	-10.652000	25.367523	0.000863	20.671733
1224.334034	-3.022400	3.566600	-10.778000	25.344825	0.000864	20.669804
1225.334038	-3.016800	3.567800	-10.762000	25.381063	0.000861	20.669207
1226.333186	-3.005500	3.567500	-10.721000	25.407686	0.000861	20.674603
1227.334289	-3.002100	3.565600	-10.704000	25.410088	0.000859	20.676067
1228.335598	-3.005200	3.565000	-10.712000	25.403159	0.000861	20.644450
1229.335123	-2.997700	3.564100	-10.682000	25.402680	0.000862	20.652030
1230.336171	-2.987300	3.565000	-10.649000	25.396541	0.000861	20.663886
1231.335276	-3.011100	3.565100	-10.733000	25.420469	0.000860	20.667050
1232.335616	-3.005600	3.563900	-10.711000	25.418434	0.000860	20.668325
1233.334856	-2.999800	3.563700	-10.689000	25.417710	0.000859	20.671866
1234.335925	-2.991800	3.564000	-10.661000	25.425908	0.000858	20.656864
1235.335092	-2.985200	3.564100	-10.637000	25.420259	0.000858	20.663994
1236.334842	-2.982300	3.563900	-10.627000	25.395639	0.000857	20.658237
1237.336055	-2.965700	3.561900	-10.562000	25.336702	0.000856	20.669235
1238.334254	-2.999400	3.561600	-10.682000	25.314035	0.000854	20.668287
1239.337999	-2.998400	3.561800	-10.678000	25.295942	0.000857	20.662449
1240.343919	-2.993200	3.562800	-10.662000	25.261191	0.000856	20.670707
1241.338331	-3.020900	3.560500	-10.755000	25.292850	0.000855	20.646065
1242.342488	-3.009700	3.561500	-10.718000	25.285749	0.000854	20.656006
1243.340090	-3.009200	3.559800	-10.712000	25.298615	0.000853	20.653751
1244.340848	-2.980100	3.562000	-10.613000	25.310225	0.000851	20.682955
1245.345591	-2.972300	3.560900	-10.583000	25.324312	0.000851	20.658215
1246.342916	-2.999900	3.560000	-10.679000	25.333861	0.000852	20.676341
1247.343005	-3.005100	3.559900	-10.697000	25.358330	0.000852	20.661552
1248.347311	-2.986600	3.560000	-10.631000	25.348567	0.000850	20.661707
1249.343656	-3.021600	3.558300	-10.750000	25.335939	0.000852	20.663727
1250.347860	-2.991700	3.558500	-10.646000	25.344789	0.000849	20.659336
1251.349042	-3.019600	3.558100	-10.743000	25.355871	0.000849	20.652444
1252.346688	-3.000100	3.558600	-10.674000	25.397548	0.000848	20.668690
1253.348923	-3.025000	3.557900	-10.762000	25.380426	0.000846	20.662877
1254.352528	-3.012800	3.557400	-10.717000	25.379408	0.000848	20.643834
1255.347571	-2.992200	3.558100	-10.646000	25.378562	0.000849	20.674756
1256.348259	-2.986700	3.557100	-10.623000	25.406194	0.000847	20.655560
1257.348525	-2.995900	3.557000	-10.655000	25.369289	0.000847	20.659280
1258.345636	-2.987300	3.556400	-10.622000	25.370128	0.000848	20.657277
1259.348906	-2.991800	3.556400	-10.638000	25.380314	0.000844	20.655651
1260.350710	-2.982700	3.556700	-10.608000	25.358298	0.000844	20.661521
1261.347146	-3.006600	3.555400	-10.688000	25.391752	0.000845	20.661921
1262.348201	-3.008400	3.555200	-10.694000	25.409059	0.000845	20.655591
1263.351274	-2.980300	3.555500	-10.595000	25.418723	0.000844	20.650596
1264.350604	-2.986500	3.554600	-10.615000	25.453291	0.000846	20.663498
1265.348085	-2.970500	3.555400	-10.559000	25.456547	0.000843	20.657759
1266.350107	-2.998700	3.555400	-10.661000	25.467659	0.000842	20.656115
1267.351566	-3.013900	3.553100	-10.706000	25.478267	0.000841	20.670562
1268.349701	-2.996200	3.554100	-10.648000	25.433736	0.000841	20.641488
1269.352252	-3.011200	3.552800	-10.697000	25.385872	0.000839	20.669294
1270.351539	-3.021600	3.551700	-10.731000	25.342746	0.000840	20.661552
1271.352319	-2.999100	3.551800	-10.651000	25.352719	0.000839	20.645485
1272.351877	-2.992500	3.552400	-10.628000	25.366242	0.000840	20.662859
1273.355615	-3.010300	3.550100	-10.686000	25.375116	0.000838	20.662287
1274.353804	-3.005600	3.551200	-10.673000	25.395925	0.000840	20.639556
1275.355192	-2.991800	3.551800	-10.625000	25.363545	0.000836	20.653512
1276.355924	-3.013100	3.550800	-10.696000	25.378128	0.000836	20.662466
1277.356360	-3.030800	3.548200	-10.754000	25.325271	0.000836	20.668662
1278.353927	-3.004800	3.550900	-10.668000	25.312244	0.000835	20.670756
1279.356512	-3.000300	3.550300	-10.651000	25.304296	0.000835	20.672734
1280.356856	-3.002700	3.549500	-10.657000	25.350949	0.000834	20.653193
1281.355098	-3.012200	3.548900	-10.688000	25.354052	0.000835	20.674802
1282.355969	-3.000100	3.548700	-10.645000	25.408014	0.000834	20.657861
1283.357101	-3.011300	3.548600	-10.685000	25.421984	0.000832	20.665726
1284.357346	-2.974500	3.549300	-10.557000	25.440350	0.000832	20.651451
1285.358023	-2.977000	3.548600	-10.563000	25.470619	0.000833	20.648180
1286.361005	-2.990200	3.547600	-10.607000	25.484508	0.000832	20.650274
1287.356466	-3.013100	3.545400	-10.682000	25.498907	0.000829	20.660942
1288.357442	-3.035700	3.544600	-10.757000	25.516247	0.000830	20.661286
1289.358459	-3.007800	3.547500	-10.669000	25.534140	0.000829	20.664082
1290.359654	-3.010900	3.545200	-10.674000	25.550599	0.000831	20.658799
1291.362886	-3.003400	3.544500	-10.644000	25.549721	0.000830	20.672144
1292.360117	-3.005800	3.545100	-10.655000	25.550274	0.000828	20.675070
1293.360176	-3.006900	3.546000	-10.661000	25.493843	0.000829	20.654907
1294.360530	-2.996200	3.544300	-10.618000	25.493346	0.000826	20.666738
1295.363616	-2.988300	3.544900	-10.592000	25.471952	0.000826	20.641457
1296.361067	-2.993600	3.543100	-10.604000	25.464519	0.000828	20.655332
1297.361074	-2.999800	3.544200	-10.631000	25.517744	0.000828	20.669429
1298.363946	-3.014500	3.543600	-10.681000	25.535718	0.000827	20.669935
1299.365277	-3.005600	3.543400	-10.649000	25.553341	0.000824	20.680522
1300.361508	-2.982200	3.543400	-10.566000	25.567806	0.000826	20.651897
1301.361547	-3.004000	3.542600	-10.640000	25.552267	0.000824	20.658578
1302.364574	-3.014200	3.541400	-10.674000	25.536963	0.000823	20.673556
1303.363427	-2.988400	3.543600	-10.588000	25.507738	0.000824	20.660802
1304.362190	-3.012600	3.542600	-10.670000	25.494917	0.000827	20.678748
1305.365250	-3.006200	3.540800	-10.642000	25.484977	0.000823	20.670662
1306.362996	-2.996900	3.540400	-10.609000	25.480556	0.000823	20.659109
1307.363527	-3.005600	3.541400	-10.643000	25.488754	0.000821	20.658807
1308.365796	-3.004500	3.540700	-10.637000	25.531843	0.000819	20.659878
1309.367356	-3.021600	3.539500	-10.694000	25.542954	0.000818	20.671038
1310.364403	-2.986500	3.540400	-10.573000	25.591958	0.000817	20.676156
1311.375794	-2.983500	3.539900	-10.560000	25.604607	0.000818	20.659460
1312.367688	-2.991700	3.539400	-10.586000	25.609874	0.000818	20.674234
1313.364408	-3.008600	3.539700	-10.648000	25.610940	0.000819	20.681944
1314.365986	-3.001200	3.538700	-10.619000	25.614497	0.000817	20.659435
1315.365216	-3.002300	3.538500	-10.622000	25.635164	0.000816	20.677350
1316.367055	-2.977400	3.538400	-10.534000	25.652713	0.000815	20.695924
1317.364907	-2.991500	3.537900	-10.583000	25.638696	0.000817	20.667146
1318.366684	-3.000700	3.539300	-10.619000	25.632014	0.000816	20.694101
1319.365829	-3.027400	3.536300	-10.705000	25.618770	0.000816	20.671315
1320.367327	-2.986300	3.537100	-10.561000	25.595165	0.000816	20.673686
1321.369555	-3.005100	3.535600	-10.623000	25.534854	0.000815	20.666696
1322.367449	-2.991100	3.537000	-10.579000	25.522904	0.000813	20.698320
1323.368516	-3.011800	3.535700	-10.648000	25.545469	0.000812	20.661708
1324.370712	-2.993500	3.536000	-10.584000	25.545143	0.000814	20.686988
1325.370939	-2.989700	3.536400	-10.573000	25.552795	0.000811	20.680448
1326.370653	-2.999900	3.535700	-10.606000	25.550092	0.000812	20.695278
1327.374432	-2.980700	3.535800	-10.538000	25.560178	0.000812	20.671740
1328.369604	-2.989100	3.535500	-10.566000	25.580553	0.000812	20.697421
1329.367621	-3.020800	3.532900	-10.671000	25.574342	0.000811	20.708253
1330.368124	-2.997900	3.533000	-10.590000	25.566022	0.000811	20.682352
1331.373281	-3.000100	3.535400	-10.604000	25.532672	0.000809	20.682524
1332.370147	-3.020000	3.531900	-10.665000	25.543979	0.000808	20.684396
1333.371172	-3.002100	3.533200	-10.605000	25.545518	0.000807	20.674561
1334.372036	-2.988600	3.533400	-10.559000	25.532273	0.000807	20.685917
1335.371624	-3.005400	3.531900	-10.614000	25.530734	0.000808	20.675362
1336.380229	-2.998700	3.532100	-10.590000	25.533543	0.000806	20.694305
1337.374988	-3.005000	3.531900	-10.613000	25.506997	0.000807	20.690406
1338.373883	-3.000000	3.532800	-10.597000	25.523131	0.000807	20.664880
1339.374238	-3.030800	3.529800	-10.698000	25.523848	0.000807	20.687888
1340.376009	-2.999400	3.530300	-10.588000	25.534763	0.000805	20.691263
1341.374747	-2.993100	3.530000	-10.564000	25.568107	0.000803	20.685394
1342.373279	-2.996000	3.529100	-10.572000	25.574465	0.000804	20.683244
1343.375920	-2.990400	3.530300	-10.556000	25.576783	0.000800	20.684625
1344.377901	-3.007700	3.528900	-10.613000	25.587464	0.000802	20.724277
1345.377178	-2.987600	3.527500	-10.537000	25.569596	0.000799	20.693529
1346.375244	-2.993800	3.527700	-10.558000	25.588090	0.000801	20.680332
1347.378546	-3.004700	3.527000	-10.597000	25.548977	0.000800	20.690838
1348.379228	-3.014800	3.526300	-10.629000	25.522585	0.000801	20.688991
1349.374864	-3.015600	3.527000	-10.635000	25.509309	0.000798	20.681347
1350.381042	-3.004300	3.527000	-10.595000	25.518605	0.000798	20.695900
1351.381987	-3.016500	3.528100	-10.642000	25.514405	0.000798	20.700217
1352.377305	-2.980300	3.527500	-10.512000	25.520308	0.000796	20.708517
1353.385211	-3.005400	3.524900	-10.592000	25.535155	0.000799	20.702563
1354.380037	-3.000200	3.525100	-10.575000	25.533910	0.000796	20.684242
1355.377502	-2.987100	3.525000	-10.529000	25.517930	0.000796	20.710396
1356.379879	-2.997300	3.525000	-10.564000	25.529898	0.000795	20.720519
1357.379562	-3.017000	3.524900	-10.633000	25.553928	0.000797	20.680637
1358.376876	-2.997800	3.525300	-10.567000	25.528604	0.000794	20.687448
1359.376320	-3.010900	3.524100	-10.609000	25.572555	0.000798	20.713097
1360.378379	-3.022200	3.523300	-10.647000	25.599994	0.000795	20.682805
1361.377667	-2.992700	3.524800	-10.547000	25.622550	0.000794	20.723954
1362.377422	-2.988900	3.523700	-10.531000	25.607540	0.000795	20.698920
1363.382012	-3.006800	3.522900	-10.592000	25.625750	0.000795	20.702036
1364.378143	-3.008500	3.521500	-10.594000	25.650901	0.000792	20.712124
1365.379900	-2.994600	3.522200	-10.546000	25.668955	0.000791	20.708920
1366.382064	-2.981400	3.522900	-10.502000	25.694000	0.000791	20.718903
1367.380869	-3.018900	3.520900	-10.628000	25.675638	0.000791	20.701881
1368.380951	-2.986300	3.522300	-10.518000	25.701357	0.000793	20.710645
1369.382557	-2.999700	3.522300	-10.565000	25.740839	0.000791	20.712369
1370.381088	-3.002300	3.520800	-10.570000	25.732181	0.000790	20.705095
1371.380461	-3.012400	3.518600	-10.598000	25.725891	0.000790	20.727701
1372.384752	-2.990700	3.521500	-10.530000	25.671487	0.000789	20.728059
1373.382966	-3.013300	3.519900	-10.605000	25.652799	0.000788	20.701227
1374.382766	-2.999900	3.519200	-10.556000	25.636447	0.000789	20.709935
1375.386539	-2.993300	3.519300	-10.534000	25.675907	0.000788	20.701677
1376.384338	-3.005400	3.518100	-10.572000	25.659996	0.000788	20.725527
1377.384334	-3.011200	3.517500	-10.591000	25.637090	0.000789	20.728600
1378.390525	-2.997600	3.517100	-10.541000	25.658831	0.000786	20.730996
1379.386372	-2.992700	3.518100	-10.527000	25.671106	0.000787	20.723409
1380.385509	-3.005100	3.517400	-10.569000	25.633086	0.000786	20.728846
1381.386648	-3.004600	3.516300	-10.563000	25.638402	0.000787	20.718537
1382.386032	-2.966300	3.518500	-10.434000	25.648886	0.000784	20.716738
1383.387635	-3.017600	3.517000	-10.612000	25.644098	0.000783	20.721414
1384.386094	-3.017100	3.514400	-10.601000	25.641829	0.000782	20.728618
1385.386246	-3.008700	3.514800	-10.573000	25.618353	0.000784	20.706461
1386.388664	-2.987800	3.516300	-10.504000	25.581951	0.000781	20.729647
1387.385883	-3.001600	3.516500	-10.554000	25.577475	0.000784	20.737954
1388.385116	-3.012200	3.514900	-10.587000	25.598402	0.000780	20.721038
1389.386206	-3.006700	3.514900	-10.568000	25.607869	0.000780	20.730072
1390.385783	-3.003100	3.513700	-10.550000	25.589439	0.000782	20.714406
1391.391646	-3.026700	3.512600	-10.630000	25.592362	0.000780	20.731094
1392.387082	-2.993300	3.513600	-10.516000	25.575593	0.000780	20.738435
1393.387474	-3.010200	3.513000	-10.573000	25.571442	0.000778	20.739482
1394.395884	-2.963100	3.513600	-10.410000	25.575992	0.000778	20.732197
1395.386946	-3.024000	3.513100	-10.622000	25.566850	0.000779	20.733922
1396.387455	-3.002800	3.511600	-10.543000	25.557929	0.000778	20.729229
1397.387995	-3.007300	3.510500	-10.556000	25.595349	0.000777	20.734094
1398.388609	-2.998100	3.510800	-10.524000	25.587355	0.000778	20.713736
1399.390077	-2.989300	3.509900	-10.491000	25.579297	0.000777	20.744051
1400.388914	-2.980700	3.510200	-10.461000	25.610285	0.000776	20.741509
1401.389653	-2.972500	3.510700	-10.434000	25.617482	0.000775	20.734512
1402.388653	-2.994800	3.510400	-10.512000	25.643536	0.000774	20.736496
1403.390831	-3.004200	3.509800	-10.543000	25.627533	0.000775	20.743658
1404.390994	-2.993000	3.509900	-10.503000	25.597790	0.000775	20.726114
1405.389373	-2.985400	3.510100	-10.478000	25.631439	0.000774	20.722924
1406.389480	-2.976600	3.509100	-10.443000	25.642511	0.000772	20.734045
1407.389903	-3.000500	3.507300	-10.522000	25.627998	0.000772	20.750764
1408.390225	-2.986100	3.508700	-10.476000	25.636569	0.000773	20.745621
1409.390332	-2.978100	3.508200	-10.446000	25.648323	0.000771	20.745098
1410.392268	-2.988600	3.507300	-10.481000	25.669525	0.000773	20.738418
1411.393536	-3.017300	3.506000	-10.577000	25.687912	0.000770	20.750247
1412.391970	-3.009500	3.505200	-10.547000	25.679260	0.000771	20.733971
1413.391736	-3.009700	3.505800	-10.550000	25.714023	0.000770	20.732376
1414.393326	-3.003500	3.506600	-10.531000	25.717229	0.000769	20.727062
1415.392692	-2.968600	3.506900	-10.410000	25.693748	0.000770	20.741884
1416.393612	-3.014200	3.503300	-10.557000	25.652750	0.000770	20.741010
1417.398970	-3.018900	3.505000	-10.580000	25.632027	0.000769	20.769983
1418.398319	-2.998300	3.505000	-10.508000	25.640500	0.000769	20.750518
1419.396553	-2.997800	3.503100	-10.500000	25.630929	0.000767	20.746594
1420.399170	-2.977900	3.505900	-10.439000	25.631506	0.000767	20.744329
1421.397661	-2.985000	3.504200	-10.458000	25.606785	0.000767	20.725664
1422.396325	-3.011700	3.501800	-10.544000	25.618140	0.000766	20.752242
1423.399019	-3.012300	3.502500	-10.550000	25.606134	0.000766	20.743504
1424.398762	-3.024800	3.502500	-10.593000	25.598857	0.000765	20.737617
1425.396191	-3.023300	3.501800	-10.585000	25.603480	0.000763	20.738467
1426.398771	-2.985900	3.502400	-10.456000	25.589047	0.000763	20.751473
1427.400916	-3.008200	3.500800	-10.530000	25.587257	0.000763	20.746830
1428.397573	-2.998500	3.501100	-10.497000	25.586638	0.000764	20.764701
1429.400769	-3.013400	3.500100	-10.545000	25.585914	0.000765	20.762551
1430.396847	-3.019500	3.499900	-10.566000	25.589145	0.000761	20.781918
1431.397554	-2.991700	3.500800	-10.471000	25.610716	0.000760	20.753321
1432.400108	-2.995900	3.500500	-10.486000	25.598570	0.000761	20.748709
1433.397042	-3.011200	3.499700	-10.537000	25.590446	0.000761	20.786544
1434.396911	-3.036100	3.498300	-10.620000	25.599336	0.000761	20.766074
1435.413034	-3.015600	3.497700	-10.547000	25.631789	0.000759	20.749355
1436.397742	-3.009500	3.497800	-10.525000	25.653555	0.000759	20.759362
1437.397602	-3.002200	3.497900	-10.500000	25.707763	0.000757	20.783938
1438.398732	-2.995400	3.497100	-10.474000	25.716464	0.000758	20.765649
1439.397748	-3.000400	3.497000	-10.491000	25.720020	0.000758	20.765902
1440.397443	-3.019700	3.496000	-10.556000	25.717278	0.000756	20.765045
1441.397370	-3.016100	3.495200	-10.542000	25.721453	0.000756	20.772084
1442.399066	-3.016200	3.495900	-10.543000	25.713607	0.000756	20.767996
1443.399729	-2.992400	3.496000	-10.459000	25.726255	0.000755	20.764578
1444.398929	-3.006900	3.495000	-10.508000	25.709480	0.000755	20.778076
1445.399396	-2.991400	3.496400	-10.458000	25.716065	0.000755	20.774258
1446.400412	-2.990400	3.496000	-10.453000	25.743217	0.000756	20.768814
1447.399757	-3.004100	3.494400	-10.497000	25.714722	0.000755	20.789979
1448.399240	-3.002500	3.494300	-10.491000	25.712582	0.000751	20.770760
1449.398766	-2.994000	3.492400	-10.455000	25.726020	0.000754	20.786154
1450.401009	-2.983200	3.493700	-10.422000	25.717449	0.000751	20.770907
1451.398366	-3.020300	3.491900	-10.545000	25.674417	0.000752	20.780317
1452.400575	-3.011700	3.492500	-10.518000	25.667889	0.000750	20.756215
1453.403431	-2.998800	3.491600	-10.469000	25.649648	0.000752	20.775354
1454.399514	-3.020400	3.491600	-10.545000	25.622235	0.000749	20.772951
1455.398178	-3.014300	3.491000	-10.521000	25.624945	0.000748	20.770457
1456.398850	-3.012800	3.490900	-10.517000	25.662835	0.000748	20.796659
1457.400392	-3.008600	3.490100	-10.499000	25.693521	0.000748	20.781960
1458.399119	-2.997800	3.490300	-10.462000	25.709393	0.000748	20.777988
1459.399294	-2.992500	3.489900	-10.443000	25.737276	0.000748	20.814055
1460.399195	-2.992300	3.490300	-10.442000	25.728534	0.000748	20.785834
1461.400359	-3.031100	3.488200	-10.571000	25.706868	0.000749	20.794893
1462.400092	-3.003900	3.488400	-10.478000	25.668011	0.000747	20.777201
1463.399935	-2.997400	3.488600	-10.456000	25.650309	0.000747	20.794510
1464.401488	-2.991700	3.487700	-10.433000	25.653278	0.000746	20.778525
1465.401585	-3.001800	3.487100	-10.466000	25.653824	0.000747	20.801359
1466.400963	-3.014800	3.487100	-10.512000	25.650380	0.000745	20.796003
1467.399557	-3.001700	3.487300	-10.466000	25.680960	0.000744	20.795423
1468.401448	-2.989700	3.487600	-10.426000	25.679170	0.000746	20.785090
1469.401524	-3.012900	3.485200	-10.500000	25.709757	0.000744	20.786414
1470.404572	-3.005100	3.485400	-10.474000	25.711075	0.000744	20.793902
1471.402432	-2.982600	3.487100	-10.400000	25.724293	0.000744	20.792006
1472.403288	-2.981800	3.485100	-10.391000	25.713907	0.000743	20.798644
1473.403167	-2.992000	3.484400	-10.424000	25.700200	0.000743	20.803368
1474.404266	-3.003000	3.485000	-10.463000	25.711743	0.000741	20.800263
1475.402008	-2.999600	3.483500	-10.448000	25.699476	0.000740	20.787942
1476.403249	-2.996300	3.483600	-10.437000	25.665567	0.000741	20.797032
1477.404520	-2.998000	3.483900	-10.443000	25.685135	0.000740	20.804832
1478.404343	-2.989200	3.483300	-10.411000	25.677240	0.000739	20.809704
1479.407584	-2.995600	3.481200	-10.427000	25.697483	0.000738	20.790682
1480.405305	-3.007500	3.480800	-10.466000	25.709488	0.000739	20.803213
1481.404949	-3.002200	3.481100	-10.450000	25.705459	0.000737	20.804857
1482.409325	-3.022600	3.480700	-10.520000	25.726506	0.000739	20.807979
1483.408034	-2.985600	3.482000	-10.395000	25.713240	0.000738	20.802240
1484.408162	-2.995900	3.480200	-10.425000	25.735818	0.000738	20.814013
1485.408215	-3.001300	3.480700	-10.444000	25.763896	0.000738	20.815190
1486.406493	-2.999000	3.479600	-10.433000	25.752868	0.000736	20.808380
1487.408404	-2.995600	3.479800	-10.423000	25.764425	0.000736	20.818091
1488.408411	-3.015300	3.479000	-10.489000	25.771855	0.000734	20.808485
1489.409467	-3.008800	3.479200	-10.467000	25.796726	0.000735	20.819243
1490.409259	-3.011900	3.479900	-10.480000	25.799835	0.000734	20.817624
1491.408196	-3.008900	3.477800	-10.463000	25.826390	0.000734	20.807790
1492.411307	-2.983100	3.477600	-10.373000	25.836701	0.000732	20.819570
1493.409962	-2.985700	3.476500	-10.378000	25.850837	0.000732	20.813381
1494.409248	-3.025400	3.475700	-10.514000	25.823646	0.000733	20.808826
1495.410868	-2.997700	3.478100	-10.426000	25.831086	0.000732	20.832895
1496.413766	-3.022000	3.476100	-10.503000	25.848760	0.000732	20.817933
1497.409558	-3.002200	3.476600	-10.436000	25.828464	0.000731	20.793278
1498.408607	-2.997200	3.475600	-10.416000	25.834429	0.000731	20.817761
1499.411260	-3.019000	3.474700	-10.489000	25.873084	0.000730	20.819135
1500.409122	-3.015900	3.473900	-10.476000	25.887489	0.000730	20.804682
1501.410579	-3.022100	3.474700	-10.500000	25.903446	0.000728	20.818341
1502.410834	-3.002500	3.473900	-10.429000	25.915067	0.000728	20.796825
1503.410773	-3.011000	3.472000	-10.453000	25.914147	0.000728	20.819135
1504.411742	-2.995900	3.473300	-10.403000	25.925401	0.000728	20.820483
1505.411064	-3.014400	3.473300	-10.468000	25.930055	0.000728	20.808563
1506.409624	-2.984100	3.474300	-10.367000	25.921178	0.000728	20.831413
1507.411778	-2.997800	3.473400	-10.411000	25.949087	0.000726	20.805399
1508.412250	-2.995000	3.472600	-10.398000	25.918678	0.000724	20.808040
1509.421835	-3.017100	3.471000	-10.471000	25.949584	0.000724	20.806846
1510.412413	-3.003100	3.471700	-10.425000	25.954727	0.000725	20.815806
1511.412527	-2.998100	3.471200	-10.406000	25.906708	0.000723	20.827782
1512.409333	-3.005700	3.469700	-10.427000	25.858809	0.000723	20.815226
1513.412034	-3.001500	3.470400	-10.415000	25.839114	0.000725	20.798761
1514.411746	-3.010000	3.470100	-10.443000	25.812755	0.000724	20.803102
1515.410577	-3.016000	3.469000	-10.462000	25.795591	0.000721	20.796292
1516.414439	-2.997600	3.469200	-10.398000	25.822667	0.000723	20.803102
1517.411565	-2.998100	3.469000	-10.399000	25.832384	0.000723	20.790103
1518.410246	-2.972300	3.468400	-10.308000	25.810695	0.000720	20.801033
1519.416124	-3.003100	3.467400	-10.413000	25.796251	0.000723	20.797904
1520.411934	-2.997800	3.466300	-10.390000	25.795192	0.000721	20.793521
1521.411072	-2.990700	3.465900	-10.364000	25.810492	0.000721	20.792295
1522.413340	-2.995700	3.467700	-10.387000	25.784230	0.000720	20.811907
1523.412583	-3.010700	3.466000	-10.435000	25.794541	0.000719	20.788600
1524.412046	-3.001200	3.464900	-10.397000	25.764160	0.000719	20.792695
1525.412352	-3.002400	3.466000	-10.404000	25.788828	0.000718	20.778119
1526.411560	-2.993200	3.465300	-10.371000	25.723864	0.000718	20.784462
1527.412738	-2.995200	3.466000	-10.380000	25.703883	0.000717	20.782411
1528.413540	-3.001100	3.464900	-10.397000	25.681052	0.000719	20.799783
1529.413694	-2.994300	3.462700	-10.367000	25.693872	0.000716	20.789899
1530.412886	-2.983300	3.463800	-10.332000	25.713723	0.000716	20.788976
1531.413679	-2.993300	3.464300	-10.368000	25.705072	0.000715	20.801149
1532.415961	-3.019500	3.463500	-10.457000	25.712698	0.000717	20.790791
1533.413327	-2.994800	3.462900	-10.370000	25.698316	0.000716	20.792941
1534.414328	-3.013300	3.463000	-10.434000	25.726738	0.000714	20.787349
1535.414328	-2.998000	3.461800	-10.377000	25.732305	0.000713	20.778716
1536.414668	-3.007700	3.461800	-10.411000	25.763908	0.000715	20.788649
1537.415482	-3.012200	3.460800	-10.424000	25.728871	0.000716	20.779534
1538.415141	-3.010800	3.461000	-10.419000	25.729326	0.000713	20.781888
1539.416579	-2.975100	3.463100	-10.302000	25.720853	0.000713	20.788551
1540.414517	-2.979800	3.459900	-10.309000	25.739963	0.000713	20.762700
1541.415778	-2.997500	3.459700	-10.369000	25.739197	0.000712	20.783742
1542.415654	-3.000600	3.458700	-10.377000	25.745229	0.000710	20.788853
1543.416082	-2.990800	3.460400	-10.349000	25.736959	0.000711	20.745932
1544.416442	-2.997900	3.458000	-10.365000	25.726899	0.000712	20.777554
1545.415915	-2.997600	3.458100	-10.365000	25.739767	0.000710	20.796643
1546.415987	-2.983500	3.457600	-10.315000	25.738260	0.000711	20.779008
1547.416986	-2.999700	3.456500	-10.367000	25.752300	0.000709	20.770350
1548.420001	-2.980200	3.458700	-10.306000	25.772321	0.000708	20.764383
1549.418912	-2.994500	3.456700	-10.350000	25.758859	0.000708	20.774094
1550.419743	-2.985800	3.455800	-10.317000	25.755115	0.000709	20.768910
1551.419871	-2.994600	3.455700	-10.348000	25.769618	0.000708	20.782531
1552.421643	-2.997800	3.456400	-10.361000	25.749971	0.000707	20.781288
1553.420640	-2.999300	3.455700	-10.363000	25.753552	0.000707	20.773031
1554.420953	-2.995500	3.455300	-10.349000	25.765751	0.000705	20.768215
1555.420629	-3.008200	3.453300	-10.387000	25.806077	0.000706	20.772212
1556.420134	-3.006800	3.455500	-10.388000	25.813329	0.000703	20.779497
1557.421133	-2.977100	3.454300	-10.283000	25.791591	0.000706	20.770937
1558.426134	-2.999200	3.453300	-10.356000	25.765538	0.000703	20.756621
1559.422133	-2.991600	3.453300	-10.330000	25.730355	0.000701	20.742143
1560.423532	-3.005100	3.451800	-10.371000	25.731348	0.000704	20.752624
1561.430532	-2.994700	3.452200	-10.337000	25.697968	0.000702	20.758926
1562.425531	-2.997400	3.452200	-10.347000	25.699898	0.000704	20.759442
1563.426535	-2.988000	3.451400	-10.312000	25.683903	0.000702	20.751911
1564.424532	-2.997700	3.451700	-10.347000	25.695436	0.000701	20.759702
1565.425532	-2.999600	3.449700	-10.347000	25.707825	0.000701	20.771197
1566.427531	-3.020400	3.449500	-10.418000	25.718900	0.000699	20.759088
1567.427534	-3.014900	3.449000	-10.397000	25.774913	0.000702	20.759874
1568.427531	-2.999600	3.451200	-10.351000	25.783109	0.000698	20.749614
1569.427532	-2.996300	3.450600	-10.338000	25.780756	0.000698	20.741560
1570.428535	-3.007900	3.449700	-10.374000	25.810144	0.000699	20.757331
1571.430532	-3.019800	3.447900	-10.411000	25.816060	0.000699	20.749049
1572.429532	-2.998600	3.448700	-10.340000	25.818169	0.000698	20.761599
1573.431533	-3.022000	3.446700	-10.415000	25.781896	0.000697	20.746973
1574.431532	-2.997300	3.449500	-10.338000	25.798246	0.000697	20.750120
1575.431532	-3.007700	3.447200	-10.366000	25.791312	0.000695	20.744578
1576.432533	-2.997900	3.447800	-10.334000	25.761378	0.000696	20.733475
1577.433531	-3.021700	3.446200	-10.412000	25.779039	0.000695	20.755958
1578.433531	-3.013400	3.445100	-10.381000	25.777745	0.000694	20.754184
1579.432530	-3.022100	3.444800	-10.410000	25.790931	0.000695	20.755100
1580.432531	-3.000900	3.446000	-10.339000	25.755104	0.000695	20.735234
1581.433536	-3.000700	3.445200	-10.338000	25.704227	0.000693	20.751936
1582.432532	-3.027900	3.445400	-10.431000	25.731656	0.000692	20.748192
1583.434532	-3.022000	3.442800	-10.402000	25.737345	0.000693	20.754380
1584.432535	-2.999500	3.443700	-10.329000	25.741146	0.000693	20.742077
1585.434533	-2.972500	3.443200	-10.233000	25.772871	0.000693	20.752132
1586.435532	-3.002000	3.443900	-10.337000	25.729320	0.000692	20.753432
1587.434534	-3.014300	3.442400	-10.376000	25.686460	0.000693	20.739779
1588.435532	-2.998200	3.443000	-10.321000	25.686484	0.000692	20.747865
1589.435532	-3.009500	3.442600	-10.359000	25.714662	0.000691	20.748192
1590.434535	-2.996900	3.441800	-10.314000	25.723176	0.000690	20.753899
1591.434533	-2.991100	3.441600	-10.294000	25.752443	0.000690	20.745838
1592.436534	-3.010100	3.440800	-10.355000	25.711920	0.000687	20.734532
1593.436533	-3.001800	3.440700	-10.327000	25.766531	0.000688	20.750506
1594.436532	-2.979900	3.441000	-10.253000	25.759573	0.000687	20.724549
1595.438531	-2.996000	3.439500	-10.305000	25.716941	0.000687	20.733411
1596.438531	-3.013100	3.439900	-10.363000	25.723949	0.000685	20.754675
1597.438532	-3.004700	3.439400	-10.333000	25.744817	0.000687	20.728220
1598.437530	-2.971400	3.440100	-10.221000	25.754552	0.000686	20.744637
1599.439532	-2.982900	3.439400	-10.259000	25.712791	0.000686	20.742045
1600.438531	-2.984600	3.439000	-10.263000	25.687697	0.000684	20.737229
1601.438532	-2.987900	3.438500	-10.273000	25.656148	0.000684	20.741578
1602.438032	-2.987300	3.437200	-10.267000	25.656092	0.000683	20.741521
1603.438041	-2.992200	3.437000	-10.283000	25.649759	0.000683	20.745592
1604.438438	-3.034400	3.435100	-10.422000	25.676375	0.000684	20.733443
1605.439000	-3.009900	3.434900	-10.338000	25.671182	0.000682	20.755729
1606.438243	-2.989000	3.436300	-10.269000	25.641985	0.000683	20.729723
1607.438240	-3.010600	3.435000	-10.340000	25.623654	0.000685	20.740236
1608.444234	-2.998100	3.434900	-10.297000	25.586276	0.000680	20.734465
1609.440026	-3.002500	3.435300	-10.313000	25.586357	0.000682	20.742607
1610.440889	-3.005200	3.434800	-10.321000	25.643930	0.000682	20.735470
1611.440033	-3.015300	3.433300	-10.351000	25.670871	0.000681	20.741666
1612.440891	-2.987400	3.434900	-10.258000	25.721106	0.000682	20.729060
1613.440144	-2.990300	3.433600	-10.266000	25.722124	0.000680	20.727237
1614.440558	-3.013100	3.433300	-10.343000	25.702028	0.000680	20.748779
1615.439945	-2.980000	3.433500	-10.231000	25.694751	0.000679	20.768971
1616.439935	-2.998700	3.432400	-10.291000	25.708864	0.000679	20.744739
1617.439878	-3.002900	3.430200	-10.298000	25.718086	0.000679	20.721284
1618.441087	-2.979200	3.432100	-10.224000	25.744147	0.000678	20.722804
1619.450362	-3.006900	3.430200	-10.313000	25.752920	0.000678	20.735885
1620.440326	-2.996300	3.430100	-10.277000	25.773795	0.000676	20.734568
1621.444132	-2.997200	3.431800	-10.285000	25.776358	0.000677	20.722443
1622.443794	-3.019200	3.429900	-10.354000	25.794914	0.000677	20.732074
1623.443495	-3.002000	3.429700	-10.295000	25.796736	0.000675	20.731533
1624.446003	-2.994700	3.429100	-10.268000	25.756158	0.000674	20.718274
1625.444270	-2.980800	3.429900	-10.223000	25.734524	0.000674	20.735899
1626.443562	-2.997500	3.428500	-10.276000	25.754756	0.000673	20.709279
1627.443782	-3.004600	3.427400	-10.296000	25.751053	0.000673	20.732113
1628.444150	-2.997800	3.427500	-10.274000	25.759404	0.000675	20.725801
1629.446734	-2.994800	3.426400	-10.260000	25.760274	0.000672	20.737582
1630.447295	-2.989700	3.427800	-10.246000	25.775558	0.000673	20.722114
1631.444959	-3.007400	3.427000	-10.304000	25.763848	0.000671	20.731214
1632.445428	-2.998900	3.427600	-10.278000	25.747365	0.000671	20.720821
1633.444754	-3.022100	3.425800	-10.351000	25.765100	0.000672	20.725359
1634.444602	-2.982700	3.425600	-10.217000	25.768810	0.000670	20.719602
1635.445262	-2.994400	3.424400	-10.254000	25.818496	0.000672	20.731106
1636.445567	-3.008800	3.424400	-10.302000	25.807370	0.000668	20.730835
1637.453921	-3.019000	3.423600	-10.334000	25.827317	0.000669	20.711517
1638.446088	-2.981600	3.424400	-10.209000	25.790003	0.000668	20.730460
1639.446115	-2.991400	3.423600	-10.240000	25.778388	0.000669	20.721162
1640.447251	-3.011300	3.423800	-10.309000	25.792272	0.000668	20.709030
1641.449132	-3.009000	3.423500	-10.301000	25.802933	0.000672	20.714050
1642.447398	-2.976700	3.422400	-10.186000	25.836520	0.000666	20.706062
1643.447372	-3.009000	3.422300	-10.297000	25.842038	0.000668	20.712553
1644.445740	-3.023600	3.421400	-10.344000	25.862813	0.000667	20.714932
1645.445323	-2.984300	3.423000	-10.215000	25.880847	0.000664	20.698433
1646.446822	-2.983100	3.423000	-10.210000	25.904177	0.000665	20.716182
1647.446822	-3.024500	3.420600	-10.345000	25.924179	0.000664	20.697868
1648.446896	-2.990800	3.421100	-10.231000	25.944498	0.000664	20.730612
1649.447472	-2.994300	3.421100	-10.242000	25.929965	0.000664	20.710320
1650.448180	-2.992200	3.420600	-10.234000	25.859223	0.000663	20.688089
1651.446866	-3.003600	3.419500	-10.270000	25.855324	0.000663	20.701718
1652.446369	-2.992700	3.419400	-10.232000	25.852818	0.000662	20.708209
1653.446972	-2.995400	3.419100	-10.241000	25.882879	0.000660	20.689094
1654.447136	-2.986600	3.418800	-10.210000	25.884596	0.000662	20.698406
1655.450755	-3.006000	3.419000	-10.277000	25.902091	0.000659	20.713138
1656.447290	-2.997700	3.416500	-10.241000	25.921980	0.000659	20.692814
1657.446523	-3.012500	3.417100	-10.293000	25.923980	0.000659	20.723275
1658.446934	-3.011700	3.416900	-10.290000	25.946733	0.000659	20.691128
1659.449043	-3.009600	3.416700	-10.282000	25.962210	0.000659	20.682969
1660.448264	-2.968600	3.418200	-10.146000	25.975571	0.000658	20.685487
1661.448902	-3.003200	3.418000	-10.263000	25.983748	0.000659	20.695126
1662.446886	-3.010000	3.415700	-10.280000	25.966352	0.000658	20.694718
1663.447652	-2.991800	3.416000	-10.218000	25.945691	0.000655	20.690082
1664.448893	-3.012500	3.414600	-10.285000	25.918464	0.000656	20.704455
1665.448976	-3.004700	3.414900	-10.259000	25.911716	0.000657	20.696254
1666.449573	-3.019900	3.414700	-10.311000	25.884366	0.000655	20.694381
1667.448097	-2.993000	3.413500	-10.215000	25.829792	0.000655	20.701199
1668.450059	-3.021700	3.413100	-10.312000	25.814215	0.000656	20.704993
1669.449926	-3.010600	3.412000	-10.271000	25.765368	0.000655	20.685797
1670.459322	-3.006200	3.413700	-10.260000	25.774809	0.000655	20.706187
1671.452674	-2.994600	3.412900	-10.219000	25.796400	0.000653	20.678561
1672.456284	-2.997500	3.413700	-10.232000	25.823631	0.000653	20.694062
1673.454709	-3.021400	3.411400	-10.306000	25.849592	0.000653	20.688846
1674.453120	-3.007400	3.411700	-10.260000	25.880352	0.000654	20.675175
1675.453714	-3.005000	3.411400	-10.250000	25.891159	0.000651	20.686507
1676.454583	-3.039100	3.411100	-10.366000	25.860326	0.000651	20.693939
1677.456636	-2.992800	3.411500	-10.208000	25.830320	0.000653	20.705998
1678.454572	-2.989700	3.409900	-10.194000	25.785698	0.000649	20.698158
1679.454255	-2.999300	3.409200	-10.224000	25.734032	0.000649	20.687986
1680.453056	-2.982900	3.410300	-10.172000	25.680915	0.000648	20.697224
1681.453711	-2.986500	3.408700	-10.178000	25.677838	0.000649	20.677536
1682.455250	-2.975000	3.410200	-10.145000	25.697487	0.000648	20.709128
1683.455236	-3.010000	3.407500	-10.255000	25.698959	0.000646	20.685475
1684.454891	-3.009800	3.407800	-10.256000	25.711184	0.000648	20.680684
1685.456290	-2.997800	3.408200	-10.215000	25.704558	0.000647	20.678770
1686.455775	-3.011600	3.407000	-10.260000	25.692749	0.000646	20.690617
1687.456716	-3.001900	3.406700	-10.226000	25.666312	0.000645	20.691566
1688.457407	-3.013100	3.405200	-10.259000	25.638970	0.000646	20.692079
1689.456933	-3.021800	3.404300	-10.286000	25.648534	0.000643	20.676079
1690.462897	-2.996900	3.407700	-10.212000	25.679952	0.000644	20.682978
1691.456829	-3.014200	3.407100	-10.268000	25.679130	0.000644	20.690688
1692.457920	-3.034900	3.402300	-10.324000	25.710636	0.000641	20.658320
1693.458086	-3.010800	3.404600	-10.250000	25.704402	0.000646	20.684777
1694.458597	-3.017600	3.403400	-10.269000	25.720158	0.000644	20.689698
1695.456737	-2.990700	3.405700	-10.184000	25.761252	0.000643	20.664116
1696.458945	-3.000500	3.403800	-10.213000	25.759143	0.000645	20.679069
1697.458879	-2.992600	3.404100	-10.186000	25.786074	0.000643	20.686681
1698.458935	-2.990600	3.404600	-10.180000	25.807095	0.000641	20.675553
1699.458278	-2.981700	3.404100	-10.149000	25.809414	0.000640	20.654172
1700.458530	-2.990800	3.402800	-10.176000	25.829931	0.000641	20.648229
1701.457586	-3.003800	3.402400	-10.219000	25.854175	0.000640	20.659307
1702.458508	-2.999600	3.401900	-10.203000	25.870303	0.000641	20.674563
1703.459445	-2.998500	3.401200	-10.198000	25.869709	0.000639	20.659266
1704.461525	-2.977200	3.401900	-10.128000	25.888540	0.000640	20.666330
1705.459302	-3.005300	3.400300	-10.218000	25.895742	0.000637	20.652700
1706.459457	-2.998800	3.400500	-10.197000	25.905084	0.000638	20.656396
1707.460124	-2.988000	3.401700	-10.163000	25.926925	0.000637	20.659371
1708.460711	-2.982100	3.401100	-10.140000	25.960459	0.000636	20.654654
1709.462677	-2.999500	3.399900	-10.196000	25.954005	0.000635	20.669035
1710.459549	-3.005600	3.399000	-10.215000	25.970678	0.000636	20.674406
1711.460166	-3.000300	3.398500	-10.195000	25.943182	0.000637	20.664325
1712.463556	-2.995300	3.398600	-10.179000	25.922765	0.000635	20.656615
1713.462013	-2.987400	3.398300	-10.151000	25.921691	0.000636	20.672607
1714.461840	-3.006900	3.396900	-10.213000	25.878797	0.000636	20.657963
1715.463813	-2.991000	3.396900	-10.159000	25.842827	0.000636	20.670195
1716.465709	-2.980900	3.397800	-10.127000	25.801370	0.000632	20.675966
1717.463249	-3.008000	3.397700	-10.220000	25.753711	0.000633	20.671715
1718.463266	-3.008300	3.396500	-10.217000	25.714912	0.000632	20.675418
1719.463932	-2.980700	3.397600	-10.127000	25.672083	0.000632	20.657054
1720.464467	-2.998100	3.395600	-10.179000	25.667509	0.000631	20.648666
1721.463063	-2.995000	3.394700	-10.166000	25.659182	0.000630	20.665435
1722.464086	-2.987400	3.395200	-10.142000	25.637490	0.000632	20.664037
1723.464825	-3.000400	3.394600	-10.184000	25.618760	0.000632	20.664192
1724.464071	-3.006400	3.394300	-10.203000	25.639281	0.000632	20.643548
1725.463683	-2.996100	3.393700	-10.168000	25.701547	0.000629	20.648241
1726.465172	-3.003400	3.393800	-10.191000	25.752009	0.000629	20.644398
1727.466044	-2.986800	3.395000	-10.139000	25.766691	0.000629	20.665787
1728.467812	-3.021600	3.392400	-10.249000	25.776279	0.000628	20.652182
1729.465946	-2.993700	3.393500	-10.158000	25.805024	0.000627	20.654030
1730.466732	-2.989600	3.392700	-10.142000	25.817842	0.000627	20.653629
1731.465701	-2.989000	3.392300	-10.138000	25.853348	0.000625	20.652786
1732.467820	-2.994800	3.391200	-10.154000	25.837919	0.000626	20.651511
1733.471209	-3.009300	3.391200	-10.204000	25.859435	0.000626	20.674077
1734.467607	-3.001700	3.391300	-10.179000	25.881294	0.000624	20.638658
1735.468228	-2.978500	3.392300	-10.103000	25.870462	0.000626	20.666187
1736.467155	-3.009500	3.389500	-10.198000	25.880391	0.000623	20.652452
1737.467572	-2.980400	3.391800	-10.106000	25.859858	0.000623	20.637039
1738.467509	-3.004600	3.390000	-10.185000	25.867281	0.000621	20.659197
1739.469506	-3.012200	3.389000	-10.207000	25.841736	0.000623	20.640172
1740.470644	-3.008800	3.390100	-10.200000	25.838236	0.000624	20.685499
1741.469377	-3.014000	3.390000	-10.217000	25.821398	0.000624	20.655305
1742.469571	-2.974200	3.389400	-10.080000	25.804740	0.000622	20.651374
1743.469081	-2.994700	3.389700	-10.150000	25.830009	0.000622	20.656843
1744.469477	-3.004500	3.389200	-10.182000	25.841712	0.000624	20.651054
1745.470067	-2.995900	3.388300	-10.150000	25.839205	0.000619	20.651381
1746.470921	-2.987700	3.388400	-10.122000	25.828006	0.000619	20.651037
1747.471554	-3.022700	3.385400	-10.232000	25.837691	0.000621	20.656499
1748.473122	-3.002300	3.385500	-10.163000	25.846855	0.000621	20.671870
1749.472364	-2.992500	3.386800	-10.133000	25.867941	0.000620	20.653221
1750.472505	-2.986700	3.386300	-10.113000	25.867819	0.000619	20.661160
1751.473933	-3.020800	3.385800	-10.226000	25.869235	0.000618	20.672541
1752.473697	-2.993900	3.384700	-10.132000	25.877528	0.000618	20.639142
1753.472255	-3.020300	3.384900	-10.222000	25.884339	0.000614	20.664480
1754.472641	-3.020800	3.383900	-10.220000	25.887219	0.000617	20.653148
1755.474454	-2.998000	3.384700	-10.147000	25.828089	0.000616	20.653966
1756.473840	-2.994200	3.384300	-10.133000	25.839449	0.000614	20.654946
1757.474687	-2.988200	3.382900	-10.107000	25.848557	0.000617	20.644654
1758.475271	-2.963900	3.383600	-10.027000	25.862969	0.000615	20.660081
1759.476122	-2.980900	3.384000	-10.086000	25.849036	0.000614	20.632805
1760.475527	-2.992600	3.383200	-10.124000	25.827625	0.000614	20.662035
1761.478423	-2.984800	3.381500	-10.092000	25.824387	0.000613	20.648823
1762.475806	-2.976500	3.382900	-10.068000	25.823491	0.000614	20.668789
1763.476248	-2.983700	3.381500	-10.088000	25.800688	0.000613	20.659158
1764.474157	-3.021500	3.381400	-10.215000	25.789261	0.000611	20.663327
1765.477905	-3.002900	3.380600	-10.150000	25.810030	0.000611	20.654791
1766.474382	-3.025200	3.380600	-10.224000	25.808509	0.000612	20.658954
1767.474918	-3.004500	3.379600	-10.153000	25.816590	0.000613	20.658536
1768.475513	-2.992000	3.381800	-10.117000	25.846953	0.000611	20.649207
1769.476203	-3.002100	3.380900	-10.149000	25.845456	0.000609	20.648177
1770.475235	-3.014700	3.379000	-10.186000	25.842233	0.000609	20.652052
1771.476076	-3.024300	3.378500	-10.217000	25.889954	0.000607	20.672492
1772.479611	-3.000700	3.377900	-10.135000	25.915490	0.000606	20.651202
1773.475952	-3.006400	3.378600	-10.157000	25.911420	0.000608	20.666082
1774.475256	-3.000700	3.377800	-10.135000	25.929006	0.000606	20.662411
1775.474595	-2.975000	3.379100	-10.050000	25.933505	0.000609	20.674993
1776.475914	-3.013700	3.377500	-10.178000	25.909784	0.000605	20.663964
1777.477190	-2.993400	3.377000	-10.108000	25.902037	0.000607	20.651438
1778.474584	-2.992100	3.378000	-10.106000	25.900971	0.000608	20.677870
1779.478262	-2.989300	3.376900	-10.092000	25.894786	0.000605	20.662172
1780.477013	-3.004400	3.375100	-10.139000	25.900132	0.000605	20.640039
1781.476799	-3.004900	3.375700	-10.143000	25.925294	0.000604	20.668639
1782.475960	-3.009000	3.374600	-10.153000	25.921029	0.000603	20.652025
1783.477819	-2.965100	3.376700	-10.011000	25.911826	0.000603	20.670283
1784.477341	-2.996600	3.374400	-10.111000	25.858572	0.000604	20.678426
1785.476073	-2.994500	3.374500	-10.104000	25.833083	0.000603	20.666096
1786.481534	-2.995200	3.375000	-10.108000	25.862771	0.000602	20.644708
1787.478388	-2.992000	3.372200	-10.088000	25.867058	0.000603	20.673200
1788.478766	-2.995800	3.373000	-10.104000	25.887689	0.000600	20.646980
1789.478759	-2.979300	3.372800	-10.048000	25.926773	0.000600	20.672023
1790.478620	-2.998500	3.373700	-10.114000	25.963814	0.000602	20.660870
1791.479407	-2.993900	3.372100	-10.095000	25.993571	0.000600	20.668956
1792.479094	-2.988900	3.373000	-10.081000	26.014483	0.000599	20.673846
1793.478536	-2.965800	3.372700	-10.001000	26.019357	0.000599	20.639857
1794.479507	-2.985700	3.371800	-10.067000	26.036370	0.000600	20.662644
1795.481099	-3.007800	3.370800	-10.137000	26.056891	0.000599	20.662873
1796.482148	-3.007700	3.371100	-10.139000	26.062879	0.000596	20.666519
1797.480712	-2.978000	3.371500	-10.038000	26.044767	0.000597	20.649742
1798.481138	-2.972000	3.370200	-10.015000	26.002423	0.000596	20.676428
1799.483171	-2.978700	3.370600	-10.039000	25.988835	0.000596	20.663249
1800.484369	-3.032700	3.368500	-10.213000	25.982147	0.000596	20.652261
1801.483685	-2.991800	3.369000	-10.078000	25.927976	0.000595	20.659005
1802.484395	-3.013100	3.369000	-10.151000	25.932028	0.000593	20.674932
1803.484415	-2.974400	3.370100	-10.023000	25.928854	0.000592	20.672217
1804.487511	-3.011400	3.368100	-10.142000	25.888337	0.000593	20.677981
1805.484858	-2.996000	3.368200	-10.090000	25.865430	0.000593	20.663502
1806.486398	-2.998500	3.368800	-10.101000	25.886351	0.000594	20.676460
1807.489269	-3.025400	3.367400	-10.187000	25.942720	0.000593	20.664809
1808.489828	-2.994900	3.367500	-10.085000	25.983773	0.000590	20.685666
1809.489538	-3.010900	3.367600	-10.137000	26.000291	0.000593	20.679502
1810.489012	-3.015100	3.366200	-10.148000	26.027712	0.000589	20.671015
1811.489233	-3.007600	3.366200	-10.123000	26.023545	0.000591	20.663035
1812.493537	-2.990800	3.366200	-10.066000	26.018379	0.000589	20.680131
1813.490212	-2.995000	3.366200	-10.081000	25.984105	0.000590	20.672249
1814.490028	-3.013000	3.365400	-10.139000	26.006035	0.000590	20.677686
1815.490605	-3.030500	3.364200	-10.194000	25.996320	0.000588	20.678831
1816.489835	-3.019700	3.364200	-10.158000	26.025384	0.000587	20.653502
1817.489418	-2.976600	3.366300	-10.018000	25.992104	0.000589	20.685028
1818.491234	-3.008300	3.364500	-10.120000	25.951687	0.000587	20.676664
1819.500426	-3.002100	3.364200	-10.099000	25.909388	0.000587	20.684431
1820.492393	-3.014000	3.363400	-10.137000	25.891722	0.000584	20.669526
1821.491939	-3.008500	3.362400	-10.114000	25.901169	0.000585	20.683760
1822.492399	-2.999500	3.362400	-10.085000	25.883251	0.000587	20.680932
1823.492172	-3.011700	3.362000	-10.124000	25.881915	0.000583	20.697610
1824.492688	-2.991500	3.363100	-10.060000	25.870035	0.000583	20.678087
1825.494102	-3.017500	3.360000	-10.137000	25.865591	0.000583	20.675993
1826.495025	-2.977900	3.364200	-10.018000	25.868325	0.000581	20.676844
1827.493547	-2.989300	3.360700	-10.045000	25.904099	0.000581	20.664416
1828.493453	-2.987100	3.361700	-10.041000	25.916744	0.000584	20.674750
1829.494996	-2.985900	3.361300	-10.036000	25.914482	0.000580	20.654932
1830.496433	-3.005000	3.360200	-10.097000	25.916444	0.000581	20.676345
1831.495183	-2.990200	3.359400	-10.045000	25.949139	0.000581	20.674104
1832.494709	-2.966700	3.361300	-9.971200	25.988752	0.000580	20.686401
1833.501280	-2.993100	3.359700	-10.056000	26.026563	0.000580	20.685035
1834.494831	-2.999900	3.359200	-10.077000	26.051624	0.000580	20.695042
1835.493814	-3.028200	3.359000	-10.170000	26.078467	0.000578	20.671750
1836.494325	-2.997800	3.358400	-10.066000	26.080557	0.000578	20.687603
1837.494956	-3.003100	3.359400	-10.087000	26.084486	0.000577	20.672109
1838.496744	-2.998300	3.358200	-10.068000	26.040273	0.000576	20.678895
1839.494670	-3.005600	3.358500	-10.094000	26.032625	0.000577	20.700136
1840.493134	-3.008600	3.356700	-10.097000	26.025871	0.000576	20.691927
1841.495513	-3.024100	3.357300	-10.151000	26.034659	0.000577	20.661399
1842.495615	-2.995400	3.355800	-10.051000	26.004194	0.000574	20.690536
1843.495122	-2.988200	3.356400	-10.029000	26.012307	0.000575	20.712914
1844.499156	-3.005400	3.356800	-10.088000	26.044895	0.000575	20.716258
1845.495683	-3.015100	3.356300	-10.118000	26.059346	0.000572	20.671504
1846.495209	-3.005600	3.355700	-10.085000	26.058311	0.000573	20.665249
1847.494633	-3.009900	3.355100	-10.097000	26.025277	0.000574	20.693701
1848.494191	-2.985500	3.356000	-10.019000	26.014422	0.000572	20.705082
1849.497397	-3.001200	3.354600	-10.067000	26.008360	0.000571	20.690930
1850.496487	-3.011700	3.353900	-10.099000	25.999890	0.000571	20.674831
1851.496345	-3.004500	3.352400	-10.071000	26.002274	0.000569	20.687659
1852.495960	-3.012600	3.353200	-10.100000	26.000663	0.000571	20.706905
1853.497909	-3.010500	3.353400	-10.094000	26.032502	0.000568	20.682942
1854.497066	-2.996000	3.352700	-10.044000	26.043812	0.000568	20.697625
1855.496600	-2.987100	3.352300	-10.011000	26.077017	0.000570	20.705384
1856.495685	-2.990900	3.352600	-10.026000	26.076048	0.000568	20.684495
1857.496396	-3.004200	3.351200	-10.067000	26.069092	0.000566	20.704060
1858.495701	-2.969200	3.353000	-9.955400	26.100367	0.000567	20.698974
1859.496182	-3.001700	3.349900	-10.053000	26.121896	0.000566	20.700691
1860.495533	-2.977500	3.350600	-9.974100	26.134018	0.000564	20.699595
1861.497295	-2.998300	3.349200	-10.041000	26.199202	0.000566	20.703929
1862.497399	-2.980400	3.350800	-9.985300	26.181230	0.000566	20.716691
1863.496856	-2.993200	3.349200	-10.023000	26.210908	0.000564	20.703364
1864.496450	-3.005400	3.350800	-10.069000	26.197053	0.000567	20.705563
1865.496118	-3.019800	3.347900	-10.109000	26.186965	0.000565	20.717239
1866.496736	-3.009500	3.349400	-10.079000	26.196696	0.000565	20.727017
1867.495905	-2.998700	3.348500	-10.040000	26.170678	0.000565	20.723631
1868.496862	-2.996000	3.348800	-10.031000	26.187714	0.000564	20.708507
1869.497478	-3.000000	3.347400	-10.041000	26.194767	0.000561	20.705637
1870.497271	-2.995600	3.347900	-10.027000	26.236331	0.000563	20.722275
1871.498697	-2.993900	3.348300	-10.023000	26.244506	0.000562	20.722430
1872.497484	-3.007900	3.348300	-10.070000	26.253992	0.000559	20.713944
1873.498664	-3.000600	3.346800	-10.042000	26.250713	0.000560	20.721555
1874.498626	-2.999900	3.346200	-10.037000	26.283839	0.000558	20.701738
1875.498459	-2.994800	3.346100	-10.020000	26.274605	0.000558	20.726125
1876.498979	-3.003000	3.346900	-10.050000	26.256627	0.000562	20.716592
1877.502023	-3.004900	3.345400	-10.051000	26.247882	0.000561	20.708278
1878.497204	-3.006600	3.344900	-10.056000	26.238446	0.000556	20.715865
1879.500715	-2.991000	3.343900	-10.000000	26.260003	0.000556	20.745117
1880.499488	-2.988600	3.345000	-9.995700	26.267301	0.000557	20.726845
1881.504157	-2.976200	3.345200	-9.954600	26.269367	0.000557	20.726550
1882.501152	-3.005800	3.342800	-10.046000	26.281512	0.000556	20.706512
1883.501350	-2.996000	3.342900	-10.014000	26.294226	0.000556	20.729722
1884.503004	-3.026800	3.342100	-10.115000	26.332264	0.000556	20.718637
1885.502913	-3.016800	3.341400	-10.079000	26.308275	0.000555	20.726771
1886.503601	-3.036700	3.342400	-10.149000	26.332963	0.000555	20.721710
1887.502267	-3.028400	3.341500	-10.118000	26.332418	0.000555	20.731120
1888.503319	-3.007700	3.342100	-10.050000	26.365590	0.000554	20.735061
1889.503470	-3.007900	3.342900	-10.054000	26.373358	0.000554	20.732437
1890.503404	-2.998500	3.340900	-10.017000	26.373292	0.000552	20.740906
1891.502919	-2.996200	3.340800	-10.009000	26.397971	0.000552	20.712128
1892.503028	-3.014400	3.338900	-10.063000	26.369046	0.000550	20.733319
1893.504655	-2.995900	3.339300	-10.003000	26.340309	0.000552	20.721032
1894.504833	-2.994600	3.340500	-10.002000	26.325642	0.000551	20.723835
1895.504323	-3.005000	3.339800	-10.035000	26.304036	0.000550	20.722037
1896.504582	-2.990200	3.339800	-9.984600	26.309625	0.000551	20.725757
1897.507822	-3.006400	3.339600	-10.039000	26.301066	0.000549	20.741813
1898.505275	-3.007400	3.337800	-10.037000	26.316083	0.000549	20.746947
1899.507028	-3.014100	3.338600	-10.063000	26.307615	0.000548	20.715202
1900.508175	-3.000600	3.338000	-10.015000	26.308461	0.000547	20.729803
1901.508192	-2.991700	3.337800	-9.985000	26.285220	0.000547	20.738216
1902.508815	-2.988700	3.338500	-9.975600	26.257229	0.000547	20.721465
1903.508411	-2.998200	3.337700	-10.007000	26.257358	0.000547	20.755261
1904.508908	-3.031000	3.336500	-10.111000	26.235801	0.000547	20.730752
1905.509407	-3.024500	3.336200	-10.088000	26.205529	0.000547	20.742532
1906.511481	-3.001500	3.335500	-10.010000	26.151964	0.000546	20.735174
1907.509471	-3.028500	3.334400	-10.097000	26.120568	0.000544	20.739189
1908.510788	-3.003800	3.335200	-10.017000	26.098365	0.000544	20.730629
1909.520112	-3.005800	3.335200	-10.024000	26.074119	0.000545	20.752262
1910.511399	-2.999800	3.335700	-10.006000	26.041361	0.000545	20.743056
1911.512191	-3.016400	3.333000	-10.052000	26.048668	0.000543	20.720049
1912.514184	-3.024200	3.335200	-10.085000	26.050304	0.000543	20.752040
1913.513206	-3.004800	3.333200	-10.014000	26.092971	0.000544	20.736589
1914.521368	-2.964300	3.334500	-9.883100	26.137280	0.000542	20.744127
1915.512641	-2.990200	3.333400	-9.967100	26.188745	0.000540	20.756962
1916.512459	-2.995600	3.333000	-9.983800	26.221751	0.000541	20.744134
1917.512788	-3.016400	3.331600	-10.047000	26.268276	0.000539	20.760543
1918.516274	-2.983800	3.333900	-9.946400	26.308388	0.000539	20.768138
1919.514490	-2.998800	3.332000	-9.989200	26.320892	0.000541	20.744667
1920.516108	-3.002700	3.331700	-10.002000	26.315140	0.000537	20.741731
1921.512616	-2.985600	3.331700	-9.945600	26.292290	0.000539	20.755753
1922.514266	-3.013000	3.330700	-10.034000	26.266242	0.000539	20.732420
1923.514355	-3.005300	3.330500	-10.008000	26.260996	0.000537	20.741373
1924.514417	-3.002800	3.329600	-9.996400	26.274500	0.000537	20.763479
1925.514699	-3.016000	3.329700	-10.041000	26.276192	0.000537	20.761386
1926.513914	-3.006800	3.329800	-10.010000	26.277307	0.000537	20.758239
1927.513583	-3.012200	3.328700	-10.025000	26.252943	0.000536	20.760782
1928.514258	-3.012000	3.329700	-10.029000	26.225594	0.000535	20.739935
1929.516588	-3.006100	3.328200	-10.004000	26.214832	0.000535	20.751406
1930.514060	-3.023700	3.327900	-10.061000	26.245557	0.000532	20.749092
1931.515056	-3.006700	3.328200	-10.006000	26.281392	0.000533	20.749067
1932.517428	-2.990000	3.326600	-9.945300	26.274063	0.000533	20.758772
1933.517144	-2.999400	3.327000	-9.978300	26.257825	0.000532	20.766636
1934.516752	-3.001100	3.326200	-9.981900	26.279284	0.000532	20.781090
1935.517629	-2.989400	3.328400	-9.948700	26.279830	0.000530	20.787327
1936.520172	-3.004200	3.324800	-9.986200	26.272151	0.000530	20.773446
1937.518910	-3.004700	3.326000	-9.992100	26.294847	0.000531	20.790091
1938.518437	-2.992400	3.327400	-9.954500	26.297067	0.000529	20.788529
1939.518419	-2.997400	3.325500	-9.967300	26.347266	0.000529	20.785873
1940.520787	-2.997200	3.326600	-9.969400	26.347486	0.000528	20.758118
1941.520662	-3.013900	3.325000	-10.019000	26.358962	0.000528	20.767282
1942.525335	-2.987200	3.324900	-9.930600	26.377191	0.000526	20.776120
1943.523068	-3.028000	3.322900	-10.061000	26.402041	0.000526	20.777387
1944.522449	-3.003400	3.324000	-9.981500	26.387074	0.000527	20.769457
1945.522853	-3.003300	3.324500	-9.983000	26.306674	0.000525	20.774002
1946.522563	-3.015000	3.323700	-10.020000	26.291649	0.000526	20.774075
1947.523825	-3.012100	3.323600	-10.010000	26.303819	0.000526	20.744579
1948.523063	-3.018500	3.323800	-10.032000	26.281042	0.000524	20.771476
1949.527445	-2.988200	3.322800	-9.927700	26.271337	0.000524	20.771206
1950.526622	-3.007900	3.322400	-9.991900	26.303176	0.000524	20.778073
1951.526159	-3.010500	3.320700	-9.996000	26.338463	0.000523	20.769440
1952.530317	-3.008700	3.319000	-9.984600	26.359295	0.000524	20.773307
1953.526400	-2.978800	3.322200	-9.895000	26.336153	0.000522	20.798886
1954.526334	-3.015200	3.320200	-10.010000	26.319640	0.000522	20.774230
1955.530158	-3.001800	3.320400	-9.965600	26.318029	0.000519	20.774034
1956.525510	-2.997100	3.320300	-9.951000	26.287687	0.000521	20.776731
1957.525334	-2.997200	3.319000	-9.945100	26.317386	0.000520	20.802785
1958.531836	-2.984100	3.320700	-9.907800	26.300499	0.000518	20.800987
1959.528090	-2.996000	3.319900	-9.945800	26.284668	0.000518	20.797405
1960.528683	-3.019900	3.318800	-10.022000	26.297798	0.000519	20.788789
1961.530726	-3.005500	3.318100	-9.971000	26.300059	0.000520	20.785372
1962.531114	-2.984200	3.319000	-9.903000	26.327546	0.000517	20.794030
1963.529556	-2.993700	3.318800	-9.934700	26.356308	0.000517	20.785478
1964.531384	-2.992100	3.317000	-9.923900	26.363507	0.000516	20.793187
1965.530335	-2.988000	3.316700	-9.908600	26.342260	0.000517	20.781790
1966.529763	-2.997800	3.317500	-9.943200	26.377147	0.000515	20.796464
1967.532800	-3.026000	3.315400	-10.032000	26.413791	0.000514	20.782085
1968.535249	-3.018100	3.314900	-10.003000	26.434995	0.000515	20.805294
1969.528316	-3.010500	3.315100	-9.978400	26.472986	0.000514	20.796538
1970.535339	-3.005300	3.313800	-9.957400	26.485349	0.000513	20.794265
1971.532027	-3.005800	3.315700	-9.965200	26.491034	0.000516	20.781488
1972.529998	-2.989000	3.313700	-9.903800	26.521818	0.000512	20.783033
1973.534720	-2.986700	3.313500	-9.895400	26.520508	0.000513	20.776501
1974.528433	-3.013200	3.313400	-9.982400	26.546029	0.000513	20.804525
1975.528679	-2.973200	3.313400	-9.849600	26.540247	0.000510	20.813411
1976.533703	-3.005600	3.313700	-9.958600	26.551365	0.000513	20.797560
1977.530414	-2.980300	3.313500	-9.874000	26.567207	0.000511	20.791674
1978.530994	-3.006100	3.313300	-9.957800	26.588904	0.000511	20.789303
1979.533388	-3.004600	3.312300	-9.950800	26.582895	0.000509	20.787055
1980.531698	-3.006300	3.311900	-9.954800	26.582276	0.000508	20.795916
1981.532635	-3.020900	3.311200	-10.002000	26.563384	0.000509	20.811065
1982.534665	-2.992300	3.311000	-9.906300	26.554544	0.000507	20.805024
1983.532684	-3.014700	3.310200	-9.978000	26.565320	0.000507	20.789303
1984.534101	-2.984900	3.312200	-9.886000	26.560530	0.000507	20.788281
1985.535344	-2.991800	3.309600	-9.900400	26.540173	0.000506	20.801958
1986.533056	-3.007600	3.310500	-9.956100	26.558335	0.000506	20.812153
1987.533599	-3.005000	3.309400	-9.942500	26.546648	0.000506	20.812733
1988.534933	-3.021300	3.309200	-9.996800	26.565386	0.000505	20.805964
1989.532772	-3.015500	3.308900	-9.977000	26.557660	0.000503	20.796302
1990.533816	-2.999100	3.309200	-9.923000	26.563003	0.000505	20.800724
1991.534212	-2.993100	3.308300	-9.901300	26.578366	0.000503	20.825176
1992.533778	-2.996300	3.307900	-9.910600	26.576235	0.000504	20.804542
1993.534281	-2.993200	3.307600	-9.899700	26.590004	0.000503	20.807478
1994.533462	-2.970300	3.308300	-9.825300	26.555050	0.000502	20.816912
1995.534323	-2.992200	3.306000	-9.891700	26.525438	0.000501	20.814172
1996.534762	-2.993200	3.305900	-9.893400	26.501251	0.000501	20.831585
1997.536614	-3.008100	3.305400	-9.941900	26.518484	0.000501	20.822830
1998.535824	-3.004700	3.304700	-9.928800	26.487945	0.000499	20.799719
1999.534263	-3.040900	3.303700	-10.045000	26.499584	0.000499	20.810944
2000.535122	-2.993900	3.304900	-9.893200	26.504179	0.000499	20.823149
2001.536772	-2.993000	3.305300	-9.892100	26.536028	0.000498	20.812015
2002.538228	-3.021300	3.303300	-9.980000	26.549211	0.000498	20.806301
2003.540078	-2.992200	3.305200	-9.889100	26.571999	0.000496	20.805974
2004.539266	-2.995400	3.304300	-9.897600	26.600682	0.000495	20.811099
2005.537859	-2.997700	3.303100	-9.901100	26.576863	0.000495	20.817501
2006.543241	-3.015600	3.303500	-9.961000	26.520315	0.000495	20.827515
2007.539331	-3.001200	3.302000	-9.908700	26.486425	0.000496	20.798665
2008.538156	-3.001300	3.302700	-9.910800	26.447368	0.000496	20.797341
2009.543121	-3.016800	3.301800	-9.959800	26.466563	0.000493	20.805729
2010.538517	-2.984700	3.302400	-9.855000	26.459682	0.000490	20.819675
2011.537505	-3.000300	3.300900	-9.902700	26.428246	0.000491	20.803252
2012.541052	-2.992300	3.302600	-9.881800	26.431272	0.000491	20.784957
2013.538511	-2.988000	3.301700	-9.864700	26.450345	0.000491	20.819774
2014.540091	-2.974800	3.300900	-9.817300	26.466042	0.000491	20.831283
2015.541039	-3.002400	3.299800	-9.906600	26.502358	0.000489	20.799982
2016.545201	-3.030400	3.299400	-9.997200	26.501065	0.000489	20.799157
2017.542914	-3.006200	3.298900	-9.915700	26.495664	0.000489	20.788037
2018.541973	-2.980300	3.299000	-9.831000	26.443765	0.000489	20.791823
2019.543546	-3.003400	3.298300	-9.905800	26.396118	0.000489	20.779495
2020.544779	-3.016300	3.298200	-9.946900	26.394458	0.000487	20.803906
2021.552705	-2.983500	3.299500	-9.843500	26.411669	0.000487	20.786116
2022.543436	-2.992900	3.298400	-9.870500	26.414223	0.000486	20.784890
2023.543083	-2.983000	3.297300	-9.835200	26.453980	0.000487	20.786917
2024.543663	-3.003400	3.297600	-9.902400	26.467783	0.000487	20.780402
2025.544536	-3.004500	3.296100	-9.902500	26.456062	0.000484	20.789959
2026.543805	-2.992400	3.297300	-9.865300	26.437371	0.000483	20.777336
2027.545602	-2.981300	3.296300	-9.825600	26.418819	0.000482	20.802311
2028.544961	-3.004500	3.294600	-9.897500	26.422439	0.000482	20.781294
2029.548786	-3.001600	3.295900	-9.891200	26.417704	0.000485	20.810200
2030.549060	-3.003900	3.295400	-9.896000	26.404813	0.000482	20.801510
2031.545197	-3.011500	3.295400	-9.923600	26.405561	0.000481	20.799417
2032.545525	-2.998000	3.295600	-9.879000	26.455769	0.000482	20.798673
2033.546022	-3.009700	3.295200	-9.915300	26.432817	0.000481	20.780819
2034.545975	-3.005600	3.293400	-9.897800	26.444115	0.000481	20.779372
2035.545644	-3.013800	3.293900	-9.925800	26.430327	0.000479	20.791118
2036.546328	-3.004400	3.293300	-9.894100	26.444992	0.000479	20.768875
2037.545692	-2.972900	3.292900	-9.788500	26.450661	0.000478	20.773624
2038.545538	-2.964900	3.294300	-9.765600	26.437948	0.000477	20.765113
2039.545352	-3.014600	3.291000	-9.919900	26.431595	0.000478	20.776746
2040.548045	-3.029200	3.291600	-9.969100	26.448627	0.000476	20.774425
2041.546440	-3.002900	3.290700	-9.881000	26.467448	0.000476	20.790023
2042.547959	-2.995600	3.291600	-9.859700	26.473238	0.000475	20.762652
2043.549674	-3.021600	3.289100	-9.937700	26.519338	0.000475	20.778643
2044.547662	-3.012300	3.289900	-9.909600	26.566718	0.000474	20.753249
2045.546887	-3.011200	3.290400	-9.907000	26.579300	0.000472	20.759259
2046.548684	-3.021400	3.289000	-9.936400	26.598272	0.000473	20.778331
2047.548943	-2.997800	3.290000	-9.862000	26.605469	0.000473	20.779876
2048.547225	-3.010000	3.288600	-9.897500	26.560073	0.000471	20.774545
2049.555613	-2.993100	3.288600	-9.841700	26.527200	0.000472	20.756200
2050.547922	-2.980000	3.288300	-9.798300	26.510813	0.000471	20.767703
2051.551307	-2.999400	3.286600	-9.857000	26.523857	0.000469	20.763271
2052.551897	-3.022000	3.287200	-9.932700	26.548613	0.000470	20.760654
2053.550783	-2.991700	3.289300	-9.838200	26.569612	0.000468	20.767538
2054.549630	-3.030500	3.285700	-9.956100	26.612315	0.000469	20.749773
2055.554250	-3.010600	3.286700	-9.893100	26.644811	0.000467	20.754466
2056.552320	-2.995800	3.286600	-9.844800	26.598050	0.000467	20.754874
2057.551272	-2.984300	3.286400	-9.806900	26.576255	0.000468	20.785596
2058.553215	-3.026600	3.284700	-9.940400	26.548449	0.000467	20.772818
2059.550240	-3.005600	3.284500	-9.870900	26.532436	0.000465	20.769524
2060.550981	-3.010300	3.284700	-9.886100	26.515056	0.000464	20.757269
2061.550426	-3.001300	3.286200	-9.861200	26.514714	0.000466	20.769728
2062.550109	-3.004300	3.284200	-9.865700	26.524700	0.000463	20.763645
2063.551506	-2.983800	3.284300	-9.798800	26.590640	0.000463	20.766391
2064.555424	-3.015300	3.282300	-9.894800	26.587981	0.000461	20.743803
2065.550957	-2.987900	3.283100	-9.808300	26.594910	0.000463	20.763097
2066.552351	-3.002900	3.281500	-9.853100	26.589892	0.000463	20.748095
2067.558741	-3.000800	3.280700	-9.843500	26.568202	0.000462	20.747154
2068.552596	-3.002200	3.281900	-9.851400	26.562297	0.000462	20.739322
2069.551847	-3.022500	3.280500	-9.913900	26.529327	0.000460	20.753596
2070.553677	-2.977900	3.283700	-9.776800	26.515599	0.000459	20.770617
2071.557982	-2.990100	3.279900	-9.806000	26.498226	0.000459	20.755999
2072.553685	-3.005900	3.279500	-9.856700	26.537500	0.000458	20.756122
2073.559189	-3.003800	3.280100	-9.851400	26.525749	0.000456	20.758534
2074.554793	-3.011200	3.280200	-9.876300	26.536606	0.000456	20.750955
2075.555118	-3.008800	3.279400	-9.866100	26.536655	0.000455	20.741047
2076.556468	-2.989900	3.279600	-9.804900	26.496517	0.000454	20.753808
2077.556727	-3.011000	3.277200	-9.865200	26.497608	0.000455	20.775293
2078.555561	-3.007700	3.278300	-9.859500	26.527252	0.000452	20.740605
2079.555377	-3.002300	3.279100	-9.842600	26.547641	0.000455	20.741184
2080.559831	-3.006200	3.277800	-9.852800	26.598192	0.000453	20.748378
2081.558060	-2.976700	3.278600	-9.758900	26.622541	0.000451	20.756260
2082.560831	-2.990300	3.277300	-9.799400	26.645457	0.000451	20.750373
2083.559249	-2.970100	3.278300	-9.736200	26.697785	0.000450	20.750349
2084.555453	-2.963300	3.277100	-9.709700	26.702281	0.000451	20.748705
2085.561589	-2.980400	3.276700	-9.765000	26.721586	0.000449	20.733499
2086.557761	-2.990000	3.277300	-9.797600	26.705160	0.000449	20.729787
2087.557309	-3.019100	3.275300	-9.886900	26.711023	0.000446	20.749432
2088.560519	-3.027300	3.275100	-9.913200	26.716333	0.000448	20.737701
2089.558574	-2.992800	3.274800	-9.799600	26.707103	0.000447	20.750708
2090.557333	-3.023800	3.273800	-9.897800	26.689408	0.000446	20.744298
2091.559339	-3.016800	3.273600	-9.874300	26.658468	0.000445	20.733106
2092.559037	-3.012300	3.273100	-9.857800	26.591750	0.000445	20.743325
2093.557661	-3.007400	3.271800	-9.838300	26.594133	0.000445	20.749039
2094.560241	-2.984700	3.273600	-9.770400	26.563945	0.000446	20.732443
2095.556433	-3.019000	3.272300	-9.877100	26.537726	0.000447	20.729320
2096.556625	-3.007700	3.272200	-9.840900	26.594109	0.000442	20.725306
2097.560091	-3.001200	3.272000	-9.819000	26.601460	0.000443	20.725584
2098.558509	-3.002300	3.272700	-9.824200	26.596247	0.000442	20.749268
2099.558741	-3.005400	3.270600	-9.828300	26.646293	0.000439	20.742679
2100.558954	-3.007900	3.270300	-9.835700	26.651831	0.000440	20.752988
2101.560971	-3.003700	3.269500	-9.819900	26.703411	0.000439	20.716174
2102.559496	-3.005000	3.269700	-9.823900	26.718884	0.000439	20.721299
2103.559735	-2.994000	3.270100	-9.789300	26.777413	0.000439	20.742686
2104.561293	-2.991800	3.269800	-9.781100	26.797797	0.000437	20.716712
2105.560518	-3.006400	3.268300	-9.824200	26.812636	0.000437	20.730684
2106.559819	-2.983100	3.269400	-9.751900	26.821522	0.000435	20.736775
2107.563868	-2.996000	3.268700	-9.792200	26.817953	0.000436	20.729866
2108.561691	-2.993900	3.268800	-9.785700	26.845280	0.000436	20.721306
2109.562450	-2.994900	3.268100	-9.786200	26.835995	0.000435	20.758914
2110.561292	-2.999600	3.267000	-9.798300	26.862710	0.000434	20.731721
2111.563871	-3.003300	3.266900	-9.810300	26.897354	0.000432	20.740478
2112.562712	-3.005200	3.267000	-9.815400	26.906809	0.000434	20.715371
2113.563149	-2.998700	3.266400	-9.793800	26.936240	0.000432	20.742121
2114.563185	-3.003000	3.267800	-9.811200	26.930459	0.000432	20.725876
2115.565997	-3.007800	3.266000	-9.822300	26.907955	0.000432	20.720316
2116.564719	-3.011100	3.265700	-9.832300	26.877954	0.000430	20.729980
2117.565074	-2.988000	3.265200	-9.754300	26.872662	0.000430	20.723235
2118.565414	-3.015100	3.263800	-9.840400	26.841644	0.000427	20.732350
2119.565542	-3.005700	3.263800	-9.809100	26.845067	0.000428	20.731999
2120.565736	-3.005800	3.263300	-9.806500	26.845539	0.000427	20.721567
2121.575128	-3.000700	3.264200	-9.793900	26.840799	0.000426	20.735294
2122.564047	-2.985200	3.263700	-9.742000	26.894385	0.000424	20.718525
2123.566726	-2.990000	3.262300	-9.753700	26.919174	0.000425	20.743453
2124.567564	-3.005700	3.262200	-9.804000	26.923142	0.000425	20.728476
2125.567803	-3.001300	3.263800	-9.795300	26.915133	0.000425	20.719000
2126.568917	-2.999500	3.261300	-9.781400	26.921378	0.000425	20.717692
2127.569269	-3.002100	3.260200	-9.786400	26.929670	0.000424	20.711806
2128.572337	-3.010100	3.260600	-9.814100	26.942971	0.000422	20.735139
2129.570762	-3.004800	3.259300	-9.791800	26.967270	0.000423	20.701725
2130.569560	-3.019700	3.258300	-9.837100	26.975408	0.000422	20.695683
2131.570593	-3.001600	3.259900	-9.784100	26.972904	0.000422	20.724461
2132.570311	-2.995700	3.260300	-9.764700	26.963466	0.000422	20.723505
2133.571504	-2.985300	3.258300	-9.726200	26.991187	0.000419	20.728149
2134.571649	-3.003100	3.258200	-9.783600	26.998983	0.000419	20.723660
2135.572395	-2.985300	3.258100	-9.725800	27.001788	0.000417	20.723162
2136.571615	-2.967300	3.259300	-9.669900	27.013462	0.000420	20.718781
2137.572033	-2.982400	3.258200	-9.715400	26.968311	0.000420	20.718420
2138.571661	-2.996600	3.256400	-9.756900	26.915842	0.000415	20.719238
2139.572218	-2.978600	3.257100	-9.699300	26.866248	0.000415	20.706828
2140.571941	-3.020500	3.254100	-9.828100	26.842995	0.000415	20.744141
2141.576064	-2.990900	3.256500	-9.739100	26.853785	0.000417	20.710417
2142.574368	-3.016300	3.254200	-9.814900	26.876793	0.000414	20.731183
2143.575096	-3.024000	3.253700	-9.838400	26.896989	0.000414	20.707393
2144.576024	-3.004000	3.253800	-9.772400	26.897615	0.000413	20.726041
2145.574200	-2.981200	3.254800	-9.702100	26.918135	0.000411	20.710164
2146.576454	-3.016500	3.254500	-9.816400	26.921908	0.000412	20.723441
2147.575368	-3.004200	3.253000	-9.771500	26.930144	0.000410	20.710859
2148.574800	-3.012600	3.253900	-9.801600	26.933891	0.000408	20.714154
2149.580201	-2.979300	3.252900	-9.691200	26.945306	0.000408	20.718994
2150.574715	-3.008500	3.251700	-9.782200	26.918656	0.000408	20.718274
2151.574115	-2.999100	3.251300	-9.749800	26.867900	0.000408	20.707540
2152.576441	-3.018200	3.250300	-9.809100	26.889664	0.000408	20.731797
2153.577680	-3.015200	3.250500	-9.799700	26.869363	0.000405	20.696208
2154.576499	-2.981400	3.251500	-9.693000	26.873883	0.000405	20.702177
2155.577042	-2.999500	3.250700	-9.749600	26.907405	0.000403	20.719763
2156.579185	-3.003400	3.250100	-9.760900	26.905225	0.000403	20.717572
2157.575952	-2.994800	3.249100	-9.729800	26.913298	0.000403	20.713361
2158.579308	-3.014000	3.250000	-9.793900	26.913242	0.000403	20.695759
2159.580871	-2.990400	3.248600	-9.713200	26.937940	0.000401	20.696412
2160.578732	-3.016800	3.247500	-9.796700	26.958061	0.000403	20.708587
2161.587949	-2.996000	3.246100	-9.723000	26.968816	0.000400	20.707547
2162.585675	-2.991500	3.247700	-9.714900	26.972605	0.000399	20.717522
2163.579083	-3.006400	3.246400	-9.758600	26.969207	0.000398	20.689921
2164.581957	-3.007600	3.246000	-9.761600	26.975889	0.000399	20.692848
2165.581348	-3.025600	3.245000	-9.817300	26.960378	0.000397	20.712813
2166.581018	-2.994000	3.245800	-9.716700	26.919883	0.000397	20.673511
2167.580879	-2.993800	3.244200	-9.711300	26.920452	0.000396	20.694000
2168.582644	-2.980900	3.246300	-9.676000	26.960053	0.000396	20.689725
2169.583826	-3.000000	3.244300	-9.732100	26.946980	0.000395	20.696968
2170.582860	-2.998300	3.243800	-9.724300	26.943410	0.000395	20.686740
2171.583747	-3.009300	3.243600	-9.759400	26.913599	0.000395	20.699437
2172.581296	-3.029900	3.241600	-9.820600	26.895736	0.000393	20.685742
2173.587924	-2.998300	3.242600	-9.721300	26.895663	0.000393	20.682349
2174.584964	-3.011200	3.243200	-9.764600	26.879980	0.000392	20.698823
2175.583088	-3.015900	3.241300	-9.774200	26.871150	0.000390	20.697531
2176.588890	-2.995000	3.242200	-9.707200	26.884597	0.000388	20.697302
2177.585596	-3.004600	3.242400	-9.741400	26.915915	0.000391	20.715044
2178.584247	-3.003000	3.241700	-9.734300	26.949743	0.000391	20.714921
2179.587546	-2.994100	3.239800	-9.698200	26.966847	0.000388	20.690867
2180.587277	-3.016200	3.240500	-9.773600	27.004958	0.000389	20.693157
2181.582845	-3.008500	3.241100	-9.750300	26.998414	0.000387	20.689895
2182.588655	-2.954400	3.240300	-9.572000	27.028362	0.000386	20.684924
2183.594719	-2.992900	3.239200	-9.693100	27.022932	0.000386	20.704120
2184.586930	-3.011200	3.238600	-9.750400	26.998690	0.000383	20.684482
2185.591799	-2.988100	3.239600	-9.679800	26.977968	0.000384	20.681661
2186.592206	-2.996400	3.238000	-9.700800	26.974594	0.000384	20.699133
2187.586600	-3.005700	3.237900	-9.731800	26.983179	0.000384	20.695438
2188.591843	-3.021400	3.235800	-9.775000	26.991764	0.000382	20.679413
2189.592315	-2.987900	3.236700	-9.669300	27.018095	0.000384	20.679339
2190.590111	-3.036100	3.234800	-9.820500	27.035784	0.000380	20.684327
2191.592755	-2.982700	3.236600	-9.652800	27.077997	0.000383	20.704496
2192.593124	-3.010500	3.236300	-9.741500	27.073079	0.000380	20.691963
2193.590842	-2.999200	3.235400	-9.702600	27.098489	0.000379	20.684327
2194.595382	-2.988500	3.235200	-9.666900	27.086036	0.000379	20.669430
2195.594407	-3.001100	3.234200	-9.706000	27.088655	0.000378	20.695300
2196.591078	-3.026600	3.233000	-9.783200	27.086224	0.000381	20.688587
2197.592312	-3.005800	3.232300	-9.714100	27.101189	0.000378	20.683722
2198.590609	-2.989300	3.233100	-9.663200	27.132622	0.000374	20.670764
2199.590071	-3.006200	3.231200	-9.711400	27.168971	0.000374	20.672710
2200.592375	-2.997800	3.232100	-9.687900	27.162940	0.000376	20.671386
2201.592301	-2.998900	3.231800	-9.690400	27.200434	0.000373	20.683968
2202.592812	-2.976800	3.230600	-9.615900	27.218096	0.000374	20.676602
2203.598322	-2.986000	3.230500	-9.645100	27.196809	0.000374	20.667044
2204.591170	-3.004300	3.229000	-9.700000	27.191396	0.000374	20.660177
2205.592097	-2.997500	3.230200	-9.681900	27.190380	0.000373	20.676226
2206.595112	-3.006500	3.228800	-9.706300	27.210033	0.000370	20.688408
2207.592080	-3.021800	3.228700	-9.755800	27.231417	0.000371	20.690002
2208.592685	-2.999400	3.230100	-9.687300	27.246079	0.000372	20.667290
2209.594790	-3.028800	3.225800	-9.769300	27.243178	0.000372	20.707523
2210.594067	-3.006900	3.227700	-9.703300	27.239682	0.000369	20.693575
2211.594036	-2.994600	3.227700	-9.664500	27.245835	0.000369	20.672260
2212.597745	-2.985400	3.227200	-9.633800	27.237342	0.000368	20.685531
2213.601939	-2.983900	3.226600	-9.627100	27.200158	0.000366	20.672310
2214.594512	-3.001700	3.226100	-9.683200	27.159047	0.000368	20.684541
2215.597405	-2.991800	3.225500	-9.648100	27.164476	0.000365	20.674828
2216.596890	-2.979600	3.225300	-9.608800	27.197029	0.000364	20.684811
2217.598864	-2.996500	3.224400	-9.661300	27.170605	0.000364	20.688580
2218.599746	-2.997700	3.225000	-9.666400	27.169069	0.000364	20.673757
2219.600071	-2.998400	3.223800	-9.664600	27.185414	0.000363	20.659376
2220.599153	-3.006900	3.222200	-9.687700	27.188341	0.000361	20.674174
2221.598253	-3.001600	3.222800	-9.672400	27.185910	0.000362	20.647545
2222.601892	-2.985800	3.223200	-9.622500	27.167867	0.000360	20.673022
2223.598964	-2.998500	3.222000	-9.659500	27.141767	0.000359	20.661943
2224.600879	-3.004700	3.222200	-9.680000	27.127299	0.000359	20.669678
2225.603687	-3.028200	3.222100	-9.756000	27.117276	0.000359	20.678565
2226.602188	-2.986500	3.221100	-9.619200	27.161762	0.000358	20.673046
2227.602836	-3.007200	3.219800	-9.681900	27.166550	0.000358	20.684027
2228.602948	-2.999900	3.219900	-9.657900	27.202280	0.000356	20.666857
2229.602545	-3.002200	3.218400	-9.661700	27.206320	0.000355	20.689415
2230.602225	-3.013900	3.219500	-9.701200	27.207654	0.000354	20.663727
2231.605301	-2.978200	3.218600	-9.584500	27.182173	0.000355	20.668444
2232.602379	-2.989900	3.218800	-9.622800	27.172671	0.000356	20.661257
2233.602274	-2.974900	3.218500	-9.573600	27.172021	0.000353	20.662501
2234.602850	-2.981600	3.218100	-9.594400	27.167901	0.000355	20.672108
2235.604733	-2.987900	3.216600	-9.609700	27.150702	0.000353	20.656230
2236.603807	-2.994000	3.216500	-9.628500	27.177524	0.000353	20.682737
2237.605444	-3.013300	3.214900	-9.686600	27.155270	0.000350	20.672206
2238.604695	-2.991500	3.214500	-9.614300	27.158074	0.000351	20.673604
2239.604804	-3.004000	3.214300	-9.654800	27.125073	0.000349	20.668388
2240.604720	-2.988500	3.214100	-9.604700	27.161545	0.000349	20.663818
2241.604088	-2.990200	3.215400	-9.614100	27.205931	0.000348	20.669108
2242.603605	-2.988800	3.213500	-9.603500	27.237459	0.000347	20.671422
2243.607663	-2.973800	3.214900	-9.559600	27.228031	0.000346	20.676164
2244.611800	-2.981800	3.212400	-9.577500	27.262922	0.000346	20.679491
2245.606579	-2.993700	3.211900	-9.613800	27.196918	0.000345	20.677112
2246.612271	-3.004300	3.210600	-9.644700	27.165812	0.000344	20.674749
2247.613087	-3.009300	3.210400	-9.660000	27.136656	0.000346	20.669132
2248.609481	-3.012500	3.213600	-9.680800	27.108118	0.000344	20.683579
2249.613905	-3.016700	3.210000	-9.682000	27.127740	0.000344	20.692884
2250.616181	-2.995500	3.210600	-9.616900	27.120180	0.000341	20.680063
2251.611524	-2.997900	3.209000	-9.618700	27.160521	0.000341	20.668953
2252.617527	-3.010000	3.207700	-9.653600	27.188709	0.000342	20.676916
2253.616037	-2.992100	3.210600	-9.605900	27.192871	0.000343	20.648382
2254.613792	-3.000900	3.209000	-9.628800	27.224959	0.000340	20.681609
2255.616710	-3.030800	3.207100	-9.718700	27.219822	0.000341	20.671700
2256.614829	-3.013500	3.210100	-9.672700	27.198552	0.000341	20.672117
2257.614048	-2.979100	3.207300	-9.553400	27.212678	0.000339	20.673049
2258.616823	-2.990300	3.206800	-9.588500	27.234338	0.000338	20.673024
2259.620589	-3.005000	3.206300	-9.632100	27.230901	0.000335	20.677154
2260.612128	-3.020500	3.203400	-9.674500	27.221236	0.000337	20.690193
2261.614979	-2.976000	3.204300	-9.534600	27.187336	0.000336	20.666525
2262.614790	-2.988800	3.204200	-9.576100	27.135259	0.000334	20.663933
2263.615080	-2.996900	3.204300	-9.601600	27.104298	0.000335	20.656500
2264.617790	-2.995700	3.203300	-9.595500	27.133691	0.000332	20.676582
2265.619897	-2.976600	3.203400	-9.534000	27.123375	0.000332	20.710780
2266.616384	-3.009500	3.202400	-9.636600	27.152133	0.000331	20.666680
2267.616955	-2.989200	3.202400	-9.572300	27.199268	0.000330	20.663353
2268.618087	-2.991800	3.201900	-9.578200	27.238045	0.000333	20.693350
2269.618323	-3.001400	3.200200	-9.602900	27.195472	0.000331	20.676606
2270.619666	-2.978700	3.200300	-9.532000	27.194976	0.000330	20.689859
2271.618417	-2.991100	3.200400	-9.571600	27.248360	0.000329	20.680965
2272.619184	-3.003800	3.199600	-9.609900	27.251220	0.000329	20.691429
2273.632164	-3.015500	3.199000	-9.646200	27.321203	0.000327	20.681218
2274.620721	-2.996700	3.198200	-9.583300	27.326095	0.000327	20.663852
2275.620416	-2.980000	3.198800	-9.531900	27.330606	0.000326	20.677874
2276.624385	-3.009000	3.198200	-9.622600	27.284615	0.000326	20.688984
2277.621223	-2.998700	3.198300	-9.589400	27.218442	0.000325	20.687857
2278.624008	-3.021900	3.195900	-9.656500	27.191913	0.000324	20.683933
2279.628172	-2.993400	3.196300	-9.566000	27.157458	0.000326	20.691004
2280.622442	-2.986800	3.195600	-9.542900	27.190279	0.000326	20.665692
2281.620133	-3.013100	3.195900	-9.628600	27.205242	0.000323	20.677424
2282.622496	-3.030700	3.194300	-9.680000	27.157255	0.000325	20.677048
2283.621148	-3.002800	3.195400	-9.593200	27.138991	0.000321	20.681439
2284.621800	-2.997900	3.193300	-9.572400	27.112510	0.000323	20.678513
2285.626698	-2.987200	3.193000	-9.537300	27.122207	0.000321	20.697276
2286.623144	-3.008200	3.192700	-9.603900	27.131912	0.000319	20.691390
2287.623064	-3.017900	3.192200	-9.633500	27.160677	0.000319	20.694242
2288.626262	-3.029300	3.191100	-9.665700	27.215476	0.000319	20.696254
2289.623400	-3.008300	3.191000	-9.598800	27.250116	0.000318	20.677515
2290.622706	-3.026100	3.190100	-9.652700	27.252245	0.000317	20.672070
2291.624924	-3.015600	3.191000	-9.622200	27.281894	0.000317	20.698576
2292.622803	-3.012300	3.189700	-9.606600	27.315182	0.000317	20.697923
2293.624453	-3.004900	3.192000	-9.589900	27.323992	0.000316	20.683549
2294.626439	-3.006400	3.189200	-9.586800	27.347779	0.000316	20.687090
2295.625700	-3.022500	3.188500	-9.635700	27.350202	0.000317	20.686682
2296.623883	-3.000700	3.189000	-9.567900	27.335841	0.000313	20.676028
2297.628998	-2.993400	3.190000	-9.548400	27.323659	0.000314	20.685586
2298.625908	-3.013700	3.185900	-9.600100	27.339612	0.000312	20.690254
2299.628050	-3.030400	3.185100	-9.650200	27.310982	0.000310	20.693222
2300.628464	-2.996700	3.185700	-9.545900	27.303586	0.000311	20.698112
2301.624641	-2.992200	3.184900	-9.529000	27.360613	0.000311	20.674394
2302.627090	-3.014400	3.184000	-9.597200	27.389989	0.000310	20.690198
2303.626847	-3.003300	3.186700	-9.569800	27.428613	0.000310	20.704399
2304.629028	-2.983600	3.185200	-9.501400	27.436601	0.000312	20.697736
2305.627430	-3.006600	3.184400	-9.573600	27.401172	0.000309	20.698603
2306.628096	-2.967500	3.185400	-9.450300	27.379271	0.000310	20.692217
2307.630602	-2.995400	3.182400	-9.530800	27.394622	0.000307	20.712404
2308.627724	-2.987700	3.181800	-9.505800	27.411743	0.000308	20.688375
2309.628943	-2.999300	3.182400	-9.543800	27.426452	0.000308	20.690370
2310.628849	-2.990700	3.181100	-9.512800	27.466635	0.000304	20.690493
2311.627636	-3.012000	3.178700	-9.572800	27.478068	0.000306	20.698677
2312.630578	-2.997300	3.181700	-9.535800	27.517118	0.000304	20.686281
2313.628736	-2.980100	3.180000	-9.476100	27.489403	0.000303	20.696804
2314.630636	-2.988000	3.179300	-9.499100	27.484942	0.000305	20.694687
2315.629265	-3.013600	3.177800	-9.575200	27.487567	0.000303	20.710605
2316.627822	-2.999200	3.179500	-9.534400	27.495188	0.000304	20.690296
2317.633716	-2.999800	3.176400	-9.527500	27.509221	0.000303	20.701097
2318.628955	-2.994800	3.175500	-9.509100	27.525017	0.000303	20.693755
2319.628569	-2.995900	3.176400	-9.515100	27.520353	0.000301	20.691433
2320.629440	-3.002600	3.175200	-9.533100	27.474622	0.000300	20.715600
2321.628888	-2.987700	3.174800	-9.484100	27.454933	0.000301	20.714757
2322.634706	-2.984400	3.174000	-9.472100	27.474126	0.000301	20.707989
2323.631738	-3.007600	3.174000	-9.545200	27.475921	0.000298	20.702207
2324.630979	-3.003800	3.173800	-9.532500	27.414896	0.000300	20.700082
2325.634371	-2.991400	3.174300	-9.494900	27.377246	0.000298	20.708200
2326.634216	-3.001100	3.172000	-9.518300	27.318418	0.000296	20.711136
2327.633557	-2.998700	3.171400	-9.508200	27.278450	0.000298	20.710286
2328.635830	-2.999300	3.171300	-9.510200	27.263324	0.000297	20.723047
2329.633768	-2.993100	3.172100	-9.492900	27.229108	0.000298	20.707121
2330.631514	-2.986400	3.171500	-9.470000	27.203579	0.000297	20.710367
2331.635564	-2.998600	3.170100	-9.504800	27.217501	0.000296	20.716784
2332.634861	-3.030600	3.168400	-9.600400	27.217794	0.000296	20.694792
2333.631201	-2.991200	3.167500	-9.474100	27.209585	0.000295	20.714986
2334.637904	-3.019700	3.168800	-9.568000	27.199214	0.000296	20.705028
2335.641034	-2.983900	3.168600	-9.453900	27.207301	0.000293	20.735450
2336.634959	-2.996700	3.166700	-9.488100	27.211024	0.000292	20.718330
2337.638376	-3.024800	3.166300	-9.576800	27.260869	0.000292	20.722475
2338.637449	-2.971300	3.166400	-9.407300	27.303415	0.000291	20.699836
2339.633311	-2.992400	3.164900	-9.469400	27.373280	0.000292	20.715116
2340.638186	-3.026600	3.163900	-9.573000	27.429661	0.000291	20.704031
2341.636012	-3.007900	3.163500	-9.515000	27.464635	0.000290	20.706974
2342.634823	-3.003100	3.164100	-9.500700	27.483714	0.000291	20.716212
2343.638510	-3.008300	3.161900	-9.510400	27.488702	0.000290	20.727870
2344.635667	-3.022100	3.160700	-9.551800	27.485477	0.000289	20.706131
2345.633817	-3.019500	3.162300	-9.548000	27.514347	0.000288	20.724747
2346.636916	-2.994400	3.160800	-9.463600	27.536367	0.000288	20.715133
2347.637545	-2.994200	3.159800	-9.459100	27.576082	0.000287	20.729015
2348.635069	-3.009200	3.160000	-9.508400	27.589716	0.000285	20.728983
2349.638586	-3.015800	3.159800	-9.528400	27.569760	0.000285	20.735457
2350.637043	-3.014600	3.157800	-9.518100	27.597759	0.000286	20.732334
2351.638042	-3.019700	3.157000	-9.532100	27.636382	0.000285	20.711453
2352.638977	-2.957300	3.159300	-9.341100	27.624594	0.000284	20.714765
2353.639176	-3.007100	3.155900	-9.489200	27.619907	0.000284	20.732334
2354.642039	-3.025700	3.155700	-9.545900	27.617858	0.000284	20.728376
2355.641145	-3.022300	3.153900	-9.530800	27.630452	0.000284	20.728720
2356.639145	-3.012900	3.154800	-9.504000	27.653590	0.000283	20.724028
2357.638752	-3.000600	3.153100	-9.460000	27.660568	0.000283	20.729153
2358.642956	-3.002600	3.153000	-9.466800	27.661032	0.000280	20.733413
2359.640466	-3.001800	3.151600	-9.458400	27.667133	0.000282	20.755675
2360.639410	-2.986200	3.152500	-9.413100	27.633782	0.000281	20.714527
2361.641151	-3.009400	3.151800	-9.482700	27.611513	0.000281	20.726733
2362.641151	-3.013100	3.151900	-9.495900	27.588869	0.000281	20.745201
2363.639375	-3.007800	3.149500	-9.471500	27.558165	0.000279	20.735644
2364.645138	-3.015500	3.148500	-9.493300	27.545343	0.000280	20.723217
2365.640433	-3.008800	3.150000	-9.476100	27.519399	0.000279	20.736944
2366.641536	-3.004400	3.146800	-9.452000	27.511094	0.000277	20.725743
2367.646422	-3.008500	3.147400	-9.467500	27.515092	0.000278	20.730239
2368.642478	-2.971700	3.147500	-9.352600	27.562860	0.000278	20.753171
2369.642587	-2.979300	3.148400	-9.379100	27.589746	0.000276	20.717632
2370.645237	-2.988800	3.146600	-9.403300	27.628264	0.000276	20.730787
2371.645368	-3.005000	3.144200	-9.446600	27.639549	0.000276	20.735504
2372.645087	-3.000800	3.144600	-9.434800	27.689944	0.000276	20.740695
2373.648115	-3.002800	3.144400	-9.440200	27.700034	0.000273	20.745634
2374.646501	-3.005800	3.144200	-9.450200	27.669382	0.000273	20.742290
2375.645467	-3.020900	3.143300	-9.493600	27.643441	0.000274	20.746533
2376.648627	-3.006900	3.143000	-9.449600	27.621911	0.000273	20.740042
2377.645507	-3.003600	3.143300	-9.438800	27.614225	0.000274	20.743688
2378.646614	-3.012200	3.140000	-9.456300	27.591630	0.000273	20.719529
2379.649979	-3.043200	3.139000	-9.551000	27.563024	0.000272	20.758552
2380.647264	-2.998400	3.138200	-9.408700	27.563405	0.000272	20.739968
2381.646019	-3.011000	3.138900	-9.450600	27.571010	0.000271	20.755682
2382.649661	-3.005600	3.137500	-9.428500	27.592119	0.000274	20.744678
2383.646849	-3.000600	3.137400	-9.412800	27.623025	0.000273	20.744481
2384.646398	-3.007100	3.135100	-9.425700	27.647496	0.000271	20.757726
2385.653058	-2.996600	3.137800	-9.401700	27.655190	0.000270	20.752665
2386.651767	-3.013100	3.136600	-9.448500	27.629370	0.000270	20.737590
2387.647295	-2.993900	3.134700	-9.383800	27.653646	0.000270	20.744474
2388.653766	-2.991300	3.133800	-9.372200	27.626519	0.000268	20.756058
2389.646946	-2.970800	3.133300	-9.307300	27.573042	0.000269	20.751562
2390.646324	-3.007700	3.131600	-9.417900	27.560643	0.000268	20.764217
2391.649302	-2.996400	3.129800	-9.376500	27.583458	0.000268	20.754930
2392.646239	-3.007300	3.129000	-9.408600	27.618801	0.000268	20.763939
2393.648776	-2.997900	3.130700	-9.384800	27.655231	0.000268	20.769777
2394.651160	-2.984500	3.130200	-9.340600	27.691741	0.000269	20.743452
2395.649328	-3.019800	3.128400	-9.445800	27.714487	0.000267	20.750220
2396.650811	-3.024400	3.127000	-9.456400	27.720256	0.000265	20.739430
2397.655624	-2.995500	3.126600	-9.365000	27.730890	0.000265	20.747287
2398.650229	-3.003500	3.125500	-9.386400	27.745106	0.000269	20.774870
2399.653994	-3.012600	3.124100	-9.410900	27.768120	0.000264	20.745872
2400.654757	-3.007600	3.124400	-9.395900	27.780890	0.000265	20.761094
2401.653526	-3.022100	3.124300	-9.441400	27.818062	0.000266	20.746820
2402.651702	-3.023300	3.121900	-9.437400	27.842480	0.000265	20.745316
2403.654967	-3.013400	3.122200	-9.406500	27.843796	0.000264	20.754702
2404.655533	-3.016800	3.121400	-9.415500	27.846005	0.000263	20.773995
2405.653229	-3.003500	3.120800	-9.372300	27.833065	0.000263	20.765239
2406.659047	-2.996600	3.120700	-9.350900	27.797998	0.000263	20.763613
2407.656451	-2.977700	3.120700	-9.290900	27.823000	0.000263	20.769335
2408.654578	-2.984300	3.120600	-9.311600	27.793384	0.000261	20.772720
2409.657963	-3.017600	3.117800	-9.406900	27.780265	0.000261	20.769949
2410.657042	-3.020200	3.116900	-9.412200	27.756324	0.000262	20.789478
2411.655093	-2.997200	3.116600	-9.340300	27.777072	0.000259	20.789495
2412.657862	-3.012400	3.114500	-9.381100	27.786698	0.000260	20.779267
2413.658341	-2.985900	3.115600	-9.301400	27.709028	0.000261	20.773651
2414.655518	-3.010000	3.113100	-9.370200	27.691951	0.000260	20.770691
2415.661194	-2.993500	3.113200	-9.318100	27.683144	0.000260	20.777002
2416.660430	-3.005800	3.111800	-9.352500	27.656935	0.000259	20.778604
2417.658494	-2.989600	3.111600	-9.301000	27.660876	0.000259	20.767870
2418.663283	-3.004100	3.110200	-9.342100	27.646715	0.000260	20.785390
2419.664190	-2.985200	3.110500	-9.284300	27.623528	0.000259	20.794775
2420.659776	-3.009200	3.108800	-9.354300	27.609286	0.000259	20.782341
2421.663951	-2.980200	3.108800	-9.263200	27.615598	0.000259	20.767829
2422.662931	-2.990500	3.107100	-9.291100	27.620928	0.000255	20.782201
2423.662691	-2.990000	3.106200	-9.286500	27.637347	0.000255	20.784024
2424.665843	-3.002200	3.105100	-9.319400	27.652028	0.000258	20.791210
2425.667413	-2.980400	3.106000	-9.256300	27.655554	0.000256	20.765834
2426.662230	-2.994000	3.104400	-9.293300	27.703933	0.000258	20.793180
2427.666123	-2.996500	3.104300	-9.300800	27.660744	0.000257	20.788601
2428.664566	-3.004300	3.101800	-9.317600	27.647868	0.000255	20.780386
2429.663658	-3.004500	3.101700	-9.317800	27.650947	0.000256	20.782535
2430.665978	-3.011600	3.101300	-9.337700	27.666936	0.000255	20.783452
2431.665338	-3.017600	3.098300	-9.348300	27.704143	0.000255	20.806194
2432.663912	-3.029700	3.097500	-9.383600	27.727224	0.000255	20.781530
2433.666333	-3.015600	3.096600	-9.337600	27.726135	0.000255	20.800349
2434.665711	-3.005500	3.095900	-9.303900	27.695435	0.000255	20.791741
2435.666673	-2.953800	3.098500	-9.152100	27.685645	0.000254	20.787579
2436.669857	-3.000400	3.094600	-9.284000	27.648119	0.000254	20.788225
2437.669043	-3.013000	3.092700	-9.317200	27.588745	0.000255	20.804346
2438.667927	-2.996000	3.094500	-9.269600	27.568010	0.000255	20.792967
2439.668926	-3.005100	3.092900	-9.293400	27.568586	0.000252	20.794021
2440.670438	-3.003300	3.091500	-9.283500	27.589240	0.000254	20.782086
2441.668751	-2.973300	3.091900	-9.192500	27.634007	0.000252	20.771180
2442.671201	-2.985300	3.090900	-9.226300	27.672891	0.000254	20.812677
2443.668469	-2.981800	3.089200	-9.209200	27.679187	0.000254	20.810004
2444.668826	-2.991000	3.088500	-9.236500	27.716038	0.000251	20.796352
2445.671690	-2.985700	3.088100	-9.219400	27.761148	0.000251	20.769676
2446.671478	-3.016700	3.085600	-9.307800	27.773821	0.000250	20.782904
2447.667553	-3.050400	3.083200	-9.404000	27.793731	0.000251	20.794880
2448.672998	-3.004900	3.084000	-9.265100	27.830749	0.000252	20.807479
2449.670427	-3.019400	3.083600	-9.309800	27.827238	0.000251	20.808687
2450.670761	-2.995000	3.081900	-9.229800	27.799361	0.000251	20.785373
2451.672727	-2.992700	3.082800	-9.224500	27.753317	0.000251	20.815849
2452.670260	-3.009000	3.080900	-9.270000	27.706907	0.000249	20.804233
2453.673451	-3.007600	3.078600	-9.258600	27.685215	0.000252	20.813699
2454.673978	-3.008900	3.079700	-9.265400	27.712471	0.000252	20.812677
2455.672523	-2.979000	3.078400	-9.170400	27.764690	0.000250	20.821131
2456.676171	-2.997100	3.077800	-9.223000	27.810993	0.000250	20.797553
2457.675540	-3.020900	3.075600	-9.289500	27.873792	0.000250	20.810495
2458.674014	-2.994500	3.073500	-9.202400	27.861501	0.000250	20.808557
2459.673443	-3.019100	3.073200	-9.277100	27.873806	0.000251	20.806243
2460.674083	-2.975800	3.073700	-9.145000	27.911195	0.000251	20.795035
2461.677598	-3.003100	3.071500	-9.222300	27.919569	0.000252	20.821956
2462.673170	-3.008400	3.069500	-9.232900	27.957507	0.000249	20.802295
2463.677011	-3.023400	3.069900	-9.280700	27.981312	0.000247	20.829574
2464.673900	-3.001100	3.069000	-9.209100	27.985479	0.000250	20.803423
2465.673955	-3.000600	3.069100	-9.208800	27.983595	0.000249	20.809112
2466.675528	-2.973000	3.068200	-9.120500	27.997102	0.000249	20.817966
2467.675946	-2.990900	3.066700	-9.170400	28.001048	0.000249	20.801077
2468.675472	-2.994200	3.064900	-9.175900	27.994178	0.000249	20.819291
2469.679176	-3.016600	3.065000	-9.244700	28.008780	0.000249	20.818816
2470.676303	-3.003800	3.063100	-9.199600	28.046066	0.000246	20.811778
2471.675935	-3.000000	3.061100	-9.182300	28.105642	0.000246	20.812955
2472.681396	-3.007200	3.061200	-9.204900	28.095580	0.000247	20.789549
2473.679500	-2.989600	3.059500	-9.145100	28.046586	0.000247	20.826526
2474.677022	-3.005800	3.058800	-9.192800	28.019004	0.000249	20.825315
2475.682049	-3.028100	3.058300	-9.259700	27.969616	0.000246	20.811638
2476.680459	-2.988300	3.056100	-9.132100	27.985486	0.000246	20.817180
2477.678380	-3.000100	3.054400	-9.162700	28.006977	0.000244	20.835018
2478.681109	-2.993100	3.054300	-9.140800	28.003492	0.000248	20.814441
2479.680075	-2.995800	3.053000	-9.145300	28.025655	0.000247	20.815888
2480.678693	-2.995900	3.053200	-9.145900	28.007333	0.000246	20.812618
2481.683667	-2.994900	3.050900	-9.136300	27.951852	0.000245	20.802767
2482.682356	-3.019600	3.049800	-9.206600	27.958074	0.000245	20.825150
2483.681376	-2.987900	3.049000	-9.109000	27.908837	0.000246	20.823008
2484.684877	-3.008500	3.046700	-9.165100	27.832492	0.000245	20.818716
2485.682595	-3.004300	3.045800	-9.150000	27.860044	0.000245	20.823212
2486.682114	-2.992900	3.046700	-9.116900	27.842759	0.000244	20.816247
2487.682689	-2.998000	3.043700	-9.123800	27.864040	0.000246	20.792621
2488.682786	-2.997100	3.042600	-9.118300	27.888294	0.000247	20.794272
2489.681747	-2.998500	3.042800	-9.122100	27.896815	0.000247	20.807590
2490.685290	-3.022100	3.041000	-9.188600	27.911037	0.000244	20.791557
2491.687290	-2.968700	3.041300	-9.027100	27.912970	0.000245	20.790184
2492.683836	-3.015600	3.039200	-9.164300	27.954799	0.000245	20.785818
2493.687936	-2.991700	3.037800	-9.087600	27.977532	0.000245	20.787838
2494.689049	-2.956800	3.038100	-8.981100	27.977459	0.000244	20.786816
2495.687044	-3.003000	3.035200	-9.113600	28.028999	0.000244	20.801237
2496.690988	-2.976100	3.035600	-9.032900	28.018165	0.000244	20.800288
2497.693966	-2.985300	3.032700	-9.052500	28.005203	0.000245	20.797198
2498.685668	-2.984300	3.032000	-9.047100	27.984403	0.000244	20.787641
2499.689342	-2.998900	3.030700	-9.087700	27.984379	0.000246	20.786668
2500.690111	-2.993800	3.029300	-9.067700	27.987749	0.000243	20.806656
2501.686110	-3.018500	3.027800	-9.138000	28.018214	0.000244	20.774259
2502.691672	-3.008700	3.026000	-9.103500	28.041823	0.000246	20.791859
2503.692774	-3.006200	3.026100	-9.096100	28.095244	0.000243	20.780202
2504.686973	-2.984100	3.025900	-9.028000	28.094668	0.000242	20.789579
2505.693460	-3.014500	3.023500	-9.113700	28.106792	0.000241	20.771913
2506.693508	-3.011400	3.022000	-9.099300	28.071986	0.000243	20.776703
2507.687970	-2.989000	3.022000	-9.031700	28.064369	0.000244	20.785157
2508.694647	-3.020900	3.020500	-9.123100	28.041783	0.000243	20.788975
2509.693365	-3.023500	3.017600	-9.123200	28.022349	0.000242	20.783162
2510.689945	-3.020100	3.016300	-9.108800	28.044187	0.000241	20.777644
2511.692522	-2.979300	3.017300	-8.988200	28.081765	0.000242	20.788918
2512.694130	-2.999800	3.014800	-9.043900	28.088561	0.000241	20.780113
2513.690345	-3.025900	3.014400	-9.119400	28.039550	0.000241	20.785779
2514.691512	-2.994300	3.012100	-9.018000	27.993014	0.000242	20.782084
2515.692138	-3.028000	3.010300	-9.113400	27.977989	0.000243	20.788771
2516.688163	-2.998300	3.010900	-9.027200	27.974179	0.000241	20.774505
2517.692266	-2.969700	3.009200	-8.935900	28.013611	0.000241	20.771996
2518.691080	-3.019400	3.007300	-9.077800	28.026727	0.000240	20.763861
2519.691148	-3.021400	3.005700	-9.080700	28.046064	0.000240	20.776214
2520.694128	-3.016000	3.006100	-9.065200	28.058384	0.000242	20.779607
2521.691345	-3.013100	3.004700	-9.052400	28.013115	0.000241	20.772446
2522.693861	-3.022400	3.003200	-9.076300	27.967845	0.000241	20.769077
2523.690689	-2.994700	3.003500	-8.992000	27.972807	0.000243	20.775495
2524.690717	-2.987800	3.000100	-8.962700	27.973400	0.000244	20.780833
2525.691024	-2.961600	3.000700	-8.884800	27.932213	0.000242	20.764982
2526.692204	-2.980900	2.997400	-8.934300	27.937249	0.000242	20.773369
2527.692470	-2.981700	2.996400	-8.933900	27.936949	0.000242	20.761687
2528.692749	-2.967900	2.996300	-8.891000	27.946273	0.000241	20.772969
2529.692488	-2.989900	2.994000	-8.951000	27.995686	0.000241	20.747315
2530.694226	-2.978400	2.994200	-8.917200	27.986509	0.000244	20.752302
2531.693371	-2.985900	2.991300	-8.930400	28.024008	0.000240	20.769185
2532.692731	-2.956000	2.991200	-8.841300	28.023674	0.000241	20.761262
2533.695369	-2.974300	2.989000	-8.888700	27.996897	0.000240	20.756120
2534.691864	-2.995700	2.987500	-8.949000	28.026297	0.000241	20.740194
2535.693402	-2.983300	2.986900	-8.909300	28.042020	0.000240	20.765505
2536.693159	-2.981900	2.984800	-8.899400	28.034378	0.000244	20.768718
2537.691202	-3.007200	2.982700	-8.968700	28.019451	0.000241	20.731406
2538.693207	-3.021000	2.981500	-9.005200	27.998212	0.000241	20.756970
2539.693439	-2.986900	2.981500	-8.905200	28.017501	0.000239	20.755997
2540.693731	-2.986400	2.979300	-8.896100	28.047916	0.000242	20.760535
2541.693893	-3.012700	2.977000	-8.967900	28.066636	0.000241	20.749980
2542.693805	-2.987900	2.976600	-8.893200	28.112544	0.000240	20.757314
2543.698179	-2.983500	2.976100	-8.878300	28.151515	0.000241	20.754820
2544.695030	-2.985100	2.973000	-8.873500	28.192588	0.000238	20.765824
2545.695092	-3.012600	2.971700	-8.952000	28.194569	0.000241	20.765448
2546.694501	-3.011400	2.970100	-8.943100	28.143183	0.000239	20.770615
2547.695522	-2.974500	2.970200	-8.834400	28.071639	0.000241	20.762129
2548.697687	-2.980100	2.968700	-8.846700	27.999716	0.000240	20.732878
2549.695226	-2.987200	2.965200	-8.856600	27.946485	0.000242	20.750897
2550.694692	-2.996300	2.964800	-8.882100	27.924100	0.000241	20.755867
2551.699491	-2.993800	2.966400	-8.879400	27.950051	0.000240	20.743580
2552.695991	-2.987800	2.962900	-8.852200	27.954518	0.000240	20.746179
2553.697258	-3.006100	2.959800	-8.896600	27.974303	0.000241	20.745705
2554.701306	-3.017400	2.957500	-8.922400	28.016520	0.000240	20.748845
2555.699973	-3.004000	2.957000	-8.882000	28.039869	0.000241	20.729674
2556.700038	-3.042600	2.954400	-8.988000	28.079541	0.000239	20.745427
2557.703183	-3.018500	2.953700	-8.914000	28.112358	0.000243	20.743850
2558.701687	-3.003200	2.953800	-8.870200	28.144135	0.000241	20.753080
2559.699859	-2.997200	2.952600	-8.848900	28.156056	0.000241	20.739003
2560.705800	-3.018700	2.950000	-8.903600	28.117207	0.000240	20.733084
2561.701075	-3.010700	2.947900	-8.875100	28.089742	0.000239	20.745739
2562.703954	-3.002900	2.948000	-8.851500	28.059199	0.000238	20.755296
2563.707536	-3.024200	2.943700	-8.901000	28.085447	0.000239	20.735725
2564.701857	-2.993800	2.944000	-8.811800	28.155497	0.000241	20.749820
2565.701672	-3.003700	2.943300	-8.839600	28.196845	0.000239	20.733600
2566.707517	-3.007100	2.940000	-8.839400	28.204876	0.000241	20.763497
2567.704858	-2.975300	2.940000	-8.746800	28.209342	0.000239	20.740491
2568.704770	-2.998900	2.938000	-8.809700	28.246125	0.000238	20.745756
2569.706553	-2.980400	2.936800	-8.751500	28.289630	0.000239	20.753523
2570.704999	-3.030500	2.932700	-8.886300	28.330641	0.000238	20.729855
2571.704059	-3.009400	2.934100	-8.829000	28.378729	0.000240	20.714738
2572.708660	-2.981100	2.931400	-8.738000	28.375206	0.000239	20.725416
2573.707106	-3.015400	2.930300	-8.834500	28.344947	0.000240	20.734777
2574.708200	-2.987300	2.927900	-8.745600	28.277857	0.000238	20.729340
2575.709190	-3.003800	2.926200	-8.788900	28.279099	0.000239	20.729642
2576.707458	-3.019100	2.925100	-8.830000	28.249625	0.000239	20.721777
2577.708125	-3.003500	2.923300	-8.778100	28.194027	0.000240	20.730288
2578.709079	-3.000900	2.921600	-8.766400	28.196309	0.000239	20.726421
2579.711009	-2.988200	2.919700	-8.722400	28.199996	0.000240	20.732504
2580.709340	-2.982700	2.918000	-8.702300	28.233637	0.000241	20.732708
2581.709906	-3.000800	2.917800	-8.754700	28.247472	0.000240	20.755648
2582.710838	-2.996500	2.915400	-8.735100	28.263250	0.000238	20.726013
2583.709615	-2.975700	2.915300	-8.673600	28.293844	0.000241	20.747334
2584.711873	-2.994500	2.911900	-8.718600	28.308142	0.000240	20.728539
2585.713643	-3.012000	2.909100	-8.760400	28.371349	0.000238	20.713945
2586.711548	-3.027000	2.906100	-8.794900	28.382155	0.000239	20.743319
2587.715318	-2.996000	2.907900	-8.710900	28.371219	0.000239	20.740843
2588.710992	-2.993300	2.905800	-8.696900	28.356678	0.000237	20.731890
2589.712272	-3.000900	2.904300	-8.714300	28.361362	0.000238	20.733762
2590.716198	-3.000900	2.902300	-8.708800	28.359349	0.000239	20.736951
2591.711858	-3.000400	2.899800	-8.699900	28.362572	0.000239	20.728816
2592.712560	-3.001000	2.897900	-8.695800	28.338710	0.000239	20.727074
2593.715706	-2.988000	2.895900	-8.652700	28.294120	0.000237	20.716316
2594.709982	-2.996400	2.894700	-8.672200	28.243632	0.000239	20.736607
2595.710473	-3.002600	2.891900	-8.682200	28.197875	0.000239	20.724679
2596.716216	-3.002700	2.891400	-8.681200	28.224996	0.000240	20.721163
2597.714731	-2.993800	2.889000	-8.648500	28.266837	0.000240	20.720615
2598.716155	-2.986600	2.887000	-8.621600	28.299105	0.000238	20.718016
2599.714054	-2.987400	2.886200	-8.621000	28.291026	0.000239	20.718891
2600.713654	-2.993200	2.883000	-8.628100	28.316253	0.000238	20.706832
2601.713443	-2.990900	2.880800	-8.614000	28.313313	0.000239	20.725210
2602.712703	-2.981100	2.881100	-8.587500	28.336583	0.000239	20.717819
2603.711992	-2.993300	2.878700	-8.616000	28.350288	0.000238	20.726878
2604.711413	-3.002700	2.876400	-8.635300	28.366006	0.000240	20.727532
2605.717522	-3.020000	2.874000	-8.678600	28.351935	0.000237	20.701508
2606.712549	-3.036900	2.871600	-8.720600	28.332359	0.000238	20.731586
2607.711546	-3.008200	2.870800	-8.635500	28.299168	0.000239	20.705751
2608.711048	-3.007700	2.869900	-8.631100	28.327943	0.000240	20.714810
2609.709282	-3.008700	2.866200	-8.623100	28.349312	0.000237	20.701712
2610.711346	-2.992200	2.864000	-8.568700	28.408449	0.000238	20.715267
2611.712515	-2.984600	2.863700	-8.545600	28.413953	0.000239	20.705636
2612.713860	-2.999700	2.861400	-8.581400	28.438040	0.000237	20.690061
2613.715724	-3.009200	2.858600	-8.600200	28.458783	0.000239	20.707157
2614.713347	-3.026600	2.854800	-8.639100	28.407563	0.000239	20.702520
2615.719132	-3.014000	2.854000	-8.600800	28.342856	0.000237	20.720817
2616.713391	-3.006000	2.852000	-8.572000	28.380520	0.000238	20.728871
2617.713312	-3.009200	2.850200	-8.574900	28.386447	0.000239	20.719191
2618.716979	-3.001400	2.848000	-8.547300	28.390636	0.000238	20.707761
2619.712320	-2.984200	2.846700	-8.492900	28.390985	0.000239	20.701000
2620.713837	-2.964100	2.845900	-8.434500	28.442683	0.000238	20.716075
2621.713124	-3.014300	2.843700	-8.571100	28.467695	0.000239	20.713287
2622.714620	-2.992600	2.839600	-8.496400	28.487892	0.000238	20.709918
2623.713522	-3.016800	2.837900	-8.559700	28.482389	0.000238	20.713859
2624.714893	-2.989400	2.836500	-8.478800	28.491108	0.000237	20.702250
2625.715392	-2.999400	2.834100	-8.500000	28.494752	0.000238	20.702127
2626.715104	-3.003500	2.830100	-8.499700	28.509697	0.000238	20.695366
2627.715459	-3.020200	2.829000	-8.543100	28.541462	0.000237	20.695113
2628.716140	-3.004300	2.826300	-8.490300	28.536478	0.000237	20.716174
2629.716921	-2.995000	2.825100	-8.459400	28.517279	0.000237	20.700631
2630.716956	-3.006700	2.822500	-8.484500	28.495792	0.000239	20.673774
2631.716700	-3.009100	2.819500	-8.482600	28.487983	0.000237	20.714277
2632.716409	-3.008800	2.817100	-8.474100	28.467241	0.000236	20.692914
2633.718821	-2.999600	2.815900	-8.446100	28.467363	0.000238	20.713901
2634.717392	-3.010100	2.813600	-8.467900	28.516898	0.000238	20.706412
2635.718466	-3.010800	2.810200	-8.460100	28.558923	0.000237	20.694206
2636.718040	-3.021200	2.806600	-8.478700	28.589525	0.000239	20.700845
2637.716859	-3.025200	2.804000	-8.481600	28.663665	0.000241	20.685425
2638.717346	-3.005900	2.804200	-8.427900	28.708452	0.000238	20.721055
2639.718944	-3.021900	2.800800	-8.462600	28.700668	0.000238	20.684764
2640.721909	-2.997600	2.798400	-8.387700	28.752125	0.000239	20.703405
2641.719692	-2.997900	2.795500	-8.379800	28.727274	0.000238	20.681216
2642.722703	-2.998900	2.793200	-8.374900	28.740901	0.000238	20.701582
2643.719419	-2.999400	2.790800	-8.369200	28.751849	0.000238	20.704075
2644.719050	-3.012400	2.788300	-8.398200	28.788784	0.000239	20.699554
2645.721643	-3.022700	2.785200	-8.417800	28.737954	0.000237	20.695768
2646.720038	-3.018200	2.782800	-8.397800	28.685102	0.000236	20.692319
2647.720202	-3.023400	2.779400	-8.401800	28.662676	0.000237	20.698181
2648.721998	-3.004700	2.778200	-8.346400	28.641394	0.000240	20.697134
2649.721419	-3.029400	2.773700	-8.401900	28.645209	0.000236	20.700977
2650.722907	-3.022400	2.771800	-8.376300	28.674177	0.000239	20.696488
2651.723681	-3.003900	2.767900	-8.314300	28.679429	0.000237	20.688975
2652.723875	-2.989200	2.766500	-8.267400	28.652944	0.000237	20.702604
2653.722306	-3.000500	2.762600	-8.288100	28.647214	0.000237	20.684029
2654.726418	-3.003600	2.760100	-8.289800	28.681824	0.000239	20.685697
2655.723648	-3.009700	2.757200	-8.297400	28.652166	0.000238	20.701820
2656.724774	-3.017100	2.753900	-8.307200	28.641345	0.000237	20.694240
2657.727945	-3.030000	2.750900	-8.334500	28.604454	0.000237	20.672729
2658.727610	-2.990500	2.749300	-8.220700	28.558713	0.000239	20.683088
2659.727080	-2.985400	2.745900	-8.195900	28.547382	0.000238	20.681159
2660.728104	-3.000600	2.742200	-8.227000	28.536163	0.000237	20.682189
2661.728235	-2.977200	2.741000	-8.158600	28.556035	0.000237	20.664741
2662.728326	-3.011600	2.736100	-8.238600	28.559948	0.000237	20.685279
2663.729506	-3.023000	2.731200	-8.255700	28.564429	0.000239	20.706390
2664.727653	-3.011700	2.727500	-8.214300	28.561116	0.000237	20.692621
2665.728503	-3.010700	2.725700	-8.204600	28.575728	0.000237	20.688370
2666.728411	-3.004900	2.722400	-8.179500	28.590769	0.000238	20.683130
2667.727850	-3.002700	2.719100	-8.162200	28.634755	0.000237	20.675272
2668.731547	-2.977300	2.718300	-8.091800	28.710578	0.000236	20.675778
2669.730106	-3.036000	2.710700	-8.228800	28.738327	0.000238	20.678599
2670.729620	-3.017900	2.708200	-8.172000	28.782414	0.000237	20.688869
2671.731516	-3.010900	2.704600	-8.142500	28.783907	0.000238	20.663818
2672.733460	-3.006400	2.701500	-8.119300	28.839676	0.000239	20.672582
2673.732455	-3.029100	2.698500	-8.172700	28.849884	0.000237	20.667218
2674.734217	-2.971000	2.695100	-8.005800	28.871462	0.000237	20.674732
2675.735177	-2.984200	2.690100	-8.027400	28.903711	0.000239	20.660277
2676.733762	-2.996500	2.688200	-8.054600	28.925710	0.000239	20.672009
2677.732992	-3.005800	2.683600	-8.065400	28.936925	0.000237	20.675248
2678.735582	-3.018200	2.678400	-8.082800	28.959376	0.000235	20.682695
2679.734798	-3.018600	2.675500	-8.074500	28.912678	0.000239	20.684960
2680.734629	-3.003300	2.671000	-8.021000	28.913846	0.000237	20.677127
2681.736579	-3.031000	2.665500	-8.077300	28.894427	0.000237	20.696921
2682.735361	-3.024200	2.662500	-8.051000	28.916199	0.000239	20.683766
2683.734298	-2.998300	2.659700	-7.973100	28.930441	0.000237	20.670611
2684.734553	-3.002600	2.656200	-7.974200	28.924647	0.000237	20.690855
2685.735482	-3.005500	2.649800	-7.962800	28.904952	0.000238	20.663899
2686.734067	-3.001300	2.646000	-7.940900	28.901480	0.000237	20.663245
2687.736095	-3.013600	2.640400	-7.955500	28.936883	0.000237	20.680422
2688.735551	-2.993700	2.638000	-7.896800	28.948235	0.000238	20.698972
2689.735707	-2.980200	2.633000	-7.845800	28.951797	0.000240	20.664626
2690.736705	-3.019300	2.627800	-7.933100	28.917189	0.000237	20.664373
2691.738058	-2.992500	2.624200	-7.851700	28.837881	0.000235	20.678835
2692.737120	-2.999200	2.619000	-7.853200	28.802481	0.000238	20.667356
2693.738604	-2.992900	2.615200	-7.826300	28.765027	0.000239	20.687951
2694.739331	-2.991000	2.609200	-7.803100	28.823460	0.000237	20.669997
2695.739121	-3.024700	2.604300	-7.876300	28.813064	0.000237	20.696511
2696.743659	-2.980600	2.601000	-7.751800	28.832655	0.000238	20.680683
2697.742198	-3.008600	2.595000	-7.806000	28.830901	0.000239	20.665164
2698.740193	-3.009500	2.589200	-7.791000	28.857608	0.000239	20.688277
2699.743911	-3.031200	2.582500	-7.827200	28.837020	0.000237	20.676545
2700.741245	-3.000100	2.580000	-7.738800	28.812569	0.000237	20.681312
2701.741224	-3.018800	2.573000	-7.766300	28.802813	0.000237	20.674329
2702.741971	-2.996600	2.567000	-7.691100	28.788019	0.000238	20.649466
2703.740153	-2.994400	2.562300	-7.671400	28.766301	0.000238	20.675007
2704.741379	-3.020800	2.556400	-7.721300	28.775561	0.000238	20.668214
2705.743050	-2.954400	2.551400	-7.536500	28.811530	0.000238	20.680739
2706.742531	-3.009800	2.544200	-7.656600	28.835640	0.000239	20.661403
2707.742680	-3.004100	2.538200	-7.624200	28.891204	0.000239	20.684189
2708.743596	-3.016900	2.531100	-7.634400	28.890092	0.000238	20.668369
2709.743020	-3.014100	2.527400	-7.616400	28.947681	0.000239	20.664747
2710.743736	-2.971600	2.520700	-7.490000	28.984942	0.000239	20.658189
2711.744706	-3.023100	2.511800	-7.591700	29.015256	0.000240	20.665499
2712.743201	-2.994700	2.508700	-7.511800	29.068879	0.000238	20.679226
2713.744715	-3.035400	2.500800	-7.589900	29.115385	0.000237	20.669661
2714.744883	-3.014500	2.496300	-7.524600	29.096465	0.000237	20.657233
