LabVIEW Measurement	
Writer_Version	2
Reader_Version	2
Separator	Tab
Decimal_Separator	.
Multi_Headings	No
X_Columns	One
Time_Pref	Absolute
Operator	admin
Description	Clolumns are: time, Current, Voltage, Power, Battery Temp, and Chamber Temp
Date	2024/08/16
Time	13:06:06.104549407958984375
***End_of_Header***	
	
Channels	6						
Samples	1	1	1	1	1	1	
Date	2024/09/06	2024/09/06	2024/09/06	2024/09/06	2024/09/06	2024/09/06	
Time	18:50:20.2218847274780273438	18:50:20.2278609275817871094	18:50:20.2337656021118164063	18:50:20.2044630050659179688	18:50:20.2044630050659179688	18:50:20.2044630050659179688	
X_Dimension	Time	Time	Time	Time	Time	Time	
X0	0.0000000000000000E+0	0.0000000000000000E+0	0.0000000000000000E+0	0.0000000000000000E+0	0.0000000000000000E+0	0.0000000000000000E+0	
Delta_X	1.000000	1.000000	1.000000	1.000000	1.000000	1.000000	
***End_of_Header***							
X_Value	Untitled	Untitled 1	Untitled 2	Untitled 3	Untitled 4	Untitled 5	Comment
0.000000	0.000125	4.098300	0.000498	21.021231	0.000920	20.862409
0.999855	-2.992800	3.927600	-11.753000	21.024273	0.000917	20.874935
2.000106	-3.004700	3.920900	-11.780000	21.003288	0.000919	20.860584
2.999893	-3.016400	3.916800	-11.814000	21.016189	0.000916	20.879651
4.000990	-2.998500	3.911600	-11.728000	21.006507	0.000918	20.878501
5.001597	-2.985700	3.909400	-11.671000	21.025940	0.000916	20.867594
6.001606	-2.996100	3.905300	-11.700000	21.027635	0.000915	20.835151
7.002107	-3.014900	3.903300	-11.767000	21.022198	0.000914	20.875703
8.003184	-3.018400	3.901200	-11.774000	21.014210	0.000912	20.840689
9.003713	-2.992300	3.900100	-11.670000	21.031825	0.000912	20.862099
10.004073	-3.008700	3.898600	-11.728000	21.027976	0.000910	20.860147
11.003525	-3.004700	3.896400	-11.706000	21.039754	0.000912	20.851539
12.004144	-3.005200	3.893100	-11.698000	21.019648	0.000911	20.874575
13.004199	-2.999100	3.893200	-11.675000	21.045042	0.000910	20.871526
14.005575	-2.989400	3.891700	-11.632000	21.037008	0.000908	20.867284
15.005713	-3.009300	3.888700	-11.701000	21.023382	0.000910	20.872146
16.006225	-2.984900	3.888900	-11.606000	21.043168	0.000909	20.862066
17.005653	-3.002400	3.888100	-11.673000	21.044662	0.000908	20.860241
18.005817	-2.989800	3.889000	-11.626000	21.053095	0.000907	20.857771
19.004419	-2.988800	3.886300	-11.614000	21.045582	0.000906	20.867799
20.008814	-2.999900	3.884800	-11.652000	21.062998	0.000905	20.879528
21.004843	-2.987600	3.884700	-11.604000	21.061848	0.000905	20.876956
22.005604	-2.987100	3.883000	-11.598000	21.055683	0.000904	20.856091
23.005815	-2.988600	3.883100	-11.604000	21.051438	0.000907	20.861329
24.009174	-2.990000	3.882600	-11.608000	21.079930	0.000903	20.864223
25.008541	-2.992500	3.881100	-11.613000	21.084296	0.000904	20.851995
26.009618	-2.983200	3.881200	-11.577000	21.078806	0.000903	20.852193
27.012438	-2.995700	3.880400	-11.624000	21.106297	0.000901	20.843182
28.009309	-3.011900	3.879400	-11.683000	21.099084	0.000905	20.864416
29.007923	-3.018800	3.880500	-11.713000	21.117317	0.000901	20.881704
30.013296	-3.012000	3.877400	-11.678000	21.113925	0.000902	20.852708
31.011337	-2.976200	3.878800	-11.542000	21.117863	0.000903	20.847165
32.010306	-3.017900	3.877000	-11.700000	21.123700	0.000901	20.849210
33.010714	-3.023100	3.875000	-11.714000	21.139417	0.000900	20.847862
34.009304	-3.004400	3.875400	-11.642000	21.140511	0.000900	20.849904
35.010012	-3.003500	3.874900	-11.637000	21.144151	0.000899	20.860183
36.013759	-2.994500	3.876000	-11.606000	21.141555	0.000901	20.853319
37.010423	-2.969500	3.874800	-11.505000	21.147792	0.000898	20.843437
38.008034	-2.997700	3.874600	-11.614000	21.147662	0.000898	20.857531
39.014265	-3.000000	3.874900	-11.624000	21.136638	0.000899	20.846979
40.013471	-2.983900	3.874900	-11.561000	21.155522	0.000899	20.855910
41.011994	-3.033800	3.871100	-11.742000	21.166969	0.000898	20.854085
42.014864	-2.996700	3.871700	-11.601000	21.170736	0.000899	20.847423
43.012464	-3.001900	3.871900	-11.621000	21.173503	0.000896	20.847345
44.009681	-3.002700	3.871300	-11.623000	21.167639	0.000897	20.857126
45.014765	-3.018700	3.869000	-11.678000	21.177017	0.000897	20.851808
46.013855	-3.006900	3.870500	-11.637000	21.202089	0.000896	20.853655
47.012952	-2.983200	3.870800	-11.546000	21.208248	0.000896	20.830894
48.013411	-3.011500	3.869000	-11.650000	21.224834	0.000895	20.857916
49.011858	-2.986100	3.870200	-11.555000	21.218375	0.000895	20.840076
50.013482	-2.988900	3.869700	-11.564000	21.237929	0.000896	20.858214
51.014537	-3.004500	3.866400	-11.615000	21.234487	0.000897	20.864254
52.012418	-3.000800	3.868200	-11.607000	21.255763	0.000895	20.855193
53.012741	-2.993300	3.867100	-11.574000	21.273000	0.000894	20.852996
54.019355	-3.016200	3.866800	-11.660000	21.280131	0.000894	20.852544
55.014551	-3.010500	3.867000	-11.640000	21.268979	0.000896	20.827638
56.012889	-3.015100	3.865800	-11.655000	21.291230	0.000895	20.847527
57.016687	-3.005300	3.866100	-11.618000	21.282897	0.000894	20.872380
58.014569	-3.022400	3.865400	-11.681000	21.310532	0.000893	20.849767
59.018370	-2.979300	3.866000	-11.517000	21.305570	0.000895	20.839113
60.017148	-3.003600	3.865300	-11.609000	21.319565	0.000894	20.838890
61.015764	-3.009700	3.864200	-11.629000	21.320733	0.000895	20.847645
62.013589	-2.998000	3.864600	-11.584000	21.312400	0.000893	20.845473
63.016986	-2.995300	3.864200	-11.573000	21.320507	0.000892	20.829876
64.015617	-3.002700	3.863000	-11.599000	21.344129	0.000894	20.842603
65.017787	-3.003000	3.863500	-11.601000	21.331857	0.000896	20.840282
66.024026	-2.991000	3.863100	-11.553000	21.346722	0.000894	20.853731
67.018259	-3.004000	3.862300	-11.602000	21.353283	0.000893	20.839433
68.017050	-2.988700	3.862200	-11.541000	21.369368	0.000894	20.822336
69.020356	-3.016900	3.862200	-11.651000	21.363133	0.000893	20.835064
70.018113	-3.020100	3.862100	-11.662000	21.370267	0.000894	20.836985
71.027236	-3.009400	3.861600	-11.619000	21.380043	0.000895	20.820213
72.018595	-2.991900	3.861600	-11.553000	21.395632	0.000893	20.832492
73.017574	-2.984900	3.862500	-11.528000	21.393136	0.000895	20.829994
74.017707	-2.984100	3.862800	-11.526000	21.419950	0.000895	20.844494
75.021122	-2.969400	3.861900	-11.467000	21.420699	0.000894	20.825804
76.018651	-2.947500	3.862300	-11.383000	21.422270	0.000893	20.855823
77.019541	-3.004000	3.860300	-11.595000	21.393064	0.000894	20.855052
78.023655	-2.993200	3.859800	-11.551000	21.414062	0.000893	20.852827
79.020822	-3.010000	3.859200	-11.615000	21.423218	0.000892	20.845867
80.019079	-3.010400	3.859800	-11.618000	21.427383	0.000892	20.836285
81.023371	-2.998100	3.860000	-11.572000	21.446887	0.000894	20.835885
82.022385	-3.016000	3.859000	-11.637000	21.451227	0.000893	20.819839
83.020486	-2.998300	3.858900	-11.569000	21.456442	0.000893	20.832643
84.020910	-3.012300	3.859300	-11.624000	21.451428	0.000893	20.829523
85.025057	-2.992700	3.858400	-11.546000	21.464774	0.000892	20.822962
86.022464	-2.995700	3.857800	-11.556000	21.435768	0.000892	20.832346
87.022448	-3.015000	3.856700	-11.627000	21.485274	0.000891	20.823086
88.023742	-3.003000	3.858000	-11.584000	21.497948	0.000894	20.803051
89.020817	-3.013600	3.857000	-11.623000	21.481462	0.000891	20.802676
90.021605	-2.991500	3.858300	-11.540000	21.518947	0.000892	20.816950
91.021735	-3.008800	3.855000	-11.598000	21.524434	0.000892	20.819596
92.023879	-3.008600	3.857800	-11.606000	21.534534	0.000891	20.833021
93.022669	-2.997400	3.856100	-11.558000	21.532490	0.000892	20.812010
94.023705	-2.994900	3.856100	-11.548000	21.550973	0.000893	20.806323
95.023429	-3.010300	3.855500	-11.605000	21.514762	0.000892	20.821771
96.024295	-3.002900	3.855400	-11.575000	21.531151	0.000892	20.825843
97.024707	-3.011700	3.854800	-11.608000	21.529206	0.000892	20.822474
98.025659	-2.978400	3.854800	-11.480000	21.521928	0.000892	20.801441
99.028316	-3.004400	3.854500	-11.580000	21.551455	0.000894	20.812970
100.026880	-3.008400	3.852700	-11.588000	21.526868	0.000891	20.805436
101.025116	-2.991100	3.855300	-11.530000	21.550012	0.000893	20.812474
102.028111	-3.019900	3.852600	-11.633000	21.568795	0.000892	20.808984
103.026677	-3.000800	3.854000	-11.565000	21.587101	0.000891	20.789370
104.027534	-3.013100	3.853300	-11.609000	21.583586	0.000893	20.800551
105.028087	-2.999100	3.853200	-11.554000	21.589126	0.000893	20.816526
106.028938	-3.013400	3.852800	-11.608000	21.616834	0.000893	20.812485
107.028829	-3.013600	3.852300	-11.609000	21.615939	0.000893	20.806374
108.028820	-3.007600	3.852000	-11.583000	21.603223	0.000893	20.799813
109.028330	-3.001700	3.852200	-11.562000	21.614272	0.000894	20.797594
110.032247	-3.004300	3.852400	-11.573000	21.627093	0.000892	20.805208
111.030686	-2.963900	3.853500	-11.419000	21.630112	0.000894	20.807281
112.030345	-2.987200	3.853000	-11.508000	21.632633	0.000895	20.807433
113.029261	-2.995100	3.852000	-11.536000	21.659841	0.000895	20.800522
114.033199	-2.980800	3.853200	-11.484000	21.640718	0.000896	20.792291
115.034157	-2.975100	3.852200	-11.460000	21.627083	0.000896	20.805672
116.031602	-2.983200	3.851800	-11.490000	21.676108	0.000897	20.794041
117.030448	-3.017100	3.849900	-11.614000	21.641198	0.000895	20.783762
118.034023	-2.999900	3.852500	-11.556000	21.663321	0.000896	20.785513
119.028845	-3.007000	3.851100	-11.579000	21.652575	0.000896	20.793725
120.029910	-2.998400	3.850800	-11.546000	21.666693	0.000896	20.777507
121.034727	-2.990600	3.850600	-11.515000	21.691380	0.000897	20.792256
122.031096	-3.005400	3.849900	-11.568000	21.710610	0.000899	20.772620
123.031836	-2.982600	3.849800	-11.481000	21.718441	0.000898	20.800846
124.035902	-2.998400	3.849400	-11.541000	21.727195	0.000898	20.777839
125.032368	-2.997000	3.850000	-11.537000	21.750164	0.000896	20.773800
126.036179	-2.991400	3.849200	-11.513000	21.728371	0.000898	20.788025
127.034389	-2.992800	3.849900	-11.521000	21.737524	0.000900	20.774426
128.032357	-2.999200	3.848700	-11.542000	21.725634	0.000900	20.778173
129.033218	-3.012700	3.847800	-11.591000	21.726358	0.000901	20.798813
130.036994	-3.017700	3.848200	-11.611000	21.734313	0.000899	20.787334
131.034258	-3.004000	3.847300	-11.555000	21.733616	0.000900	20.787111
132.033556	-2.956700	3.850100	-11.383000	21.745637	0.000901	20.769269
133.038733	-2.990300	3.849000	-11.509000	21.761797	0.000902	20.782598
134.036654	-3.006400	3.846900	-11.565000	21.749232	0.000901	20.770970
135.036474	-2.999900	3.846700	-11.539000	21.755768	0.000901	20.766607
136.039305	-3.017900	3.845800	-11.606000	21.778035	0.000902	20.778935
137.037233	-2.999700	3.846500	-11.538000	21.764550	0.000903	20.787250
138.035424	-3.012100	3.846200	-11.584000	21.780159	0.000901	20.755456
139.039244	-2.981300	3.847000	-11.468000	21.794099	0.000902	20.776046
140.035574	-2.990500	3.845500	-11.499000	21.809559	0.000901	20.791046
141.035662	-2.980300	3.846400	-11.462000	21.823845	0.000902	20.780689
142.039266	-2.995400	3.845600	-11.518000	21.825972	0.000905	20.755790
143.035211	-2.971400	3.846300	-11.427000	21.849336	0.000902	20.771115
144.036461	-3.008600	3.845600	-11.568000	21.863124	0.000903	20.756940
145.042320	-3.002200	3.844900	-11.541000	21.864771	0.000905	20.759063
146.038064	-3.018700	3.844100	-11.603000	21.888063	0.000904	20.753928
147.038610	-2.996100	3.843900	-11.514000	21.892450	0.000903	20.755474
148.040853	-2.986700	3.844000	-11.480000	21.895196	0.000904	20.778612
149.041378	-2.989300	3.844300	-11.491000	21.897042	0.000904	20.755802
150.038243	-3.001300	3.842000	-11.530000	21.933965	0.000905	20.768580
151.041702	-2.987700	3.843300	-11.482000	21.918658	0.000906	20.760845
152.042818	-3.003200	3.843000	-11.541000	21.924767	0.000905	20.752260
153.039575	-2.971100	3.843900	-11.419000	21.912878	0.000906	20.761697
154.042035	-2.996000	3.842900	-11.512000	21.916717	0.000907	20.756531
155.044552	-3.011200	3.841200	-11.565000	21.923324	0.000909	20.757928
156.038350	-3.007400	3.841800	-11.552000	21.942897	0.000908	20.757606
157.040952	-2.993300	3.841700	-11.498000	21.932225	0.000909	20.772054
158.043047	-2.992700	3.841900	-11.496000	21.961943	0.000909	20.747273
159.039653	-3.000000	3.841800	-11.525000	21.959150	0.000909	20.751591
160.043786	-2.988900	3.841700	-11.481000	21.937138	0.000910	20.755635
161.043075	-3.012700	3.840200	-11.568000	21.956810	0.000911	20.751144
162.039577	-2.997700	3.841500	-11.515000	21.953265	0.000909	20.743802
163.044200	-2.983800	3.841400	-11.461000	21.957376	0.000911	20.764988
164.043167	-3.006000	3.840600	-11.544000	21.964085	0.000912	20.755582
165.040220	-2.989800	3.839600	-11.478000	21.988016	0.000913	20.761995
166.042690	-3.004200	3.840000	-11.536000	21.993125	0.000913	20.761418
167.041863	-2.987100	3.839000	-11.465000	21.989985	0.000914	20.745947
168.039997	-2.997200	3.838500	-11.503000	22.021922	0.000912	20.750416
169.042579	-3.004100	3.839400	-11.533000	22.021123	0.000915	20.758626
170.044156	-3.013300	3.838700	-11.566000	22.013919	0.000913	20.754733
171.040999	-3.001500	3.838800	-11.521000	22.038895	0.000914	20.747019
172.044776	-3.003000	3.838100	-11.524000	22.046975	0.000913	20.755108
173.044574	-3.002800	3.838900	-11.526000	22.058042	0.000915	20.750540
174.043345	-3.011000	3.838300	-11.556000	22.041440	0.000914	20.754783
175.046355	-2.984000	3.837900	-11.450000	22.028454	0.000916	20.756007
176.047976	-3.010200	3.837500	-11.551000	22.015464	0.000917	20.736839
177.047441	-3.015400	3.837000	-11.570000	22.043359	0.000917	20.751963
178.047313	-2.996500	3.837800	-11.499000	22.044910	0.000919	20.742609
179.048089	-3.019300	3.836700	-11.583000	22.041790	0.000918	20.743279
180.048990	-3.016700	3.838100	-11.578000	22.059992	0.000919	20.760553
181.050802	-2.985300	3.836900	-11.453000	22.072678	0.000917	20.753339
182.048533	-3.028500	3.834400	-11.611000	22.086865	0.000921	20.738617
183.049197	-3.000600	3.836100	-11.510000	22.100449	0.000918	20.743207
184.050375	-3.002500	3.836000	-11.517000	22.112041	0.000920	20.740114
185.051711	-3.007300	3.836400	-11.536000	22.125801	0.000920	20.772857
186.048931	-2.993000	3.836200	-11.480000	22.116028	0.000919	20.752167
187.050035	-3.006300	3.835500	-11.530000	22.131933	0.000920	20.751495
188.048119	-2.999500	3.835200	-11.503000	22.113635	0.000921	20.761151
189.052451	-3.013900	3.835000	-11.557000	22.122464	0.000922	20.756239
190.053627	-2.999300	3.835400	-11.501000	22.132883	0.000922	20.761929
191.049815	-2.986800	3.834800	-11.452000	22.115332	0.000922	20.744357
192.050555	-2.976900	3.835500	-11.417000	22.152848	0.000924	20.745882
193.053455	-3.000600	3.834100	-11.504000	22.136471	0.000925	20.750348
194.050045	-3.006300	3.834900	-11.528000	22.148834	0.000924	20.764622
195.052417	-2.995700	3.834300	-11.485000	22.154768	0.000925	20.740217
196.054589	-3.013900	3.834200	-11.554000	22.186897	0.000924	20.758161
197.053272	-3.005100	3.832800	-11.517000	22.174757	0.000926	20.755963
198.053902	-2.983300	3.834800	-11.439000	22.182833	0.000924	20.756937
199.056090	-2.986800	3.833400	-11.448000	22.216383	0.000925	20.780096
200.054906	-2.981800	3.833200	-11.429000	22.213990	0.000925	20.756837
201.053883	-2.992000	3.832800	-11.467000	22.230890	0.000926	20.760956
202.057351	-2.992200	3.832300	-11.466000	22.248535	0.000927	20.758235
203.054114	-3.010000	3.830400	-11.529000	22.264187	0.000928	20.766321
204.056505	-3.005900	3.833300	-11.521000	22.265103	0.000927	20.762022
205.055706	-3.000300	3.831800	-11.495000	22.263859	0.000927	20.749871
206.055685	-2.980100	3.833200	-11.421000	22.281829	0.000930	20.742733
207.055172	-3.003900	3.832100	-11.510000	22.307722	0.000931	20.739736
208.065463	-3.023400	3.829800	-11.578000	22.319987	0.000930	20.767192
209.055916	-2.989400	3.830100	-11.449000	22.290275	0.000930	20.772054
210.057088	-2.991200	3.832300	-11.463000	22.305277	0.000930	20.767635
211.057998	-3.021000	3.828900	-11.566000	22.292841	0.000931	20.749967
212.055133	-3.019100	3.829400	-11.560000	22.326459	0.000931	20.766085
213.055366	-3.015100	3.831000	-11.549000	22.349912	0.000932	20.754482
214.056671	-2.987400	3.830300	-11.442000	22.323844	0.000934	20.738810
215.056283	-2.975400	3.829800	-11.395000	22.338569	0.000932	20.748814
216.059549	-3.014500	3.829800	-11.544000	22.347414	0.000935	20.756249
217.058352	-2.994200	3.828800	-11.463000	22.332909	0.000934	20.753577
218.060100	-3.015100	3.828600	-11.543000	22.337817	0.000933	20.772718
219.059338	-3.026600	3.827600	-11.583000	22.360369	0.000934	20.762109
220.059513	-3.008100	3.829400	-11.518000	22.370189	0.000934	20.746338
221.061096	-3.005000	3.826900	-11.499000	22.380328	0.000934	20.773561
222.068555	-3.004500	3.828300	-11.500000	22.360314	0.000934	20.759683
223.058839	-2.995500	3.826700	-11.462000	22.370180	0.000936	20.765295
224.060769	-2.973800	3.828700	-11.383000	22.345434	0.000938	20.768016
225.058935	-2.997800	3.827500	-11.473000	22.361707	0.000936	20.781467
226.060315	-2.990700	3.826600	-11.443000	22.370604	0.000938	20.752917
227.060203	-2.972100	3.827900	-11.376000	22.385555	0.000941	20.770260
228.061499	-2.990900	3.827000	-11.445000	22.372390	0.000939	20.776992
229.061891	-3.028900	3.825600	-11.587000	22.384178	0.000940	20.753708
230.061877	-3.021800	3.826100	-11.561000	22.354369	0.000941	20.748040
231.061560	-3.026500	3.825000	-11.575000	22.367002	0.000940	20.773493
232.063286	-2.992500	3.826300	-11.450000	22.343775	0.000940	20.743595
233.063106	-3.021200	3.823500	-11.550000	22.340232	0.000942	20.765652
234.062218	-3.004300	3.825400	-11.492000	22.349080	0.000942	20.780203
235.065691	-3.009700	3.825000	-11.512000	22.361788	0.000942	20.750253
236.062494	-3.001900	3.824700	-11.480000	22.382968	0.000943	20.776679
237.064113	-2.978400	3.824300	-11.388000	22.408162	0.000944	20.758760
238.068460	-2.992800	3.826100	-11.450000	22.435225	0.000942	20.773059
239.065546	-2.990700	3.825700	-11.441000	22.437791	0.000944	20.775629
240.065510	-2.993200	3.823400	-11.443000	22.435170	0.000945	20.773952
241.068353	-3.015700	3.823900	-11.531000	22.444141	0.000945	20.773927
242.066751	-3.018600	3.822100	-11.536000	22.450024	0.000946	20.748998
243.066275	-2.976500	3.823600	-11.378000	22.457649	0.000946	20.765643
244.077998	-2.994300	3.824000	-11.449000	22.488919	0.000949	20.763294
245.066243	-2.985600	3.823800	-11.416000	22.456253	0.000945	20.752391
246.066602	-2.999300	3.822600	-11.464000	22.456949	0.000947	20.769210
247.070067	-3.009300	3.823700	-11.506000	22.455625	0.000948	20.763143
248.066853	-3.007100	3.822900	-11.494000	22.464869	0.000950	20.790892
249.066751	-2.995800	3.821900	-11.448000	22.486598	0.000949	20.771876
250.071018	-2.994200	3.820800	-11.439000	22.487369	0.000949	20.808209
251.068886	-3.020700	3.821000	-11.541000	22.506659	0.000949	20.794338
252.068270	-3.000900	3.820300	-11.463000	22.461681	0.000951	20.777268
253.071393	-3.004300	3.820500	-11.477000	22.494848	0.000951	20.801475
254.069015	-2.995400	3.819600	-11.439000	22.502547	0.000950	20.781685
255.068110	-3.012500	3.819700	-11.505000	22.509123	0.000951	20.782106
256.072016	-3.000500	3.819500	-11.458000	22.537133	0.000951	20.776968
257.070085	-2.987900	3.820100	-11.413000	22.542093	0.000953	20.780039
258.068600	-3.006700	3.818700	-11.481000	22.559681	0.000953	20.785800
259.071919	-3.019300	3.819800	-11.532000	22.541220	0.000952	20.778217
260.073465	-3.024400	3.817700	-11.545000	22.554350	0.000953	20.783780
261.068525	-3.009000	3.819500	-11.492000	22.563422	0.000955	20.782434
262.073267	-3.010000	3.819000	-11.493000	22.592721	0.000957	20.793287
263.070255	-2.998500	3.818600	-11.449000	22.607997	0.000957	20.790095
264.070323	-3.003700	3.818600	-11.469000	22.581035	0.000958	20.782057
265.071718	-3.003000	3.818800	-11.467000	22.598380	0.000958	20.775722
266.068731	-3.012000	3.815900	-11.492000	22.598303	0.000957	20.782757
267.075229	-3.020200	3.816400	-11.525000	22.599324	0.000958	20.777141
268.075325	-3.026000	3.816000	-11.546000	22.624591	0.000960	20.776370
269.070939	-3.005100	3.817600	-11.470000	22.623319	0.000960	20.801174
270.072589	-3.013800	3.816100	-11.500000	22.635303	0.000960	20.800849
271.074567	-2.987500	3.816500	-11.401000	22.652419	0.000960	20.788121
272.072472	-3.010700	3.816600	-11.489000	22.678628	0.000960	20.773122
273.070828	-2.991000	3.815400	-11.410000	22.656875	0.000961	20.788791
274.074642	-2.995800	3.814800	-11.428000	22.666116	0.000964	20.796151
275.072523	-3.008800	3.814800	-11.476000	22.662379	0.000963	20.794304
276.072707	-2.992200	3.815700	-11.416000	22.679349	0.000963	20.806087
277.078359	-2.998300	3.815400	-11.439000	22.691477	0.000962	20.808278
278.074223	-2.997600	3.815000	-11.435000	22.700320	0.000965	20.790108
279.077639	-3.008900	3.814200	-11.475000	22.715068	0.000964	20.788760
280.076398	-3.012400	3.813700	-11.487000	22.713945	0.000965	20.788584
281.076467	-3.003400	3.813900	-11.454000	22.740552	0.000965	20.800063
282.074221	-3.005400	3.815000	-11.464000	22.745360	0.000965	20.803456
283.076982	-3.010300	3.812500	-11.474000	22.739008	0.000965	20.801835
284.076135	-3.005900	3.812400	-11.459000	22.753429	0.000967	20.808219
285.090158	-2.981200	3.814200	-11.370000	22.762719	0.000967	20.814207
286.076770	-2.988000	3.812600	-11.390000	22.744308	0.000968	20.782962
287.078638	-3.003900	3.812600	-11.450000	22.741914	0.000968	20.827505
288.075939	-2.991100	3.813400	-11.406000	22.731872	0.000968	20.798005
289.077278	-2.988600	3.812000	-11.390000	22.755165	0.000969	20.801424
290.078055	-3.008000	3.812300	-11.466000	22.785183	0.000969	20.804941
291.075887	-2.989800	3.812600	-11.397000	22.753194	0.000969	20.786173
292.077971	-3.020500	3.810600	-11.509000	22.791308	0.000970	20.814396
293.080000	-3.003300	3.812200	-11.448000	22.809914	0.000972	20.816439
294.076671	-3.011500	3.812200	-11.480000	22.808546	0.000971	20.809853
295.078463	-2.996600	3.811400	-11.419000	22.820324	0.000973	20.806953
296.079282	-3.007000	3.810600	-11.457000	22.814573	0.000972	20.794554
297.078517	-3.007700	3.810100	-11.457000	22.805954	0.000972	20.803463
298.081151	-3.014100	3.810300	-11.484000	22.799822	0.000973	20.821977
299.079033	-2.995700	3.811000	-11.415000	22.800992	0.000974	20.812243
300.080042	-3.007100	3.809900	-11.456000	22.780710	0.000974	20.798564
301.080769	-3.014700	3.809600	-11.482000	22.785094	0.000974	20.797740
302.080651	-3.023400	3.807700	-11.511000	22.784169	0.000975	20.830478
303.079419	-2.991100	3.809900	-11.395000	22.791814	0.000974	20.826756
304.080624	-3.006200	3.809600	-11.451000	22.798515	0.000978	20.800278
305.080794	-3.021600	3.808100	-11.504000	22.815403	0.000976	20.811506
306.081198	-2.994000	3.808800	-11.402000	22.809197	0.000976	20.806712
307.082139	-3.013600	3.808000	-11.474000	22.826936	0.000978	20.830646
308.080872	-3.009000	3.807600	-11.456000	22.814849	0.000978	20.813323
309.081685	-3.010900	3.807700	-11.464000	22.811932	0.000979	20.822728
310.081685	-2.982000	3.808200	-11.356000	22.776009	0.000980	20.826097
311.081373	-3.008200	3.807200	-11.452000	22.800047	0.000980	20.825521
312.081184	-2.986600	3.808800	-11.374000	22.801340	0.000980	20.818282
313.082867	-2.985600	3.807700	-11.367000	22.829013	0.000979	20.831304
314.082524	-3.011100	3.805600	-11.458000	22.856514	0.000981	20.828034
315.080923	-2.992800	3.806200	-11.391000	22.876686	0.000982	20.824536
316.083735	-3.014300	3.806200	-11.472000	22.843132	0.000982	20.824586
317.081841	-3.006800	3.804500	-11.438000	22.861087	0.000982	20.821710
318.083755	-2.996000	3.806200	-11.402000	22.848085	0.000983	20.826703
319.085095	-3.004700	3.804300	-11.430000	22.879518	0.000981	20.829743
320.082408	-3.011000	3.803900	-11.453000	22.889382	0.000983	20.839626
321.083468	-3.025400	3.803900	-11.506000	22.909585	0.000983	20.843744
322.089554	-3.000000	3.803200	-11.408000	22.899514	0.000984	20.821801
323.082798	-3.005700	3.803100	-11.430000	22.882448	0.000985	20.829360
324.084374	-2.997400	3.804600	-11.402000	22.884366	0.000987	20.829859
325.086074	-3.029600	3.803300	-11.522000	22.871408	0.000985	20.832998
326.085308	-3.020700	3.804300	-11.490000	22.867421	0.000984	20.828530
327.085003	-3.000100	3.801700	-11.405000	22.873571	0.000985	20.835639
328.087106	-2.991100	3.803100	-11.373000	22.880147	0.000985	20.846969
329.086535	-3.020200	3.801800	-11.481000	22.895488	0.000985	20.850957
330.085280	-3.007500	3.802300	-11.435000	22.917577	0.000987	20.844165
331.086421	-3.001500	3.801200	-11.409000	22.902284	0.000989	20.829318
332.085605	-3.029800	3.801100	-11.515000	22.925395	0.000988	20.846781
333.087192	-2.993200	3.801800	-11.377000	22.937823	0.000989	20.839793
334.089487	-2.983100	3.801400	-11.338000	22.943725	0.000989	20.819628
335.087400	-2.978500	3.801300	-11.322000	22.945591	0.000990	20.833351
336.088896	-3.007400	3.801000	-11.429000	22.958391	0.000989	20.845226
337.090928	-3.003600	3.800200	-11.413000	22.985889	0.000993	20.844802
338.089049	-2.986900	3.799800	-11.349000	22.992437	0.000993	20.845673
339.089529	-2.996200	3.800800	-11.387000	23.012088	0.000989	20.861093
340.090747	-3.010000	3.799400	-11.435000	23.025335	0.000991	20.848289
341.088889	-3.001300	3.800600	-11.406000	23.045832	0.000992	20.834688
342.092160	-3.005300	3.798400	-11.415000	23.060598	0.000992	20.837155
343.091697	-2.980100	3.799200	-11.321000	23.061968	0.000993	20.860812
344.089735	-2.986600	3.798700	-11.344000	23.069160	0.000993	20.855690
345.087920	-2.992400	3.799500	-11.368000	23.080170	0.000994	20.855817
346.091489	-3.023600	3.797900	-11.482000	23.082831	0.000993	20.869387
347.091663	-3.009900	3.798000	-11.429000	23.098048	0.000995	20.854764
348.090278	-2.999600	3.796900	-11.387000	23.097698	0.000992	20.860103
349.092275	-2.978600	3.800200	-11.318000	23.106760	0.000995	20.856856
350.091086	-3.015700	3.796500	-11.448000	23.119933	0.000996	20.864839
351.091801	-2.982800	3.797800	-11.326000	23.111963	0.000996	20.883404
352.097853	-2.980000	3.795900	-11.310000	23.093505	0.000997	20.865859
353.097557	-3.002500	3.796500	-11.397000	23.095225	0.000996	20.876116
354.092234	-2.994000	3.795800	-11.364000	23.104114	0.000998	20.865583
355.094556	-2.996200	3.796000	-11.373000	23.100328	0.000997	20.860368
356.091094	-3.002100	3.795600	-11.393000	23.138978	0.000997	20.857372
357.093285	-2.992700	3.794800	-11.355000	23.132926	0.000998	20.879281
358.097884	-2.996600	3.794800	-11.371000	23.123160	0.000996	20.878503
359.096398	-2.999800	3.795500	-11.385000	23.143757	0.000999	20.856945
360.092851	-3.016100	3.794300	-11.443000	23.154315	0.001000	20.886489
361.097237	-2.993400	3.795300	-11.360000	23.154040	0.000997	20.859188
362.095747	-2.998300	3.794400	-11.375000	23.181407	0.000999	20.882817
363.095834	-3.004600	3.792400	-11.394000	23.172092	0.001001	20.880596
364.097895	-2.999600	3.792600	-11.375000	23.173512	0.001001	20.873958
365.099234	-2.988700	3.792800	-11.334000	23.198985	0.001000	20.860131
366.096725	-2.996900	3.793100	-11.365000	23.211012	0.001003	20.880243
367.097339	-3.003700	3.791800	-11.388000	23.169573	0.001002	20.885657
368.096453	-3.006500	3.792400	-11.400000	23.219650	0.001002	20.879890
369.095799	-3.006900	3.791300	-11.399000	23.214146	0.001002	20.875797
370.098379	-2.993500	3.791500	-11.348000	23.212924	0.001003	20.874573
371.095584	-3.025000	3.791100	-11.466000	23.243178	0.001004	20.869330
372.096177	-3.007200	3.791100	-11.400000	23.235035	0.001005	20.882506
373.096481	-3.017200	3.790600	-11.436000	23.249925	0.001005	20.877040
374.095318	-2.990900	3.790800	-11.336000	23.243646	0.001006	20.875488
375.096005	-3.015100	3.789400	-11.425000	23.227983	0.001005	20.889188
376.097344	-3.007900	3.790500	-11.400000	23.231118	0.001007	20.875262
377.095628	-2.989600	3.791200	-11.333000	23.228255	0.001006	20.883297
378.097955	-2.994900	3.789400	-11.348000	23.262466	0.001008	20.883918
379.098749	-2.994700	3.790100	-11.348000	23.269063	0.001009	20.893373
380.097319	-2.996800	3.788400	-11.352000	23.272848	0.001007	20.893847
381.099598	-3.000300	3.788000	-11.364000	23.300437	0.001007	20.887832
382.098755	-2.996100	3.788300	-11.348000	23.297744	0.001006	20.896038
383.096784	-3.018100	3.788600	-11.434000	23.288904	0.001007	20.893817
384.098963	-3.009100	3.788800	-11.400000	23.279389	0.001009	20.887127
385.101355	-3.035300	3.787800	-11.494000	23.266189	0.001010	20.898078
386.098485	-2.996000	3.786500	-11.341000	23.270147	0.001008	20.902045
387.100837	-3.006500	3.786500	-11.383000	23.307000	0.001009	20.902469
388.101813	-2.993500	3.787700	-11.338000	23.306976	0.001008	20.885851
389.102015	-3.004500	3.786500	-11.374000	23.316036	0.001008	20.904887
390.101415	-2.990700	3.787300	-11.326000	23.324676	0.001008	20.905959
391.101095	-2.989500	3.786300	-11.318000	23.345663	0.001009	20.917035
392.100488	-2.987700	3.785900	-11.309000	23.341754	0.001012	20.901265
393.101812	-2.976600	3.785600	-11.267000	23.334707	0.001010	20.909849
394.106885	-3.007300	3.784200	-11.379000	23.333360	0.001011	20.905179
395.101980	-3.006500	3.785600	-11.380000	23.335775	0.001012	20.899540
396.103502	-3.045100	3.783200	-11.519000	23.300592	0.001013	20.906004
397.106575	-3.011100	3.784200	-11.394000	23.323970	0.001011	20.903829
398.102903	-2.992000	3.783300	-11.317000	23.327479	0.001013	20.881270
399.102693	-3.031800	3.782100	-11.465000	23.346428	0.001012	20.897889
400.104103	-2.977800	3.784600	-11.269000	23.334449	0.001013	20.925710
401.102507	-2.994100	3.783900	-11.327000	23.356960	0.001013	20.932623
402.103944	-2.993900	3.782800	-11.324000	23.359897	0.001014	20.906646
403.104535	-2.993400	3.782700	-11.322000	23.383400	0.001013	20.896538
404.104703	-2.987800	3.782900	-11.301000	23.377896	0.001015	20.907142
405.104562	-3.003800	3.780500	-11.354000	23.370624	0.001015	20.909811
406.101827	-3.006400	3.781500	-11.367000	23.381456	0.001014	20.888426
407.104114	-3.002400	3.783100	-11.357000	23.382801	0.001014	20.912531
408.103443	-3.018800	3.780900	-11.413000	23.362134	0.001015	20.916473
409.105224	-3.004100	3.781200	-11.357000	23.377022	0.001016	20.920489
410.105669	-3.000000	3.780400	-11.340000	23.353989	0.001016	20.924905
411.106199	-2.989800	3.781200	-11.304000	23.342137	0.001017	20.921562
412.108216	-2.993100	3.781500	-11.317000	23.346470	0.001015	20.905042
413.107234	-2.998200	3.780100	-11.333000	23.338600	0.001015	20.908061
414.107237	-2.984500	3.780700	-11.282000	23.338950	0.001017	20.891817
415.110477	-2.995600	3.779300	-11.319000	23.334739	0.001017	20.918414
416.112633	-3.010700	3.778500	-11.375000	23.339272	0.001015	20.908733
417.108153	-2.997500	3.778700	-11.326000	23.350499	0.001018	20.923778
418.108539	-2.984200	3.778800	-11.275000	23.363721	0.001019	20.904315
419.107961	-2.990000	3.778400	-11.296000	23.396935	0.001018	20.920534
420.107594	-3.002500	3.777700	-11.341000	23.399477	0.001017	20.941570
421.109918	-3.000700	3.777200	-11.333000	23.426263	0.001017	20.935702
422.110046	-2.995100	3.777200	-11.313000	23.437718	0.001017	20.939123
423.108415	-3.008800	3.775700	-11.358000	23.459178	0.001019	20.937400
424.109578	-3.002200	3.777300	-11.339000	23.443496	0.001019	20.931165
425.112786	-3.000300	3.776600	-11.329000	23.456689	0.001019	20.913097
426.109664	-3.004700	3.776600	-11.345000	23.455671	0.001019	20.942893
427.110046	-3.026000	3.775600	-11.424000	23.500830	0.001018	20.918461
428.113557	-2.984900	3.775400	-11.267000	23.479695	0.001020	20.923828
429.111434	-2.994200	3.774700	-11.301000	23.488707	0.001019	20.904414
430.109495	-2.967500	3.775700	-11.204000	23.483157	0.001020	20.913075
431.112206	-2.988900	3.774600	-11.281000	23.482929	0.001021	20.941766
432.112293	-3.004700	3.774800	-11.341000	23.493913	0.001021	20.915321
433.111255	-2.995500	3.773700	-11.302000	23.509292	0.001022	20.912719
434.113307	-3.007800	3.773200	-11.347000	23.531848	0.001018	20.927268
435.112557	-2.969800	3.774900	-11.208000	23.523735	0.001021	20.924351
436.113065	-3.004400	3.774200	-11.337000	23.513376	0.001020	20.902115
437.115024	-3.019500	3.772400	-11.389000	23.514770	0.001022	20.914891
438.112329	-3.011200	3.772500	-11.359000	23.548976	0.001020	20.923100
439.111451	-2.997200	3.771800	-11.303000	23.565308	0.001022	20.921454
440.112990	-2.980600	3.773000	-11.245000	23.565830	0.001021	20.918659
441.113344	-3.006600	3.771300	-11.337000	23.584401	0.001022	20.911198
442.111685	-3.011000	3.771800	-11.357000	23.606307	0.001023	20.904709
443.116087	-3.002000	3.771200	-11.319000	23.602399	0.001025	20.927342
444.111902	-2.986400	3.771300	-11.261000	23.618054	0.001022	20.901788
445.111979	-2.987100	3.772200	-11.267000	23.606354	0.001022	20.918031
446.115424	-2.986100	3.772000	-11.263000	23.625919	0.001023	20.911568
447.112117	-3.006300	3.770100	-11.333000	23.637917	0.001022	20.922172
448.112563	-3.012800	3.769200	-11.354000	23.619570	0.001024	20.930331
449.114042	-2.997500	3.769400	-11.298000	23.606227	0.001023	20.904630
450.111728	-3.002200	3.769200	-11.316000	23.625988	0.001022	20.907370
451.113976	-3.002700	3.768400	-11.314000	23.621038	0.001024	20.884392
452.115705	-2.991700	3.768100	-11.272000	23.621011	0.001024	20.927034
453.114598	-2.992600	3.768900	-11.277000	23.639630	0.001024	20.888331
454.113237	-2.980400	3.767000	-11.226000	23.611549	0.001025	20.903326
455.116602	-3.014500	3.766500	-11.352000	23.608139	0.001025	20.905123
456.116213	-3.007900	3.766500	-11.328000	23.613267	0.001024	20.910738
457.116623	-3.026300	3.766300	-11.397000	23.625188	0.001025	20.894241
458.116605	-2.975900	3.767000	-11.209000	23.612220	0.001026	20.905895
459.118584	-2.991400	3.766200	-11.265000	23.623742	0.001024	20.892317
460.120474	-3.015300	3.766100	-11.355000	23.645424	0.001026	20.877071
461.118042	-2.985900	3.766200	-11.244000	23.644577	0.001025	20.888075
462.117567	-2.983000	3.766400	-11.235000	23.646692	0.001024	20.900151
463.117348	-2.995800	3.765300	-11.279000	23.605021	0.001025	20.891093
464.118256	-3.009200	3.764700	-11.327000	23.636611	0.001027	20.895261
465.119078	-2.992700	3.765100	-11.268000	23.633048	0.001025	20.898327
466.119022	-3.006400	3.765100	-11.318000	23.630609	0.001026	20.904890
467.118474	-3.013400	3.762000	-11.335000	23.649676	0.001026	20.892238
468.122090	-2.983800	3.764500	-11.231000	23.648480	0.001026	20.886298
469.120574	-2.986100	3.764900	-11.242000	23.665979	0.001026	20.891039
470.121752	-2.990100	3.764200	-11.254000	23.653284	0.001027	20.895854
471.123299	-3.012000	3.762600	-11.332000	23.669312	0.001029	20.895802
472.121832	-3.006900	3.763900	-11.317000	23.695923	0.001027	20.897825
473.122386	-3.004000	3.761100	-11.296000	23.692811	0.001028	20.894231
474.121240	-3.004400	3.760900	-11.298000	23.679393	0.001027	20.872245
475.121970	-3.018500	3.760600	-11.350000	23.670360	0.001028	20.889266
476.125118	-3.004800	3.760400	-11.297000	23.655022	0.001028	20.886692
477.122128	-2.989800	3.760500	-11.242000	23.641982	0.001028	20.868879
478.121874	-3.017100	3.760300	-11.343000	23.634709	0.001028	20.882450
479.125902	-3.008000	3.759600	-11.307000	23.636802	0.001028	20.893082
480.124499	-2.989200	3.761000	-11.241000	23.627243	0.001030	20.873543
481.124890	-2.985000	3.759600	-11.221000	23.641581	0.001027	20.883649
482.128271	-3.015900	3.759200	-11.336000	23.656617	0.001028	20.868852
483.124982	-2.998400	3.759300	-11.271000	23.703411	0.001028	20.874040
484.124217	-3.009000	3.759200	-11.311000	23.677473	0.001029	20.887864
485.129251	-3.002400	3.757900	-11.282000	23.696342	0.001028	20.872168
486.125752	-3.016300	3.758900	-11.335000	23.694673	0.001030	20.879029
487.125065	-2.986400	3.758300	-11.223000	23.692432	0.001029	20.886265
488.127234	-2.991400	3.757100	-11.238000	23.683396	0.001028	20.875311
489.126741	-3.006800	3.758000	-11.299000	23.656163	0.001030	20.856070
490.127981	-3.001700	3.757500	-11.278000	23.673663	0.001030	20.876932
491.132493	-2.990500	3.755400	-11.230000	23.690213	0.001030	20.870291
492.129659	-2.986700	3.757900	-11.222000	23.709406	0.001032	20.875308
493.127711	-2.985700	3.756100	-11.214000	23.751419	0.001028	20.863378
494.131279	-3.013600	3.754800	-11.314000	23.781188	0.001031	20.860983
495.132094	-2.995200	3.755500	-11.248000	23.774268	0.001031	20.874432
496.130191	-3.001100	3.754700	-11.267000	23.779769	0.001031	20.845336
497.133090	-3.016500	3.753400	-11.320000	23.789651	0.001030	20.850028
498.131577	-3.011900	3.753400	-11.303000	23.767820	0.001034	20.866071
499.132094	-3.012700	3.754100	-11.308000	23.767422	0.001030	20.870413
500.133833	-2.997900	3.753000	-11.250000	23.808141	0.001032	20.864773
501.133043	-2.965300	3.756100	-11.137000	23.815759	0.001031	20.866722
502.132077	-3.000300	3.752200	-11.257000	23.791166	0.001032	20.862926
503.135792	-3.009500	3.753200	-11.294000	23.790341	0.001031	20.857358
504.135699	-2.995500	3.752600	-11.240000	23.749622	0.001032	20.855412
505.133715	-2.997500	3.753700	-11.250000	23.745638	0.001033	20.858530
506.132828	-3.014800	3.751600	-11.309000	23.733069	0.001033	20.874377
507.133819	-2.992900	3.752200	-11.228000	23.725624	0.001031	20.861223
508.132792	-3.039400	3.750100	-11.396000	23.709646	0.001033	20.870333
509.133140	-2.996700	3.750700	-11.239000	23.700259	0.001033	20.872302
510.133960	-3.004600	3.750500	-11.266000	23.701378	0.001032	20.848295
511.134202	-2.981400	3.751500	-11.184000	23.711334	0.001031	20.857803
512.135221	-3.004200	3.749900	-11.264000	23.739485	0.001031	20.859473
513.137510	-3.000500	3.749400	-11.248000	23.721439	0.001032	20.885475
514.135344	-3.012200	3.749400	-11.293000	23.723254	0.001032	20.869753
515.135637	-2.982300	3.751400	-11.187000	23.711431	0.001032	20.852210
516.135321	-2.996500	3.750400	-11.237000	23.690993	0.001032	20.854953
517.134983	-2.987400	3.750600	-11.203000	23.717554	0.001032	20.850288
518.137401	-3.007900	3.748400	-11.273000	23.716529	0.001033	20.862536
519.137726	-2.999200	3.748100	-11.239000	23.737613	0.001031	20.855700
520.137415	-2.981500	3.749600	-11.179000	23.739254	0.001033	20.876785
521.137767	-2.993600	3.747700	-11.218000	23.764643	0.001032	20.870472
522.140152	-2.993800	3.747700	-11.219000	23.769444	0.001032	20.846838
523.142761	-2.990300	3.748700	-11.209000	23.771660	0.001032	20.849060
524.140585	-2.995800	3.747100	-11.225000	23.787865	0.001033	20.868151
525.138957	-2.997500	3.747300	-11.232000	23.803493	0.001033	20.858217
526.138547	-3.006100	3.745900	-11.260000	23.841074	0.001035	20.858440
527.142723	-2.999900	3.746100	-11.238000	23.828579	0.001033	20.876730
528.136878	-2.991000	3.744800	-11.200000	23.839307	0.001031	20.857142
529.139601	-3.007000	3.746200	-11.264000	23.838980	0.001033	20.846858
530.139319	-2.991700	3.745600	-11.204000	23.838133	0.001031	20.846009
531.140495	-3.000500	3.744300	-11.234000	23.821656	0.001032	20.857937
532.139854	-2.975900	3.745200	-11.143000	23.808264	0.001034	20.862052
533.141778	-2.997200	3.743200	-11.218000	23.788128	0.001033	20.852768
534.144614	-3.000900	3.743300	-11.232000	23.811770	0.001032	20.829059
535.141001	-2.998400	3.742700	-11.221000	23.773542	0.001033	20.840515
536.140574	-3.003900	3.742100	-11.240000	23.726723	0.001034	20.857584
537.142636	-3.006600	3.742200	-11.250000	23.748351	0.001034	20.849871
538.140601	-3.008100	3.742400	-11.257000	23.730056	0.001034	20.834848
539.140231	-3.006300	3.742700	-11.251000	23.721692	0.001033	20.829781
540.142413	-2.988900	3.740800	-11.179000	23.711483	0.001033	20.857477
541.143615	-2.982800	3.741700	-11.160000	23.722135	0.001034	20.845872
542.141753	-3.004200	3.740400	-11.236000	23.692640	0.001034	20.860871
543.144939	-2.989500	3.739200	-11.178000	23.745534	0.001034	20.844202
544.143574	-2.992700	3.740700	-11.193000	23.754165	0.001034	20.853804
545.142260	-3.044400	3.738400	-11.380000	23.753541	0.001033	20.856023
546.146267	-2.998200	3.740000	-11.213000	23.762997	0.001035	20.845589
547.143026	-3.007500	3.739100	-11.245000	23.790203	0.001033	20.851056
548.141623	-2.999600	3.739500	-11.215000	23.793860	0.001035	20.839550
549.150699	-3.014500	3.739200	-11.270000	23.812278	0.001034	20.836206
550.145374	-2.985300	3.739900	-11.164000	23.796992	0.001035	20.855966
551.143856	-2.997900	3.738600	-11.207000	23.810857	0.001034	20.829566
552.148003	-2.973300	3.739100	-11.117000	23.791295	0.001036	20.835556
553.143770	-3.007100	3.736900	-11.236000	23.793035	0.001034	20.830663
554.144807	-2.983100	3.738700	-11.153000	23.787133	0.001032	20.845607
555.144895	-2.994900	3.737900	-11.195000	23.836361	0.001034	20.843758
556.144313	-2.979700	3.737000	-11.134000	23.871004	0.001033	20.834399
557.144040	-2.995800	3.735800	-11.190000	23.882452	0.001032	20.840662
558.147770	-3.006200	3.735200	-11.228000	23.891436	0.001032	20.825964
559.144646	-3.001400	3.735600	-11.211000	23.897655	0.001035	20.834571
560.146197	-3.026000	3.735000	-11.301000	23.889916	0.001033	20.823491
561.150022	-2.999100	3.735600	-11.202000	23.898997	0.001034	20.847295
562.146632	-3.013400	3.735000	-11.255000	23.913653	0.001034	20.836862
563.150071	-2.987700	3.735300	-11.159000	23.912185	0.001032	20.838235
564.147301	-3.002100	3.734500	-11.210000	23.949488	0.001032	20.849088
565.149154	-2.998700	3.734400	-11.197000	23.939036	0.001033	20.839555
566.148090	-2.997500	3.734200	-11.193000	23.955632	0.001033	20.841973
567.150154	-3.008300	3.733400	-11.230000	23.959563	0.001034	20.844019
568.148069	-2.968400	3.734700	-11.084000	23.965361	0.001031	20.831341
569.148750	-2.983800	3.733400	-11.138000	23.994475	0.001032	20.825925
570.149804	-2.997300	3.732700	-11.187000	24.001991	0.001032	20.814021
571.149982	-2.997200	3.732400	-11.186000	23.992757	0.001033	20.821831
572.151286	-2.987500	3.732000	-11.148000	23.975038	0.001032	20.834407
573.153546	-2.990100	3.733100	-11.162000	23.973991	0.001032	20.839047
574.151496	-3.027100	3.730600	-11.292000	23.976281	0.001032	20.839921
575.152404	-2.990700	3.731500	-11.158000	24.001565	0.001034	20.841569
576.155932	-3.021100	3.731200	-11.271000	23.990636	0.001033	20.824920
577.152201	-2.996300	3.730500	-11.177000	23.957217	0.001032	20.827442
578.155018	-3.006000	3.729200	-11.207000	23.976922	0.001032	20.821598
579.153033	-3.017900	3.729500	-11.254000	23.969508	0.001031	20.839767
580.153200	-3.009500	3.729200	-11.221000	23.953531	0.001031	20.804780
581.152918	-3.006000	3.729600	-11.210000	23.981925	0.001031	20.833253
582.158029	-2.999900	3.728200	-11.183000	23.965574	0.001031	20.814960
583.156328	-3.017200	3.728200	-11.248000	23.982467	0.001030	20.828581
584.156726	-3.011600	3.727000	-11.223000	24.006108	0.001031	20.828581
585.160680	-3.008600	3.726500	-11.210000	24.007999	0.001030	20.817202
586.158715	-2.996800	3.728200	-11.171000	24.007279	0.001027	20.810790
587.159419	-3.013600	3.726800	-11.230000	23.964622	0.001030	20.807841
588.168320	-2.968500	3.728700	-11.068000	23.924559	0.001029	20.821246
589.157728	-3.002700	3.726700	-11.190000	23.949644	0.001029	20.818900
590.159768	-2.994100	3.726500	-11.156000	23.952533	0.001029	20.818004
591.160875	-3.007500	3.726500	-11.206000	23.977120	0.001029	20.815159
592.160802	-3.000100	3.726200	-11.178000	23.981200	0.001029	20.818776
593.160055	-3.007900	3.726000	-11.206000	24.003497	0.001029	20.805574
594.160550	-2.986800	3.726900	-11.131000	24.028357	0.001030	20.813436
595.160645	-2.993300	3.723800	-11.145000	24.050455	0.001027	20.834648
596.159676	-3.001500	3.725000	-11.179000	24.035998	0.001030	20.825367
597.162047	-2.995200	3.726000	-11.159000	24.054289	0.001029	20.793924
598.161462	-2.997500	3.724600	-11.161000	24.100148	0.001029	20.802459
599.162492	-3.008500	3.723700	-11.202000	24.080891	0.001027	20.793102
600.162467	-3.004800	3.724100	-11.189000	24.086512	0.001029	20.805852
601.162430	-2.999300	3.724800	-11.170000	24.102539	0.001028	20.809598
602.161737	-3.004500	3.723700	-11.187000	24.097712	0.001027	20.813292
603.162825	-2.998200	3.722200	-11.158000	24.092512	0.001028	20.805705
604.164733	-2.982800	3.722000	-11.099000	24.089802	0.001030	20.807254
605.164827	-2.994500	3.723400	-11.148000	24.081663	0.001028	20.799092
606.163682	-2.998400	3.721500	-11.158000	24.089304	0.001029	20.809126
607.164282	-2.993900	3.721700	-11.141000	24.109284	0.001029	20.805931
608.165203	-2.974800	3.721600	-11.070000	24.100873	0.001029	20.794651
609.164714	-3.004500	3.722300	-11.183000	24.153300	0.001028	20.786541
610.165023	-2.978800	3.721700	-11.084000	24.125234	0.001029	20.812445
611.172445	-2.996600	3.719600	-11.145000	24.137625	0.001028	20.808277
612.166543	-3.016200	3.721200	-11.222000	24.163950	0.001027	20.809551
613.171855	-3.008100	3.717300	-11.181000	24.164596	0.001028	20.789336
614.170021	-3.003400	3.719100	-11.169000	24.159270	0.001028	20.805805
615.170756	-2.992200	3.719400	-11.127000	24.141877	0.001027	20.782671
616.169382	-3.007900	3.718700	-11.184000	24.166039	0.001027	20.782723
617.167179	-2.977800	3.719300	-11.074000	24.168752	0.001026	20.798720
618.167925	-3.008900	3.717800	-11.185000	24.150859	0.001027	20.794050
619.167718	-2.995500	3.718900	-11.139000	24.171336	0.001028	20.792777
620.166507	-3.007800	3.717100	-11.179000	24.161557	0.001027	20.783917
621.166984	-3.008100	3.717600	-11.182000	24.135110	0.001027	20.782047
622.167442	-2.996800	3.716300	-11.135000	24.139934	0.001028	20.797317
623.167402	-3.015400	3.716900	-11.207000	24.116621	0.001027	20.817557
624.168658	-3.019900	3.716200	-11.222000	24.112863	0.001026	20.785339
625.168662	-2.993200	3.717300	-11.124000	24.109604	0.001028	20.778751
626.175123	-2.994800	3.716200	-11.129000	24.160859	0.001028	20.785113
627.169426	-2.991900	3.716900	-11.119000	24.140308	0.001027	20.804804
628.169613	-2.991100	3.716900	-11.117000	24.152399	0.001027	20.785163
629.171169	-3.020100	3.713700	-11.214000	24.159441	0.001027	20.801235
630.171995	-2.998200	3.715000	-11.137000	24.161230	0.001026	20.799236
631.171262	-3.005500	3.713800	-11.161000	24.161530	0.001028	20.797166
632.172571	-2.981500	3.715200	-11.075000	24.133041	0.001029	20.782817
633.172992	-2.996400	3.714200	-11.128000	24.160386	0.001027	20.793648
634.175144	-3.015400	3.714200	-11.198000	24.178598	0.001027	20.794371
635.175407	-3.002800	3.711800	-11.145000	24.187879	0.001026	20.766696
636.177424	-2.993300	3.713200	-11.113000	24.197433	0.001026	20.778649
637.176632	-2.998100	3.712900	-11.131000	24.162324	0.001027	20.784212
638.175740	-3.014600	3.712400	-11.190000	24.168222	0.001025	20.765946
639.176240	-3.000900	3.712400	-11.139000	24.167725	0.001027	20.768766
640.176344	-3.001500	3.712000	-11.141000	24.175484	0.001026	20.804524
641.176137	-2.994800	3.711500	-11.113000	24.175709	0.001025	20.783887
642.176488	-3.014100	3.711300	-11.185000	24.178623	0.001025	20.795818
643.177124	-3.006500	3.710700	-11.155000	24.171655	0.001025	20.780769
644.177739	-3.016800	3.711000	-11.193000	24.155780	0.001025	20.773855
645.178485	-2.990100	3.710500	-11.094000	24.172326	0.001024	20.781916
646.178406	-2.978100	3.711500	-11.052000	24.180189	0.001023	20.785536
647.180774	-2.992200	3.711100	-11.104000	24.187481	0.001024	20.779098
648.177886	-3.001000	3.708800	-11.129000	24.183647	0.001026	20.780943
649.182182	-3.021500	3.710000	-11.208000	24.167104	0.001023	20.778575
650.180659	-3.005500	3.707800	-11.143000	24.180489	0.001024	20.780146
651.180024	-2.999400	3.710400	-11.128000	24.203504	0.001024	20.792799
652.182183	-2.992200	3.708200	-11.095000	24.192312	0.001024	20.775409
653.181774	-2.996100	3.708300	-11.108000	24.211045	0.001023	20.770491
654.180610	-3.007100	3.707700	-11.148000	24.199875	0.001023	20.776832
655.186281	-2.996900	3.708500	-11.113000	24.214055	0.001022	20.779674
656.181528	-2.986600	3.706900	-11.069000	24.232968	0.001021	20.765928
657.180104	-3.009000	3.707200	-11.154000	24.235181	0.001022	20.795175
658.182887	-3.021900	3.706600	-11.200000	24.251005	0.001023	20.780228
659.181734	-3.006800	3.704100	-11.136000	24.279540	0.001022	20.786091
660.180364	-3.020000	3.705000	-11.188000	24.239264	0.001023	20.772244
661.181464	-3.013900	3.705700	-11.167000	24.279245	0.001021	20.783425
662.181632	-2.963800	3.706900	-10.986000	24.285712	0.001021	20.779954
663.181467	-2.995600	3.704400	-11.096000	24.272081	0.001022	20.791411
664.182347	-3.009200	3.705500	-11.149000	24.260214	0.001020	20.780456
665.182237	-2.992800	3.704000	-11.083000	24.242422	0.001019	20.782524
666.184228	-2.989100	3.703600	-11.070000	24.233965	0.001021	20.781153
667.183828	-3.016100	3.702500	-11.166000	24.240707	0.001020	20.783174
668.183207	-3.026100	3.702800	-11.204000	24.218044	0.001020	20.770873
669.184470	-2.995000	3.701900	-11.087000	24.224610	0.001019	20.795003
670.182328	-2.996300	3.702800	-11.093000	24.247548	0.001020	20.786717
671.184812	-3.005300	3.701800	-11.123000	24.250460	0.001019	20.774940
672.182696	-2.978600	3.703800	-11.031000	24.245434	0.001020	20.771794
673.184275	-2.965400	3.702900	-10.980000	24.263223	0.001020	20.773991
674.184101	-3.023800	3.701000	-11.189000	24.252525	0.001019	20.798347
675.185551	-2.999200	3.701700	-11.100000	24.240061	0.001018	20.766405
676.186635	-2.996500	3.700500	-11.087000	24.278127	0.001019	20.756224
677.184150	-2.996000	3.702100	-11.091000	24.278102	0.001017	20.789390
678.185377	-3.006100	3.700300	-11.122000	24.323581	0.001017	20.759620
679.186576	-3.009700	3.700200	-11.135000	24.287581	0.001016	20.772345
680.186358	-3.004800	3.698600	-11.113000	24.292832	0.001018	20.789467
681.185479	-2.994000	3.700000	-11.077000	24.277359	0.001017	20.766834
682.187559	-2.961000	3.700600	-10.956000	24.249747	0.001017	20.773276
683.185920	-2.986700	3.698800	-11.046000	24.242459	0.001014	20.782087
684.188571	-2.995500	3.698900	-11.079000	24.248876	0.001017	20.783782
685.187043	-3.026100	3.697100	-11.186000	24.269702	0.001016	20.790922
686.186898	-3.009900	3.698200	-11.130000	24.273934	0.001014	20.782839
687.193449	-3.018100	3.697300	-11.157000	24.278913	0.001015	20.798265
688.187740	-3.008200	3.697500	-11.122000	24.273167	0.001015	20.785388
689.187871	-3.029500	3.696300	-11.197000	24.249584	0.001016	20.783069
690.188375	-2.998700	3.697500	-11.087000	24.223463	0.001014	20.783896
691.187950	-2.983300	3.697000	-11.027000	24.197365	0.001014	20.781426
692.188058	-3.004400	3.695800	-11.103000	24.231777	0.001014	20.773742
693.188730	-2.997800	3.696000	-11.079000	24.246134	0.001013	20.787195
694.189891	-3.013800	3.695800	-11.137000	24.282858	0.001012	20.771401
695.188816	-3.004400	3.696200	-11.105000	24.307539	0.001012	20.783831
696.189487	-3.014100	3.695200	-11.136000	24.307588	0.001012	20.771553
697.188430	-2.994200	3.695800	-11.064000	24.310204	0.001013	20.773703
698.189728	-2.987700	3.694400	-11.037000	24.333318	0.001012	20.764172
699.188782	-2.986300	3.694600	-11.032000	24.365214	0.001012	20.780522
700.188936	-2.988400	3.695200	-11.041000	24.366261	0.001011	20.774934
701.190137	-3.019000	3.693400	-11.149000	24.384246	0.001012	20.777804
702.191586	-3.001800	3.693800	-11.086000	24.392383	0.001010	20.774112
703.191364	-2.994500	3.694100	-11.060000	24.375120	0.001012	20.783347
704.192370	-2.994800	3.693000	-11.059000	24.389425	0.001011	20.766404
705.192196	-3.009600	3.693100	-11.113000	24.391566	0.001010	20.772819
706.193465	-3.004200	3.692100	-11.090000	24.342910	0.001011	20.785174
707.194105	-3.012100	3.692400	-11.120000	24.341123	0.001011	20.783382
708.195272	-2.982000	3.691900	-11.008000	24.342566	0.001011	20.788622
709.197360	-2.983500	3.692900	-11.016000	24.332640	0.001011	20.771553
710.196342	-2.995700	3.692100	-11.060000	24.359980	0.001010	20.778591
711.196306	-3.010600	3.691800	-11.113000	24.391301	0.001012	20.804796
712.196514	-2.991700	3.691800	-11.043000	24.421151	0.001009	20.757928
713.197845	-2.986100	3.692200	-11.025000	24.420530	0.001010	20.767737
714.196962	-2.994600	3.690200	-11.048000	24.430856	0.001009	20.786631
715.198434	-3.029300	3.689700	-11.175000	24.432650	0.001012	20.778948
716.198391	-3.005900	3.689700	-11.090000	24.431233	0.001011	20.768517
717.199206	-2.995500	3.690100	-11.052000	24.415661	0.001009	20.777550
718.198705	-2.995600	3.689300	-11.050000	24.410115	0.001010	20.767720
719.200239	-2.996700	3.689600	-11.054000	24.436511	0.001010	20.785192
720.198907	-3.012400	3.687800	-11.108000	24.461507	0.001011	20.810744
721.199114	-2.990100	3.687600	-11.025000	24.469690	0.001011	20.790978
722.198807	-2.995800	3.687300	-11.045000	24.482849	0.001010	20.793275
723.198705	-3.000700	3.686600	-11.061000	24.476136	0.001008	20.784643
724.200139	-2.984400	3.687600	-11.003000	24.463697	0.001010	20.796820
725.200493	-3.003300	3.686200	-11.070000	24.436909	0.001009	20.802661
726.200253	-3.004100	3.686300	-11.073000	24.391088	0.001008	20.797944
727.201669	-3.030000	3.685000	-11.164000	24.401063	0.001009	20.788985
728.205178	-2.992000	3.686500	-11.029000	24.384199	0.001007	20.785817
729.208245	-2.998300	3.686600	-11.052000	24.396040	0.001009	20.780152
730.203921	-3.024000	3.684600	-11.141000	24.367209	0.001008	20.773988
731.205762	-3.013000	3.684900	-11.102000	24.362108	0.001009	20.788786
732.206023	-2.969700	3.687500	-10.950000	24.388527	0.001008	20.781624
733.204535	-3.017700	3.683400	-11.114000	24.378602	0.001007	20.799642
734.205331	-2.999700	3.684600	-11.052000	24.374796	0.001008	20.792505
735.206406	-3.004700	3.683300	-11.065000	24.355813	0.001007	20.789583
736.204012	-3.014300	3.684400	-11.104000	24.353125	0.001008	20.801586
737.206106	-2.988400	3.684400	-11.010000	24.387904	0.001007	20.797120
738.206542	-2.991100	3.683100	-11.016000	24.411036	0.001006	20.789032
739.206150	-2.989000	3.682500	-11.005000	24.403993	0.001004	20.790976
740.206697	-3.007500	3.683700	-11.078000	24.414644	0.001006	20.799290
741.207715	-3.017000	3.682400	-11.108000	24.442751	0.001005	20.820376
742.206097	-3.011300	3.680800	-11.083000	24.465459	0.001006	20.782466
743.207354	-3.007200	3.681400	-11.069000	24.439094	0.001006	20.803430
744.208767	-3.011600	3.681300	-11.085000	24.462948	0.001004	20.769040
745.212955	-3.017700	3.680800	-11.106000	24.478294	0.001006	20.801032
746.208490	-3.000300	3.680900	-11.042000	24.480483	0.001005	20.806548
747.209291	-2.983400	3.680800	-10.980000	24.519533	0.001005	20.813484
748.208559	-2.998600	3.680300	-11.035000	24.559002	0.001006	20.812308
749.209172	-3.008400	3.679700	-11.068000	24.532266	0.001003	20.797336
750.208241	-2.976900	3.680200	-10.955000	24.528757	0.001004	20.816101
751.209262	-3.022200	3.679400	-11.119000	24.515599	0.001002	20.777295
752.210247	-2.998900	3.680300	-11.037000	24.515000	0.001004	20.785229
753.208855	-3.005500	3.679000	-11.056000	24.513555	0.001004	20.788046
754.209249	-3.034700	3.677000	-11.157000	24.543575	0.001002	20.800623
755.211495	-2.995000	3.678200	-11.015000	24.554046	0.001003	20.803068
756.210942	-2.988000	3.678400	-10.989000	24.554519	0.001003	20.792637
757.210468	-2.988100	3.678900	-10.993000	24.564391	0.001004	20.791162
758.212066	-2.980900	3.678200	-10.962000	24.567177	0.001000	20.827148
759.219438	-2.979200	3.678200	-10.956000	24.555286	0.001002	20.812372
760.210728	-2.984000	3.677400	-10.972000	24.573988	0.001000	20.808852
761.214905	-2.983000	3.676100	-10.964000	24.596743	0.001003	20.807027
762.211831	-2.976100	3.678200	-10.945000	24.597839	0.001001	20.816188
763.209595	-3.001800	3.676100	-11.034000	24.607834	0.001000	20.800139
764.212237	-2.987400	3.677100	-10.984000	24.628849	0.001000	20.791827
765.210758	-3.001300	3.676300	-11.033000	24.641234	0.000999	20.813263
766.209943	-2.998300	3.675100	-11.017000	24.659962	0.001001	20.799813
767.211593	-3.004300	3.674500	-11.038000	24.651953	0.001002	20.814537
768.210950	-3.003600	3.675700	-11.040000	24.677069	0.001000	20.806548
769.219533	-3.008200	3.675500	-11.055000	24.671050	0.001000	20.829906
770.212938	-3.007900	3.674900	-11.053000	24.666151	0.000999	20.811714
771.211791	-3.024100	3.673200	-11.107000	24.671871	0.000998	20.808919
772.210887	-2.996100	3.673900	-11.006000	24.680896	0.001001	20.821768
773.218166	-2.998400	3.673300	-11.013000	24.697981	0.000999	20.828007
774.210629	-3.026900	3.671000	-11.110000	24.687984	0.000997	20.810863
775.213166	-2.985900	3.674200	-10.970000	24.720040	0.000998	20.828332
776.212184	-2.991600	3.674100	-10.991000	24.700019	0.000999	20.823888
777.212213	-2.994100	3.672700	-10.996000	24.698352	0.000997	20.813206
778.211393	-2.989300	3.672500	-10.977000	24.649707	0.000998	20.844999
779.211955	-2.996900	3.673400	-11.008000	24.623492	0.000997	20.837661
780.210581	-2.968200	3.673500	-10.903000	24.609239	0.000996	20.822411
781.213042	-2.997500	3.671300	-11.004000	24.603272	0.000997	20.832070
782.213826	-3.016000	3.671100	-11.070000	24.590214	0.000999	20.829873
783.214298	-3.009300	3.669800	-11.042000	24.581082	0.000997	20.824978
784.214869	-3.000500	3.669900	-11.010000	24.585758	0.000996	20.838204
785.214096	-2.975900	3.669900	-10.919000	24.600756	0.000995	20.830968
786.216801	-2.998200	3.669600	-11.001000	24.633881	0.000994	20.830541
787.216490	-3.000900	3.668500	-11.008000	24.666063	0.000995	20.842918
788.220902	-3.018900	3.668300	-11.073000	24.696076	0.000995	20.840319
789.217242	-3.023200	3.669400	-11.092000	24.683123	0.000995	20.843916
790.223486	-3.018700	3.667500	-11.070000	24.692694	0.000994	20.823650
791.219970	-2.984200	3.668400	-10.946000	24.702963	0.000993	20.839644
792.218251	-2.972600	3.667300	-10.900000	24.704703	0.000995	20.835700
793.220901	-3.000700	3.668800	-11.008000	24.686074	0.000994	20.848775
794.216965	-2.977900	3.668300	-10.923000	24.689956	0.000996	20.841290
795.218179	-2.999200	3.666700	-10.996000	24.660657	0.000993	20.844607
796.218767	-3.012800	3.667200	-11.047000	24.634069	0.000993	20.847799
797.221829	-2.995300	3.666900	-10.983000	24.617008	0.000993	20.854387
798.219682	-3.007000	3.665700	-11.022000	24.645707	0.000993	20.843830
799.218414	-3.003000	3.666600	-11.010000	24.668613	0.000992	20.837892
800.220953	-2.997800	3.667600	-10.993000	24.669232	0.000992	20.854633
801.218814	-2.982700	3.665200	-10.931000	24.651249	0.000992	20.839908
802.219366	-2.986700	3.666100	-10.948000	24.642446	0.000993	20.851937
803.219808	-3.026500	3.663200	-11.085000	24.665076	0.000991	20.849040
804.219079	-3.002000	3.664500	-11.000000	24.627669	0.000990	20.844222
805.221777	-3.001000	3.665000	-10.998000	24.643337	0.000990	20.870374
806.226166	-2.992400	3.664400	-10.964000	24.668552	0.000990	20.843520
807.226054	-2.991800	3.662500	-10.956000	24.665469	0.000991	20.838530
808.224091	-2.984300	3.665000	-10.937000	24.700831	0.000990	20.846039
809.225934	-2.991100	3.663300	-10.956000	24.694216	0.000991	20.868798
810.226648	-3.009300	3.663800	-11.023000	24.682426	0.000988	20.848433
811.226769	-2.989500	3.663800	-10.952000	24.638404	0.000990	20.850252
812.226130	-3.006600	3.663800	-11.015000	24.642009	0.000988	20.873782
813.229901	-2.967800	3.662700	-10.869000	24.646437	0.000989	20.866373
814.228784	-2.994200	3.661900	-10.964000	24.668844	0.000989	20.867045
815.231696	-2.966400	3.663100	-10.865000	24.702390	0.000988	20.848078
816.229968	-2.998400	3.661900	-10.979000	24.685479	0.000986	20.866194
817.228277	-3.014800	3.661400	-11.038000	24.717387	0.000988	20.864548
818.230762	-3.005900	3.660400	-11.001000	24.738248	0.000988	20.873155
819.238938	-3.007000	3.660800	-11.007000	24.727505	0.000986	20.850995
820.230474	-3.007600	3.660900	-11.010000	24.727826	0.000985	20.863171
821.230628	-2.989900	3.661700	-10.947000	24.677419	0.000985	20.856210
822.232102	-3.000900	3.660300	-10.983000	24.658639	0.000988	20.851591
823.231552	-3.000300	3.660600	-10.982000	24.655060	0.000986	20.873601
824.231487	-3.002300	3.660100	-10.988000	24.649090	0.000984	20.860026
825.230721	-2.973900	3.660800	-10.886000	24.628049	0.000983	20.856930
826.233767	-3.006100	3.659800	-11.001000	24.628521	0.000985	20.890119
827.233516	-3.019800	3.658300	-11.046000	24.631925	0.000984	20.848493
828.238003	-3.005600	3.658200	-10.995000	24.608199	0.000986	20.870203
829.235123	-3.012800	3.657500	-11.018000	24.643266	0.000983	20.881208
830.232614	-3.005800	3.657200	-10.992000	24.672412	0.000983	20.865884
831.235013	-2.994500	3.657400	-10.951000	24.671566	0.000982	20.880207
832.238031	-2.976300	3.657600	-10.885000	24.672684	0.000982	20.878485
833.233159	-2.990200	3.657900	-10.937000	24.712526	0.000982	20.873895
834.236176	-3.007600	3.656000	-10.995000	24.734756	0.000985	20.874391
835.235613	-3.007900	3.655400	-10.994000	24.743211	0.000983	20.862014
836.235205	-3.010900	3.655900	-11.006000	24.762531	0.000983	20.888987
837.237394	-3.033300	3.654400	-11.083000	24.766984	0.000982	20.891085
838.236933	-2.991500	3.656100	-10.935000	24.744327	0.000981	20.879728
839.235115	-2.986500	3.656000	-10.918000	24.721823	0.000980	20.902188
840.240373	-2.987100	3.655700	-10.918000	24.683350	0.000981	20.883022
841.238376	-2.991500	3.655900	-10.935000	24.662633	0.000980	20.878356
842.238103	-2.984200	3.655400	-10.907000	24.676831	0.000981	20.886912
843.240986	-3.014300	3.654200	-11.014000	24.705729	0.000979	20.869919
844.244503	-3.000500	3.654900	-10.964000	24.747956	0.000980	20.884318
845.238695	-2.998800	3.654600	-10.959000	24.763422	0.000980	20.868072
846.241772	-3.010400	3.652600	-10.993000	24.787296	0.000979	20.894873
847.244573	-2.999800	3.652500	-10.955000	24.755588	0.000978	20.891976
848.240870	-2.997100	3.653400	-10.948000	24.762576	0.000976	20.903730
849.243508	-2.983100	3.654000	-10.900000	24.763420	0.000979	20.880871
850.240879	-2.993400	3.652700	-10.932000	24.751932	0.000978	20.901109
851.241974	-2.993700	3.652100	-10.933000	24.727607	0.000977	20.895665
852.241887	-2.995100	3.653300	-10.940000	24.737156	0.000977	20.895290
853.242890	-2.996300	3.651200	-10.939000	24.719600	0.000975	20.880992
854.242702	-3.008600	3.650200	-10.980000	24.701568	0.000976	20.903199
855.246184	-2.988100	3.651400	-10.910000	24.695524	0.000977	20.888127
856.244883	-2.989700	3.650500	-10.913000	24.692291	0.000975	20.875400
857.243879	-3.004000	3.649600	-10.962000	24.695176	0.000975	20.902948
858.244136	-2.985800	3.650700	-10.900000	24.713304	0.000975	20.899329
859.243822	-3.009500	3.647500	-10.975000	24.683487	0.000974	20.901176
860.244390	-3.006000	3.648800	-10.967000	24.722354	0.000975	20.895609
861.243709	-3.023600	3.647700	-11.028000	24.732177	0.000974	20.908784
862.244870	-2.985600	3.650200	-10.897000	24.746154	0.000973	20.907638
863.245382	-2.991100	3.647500	-10.909000	24.774350	0.000974	20.926448
864.245279	-3.019200	3.646500	-11.008000	24.814012	0.000974	20.890391
865.247458	-2.999200	3.648000	-10.939000	24.814212	0.000972	20.890118
866.250707	-2.971700	3.648600	-10.841000	24.826172	0.000971	20.908283
867.248611	-2.992900	3.647700	-10.916000	24.817790	0.000973	20.906509
868.251897	-2.991100	3.648300	-10.912000	24.795435	0.000974	20.898774
869.249087	-2.993500	3.647800	-10.919000	24.803690	0.000973	20.905161
870.249352	-2.987800	3.646400	-10.894000	24.808763	0.000972	20.900295
871.252350	-2.995900	3.645500	-10.920000	24.818957	0.000972	20.924274
872.249021	-2.983800	3.646000	-10.877000	24.874258	0.000971	20.902964
873.252234	-3.006100	3.646300	-10.960000	24.890343	0.000971	20.901090
874.253401	-2.995500	3.644500	-10.916000	24.886240	0.000969	20.903136
875.250223	-3.011800	3.644000	-10.974000	24.880123	0.000971	20.910272
876.251222	-3.022100	3.645000	-11.014000	24.897303	0.000970	20.900490
877.253209	-3.012100	3.643500	-10.973000	24.878332	0.000968	20.915112
878.249834	-3.016700	3.644200	-10.992000	24.895560	0.000969	20.907748
879.250855	-3.014100	3.643800	-10.982000	24.920846	0.000970	20.910841
880.256448	-2.988900	3.645400	-10.894000	24.921219	0.000969	20.897466
881.252045	-3.011600	3.642300	-10.968000	24.889866	0.000968	20.920050
882.252778	-2.987300	3.644500	-10.886000	24.883126	0.000968	20.935095
883.255692	-2.975000	3.644000	-10.839000	24.876238	0.000968	20.938612
884.256173	-2.992900	3.643300	-10.903000	24.865621	0.000966	20.929381
885.251670	-2.993500	3.643700	-10.906000	24.860670	0.000967	20.928678
886.254250	-2.987000	3.643200	-10.881000	24.897445	0.000966	20.940930
887.255135	-3.008800	3.643000	-10.960000	24.890136	0.000969	20.925536
888.251168	-3.017400	3.640900	-10.985000	24.899656	0.000964	20.940779
889.255950	-3.008600	3.642300	-10.957000	24.924744	0.000964	20.931347
890.252022	-3.005700	3.639500	-10.938000	24.947964	0.000965	20.922885
891.252245	-2.990100	3.642300	-10.890000	24.953284	0.000964	20.946714
892.252946	-2.991200	3.642400	-10.894000	24.922978	0.000963	20.924360
893.249743	-2.994700	3.640700	-10.902000	24.907409	0.000965	20.939077
894.252773	-2.984000	3.641900	-10.867000	24.910592	0.000965	20.919515
895.252879	-3.006700	3.640200	-10.943000	24.950324	0.000964	20.943743
896.251917	-2.966300	3.641200	-10.800000	24.975235	0.000962	20.914223
897.253762	-3.011300	3.638200	-10.955000	24.995347	0.000962	20.932038
898.255483	-3.008200	3.638900	-10.945000	25.003031	0.000961	20.927897
899.256792	-3.008700	3.639600	-10.950000	24.985078	0.000961	20.941170
900.253881	-3.015200	3.638200	-10.968000	24.949201	0.000962	20.948780
901.258295	-3.013700	3.638900	-10.966000	24.941269	0.000962	20.937027
902.255195	-2.978200	3.637400	-10.831000	24.945494	0.000960	20.937948
903.254121	-2.999700	3.637600	-10.911000	24.988160	0.000960	20.930040
904.254527	-3.015700	3.637200	-10.967000	24.975826	0.000961	20.918609
905.255220	-2.987400	3.637800	-10.867000	24.923365	0.000961	20.923800
906.254662	-2.983000	3.638000	-10.851000	24.946936	0.000958	20.943662
907.255609	-2.985800	3.635900	-10.855000	24.945843	0.000959	20.926446
908.255146	-2.988400	3.636200	-10.865000	24.955464	0.000960	20.931360
909.255155	-2.998400	3.635700	-10.900000	24.969609	0.000960	20.917584
910.257268	-3.008500	3.635700	-10.937000	24.950987	0.000958	20.939668
911.256759	-2.967400	3.635800	-10.788000	24.944722	0.000959	20.925795
912.259595	-2.989300	3.635500	-10.866000	24.951979	0.000956	20.946353
913.257757	-2.985700	3.635500	-10.853000	24.962968	0.000957	20.928462
914.258362	-3.006500	3.633700	-10.924000	24.961029	0.000958	20.924619
915.260107	-2.986600	3.633900	-10.851000	24.952575	0.000957	20.926565
916.256460	-2.999000	3.634900	-10.899000	24.957524	0.000957	20.912568
917.258735	-3.005700	3.634700	-10.924000	24.948198	0.000958	20.912690
918.260573	-2.984700	3.633300	-10.842000	24.970749	0.000954	20.930582
919.260332	-3.007000	3.633200	-10.924000	24.972663	0.000956	20.914013
920.259555	-2.990300	3.633400	-10.864000	24.978730	0.000956	20.899241
921.258948	-2.991500	3.633400	-10.868000	24.973084	0.000955	20.923917
922.258193	-3.010100	3.631700	-10.931000	24.944740	0.000954	20.912065
923.261274	-3.007000	3.632100	-10.920000	24.964356	0.000956	20.914683
924.259320	-2.991000	3.632000	-10.861000	24.990288	0.000953	20.905152
925.259494	-3.003400	3.631500	-10.906000	25.001175	0.000953	20.915605
926.260793	-2.981200	3.631500	-10.825000	25.025862	0.000954	20.925685
927.261936	-2.996900	3.631300	-10.881000	25.046871	0.000952	20.919273
928.261116	-2.998300	3.630100	-10.883000	25.055547	0.000951	20.910913
929.262778	-3.007700	3.629900	-10.917000	25.060540	0.000951	20.903598
930.266282	-3.014100	3.628500	-10.935000	25.083913	0.000950	20.911886
931.260110	-3.021500	3.628700	-10.962000	25.080505	0.000949	20.919844
932.261870	-2.983600	3.630600	-10.830000	25.082019	0.000950	20.908563
933.262214	-3.004100	3.628400	-10.899000	25.070682	0.000950	20.915201
934.261862	-3.022300	3.628100	-10.965000	25.095566	0.000950	20.921213
935.262240	-2.982800	3.628500	-10.822000	25.125120	0.000951	20.895882
936.264304	-3.024900	3.627300	-10.971000	25.127534	0.000948	20.904942
937.262908	-3.022400	3.626300	-10.959000	25.133202	0.000950	20.890244
938.264050	-3.011600	3.628000	-10.924000	25.133746	0.000947	20.893161
939.263595	-3.002300	3.628300	-10.891000	25.143788	0.000948	20.904190
940.263314	-3.000800	3.626800	-10.882000	25.100134	0.000947	20.887869
941.265634	-2.996600	3.626700	-10.866000	25.109707	0.000949	20.890840
942.265671	-2.979600	3.627200	-10.807000	25.118926	0.000949	20.888242
943.267015	-2.992500	3.626200	-10.851000	25.121315	0.000947	20.909130
944.268565	-2.981900	3.626900	-10.814000	25.145747	0.000947	20.894304
945.266534	-3.004000	3.625200	-10.888000	25.141348	0.000945	20.874242
946.267179	-2.979900	3.626300	-10.804000	25.165782	0.000948	20.900192
947.267512	-2.990600	3.624900	-10.839000	25.154769	0.000947	20.898144
948.270369	-2.970900	3.625100	-10.767000	25.163048	0.000945	20.899343
949.273184	-3.006200	3.623800	-10.893000	25.172541	0.000946	20.895598
950.268676	-2.980800	3.625800	-10.806000	25.153424	0.000946	20.894898
951.266728	-3.017800	3.623800	-10.934000	25.121952	0.000945	20.889856
952.269085	-3.028500	3.623900	-10.973000	25.111461	0.000946	20.890231
953.271925	-3.017600	3.622800	-10.930000	25.060026	0.000945	20.892177
954.268843	-2.999900	3.623400	-10.870000	25.066958	0.000942	20.910988
955.276533	-3.014400	3.621800	-10.916000	25.079637	0.000943	20.878674
956.273867	-3.004100	3.621600	-10.879000	25.103054	0.000941	20.876577
957.271646	-2.993800	3.622200	-10.843000	25.097512	0.000944	20.898987
958.270736	-3.003300	3.621600	-10.876000	25.120805	0.000943	20.894869
959.272434	-3.006500	3.620900	-10.884000	25.091394	0.000944	20.886682
960.269622	-3.010900	3.620000	-10.899000	25.093754	0.000941	20.880517
961.271589	-2.990200	3.621500	-10.827000	25.039285	0.000940	20.880368
962.271659	-2.984600	3.621500	-10.808000	25.008655	0.000940	20.881390
963.271259	-2.995300	3.620700	-10.844000	25.017703	0.000940	20.879566
964.272847	-3.003400	3.620900	-10.874000	25.016911	0.000940	20.871659
965.276123	-2.978200	3.622600	-10.788000	25.008203	0.000939	20.887574
966.274831	-2.996600	3.619400	-10.843000	25.006514	0.000938	20.892991
967.274038	-3.003000	3.620900	-10.872000	25.029186	0.000938	20.878291
968.275245	-3.005800	3.617500	-10.872000	25.043458	0.000938	20.888349
969.275054	-3.014000	3.619800	-10.909000	25.077989	0.000939	20.883657
970.273538	-2.982000	3.618700	-10.790000	25.102002	0.000938	20.891641
971.274776	-2.999900	3.618800	-10.855000	25.108540	0.000937	20.894411
972.273215	-2.979500	3.619600	-10.784000	25.105630	0.000933	20.870628
973.274671	-3.000800	3.619900	-10.862000	25.135463	0.000935	20.892988
974.276378	-2.995400	3.617100	-10.835000	25.147194	0.000936	20.874895
975.275655	-3.020300	3.616400	-10.921000	25.112490	0.000936	20.878937
976.277228	-2.984000	3.616900	-10.792000	25.085468	0.000935	20.875992
977.283577	-3.009500	3.616900	-10.884000	25.102249	0.000935	20.887148
978.276195	-2.994800	3.617200	-10.832000	25.096953	0.000934	20.886572
979.277591	-2.997000	3.616700	-10.838000	25.105900	0.000931	20.853831
980.278869	-3.003000	3.615400	-10.856000	25.093745	0.000933	20.859647
981.276861	-3.007700	3.615900	-10.875000	25.086732	0.000934	20.866831
982.275802	-3.001300	3.615600	-10.849000	25.088248	0.000931	20.894429
983.279579	-3.004400	3.613800	-10.856000	25.045089	0.000931	20.870073
984.275907	-3.020500	3.613400	-10.914000	25.056723	0.000930	20.877009
985.276997	-2.997300	3.614100	-10.831000	25.076586	0.000931	20.862810
986.276903	-3.018600	3.613100	-10.906000	25.105723	0.000930	20.866928
987.277755	-2.991400	3.614200	-10.810000	25.106616	0.000932	20.897694
988.277233	-2.986000	3.612700	-10.786000	25.138435	0.000928	20.875110
989.279263	-2.975400	3.612900	-10.748000	25.113550	0.000930	20.845863
990.277230	-2.996300	3.612300	-10.822000	25.084040	0.000927	20.886412
991.279203	-3.003800	3.611800	-10.849000	25.076060	0.000929	20.858963
992.281341	-2.991500	3.613700	-10.810000	25.049060	0.000929	20.869791
993.281055	-3.000200	3.611300	-10.833000	25.031656	0.000928	20.878874
994.277359	-2.987100	3.612500	-10.790000	25.032104	0.000926	20.864626
995.279107	-3.003400	3.610500	-10.843000	25.025862	0.000925	20.853619
996.281316	-3.017400	3.610700	-10.894000	25.028845	0.000927	20.880319
997.279890	-2.998600	3.610100	-10.825000	25.018228	0.000924	20.873930
998.279194	-3.001500	3.609500	-10.832000	25.007636	0.000926	20.870410
999.279247	-3.006800	3.609100	-10.852000	25.004255	0.000926	20.868439
1000.279214	-3.014600	3.609200	-10.878000	25.035033	0.000926	20.869936
1001.279308	-3.001400	3.608700	-10.829000	25.054499	0.000925	20.865768
1002.279659	-2.999500	3.609700	-10.826000	25.092235	0.000926	20.860975
1003.280195	-3.010300	3.607900	-10.859000	25.109788	0.000924	20.871009
1004.279478	-3.005500	3.607500	-10.840000	25.124549	0.000922	20.860698
1005.281510	-2.999700	3.608000	-10.821000	25.130716	0.000923	20.857880
1006.280914	-3.006100	3.607400	-10.843000	25.153761	0.000921	20.864418
1007.280263	-3.015000	3.606500	-10.871000	25.119626	0.000922	20.867135
1008.280456	-2.994300	3.608200	-10.803000	25.078261	0.000922	20.840310
1009.282709	-3.021100	3.605500	-10.892000	25.059290	0.000920	20.857302
1010.282085	-3.004800	3.606900	-10.837000	25.040324	0.000920	20.855807
1011.284727	-3.016100	3.606000	-10.875000	25.045545	0.000922	20.870056
1012.288135	-3.002700	3.604700	-10.823000	25.112593	0.000917	20.860075
1013.282314	-3.002000	3.604900	-10.821000	25.116196	0.000918	20.861795
1014.285535	-2.987100	3.606400	-10.771000	25.135734	0.000917	20.865762
1015.287894	-3.014100	3.604300	-10.861000	25.148636	0.000919	20.855954
1016.285442	-3.006100	3.604800	-10.835000	25.161959	0.000916	20.852735
1017.287678	-3.014300	3.604900	-10.866000	25.166858	0.000917	20.867609
1018.292347	-3.026100	3.602600	-10.901000	25.119300	0.000918	20.869178
1019.285634	-3.005000	3.603500	-10.828000	25.142048	0.000916	20.850764
1020.286903	-3.004600	3.602200	-10.822000	25.139338	0.000916	20.837138
1021.289728	-2.990500	3.602900	-10.773000	25.147093	0.000916	20.846820
1022.286208	-3.008800	3.602300	-10.838000	25.156364	0.000916	20.857075
1023.287679	-2.984900	3.604900	-10.760000	25.142842	0.000915	20.851561
1024.286480	-2.984600	3.603500	-10.753000	25.125787	0.000915	20.857673
1025.286204	-2.980700	3.603500	-10.740000	25.128299	0.000914	20.858298
1026.288167	-3.030500	3.601100	-10.912000	25.131677	0.000913	20.836086
1027.287331	-3.016700	3.601900	-10.865000	25.146245	0.000912	20.836960
1028.286246	-3.024000	3.600600	-10.886000	25.148431	0.000910	20.859068
1029.289066	-3.004900	3.601300	-10.820000	25.135130	0.000914	20.848561
1030.286966	-2.989200	3.601200	-10.763000	25.115194	0.000913	20.848936
1031.286806	-2.993800	3.600600	-10.778000	25.078650	0.000911	20.848288
1032.291008	-2.987300	3.600300	-10.755000	25.046605	0.000911	20.857371
1033.290078	-3.005300	3.598400	-10.814000	25.084345	0.000909	20.866331
1034.291327	-3.004700	3.598200	-10.810000	25.081930	0.000910	20.853476
1035.292285	-3.009900	3.597200	-10.826000	25.069500	0.000909	20.832939
1036.290479	-3.006100	3.599800	-10.821000	25.086404	0.000909	20.869820
1037.290203	-3.012200	3.598500	-10.839000	25.135079	0.000909	20.847087
1038.293757	-3.023500	3.596900	-10.874000	25.153899	0.000908	20.860764
1039.298265	-2.997400	3.597300	-10.781000	25.143283	0.000907	20.839677
1040.290546	-3.005100	3.596300	-10.807000	25.103484	0.000906	20.849983
1041.292181	-3.008400	3.597200	-10.820000	25.124291	0.000907	20.856172
1042.294157	-3.001300	3.597200	-10.795000	25.140350	0.000907	20.840051
1043.291021	-2.994700	3.595500	-10.766000	25.145546	0.000906	20.861861
1044.293424	-3.005500	3.597100	-10.810000	25.136722	0.000903	20.835461
1045.293074	-2.991100	3.595800	-10.754000	25.117555	0.000904	20.825229
1046.289615	-2.987600	3.596600	-10.743000	25.102441	0.000904	20.860315
1047.292037	-2.995300	3.594900	-10.767000	25.125216	0.000903	20.834341
1048.293013	-2.995800	3.595300	-10.770000	25.167375	0.000903	20.831620
1049.289452	-3.011400	3.593000	-10.819000	25.177716	0.000902	20.844372
1050.291990	-2.981200	3.595900	-10.718000	25.189151	0.000903	20.827403
1051.292274	-2.990100	3.594500	-10.747000	25.224921	0.000902	20.841029
1052.294785	-3.005700	3.592100	-10.795000	25.187909	0.000901	20.848915
1053.293539	-2.992300	3.594300	-10.754000	25.178240	0.000901	20.846321
1054.293613	-3.004300	3.594500	-10.797000	25.173517	0.000899	20.828778
1055.292418	-2.987300	3.593400	-10.733000	25.194820	0.000899	20.838310
1056.294974	-3.005500	3.592900	-10.798000	25.209884	0.000899	20.819769
1057.293272	-2.998800	3.593000	-10.773000	25.246996	0.000899	20.843277
1058.292526	-3.001100	3.590800	-10.776000	25.261339	0.000898	20.827807
1059.295091	-3.016600	3.591200	-10.832000	25.302300	0.000896	20.826732
1060.292888	-3.020700	3.590300	-10.844000	25.304564	0.000898	20.831850
1061.291313	-2.992000	3.590400	-10.741000	25.291393	0.000896	20.829531
1062.294854	-3.000600	3.590200	-10.773000	25.280679	0.000895	20.840111
1063.293909	-2.997600	3.590200	-10.761000	25.239048	0.000898	20.840987
1064.293717	-2.989200	3.590700	-10.733000	25.204945	0.000894	20.839940
1065.295664	-2.997600	3.589600	-10.758000	25.200397	0.000895	20.818779
1066.293047	-3.012200	3.589000	-10.809000	25.235346	0.000896	20.808822
1067.294142	-2.983100	3.589500	-10.707000	25.271191	0.000894	20.834853
1068.296665	-2.994500	3.588700	-10.746000	25.276163	0.000894	20.829888
1069.293579	-2.988800	3.588600	-10.725000	25.299205	0.000894	20.813193
1070.293866	-2.994600	3.590300	-10.751000	25.328011	0.000891	20.801339
1071.295659	-3.008100	3.587300	-10.790000	25.319486	0.000891	20.816487
1072.294294	-3.014600	3.587400	-10.813000	25.271368	0.000891	20.810849
1073.294596	-3.018100	3.586100	-10.822000	25.241018	0.000892	20.814516
1074.293326	-3.000300	3.586100	-10.759000	25.289910	0.000891	20.817612
1075.297070	-3.008500	3.586700	-10.789000	25.305420	0.000890	20.815641
1076.292565	-2.980900	3.586500	-10.690000	25.331220	0.000891	20.822105
1077.295194	-2.984200	3.586300	-10.701000	25.352048	0.000891	20.821206
1078.295943	-3.003500	3.586000	-10.770000	25.344366	0.000889	20.822028
1079.294169	-2.999200	3.586200	-10.755000	25.376877	0.000887	20.821481
1080.294510	-3.013300	3.585500	-10.802000	25.385326	0.000889	20.833757
1081.297291	-2.998500	3.584000	-10.745000	25.362214	0.000886	20.823353
1082.295781	-2.993400	3.585300	-10.731000	25.354085	0.000887	20.808079
1083.294440	-2.983800	3.584100	-10.692000	25.361020	0.000888	20.816939
1084.297883	-2.993100	3.583600	-10.726000	25.334948	0.000889	20.786020
1085.294560	-2.977300	3.584500	-10.671000	25.292645	0.000886	20.820357
1086.294783	-2.999800	3.582600	-10.746000	25.276961	0.000886	20.834956
1087.299370	-2.991500	3.582400	-10.716000	25.266871	0.000886	20.826248
1088.294947	-2.995400	3.582100	-10.729000	25.267617	0.000885	20.814670
1089.296898	-3.011400	3.582100	-10.786000	25.238411	0.000884	20.820908
1090.300103	-3.007000	3.581000	-10.766000	25.252752	0.000886	20.804013
1091.297036	-3.038100	3.579400	-10.873000	25.273684	0.000883	20.797054
1092.297593	-2.965400	3.583100	-10.624000	25.298289	0.000883	20.812274
1093.300310	-3.022800	3.580800	-10.822000	25.288646	0.000883	20.794532
1094.295969	-2.974900	3.581800	-10.654000	25.236398	0.000884	20.814620
1095.297144	-2.983300	3.582300	-10.686000	25.244427	0.000880	20.806559
1096.302027	-2.998000	3.581500	-10.735000	25.229687	0.000880	20.816417
1097.299613	-3.003400	3.580300	-10.752000	25.235330	0.000882	20.813547
1098.299097	-3.017600	3.579700	-10.801000	25.259937	0.000881	20.807907
1099.302159	-2.993800	3.578700	-10.714000	25.267496	0.000881	20.811703
1100.299840	-3.012500	3.579500	-10.782000	25.307909	0.000879	20.782578
1101.299613	-2.984700	3.580400	-10.684000	25.324685	0.000880	20.789465
1102.302119	-2.978200	3.579600	-10.659000	25.325679	0.000879	20.793308
1103.306507	-2.985900	3.578800	-10.686000	25.317352	0.000877	20.803913
1104.300159	-3.008000	3.577400	-10.759000	25.275173	0.000878	20.798074
1105.302324	-2.992700	3.578300	-10.707000	25.236373	0.000876	20.816492
1106.299776	-2.999100	3.576300	-10.724000	25.243653	0.000876	20.790136
1107.298969	-2.987400	3.577200	-10.686000	25.235179	0.000876	20.800120
1108.305128	-3.027500	3.575600	-10.823000	25.246437	0.000876	20.801940
1109.299605	-2.994700	3.576900	-10.710000	25.229188	0.000875	20.817813
1110.301182	-3.010000	3.575800	-10.762000	25.220140	0.000873	20.795927
1111.301834	-2.998900	3.575700	-10.721000	25.222949	0.000873	20.794954
1112.301816	-3.001700	3.575400	-10.731000	25.212532	0.000872	20.796349
1113.302838	-2.998500	3.574000	-10.715000	25.196351	0.000872	20.807131
1114.305476	-3.010000	3.574500	-10.759000	25.241515	0.000872	20.782773
1115.304106	-3.001200	3.574000	-10.725000	25.265252	0.000873	20.806131
1116.303363	-3.021800	3.574100	-10.799000	25.270073	0.000873	20.811446
1117.304004	-2.999500	3.572500	-10.714000	25.311609	0.000872	20.787715
1118.303915	-3.020000	3.572200	-10.787000	25.319538	0.000872	20.780504
1119.305062	-3.010000	3.572600	-10.753000	25.359702	0.000870	20.793331
1120.306631	-2.986200	3.571500	-10.664000	25.347449	0.000870	20.797623
1121.307502	-2.989900	3.574200	-10.686000	25.324881	0.000870	20.790610
1122.305435	-3.001400	3.572800	-10.723000	25.280838	0.000868	20.811348
1123.309066	-3.002700	3.571200	-10.722000	25.260929	0.000867	20.781402
1124.306258	-2.984900	3.572200	-10.661000	25.228864	0.000867	20.784297
1125.308860	-3.017800	3.570600	-10.774000	25.240248	0.000866	20.810425
1126.309635	-3.005000	3.570200	-10.728000	25.252925	0.000865	20.807980
1127.306894	-3.015300	3.570000	-10.764000	25.219443	0.000864	20.803762
1128.307463	-3.021300	3.568700	-10.781000	25.207688	0.000866	20.781054
1129.310274	-2.997000	3.570600	-10.700000	25.211691	0.000865	20.801669
1130.308214	-2.998400	3.570800	-10.705000	25.222976	0.000865	20.788343
1131.308916	-3.032300	3.567600	-10.817000	25.261628	0.000865	20.788268
1132.309673	-2.966800	3.570200	-10.591000	25.287852	0.000863	20.799898
1133.308963	-3.012600	3.568200	-10.746000	25.345441	0.000862	20.801770
1134.309602	-3.009900	3.568000	-10.738000	25.346909	0.000863	20.791865
1135.311403	-2.994500	3.568600	-10.684000	25.384115	0.000863	20.804568
1136.310048	-2.990200	3.568500	-10.669000	25.392889	0.000865	20.786825
1137.306730	-2.995200	3.566800	-10.682000	25.376290	0.000862	20.805719
1138.310472	-3.004500	3.566600	-10.715000	25.405715	0.000860	20.811084
1139.308845	-2.994900	3.567400	-10.683000	25.436855	0.000861	20.797308
1140.308443	-3.010400	3.565400	-10.732000	25.473485	0.000861	20.795685
1141.311066	-3.017100	3.567500	-10.763000	25.452015	0.000859	20.786927
1142.308382	-3.006000	3.564900	-10.715000	25.437577	0.000860	20.782860
1143.310770	-2.981500	3.567000	-10.634000	25.405270	0.000858	20.785032
1144.312076	-2.994200	3.565200	-10.674000	25.468667	0.000858	20.789898
1145.311748	-2.998500	3.564900	-10.689000	25.472120	0.000857	20.780564
1146.309679	-2.969000	3.565600	-10.585000	25.494735	0.000858	20.821291
1147.312082	-2.986400	3.565500	-10.647000	25.478980	0.000859	20.810212
1148.311701	-2.975800	3.564500	-10.606000	25.473688	0.000855	20.791621
1149.311417	-2.993700	3.563700	-10.667000	25.438051	0.000856	20.810363
1150.312884	-2.973200	3.564900	-10.598000	25.395999	0.000855	20.810336
1151.310005	-3.013800	3.562100	-10.735000	25.410588	0.000856	20.834942
1152.310485	-2.983200	3.561600	-10.624000	25.370077	0.000855	20.823188
1153.315003	-2.993700	3.561900	-10.662000	25.339333	0.000854	20.797534
1154.311206	-2.976200	3.561500	-10.599000	25.360732	0.000852	20.802899
1155.313653	-3.016300	3.562500	-10.743000	25.382204	0.000855	20.800752
1156.313733	-3.002100	3.560700	-10.689000	25.382777	0.000852	20.806069
1157.314123	-3.002300	3.562200	-10.694000	25.362348	0.000852	20.812583
1158.313188	-2.985400	3.561700	-10.631000	25.338362	0.000851	20.801775
1159.314021	-3.020000	3.559900	-10.750000	25.333914	0.000850	20.804895
1160.314679	-3.024700	3.560200	-10.767000	25.311595	0.000849	20.790072
1161.314342	-3.011900	3.560100	-10.720000	25.297972	0.000848	20.801524
1162.313859	-2.996500	3.559400	-10.664000	25.322555	0.000847	20.803922
1163.314828	-2.988000	3.559300	-10.635000	25.354692	0.000847	20.812007
1164.315926	-3.010200	3.558100	-10.709000	25.383942	0.000849	20.799178
1165.315202	-3.025700	3.556600	-10.760000	25.372935	0.000847	20.801402
1166.317830	-2.984400	3.558700	-10.619000	25.380290	0.000845	20.822063
1167.317342	-3.009700	3.558800	-10.709000	25.431760	0.000846	20.810210
1168.316336	-2.991200	3.558800	-10.645000	25.443812	0.000844	20.797182
1169.317682	-3.025800	3.556600	-10.761000	25.478358	0.000846	20.805793
1170.317443	-3.006800	3.557300	-10.696000	25.451916	0.000842	20.800104
1171.319370	-3.018300	3.556600	-10.734000	25.430620	0.000842	20.807168
1172.319357	-3.003300	3.556000	-10.678000	25.413772	0.000842	20.802104
1173.319206	-2.985400	3.556300	-10.616000	25.418768	0.000842	20.818974
1174.319663	-3.005500	3.556500	-10.688000	25.451349	0.000841	20.795741
1175.318434	-2.967500	3.556600	-10.553000	25.443077	0.000841	20.811616
1176.317863	-2.979100	3.554700	-10.588000	25.422550	0.000840	20.809496
1177.319078	-2.986600	3.555300	-10.617000	25.446955	0.000838	20.802235
1178.317578	-2.991700	3.555200	-10.634000	25.485003	0.000838	20.805829
1179.319922	-2.992400	3.552800	-10.629000	25.477201	0.000837	20.801313
1180.322252	-3.006300	3.552700	-10.679000	25.481775	0.000838	20.802113
1181.320197	-2.987600	3.552400	-10.613000	25.514752	0.000835	20.820530
1182.319514	-2.993700	3.553200	-10.636000	25.501064	0.000836	20.792085
1183.320204	-2.987300	3.551300	-10.607000	25.503402	0.000836	20.804390
1184.325250	-2.993300	3.553000	-10.635000	25.481433	0.000836	20.799873
1185.319361	-3.008400	3.552200	-10.686000	25.525321	0.000834	20.803169
1186.321769	-3.007800	3.550900	-10.679000	25.548209	0.000833	20.800076
1187.324261	-2.983700	3.552000	-10.596000	25.565977	0.000832	20.810807
1188.322665	-2.989800	3.552000	-10.619000	25.578528	0.000833	20.820094
1189.323673	-3.002700	3.550100	-10.659000	25.598182	0.000831	20.813754
1190.327037	-3.004600	3.549900	-10.665000	25.588148	0.000830	20.810789
1191.322631	-2.985900	3.550000	-10.600000	25.606957	0.000830	20.821618
1192.323311	-2.967000	3.549900	-10.532000	25.593492	0.000829	20.827535
1193.322530	-2.973600	3.551000	-10.558000	25.591629	0.000830	20.807172
1194.323619	-3.000200	3.548600	-10.645000	25.570410	0.000828	20.809095
1195.324393	-2.993600	3.549200	-10.624000	25.553042	0.000828	20.819154
1196.323050	-3.011500	3.547300	-10.680000	25.585695	0.000829	20.824446
1197.324183	-3.002300	3.547900	-10.651000	25.583859	0.000827	20.810748
1198.322513	-2.998900	3.547200	-10.636000	25.615589	0.000828	20.811796
1199.322733	-2.979900	3.547000	-10.569000	25.593674	0.000826	20.830089
1200.324606	-2.984200	3.548000	-10.587000	25.569376	0.000828	20.816591
1201.325581	-2.985800	3.548500	-10.593000	25.575491	0.000826	20.821784
1202.330654	-2.986100	3.546900	-10.590000	25.610032	0.000825	20.817594
1203.324337	-2.996100	3.547200	-10.627000	25.598078	0.000826	20.818391
1204.323903	-3.017100	3.544200	-10.691000	25.629438	0.000824	20.798678
1205.326670	-2.989600	3.546600	-10.602000	25.641515	0.000825	20.823135
1206.327235	-3.016000	3.544600	-10.689000	25.642014	0.000825	20.827903
1207.327831	-2.985600	3.545800	-10.585000	25.628572	0.000823	20.817722
1208.327076	-3.011500	3.544700	-10.674000	25.619879	0.000822	20.827009
1209.329016	-2.993100	3.544500	-10.609000	25.602757	0.000822	20.835417
1210.330821	-3.024000	3.542500	-10.711000	25.613914	0.000822	20.828131
1211.330897	-2.990600	3.544100	-10.599000	25.625445	0.000823	20.824065
1212.329633	-2.987000	3.543300	-10.583000	25.634764	0.000824	20.833897
1213.329355	-3.006200	3.542500	-10.648000	25.669773	0.000822	20.839662
1214.330243	-3.004500	3.541300	-10.637000	25.673028	0.000822	20.821595
1215.337215	-3.014400	3.542000	-10.675000	25.676804	0.000821	20.824440
1216.332008	-2.996300	3.542300	-10.613000	25.698097	0.000821	20.819748
1217.335332	-2.994700	3.542200	-10.607000	25.681874	0.000821	20.823367
1218.331619	-2.986300	3.541600	-10.575000	25.676609	0.000819	20.836097
1219.334071	-3.001800	3.541900	-10.631000	25.674147	0.000819	20.845952
1220.335048	-2.985700	3.541400	-10.572000	25.670146	0.000819	20.841933
1221.332334	-2.987800	3.540900	-10.578000	25.667513	0.000818	20.829806
1222.335607	-2.973900	3.540000	-10.527000	25.659486	0.000816	20.815106
1223.334954	-2.984500	3.540800	-10.566000	25.666646	0.000816	20.836995
1224.334501	-2.988100	3.540000	-10.577000	25.647883	0.000816	20.836169
1225.338372	-2.978800	3.540300	-10.544000	25.629993	0.000814	20.837167
1226.340821	-2.988300	3.539000	-10.573000	25.612898	0.000815	20.830904
1227.337145	-3.001700	3.538900	-10.621000	25.569614	0.000813	20.841012
1228.338410	-3.020100	3.535900	-10.678000	25.587604	0.000815	20.839165
1229.338875	-3.006900	3.536300	-10.632000	25.567975	0.000813	20.851693
1230.334818	-3.004000	3.536700	-10.623000	25.568670	0.000812	20.821098
1231.342557	-3.023600	3.536400	-10.691000	25.536513	0.000813	20.836218
1232.339151	-3.010700	3.536300	-10.645000	25.480776	0.000812	20.858954
1233.337350	-2.996900	3.536200	-10.596000	25.457367	0.000810	20.838293
1234.337723	-3.028300	3.534600	-10.703000	25.482217	0.000812	20.839066
1235.338906	-2.991300	3.535600	-10.575000	25.529831	0.000810	20.838517
1236.336362	-3.013900	3.535100	-10.654000	25.526080	0.000807	20.844234
1237.340076	-2.986600	3.535200	-10.557000	25.512910	0.000809	20.850921
1238.338109	-3.007600	3.534400	-10.629000	25.511889	0.000807	20.838517
1239.337024	-3.012900	3.535100	-10.648000	25.531173	0.000808	20.834649
1240.339925	-3.025800	3.532700	-10.688000	25.551102	0.000808	20.852292
1241.338816	-2.988500	3.533900	-10.559000	25.582013	0.000809	20.840662
1242.337369	-2.987700	3.532500	-10.554000	25.606988	0.000806	20.878071
1243.340785	-2.998800	3.533700	-10.596000	25.590138	0.000805	20.847399
1244.338697	-2.999700	3.532900	-10.596000	25.555821	0.000806	20.834746
1245.337474	-2.981800	3.532600	-10.532000	25.537906	0.000807	20.853739
1246.338307	-2.973100	3.532300	-10.501000	25.526822	0.000807	20.858254
1247.339326	-2.982400	3.531500	-10.531000	25.515565	0.000805	20.844579
1248.338168	-3.011900	3.531500	-10.635000	25.534001	0.000805	20.869256
1249.339493	-3.018400	3.531300	-10.658000	25.550427	0.000804	20.855881
1250.343359	-2.992000	3.531400	-10.565000	25.607307	0.000803	20.831452
1251.339969	-2.997700	3.531100	-10.584000	25.627084	0.000802	20.855107
1252.340563	-2.991000	3.531400	-10.561000	25.599403	0.000803	20.857652
1253.342422	-2.983600	3.529800	-10.530000	25.613094	0.000800	20.839160
1254.342549	-3.015600	3.530000	-10.643000	25.598060	0.000801	20.883329
1255.344614	-2.983100	3.529700	-10.529000	25.598582	0.000801	20.887171
1256.343007	-2.993000	3.528200	-10.558000	25.549903	0.000801	20.858674
1257.342923	-2.999200	3.528700	-10.582000	25.512579	0.000800	20.856753
1258.345242	-2.998800	3.529800	-10.583000	25.476393	0.000798	20.846968
1259.341541	-3.004100	3.528100	-10.598000	25.477538	0.000799	20.856177
1260.344367	-3.010100	3.525800	-10.612000	25.474954	0.000797	20.875867
1261.346953	-3.008700	3.526800	-10.610000	25.491676	0.000798	20.867055
1262.347035	-3.029200	3.525000	-10.677000	25.464441	0.000797	20.850138
1263.347610	-3.001900	3.527200	-10.587000	25.458003	0.000798	20.848889
1264.347565	-3.004800	3.526200	-10.594000	25.441875	0.000798	20.864935
1265.347263	-3.015100	3.524800	-10.627000	25.431188	0.000798	20.853256
1266.347549	-2.994800	3.526500	-10.560000	25.471645	0.000796	20.863535
1267.347902	-2.994500	3.524900	-10.555000	25.502934	0.000794	20.870774
1268.350404	-2.995700	3.524900	-10.558000	25.532803	0.000794	20.855726
1269.349220	-2.966100	3.526200	-10.457000	25.546967	0.000794	20.866157
1270.351328	-3.000200	3.523300	-10.569000	25.564162	0.000793	20.882949
1271.351365	-3.016400	3.523700	-10.627000	25.588438	0.000794	20.870821
1272.352551	-3.021600	3.521700	-10.640000	25.609211	0.000794	20.868450
1273.353743	-2.992900	3.524200	-10.546000	25.610428	0.000794	20.885792
1274.353284	-3.001200	3.522500	-10.571000	25.587096	0.000792	20.887490
1275.362226	-2.998300	3.521900	-10.557000	25.586201	0.000794	20.851980
1276.355643	-2.997300	3.522400	-10.557000	25.567561	0.000789	20.863605
1277.355602	-2.998800	3.522900	-10.564000	25.591145	0.000790	20.883496
1278.356567	-2.998400	3.521200	-10.557000	25.653857	0.000789	20.883891
1279.358135	-2.991300	3.521900	-10.534000	25.647348	0.000789	20.857442
1280.356208	-2.996300	3.520500	-10.547000	25.663098	0.000789	20.879423
1281.356133	-3.005200	3.520500	-10.578000	25.643619	0.000788	20.882144
1282.357841	-2.971100	3.519500	-10.456000	25.619690	0.000786	20.872336
1283.358167	-2.988400	3.519500	-10.517000	25.587685	0.000788	20.866746
1284.357909	-2.998900	3.517500	-10.547000	25.585794	0.000787	20.898035
1285.358419	-2.987500	3.520300	-10.515000	25.609277	0.000787	20.869938
1286.358802	-3.005800	3.517300	-10.571000	25.609301	0.000786	20.892247
1287.360589	-3.003100	3.517400	-10.562000	25.618941	0.000785	20.886282
1288.360553	-2.995800	3.518800	-10.540000	25.609225	0.000784	20.889799
1289.360917	-3.013300	3.516300	-10.594000	25.624258	0.000784	20.879294
1290.360439	-3.013600	3.517200	-10.599000	25.620108	0.000784	20.897410
1291.361551	-3.007000	3.515600	-10.571000	25.638570	0.000783	20.881814
1292.363859	-2.980000	3.517100	-10.479000	25.618096	0.000780	20.894441
1293.362111	-2.977800	3.517200	-10.472000	25.640110	0.000781	20.897584
1294.364866	-2.990500	3.515000	-10.511000	25.661379	0.000783	20.896186
1295.365314	-3.018800	3.515700	-10.612000	25.660707	0.000782	20.883184
1296.362604	-3.006400	3.515600	-10.568000	25.683092	0.000781	20.883383
1297.368419	-2.999100	3.514100	-10.537000	25.701604	0.000780	20.895338
1298.364304	-3.007100	3.515700	-10.571000	25.670769	0.000780	20.886652
1299.364624	-3.009900	3.513500	-10.574000	25.655041	0.000779	20.913054
1300.364784	-3.002000	3.514400	-10.549000	25.611631	0.000777	20.902172
1301.365488	-2.999900	3.515200	-10.544000	25.601392	0.000778	20.902795
1302.365764	-3.021500	3.512100	-10.610000	25.602085	0.000778	20.905387
1303.372260	-2.988200	3.512000	-10.493000	25.597789	0.000775	20.915295
1304.367019	-2.998000	3.512100	-10.528000	25.619306	0.000775	20.912724
1305.370923	-2.968500	3.513500	-10.428000	25.623006	0.000775	20.906484
1306.373739	-3.007500	3.511300	-10.559000	25.645642	0.000774	20.923527
1307.368767	-2.987700	3.510900	-10.488000	25.660327	0.000775	20.925947
1308.367914	-3.011800	3.510500	-10.572000	25.655035	0.000774	20.887919
1309.382259	-3.029300	3.510500	-10.633000	25.669645	0.000775	20.904488
1310.372214	-2.986400	3.510400	-10.483000	25.665742	0.000775	20.902939
1311.369579	-2.969800	3.510800	-10.425000	25.656649	0.000772	20.894755
1312.376163	-3.005300	3.509000	-10.545000	25.676650	0.000772	20.912945
1313.372888	-2.996000	3.508900	-10.511000	25.706094	0.000772	20.908854
1314.370475	-2.992800	3.509600	-10.503000	25.737623	0.000771	20.920608
1315.371974	-3.000200	3.508000	-10.524000	25.746718	0.000770	20.908882
1316.372114	-3.004700	3.508400	-10.541000	25.724059	0.000768	20.924527
1317.372182	-3.010600	3.508600	-10.562000	25.719388	0.000768	20.925999
1318.382791	-2.971100	3.508100	-10.420000	25.714470	0.000767	20.892139
1319.374343	-3.029700	3.505600	-10.620000	25.721751	0.000769	20.926475
1320.371379	-2.989500	3.506000	-10.481000	25.748608	0.000766	20.915995
1321.376850	-2.985500	3.505700	-10.464000	25.793180	0.000767	20.932316
1322.376602	-3.006100	3.505600	-10.537000	25.812509	0.000767	20.920438
1323.371800	-3.010200	3.505700	-10.552000	25.826869	0.000765	20.911631
1324.375000	-2.977500	3.506100	-10.438000	25.830198	0.000767	20.914027
1325.373963	-2.990900	3.505300	-10.483000	25.830769	0.000766	20.911281
1326.372272	-2.969700	3.505100	-10.407000	25.817977	0.000763	20.921664
1327.379541	-3.003800	3.504000	-10.524000	25.785010	0.000764	20.909412
1328.376558	-2.985800	3.503400	-10.459000	25.774202	0.000763	20.936485
1329.373659	-2.992400	3.502700	-10.479000	25.738623	0.000764	20.956695
1330.377323	-2.980900	3.503300	-10.442000	25.765332	0.000762	20.926629
1331.377226	-3.021700	3.500900	-10.577000	25.751794	0.000762	20.917772
1332.374476	-2.997900	3.501800	-10.496000	25.765607	0.000761	20.912681
1333.378218	-3.003700	3.501800	-10.518000	25.746628	0.000762	20.928703
1334.378592	-2.977600	3.503000	-10.429000	25.726228	0.000762	20.922438
1335.375625	-2.997600	3.501200	-10.494000	25.741584	0.000761	20.917948
1336.377456	-2.985100	3.500300	-10.448000	25.762030	0.000760	20.940380
1337.378430	-3.000700	3.500100	-10.502000	25.795446	0.000760	20.930324
1338.375670	-3.039700	3.499000	-10.634000	25.801807	0.000758	20.914431
1339.377705	-2.996500	3.500500	-10.488000	25.848186	0.000759	20.885632
1340.377492	-2.994400	3.499200	-10.476000	25.836734	0.000758	20.929600
1341.376236	-3.005200	3.500000	-10.517000	25.817159	0.000758	20.924635
1342.378613	-3.027700	3.497000	-10.587000	25.817856	0.000757	20.938610
1343.377251	-3.005000	3.499200	-10.514000	25.857157	0.000758	20.931622
1344.377506	-2.997200	3.498900	-10.486000	25.838027	0.000758	20.940380
1345.378039	-3.008000	3.496600	-10.517000	25.816489	0.000756	20.927281
1346.380918	-2.994700	3.497400	-10.473000	25.813010	0.000757	20.948439
1347.378903	-2.993900	3.497300	-10.469000	25.809955	0.000755	20.927830
1348.379197	-3.018100	3.496200	-10.551000	25.802007	0.000754	20.946396
1349.379026	-3.007300	3.496200	-10.513000	25.773584	0.000755	20.921642
1350.381594	-3.011500	3.496300	-10.528000	25.770851	0.000755	20.935964
1351.378402	-2.998200	3.494500	-10.475000	25.777385	0.000754	20.945371
1352.378944	-3.005900	3.494800	-10.503000	25.768616	0.000754	20.952684
1353.379191	-2.992000	3.495300	-10.456000	25.785288	0.000752	20.938612
1354.380783	-3.000200	3.494600	-10.483000	25.769212	0.000752	20.934318
1355.378716	-2.986900	3.495300	-10.439000	25.778853	0.000753	20.957749
1356.378743	-3.003300	3.494000	-10.493000	25.752045	0.000751	20.937463
1357.380011	-3.008600	3.492500	-10.507000	25.738232	0.000752	20.943028
1358.380777	-3.002900	3.492100	-10.485000	25.738704	0.000751	20.925960
1359.381895	-2.979800	3.493000	-10.408000	25.737461	0.000749	20.933246
1360.382627	-2.983600	3.493100	-10.421000	25.713660	0.000751	20.934469
1361.382227	-2.987800	3.492200	-10.433000	25.703920	0.000749	20.936540
1362.382814	-3.000600	3.490100	-10.472000	25.690353	0.000749	20.934293
1363.383001	-2.997300	3.489800	-10.458000	25.706006	0.000747	20.947168
1364.383645	-3.019900	3.489700	-10.537000	25.694080	0.000749	20.933295
1365.383885	-3.006300	3.490700	-10.493000	25.670301	0.000748	20.915103
1366.382863	-2.994400	3.488500	-10.444000	25.633406	0.000747	20.918350
1367.384814	-2.989300	3.488800	-10.428000	25.605225	0.000744	20.937461
1368.386080	-2.985800	3.489600	-10.417000	25.600781	0.000746	20.923041
1369.384174	-2.988700	3.488200	-10.423000	25.608332	0.000746	20.928254
1370.384499	-2.983600	3.488300	-10.406000	25.660711	0.000746	20.912110
1371.383848	-3.011100	3.487600	-10.501000	25.685731	0.000745	20.923014
1372.382734	-3.000100	3.487100	-10.461000	25.694827	0.000744	20.934045
1373.384386	-3.011200	3.486600	-10.498000	25.708739	0.000743	20.922416
1374.383951	-2.995800	3.485800	-10.441000	25.726080	0.000744	20.945520
1375.386733	-3.004100	3.487300	-10.475000	25.696439	0.000743	20.912433
1376.386120	-2.989400	3.487500	-10.424000	25.725311	0.000743	20.922940
1377.384849	-2.994900	3.485900	-10.438000	25.738104	0.000741	20.927254
1378.386421	-3.009300	3.485800	-10.489000	25.723045	0.000740	20.912604
1379.385845	-2.987500	3.485000	-10.410000	25.744564	0.000739	20.908141
1380.393384	-2.996400	3.484700	-10.439000	25.713357	0.000740	20.913778
1381.384471	-3.001800	3.484500	-10.459000	25.731569	0.000739	20.917846
1382.385664	-3.003200	3.483300	-10.460000	25.711071	0.000739	20.926179
1383.388692	-3.002200	3.484800	-10.462000	25.705828	0.000738	20.917122
1384.384570	-2.998100	3.484900	-10.447000	25.675418	0.000737	20.910760
1385.386681	-2.998700	3.484200	-10.446000	25.650943	0.000738	20.916049
1386.386599	-3.032200	3.481300	-10.555000	25.644730	0.000737	20.921662
1387.387169	-3.008900	3.482400	-10.477000	25.663811	0.000735	20.911904
1388.386876	-3.001100	3.479900	-10.442000	25.658047	0.000735	20.915598
1389.389086	-2.997700	3.482000	-10.437000	25.687492	0.000736	20.896336
1390.386925	-2.999800	3.480400	-10.439000	25.685529	0.000734	20.911433
1391.386811	-2.991500	3.481500	-10.414000	25.721281	0.000736	20.885704
1392.388823	-2.987400	3.481900	-10.400000	25.727418	0.000733	20.915099
1393.387208	-3.013200	3.479500	-10.483000	25.751967	0.000735	20.915575
1394.388993	-3.025800	3.479000	-10.525000	25.762051	0.000732	20.908635
1395.390632	-3.009100	3.478700	-10.465000	25.775243	0.000733	20.896284
1396.390976	-3.009300	3.477900	-10.465000	25.799069	0.000731	20.892716
1397.390576	-2.998300	3.477900	-10.427000	25.782225	0.000731	20.899977
1398.391344	-2.993600	3.479400	-10.416000	25.751989	0.000732	20.898530
1399.391822	-3.019100	3.478400	-10.500000	25.746322	0.000732	20.898528
1400.393823	-2.998500	3.477300	-10.426000	25.758521	0.000730	20.888497
1401.393356	-3.030100	3.475200	-10.529000	25.714519	0.000729	20.920635
1402.393373	-2.994400	3.477900	-10.412000	25.723565	0.000730	20.884205
1403.393052	-3.018800	3.476500	-10.494000	25.725152	0.000728	20.895281
1404.394628	-2.993200	3.475300	-10.400000	25.743811	0.000729	20.906911
1405.406904	-3.007200	3.475600	-10.451000	25.756955	0.000726	20.880760
1406.418403	-3.012700	3.474300	-10.467000	25.776504	0.000728	20.908929
1407.407235	-3.004200	3.473500	-10.433000	25.765326	0.000726	20.882056
1408.414908	-3.003400	3.474100	-10.433000	25.723610	0.000728	20.901793
1409.420358	-3.006800	3.473500	-10.443000	25.710542	0.000726	20.897203
1410.423261	-3.002100	3.472400	-10.424000	25.727036	0.000724	20.898596
1411.411266	-2.992500	3.472300	-10.390000	25.721796	0.000727	20.899971
1412.409223	-2.976200	3.472000	-10.332000	25.757447	0.000725	20.904960
1413.419164	-3.012300	3.472600	-10.459000	25.792801	0.000724	20.899221
1414.418320	-3.008600	3.470100	-10.439000	25.794289	0.000723	20.886966
1415.409984	-2.993200	3.471300	-10.390000	25.835083	0.000720	20.903287
1416.421642	-3.014700	3.470000	-10.460000	25.839825	0.000723	20.894776
1417.413495	-3.016600	3.469800	-10.466000	25.865610	0.000724	20.906927
1418.413063	-3.003500	3.469600	-10.419000	25.851747	0.000723	20.890157
1419.417385	-2.984900	3.470100	-10.357000	25.846434	0.000721	20.902362
1420.418619	-3.014600	3.469400	-10.457000	25.799576	0.000720	20.866674
1421.415857	-2.997500	3.469100	-10.398000	25.846254	0.000721	20.902655
1422.416027	-2.994600	3.469700	-10.389000	25.834330	0.000720	20.900635
1423.417626	-2.987500	3.469000	-10.362000	25.874253	0.000721	20.901384
1424.414647	-2.980400	3.467600	-10.333000	25.862525	0.000720	20.896715
1425.422381	-2.999200	3.468300	-10.401000	25.854004	0.000719	20.910914
1426.424988	-3.001700	3.467800	-10.408000	25.856861	0.000717	20.873484
1427.418453	-2.993900	3.468100	-10.381000	25.799025	0.000717	20.871337
1428.416656	-2.980500	3.468000	-10.335000	25.787373	0.000716	20.884287
1429.428482	-2.995200	3.466200	-10.381000	25.736664	0.000719	20.898784
1430.428302	-3.041300	3.464400	-10.534000	25.729336	0.000717	20.892372
1431.418135	-3.020900	3.464100	-10.463000	25.715322	0.000716	20.903899
1432.423107	-3.015200	3.464000	-10.443000	25.743345	0.000715	20.893167
1433.422284	-3.003700	3.464200	-10.404000	25.801579	0.000716	20.877695
1434.421413	-2.999800	3.465000	-10.393000	25.824162	0.000716	20.878094
1435.421693	-3.018600	3.462900	-10.452000	25.790994	0.000715	20.876545
1436.433094	-3.012300	3.462300	-10.428000	25.793948	0.000714	20.883305
1437.425184	-3.013600	3.460900	-10.429000	25.795834	0.000713	20.878088
1438.416560	-3.006000	3.462400	-10.407000	25.784082	0.000714	20.879086
1439.426920	-3.014700	3.462700	-10.438000	25.780852	0.000712	20.887220
1440.429547	-3.006500	3.462400	-10.408000	25.770292	0.000711	20.871398
1441.421136	-2.995200	3.461000	-10.365000	25.731658	0.000712	20.887593
1442.418528	-3.013400	3.458800	-10.422000	25.733596	0.000712	20.870100
1443.419837	-2.999400	3.460200	-10.378000	25.760179	0.000712	20.873094
1444.427655	-2.992900	3.460000	-10.354000	25.765842	0.000711	20.893005
1445.422183	-3.009500	3.459400	-10.410000	25.820101	0.000709	20.864533
1446.428187	-3.011300	3.459500	-10.416000	25.855005	0.000710	20.895800
1447.422503	-3.004500	3.459500	-10.393000	25.869709	0.000708	20.869321
1448.431795	-2.975800	3.460500	-10.297000	25.899370	0.000708	20.881574
1449.420462	-3.031400	3.456300	-10.476000	25.906151	0.000706	20.874636
1450.425377	-3.009300	3.458800	-10.407000	25.903964	0.000708	20.873388
1451.424036	-3.006300	3.457300	-10.393000	25.916832	0.000708	20.867348
1452.421269	-2.980000	3.459000	-10.307000	25.912260	0.000707	20.876980
1453.422743	-2.992400	3.456300	-10.342000	25.893158	0.000706	20.877230
1454.420247	-3.002800	3.455500	-10.376000	25.910768	0.000705	20.854619
1455.424905	-2.994200	3.456700	-10.349000	25.927114	0.000705	20.878626
1456.420556	-2.991700	3.457400	-10.343000	25.893253	0.000705	20.874007
1457.419239	-3.014900	3.454900	-10.416000	25.884858	0.000704	20.872212
1458.433485	-2.995700	3.455400	-10.350000	25.887515	0.000704	20.861605
1459.421807	-3.010000	3.454100	-10.394000	25.914094	0.000703	20.880245
1460.434707	-3.007200	3.453400	-10.384000	25.936947	0.000702	20.877125
1461.424570	-2.997100	3.454500	-10.353000	25.935131	0.000702	20.874352
1462.426244	-3.000900	3.453500	-10.363000	25.938237	0.000700	20.869412
1463.435344	-2.995900	3.453600	-10.346000	25.902614	0.000702	20.862075
1464.431338	-2.994300	3.453800	-10.340000	25.902789	0.000699	20.877423
1465.425927	-2.999700	3.452100	-10.355000	25.895087	0.000699	20.875375
1466.427763	-3.000600	3.453300	-10.359000	25.887632	0.000701	20.851766
1467.427619	-2.987800	3.452800	-10.315000	25.887135	0.000698	20.873077
1468.427294	-2.973100	3.452000	-10.262000	25.934808	0.000699	20.866441
1469.440314	-3.016300	3.450900	-10.407000	25.912771	0.000700	20.854261
1470.420942	-2.989100	3.450700	-10.314000	25.884501	0.000699	20.885129
1471.440597	-2.992900	3.450400	-10.326000	25.860627	0.000698	20.859725
1472.425394	-2.998900	3.448600	-10.341000	25.863185	0.000699	20.891216
1473.421244	-3.006000	3.449200	-10.368000	25.872699	0.000697	20.858576
1474.436248	-3.012600	3.447500	-10.383000	25.913241	0.000697	20.849517
1475.436779	-3.003300	3.448400	-10.355000	25.866465	0.000696	20.875071
1476.425782	-2.989900	3.449700	-10.313000	25.896474	0.000696	20.845476
1477.427078	-2.977400	3.449200	-10.268000	25.877642	0.000695	20.877764
1478.427334	-3.003400	3.447700	-10.354000	25.907923	0.000694	20.852710
1479.428594	-3.006000	3.447600	-10.362000	25.936193	0.000695	20.858350
1480.426002	-2.992200	3.447600	-10.315000	25.929286	0.000694	20.861369
1481.434795	-2.993700	3.447400	-10.320000	25.919968	0.000692	20.852956
1482.427766	-2.989900	3.446200	-10.302000	25.909440	0.000693	20.849493
1483.423171	-3.002300	3.444200	-10.340000	25.906182	0.000694	20.860443
1484.437430	-3.012400	3.445500	-10.378000	25.932911	0.000691	20.848416
1485.425456	-2.996500	3.445800	-10.325000	25.922777	0.000693	20.872847
1486.422237	-3.011300	3.442900	-10.367000	25.933385	0.000691	20.872599
1487.427936	-2.999100	3.442900	-10.325000	25.943818	0.000690	20.847045
1488.425885	-3.041900	3.441800	-10.468000	25.956040	0.000689	20.847944
1489.424983	-3.012700	3.442900	-10.371000	25.968259	0.000689	20.868754
1490.438920	-3.017900	3.443700	-10.391000	25.997174	0.000690	20.852286
1491.427177	-2.989400	3.442300	-10.290000	25.976781	0.000687	20.855505
1492.426301	-3.020800	3.441600	-10.394000	25.955891	0.000688	20.864389
1493.439993	-3.010400	3.442700	-10.363000	25.975466	0.000687	20.866037
1494.427670	-3.013300	3.441600	-10.370000	25.951271	0.000687	20.859273
1495.427386	-2.994800	3.440800	-10.303000	25.972610	0.000686	20.856530
1496.432373	-2.990100	3.442300	-10.292000	25.962225	0.000684	20.849890
1497.432321	-2.986600	3.440200	-10.273000	25.959121	0.000686	20.850091
1498.428676	-3.004600	3.439800	-10.334000	25.972558	0.000685	20.860271
1499.431798	-3.015300	3.440200	-10.372000	25.974994	0.000684	20.857977
1500.433389	-2.998400	3.439300	-10.312000	25.978298	0.000685	20.861296
1501.430895	-3.024700	3.439100	-10.401000	25.962921	0.000683	20.867184
1502.438478	-2.988900	3.439200	-10.277000	25.973605	0.000684	20.838091
1503.428112	-3.008200	3.437200	-10.339000	25.985105	0.000685	20.849644
1504.428624	-2.995900	3.438000	-10.299000	26.025541	0.000683	20.842855
1505.435037	-2.988200	3.438200	-10.273000	26.008976	0.000681	20.832850
1506.433344	-2.995000	3.439300	-10.299000	25.975765	0.000681	20.824140
1507.442883	-3.009300	3.436000	-10.337000	25.937064	0.000682	20.838364
1508.438641	-2.976100	3.436600	-10.227000	25.916201	0.000681	20.846801
1509.441248	-2.999600	3.436700	-10.308000	25.883234	0.000680	20.848770
1510.436730	-2.976800	3.437200	-10.230000	25.890165	0.000680	20.843880
1511.447735	-3.025300	3.434700	-10.390000	25.865871	0.000678	20.840337
1512.439416	-3.010200	3.433700	-10.335000	25.857600	0.000680	20.829658
1513.435616	-2.997500	3.433000	-10.290000	25.856332	0.000678	20.845927
1514.434767	-2.992100	3.433000	-10.271000	25.895036	0.000676	20.836919
1515.437378	-2.986400	3.433500	-10.252000	25.914436	0.000679	20.856882
1516.440959	-3.008700	3.431100	-10.323000	25.946083	0.000678	20.845528
1517.435143	-3.003500	3.431700	-10.306000	25.971720	0.000675	20.841412
1518.447179	-2.996900	3.432000	-10.284000	25.951549	0.000675	20.837743
1519.441194	-3.017500	3.430400	-10.350000	25.948047	0.000674	20.843708
1520.448058	-3.002000	3.432900	-10.303000	25.939055	0.000676	20.849847
1521.447653	-3.010300	3.430700	-10.327000	25.933888	0.000674	20.845604
1522.447677	-3.024000	3.429700	-10.370000	25.890095	0.000673	20.842387
1523.451204	-3.017000	3.430900	-10.349000	25.853302	0.000672	20.838617
1524.443163	-2.970900	3.431400	-10.193000	25.814125	0.000672	20.831030
1525.423866	-2.988600	3.430700	-10.252000	25.793059	0.000672	20.824568
1526.425083	-2.969800	3.431000	-10.188000	25.769605	0.000672	20.823769
1527.426468	-3.001000	3.429500	-10.291000	25.764761	0.000672	20.839766
1528.426877	-3.016000	3.429500	-10.342000	25.718723	0.000670	20.829558
1529.426180	-2.999700	3.428500	-10.284000	25.791742	0.000669	20.848849
1530.425990	-3.005300	3.429000	-10.303000	25.826004	0.000671	20.831583
1531.428963	-2.966200	3.428200	-10.167000	25.853875	0.000667	20.833503
1532.426005	-2.960200	3.429300	-10.149000	25.865354	0.000669	20.841240
1533.442021	-2.969600	3.426700	-10.175000	25.951005	0.000667	20.817282
1534.451675	-2.997400	3.426600	-10.269000	25.981435	0.000668	20.818456
1535.446380	-2.997900	3.426900	-10.272000	25.959006	0.000667	20.817734
1536.430271	-2.978400	3.426700	-10.205000	25.959302	0.000667	20.809497
1537.430802	-2.979500	3.424200	-10.202000	25.950360	0.000667	20.839393
1538.430951	-3.008300	3.424900	-10.302000	25.897699	0.000664	20.811620
1539.431934	-3.016600	3.424900	-10.331000	25.916230	0.000665	20.841141
1540.431294	-3.026800	3.422800	-10.359000	25.888956	0.000664	20.813742
1541.431199	-3.004400	3.423700	-10.285000	25.894545	0.000665	20.836426
1542.430632	-2.996400	3.423000	-10.255000	25.921970	0.000665	20.799967
1543.431575	-2.989200	3.425000	-10.237000	25.926292	0.000663	20.802886
1544.433483	-2.974300	3.424500	-10.183000	25.953021	0.000662	20.827842
1545.434027	-2.987900	3.423300	-10.228000	25.946883	0.000664	20.820254
1546.432462	-2.997300	3.423200	-10.259000	25.904208	0.000664	20.814839
1547.431667	-2.986100	3.421000	-10.213000	25.874223	0.000662	20.825968
1548.433184	-3.028800	3.420500	-10.360000	25.874522	0.000664	20.838122
1549.433058	-3.009600	3.419600	-10.290000	25.874472	0.000663	20.797296
1550.434833	-3.009600	3.419100	-10.289000	25.924379	0.000661	20.818034
1551.436061	-3.001500	3.419200	-10.262000	25.933297	0.000662	20.802812
1552.433739	-3.004900	3.419100	-10.273000	25.949467	0.000661	20.817634
1553.438197	-3.016900	3.418100	-10.310000	25.941395	0.000661	20.820430
1554.458671	-2.978100	3.420100	-10.184000	25.937345	0.000661	20.810671
1555.435216	-2.999400	3.418300	-10.252000	25.908305	0.000661	20.810895
1556.438549	-2.992500	3.418500	-10.229000	25.916852	0.000659	20.803834
1557.435091	-2.996600	3.419400	-10.246000	25.934985	0.000657	20.815413
1558.437102	-3.023800	3.417200	-10.332000	25.966085	0.000657	20.811570
1559.439435	-3.023900	3.416200	-10.330000	25.936920	0.000656	20.808348
1560.436927	-3.019900	3.416200	-10.315000	25.924750	0.000656	20.832157
1561.436591	-3.006100	3.415300	-10.266000	25.940174	0.000656	20.791703
1562.437527	-2.978200	3.416900	-10.175000	25.939999	0.000655	20.795794
1563.463896	-3.011300	3.414100	-10.280000	25.923928	0.000655	20.806675
1564.436913	-3.010400	3.415000	-10.278000	25.908824	0.000655	20.819477
1565.436853	-3.008400	3.414900	-10.272000	25.904801	0.000655	20.811168
1566.438895	-3.016600	3.413900	-10.298000	25.882692	0.000654	20.807449
1567.455018	-3.043300	3.412300	-10.383000	25.889372	0.000651	20.810367
1568.460170	-3.008000	3.413500	-10.266000	25.906736	0.000652	20.803629
1569.466771	-3.012900	3.412200	-10.280000	25.924620	0.000652	20.826811
1570.453080	-3.014300	3.413800	-10.289000	25.925069	0.000650	20.795968
1571.459894	-3.000100	3.412300	-10.236000	25.926634	0.000650	20.799911
1572.464695	-3.014000	3.411300	-10.281000	25.948119	0.000650	20.820547
1573.454762	-2.980000	3.412900	-10.169000	25.993328	0.000649	20.827086
1574.464110	-2.997500	3.412400	-10.228000	26.021642	0.000649	20.806222
1575.438720	-2.990000	3.410800	-10.197000	26.057857	0.000648	20.789028
1576.441326	-3.020300	3.410900	-10.300000	26.083936	0.000648	20.808592
1577.438741	-3.011100	3.410700	-10.269000	26.106412	0.000647	20.795614
1578.441321	-3.011000	3.410000	-10.266000	26.094612	0.000649	20.797035
1579.456315	-3.009700	3.409900	-10.262000	26.086367	0.000647	20.799182
1580.463193	-2.975700	3.409900	-10.145000	26.030110	0.000645	20.809514
1581.459362	-3.018600	3.407600	-10.284000	26.007606	0.000649	20.804447
1582.460394	-3.023700	3.409000	-10.307000	25.991733	0.000646	20.822639
1583.461481	-2.990000	3.409200	-10.193000	25.980107	0.000646	20.816175
1584.444793	-2.986100	3.407200	-10.173000	25.991113	0.000644	20.789299
1585.442503	-2.992600	3.407300	-10.196000	25.980903	0.000644	20.814603
1586.464129	-3.006200	3.407200	-10.242000	25.976705	0.000642	20.809911
1587.461452	-2.992600	3.407100	-10.195000	26.015256	0.000643	20.807391
1588.459616	-2.981500	3.406400	-10.155000	26.040243	0.000644	20.813056
1589.460963	-2.991900	3.405900	-10.189000	26.067342	0.000643	20.807093
1590.463860	-3.008100	3.406100	-10.245000	26.072880	0.000642	20.795113
1591.444710	-3.033600	3.404300	-10.326000	26.067617	0.000641	20.809265
1592.465723	-3.000700	3.404600	-10.215000	26.028793	0.000643	20.815303
1593.469312	-2.997400	3.404000	-10.203000	25.998839	0.000640	20.808915
1594.463458	-2.979800	3.404800	-10.145000	26.027054	0.000640	20.818771
1595.471914	-2.994300	3.403500	-10.189000	25.995760	0.000640	20.806770
1596.447235	-2.990600	3.405400	-10.183000	26.038430	0.000640	20.795587
1597.463579	-2.991000	3.403100	-10.178000	26.063790	0.000636	20.801153
1598.466959	-3.016000	3.402400	-10.260000	26.067417	0.000639	20.807642
1599.448374	-2.988200	3.403200	-10.168000	26.064091	0.000638	20.804300
1600.448713	-3.007500	3.403000	-10.234000	26.074695	0.000638	20.818748
1601.467624	-3.008000	3.401500	-10.231000	26.092850	0.000637	20.834618
1602.468215	-2.984400	3.402300	-10.152000	26.145081	0.000639	20.819771
1603.463875	-2.990200	3.403000	-10.175000	26.139071	0.000637	20.808516
1604.479353	-2.999900	3.400800	-10.201000	26.127696	0.000637	20.814156
1605.472515	-2.992600	3.401000	-10.177000	26.117514	0.000635	20.802977
1606.468166	-2.982200	3.400400	-10.140000	26.148261	0.000635	20.828655
1607.453934	-2.995000	3.400200	-10.184000	26.142722	0.000633	20.806969
1608.456530	-3.011800	3.399200	-10.235000	26.142897	0.000634	20.807619
1609.453667	-2.996600	3.399300	-10.186000	26.166466	0.000635	20.809965
1610.451187	-3.003900	3.399200	-10.209000	26.179083	0.000634	20.804625
1611.454256	-3.005500	3.397700	-10.211000	26.156878	0.000632	20.820245
1612.480400	-2.997400	3.397000	-10.181000	26.171333	0.000632	20.806795
1613.469738	-2.989700	3.398300	-10.158000	26.191003	0.000632	20.805224
1614.479010	-2.989600	3.397000	-10.154000	26.191300	0.000632	20.808841
1615.487224	-2.998000	3.396000	-10.179000	26.190381	0.000631	20.815978
1616.474840	-3.013800	3.395200	-10.231000	26.140165	0.000630	20.798710
1617.473620	-3.005100	3.396700	-10.206000	26.082444	0.000631	20.809464
1618.475393	-2.997500	3.394800	-10.174000	26.045686	0.000630	20.789601
1619.477752	-3.004600	3.395600	-10.201000	26.002812	0.000629	20.826657
1620.472215	-3.003900	3.394600	-10.196000	26.030858	0.000627	20.822119
1621.473154	-2.994200	3.394300	-10.162000	26.023505	0.000630	20.800033
1622.477043	-3.028900	3.393500	-10.277000	25.994122	0.000628	20.800857
1623.452565	-2.977000	3.393000	-10.098000	26.006417	0.000626	20.814632
1624.457642	-3.022300	3.393700	-10.254000	25.973778	0.000627	20.812187
1625.459252	-3.000300	3.392200	-10.177000	25.988978	0.000627	20.825086
1626.456805	-2.993700	3.393000	-10.157000	26.007559	0.000625	20.805822
1627.456378	-3.004400	3.392700	-10.192000	26.015779	0.000627	20.811236
1628.457528	-2.973500	3.392300	-10.085000	26.025220	0.000626	20.829256
1629.455299	-2.996800	3.391800	-10.164000	26.049684	0.000626	20.829179
1630.457765	-2.996200	3.391100	-10.159000	26.042308	0.000624	20.822243
1631.457513	-2.999700	3.390700	-10.170000	26.022411	0.000626	20.816951
1632.456897	-2.990500	3.389800	-10.136000	26.038681	0.000626	20.801530
1633.475491	-2.982600	3.390900	-10.113000	26.010143	0.000624	20.837815
1634.455780	-3.009000	3.389500	-10.198000	26.002491	0.000623	20.828705
1635.455653	-3.009000	3.389700	-10.198000	25.993376	0.000623	20.806745
1636.456153	-2.996700	3.389800	-10.157000	25.974100	0.000622	20.808717
1637.458109	-3.009800	3.388900	-10.199000	26.031850	0.000621	20.828805
1638.459529	-2.994300	3.387700	-10.143000	26.046652	0.000622	20.819970
1639.459294	-2.990800	3.388800	-10.132000	26.057059	0.000621	20.823314
1640.462232	-2.983900	3.389100	-10.111000	26.001372	0.000621	20.821891
1641.476687	-3.000300	3.388300	-10.165000	26.012026	0.000619	20.827380
1642.483652	-2.996900	3.387100	-10.150000	26.023476	0.000619	20.822763
1643.458654	-2.998300	3.386800	-10.154000	26.009195	0.000618	20.811259
1644.460443	-3.015200	3.385300	-10.207000	25.998812	0.000618	20.827380
1645.460325	-3.022100	3.385400	-10.230000	25.954249	0.000618	20.835240
1646.459004	-2.996800	3.386000	-10.146000	25.935071	0.000618	20.828776
1647.458755	-3.013800	3.385200	-10.201000	25.925259	0.000617	20.834565
1648.461221	-2.992700	3.386100	-10.133000	25.936462	0.000615	20.843923
1649.496948	-2.988900	3.385000	-10.116000	25.944486	0.000616	20.833492
1650.486304	-2.993700	3.385900	-10.135000	25.970367	0.000616	20.818243
1651.492638	-2.996400	3.384900	-10.141000	25.964879	0.000614	20.830272
1652.481194	-2.995200	3.383900	-10.134000	25.975163	0.000615	20.826380
1653.484639	-3.000000	3.382700	-10.147000	25.929158	0.000615	20.825206
1654.493642	-2.991100	3.382700	-10.117000	25.949776	0.000614	20.834540
1655.483569	-3.007800	3.384800	-10.180000	25.970666	0.000612	20.826604
1656.494486	-2.988600	3.383300	-10.111000	25.988578	0.000615	20.841279
1657.466731	-3.000200	3.381200	-10.143000	25.990762	0.000612	20.829724
1658.465477	-3.007400	3.382200	-10.171000	26.018407	0.000611	20.847066
1659.471456	-3.009600	3.380800	-10.174000	26.031225	0.000610	20.826755
1660.467074	-3.001400	3.382100	-10.150000	26.013218	0.000611	20.826680
1661.468472	-3.005500	3.381500	-10.163000	26.068381	0.000612	20.847965
1662.469866	-3.003800	3.380000	-10.152000	26.101540	0.000611	20.837186
1663.465803	-3.013100	3.380200	-10.183000	26.111872	0.000611	20.845671
1664.467039	-2.982700	3.380900	-10.083000	26.115697	0.000613	20.822962
1665.468306	-3.006200	3.378700	-10.156000	26.159085	0.000608	20.820566
1666.466955	-2.995800	3.379000	-10.122000	26.136235	0.000608	20.837908
1667.495056	-3.007500	3.378000	-10.158000	26.140457	0.000607	20.832668
1668.500488	-2.994300	3.379500	-10.118000	26.126822	0.000607	20.836511
1669.467803	-3.014700	3.377800	-10.182000	26.143266	0.000607	20.836438
1670.468045	-3.007000	3.376600	-10.153000	26.144756	0.000606	20.822763
1671.468508	-2.990700	3.377000	-10.099000	26.183101	0.000604	20.821465
1672.468290	-3.018000	3.375800	-10.187000	26.193457	0.000605	20.854155
1673.468602	-2.985200	3.376400	-10.078000	26.138523	0.000604	20.849215
1674.468820	-3.013000	3.376700	-10.173000	26.089841	0.000604	20.826854
1675.492987	-3.001600	3.376700	-10.133000	26.073824	0.000603	20.849165
1676.468964	-3.008100	3.375200	-10.151000	26.030902	0.000600	20.848240
1677.471011	-2.996400	3.375300	-10.113000	26.022533	0.000602	20.844573
1678.494714	-3.004100	3.375400	-10.139000	26.026234	0.000603	20.862042
1679.485888	-3.005200	3.376000	-10.144000	26.028692	0.000602	20.843176
1680.494491	-2.992000	3.374300	-10.095000	26.086244	0.000600	20.834144
1681.494104	-2.981500	3.373300	-10.056000	26.108371	0.000600	20.856377
1682.487776	-3.010300	3.372700	-10.152000	26.138819	0.000598	20.846669
1683.485936	-2.979900	3.373400	-10.052000	26.181240	0.000600	20.827655
1684.487583	-2.995700	3.373400	-10.105000	26.199070	0.000601	20.860269
1685.484534	-3.007100	3.373600	-10.144000	26.232820	0.000599	20.842977
1686.492559	-3.013100	3.371600	-10.157000	26.253332	0.000597	20.846045
1687.489383	-2.991800	3.371500	-10.085000	26.270666	0.000599	20.844499
1688.485076	-3.026000	3.371200	-10.200000	26.280949	0.000596	20.839660
1689.484818	-3.008800	3.370400	-10.139000	26.319388	0.000597	20.857427
1690.494711	-2.981100	3.372700	-10.051000	26.335478	0.000596	20.849416
1691.472180	-3.008300	3.370700	-10.139000	26.345139	0.000598	20.848693
1692.469354	-2.994400	3.370900	-10.093000	26.356909	0.000596	20.859099
1693.469506	-3.009600	3.369900	-10.141000	26.353854	0.000597	20.846072
1694.468498	-2.997600	3.370200	-10.101000	26.346431	0.000595	20.863741
1695.474226	-2.995700	3.369500	-10.091000	26.307072	0.000595	20.857851
1696.470421	-3.047700	3.367600	-10.262000	26.263765	0.000593	20.859849
1697.491729	-3.020600	3.368400	-10.174000	26.241839	0.000593	20.846350
1698.492630	-3.013300	3.368100	-10.148000	26.188495	0.000594	20.850592
1699.490794	-2.982100	3.367100	-10.039000	26.147964	0.000592	20.865814
1700.487322	-3.026700	3.366800	-10.189000	26.157229	0.000592	20.835296
1701.491907	-3.011000	3.367100	-10.138000	26.109294	0.000590	20.857304
1702.490899	-2.986300	3.367600	-10.056000	26.066502	0.000591	20.865516
1703.488405	-3.002200	3.366600	-10.105000	26.077479	0.000590	20.863743
1704.473126	-2.985800	3.366400	-10.051000	26.085974	0.000589	20.850942
1705.488421	-2.966800	3.366600	-9.985400	26.105223	0.000588	20.850368
1706.492243	-2.970900	3.367900	-10.004000	26.137758	0.000587	20.862671
1707.490610	-3.003100	3.365300	-10.105000	26.156932	0.000587	20.850170
1708.475102	-3.002300	3.364400	-10.100000	26.148613	0.000589	20.868363
1709.470179	-3.001100	3.363900	-10.095000	26.126509	0.000587	20.854213
1710.471016	-3.001900	3.363000	-10.094000	26.141016	0.000586	20.868315
1711.473841	-3.005600	3.362500	-10.105000	26.160064	0.000586	20.845257
1712.499805	-3.015900	3.363300	-10.142000	26.199053	0.000587	20.870684
1713.488544	-2.994200	3.362600	-10.067000	26.206057	0.000586	20.862549
1714.487358	-2.998600	3.362700	-10.082000	26.205286	0.000585	20.875998
1715.501635	-2.989000	3.361700	-10.047000	26.233970	0.000586	20.857882
1716.486141	-3.007000	3.362000	-10.108000	26.217927	0.000584	20.855986
1717.490169	-2.975000	3.362400	-10.001000	26.246438	0.000585	20.879893
1718.486818	-2.989600	3.361300	-10.048000	26.242117	0.000584	20.883137
1719.489902	-2.983400	3.361000	-10.026000	26.250334	0.000583	20.886652
1720.491210	-3.023500	3.359700	-10.156000	26.274819	0.000581	20.870957
1721.499762	-2.987100	3.360100	-10.036000	26.278594	0.000581	20.856733
1722.489543	-2.987800	3.358700	-10.034000	26.313632	0.000580	20.862547
1723.502158	-3.012600	3.360100	-10.120000	26.339679	0.000579	20.880189
1724.493455	-3.006400	3.359200	-10.097000	26.363889	0.000580	20.874648
1725.493064	-2.989500	3.360500	-10.045000	26.382787	0.000579	20.889373
1726.497512	-3.004700	3.358900	-10.091000	26.381893	0.000578	20.865717
1727.494597	-3.002900	3.358600	-10.084000	26.369426	0.000578	20.892541
1728.491440	-3.015800	3.357300	-10.124000	26.370992	0.000577	20.891269
1729.498762	-3.002900	3.357500	-10.080000	26.345042	0.000577	20.877044
1730.500716	-2.981900	3.358300	-10.013000	26.309882	0.000576	20.879640
1731.492419	-2.968400	3.357100	-9.963600	26.299329	0.000575	20.881837
1732.491704	-2.993800	3.357100	-10.049000	26.282267	0.000576	20.882234
1733.499729	-3.021700	3.355900	-10.140000	26.302059	0.000577	20.893114
1734.496439	-3.018700	3.356000	-10.130000	26.271440	0.000574	20.882259
1735.504883	-2.996300	3.354400	-10.048000	26.292971	0.000574	20.893464
1736.498743	-2.979100	3.356000	-9.996900	26.294013	0.000574	20.868435
1737.503428	-2.999000	3.354700	-10.060000	26.288823	0.000574	20.884081
1738.495822	-2.987000	3.354200	-10.017000	26.318347	0.000573	20.909008
1739.492833	-3.028000	3.353000	-10.150000	26.328031	0.000572	20.897878
1740.508037	-3.011700	3.353300	-10.097000	26.326739	0.000572	20.890890
1741.501058	-2.998100	3.355200	-10.058000	26.287480	0.000573	20.880835
1742.493344	-2.986000	3.354700	-10.016000	26.226835	0.000571	20.872048
1743.497391	-2.996600	3.353100	-10.046000	26.195596	0.000571	20.875744
1744.497153	-2.994400	3.352700	-10.038000	26.237489	0.000571	20.898400
1745.496250	-3.016300	3.350500	-10.105000	26.248366	0.000571	20.889890
1746.500171	-3.014300	3.352300	-10.104000	26.272427	0.000570	20.878035
1747.499334	-2.990000	3.352600	-10.023000	26.271084	0.000569	20.900391
1748.496704	-2.990100	3.352400	-10.023000	26.257253	0.000567	20.888864
1749.498833	-3.008500	3.351400	-10.082000	26.235101	0.000566	20.916861
1750.508690	-3.011500	3.350700	-10.090000	26.232592	0.000566	20.905805
1751.499873	-2.982900	3.351800	-9.997400	26.232243	0.000568	20.903085
1752.512016	-3.009400	3.350400	-10.081000	26.272149	0.000568	20.905729
1753.499089	-2.987300	3.350400	-10.007000	26.270186	0.000565	20.871516
1754.510550	-3.011000	3.348500	-10.081000	26.295291	0.000568	20.902907
1755.502201	-3.001300	3.349700	-10.052000	26.266831	0.000565	20.907497
1756.500985	-2.986000	3.349000	-9.998500	26.252503	0.000565	20.905901
1757.482969	-2.999600	3.347800	-10.041000	26.223544	0.000566	20.890077
1758.481014	-2.990400	3.348700	-10.012000	26.204324	0.000563	20.900159
1759.485016	-3.002000	3.348200	-10.049000	26.170148	0.000563	20.912758
1760.504556	-3.021800	3.347000	-10.113000	26.174224	0.000564	20.890302
1761.497667	-2.994500	3.347900	-10.024000	26.219866	0.000562	20.896338
1762.501041	-2.991600	3.347100	-10.012000	26.263673	0.000563	20.894367
1763.500618	-2.991200	3.347500	-10.012000	26.272489	0.000560	20.905596
1764.512189	-3.008200	3.346600	-10.066000	26.294885	0.000560	20.894439
1765.503290	-2.983700	3.346400	-9.982900	26.331935	0.000562	20.917921
1766.507069	-2.992100	3.345100	-10.008000	26.344822	0.000558	20.907640
1767.501375	-3.013000	3.344500	-10.075000	26.372832	0.000559	20.927254
1768.505442	-2.978300	3.346300	-9.964300	26.385370	0.000557	20.909511
1769.514153	-3.010100	3.345300	-10.069000	26.411243	0.000557	20.912281
1770.505203	-2.995300	3.344000	-10.016000	26.389641	0.000556	20.912381
1771.508649	-2.989300	3.345700	-10.000000	26.371468	0.000558	20.909290
1772.512639	-2.989100	3.344500	-9.996100	26.349193	0.000554	20.894491
1773.519454	-3.011300	3.342000	-10.062000	26.352078	0.000554	20.918724
1774.515125	-3.022500	3.342900	-10.103000	26.363501	0.000554	20.910292
1775.510571	-2.988600	3.342700	-9.989300	26.385996	0.000553	20.913459
1776.506814	-3.010400	3.340400	-10.055000	26.366658	0.000552	20.920575
1777.507410	-3.015700	3.341900	-10.077000	26.369315	0.000552	20.927513
1778.488555	-2.984500	3.343600	-9.977100	26.373091	0.000550	20.924670
1779.491563	-3.021700	3.341800	-10.098000	26.396089	0.000550	20.925498
1780.510150	-2.977900	3.342900	-9.954000	26.396015	0.000551	20.939647
1781.515231	-2.995900	3.341800	-10.011000	26.406492	0.000550	20.916515
1782.524817	-2.980800	3.340100	-9.954400	26.404509	0.000550	20.920211
1783.521101	-2.962900	3.339700	-9.893800	26.376427	0.000549	20.924703
1784.508214	-3.020100	3.339600	-10.085000	26.382787	0.000547	20.916397
1785.520920	-2.995800	3.339500	-10.004000	26.380080	0.000547	20.926952
1786.516248	-2.998900	3.339700	-10.015000	26.400568	0.000547	20.934740
1787.514675	-3.003400	3.337100	-10.022000	26.409084	0.000546	20.921964
1788.521907	-3.019700	3.336600	-10.074000	26.406478	0.000543	20.933094
1789.513493	-2.993200	3.337000	-9.986800	26.373135	0.000545	20.904801
1790.514321	-2.998500	3.336400	-10.004000	26.376341	0.000544	20.912290
1791.513012	-2.994100	3.336700	-9.989900	26.403955	0.000545	20.918232
1792.529376	-2.989100	3.335300	-9.968400	26.434248	0.000544	20.921652
1793.519269	-2.994900	3.336800	-9.992000	26.456447	0.000542	20.919783
1794.511681	-2.990400	3.336800	-9.977700	26.474000	0.000542	20.944061
1795.515886	-3.004800	3.335300	-10.020000	26.478001	0.000542	20.937177
1796.511835	-3.039000	3.333600	-10.129000	26.477183	0.000541	20.921658
1797.512074	-2.990600	3.335100	-9.971900	26.511347	0.000543	20.905266
1798.512561	-2.995700	3.334100	-9.986500	26.508867	0.000541	20.915574
1799.524764	-3.031000	3.332900	-10.101000	26.444736	0.000539	20.944045
1800.517032	-2.975400	3.334200	-9.920000	26.437736	0.000538	20.917098
1801.515152	-2.974300	3.333500	-9.913300	26.472771	0.000539	20.932395
1802.498826	-2.988000	3.333800	-9.960400	26.458273	0.000539	20.927781
1803.500971	-3.006300	3.331900	-10.015000	26.477987	0.000542	20.922466
1804.519458	-3.009600	3.332200	-10.026000	26.446209	0.000540	20.930828
1805.521826	-2.979300	3.331900	-9.925400	26.440672	0.000539	20.921471
1806.514406	-3.019600	3.330400	-10.055000	26.445913	0.000538	20.946175
1807.514955	-3.005000	3.330900	-10.008000	26.447031	0.000538	20.928810
1808.502708	-2.996900	3.331000	-9.981800	26.445021	0.000537	20.940064
1809.505622	-3.027500	3.329500	-10.077000	26.453191	0.000538	20.915088
1810.501408	-3.005900	3.329300	-10.006000	26.429974	0.000536	20.939166
1811.507954	-2.981700	3.331100	-9.931500	26.392782	0.000536	20.938768
1812.503357	-2.983600	3.330800	-9.937700	26.390275	0.000536	20.931508
1813.502769	-3.008400	3.329200	-10.013000	26.352979	0.000535	20.932431
1814.502997	-2.978900	3.331900	-9.924100	26.318215	0.000536	20.940166
1815.503350	-2.994600	3.329300	-9.967900	26.329987	0.000535	20.954840
1816.503829	-2.977400	3.328800	-9.910800	26.360977	0.000536	20.922926
1817.503556	-3.012800	3.328300	-10.026000	26.381560	0.000534	20.952144
1818.502622	-3.000300	3.327700	-9.982800	26.402790	0.000532	20.927017
1819.503541	-3.004100	3.327500	-9.994900	26.381113	0.000533	20.948851
1820.501676	-2.988700	3.328500	-9.946600	26.376595	0.000531	20.926769
1821.503149	-3.017900	3.325600	-10.035000	26.397153	0.000530	20.938895
1822.501312	-3.013900	3.326500	-10.025000	26.390425	0.000532	20.939719
1823.507245	-2.982500	3.328300	-9.924700	26.417765	0.000532	20.950126
1824.503052	-3.018400	3.325400	-10.035000	26.442667	0.000531	20.931061
1825.507894	-3.018100	3.325200	-10.035000	26.466503	0.000531	20.944112
1826.529750	-2.974000	3.326300	-9.891400	26.493863	0.000530	20.960231
1827.523401	-2.993500	3.324700	-9.951500	26.509232	0.000529	20.943913
1828.523911	-3.036200	3.323400	-10.089000	26.522860	0.000529	20.952395
1829.527936	-3.029100	3.322900	-10.064000	26.553820	0.000528	20.950325
1830.528529	-2.988100	3.324300	-9.932500	26.570031	0.000526	20.937698
1831.507195	-3.013200	3.323200	-10.013000	26.579195	0.000529	20.928419
1832.511043	-2.985500	3.323600	-9.921600	26.573061	0.000527	20.972981
1833.509535	-2.987500	3.322600	-9.925200	26.572686	0.000527	20.946056
1834.506590	-3.024800	3.320700	-10.042000	26.585174	0.000526	20.945807
1835.510010	-3.023500	3.321900	-10.043000	26.608237	0.000525	20.947654
1836.507655	-2.973100	3.323200	-9.878300	26.629363	0.000524	20.945184
1837.507531	-3.000600	3.320700	-9.963000	26.634875	0.000522	20.928442
1838.513187	-3.000900	3.320700	-9.964200	26.637875	0.000524	20.925295
1839.524560	-2.998100	3.319800	-9.952100	26.633383	0.000523	20.939743
1840.508574	-2.999600	3.319500	-9.955600	26.654882	0.000522	20.950449
1841.529608	-2.970600	3.321500	-9.865500	26.659152	0.000522	20.933880
1842.524568	-3.003600	3.319300	-9.967800	26.645822	0.000521	20.921904
1843.537247	-2.997900	3.317800	-9.944600	26.675462	0.000518	20.917088
1844.532693	-3.021300	3.316600	-10.020000	26.712422	0.000518	20.943812
1845.525533	-3.005600	3.317000	-9.969200	26.686729	0.000518	20.935052
1846.530777	-2.993600	3.319000	-9.934900	26.694700	0.000517	20.914618
1847.534893	-2.992600	3.318000	-9.928800	26.675909	0.000517	20.918960
1848.530606	-3.001500	3.315900	-9.951900	26.648454	0.000515	20.928817
1849.530405	-2.962800	3.319400	-9.833400	26.592424	0.000518	20.944561
1850.549812	-2.995000	3.316900	-9.932900	26.555309	0.000515	20.926220
1851.529178	-2.983000	3.317900	-9.896800	26.512233	0.000518	20.922276
1852.529689	-2.990600	3.316600	-9.918300	26.507020	0.000516	20.904235
1853.538123	-2.986100	3.316800	-9.902200	26.545774	0.000514	20.920430
1854.536279	-3.022600	3.314300	-10.016000	26.544087	0.000513	20.925371
1855.529972	-2.996300	3.315800	-9.934300	26.572537	0.000514	20.912246
1856.533858	-3.010500	3.314500	-9.977400	26.597885	0.000512	20.911647
1857.539721	-3.001000	3.314900	-9.947600	26.617396	0.000513	20.922726
1858.537045	-2.992500	3.313800	-9.914800	26.608062	0.000512	20.896275
1859.533031	-3.020000	3.314700	-10.009000	26.628319	0.000511	20.918059
1860.538915	-3.009500	3.313700	-9.970200	26.636436	0.000509	20.924322
1861.543301	-3.014200	3.312700	-9.984500	26.622286	0.000512	20.910573
1862.546387	-2.994300	3.313300	-9.919500	26.570053	0.000511	20.924446
1863.546265	-3.006000	3.313800	-9.959800	26.521095	0.000510	20.915537
1864.543774	-2.989500	3.313200	-9.903600	26.485765	0.000507	20.918906
1865.544959	-3.021800	3.310700	-10.003000	26.489613	0.000508	20.912817
1866.519138	-2.991700	3.311900	-9.907500	26.544802	0.000510	20.912815
1867.519059	-2.981300	3.311400	-9.870400	26.574518	0.000506	20.902384
1868.520156	-2.996400	3.308900	-9.913200	26.570073	0.000506	20.905028
1869.551701	-2.998400	3.309900	-9.923200	26.553542	0.000507	20.902635
1870.520038	-3.011800	3.309700	-9.966200	26.531419	0.000505	20.907898
1871.521102	-3.022300	3.309300	-10.001000	26.526924	0.000505	20.896742
1872.521907	-3.011000	3.309000	-9.962000	26.516299	0.000505	20.896020
1873.521858	-2.996000	3.310500	-9.917000	26.517564	0.000504	20.918152
1874.521983	-2.997300	3.309700	-9.919000	26.449536	0.000505	20.907622
1875.521555	-3.000200	3.309800	-9.929500	26.441514	0.000501	20.897664
1876.523691	-3.000400	3.308200	-9.925200	26.459041	0.000503	20.905796
1877.528746	-3.009100	3.306600	-9.948500	26.476744	0.000503	20.915529
1878.549452	-2.974300	3.308300	-9.838600	26.515300	0.000501	20.906394
1879.540511	-2.994200	3.308200	-9.904400	26.529849	0.000501	20.916750
1880.549142	-2.999100	3.306100	-9.913800	26.540125	0.000500	20.895314
1881.540508	-3.018100	3.306200	-9.977400	26.588112	0.000498	20.881912
1882.547943	-3.006900	3.305200	-9.937500	26.624409	0.000498	20.898009
1883.524695	-2.991500	3.305300	-9.887000	26.642799	0.000500	20.902746
1884.524509	-2.973400	3.305900	-9.827300	26.660075	0.000497	20.904466
1885.524507	-2.976500	3.305500	-9.837600	26.651812	0.000498	20.899005
1886.526027	-3.002800	3.304400	-9.921500	26.685522	0.000498	20.891169
1887.547163	-3.009000	3.303300	-9.938100	26.689095	0.000496	20.903295
1888.548718	-2.980500	3.303900	-9.846500	26.730398	0.000495	20.882707
1889.546118	-3.003800	3.302900	-9.920300	26.748542	0.000496	20.916118
1890.542721	-2.997400	3.304500	-9.904300	26.779816	0.000496	20.884028
1891.542792	-2.996300	3.303300	-9.897100	26.776243	0.000493	20.895133
1892.546014	-2.995000	3.303400	-9.891000	26.761597	0.000495	20.907907
1893.559813	-3.006900	3.301300	-9.926000	26.738115	0.000493	20.902791
1894.544550	-3.004700	3.302200	-9.920800	26.753207	0.000491	20.900421
1895.547288	-3.029900	3.301000	-10.000000	26.755763	0.000491	20.892560
1896.552325	-2.988900	3.301500	-9.866900	26.780185	0.000492	20.892932
1897.543114	-3.019800	3.300100	-9.964700	26.803964	0.000489	20.898822
1898.546089	-3.003200	3.300400	-9.911300	26.816695	0.000490	20.890760
1899.554825	-3.007400	3.300000	-9.923700	26.828089	0.000491	20.887044
1900.547615	-2.997600	3.300200	-9.891500	26.816720	0.000491	20.867553
1901.554891	-3.002100	3.299300	-9.904100	26.780906	0.000491	20.878485
1902.550276	-3.026200	3.298300	-9.980100	26.784232	0.000487	20.892259
1903.550210	-3.001000	3.298100	-9.896500	26.772985	0.000489	20.897073
1904.553972	-3.001400	3.297900	-9.897600	26.785817	0.000487	20.883897
1905.552779	-2.984900	3.298100	-9.842300	26.808627	0.000486	20.899717
1906.545762	-3.000900	3.296800	-9.891900	26.802819	0.000484	20.887715
1907.556021	-3.029400	3.298600	-9.991600	26.817115	0.000486	20.903036
1908.558471	-2.985800	3.297300	-9.843100	26.786511	0.000485	20.883172
1909.547288	-2.989200	3.296600	-9.851800	26.721355	0.000486	20.912967
1910.554037	-2.986700	3.296900	-9.845900	26.686329	0.000483	20.868274
1911.532747	-2.999800	3.296100	-9.887100	26.673098	0.000483	20.882473
1912.529914	-2.977900	3.297200	-9.817700	26.670142	0.000483	20.875234
1913.529822	-3.036800	3.292600	-9.997900	26.716810	0.000484	20.880899
1914.531914	-3.008200	3.295100	-9.911300	26.738926	0.000481	20.868996
1915.530565	-2.989400	3.294500	-9.847700	26.748705	0.000479	20.877404
1916.529799	-3.010300	3.294700	-9.917400	26.749497	0.000480	20.889580
1917.532588	-3.003500	3.293100	-9.889700	26.760421	0.000481	20.898191
1918.560260	-2.992700	3.293000	-9.852700	26.728104	0.000478	20.879926
1919.553662	-3.006400	3.293400	-9.899300	26.683099	0.000481	20.875932
1920.554573	-3.024200	3.292900	-9.957300	26.644972	0.000479	20.865578
1921.548742	-2.997600	3.292200	-9.868200	26.625409	0.000478	20.867249
1922.553540	-3.020800	3.291400	-9.940300	26.657082	0.000478	20.864477
1923.554717	-3.037000	3.291300	-9.994200	26.701468	0.000476	20.869744
1924.550162	-2.995100	3.289600	-9.851700	26.712489	0.000475	20.870866
1925.557509	-2.988400	3.291000	-9.834000	26.688759	0.000474	20.869294
1926.553967	-2.992100	3.290700	-9.845600	26.686125	0.000473	20.878973
1927.554877	-3.003100	3.290500	-9.881400	26.675180	0.000474	20.890729
1928.549818	-3.000900	3.290200	-9.872500	26.716808	0.000474	20.852924
1929.551189	-3.001000	3.289900	-9.872600	26.742151	0.000472	20.880299
1930.556318	-3.024200	3.287900	-9.942400	26.780650	0.000472	20.864005
1931.556174	-2.990900	3.289000	-9.835500	26.825327	0.000472	20.864829
1932.535041	-3.007200	3.287400	-9.884800	26.805642	0.000471	20.879174
1933.534429	-2.995400	3.287900	-9.847800	26.818252	0.000471	20.872412
1934.543480	-3.013200	3.287600	-9.905400	26.787176	0.000471	20.871988
1935.538733	-2.984800	3.288900	-9.816200	26.778591	0.000469	20.869520
1936.537160	-2.997300	3.286900	-9.850500	26.755132	0.000469	20.863953
1937.540854	-3.020900	3.288100	-9.932100	26.748653	0.000467	20.874508
1938.538490	-3.012500	3.285600	-9.897000	26.771712	0.000468	20.843640
1939.541150	-3.015800	3.284500	-9.905000	26.791246	0.000466	20.874657
1940.542375	-2.969900	3.286500	-9.759200	26.794547	0.000466	20.884613
1941.543132	-2.993900	3.285400	-9.835400	26.751135	0.000465	20.877951
1942.540134	-2.981800	3.286100	-9.797400	26.722418	0.000464	20.874210
1943.539635	-3.008100	3.286500	-9.884400	26.679674	0.000462	20.871541
1944.539526	-2.991500	3.284300	-9.823900	26.645590	0.000464	20.860510
1945.542809	-3.003400	3.284800	-9.863700	26.610884	0.000464	20.846010
1946.563504	-3.010400	3.283000	-9.881300	26.636008	0.000464	20.877429
1947.558120	-2.988200	3.284300	-9.813400	26.636060	0.000462	20.867524
1948.568453	-3.001300	3.282400	-9.849800	26.669570	0.000461	20.874659
1949.566833	-2.993300	3.282500	-9.824600	26.725793	0.000462	20.859586
1950.571506	-3.003700	3.283000	-9.860900	26.750196	0.000461	20.841447
1951.560552	-2.990000	3.282800	-9.814100	26.768240	0.000462	20.852951
1952.546640	-2.998900	3.281800	-9.840800	26.739171	0.000461	20.875406
1953.562624	-3.008200	3.282500	-9.872900	26.714126	0.000459	20.854969
1954.548275	-3.001900	3.281400	-9.849800	26.730137	0.000459	20.863953
1955.547863	-2.966000	3.281500	-9.732000	26.757764	0.000457	20.855694
1956.550142	-2.979700	3.280600	-9.774400	26.765310	0.000458	20.859487
1957.548269	-3.009000	3.279100	-9.865400	26.782784	0.000454	20.863305
1958.573151	-3.010100	3.278600	-9.866300	26.797949	0.000454	20.860060
1959.575735	-2.989600	3.280000	-9.805000	26.817533	0.000455	20.849406
1960.564552	-2.994900	3.278400	-9.817300	26.825624	0.000453	20.866075
1961.562484	-2.980200	3.278400	-9.768900	26.809862	0.000451	20.839323
1962.571178	-3.003700	3.278200	-9.845700	26.812889	0.000452	20.845685
1963.565196	-3.026400	3.277100	-9.916000	26.831629	0.000453	20.847458
1964.550202	-3.020300	3.277400	-9.897800	26.819244	0.000451	20.859661
1965.553344	-3.001100	3.275900	-9.830200	26.798171	0.000451	20.861706
1966.556317	-2.977000	3.277900	-9.756900	26.766549	0.000451	20.845561
1967.550482	-2.996800	3.276700	-9.817900	26.774167	0.000449	20.855590
1968.548689	-2.981800	3.278000	-9.772100	26.765853	0.000449	20.840594
1969.552711	-3.018800	3.275200	-9.885800	26.783527	0.000448	20.870690
1970.577574	-2.994500	3.274500	-9.803300	26.799584	0.000449	20.856489
1971.568194	-2.974700	3.277200	-9.748100	26.808048	0.000447	20.855516
1972.553843	-2.993700	3.273700	-9.798900	26.831876	0.000447	20.848654
1973.552266	-3.001800	3.275000	-9.829400	26.872406	0.000446	20.841517
1974.549695	-3.014400	3.274600	-9.869700	26.865108	0.000447	20.853619
1975.555373	-3.013100	3.274300	-9.864500	26.860642	0.000445	20.861930
1976.551038	-3.001100	3.272800	-9.820700	26.836194	0.000445	20.843039
1977.571441	-2.991700	3.272200	-9.787800	26.833142	0.000444	20.857040
1978.578627	-2.965900	3.273800	-9.708500	26.816662	0.000443	20.840944
1979.576803	-2.995700	3.272400	-9.802300	26.855555	0.000445	20.843540
1980.552975	-2.997600	3.273400	-9.811100	26.863446	0.000440	20.832983
1981.555372	-2.994500	3.272000	-9.797400	26.868063	0.000439	20.860857
1982.571446	-2.993500	3.270900	-9.789200	26.902935	0.000440	20.842344
1983.582885	-3.014100	3.271500	-9.860000	26.895887	0.000439	20.830041
1984.579414	-2.990100	3.270300	-9.777800	26.911868	0.000440	20.839946
1985.575269	-3.011700	3.270700	-9.850200	26.909413	0.000439	20.853124
1986.583787	-2.971600	3.269800	-9.714500	26.921399	0.000439	20.837203
1987.576663	-3.007400	3.268100	-9.828000	26.908396	0.000437	20.839300
1988.575078	-2.988700	3.268500	-9.766400	26.888068	0.000436	20.851576
1989.585645	-2.995200	3.267700	-9.785100	26.909312	0.000436	20.847807
1990.571644	-3.009700	3.268600	-9.837500	26.918173	0.000435	20.839648
1991.574534	-2.964000	3.267300	-9.683600	26.953389	0.000433	20.839499
1992.577835	-3.011400	3.267000	-9.837300	26.979767	0.000435	20.829989
1993.577607	-2.994100	3.267300	-9.780900	26.953883	0.000432	20.836203
1994.583311	-2.982600	3.267000	-9.742700	26.985899	0.000432	20.839474
1995.574329	-2.986500	3.267400	-9.757300	27.011333	0.000431	20.838025
1996.579979	-3.010900	3.264900	-9.828100	27.013096	0.000432	20.844538
1997.585755	-2.995800	3.266100	-9.783500	26.981108	0.000431	20.839871
1998.578252	-2.998200	3.265400	-9.789500	26.951353	0.000432	20.825598
1999.574234	-2.998700	3.266100	-9.793200	26.997586	0.000430	20.822778
2000.590947	-3.002300	3.264200	-9.799500	26.987906	0.000430	20.837225
2001.567073	-2.984200	3.263600	-9.739000	27.010168	0.000427	20.846335
2002.557580	-2.987600	3.263900	-9.749300	27.037339	0.000427	20.834780
2003.560117	-2.997600	3.263600	-9.782000	27.022674	0.000428	20.834730
2004.560231	-2.980900	3.264200	-9.729600	27.021879	0.000428	20.836302
2005.560274	-3.004200	3.262000	-9.798600	27.023913	0.000425	20.820804
2006.558489	-2.997600	3.262000	-9.777400	27.046396	0.000425	20.821129
2007.576000	-3.010900	3.260400	-9.815400	27.047932	0.000426	20.846855
2008.575712	-2.993200	3.260700	-9.758200	27.046643	0.000424	20.842714
2009.562512	-3.019600	3.261400	-9.847300	27.081285	0.000421	20.827293
2010.588236	-2.991600	3.262100	-9.757600	27.035822	0.000423	20.837521
2011.579962	-2.995600	3.261200	-9.768400	27.034409	0.000420	20.834679
2012.591858	-3.012100	3.259300	-9.816000	27.011181	0.000421	20.819854
2013.584966	-2.975700	3.260000	-9.700000	27.013143	0.000419	20.839844
2014.583258	-2.985700	3.260700	-9.734500	27.036491	0.000418	20.809272
2015.583653	-2.977600	3.260900	-9.709000	27.085800	0.000418	20.838946
2016.577774	-2.975300	3.260200	-9.699800	27.083467	0.000418	20.820953
2017.589337	-2.997000	3.258200	-9.764200	27.095750	0.000415	20.814340
2018.578125	-2.972400	3.259200	-9.686500	27.062200	0.000416	20.820427
2019.594835	-2.980400	3.257600	-9.707800	27.114209	0.000416	20.823421
2020.588202	-3.004300	3.257900	-9.785900	27.119642	0.000416	20.837894
2021.580470	-3.005900	3.256000	-9.785800	27.145598	0.000414	20.827964
2022.582494	-2.997700	3.255900	-9.760000	27.115226	0.000413	20.832979
2023.585759	-2.979800	3.256000	-9.701000	27.088303	0.000414	20.811118
2024.578528	-2.987300	3.254500	-9.720500	27.097757	0.000413	20.812566
2025.564306	-3.008900	3.254400	-9.791600	27.082767	0.000413	20.831155
2026.566962	-2.995700	3.253300	-9.744400	27.108004	0.000413	20.805327
2027.566043	-3.000000	3.253700	-9.760100	27.133262	0.000411	20.825515
2028.569135	-3.004900	3.251500	-9.769100	27.128673	0.000408	20.811417
2029.566838	-2.991100	3.255300	-9.735200	27.135842	0.000408	20.811040
2030.567389	-2.990100	3.252400	-9.723900	27.137182	0.000410	20.818077
2031.569475	-3.004700	3.250100	-9.763900	27.154277	0.000409	20.805874
2032.567554	-2.981200	3.253500	-9.698200	27.156587	0.000408	20.811042
2033.567531	-3.006200	3.250700	-9.770600	27.154946	0.000406	20.819823
2034.568635	-2.994600	3.251700	-9.736500	27.134129	0.000407	20.815955
2035.567793	-3.011500	3.250400	-9.787800	27.111870	0.000407	20.811586
2036.569470	-2.995400	3.249300	-9.731600	27.090109	0.000405	20.804400
2037.572659	-2.988600	3.250400	-9.713400	27.073855	0.000406	20.830726
2038.571366	-3.016000	3.248800	-9.796900	27.074003	0.000405	20.823289
2039.570776	-3.014200	3.249400	-9.793300	27.075244	0.000406	20.824537
2040.569965	-3.024800	3.250200	-9.830600	27.104275	0.000403	20.828604
2041.576075	-3.015200	3.246600	-9.788200	27.094622	0.000403	20.810361
2042.573652	-3.006300	3.247000	-9.759700	27.060229	0.000402	20.817023
2043.574238	-3.011100	3.248200	-9.778400	27.027845	0.000401	20.820966
2044.575963	-2.990900	3.247000	-9.710900	26.999506	0.000399	20.820442
2045.588207	-3.019700	3.246900	-9.803000	26.999033	0.000398	20.816647
2046.571203	-3.008300	3.246400	-9.765500	27.050623	0.000397	20.823009
2047.573949	-3.009000	3.245500	-9.765300	27.062412	0.000397	20.806890
2048.574956	-3.018100	3.243700	-9.787600	27.024146	0.000397	20.799701
2049.571496	-3.044000	3.243900	-9.873700	26.990148	0.000397	20.814350
2050.572052	-3.026600	3.243200	-9.814000	27.009379	0.000396	20.795757
2051.571481	-3.010400	3.244400	-9.766100	27.048463	0.000397	20.790966
2052.591832	-2.986300	3.245200	-9.690100	27.061018	0.000395	20.823032
2053.599679	-3.009500	3.242700	-9.757600	27.066402	0.000395	20.801420
2054.596110	-3.001900	3.245800	-9.743100	27.038609	0.000393	20.784849
2055.576232	-2.993800	3.243500	-9.709100	27.059552	0.000392	20.791212
2056.574960	-2.995200	3.243300	-9.713000	27.063548	0.000392	20.806137
2057.576003	-3.005000	3.241900	-9.740700	27.088386	0.000391	20.786545
2058.576896	-3.007200	3.242600	-9.749100	27.156871	0.000390	20.808957
2059.595343	-3.003400	3.240700	-9.730800	27.189819	0.000388	20.819810
2060.603338	-2.983300	3.241500	-9.668800	27.226142	0.000389	20.814620
2061.595163	-3.027300	3.240300	-9.807400	27.239763	0.000387	20.814570
2062.603452	-3.018600	3.241200	-9.783000	27.267102	0.000387	20.789912
2063.608795	-2.989800	3.239600	-9.685000	27.303746	0.000387	20.804486
2064.577750	-3.019500	3.237900	-9.775500	27.285241	0.000386	20.819063
2065.577401	-3.007800	3.238700	-9.740600	27.261573	0.000385	20.790989
2066.580248	-3.002900	3.237400	-9.720900	27.194482	0.000385	20.812646
2067.577458	-3.030200	3.236700	-9.807200	27.188800	0.000383	20.796026
2068.579014	-3.023500	3.236700	-9.785100	27.188751	0.000381	20.786968
2069.585946	-2.993500	3.236400	-9.687100	27.196493	0.000384	20.801867
2070.580007	-2.995700	3.237600	-9.697700	27.204804	0.000384	20.792208
2071.582516	-3.003100	3.236200	-9.718000	27.219590	0.000380	20.815141
2072.579742	-2.997400	3.236200	-9.699000	27.203712	0.000382	20.814818
2073.580117	-2.977500	3.236700	-9.635900	27.183368	0.000379	20.793881
2074.578901	-2.994700	3.235300	-9.687800	27.186171	0.000378	20.797175
2075.602939	-2.966800	3.235200	-9.597600	27.217803	0.000378	20.789162
2076.599217	-2.976600	3.234000	-9.625800	27.163417	0.000377	20.789937
2077.599871	-3.005000	3.232700	-9.712900	27.164980	0.000376	20.791508
2078.607566	-2.986400	3.233100	-9.654000	27.175897	0.000374	20.800592
2079.597622	-2.996300	3.232200	-9.683700	27.182299	0.000374	20.793281
2080.595809	-3.007300	3.232100	-9.718300	27.181828	0.000374	20.810350
2081.597978	-3.017500	3.231300	-9.749000	27.213437	0.000372	20.797573
2082.582120	-2.985400	3.231400	-9.645800	27.225792	0.000372	20.815690
2083.599099	-3.005800	3.230600	-9.708700	27.218326	0.000372	20.807706
2084.602250	-2.988100	3.231000	-9.652400	27.219814	0.000373	20.789763
2085.608134	-2.982800	3.230000	-9.632800	27.226737	0.000371	20.800993
2086.600760	-2.992800	3.229500	-9.664200	27.218625	0.000370	20.807058
2087.605151	-3.003100	3.229300	-9.697000	27.221132	0.000366	20.807209
2088.600706	-3.016900	3.229200	-9.740800	27.250089	0.000369	20.811679
2089.618352	-3.000900	3.229100	-9.689500	27.207391	0.000367	20.794337
2090.604979	-2.980700	3.229000	-9.623600	27.229448	0.000365	20.808936
2091.590219	-3.030700	3.227200	-9.779400	27.239374	0.000364	20.802325
2092.590243	-3.008700	3.227400	-9.708900	27.271752	0.000364	20.814978
2093.587347	-3.011400	3.227000	-9.716500	27.311522	0.000364	20.794291
2094.608871	-2.992900	3.228000	-9.660500	27.364641	0.000361	20.784663
2095.606869	-3.007600	3.225800	-9.701200	27.327876	0.000360	20.779447
2096.616634	-2.996300	3.225300	-9.663100	27.326587	0.000361	20.798066
2097.604184	-3.033900	3.224400	-9.781500	27.269926	0.000360	20.792753
2098.615485	-3.012900	3.225000	-9.715900	27.262932	0.000359	20.803261
2099.608503	-2.988700	3.226300	-9.641200	27.259957	0.000356	20.820183
2100.606592	-2.985600	3.225900	-9.630100	27.244056	0.000357	20.805611
2101.612741	-3.002500	3.223900	-9.678500	27.287474	0.000356	20.806137
2102.607746	-2.998300	3.223000	-9.662800	27.287728	0.000355	20.803547
2103.610586	-2.984900	3.224000	-9.622500	27.256049	0.000354	20.800131
2104.604658	-3.009300	3.222200	-9.695400	27.224714	0.000353	20.816976
2105.590627	-3.014200	3.223100	-9.714100	27.172614	0.000352	20.822894
2106.613756	-3.028700	3.221200	-9.754100	27.158325	0.000354	20.818480
2107.590027	-3.002600	3.221700	-9.671900	27.125179	0.000355	20.797945
2108.613603	-3.000600	3.219400	-9.659300	27.082429	0.000350	20.797150
2109.591834	-2.994500	3.220400	-9.642200	27.044837	0.000353	20.793009
2110.613406	-2.978700	3.222500	-9.597500	27.033076	0.000351	20.787346
2111.614526	-3.015000	3.220800	-9.710400	27.051367	0.000350	20.820913
2112.610419	-2.994200	3.219300	-9.637900	27.036778	0.000351	20.797233
2113.620276	-3.026900	3.218300	-9.740800	27.094846	0.000350	20.806793
2114.610497	-2.993300	3.218400	-9.632800	27.134623	0.000348	20.788003
2115.593635	-2.972900	3.219000	-9.568800	27.205637	0.000347	20.796366
2116.593555	-2.998900	3.217600	-9.648100	27.250099	0.000347	20.796043
2117.596313	-2.984600	3.217700	-9.602600	27.295650	0.000348	20.799662
2118.594934	-3.001000	3.218500	-9.657600	27.298433	0.000349	20.781599
2119.593882	-2.999300	3.217100	-9.647700	27.316940	0.000346	20.804957
2120.594632	-3.003900	3.215700	-9.658800	27.305430	0.000346	20.811870
2121.595250	-3.011800	3.215400	-9.683200	27.343387	0.000343	20.801215
2122.619393	-2.980500	3.214800	-9.580700	27.349517	0.000344	20.810701
2123.610218	-2.992200	3.216400	-9.623200	27.346170	0.000344	20.811602
2124.628956	-3.004700	3.214200	-9.656700	27.320370	0.000344	20.799398
2125.612357	-3.018000	3.214400	-9.700400	27.292411	0.000341	20.813473
2126.624515	-2.997300	3.213300	-9.630100	27.327812	0.000342	20.801195
2127.615889	-3.003600	3.213900	-9.652200	27.312062	0.000341	20.803844
2128.616338	-2.998200	3.212600	-9.631300	27.255149	0.000341	20.804916
2129.615251	-3.014100	3.211600	-9.679100	27.250364	0.000339	20.797257
2130.602395	-3.016300	3.210900	-9.684200	27.215949	0.000338	20.795833
2131.615676	-2.994400	3.212000	-9.617500	27.225330	0.000340	20.807165
2132.618247	-2.983800	3.211400	-9.581100	27.236197	0.000336	20.812879
2133.627354	-3.011000	3.209800	-9.663600	27.263215	0.000338	20.810658
2134.617338	-2.995800	3.208600	-9.612200	27.237861	0.000337	20.808863
2135.619458	-2.990400	3.210900	-9.600300	27.213000	0.000334	20.813254
2136.600963	-3.002600	3.209600	-9.636700	27.179357	0.000335	20.807865
2137.600832	-2.997300	3.207900	-9.614200	27.124944	0.000334	20.829951
2138.600945	-2.999900	3.207800	-9.622000	27.123330	0.000334	20.809836
2139.605506	-3.028500	3.206100	-9.708700	27.150054	0.000332	20.815851
2140.600770	-3.021200	3.207000	-9.688200	27.203325	0.000332	20.823437
2141.600662	-3.015900	3.205200	-9.665600	27.214638	0.000333	20.811109
2142.601872	-2.998500	3.207000	-9.615400	27.212953	0.000331	20.810836
2143.602787	-3.007900	3.204600	-9.637400	27.233645	0.000329	20.796088
2144.610943	-3.014900	3.205500	-9.663000	27.257414	0.000331	20.810513
2145.607945	-2.984200	3.204800	-9.562000	27.303382	0.000331	20.793216
2146.606627	-2.988400	3.203200	-9.570800	27.321541	0.000329	20.818120
2147.606571	-3.021700	3.203100	-9.677400	27.347095	0.000328	20.798307
2148.611787	-2.987300	3.202800	-9.566600	27.349750	0.000328	20.822789
2149.608258	-3.000000	3.203400	-9.609900	27.374806	0.000327	20.805320
2150.611563	-3.003400	3.202400	-9.617200	27.341390	0.000328	20.807741
2151.604580	-2.991300	3.202800	-9.579500	27.287531	0.000325	20.822315
2152.631404	-2.987600	3.201200	-9.563100	27.309609	0.000326	20.809910
2153.623783	-2.974000	3.201800	-9.520800	27.346175	0.000323	20.825356
2154.624874	-2.984500	3.201200	-9.552600	27.335709	0.000321	20.817673
2155.627621	-3.011400	3.199500	-9.633600	27.284330	0.000322	20.809612
2156.627550	-3.031800	3.197100	-9.691200	27.272472	0.000323	20.820443
2157.610806	-3.002000	3.197100	-9.596800	27.293138	0.000319	20.826058
2158.609056	-2.993600	3.199200	-9.575300	27.319038	0.000320	20.835990
2159.609403	-2.987800	3.198300	-9.555200	27.384333	0.000318	20.816327
2160.615732	-2.995400	3.197500	-9.576000	27.408546	0.000318	20.821245
2161.610305	-3.002800	3.196200	-9.596500	27.457438	0.000318	20.825388
2162.609117	-3.007300	3.196600	-9.612300	27.490577	0.000317	20.789027
2163.611573	-2.994900	3.197100	-9.574400	27.534430	0.000315	20.803277
2164.608950	-2.998100	3.195400	-9.579400	27.557077	0.000315	20.828434
2165.609481	-2.985900	3.195900	-9.541600	27.566327	0.000313	20.826361
2166.612710	-2.998800	3.196100	-9.583800	27.589991	0.000314	20.825514
2167.611187	-3.021700	3.193300	-9.648000	27.628385	0.000313	20.820999
2168.610683	-3.003700	3.193900	-9.592600	27.649217	0.000313	20.842434
2169.610451	-2.994300	3.193500	-9.561000	27.589793	0.000313	20.815359
2170.609882	-2.989300	3.194000	-9.547000	27.553087	0.000312	20.826790
2171.611443	-2.977700	3.191000	-9.499600	27.524415	0.000310	20.840140
2172.612174	-2.997600	3.193100	-9.570700	27.517422	0.000311	20.804182
2173.641809	-2.985400	3.191600	-9.526500	27.491252	0.000310	20.836647
2174.629028	-2.989900	3.193600	-9.546600	27.472327	0.000308	20.810021
2175.635251	-2.991100	3.190400	-9.542000	27.488822	0.000308	20.833254
2176.632117	-2.990800	3.191200	-9.543400	27.483813	0.000307	20.828689
2177.617118	-2.994100	3.188800	-9.545900	27.525113	0.000306	20.823773
2178.613664	-3.013700	3.188300	-9.607200	27.597064	0.000307	20.850174
2179.612877	-2.989200	3.189200	-9.531200	27.585655	0.000307	20.842963
2180.613084	-3.014700	3.188000	-9.609900	27.614398	0.000306	20.838219
2181.612333	-3.037300	3.186600	-9.678000	27.602247	0.000305	20.827415
2182.615294	-3.023100	3.187400	-9.633600	27.545125	0.000304	20.828262
2183.631987	-3.013800	3.185600	-9.598900	27.514518	0.000304	20.835399
2184.629948	-2.999100	3.186200	-9.554700	27.484578	0.000303	20.842734
2185.627767	-2.992500	3.186500	-9.534800	27.477706	0.000301	20.851468
2186.633464	-2.999500	3.189500	-9.565000	27.521190	0.000302	20.841637
2187.630147	-3.015100	3.184900	-9.601700	27.497130	0.000300	20.826440
2188.633829	-2.964400	3.185300	-9.441400	27.494201	0.000300	20.831554
2189.616323	-3.000100	3.184000	-9.551000	27.476393	0.000298	20.822647
2190.631703	-3.002800	3.184100	-9.560500	27.489118	0.000299	20.855362
2191.631065	-3.029000	3.182400	-9.637700	27.523894	0.000299	20.823022
2192.639528	-2.984400	3.183400	-9.499400	27.524464	0.000296	20.835923
2193.616996	-2.983100	3.181700	-9.490100	27.505961	0.000295	20.841962
2194.633315	-3.003500	3.181500	-9.555100	27.463893	0.000293	20.831881
2195.634526	-2.989000	3.182000	-9.510000	27.467713	0.000295	20.848052
2196.631418	-3.010200	3.179000	-9.567800	27.484111	0.000293	20.848429
2197.620934	-3.010800	3.180800	-9.576100	27.494181	0.000292	20.854766
2198.635144	-2.989800	3.178700	-9.502800	27.523548	0.000292	20.847329
2199.640403	-3.011100	3.179400	-9.572100	27.575786	0.000289	20.855317
2200.634216	-2.987400	3.179400	-9.497900	27.609715	0.000289	20.866696
2201.631999	-3.014900	3.176900	-9.576900	27.661127	0.000288	20.830238
2202.633910	-3.008300	3.176400	-9.554600	27.658451	0.000287	20.839872
2203.634253	-2.991100	3.176600	-9.500900	27.673107	0.000288	20.867895
2204.632326	-3.009600	3.176500	-9.559300	27.626583	0.000289	20.846686
2205.631094	-2.988800	3.176000	-9.492100	27.605254	0.000287	20.851303
2206.634577	-3.015000	3.176000	-9.573700	27.589580	0.000286	20.849282
2207.637669	-3.015700	3.173700	-9.569900	27.628816	0.000287	20.847510
2208.644453	-2.999600	3.173100	-9.517200	27.653768	0.000283	20.861237
2209.633369	-2.985300	3.173100	-9.472100	27.655428	0.000284	20.852003
2210.639565	-2.985800	3.172200	-9.470300	27.663068	0.000284	20.835984
2211.635815	-2.996300	3.171800	-9.501800	27.692633	0.000284	20.858620
2212.642807	-2.999600	3.171900	-9.513600	27.718573	0.000284	20.861490
2213.617200	-2.996200	3.170500	-9.498600	27.727229	0.000282	20.875416
2214.641508	-3.005000	3.169500	-9.523100	27.734945	0.000283	20.860422
2215.639466	-3.010300	3.168800	-9.538000	27.746624	0.000282	20.847045
2216.638622	-3.007200	3.170700	-9.534200	27.739482	0.000282	20.871151
2217.642871	-2.975300	3.168500	-9.424700	27.770108	0.000281	20.852660
2218.642350	-2.983000	3.169200	-9.452500	27.814894	0.000282	20.869281
2219.650293	-3.008800	3.166700	-9.527100	27.833863	0.000281	20.867983
2220.639806	-3.023100	3.167900	-9.576000	27.851963	0.000279	20.875768
2221.638442	-3.003200	3.166800	-9.508600	27.883925	0.000279	20.865737
2222.636698	-2.966200	3.166200	-9.390800	27.880479	0.000279	20.868433
2223.623253	-3.004800	3.165600	-9.510800	27.893571	0.000277	20.883031
2224.620918	-2.980200	3.166300	-9.435500	27.909044	0.000277	20.855457
2225.621415	-3.000300	3.163700	-9.491000	27.876609	0.000278	20.869279
2226.620188	-2.980300	3.165400	-9.432700	27.822109	0.000275	20.845724
2227.624701	-3.012400	3.163300	-9.528200	27.823301	0.000275	20.864466
2228.620578	-2.981400	3.164500	-9.433600	27.827168	0.000276	20.879263
2229.622906	-2.984700	3.162800	-9.438100	27.836813	0.000276	20.879960
2230.623543	-3.009000	3.163800	-9.518300	27.819527	0.000273	20.883900
2231.620996	-3.000500	3.160700	-9.482700	27.792227	0.000275	20.888194
2232.621084	-3.030200	3.159200	-9.571100	27.778416	0.000273	20.867658
2233.622386	-2.977200	3.159900	-9.407100	27.787119	0.000274	20.904389
2234.644647	-2.982100	3.159900	-9.421900	27.737745	0.000272	20.885049
2235.622041	-2.966800	3.159900	-9.374100	27.720931	0.000272	20.883776
2236.641055	-2.984400	3.158600	-9.425800	27.652408	0.000271	20.884523
2237.643571	-2.990700	3.157200	-9.441500	27.603921	0.000269	20.882202
2238.642583	-3.003700	3.158600	-9.487000	27.572198	0.000270	20.874465
2239.644384	-2.981300	3.158500	-9.415200	27.609401	0.000269	20.883923
2240.641541	-3.000200	3.156200	-9.468100	27.644644	0.000269	20.884772
2241.644564	-3.010100	3.153700	-9.491900	27.679314	0.000269	20.872718
2242.644470	-2.987000	3.155300	-9.423200	27.729657	0.000268	20.858893
2243.625315	-2.995200	3.154200	-9.446100	27.756312	0.000265	20.884767
2244.626266	-2.985100	3.156000	-9.418300	27.750036	0.000265	20.891253
2245.625505	-2.995700	3.152500	-9.442000	27.750236	0.000266	20.891454
2246.627923	-2.991900	3.151200	-9.426400	27.735605	0.000265	20.884318
2247.629490	-3.016800	3.152600	-9.507800	27.709120	0.000266	20.884218
2248.625972	-2.999000	3.151000	-9.449800	27.709490	0.000264	20.882220
2249.626415	-2.992900	3.151500	-9.431800	27.768730	0.000265	20.894893
2250.627423	-2.990200	3.152200	-9.425200	27.801489	0.000262	20.884239
2251.627189	-2.987600	3.150000	-9.409900	27.830724	0.000261	20.901806
2252.629080	-3.010200	3.148600	-9.477100	27.864598	0.000260	20.886587
2253.625939	-3.000900	3.148700	-9.447700	27.909003	0.000259	20.913259
2254.629601	-2.993300	3.147700	-9.421200	27.932979	0.000261	20.900882
2255.644029	-3.010500	3.145400	-9.467700	27.960946	0.000260	20.890626
2256.651847	-3.027200	3.144300	-9.517700	27.975823	0.000260	20.894694
2257.645473	-3.008800	3.144400	-9.459000	27.993573	0.000258	20.893120
2258.627657	-2.996100	3.145500	-9.422600	27.978178	0.000258	20.888056
2259.628809	-2.988500	3.144600	-9.397100	27.980830	0.000256	20.890725
2260.627859	-2.996600	3.142100	-9.414500	28.014647	0.000258	20.876402
2261.654034	-2.996000	3.142600	-9.413300	28.031975	0.000257	20.892895
2262.632267	-3.016200	3.140400	-9.471000	28.017249	0.000255	20.896563
2263.649605	-3.001100	3.141400	-9.425600	27.959681	0.000256	20.895990
2264.629997	-3.014000	3.140900	-9.466000	27.910986	0.000255	20.905298
2265.631858	-3.015600	3.139500	-9.465800	27.919838	0.000256	20.904725
2266.629659	-3.023900	3.139600	-9.493000	27.895687	0.000252	20.892272
2267.633237	-2.996500	3.140000	-9.406300	27.923210	0.000254	20.907170
2268.631436	-3.001200	3.138700	-9.418700	27.907291	0.000255	20.909640
2269.629417	-3.000300	3.137400	-9.412800	27.942796	0.000254	20.910762
2270.629201	-3.011600	3.135800	-9.441900	27.901490	0.000252	20.910439
2271.630166	-3.003800	3.137500	-9.423200	27.890056	0.000252	20.919792
2272.630652	-2.989300	3.138100	-9.379200	27.922539	0.000251	20.902228
2273.650373	-3.012500	3.134600	-9.441900	27.940934	0.000250	20.909836
2274.659134	-3.011400	3.133400	-9.435100	27.962234	0.000252	20.913731
2275.631554	-2.995400	3.134000	-9.386400	28.007604	0.000249	20.919569
2276.647051	-2.988000	3.134100	-9.363200	27.981175	0.000247	20.921416
2277.632553	-3.010800	3.131900	-9.428600	27.970365	0.000247	20.904373
2278.631901	-3.008200	3.131000	-9.417100	27.944207	0.000247	20.920242
2279.633920	-3.004500	3.131900	-9.409100	27.891965	0.000247	20.907490
2280.632199	-3.018500	3.129700	-9.444800	27.840786	0.000248	20.931369
2281.647357	-3.004000	3.129300	-9.399300	27.782093	0.000245	20.932045
2282.648939	-2.983700	3.129900	-9.335800	27.732374	0.000245	20.909987
2283.633853	-3.033900	3.126300	-9.484000	27.681584	0.000246	20.911509
2284.634398	-3.003700	3.128300	-9.395100	27.687658	0.000246	20.914302
2285.634497	-2.956400	3.128600	-9.248100	27.737409	0.000245	20.909364
2286.633241	-2.991900	3.126700	-9.353900	27.785912	0.000244	20.910760
2287.633236	-3.011800	3.124200	-9.408700	27.819859	0.000245	20.904147
2288.633790	-3.010200	3.124700	-9.405200	27.813830	0.000243	20.927001
2289.638187	-3.001000	3.123100	-9.371200	27.810286	0.000243	20.924382
2290.633633	-3.002600	3.124100	-9.379500	27.813041	0.000242	20.927155
2291.637321	-3.005000	3.122600	-9.381600	27.778149	0.000241	20.930446
2292.635145	-2.994800	3.122000	-9.348200	27.824543	0.000240	20.945841
2293.634895	-3.006900	3.121300	-9.385200	27.859976	0.000240	20.941673
2294.634062	-3.007800	3.119200	-9.381300	27.882590	0.000241	20.930295
2295.638502	-3.012300	3.118400	-9.392000	27.894592	0.000240	20.924357
2296.658319	-2.977800	3.119000	-9.286800	27.894123	0.000239	20.918670
2297.654816	-3.002400	3.118500	-9.361700	27.930967	0.000239	20.941052
2298.658843	-3.020100	3.117500	-9.414300	27.973362	0.000240	20.936309
2299.660244	-2.996800	3.116700	-9.339700	27.942865	0.000241	20.936433
2300.664004	-3.015600	3.116000	-9.395400	27.977676	0.000237	20.941125
2301.635887	-3.028100	3.114200	-9.428900	28.008642	0.000239	20.922036
2302.654248	-3.010500	3.113800	-9.372900	28.034696	0.000238	20.930243
2303.657209	-2.998100	3.112800	-9.330900	28.075431	0.000237	20.925730
2304.655951	-2.985900	3.112200	-9.292200	28.124562	0.000237	20.929195
2305.636860	-3.038500	3.111200	-9.451900	28.141789	0.000237	20.908134
2306.635598	-3.000400	3.111000	-9.332600	28.148558	0.000236	20.933437
2307.635466	-3.015000	3.109400	-9.374000	28.168338	0.000235	20.932961
2308.655781	-2.989000	3.109100	-9.292200	28.140625	0.000236	20.933512
2309.654501	-3.007900	3.107200	-9.345400	28.138170	0.000234	20.922506
2310.654036	-2.988000	3.107500	-9.284000	28.147217	0.000233	20.933510
2311.653814	-3.028900	3.105800	-9.405500	28.125751	0.000233	20.927547
2312.667009	-2.998500	3.105000	-9.309000	28.121658	0.000231	20.926272
2313.659562	-3.047100	3.104000	-9.457500	28.080307	0.000231	20.918311
2314.635685	-3.010400	3.105400	-9.347100	28.086406	0.000231	20.932984
2315.635687	-3.013700	3.104300	-9.353600	28.063528	0.000231	20.918964
2316.638825	-3.012600	3.102700	-9.346500	28.125872	0.000232	20.925299
2317.638989	-3.010300	3.103100	-9.340000	28.142954	0.000232	20.934433
2318.637229	-3.010300	3.102500	-9.337900	28.179170	0.000232	20.922057
2319.634433	-3.005200	3.099700	-9.313400	28.218882	0.000233	20.920312
2320.635334	-3.007300	3.099400	-9.319600	28.202721	0.000230	20.922059
2321.635858	-3.021100	3.097300	-9.356500	28.222625	0.000231	20.912227
2322.641778	-3.004800	3.098500	-9.309600	28.255988	0.000230	20.916894
2323.635203	-3.009000	3.097500	-9.319600	28.215859	0.000229	20.927224
2324.635032	-3.006500	3.097400	-9.310400	28.178109	0.000230	20.897758
2325.635668	-3.024200	3.095000	-9.359100	28.162242	0.000230	20.906912
2326.636101	-3.006800	3.093700	-9.301400	28.160459	0.000229	20.928349
2327.653000	-3.001100	3.093300	-9.281900	28.170078	0.000229	20.913378
2328.657013	-3.006000	3.091800	-9.292200	28.166386	0.000229	20.931945
2329.664867	-3.003100	3.092200	-9.285600	28.207783	0.000227	20.902975
2330.651885	-3.014200	3.091000	-9.315900	28.214497	0.000228	20.922061
2331.653040	-2.970800	3.090500	-9.179500	28.201783	0.000228	20.901677
2332.664588	-2.975500	3.090400	-9.194400	28.184781	0.000227	20.902104
2333.652672	-3.001800	3.088000	-9.268200	28.179924	0.000228	20.904325
2334.657794	-3.008700	3.087600	-9.288400	28.206372	0.000228	20.906296
2335.654733	-3.004700	3.085600	-9.270500	28.232770	0.000226	20.893046
2336.664784	-2.988100	3.086600	-9.222500	28.261424	0.000224	20.883963
2337.666240	-3.012000	3.085500	-9.292800	28.273866	0.000226	20.889377
2338.660728	-3.009100	3.084900	-9.281500	28.268565	0.000227	20.885936
2339.636868	-2.997100	3.083300	-9.240200	28.266806	0.000225	20.911665
2340.643844	-3.023900	3.080600	-9.313400	28.271242	0.000225	20.909493
2341.637240	-2.986700	3.081300	-9.202100	28.249357	0.000224	20.881771
2342.638250	-2.979700	3.081500	-9.180000	28.219985	0.000223	20.879701
2343.642522	-3.024900	3.079700	-9.314500	28.211930	0.000224	20.903357
2344.638518	-3.021900	3.078500	-9.301700	28.247352	0.000222	20.884968
2345.640775	-2.992900	3.077700	-9.210200	28.245868	0.000223	20.898171
2346.639275	-3.006900	3.077500	-9.252700	28.199442	0.000223	20.896001
2347.638310	-2.996600	3.076000	-9.216600	28.160822	0.000222	20.887467
2348.639037	-3.003600	3.075400	-9.236400	28.141068	0.000221	20.887494
2349.641908	-2.979000	3.074600	-9.157700	28.146672	0.000222	20.868008
2350.639662	-3.008800	3.073700	-9.246700	28.171390	0.000221	20.871555
2351.655526	-2.975400	3.073700	-9.144000	28.206839	0.000223	20.899180
2352.659864	-2.988900	3.072200	-9.181300	28.220723	0.000218	20.870487
2353.640155	-2.969800	3.070900	-9.119100	28.219212	0.000221	20.865647
2354.642165	-2.976600	3.070400	-9.137800	28.204937	0.000221	20.877353
2355.655007	-2.996800	3.068200	-9.193600	28.189967	0.000218	20.862283
2356.666736	-3.008300	3.067800	-9.227800	28.246482	0.000220	20.882670
2357.654890	-3.002300	3.066100	-9.204900	28.270308	0.000218	20.858770
2358.659275	-3.008300	3.064700	-9.216500	28.253951	0.000222	20.877861
2359.641143	-3.009500	3.063800	-9.219800	28.214095	0.000219	20.860495
2360.656796	-3.002000	3.063600	-9.195200	28.213998	0.000221	20.872251
2361.656115	-2.999100	3.061900	-9.181700	28.240155	0.000219	20.862550
2362.658928	-3.004000	3.061200	-9.194000	28.245902	0.000219	20.860750
2363.641828	-2.968700	3.061000	-9.085600	28.284721	0.000220	20.865695
2364.645448	-2.985000	3.059200	-9.130800	28.237257	0.000220	20.860107
2365.642222	-2.962600	3.059900	-9.063500	28.269927	0.000219	20.844163
2366.642045	-3.008600	3.057000	-9.196500	28.256618	0.000219	20.858263
2367.642786	-2.976400	3.057500	-9.098200	28.281627	0.000218	20.852149
2368.642073	-3.008200	3.053600	-9.184700	28.270896	0.000218	20.844190
2369.641650	-3.023000	3.053800	-9.231000	28.273875	0.000219	20.844818
2370.649117	-3.018400	3.054300	-9.216900	28.251965	0.000219	20.864957
2371.641850	-2.995900	3.051900	-9.141800	28.221079	0.000218	20.870371
2372.644795	-3.013100	3.050600	-9.190900	28.226708	0.000221	20.855651
2373.642774	-2.999700	3.050700	-9.148900	28.242028	0.000220	20.845945
2374.642000	-2.993300	3.049100	-9.125300	28.240667	0.000217	20.843626
2375.669451	-3.000400	3.046400	-9.140100	28.200734	0.000217	20.869803
2376.663634	-3.034000	3.044800	-9.237200	28.174581	0.000218	20.843475
2377.660722	-2.998700	3.044600	-9.128800	28.153165	0.000219	20.844674
2378.658072	-3.015700	3.043100	-9.176700	28.166947	0.000217	20.838634
2379.661375	-3.016900	3.043400	-9.180100	28.198157	0.000215	20.829752
2380.671717	-2.983200	3.042800	-9.075700	28.253952	0.000218	20.844200
2381.662886	-3.009800	3.040300	-9.149700	28.257870	0.000218	20.854308
2382.658739	-3.008400	3.037700	-9.138000	28.242082	0.000217	20.853586
2383.661352	-2.979600	3.040000	-9.056600	28.248552	0.000218	20.841134
2384.666737	-2.995800	3.038100	-9.100900	28.259110	0.000217	20.842281
2385.667644	-2.997100	3.035300	-9.096200	28.303748	0.000215	20.844550
2386.665587	-3.024700	3.034800	-9.178500	28.364793	0.000215	20.844850
2387.661723	-2.988700	3.035400	-9.071100	28.388882	0.000216	20.839235
2388.666770	-3.000300	3.033500	-9.100300	28.360454	0.000216	20.855653
2389.660670	-3.008900	3.032400	-9.123400	28.344244	0.000215	20.846918
2390.663696	-3.022500	3.030600	-9.159200	28.344840	0.000216	20.853208
2391.663949	-3.027600	3.029300	-9.170000	28.392349	0.000214	20.839881
2392.656583	-3.020300	3.029000	-9.147200	28.346228	0.000215	20.843701
2393.649228	-2.994600	3.027000	-9.064100	28.259971	0.000215	20.857845
2394.645682	-2.995600	3.027400	-9.067600	28.245347	0.000216	20.840278
2395.646753	-2.971100	3.026400	-8.990400	28.235654	0.000215	20.861812
2396.645558	-3.000500	3.024800	-9.073900	28.241306	0.000215	20.854700
2397.650324	-2.974800	3.023400	-8.991900	28.195447	0.000215	20.851205
2398.665787	-2.987200	3.022200	-9.027200	28.150085	0.000216	20.840625
2399.675691	-2.985000	3.022000	-9.020000	28.132632	0.000215	20.833486
2400.662683	-2.979700	3.019400	-8.995600	28.149341	0.000214	20.843195
2401.668405	-3.008400	3.017900	-9.078000	28.159254	0.000214	20.855545
2402.672936	-2.994200	3.017700	-9.034400	28.174621	0.000214	20.854894
2403.672327	-3.017100	3.015100	-9.095300	28.185752	0.000216	20.818686
2404.669797	-3.002800	3.014500	-9.050700	28.173036	0.000214	20.839548
2405.672272	-3.034600	3.011600	-9.138200	28.185826	0.000215	20.824450
2406.649733	-3.025200	3.011400	-9.108100	28.229919	0.000214	20.853668
2407.648661	-2.991300	3.010700	-9.005400	28.259715	0.000214	20.843364
2408.667355	-3.001000	3.010600	-9.033500	28.259663	0.000214	20.845682
2409.649897	-3.015000	3.007500	-9.065700	28.213707	0.000213	20.838295
2410.676206	-2.989000	3.005400	-8.981700	28.179353	0.000215	20.852546
2411.676215	-3.000700	3.006600	-9.021000	28.193630	0.000214	20.817609
2412.682325	-2.984600	3.005000	-8.967800	28.185846	0.000215	20.831582
2413.651429	-2.977800	3.002600	-8.939400	28.212195	0.000213	20.826342
2414.650187	-2.976100	3.001000	-8.930100	28.182598	0.000213	20.819304
2415.650063	-2.975600	3.000500	-8.927900	28.168099	0.000215	20.827941
2416.669778	-3.007500	2.998400	-9.015900	28.128785	0.000212	20.837200
2417.650642	-2.972100	2.999400	-8.913200	28.134163	0.000213	20.831709
2418.650137	-3.027500	2.995500	-9.067900	28.145963	0.000212	20.829363
2419.666926	-2.975900	2.995200	-8.912500	28.164405	0.000214	20.844136
2420.670305	-3.004900	2.993200	-8.993600	28.210240	0.000214	20.833382
2421.671829	-3.022000	2.991200	-9.038100	28.215147	0.000212	20.835951
2422.664937	-3.019000	2.991400	-9.030400	28.251435	0.000209	20.822700
2423.670945	-3.017700	2.989000	-9.018800	28.301578	0.000211	20.823874
2424.656438	-2.979600	2.989500	-8.905600	28.354172	0.000214	20.822777
2425.666577	-2.996000	2.987300	-8.949000	28.346241	0.000213	20.820481
2426.670755	-2.978300	2.986700	-8.894400	28.356626	0.000212	20.829514
2427.664987	-2.972400	2.984900	-8.870600	28.306783	0.000212	20.839546
2428.671159	-3.007400	2.983000	-8.970800	28.285917	0.000210	20.804313
2429.671141	-2.995600	2.981700	-8.930100	28.275677	0.000210	20.831935
2430.671426	-2.988300	2.980600	-8.905500	28.306413	0.000210	20.841070
2431.675540	-3.012900	2.978900	-8.974800	28.355883	0.000211	20.835405
2432.675404	-2.996700	2.977900	-8.923500	28.407013	0.000210	20.827620
2433.652637	-2.994000	2.976800	-8.911800	28.408623	0.000209	20.830190
2434.655406	-2.987200	2.975100	-8.885600	28.384684	0.000212	20.830741
2435.657831	-2.954600	2.975300	-8.789500	28.361263	0.000210	20.827546
2436.654472	-2.976700	2.973300	-8.849700	28.321534	0.000210	20.812199
2437.659317	-2.983700	2.970000	-8.861000	28.270280	0.000210	20.820337
2438.654879	-2.996200	2.969000	-8.895100	28.275361	0.000210	20.816918
2439.654286	-3.009900	2.966500	-8.928000	28.291745	0.000208	20.821086
2440.655139	-2.979400	2.966800	-8.837900	28.346695	0.000209	20.810032
2441.653850	-2.983400	2.965700	-8.846300	28.376314	0.000209	20.803821
2442.653651	-2.970500	2.964000	-8.802900	28.375323	0.000211	20.815151
2443.654583	-2.998300	2.962400	-8.881500	28.414527	0.000211	20.822385
2444.655691	-3.003100	2.961000	-8.890400	28.425409	0.000210	20.836187
2445.655293	-3.015200	2.959900	-8.924000	28.447344	0.000210	20.803275
2446.674715	-2.991000	2.956400	-8.840700	28.497131	0.000208	20.815004
2447.673994	-3.014400	2.956600	-8.911300	28.532865	0.000209	20.801204
2448.676147	-3.002000	2.953900	-8.866600	28.555488	0.000209	20.805970
2449.678368	-2.999600	2.951700	-8.851200	28.577914	0.000209	20.823814
2450.677230	-2.999300	2.951200	-8.850700	28.616842	0.000209	20.813708
2451.676392	-3.022800	2.948100	-8.910600	28.612235	0.000209	20.827086
2452.679883	-2.979300	2.949500	-8.786700	28.649254	0.000210	20.805102
2453.677607	-3.013500	2.947800	-8.882200	28.641177	0.000211	20.822570
2454.674342	-2.996900	2.944600	-8.823800	28.693705	0.000209	20.820475
2455.686453	-2.990500	2.943100	-8.800500	28.642863	0.000210	20.808147
2456.661962	-3.012100	2.942800	-8.862900	28.630105	0.000211	20.808574
2457.661747	-3.000900	2.941200	-8.824500	28.590313	0.000209	20.817335
2458.658274	-3.000300	2.939000	-8.816800	28.576906	0.000209	20.799091
2459.658251	-3.018100	2.936800	-8.862300	28.588082	0.000209	20.808924
2460.658061	-3.001800	2.936000	-8.812000	28.580722	0.000208	20.814314
2461.658580	-2.985600	2.934700	-8.761300	28.605553	0.000209	20.801390
2462.661507	-2.980100	2.933600	-8.742100	28.601341	0.000209	20.793828
2463.660638	-2.995500	2.930800	-8.777900	28.640144	0.000207	20.809202
2464.682582	-2.958100	2.931400	-8.670000	28.594851	0.000207	20.783973
2465.661866	-2.994500	2.926200	-8.762000	28.534267	0.000210	20.803565
2466.660853	-2.976600	2.925100	-8.705800	28.485971	0.000207	20.820361
2467.663787	-2.995200	2.924600	-8.758900	28.443745	0.000209	20.800124
2468.663174	-3.013600	2.922400	-8.806000	28.456379	0.000208	20.788665
2469.679327	-3.011100	2.919300	-8.789600	28.432321	0.000209	20.799526
2470.680804	-2.973300	2.920700	-8.682600	28.452469	0.000208	20.794211
2471.665095	-2.995800	2.919000	-8.744500	28.523864	0.000207	20.806365
2472.666387	-3.026100	2.916500	-8.824400	28.544208	0.000208	20.787024
2473.662950	-3.013200	2.913500	-8.778200	28.609329	0.000209	20.784804
2474.664131	-3.029100	2.911500	-8.817800	28.632400	0.000207	20.784807
2475.662780	-2.986800	2.911200	-8.693900	28.693648	0.000209	20.776322
2476.664833	-2.990800	2.909400	-8.700100	28.686417	0.000210	20.800332
2477.665863	-2.995500	2.906800	-8.706200	28.664116	0.000207	20.814381
2478.669542	-3.017600	2.904800	-8.764400	28.566243	0.000207	20.777446
2479.663810	-3.020700	2.903500	-8.768900	28.515074	0.000207	20.809366
2480.686169	-2.977700	2.904700	-8.648100	28.474979	0.000208	20.795541
2481.680480	-2.999300	2.900600	-8.698800	28.463035	0.000208	20.809118
2482.682670	-2.977500	2.900000	-8.634100	28.492747	0.000208	20.803952
2483.666664	-2.993300	2.898300	-8.675100	28.526300	0.000208	20.789851
2484.682140	-3.025100	2.893800	-8.752600	28.461723	0.000208	20.786934
2485.684496	-2.992000	2.894100	-8.658100	28.445071	0.000209	20.791976
2486.666678	-2.986800	2.892400	-8.638300	28.435974	0.000207	20.798463
2487.685787	-2.992400	2.889700	-8.646000	28.475602	0.000207	20.798540
2488.670592	-2.986500	2.889400	-8.628300	28.524890	0.000207	20.788431
2489.667876	-2.988700	2.887300	-8.627200	28.581340	0.000207	20.784591
2490.687739	-3.016500	2.884500	-8.698600	28.627554	0.000207	20.782771
2491.687150	-2.994000	2.881700	-8.627000	28.672671	0.000206	20.777478
2492.684870	-2.988300	2.881900	-8.610900	28.678399	0.000208	20.810275
2493.686517	-3.014700	2.878300	-8.676400	28.704884	0.000207	20.788588
2494.686219	-2.979600	2.877600	-8.573500	28.723194	0.000208	20.792331
2495.692311	-3.009800	2.874800	-8.651500	28.725967	0.000209	20.783744
2496.683176	-2.980200	2.873400	-8.561700	28.758649	0.000208	20.784422
2497.684194	-2.994600	2.871300	-8.597300	28.723517	0.000207	20.813993
2498.690390	-3.000700	2.868400	-8.606300	28.686577	0.000209	20.786269
2499.699178	-3.010200	2.868400	-8.632400	28.654960	0.000208	20.799943
2500.694156	-2.990100	2.865500	-8.567200	28.623571	0.000208	20.772121
2501.697719	-2.974400	2.864500	-8.519500	28.659793	0.000207	20.788689
2502.690206	-2.999200	2.862700	-8.584700	28.692201	0.000208	20.785770
2503.693802	-3.003600	2.859200	-8.586700	28.721439	0.000209	20.782029
2504.688617	-2.997900	2.857800	-8.566800	28.760337	0.000209	20.800821
2505.672849	-3.017100	2.856100	-8.615300	28.786865	0.000209	20.776334
2506.671639	-2.989200	2.854800	-8.533000	28.835844	0.000207	20.790112
2507.672283	-2.979100	2.853000	-8.497900	28.839067	0.000209	20.775815
2508.672970	-3.001300	2.849100	-8.550300	28.820139	0.000208	20.784248
2509.675386	-2.995700	2.846500	-8.525400	28.799874	0.000208	20.779008
2510.675280	-2.990400	2.845200	-8.507100	28.783597	0.000208	20.774939
2511.673505	-2.998900	2.844100	-8.527100	28.815333	0.000206	20.788890
2512.673076	-2.967500	2.841500	-8.431400	28.805372	0.000209	20.785969
2513.672754	-3.027600	2.838300	-8.591900	28.714398	0.000207	20.788213
2514.672570	-2.991400	2.837900	-8.489100	28.658654	0.000206	20.775688
2515.676986	-2.996400	2.834500	-8.491800	28.654514	0.000207	20.790484
2516.674777	-2.992800	2.831800	-8.474000	28.605555	0.000206	20.770572
2517.676579	-3.008300	2.829400	-8.510300	28.618242	0.000206	20.794729
2518.693226	-3.013900	2.826600	-8.517800	28.665716	0.000209	20.772844
2519.691547	-3.023300	2.824800	-8.539200	28.698619	0.000206	20.784648
2520.695408	-3.012800	2.822500	-8.503000	28.735162	0.000205	20.785420
2521.707176	-2.999400	2.821400	-8.461900	28.774850	0.000206	20.793155
2522.695869	-2.991100	2.820400	-8.434700	28.736749	0.000205	20.783225
2523.691446	-3.011100	2.816900	-8.480300	28.760805	0.000205	20.788491
2524.705047	-2.970400	2.814800	-8.360000	28.789322	0.000205	20.777387
2525.694317	-2.996300	2.812200	-8.424700	28.825095	0.000205	20.769800
2526.701175	-2.989600	2.810400	-8.400900	28.905656	0.000206	20.796904
2527.696785	-2.998300	2.806600	-8.413300	28.928843	0.000205	20.772374
2528.697896	-3.010500	2.804300	-8.440600	28.938355	0.000206	20.781009
2529.677451	-3.003000	2.801900	-8.412400	28.964045	0.000207	20.787925
2530.676732	-2.994500	2.799900	-8.382400	28.999292	0.000205	20.785030
2531.679439	-3.018100	2.796700	-8.440100	29.005785	0.000207	20.793942
2532.679674	-2.990500	2.796500	-8.361900	29.015222	0.000205	20.796812
2533.678618	-2.982600	2.793000	-8.329800	29.008239	0.000205	20.810165
2534.679311	-2.993000	2.789400	-8.348200	28.977577	0.000206	20.785437
2535.698401	-2.997700	2.786900	-8.353300	28.893360	0.000205	20.774559
2536.698588	-2.995900	2.784300	-8.339400	28.838119	0.000204	20.779601
2537.702204	-2.998300	2.781700	-8.339100	28.761668	0.000208	20.813542
2538.683314	-3.026700	2.778800	-8.408100	28.745765	0.000206	20.796100
2539.683084	-2.999200	2.775800	-8.323900	28.761372	0.000207	20.785743
2540.681392	-2.982500	2.774200	-8.272200	28.781147	0.000205	20.793809
2541.680962	-3.031200	2.769300	-8.393600	28.820092	0.000204	20.798900
2542.685672	-3.006400	2.768300	-8.321300	28.856761	0.000204	20.803123
2543.682950	-3.005100	2.764200	-8.305600	28.895605	0.000206	20.788675
2544.685689	-2.973100	2.762900	-8.212900	28.944232	0.000205	20.800680
2545.682533	-3.011700	2.758400	-8.306500	28.936828	0.000205	20.775203
2546.703199	-3.014200	2.755100	-8.303300	28.912603	0.000206	20.798213
2547.687808	-2.997800	2.753000	-8.252000	28.883203	0.000207	20.793725
2548.685911	-3.014400	2.749300	-8.286500	28.804027	0.000206	20.788881
2549.704995	-2.986800	2.746400	-8.202100	28.746904	0.000205	20.794877
2550.707778	-2.997900	2.745000	-8.227800	28.667102	0.000205	20.795103
2551.710920	-2.959500	2.741600	-8.112800	28.623495	0.000206	20.802865
2552.704007	-3.014100	2.738200	-8.253000	28.604294	0.000205	20.795855
2553.689176	-2.991300	2.733800	-8.176900	28.593195	0.000207	20.791789
2554.685914	-3.017400	2.731200	-8.239600	28.599195	0.000208	20.777917
2555.693993	-2.962700	2.728000	-8.081200	28.591834	0.000207	20.802746
2556.689082	-2.977600	2.723900	-8.109900	28.587452	0.000207	20.805445
2557.687284	-2.987900	2.721200	-8.128900	28.628484	0.000208	20.787027
2558.689995	-2.997000	2.717300	-8.143200	28.709334	0.000208	20.779319
2559.687427	-3.003500	2.715100	-8.153500	28.763767	0.000205	20.810914
2560.686799	-3.007800	2.711700	-8.155600	28.816190	0.000207	20.782641
2561.686706	-2.999600	2.706400	-8.116700	28.864399	0.000205	20.800860
2562.688659	-2.983100	2.706000	-8.070700	28.927470	0.000205	20.792802
2563.689174	-2.995700	2.700800	-8.089900	28.946000	0.000205	20.790134
2564.690554	-3.013800	2.696400	-8.125400	28.987960	0.000207	20.802062
2565.689547	-3.002600	2.692400	-8.082500	28.993462	0.000207	20.809976
2566.714666	-3.008400	2.689000	-8.089300	28.980411	0.000206	20.813896
2567.705936	-2.998600	2.685100	-8.050100	28.986184	0.000207	20.797428
2568.708219	-3.001300	2.680600	-8.044100	28.972979	0.000205	20.793607
2569.710709	-3.012600	2.676800	-8.062800	28.971844	0.000206	20.812851
2570.706240	-2.986500	2.675000	-7.987700	28.964981	0.000207	20.796929
2571.706537	-3.010900	2.670700	-8.039600	28.981902	0.000204	20.807338
2572.707626	-2.980600	2.666300	-7.946500	28.968054	0.000204	20.812826
2573.690832	-2.979900	2.662700	-7.934200	29.015862	0.000206	20.814053
2574.695256	-2.984100	2.658400	-7.931800	29.010385	0.000208	20.803319
2575.696524	-2.966800	2.654800	-7.874700	28.964814	0.000207	20.795812
2576.693377	-2.977800	2.651100	-7.893300	28.951759	0.000206	20.797833
2577.718523	-2.994900	2.645600	-7.922800	28.929218	0.000207	20.804520
2578.709501	-3.003600	2.640300	-7.928900	28.898106	0.000207	20.803048
2579.711583	-3.027200	2.634500	-7.973000	28.915517	0.000206	20.791192
2580.716107	-3.005600	2.631800	-7.908800	28.946558	0.000204	20.793066
2581.719203	-3.022200	2.626400	-7.936800	28.982996	0.000209	20.791845
2582.710583	-2.964400	2.624300	-7.778700	29.050514	0.000207	20.802025
2583.710669	-2.987800	2.617600	-7.820100	29.119735	0.000207	20.790219
2584.718603	-3.012200	2.612200	-7.867100	29.158074	0.000207	20.809885
2585.711982	-2.970300	2.608500	-7.746800	29.196584	0.000207	20.815974
2586.710701	-2.971300	2.602300	-7.731600	29.138087	0.000208	20.834788
2587.715549	-2.961400	2.600300	-7.699600	29.071885	0.000208	20.824506
2588.695747	-2.990700	2.592700	-7.752800	29.021904	0.000208	20.825829
2589.698422	-3.022700	2.587000	-7.819000	29.041127	0.000206	20.818171
2590.697178	-3.012100	2.580500	-7.771100	29.065819	0.000207	20.809860
2591.699233	-2.999000	2.576900	-7.726800	29.097271	0.000209	20.814999
2592.697050	-2.999900	2.571600	-7.713600	29.133253	0.000208	20.794357
2593.705306	-3.022800	2.565000	-7.753100	29.193457	0.000208	20.817565
2594.697101	-3.013900	2.560700	-7.716800	29.269308	0.000208	20.814820
2595.698875	-3.002400	2.554400	-7.667800	29.292832	0.000207	20.816242
2596.701478	-2.992100	2.548300	-7.624000	29.252444	0.000207	20.831489
2597.718153	-2.982800	2.542500	-7.582800	29.231468	0.000209	20.817937
2598.726294	-2.963100	2.539200	-7.523700	29.238597	0.000207	20.786715
2599.718305	-2.998900	2.530500	-7.587400	29.287304	0.000208	20.821102
2600.697813	-3.019100	2.523900	-7.618900	29.276732	0.000209	20.825620
2601.721926	-2.976900	2.519500	-7.499700	29.330588	0.000209	20.813990
2602.704275	-3.011800	2.512400	-7.565800	29.373348	0.000209	20.840016
2603.700944	-3.009300	2.505600	-7.539100	29.401897	0.000208	20.812841
2604.701919	-2.984300	2.500900	-7.462500	29.367505	0.000208	20.828438
2605.700216	-3.015700	2.492800	-7.516000	29.346182	0.000208	20.825439
