LabVIEW Measurement	
Writer_Version	2
Reader_Version	2
Separator	Tab
Decimal_Separator	.
Multi_Headings	No
X_Columns	One
Time_Pref	Absolute
Operator	admin
Description	Clolumns are: time, Current, Voltage, Power, Battery Temp, and Chamber Temp
Date	2024/08/16
Time	13:06:06.104549407958984375
***End_of_Header***	
	
Channels	6						
Samples	1	1	1	1	1	1	
Date	2024/08/30	2024/08/30	2024/08/30	2024/08/30	2024/08/30	2024/08/30	
Time	13:22:46.27043914794921875	13:22:46.2778735160827636719	13:22:46.2828302383422851563	13:22:46.2468662261962890625	13:22:46.2468662261962890625	13:22:46.2468662261962890625	
X_Dimension	Time	Time	Time	Time	Time	Time	
X0	0.0000000000000000E+0	0.0000000000000000E+0	0.0000000000000000E+0	0.0000000000000000E+0	0.0000000000000000E+0	0.0000000000000000E+0	
Delta_X	1.000000	1.000000	1.000000	1.000000	1.000000	1.000000	
***End_of_Header***							
X_Value	Untitled	Untitled 1	Untitled 2	Untitled 3	Untitled 4	Untitled 5	Comment
0.000000	0.031282	4.104800	0.128430	20.964182	0.000943	20.644131
0.992907	-3.004300	3.940000	-11.836000	20.964885	0.000942	20.638194
1.991720	-3.005000	3.933500	-11.819000	20.990183	0.000942	20.649747
2.993943	-2.990900	3.927700	-11.746000	20.965685	0.000943	20.635202
3.991509	-2.982900	3.924600	-11.704000	20.964158	0.000941	20.646951
4.994023	-2.990500	3.921900	-11.726000	20.981952	0.000940	20.640565
5.993806	-3.003100	3.916900	-11.761000	20.972919	0.000939	20.619675
6.995081	-3.011400	3.915100	-11.788000	20.961011	0.000939	20.656607
7.998375	-2.998900	3.912400	-11.732000	20.968800	0.000937	20.655389
8.996569	-2.997600	3.912000	-11.726000	20.991050	0.000937	20.647769
9.993970	-2.996600	3.909900	-11.714000	20.982067	0.000936	20.643526
10.995313	-2.988400	3.909700	-11.682000	20.963300	0.000935	20.644197
11.994453	-2.994700	3.906800	-11.699000	20.995791	0.000935	20.643027
12.994280	-3.007900	3.905300	-11.746000	20.997810	0.000934	20.649789
13.996837	-3.004800	3.902900	-11.726000	20.991352	0.000933	20.627680
14.994848	-3.019300	3.901800	-11.780000	21.011133	0.000935	20.650312
15.998091	-2.997100	3.900200	-11.687000	21.007210	0.000933	20.638327
16.995767	-3.012500	3.899500	-11.745000	21.018089	0.000933	20.642570
18.003074	-3.004000	3.898200	-11.709000	21.008583	0.000934	20.648236
19.000183	-2.989200	3.898800	-11.653000	21.006458	0.000930	20.645637
19.998762	-3.022600	3.897500	-11.779000	21.011648	0.000931	20.652251
20.997653	-2.995500	3.897100	-11.671000	21.030309	0.000930	20.641042
22.000175	-3.018600	3.894900	-11.755000	21.018637	0.000931	20.660664
22.999857	-3.002400	3.895000	-11.693000	21.025912	0.000927	20.667942
24.000035	-2.991500	3.893900	-11.646000	21.032672	0.000928	20.653838
24.998966	-3.002200	3.894200	-11.691000	21.049386	0.000927	20.638312
26.002206	-3.001400	3.893800	-11.686000	21.055475	0.000927	20.644403
27.004003	-2.981300	3.893000	-11.605000	21.057543	0.000928	20.661172
28.004378	-3.000600	3.892200	-11.678000	21.073278	0.000925	20.648934
29.003191	-2.992700	3.891000	-11.644000	21.069566	0.000924	20.669880
30.012134	-3.005100	3.891500	-11.693000	21.074847	0.000925	20.639123
31.000558	-3.005700	3.890500	-11.692000	21.072779	0.000921	20.644167
32.000775	-3.008900	3.888700	-11.699000	21.089739	0.000924	20.648804
33.000726	-2.983400	3.888800	-11.601000	21.096596	0.000923	20.655189
33.999968	-2.990300	3.889300	-11.629000	21.111225	0.000924	20.644690
35.002779	-3.015900	3.887400	-11.723000	21.114388	0.000923	20.668720
36.001975	-3.008500	3.886900	-11.693000	21.111144	0.000921	20.634651
37.003367	-3.008000	3.885900	-11.688000	21.119276	0.000922	20.649425
38.001899	-2.995800	3.886200	-11.642000	21.115044	0.000922	20.673170
39.003372	-3.000100	3.886700	-11.660000	21.136154	0.000922	20.662042
40.004865	-3.033100	3.884000	-11.779000	21.146435	0.000920	20.659049
41.003251	-2.985900	3.884900	-11.599000	21.148903	0.000920	20.656302
42.003366	-3.003600	3.883800	-11.665000	21.161694	0.000919	20.652027
43.002260	-3.002600	3.884500	-11.663000	21.142186	0.000918	20.655273
44.003408	-3.003300	3.883900	-11.663000	21.165935	0.000921	20.664806
45.005677	-2.976600	3.884500	-11.561000	21.170668	0.000920	20.662428
46.006561	-2.998600	3.884200	-11.645000	21.169221	0.000921	20.670939
47.008042	-3.002800	3.882000	-11.656000	21.199606	0.000918	20.659607
48.005398	-3.004600	3.882300	-11.664000	21.199353	0.000916	20.674055
49.004403	-3.005900	3.881700	-11.667000	21.179667	0.000918	20.678069
50.004829	-3.007000	3.882500	-11.674000	21.197384	0.000918	20.664497
51.009295	-3.001900	3.880900	-11.649000	21.199304	0.000917	20.680170
52.006134	-3.008000	3.879900	-11.669000	21.226510	0.000918	20.686524
53.008497	-3.001000	3.880400	-11.644000	21.218109	0.000919	20.660099
54.007363	-3.010600	3.879100	-11.677000	21.237861	0.000918	20.668005
55.015234	-3.002200	3.879500	-11.646000	21.213509	0.000917	20.655497
56.012555	-2.995400	3.878500	-11.616000	21.238433	0.000918	20.670475
57.011993	-2.997300	3.879100	-11.626000	21.246017	0.000917	20.671423
58.008329	-3.020500	3.878700	-11.715000	21.243942	0.000916	20.680254
59.013663	-2.990400	3.879300	-11.600000	21.278492	0.000916	20.673566
60.008610	-2.994400	3.879700	-11.616000	21.243868	0.000914	20.675438
61.007577	-3.024500	3.876500	-11.723000	21.282006	0.000917	20.672339
62.012670	-3.018900	3.877000	-11.703000	21.274342	0.000917	20.673207
63.008226	-3.019600	3.877800	-11.707000	21.266285	0.000915	20.671784
64.017573	-3.019100	3.876100	-11.701000	21.279229	0.000916	20.679519
65.011061	-2.999600	3.876200	-11.626000	21.273713	0.000916	20.661671
66.008532	-2.991800	3.877200	-11.599000	21.295245	0.000917	20.661401
67.011230	-3.001900	3.874800	-11.631000	21.294592	0.000913	20.667860
68.012157	-3.016800	3.875000	-11.689000	21.314522	0.000916	20.680688
69.014175	-3.008500	3.873500	-11.652000	21.318878	0.000917	20.669873
70.011433	-3.033000	3.872900	-11.744000	21.326560	0.000915	20.666652
71.025790	-2.984300	3.876500	-11.566000	21.327451	0.000916	20.661379
72.011969	-2.975700	3.875600	-11.532000	21.331053	0.000916	20.673519
73.015474	-2.977900	3.874200	-11.536000	21.341261	0.000914	20.670929
74.012639	-2.995200	3.874200	-11.603000	21.347953	0.000916	20.689480
75.013453	-2.991800	3.873600	-11.588000	21.381479	0.000915	20.673234
76.014666	-3.009000	3.872000	-11.650000	21.341360	0.000918	20.683357
77.015886	-2.975400	3.873600	-11.525000	21.367875	0.000915	20.666261
78.022864	-3.015500	3.872200	-11.674000	21.378318	0.000915	20.687143
79.012969	-2.997600	3.872600	-11.608000	21.399121	0.000917	20.686145
80.012938	-3.020100	3.871300	-11.690000	21.399350	0.000916	20.678313
81.014975	-3.006200	3.871400	-11.637000	21.396867	0.000916	20.690055
82.016334	-2.994400	3.872300	-11.594000	21.405356	0.000915	20.661086
83.016114	-2.996300	3.872500	-11.601000	21.416722	0.000915	20.670563
84.013912	-2.988900	3.872200	-11.572000	21.425473	0.000917	20.676001
85.013443	-3.013200	3.869300	-11.658000	21.430833	0.000915	20.697961
86.013787	-2.984600	3.870800	-11.552000	21.412425	0.000916	20.687128
87.018446	-2.984100	3.869800	-11.547000	21.424887	0.000917	20.668300
88.020807	-3.003300	3.870100	-11.623000	21.464799	0.000917	20.694013
89.012575	-2.996200	3.870500	-11.596000	21.452822	0.000915	20.695305
90.012979	-3.003000	3.869300	-11.618000	21.433385	0.000917	20.691504
91.014983	-3.000700	3.869800	-11.610000	21.457708	0.000916	20.713472
92.014631	-3.010200	3.868600	-11.644000	21.470692	0.000917	20.701332
93.014858	-2.997700	3.869600	-11.599000	21.479565	0.000915	20.693141
94.019479	-3.004900	3.868300	-11.623000	21.496077	0.000916	20.695438
95.019425	-3.019800	3.867700	-11.678000	21.493177	0.000916	20.708185
96.017802	-3.005000	3.868900	-11.624000	21.501029	0.000915	20.712723
97.017608	-2.994100	3.867700	-11.580000	21.524631	0.000916	20.705045
98.019460	-2.994000	3.866900	-11.576000	21.522581	0.000915	20.700622
99.020750	-2.998300	3.867900	-11.596000	21.519682	0.000916	20.714317
100.020749	-2.998000	3.866900	-11.592000	21.517983	0.000915	20.684166
101.020749	-3.000400	3.866700	-11.600000	21.535670	0.000916	20.704236
102.019743	-2.998000	3.867500	-11.592000	21.532370	0.000915	20.692399
103.017306	-2.995700	3.866000	-11.581000	21.548899	0.000916	20.702775
104.019458	-2.998400	3.866600	-11.592000	21.572377	0.000918	20.697345
105.020668	-2.992400	3.866900	-11.569000	21.580376	0.000917	20.711988
106.019584	-3.004700	3.864600	-11.610000	21.577606	0.000915	20.719175
107.021094	-2.998600	3.865400	-11.590000	21.561447	0.000917	20.696364
108.018735	-3.001900	3.864900	-11.600000	21.597826	0.000917	20.716175
109.022022	-2.997800	3.866700	-11.591000	21.589452	0.000916	20.705897
110.022681	-2.982600	3.865700	-11.529000	21.596535	0.000917	20.712512
111.029235	-3.016000	3.866000	-11.659000	21.613814	0.000916	20.690920
112.025140	-2.999600	3.864500	-11.589000	21.615716	0.000918	20.728862
113.020502	-3.001600	3.865200	-11.601000	21.631001	0.000917	20.700060
114.025926	-2.995300	3.865000	-11.576000	21.655386	0.000919	20.712136
115.024997	-3.017300	3.863100	-11.655000	21.655990	0.000916	20.707050
116.021986	-3.014900	3.863500	-11.647000	21.674493	0.000917	20.726516
117.020570	-3.008400	3.862700	-11.620000	21.671731	0.000917	20.720433
118.021596	-2.991700	3.864900	-11.560000	21.669355	0.000917	20.709993
119.024374	-2.997500	3.864200	-11.582000	21.685520	0.000918	20.706730
120.022947	-3.012900	3.863900	-11.640000	21.684597	0.000918	20.691106
121.026984	-2.990300	3.862900	-11.550000	21.693550	0.000918	20.717138
122.023502	-2.983400	3.862700	-11.523000	21.687692	0.000919	20.718388
123.023055	-2.988900	3.863300	-11.546000	21.698214	0.000918	20.730815
124.022591	-2.996900	3.861500	-11.571000	21.691728	0.000919	20.720531
125.022847	-2.994500	3.862000	-11.564000	21.707167	0.000921	20.732189
126.027380	-3.008900	3.860900	-11.616000	21.713628	0.000921	20.725852
127.023404	-2.989700	3.861400	-11.544000	21.712901	0.000921	20.725599
128.024331	-3.005500	3.862300	-11.607000	21.706946	0.000919	20.706362
129.027610	-3.002200	3.860300	-11.589000	21.724760	0.000920	20.696689
130.023512	-2.984200	3.862000	-11.524000	21.717362	0.000921	20.710622
131.024746	-2.992200	3.861600	-11.553000	21.734898	0.000922	20.721536
132.025606	-3.006400	3.861800	-11.609000	21.742054	0.000919	20.708782
133.030175	-3.020800	3.860000	-11.658000	21.749789	0.000922	20.744974
134.024545	-3.014700	3.858800	-11.632000	21.775413	0.000921	20.701866
135.026434	-3.019300	3.858500	-11.649000	21.757835	0.000921	20.710826
136.025487	-2.998300	3.859900	-11.572000	21.768813	0.000921	20.703320
137.028194	-2.999700	3.860300	-11.579000	21.759404	0.000921	20.718086
138.025820	-2.988500	3.860100	-11.535000	21.755548	0.000922	20.719917
139.027655	-3.014300	3.858600	-11.630000	21.770529	0.000923	20.730169
140.025686	-3.002400	3.860400	-11.589000	21.771371	0.000923	20.731486
141.032669	-2.993500	3.859300	-11.551000	21.785608	0.000923	20.726295
142.030099	-2.995600	3.858700	-11.558000	21.835824	0.000922	20.733882
143.026546	-3.006900	3.858800	-11.601000	21.839884	0.000924	20.740316
144.029338	-3.002200	3.858400	-11.582000	21.826578	0.000924	20.726997
145.028732	-2.989500	3.858800	-11.535000	21.834827	0.000923	20.698743
146.026259	-2.988100	3.858200	-11.528000	21.840537	0.000925	20.703509
147.027166	-2.999600	3.858400	-11.573000	21.859110	0.000923	20.711669
148.029093	-3.001300	3.857100	-11.574000	21.837483	0.000925	20.741707
149.027319	-2.996200	3.858100	-11.557000	21.867409	0.000924	20.733253
150.029058	-3.025300	3.857500	-11.669000	21.862500	0.000924	20.722649
151.027922	-2.981200	3.858700	-11.503000	21.879676	0.000926	20.745058
152.034513	-3.015500	3.856100	-11.627000	21.895512	0.000923	20.729614
153.032743	-3.008600	3.855800	-11.599000	21.888725	0.000922	20.723295
154.031627	-3.013700	3.854400	-11.615000	21.870847	0.000924	20.735747
155.030817	-2.999800	3.855800	-11.566000	21.906154	0.000924	20.754967
156.032292	-2.989300	3.856500	-11.527000	21.900070	0.000925	20.746979
157.032963	-2.997800	3.855100	-11.555000	21.910393	0.000927	20.738820
158.034637	-3.008700	3.854000	-11.595000	21.906849	0.000926	20.740962
159.029955	-3.001500	3.854700	-11.569000	21.900993	0.000928	20.724194
160.031403	-2.998600	3.852400	-11.550000	21.932902	0.000928	20.726737
161.031630	-2.998500	3.853400	-11.553000	21.934477	0.000929	20.738746
162.037999	-2.986200	3.854900	-11.510000	21.950484	0.000928	20.716836
163.033603	-2.985800	3.854600	-11.508000	21.945706	0.000928	20.744296
164.031154	-2.991400	3.853700	-11.526000	21.943927	0.000930	20.741567
165.031934	-2.998800	3.853200	-11.555000	21.977810	0.000928	20.736130
166.032717	-3.029100	3.853100	-11.671000	21.968607	0.000930	20.740193
167.033202	-3.001000	3.853200	-11.563000	21.997157	0.000930	20.741746
168.033682	-3.004200	3.852100	-11.571000	21.982554	0.000930	20.731395
169.034669	-3.004100	3.853000	-11.573000	21.986589	0.000930	20.752979
170.033998	-3.020800	3.852600	-11.637000	22.018447	0.000929	20.761163
171.034628	-2.992200	3.852700	-11.527000	22.017205	0.000930	20.738107
172.036923	-2.988600	3.854100	-11.518000	21.996813	0.000930	20.741876
173.035682	-3.002500	3.850400	-11.560000	22.025183	0.000931	20.758423
174.038232	-3.005300	3.850700	-11.571000	22.034811	0.000930	20.759052
175.034385	-2.987500	3.852400	-11.507000	22.029201	0.000932	20.752013
176.035522	-2.998000	3.852400	-11.548000	22.028899	0.000932	20.749340
177.036322	-3.009100	3.852900	-11.593000	22.065875	0.000933	20.734198
178.035317	-2.978500	3.852300	-11.473000	22.039253	0.000935	20.758757
179.040818	-3.019200	3.850400	-11.623000	22.044635	0.000935	20.745178
180.040459	-2.997100	3.851900	-11.543000	22.082329	0.000933	20.767742
181.037048	-3.008200	3.851100	-11.584000	22.055855	0.000935	20.750247
182.036946	-3.009700	3.850600	-11.586000	22.103723	0.000936	20.766875
183.036262	-3.003200	3.850300	-11.562000	22.106361	0.000934	20.747704
184.036397	-2.998300	3.851000	-11.546000	22.096439	0.000935	20.767644
185.036273	-2.988500	3.850300	-11.505000	22.078498	0.000936	20.751104
186.038393	-2.993100	3.849900	-11.522000	22.110672	0.000936	20.761030
187.038804	-2.997400	3.850100	-11.539000	22.112093	0.000938	20.746805
188.036943	-2.993000	3.849600	-11.521000	22.135258	0.000938	20.764307
189.038524	-2.991600	3.850000	-11.516000	22.138770	0.000938	20.761185
190.040960	-3.000200	3.849600	-11.549000	22.136998	0.000940	20.758937
191.039068	-2.998300	3.848500	-11.538000	22.141987	0.000939	20.752551
192.041209	-2.999900	3.848300	-11.544000	22.130897	0.000938	20.774166
193.043460	-3.027200	3.846800	-11.644000	22.124603	0.000939	20.764071
194.040520	-3.015700	3.847900	-11.602000	22.147792	0.000938	20.765002
195.044563	-2.981600	3.847800	-11.471000	22.151059	0.000939	20.782497
196.038891	-3.009500	3.847000	-11.576000	22.163674	0.000940	20.764307
197.042301	-3.004300	3.846800	-11.556000	22.173717	0.000941	20.767250
198.038284	-3.009900	3.847900	-11.581000	22.158506	0.000940	20.764823
199.038964	-2.983000	3.847900	-11.476000	22.171995	0.000944	20.773112
200.048233	-2.985300	3.848100	-11.486000	22.202206	0.000942	20.795300
201.046586	-2.989900	3.846100	-11.499000	22.205896	0.000942	20.782399
202.040111	-2.996700	3.846000	-11.524000	22.226056	0.000945	20.777454
203.039315	-2.990000	3.846100	-11.498000	22.255286	0.000945	20.764995
204.042748	-2.989900	3.847400	-11.502000	22.227869	0.000945	20.764096
205.040471	-3.006000	3.845200	-11.558000	22.250460	0.000946	20.763956
206.041883	-2.996500	3.847300	-11.527000	22.253473	0.000944	20.774559
207.045918	-2.991000	3.844000	-11.496000	22.228522	0.000945	20.796518
208.040746	-3.001000	3.845600	-11.540000	22.251056	0.000946	20.774036
209.047717	-3.010300	3.845600	-11.574000	22.261099	0.000945	20.768919
210.049726	-3.002400	3.843900	-11.540000	22.262193	0.000945	20.761479
211.042797	-3.023800	3.843700	-11.622000	22.278792	0.000947	20.770513
212.042033	-3.017700	3.842400	-11.594000	22.282335	0.000947	20.780699
213.050422	-2.991400	3.844300	-11.499000	22.270791	0.000948	20.766769
214.042150	-3.000100	3.843700	-11.530000	22.258910	0.000948	20.781900
215.043014	-2.979500	3.845200	-11.455000	22.257458	0.000948	20.793722
216.047068	-2.976800	3.844100	-11.442000	22.287389	0.000950	20.777699
217.045224	-2.978600	3.843700	-11.447000	22.291651	0.000947	20.794295
218.043710	-2.987100	3.843300	-11.479000	22.297832	0.000950	20.773456
219.043396	-2.991400	3.842500	-11.494000	22.320070	0.000951	20.791931
220.043475	-2.994500	3.844100	-11.509000	22.324627	0.000950	20.799338
221.046832	-2.979300	3.842700	-11.448000	22.347380	0.000950	20.785138
222.044695	-2.990900	3.842100	-11.489000	22.326054	0.000951	20.785595
223.043447	-2.989800	3.842800	-11.489000	22.328022	0.000952	20.796575
224.046550	-3.017200	3.842400	-11.592000	22.356752	0.000953	20.765599
225.043325	-3.003800	3.842000	-11.540000	22.373798	0.000954	20.800687
226.043939	-2.980700	3.841000	-11.448000	22.379740	0.000954	20.799525
227.045464	-3.000600	3.843300	-11.530000	22.378695	0.000956	20.791366
228.044660	-3.007400	3.840700	-11.550000	22.366099	0.000952	20.784443
229.042212	-3.012600	3.841500	-11.572000	22.371911	0.000954	20.789315
230.043874	-2.989200	3.839500	-11.475000	22.370687	0.000956	20.803262
231.043315	-2.998600	3.842100	-11.519000	22.374181	0.000957	20.813872
232.042803	-3.003200	3.840800	-11.532000	22.372385	0.000957	20.793582
233.045450	-2.988500	3.840000	-11.475000	22.397063	0.000958	20.771353
234.043845	-3.001800	3.840100	-11.526000	22.412664	0.000956	20.797882
235.050887	-3.006000	3.839600	-11.541000	22.403864	0.000959	20.787173
236.046832	-2.994400	3.840000	-11.498000	22.417276	0.000959	20.808190
237.046441	-3.011400	3.838400	-11.558000	22.426093	0.000958	20.802795
238.048577	-2.993800	3.838400	-11.489000	22.428990	0.000960	20.787679
239.044664	-2.999800	3.840100	-11.519000	22.435366	0.000959	20.797857
240.050867	-3.011700	3.837300	-11.556000	22.427276	0.000961	20.807772
241.045944	-2.989600	3.838300	-11.474000	22.420590	0.000961	20.806293
242.045426	-2.994100	3.839500	-11.494000	22.415333	0.000959	20.833270
243.046773	-3.000000	3.836700	-11.508000	22.438200	0.000960	20.805910
244.053370	-3.020100	3.836900	-11.587000	22.450738	0.000961	20.818466
245.047132	-3.014000	3.836200	-11.560000	22.450248	0.000960	20.802328
246.051250	-2.999700	3.837400	-11.510000	22.437334	0.000961	20.804569
247.047094	-2.985900	3.837300	-11.456000	22.461979	0.000961	20.816921
248.046011	-3.011200	3.835900	-11.549000	22.436517	0.000963	20.803751
249.061690	-2.973900	3.838200	-11.412000	22.448526	0.000963	20.796336
250.046458	-3.001400	3.836200	-11.513000	22.482443	0.000964	20.834570
251.055528	-2.986600	3.835700	-11.454000	22.483913	0.000963	20.796688
252.052656	-2.981700	3.837500	-11.441000	22.488745	0.000966	20.805321
253.048270	-2.986100	3.837100	-11.457000	22.492133	0.000965	20.790695
254.049647	-2.990300	3.836100	-11.470000	22.511194	0.000966	20.814052
255.050982	-2.996600	3.836200	-11.494000	22.517994	0.000966	20.824181
256.060786	-3.003600	3.834500	-11.517000	22.542374	0.000967	20.776527
257.048578	-2.986400	3.835600	-11.453000	22.507259	0.000967	20.800154
258.051705	-3.029300	3.833900	-11.613000	22.539053	0.000969	20.808762
259.050879	-3.002800	3.835000	-11.515000	22.551983	0.000968	20.802272
260.062015	-2.991800	3.834700	-11.472000	22.545705	0.000967	20.814477
261.053702	-3.004900	3.833700	-11.520000	22.582959	0.000968	20.816226
262.055386	-2.994400	3.833600	-11.478000	22.554627	0.000971	20.800179
263.053950	-3.024900	3.833500	-11.594000	22.568658	0.000969	20.807593
264.052830	-3.009100	3.833000	-11.533000	22.574444	0.000972	20.797267
265.053307	-3.016800	3.831300	-11.557000	22.603112	0.000971	20.804168
266.060946	-3.007400	3.833400	-11.528000	22.591088	0.000973	20.800660
267.060507	-3.002400	3.833300	-11.507000	22.598623	0.000970	20.800621
268.061494	-2.999000	3.832500	-11.492000	22.594885	0.000971	20.800670
269.055025	-3.007200	3.830600	-11.517000	22.603136	0.000973	20.803245
270.061161	-2.976500	3.833400	-11.409000	22.608326	0.000974	20.799908
271.052084	-2.999700	3.831000	-11.490000	22.603659	0.000972	20.799975
272.054258	-2.998200	3.831700	-11.487000	22.602116	0.000975	20.769032
273.062346	-3.009100	3.830300	-11.524000	22.604083	0.000976	20.781433
274.059803	-3.004500	3.831700	-11.510000	22.614417	0.000976	20.766179
275.053334	-3.031400	3.829900	-11.610000	22.597708	0.000976	20.800653
276.056159	-2.994500	3.831800	-11.473000	22.633956	0.000976	20.800923
277.054837	-3.031300	3.829700	-11.609000	22.651889	0.000976	20.806556
278.054010	-3.017100	3.828800	-11.552000	22.640363	0.000979	20.793590
279.070128	-2.978700	3.829800	-11.407000	22.631736	0.000979	20.791587
280.056898	-2.997900	3.829400	-11.479000	22.636463	0.000978	20.783519
281.059454	-2.991700	3.829500	-11.456000	22.666711	0.000979	20.774935
282.067534	-2.987800	3.829700	-11.441000	22.657064	0.000979	20.794671
283.062061	-3.019400	3.827100	-11.555000	22.667233	0.000979	20.780200
284.057320	-3.002700	3.830300	-11.500000	22.700418	0.000982	20.785939
285.059026	-3.009700	3.828500	-11.521000	22.687841	0.000981	20.776660
286.058630	-3.012400	3.828500	-11.530000	22.681687	0.000981	20.774289
287.066270	-3.005700	3.827300	-11.503000	22.699945	0.000982	20.779775
288.062525	-2.984200	3.828200	-11.422000	22.713501	0.000982	20.792405
289.057806	-3.013100	3.826300	-11.527000	22.720250	0.000982	20.779726
290.060625	-2.978300	3.827700	-11.399000	22.727049	0.000983	20.786536
291.059471	-3.004100	3.827100	-11.496000	22.712350	0.000986	20.761381
292.057446	-3.012700	3.826600	-11.527000	22.732239	0.000984	20.763759
293.060029	-3.023800	3.826700	-11.570000	22.741036	0.000985	20.747915
294.057891	-2.992600	3.827600	-11.454000	22.750944	0.000986	20.786291
295.058118	-2.990800	3.827000	-11.443000	22.752463	0.000985	20.769319
296.070476	-2.990400	3.825900	-11.440000	22.737642	0.000988	20.776284
297.065494	-3.002800	3.825600	-11.486000	22.760313	0.000987	20.765803
298.072167	-3.003700	3.826300	-11.492000	22.771999	0.000987	20.769449
299.057329	-3.018900	3.824500	-11.545000	22.770678	0.000988	20.759590
300.061907	-2.997100	3.824400	-11.461000	22.749654	0.000989	20.769351
301.060878	-2.988300	3.826300	-11.433000	22.739609	0.000989	20.773987
302.061978	-2.988800	3.825000	-11.431000	22.718862	0.000991	20.754627
303.074014	-2.999200	3.824400	-11.469000	22.724819	0.000988	20.767233
304.069430	-2.983500	3.824500	-11.410000	22.742309	0.000992	20.745871
305.066259	-2.990700	3.825000	-11.438000	22.752747	0.000990	20.753956
306.067058	-2.992200	3.824100	-11.442000	22.773329	0.000992	20.771255
307.066476	-3.002500	3.823400	-11.478000	22.780568	0.000992	20.753851
308.061118	-3.011800	3.822300	-11.511000	22.786754	0.000994	20.777591
309.071523	-2.994500	3.824200	-11.451000	22.790964	0.000993	20.766162
310.075357	-2.980100	3.823800	-11.395000	22.822400	0.000996	20.752608
311.064756	-2.986600	3.823300	-11.417000	22.789088	0.000995	20.747687
312.065413	-2.987900	3.824300	-11.425000	22.810167	0.000996	20.773545
313.069494	-2.992200	3.823600	-11.439000	22.819013	0.000994	20.752534
314.063393	-3.003100	3.822100	-11.477000	22.810511	0.000995	20.766302
315.071371	-3.008400	3.821700	-11.496000	22.819339	0.000996	20.762818
316.064189	-3.005300	3.821300	-11.483000	22.841251	0.000996	20.759639
317.073077	-3.009600	3.822600	-11.503000	22.838517	0.000996	20.767806
318.065144	-3.007400	3.821300	-11.491000	22.825215	0.000996	20.754480
319.067774	-2.988900	3.821800	-11.422000	22.836820	0.000996	20.759941
320.065094	-3.001400	3.819600	-11.463000	22.824734	0.000999	20.753998
321.074294	-2.996800	3.820800	-11.449000	22.825460	0.000997	20.773218
322.081035	-3.002800	3.820500	-11.471000	22.828675	0.001000	20.760317
323.071692	-3.017500	3.820500	-11.527000	22.820752	0.001001	20.748112
324.063382	-2.988300	3.821100	-11.418000	22.840052	0.000998	20.756541
325.066846	-2.996500	3.820500	-11.448000	22.840663	0.000999	20.732970
326.065078	-2.993100	3.819400	-11.430000	22.840410	0.000999	20.719914
327.069623	-3.008700	3.818400	-11.488000	22.864615	0.001000	20.747009
328.066973	-2.998900	3.819000	-11.451000	22.831645	0.001003	20.738635
329.064857	-2.996000	3.818400	-11.439000	22.840214	0.001002	20.749591
330.067714	-2.999100	3.818600	-11.452000	22.834983	0.001002	20.766636
331.066350	-3.011600	3.818800	-11.498000	22.844319	0.001003	20.746117
332.071790	-2.995200	3.817800	-11.434000	22.844947	0.001003	20.754332
333.070228	-3.001600	3.818500	-11.461000	22.871027	0.001001	20.739682
334.066190	-2.982700	3.819000	-11.390000	22.873622	0.001004	20.755084
335.074380	-3.006300	3.816100	-11.470000	22.875988	0.001005	20.744178
336.071586	-3.025600	3.815800	-11.545000	22.863707	0.001005	20.747522
337.068460	-2.998800	3.816400	-11.444000	22.848464	0.001005	20.749320
338.067086	-3.000900	3.816700	-11.453000	22.868072	0.001004	20.745731
339.074553	-2.990200	3.817200	-11.413000	22.865453	0.001007	20.741684
340.066597	-2.999600	3.814600	-11.441000	22.883438	0.001005	20.757332
341.064426	-2.997700	3.816000	-11.438000	22.902492	0.001008	20.753187
342.064960	-3.001900	3.815600	-11.453000	22.904908	0.001008	20.730476
343.068375	-2.999300	3.814400	-11.439000	22.911435	0.001008	20.759302
344.081062	-2.999500	3.814800	-11.441000	22.924256	0.001009	20.738481
345.085921	-3.017200	3.814600	-11.509000	22.944859	0.001008	20.743476
346.081745	-2.983500	3.814600	-11.379000	22.947828	0.001009	20.734596
347.078985	-3.009700	3.812800	-11.474000	22.961195	0.001008	20.707683
348.068783	-2.998400	3.814500	-11.436000	22.953475	0.001009	20.747367
349.075546	-3.000200	3.814700	-11.442000	22.946229	0.001009	20.735840
350.071641	-3.005800	3.813800	-11.462000	22.979472	0.001011	20.760612
351.070056	-2.981600	3.815300	-11.374000	22.986350	0.001009	20.754227
352.069458	-2.995200	3.814000	-11.422000	22.994820	0.001010	20.771248
353.078540	-3.019900	3.811900	-11.510000	22.979602	0.001015	20.745095
354.071670	-3.002700	3.812500	-11.446000	23.007148	0.001012	20.733338
355.071122	-2.996100	3.811900	-11.419000	23.005280	0.001011	20.737156
356.076452	-2.996500	3.810900	-11.419000	23.023466	0.001013	20.737835
357.080057	-2.988200	3.811900	-11.389000	23.017167	0.001014	20.731049
358.068958	-2.996500	3.812500	-11.422000	23.012761	0.001013	20.724737
359.082392	-3.007600	3.811400	-11.463000	23.038658	0.001014	20.743574
360.078965	-3.013000	3.811400	-11.483000	23.011660	0.001013	20.749239
361.072511	-2.999600	3.811300	-11.431000	23.022870	0.001013	20.724435
362.070498	-2.984500	3.811300	-11.374000	23.002448	0.001013	20.742854
363.070272	-2.991600	3.810400	-11.398000	23.011096	0.001015	20.731604
364.074196	-3.001300	3.809300	-11.433000	23.017949	0.001016	20.726616
365.079694	-2.986800	3.811400	-11.383000	23.035981	0.001017	20.731881
366.076444	-3.019700	3.809200	-11.501000	23.023660	0.001018	20.734709
367.085228	-2.984900	3.809200	-11.368000	23.016856	0.001017	20.739746
368.071855	-2.988200	3.810100	-11.384000	23.036910	0.001018	20.726174
369.077500	-3.012000	3.807700	-11.468000	23.028588	0.001021	20.760511
370.078341	-2.996700	3.807700	-11.408000	23.034120	0.001016	20.725275
371.074245	-3.013500	3.807900	-11.474000	23.029966	0.001019	20.718268
372.079992	-3.002200	3.808200	-11.432000	23.036998	0.001020	20.734323
373.071942	-3.016300	3.808000	-11.485000	23.028122	0.001022	20.733016
374.077904	-2.979100	3.808400	-11.344000	23.027737	0.001020	20.721250
375.074317	-2.994800	3.806200	-11.398000	23.030047	0.001022	20.719297
376.092411	-3.013400	3.806100	-11.468000	23.013320	0.001021	20.710597
377.073700	-3.016200	3.805200	-11.476000	22.995158	0.001019	20.728911
378.076827	-3.018900	3.805900	-11.489000	23.021021	0.001020	20.724953
379.076989	-2.999500	3.805900	-11.415000	23.044087	0.001022	20.722933
380.077385	-2.996700	3.805200	-11.401000	23.028993	0.001022	20.725828
381.076927	-3.010900	3.804700	-11.455000	23.000974	0.001022	20.720513
382.075060	-3.010400	3.804500	-11.452000	23.014453	0.001023	20.740657
383.085711	-2.988000	3.804600	-11.367000	23.021477	0.001020	20.720194
384.086483	-2.994900	3.806000	-11.398000	23.000932	0.001024	20.715255
385.077613	-2.987500	3.804900	-11.366000	23.007818	0.001021	20.725948
386.082539	-3.013700	3.803900	-11.463000	23.008683	0.001021	20.732505
387.076620	-3.011500	3.803800	-11.454000	23.017348	0.001024	20.731230
388.077882	-3.005200	3.803600	-11.429000	23.023206	0.001025	20.720503
389.075250	-3.004400	3.803000	-11.424000	23.015659	0.001024	20.721002
390.076483	-2.993300	3.803200	-11.383000	23.053247	0.001025	20.708403
391.084226	-3.004000	3.803500	-11.425000	23.058102	0.001027	20.722277
392.086892	-2.985100	3.802300	-11.348000	23.100014	0.001024	20.719228
393.084015	-3.008000	3.802700	-11.438000	23.097581	0.001026	20.702565
394.081958	-3.020100	3.801800	-11.481000	23.058551	0.001027	20.720830
395.078339	-2.983200	3.803200	-11.344000	23.070626	0.001025	20.707324
396.094681	-2.999300	3.801600	-11.401000	23.069589	0.001027	20.727149
397.081166	-3.013800	3.801100	-11.455000	23.076736	0.001030	20.712499
398.080524	-2.997300	3.801800	-11.393000	23.112976	0.001028	20.708034
399.078291	-2.998200	3.801900	-11.396000	23.120442	0.001029	20.722629
400.077996	-2.997200	3.800500	-11.389000	23.116379	0.001030	20.708600
401.079449	-2.991900	3.799400	-11.367000	23.158769	0.001031	20.687064
402.083745	-2.989600	3.799700	-11.359000	23.134220	0.001031	20.711305
403.090142	-3.004600	3.798100	-11.410000	23.163011	0.001031	20.715499
404.083256	-2.982700	3.799700	-11.332000	23.169806	0.001031	20.699548
405.091294	-2.999800	3.798800	-11.394000	23.179743	0.001032	20.711877
406.082327	-2.996500	3.798500	-11.381000	23.183504	0.001031	20.709482
407.087314	-3.016000	3.796900	-11.450000	23.184327	0.001030	20.709833
408.081156	-2.984100	3.798900	-11.334000	23.189410	0.001032	20.704968
409.080950	-3.005000	3.796500	-11.407000	23.183339	0.001031	20.711214
410.081211	-2.995000	3.796600	-11.371000	23.182116	0.001032	20.705246
411.092042	-2.989600	3.797500	-11.352000	23.177605	0.001031	20.710209
412.087193	-3.007400	3.797100	-11.419000	23.185860	0.001034	20.687659
413.099220	-3.003400	3.796200	-11.400000	23.190111	0.001032	20.707568
414.081202	-2.979000	3.797000	-11.310000	23.225800	0.001032	20.710617
415.083116	-2.997500	3.797000	-11.380000	23.224977	0.001032	20.706472
416.093828	-2.999500	3.796300	-11.387000	23.247222	0.001033	20.715015
417.084759	-3.009500	3.795300	-11.421000	23.268316	0.001032	20.709128
418.088331	-2.973300	3.795900	-11.285000	23.256937	0.001034	20.691084
419.080955	-2.989700	3.795900	-11.347000	23.247057	0.001033	20.713902
420.095435	-3.009800	3.794700	-11.420000	23.260746	0.001034	20.697273
421.096395	-3.002000	3.793700	-11.388000	23.274450	0.001034	20.703420
422.090837	-2.993300	3.794400	-11.357000	23.280853	0.001035	20.700354
423.085970	-3.018600	3.794100	-11.450000	23.277418	0.001035	20.689799
424.085610	-3.005500	3.793000	-11.399000	23.295936	0.001033	20.717843
425.088157	-3.004700	3.793800	-11.399000	23.307453	0.001035	20.690027
426.083253	-2.990000	3.794200	-11.343000	23.324239	0.001036	20.701637
427.086744	-2.998800	3.794500	-11.378000	23.312566	0.001034	20.702740
428.088707	-3.038300	3.792300	-11.521000	23.319060	0.001035	20.694074
429.100543	-3.009000	3.793900	-11.415000	23.323619	0.001034	20.695799
430.087048	-2.996900	3.792800	-11.365000	23.329402	0.001037	20.691163
431.094154	-3.005400	3.791800	-11.395000	23.325649	0.001036	20.685030
432.089911	-2.996400	3.790800	-11.357000	23.322134	0.001035	20.692887
433.090458	-3.004500	3.790000	-11.386000	23.322288	0.001036	20.674549
434.087210	-2.996000	3.791800	-11.359000	23.328463	0.001038	20.710138
435.092237	-2.972200	3.791000	-11.266000	23.355436	0.001037	20.676477
436.093912	-2.999700	3.789500	-11.367000	23.357108	0.001037	20.697121
437.088933	-2.992900	3.790700	-11.344000	23.373544	0.001037	20.694627
438.089274	-3.004500	3.790500	-11.387000	23.369310	0.001039	20.696548
439.096567	-3.016100	3.787900	-11.423000	23.384848	0.001036	20.696949
440.090259	-3.008000	3.788700	-11.395000	23.386822	0.001039	20.689443
441.094527	-3.013900	3.788200	-11.416000	23.366259	0.001038	20.685428
442.090081	-3.010600	3.788000	-11.403000	23.355157	0.001041	20.677146
443.097897	-3.009600	3.788700	-11.402000	23.359317	0.001039	20.675625
444.092347	-3.007300	3.788300	-11.391000	23.328093	0.001040	20.667089
445.094624	-3.011300	3.786900	-11.403000	23.336388	0.001039	20.668291
446.089663	-3.005000	3.787500	-11.379000	23.313157	0.001042	20.672509
447.095263	-3.002900	3.786600	-11.370000	23.332905	0.001042	20.680922
448.103429	-2.992700	3.787200	-11.331000	23.341469	0.001043	20.680023
449.099449	-3.000300	3.787500	-11.362000	23.320180	0.001043	20.699465
450.097749	-2.997500	3.786200	-11.348000	23.340278	0.001042	20.688313
451.091780	-3.016300	3.785000	-11.416000	23.343524	0.001041	20.682082
452.095723	-2.991000	3.787000	-11.326000	23.323149	0.001042	20.677308
453.095078	-3.023500	3.784500	-11.442000	23.352358	0.001040	20.670546
454.100217	-3.015400	3.783900	-11.409000	23.343597	0.001043	20.672197
455.101202	-2.994500	3.785700	-11.336000	23.373605	0.001044	20.692792
456.099034	-3.016400	3.785100	-11.416000	23.388849	0.001042	20.669662
457.097421	-3.001100	3.784900	-11.358000	23.393702	0.001045	20.671682
458.097207	-2.993300	3.784800	-11.328000	23.390244	0.001045	20.669163
459.094814	-3.004300	3.783700	-11.367000	23.393531	0.001044	20.656335
460.096996	-3.010400	3.783100	-11.388000	23.389021	0.001045	20.670782
461.113502	-3.005400	3.783400	-11.369000	23.411042	0.001046	20.666301
462.095822	-2.990600	3.782500	-11.310000	23.401279	0.001043	20.649401
463.104489	-2.997300	3.782900	-11.338000	23.413179	0.001044	20.670814
464.095226	-2.999700	3.781600	-11.342000	23.425935	0.001043	20.691188
465.114986	-2.988300	3.783700	-11.305000	23.423464	0.001045	20.680176
466.099404	-2.998400	3.781800	-11.338000	23.455810	0.001047	20.674190
467.099484	-3.005600	3.780600	-11.363000	23.427900	0.001047	20.673716
468.101042	-3.015300	3.781000	-11.401000	23.420363	0.001046	20.673274
469.109982	-2.994400	3.781700	-11.322000	23.420111	0.001044	20.670650
470.103642	-3.021500	3.778600	-11.416000	23.446773	0.001045	20.680306
471.103457	-2.999000	3.781000	-11.338000	23.456494	0.001049	20.650217
472.100855	-3.031000	3.779500	-11.455000	23.444938	0.001049	20.649065
473.101677	-3.014300	3.781200	-11.395000	23.464413	0.001048	20.664321
474.114272	-3.017000	3.779400	-11.401000	23.454504	0.001047	20.661500
475.110274	-3.001300	3.779800	-11.342000	23.454553	0.001048	20.636890
476.104002	-2.980300	3.780100	-11.266000	23.429310	0.001047	20.651893
477.105698	-2.986300	3.778300	-11.282000	23.396546	0.001048	20.663625
478.105182	-3.008400	3.777900	-11.365000	23.395673	0.001048	20.665122
479.103113	-3.028100	3.777700	-11.438000	23.400453	0.001050	20.649996
480.104458	-2.997300	3.778300	-11.323000	23.406701	0.001049	20.651517
481.106258	-2.998800	3.777200	-11.325000	23.425599	0.001047	20.649596
482.118279	-3.010600	3.776800	-11.368000	23.420224	0.001050	20.652743
483.117299	-2.997600	3.777700	-11.323000	23.467374	0.001046	20.682463
484.118411	-2.997300	3.776800	-11.319000	23.461249	0.001049	20.643128
485.110248	-3.002200	3.776400	-11.337000	23.501611	0.001047	20.661303
486.110180	-2.992700	3.777300	-11.303000	23.480195	0.001049	20.664018
487.112845	-2.986800	3.777500	-11.281000	23.504173	0.001050	20.664345
488.109050	-3.012200	3.774800	-11.369000	23.451869	0.001051	20.654591
489.106675	-2.995100	3.775900	-11.308000	23.467007	0.001051	20.658384
490.103780	-3.034000	3.774100	-11.449000	23.474225	0.001050	20.659456
491.105274	-2.995800	3.776300	-11.312000	23.481769	0.001052	20.652792
492.107912	-3.000700	3.772800	-11.319000	23.493342	0.001050	20.642106
493.108947	-3.022900	3.773100	-11.403000	23.483163	0.001052	20.649922
494.112223	-3.008800	3.773400	-11.351000	23.509359	0.001052	20.668122
495.125397	-2.999700	3.773700	-11.318000	23.507981	0.001050	20.656782
496.118230	-2.989600	3.773500	-11.280000	23.524814	0.001051	20.661328
497.111821	-2.998600	3.772800	-11.312000	23.500991	0.001050	20.661156
498.113352	-3.014300	3.772000	-11.369000	23.479313	0.001052	20.654124
499.108750	-3.001600	3.771700	-11.319000	23.450867	0.001052	20.676348
500.114423	-3.002000	3.772400	-11.324000	23.437857	0.001050	20.642915
501.108763	-3.003300	3.772500	-11.330000	23.458695	0.001051	20.653846
502.112490	-2.983800	3.771800	-11.253000	23.450769	0.001052	20.666291
503.126526	-2.988900	3.772100	-11.274000	23.470521	0.001051	20.651001
504.115721	-2.977700	3.770000	-11.225000	23.479737	0.001051	20.676837
505.120381	-3.002200	3.770300	-11.319000	23.503682	0.001051	20.650102
506.116138	-2.978900	3.770000	-11.228000	23.525441	0.001054	20.662905
507.118433	-2.994700	3.770900	-11.292000	23.538441	0.001053	20.671195
508.125895	-2.984300	3.770100	-11.250000	23.546408	0.001051	20.667802
509.117128	-2.975100	3.770700	-11.217000	23.549614	0.001053	20.640667
510.111701	-2.988800	3.769400	-11.264000	23.558380	0.001054	20.653724
511.114327	-2.996200	3.768600	-11.290000	23.567294	0.001054	20.668824
512.127846	-3.013700	3.767800	-11.354000	23.570597	0.001053	20.674982
513.121811	-3.008800	3.767900	-11.335000	23.584738	0.001052	20.643161
514.125494	-2.988500	3.768200	-11.259000	23.597394	0.001054	20.660591
515.122800	-3.007400	3.767100	-11.328000	23.594654	0.001053	20.659741
516.121165	-3.010200	3.767000	-11.338000	23.586907	0.001054	20.678055
517.116543	-2.998800	3.767200	-11.296000	23.559880	0.001055	20.650959
518.120617	-2.985700	3.766900	-11.246000	23.586164	0.001052	20.652178
519.120310	-3.003300	3.767400	-11.314000	23.563485	0.001054	20.665955
520.127749	-2.997300	3.765300	-11.284000	23.533711	0.001054	20.664082
521.125834	-3.018900	3.765900	-11.368000	23.524552	0.001054	20.664859
522.118999	-2.999600	3.764700	-11.292000	23.510736	0.001054	20.670451
523.120935	-3.000800	3.765000	-11.296000	23.498960	0.001054	20.680458
524.125306	-3.010800	3.764200	-11.331000	23.498340	0.001054	20.687424
525.130545	-2.984900	3.764500	-11.236000	23.489328	0.001055	20.668431
526.122648	-2.986100	3.763900	-11.238000	23.512783	0.001054	20.653534
527.123760	-2.991600	3.764300	-11.261000	23.576558	0.001055	20.661515
528.124218	-2.990000	3.764700	-11.256000	23.586466	0.001055	20.669552
529.123096	-3.015000	3.762300	-11.343000	23.609699	0.001058	20.669134
530.127703	-2.988400	3.764200	-11.248000	23.626652	0.001055	20.661947
531.136638	-2.989300	3.762500	-11.246000	23.647438	0.001053	20.666191
532.133081	-3.012700	3.762000	-11.333000	23.651891	0.001055	20.660697
533.120529	-2.981000	3.762100	-11.215000	23.677332	0.001056	20.658702
534.125633	-2.992900	3.762600	-11.259000	23.684875	0.001054	20.661997
535.129823	-3.001000	3.762200	-11.290000	23.675693	0.001053	20.671758
536.125574	-2.992700	3.761800	-11.256000	23.675073	0.001055	20.673982
537.131235	-2.990900	3.760700	-11.247000	23.696601	0.001055	20.670908
538.139329	-2.996000	3.761200	-11.267000	23.705293	0.001054	20.670613
539.128303	-3.009700	3.759800	-11.315000	23.715175	0.001055	20.685739
540.130047	-2.998700	3.760400	-11.275000	23.712240	0.001054	20.660508
541.138014	-3.003300	3.760200	-11.291000	23.705489	0.001056	20.677923
542.123047	-3.020200	3.759600	-11.354000	23.736033	0.001057	20.681046
543.124732	-3.002900	3.759000	-11.287000	23.720997	0.001055	20.675454
544.128359	-3.000500	3.759400	-11.279000	23.710169	0.001056	20.666019
545.126554	-3.019200	3.757700	-11.344000	23.689409	0.001056	20.664645
546.136627	-2.995800	3.758100	-11.257000	23.710372	0.001053	20.677129
547.127676	-3.013000	3.757500	-11.321000	23.717165	0.001058	20.669240
548.124310	-3.004100	3.757900	-11.288000	23.729339	0.001055	20.674333
549.130800	-2.990000	3.757300	-11.233000	23.738503	0.001056	20.679255
550.130398	-2.993600	3.758000	-11.249000	23.752120	0.001056	20.669198
551.125737	-2.989000	3.756700	-11.228000	23.736709	0.001055	20.690260
552.136560	-2.994300	3.755700	-11.244000	23.698132	0.001056	20.677660
553.126598	-2.988400	3.757400	-11.228000	23.692979	0.001056	20.682926
554.125334	-3.021800	3.754500	-11.344000	23.679239	0.001055	20.678633
555.130909	-2.994400	3.754600	-11.242000	23.671223	0.001055	20.686245
556.131930	-2.995100	3.755400	-11.246000	23.655689	0.001057	20.692957
557.138272	-2.966000	3.755800	-11.137000	23.645880	0.001054	20.703512
558.126123	-2.996600	3.754600	-11.250000	23.628755	0.001053	20.680179
559.130592	-2.992300	3.755400	-11.236000	23.605555	0.001056	20.671618
560.128914	-2.992800	3.754600	-11.236000	23.603712	0.001057	20.700119
561.128050	-2.996700	3.754700	-11.250000	23.607268	0.001057	20.691355
562.132232	-3.013900	3.752300	-11.307000	23.611745	0.001057	20.681618
563.133367	-2.999400	3.752900	-11.254000	23.618024	0.001057	20.683645
564.127409	-3.020400	3.752700	-11.333000	23.618847	0.001057	20.686368
565.129327	-2.995300	3.752100	-11.237000	23.655910	0.001057	20.679901
566.141136	-2.982000	3.754700	-11.195000	23.679558	0.001057	20.701714
567.136787	-3.002700	3.750700	-11.261000	23.718167	0.001055	20.687316
568.130089	-3.013600	3.750400	-11.301000	23.721355	0.001057	20.689564
569.126537	-3.003000	3.751100	-11.264000	23.748361	0.001056	20.683923
570.128583	-3.015200	3.750200	-11.305000	23.753637	0.001057	20.694429
571.135899	-2.999700	3.750000	-11.248000	23.748557	0.001055	20.692181
572.129420	-2.968600	3.750700	-11.134000	23.726134	0.001058	20.676336
573.130371	-2.993600	3.750200	-11.226000	23.742767	0.001056	20.676417
574.144996	-2.996900	3.748800	-11.234000	23.763046	0.001055	20.710028
575.131425	-3.014400	3.748400	-11.298000	23.779850	0.001058	20.701272
576.136887	-3.019600	3.748000	-11.316000	23.823087	0.001055	20.689147
577.130893	-3.004500	3.747800	-11.259000	23.815562	0.001057	20.697724
578.140668	-2.979500	3.749500	-11.171000	23.804914	0.001055	20.685149
579.137241	-3.004100	3.747900	-11.258000	23.774827	0.001056	20.703822
580.148100	-3.017700	3.747500	-11.308000	23.811191	0.001055	20.708041
581.130547	-2.995500	3.748300	-11.227000	23.834811	0.001054	20.689049
582.135467	-3.010500	3.747800	-11.281000	23.803674	0.001055	20.701451
583.140983	-3.001400	3.747800	-11.248000	23.797600	0.001056	20.700577
584.133820	-3.001500	3.746400	-11.244000	23.821717	0.001057	20.695835
585.135461	-3.016800	3.746000	-11.300000	23.801187	0.001054	20.714606
586.135435	-2.989000	3.746100	-11.196000	23.810498	0.001057	20.695965
587.136452	-2.996100	3.745400	-11.220000	23.807759	0.001055	20.701754
588.137914	-3.001400	3.745200	-11.240000	23.833792	0.001057	20.703201
589.134017	-2.989600	3.744300	-11.192000	23.802304	0.001057	20.703871
590.135822	-3.014400	3.745200	-11.289000	23.844325	0.001056	20.697166
591.144586	-3.004700	3.745100	-11.252000	23.852700	0.001056	20.705564
592.133015	-3.012500	3.742900	-11.274000	23.864406	0.001057	20.700233
593.146220	-3.007500	3.742400	-11.254000	23.883044	0.001054	20.715129
594.140526	-3.016700	3.742600	-11.289000	23.887829	0.001055	20.710444
595.133204	-3.006600	3.743300	-11.253000	23.889909	0.001056	20.705417
596.141891	-2.994900	3.743300	-11.209000	23.903076	0.001056	20.690643
597.151472	-3.010200	3.741700	-11.262000	23.904722	0.001055	20.703675
598.136698	-2.987200	3.742600	-11.179000	23.883941	0.001054	20.729305
599.139439	-3.005600	3.743100	-11.249000	23.877419	0.001054	20.709962
600.146218	-2.991600	3.741700	-11.193000	23.883468	0.001054	20.715554
601.140668	-2.994300	3.741100	-11.201000	23.893374	0.001056	20.695139
602.138850	-2.972900	3.742900	-11.126000	23.921762	0.001056	20.710805
603.144012	-3.019800	3.740100	-11.294000	23.924778	0.001056	20.699604
604.139803	-3.008100	3.740700	-11.252000	23.918949	0.001056	20.699449
605.138659	-3.018800	3.741000	-11.292000	23.934830	0.001055	20.703520
606.136898	-3.029200	3.738000	-11.322000	23.908270	0.001055	20.702490
607.144294	-3.012500	3.740400	-11.268000	23.913520	0.001054	20.700169
608.155495	-2.992100	3.740300	-11.191000	23.918175	0.001055	20.729969
609.149436	-2.988000	3.740100	-11.172000	23.944524	0.001053	20.699965
610.153790	-3.008100	3.738500	-11.245000	23.935817	0.001055	20.714942
611.138870	-3.005300	3.738300	-11.234000	23.931334	0.001054	20.695272
612.150420	-2.968800	3.737600	-11.095000	23.940937	0.001054	20.718180
613.137740	-3.011100	3.736800	-11.250000	23.941998	0.001055	20.719244
614.141270	-2.993300	3.737200	-11.185000	23.949539	0.001055	20.713529
615.145851	-3.005800	3.736200	-11.229000	23.927543	0.001054	20.702851
616.157113	-3.012900	3.736500	-11.257000	23.961458	0.001056	20.721214
617.144532	-2.958600	3.738100	-11.058000	23.963373	0.001057	20.714600
618.142943	-3.008900	3.736300	-11.241000	23.962126	0.001053	20.724730
619.157054	-2.988200	3.737400	-11.167000	24.013916	0.001053	20.713603
620.143257	-2.982000	3.736200	-11.140000	24.030302	0.001052	20.737624
621.145161	-2.975800	3.735500	-11.116000	24.039586	0.001052	20.710898
622.143721	-2.978800	3.736600	-11.129000	24.053738	0.001052	20.720824
623.143773	-3.013300	3.734800	-11.253000	24.054064	0.001054	20.729686
624.147939	-2.979700	3.734800	-11.128000	24.028313	0.001054	20.722352
625.149251	-3.005500	3.734200	-11.221000	24.021588	0.001053	20.721298
626.144304	-3.003800	3.734100	-11.215000	23.998526	0.001055	20.732310
627.163373	-2.988600	3.733100	-11.156000	23.996203	0.001053	20.739938
628.151771	-2.993200	3.733500	-11.174000	24.008766	0.001054	20.748269
629.145208	-3.019400	3.732500	-11.268000	24.024515	0.001052	20.726605
630.145785	-3.027900	3.732100	-11.299000	24.051685	0.001052	20.717342
631.153428	-2.999300	3.732400	-11.193000	24.047398	0.001050	20.730587
632.163633	-3.009800	3.732600	-11.232000	24.033736	0.001053	20.735852
633.164390	-3.009700	3.730700	-11.227000	24.032293	0.001054	20.739621
634.146387	-3.024100	3.731200	-11.282000	24.042989	0.001053	20.745132
635.147963	-2.982500	3.731500	-11.127000	24.042582	0.001052	20.743776
636.152111	-3.003500	3.731300	-11.206000	24.049201	0.001051	20.752311
637.153415	-3.012900	3.730200	-11.238000	24.077869	0.001052	20.752613
638.157575	-2.988100	3.731100	-11.148000	24.078661	0.001051	20.743923
639.150006	-3.010300	3.730100	-11.228000	24.103213	0.001053	20.745788
640.143727	-2.997000	3.730200	-11.179000	24.091100	0.001051	20.733638
641.151314	-3.011100	3.728700	-11.226000	24.082239	0.001051	20.721433
642.152966	-2.994500	3.728800	-11.165000	24.065065	0.001050	20.751151
643.146999	-3.006000	3.729900	-11.211000	24.056351	0.001052	20.745731
644.145345	-2.979900	3.729800	-11.112000	24.027788	0.001052	20.745060
645.149341	-3.003300	3.727900	-11.194000	24.033486	0.001050	20.751723
646.158546	-3.012600	3.727600	-11.229000	24.025025	0.001051	20.748927
647.161904	-3.018800	3.727200	-11.250000	24.035149	0.001049	20.778048
648.150012	-3.001400	3.728700	-11.190000	24.044377	0.001050	20.746050
649.148975	-3.016100	3.726400	-11.238000	24.067764	0.001049	20.748168
650.150050	-2.992900	3.728200	-11.157000	24.074726	0.001049	20.759418
651.157342	-2.991500	3.726500	-11.147000	24.112026	0.001049	20.759369
652.151006	-3.000600	3.725900	-11.179000	24.111431	0.001050	20.763514
653.151969	-2.987400	3.726900	-11.133000	24.137604	0.001050	20.759892
654.149385	-2.991700	3.727000	-11.148000	24.142356	0.001051	20.770823
655.147503	-2.989200	3.727100	-11.140000	24.187536	0.001049	20.771567
656.155822	-2.991800	3.726200	-11.146000	24.148102	0.001050	20.750981
657.152692	-2.975200	3.725400	-11.083000	24.153971	0.001048	20.755919
658.163846	-3.006000	3.725200	-11.197000	24.162334	0.001052	20.743444
659.161368	-3.030200	3.722900	-11.278000	24.141753	0.001049	20.754096
660.149896	-2.993000	3.724600	-11.147000	24.151380	0.001049	20.768493
661.151414	-2.988400	3.723800	-11.127000	24.162032	0.001050	20.756418
662.150393	-2.997200	3.723900	-11.159000	24.140825	0.001049	20.780193
663.153733	-3.009500	3.724300	-11.207000	24.153817	0.001048	20.755290
664.154273	-3.006800	3.722700	-11.193000	24.169312	0.001050	20.757556
665.164990	-2.994400	3.723900	-11.150000	24.194840	0.001048	20.751866
666.149511	-3.001200	3.722100	-11.169000	24.194661	0.001049	20.768282
667.157589	-3.000000	3.722400	-11.166000	24.220954	0.001047	20.778060
668.166200	-2.988100	3.722000	-11.120000	24.262332	0.001050	20.760295
669.158604	-2.968700	3.722500	-11.049000	24.220107	0.001048	20.777210
670.159605	-2.988000	3.721600	-11.120000	24.234036	0.001048	20.777905
671.149191	-3.011400	3.720600	-11.202000	24.230132	0.001048	20.756919
672.159214	-2.989400	3.721400	-11.124000	24.198957	0.001047	20.765953
673.160887	-3.006400	3.720200	-11.182000	24.196292	0.001046	20.776082
674.163368	-2.990800	3.720500	-11.126000	24.218632	0.001046	20.766248
675.152847	-3.005700	3.718900	-11.177000	24.228226	0.001047	20.773500
676.162347	-3.018000	3.719500	-11.225000	24.208519	0.001048	20.778864
677.152324	-2.983700	3.720700	-11.101000	24.202178	0.001047	20.793840
678.158440	-2.998500	3.719200	-11.151000	24.188917	0.001047	20.772952
679.156743	-3.008400	3.718700	-11.186000	24.211191	0.001047	20.785811
680.152052	-2.999200	3.719400	-11.154000	24.193458	0.001046	20.796474
681.156794	-2.962600	3.718800	-11.016000	24.200304	0.001045	20.791012
682.154302	-2.991600	3.717500	-11.120000	24.211096	0.001045	20.780026
683.158731	-3.003000	3.716800	-11.160000	24.203589	0.001045	20.787194
684.158766	-2.992500	3.718000	-11.125000	24.226598	0.001046	20.776134
685.162871	-2.990900	3.717100	-11.116000	24.237519	0.001045	20.774761
686.166244	-2.996800	3.716100	-11.134000	24.222515	0.001047	20.784367
687.157686	-2.996700	3.716100	-11.134000	24.234455	0.001046	20.766946
688.158627	-2.978100	3.717800	-11.070000	24.261024	0.001045	20.796442
689.169229	-2.986900	3.715900	-11.098000	24.228782	0.001045	20.791128
690.175577	-3.012800	3.714400	-11.190000	24.249231	0.001044	20.788880
691.166473	-3.007300	3.715200	-11.171000	24.229142	0.001044	20.789118
692.176275	-3.026200	3.715000	-11.241000	24.235817	0.001044	20.783011
693.160755	-2.978200	3.716600	-11.068000	24.213224	0.001045	20.794489
694.164274	-2.981800	3.715500	-11.078000	24.220266	0.001043	20.804871
695.172318	-3.018600	3.714300	-11.211000	24.198398	0.001043	20.787678
696.164644	-3.000400	3.714000	-11.142000	24.220087	0.001043	20.791889
697.177549	-2.959900	3.715600	-10.997000	24.202597	0.001042	20.787622
698.160303	-2.987600	3.714000	-11.095000	24.216281	0.001043	20.806563
699.164762	-2.977200	3.714300	-11.058000	24.208399	0.001044	20.824736
700.168988	-3.006500	3.714000	-11.165000	24.178740	0.001043	20.797358
701.164033	-3.020200	3.711900	-11.208000	24.176278	0.001043	20.808165
702.165005	-3.002300	3.712100	-11.144000	24.152136	0.001044	20.795805
703.163887	-3.002500	3.712700	-11.147000	24.146015	0.001042	20.811477
704.167833	-2.997800	3.711500	-11.124000	24.151166	0.001041	20.786772
705.177164	-3.005600	3.712600	-11.157000	24.199736	0.001044	20.807512
706.168347	-3.007800	3.710800	-11.160000	24.212524	0.001041	20.817493
707.165328	-3.015500	3.711100	-11.189000	24.212948	0.001044	20.812703
708.170179	-3.016300	3.711800	-11.195000	24.228897	0.001041	20.809261
709.174217	-3.017400	3.710000	-11.193000	24.211635	0.001041	20.807119
710.175194	-3.009500	3.710200	-11.165000	24.189777	0.001039	20.788988
711.171151	-2.987900	3.711200	-11.087000	24.165552	0.001041	20.813054
712.171122	-3.001100	3.709400	-11.132000	24.181201	0.001040	20.812629
713.169217	-2.999100	3.709400	-11.124000	24.199466	0.001039	20.809138
714.171927	-3.019300	3.709100	-11.198000	24.203689	0.001039	20.812899
715.175599	-2.976200	3.708900	-11.037000	24.208000	0.001039	20.821016
716.175359	-2.992500	3.709100	-11.099000	24.220266	0.001041	20.814828
717.169554	-2.986700	3.708400	-11.075000	24.237007	0.001039	20.806490
718.173021	-2.984100	3.709800	-11.069000	24.252354	0.001040	20.801021
719.176655	-2.995500	3.707600	-11.105000	24.219940	0.001039	20.808811
720.171620	-3.014800	3.707900	-11.177000	24.246804	0.001039	20.814894
721.177747	-3.029900	3.706700	-11.230000	24.230462	0.001039	20.815572
722.168230	-2.996400	3.707300	-11.107000	24.262614	0.001036	20.817476
723.173583	-2.980400	3.707700	-11.050000	24.269200	0.001037	20.809858
724.169489	-2.987300	3.706900	-11.072000	24.248849	0.001038	20.788971
725.176760	-2.995300	3.706000	-11.099000	24.245736	0.001037	20.782055
726.175489	-2.976400	3.706100	-11.030000	24.250691	0.001037	20.805991
727.176191	-3.006900	3.705100	-11.139000	24.259371	0.001037	20.783404
728.175758	-3.009400	3.705300	-11.150000	24.269102	0.001037	20.799328
729.169747	-2.975900	3.705300	-11.025000	24.263226	0.001037	20.790590
730.169446	-2.970300	3.705600	-11.006000	24.269347	0.001037	20.779185
731.181318	-3.008400	3.705600	-11.147000	24.259395	0.001038	20.795282
732.183466	-3.017300	3.703700	-11.173000	24.259143	0.001035	20.786020
733.175609	-2.996400	3.704200	-11.099000	24.281059	0.001036	20.781450
734.182694	-2.973800	3.704100	-11.014000	24.295418	0.001034	20.782104
735.184138	-3.020300	3.704300	-11.188000	24.305499	0.001036	20.795061
736.180441	-2.984400	3.704000	-11.053000	24.313926	0.001034	20.783126
737.181547	-2.992400	3.704000	-11.083000	24.293544	0.001037	20.793501
738.181403	-2.994700	3.703400	-11.089000	24.290537	0.001037	20.796648
739.175487	-3.018000	3.702300	-11.172000	24.274416	0.001034	20.780952
740.182351	-3.038000	3.701600	-11.245000	24.243390	0.001032	20.791555
741.175781	-2.997800	3.701300	-11.094000	24.247522	0.001034	20.773414
742.178880	-2.996000	3.702500	-11.091000	24.254833	0.001036	20.776955
743.174023	-3.004300	3.700200	-11.114000	24.234555	0.001035	20.769891
744.181167	-3.001800	3.699900	-11.104000	24.267823	0.001035	20.782399
745.177925	-2.993600	3.700700	-11.078000	24.218140	0.001035	20.767651
746.173969	-3.002100	3.700000	-11.106000	24.186289	0.001034	20.779799
747.175801	-2.993500	3.701000	-11.078000	24.181740	0.001034	20.779979
748.187660	-3.003900	3.698900	-11.110000	24.161356	0.001034	20.780871
749.175703	-2.987800	3.700000	-11.053000	24.154493	0.001034	20.780625
750.180309	-3.006200	3.699800	-11.122000	24.169670	0.001033	20.768346
751.173989	-2.977200	3.699000	-11.012000	24.158299	0.001033	20.773063
752.177160	-3.009400	3.698800	-11.130000	24.143098	0.001033	20.770618
753.177948	-3.009900	3.698700	-11.132000	24.185245	0.001032	20.768321
754.184047	-2.996200	3.698300	-11.080000	24.208693	0.001032	20.768606
755.185963	-3.015200	3.697400	-11.147000	24.226201	0.001032	20.765304
756.177891	-2.981400	3.697600	-11.023000	24.229902	0.001031	20.750524
757.188091	-2.980500	3.698000	-11.020000	24.258320	0.001032	20.746787
758.176378	-2.991900	3.697100	-11.060000	24.288516	0.001030	20.768542
759.177150	-3.001400	3.697100	-11.096000	24.302036	0.001030	20.768353
760.184346	-2.979400	3.698000	-11.017000	24.316713	0.001030	20.777861
761.178956	-3.021900	3.695500	-11.166000	24.292501	0.001030	20.773488
762.179052	-3.021000	3.695900	-11.164000	24.298524	0.001030	20.754873
763.180220	-2.991700	3.696400	-11.056000	24.311408	0.001030	20.759737
764.178310	-3.014900	3.695200	-11.140000	24.367330	0.001027	20.762255
765.178138	-3.017500	3.695500	-11.149000	24.336639	0.001027	20.766555
766.180233	-3.001400	3.694500	-11.087000	24.345840	0.001029	20.745913
767.184686	-3.023300	3.693100	-11.165000	24.362187	0.001029	20.756622
768.193721	-3.029800	3.693900	-11.190000	24.350216	0.001026	20.744613
769.182827	-2.975000	3.694400	-10.989000	24.320112	0.001027	20.744760
770.195058	-2.993900	3.693800	-11.058000	24.292330	0.001028	20.742021
771.185995	-3.003200	3.693300	-11.090000	24.278173	0.001027	20.755796
772.192839	-2.992800	3.694500	-11.056000	24.300096	0.001027	20.759769
773.180870	-3.012700	3.692100	-11.122000	24.275590	0.001028	20.738979
774.186033	-2.979400	3.694200	-11.004000	24.292183	0.001028	20.744244
775.186394	-2.996100	3.693200	-11.064000	24.286510	0.001026	20.765108
776.196147	-2.995800	3.693800	-11.064000	24.305197	0.001028	20.741652
777.187018	-2.984400	3.693100	-11.021000	24.296290	0.001027	20.760693
778.185119	-2.998200	3.692200	-11.069000	24.296339	0.001026	20.769277
779.187279	-2.986200	3.691800	-11.023000	24.333061	0.001026	20.736886
780.192551	-3.005400	3.691500	-11.094000	24.303787	0.001025	20.753040
781.189979	-3.000600	3.690900	-11.074000	24.270943	0.001025	20.732422
782.200750	-2.998000	3.690800	-11.064000	24.241433	0.001025	20.757349
783.196998	-3.008700	3.688500	-11.095000	24.257088	0.001026	20.744129
784.185266	-3.003500	3.689700	-11.080000	24.270373	0.001023	20.754610
785.188969	-3.010600	3.690400	-11.109000	24.260552	0.001024	20.731955
786.189452	-2.987600	3.689100	-11.021000	24.253160	0.001023	20.722643
787.187085	-2.996500	3.688700	-11.052000	24.251342	0.001023	20.749745
788.196068	-3.002900	3.689800	-11.079000	24.241220	0.001024	20.749074
789.199885	-3.016300	3.687800	-11.122000	24.281326	0.001021	20.733353
790.193065	-2.986000	3.687800	-11.011000	24.300706	0.001020	20.742362
791.195959	-2.999800	3.688700	-11.064000	24.352104	0.001021	20.735601
792.194449	-2.991400	3.687900	-11.031000	24.365216	0.001021	20.735004
793.197374	-2.991000	3.687600	-11.029000	24.380397	0.001023	20.732215
794.190567	-3.008300	3.687200	-11.091000	24.394618	0.001022	20.747905
795.189053	-2.996000	3.685600	-11.041000	24.389069	0.001019	20.737122
796.193057	-2.981000	3.686100	-10.987000	24.385075	0.001018	20.727899
797.189961	-2.998500	3.686800	-11.054000	24.325275	0.001021	20.715324
798.200586	-2.992700	3.686700	-11.032000	24.324396	0.001019	20.735780
799.193577	-3.001100	3.686300	-11.062000	24.339308	0.001020	20.716599
800.190439	-2.996600	3.686000	-11.045000	24.381098	0.001018	20.736712
801.193089	-2.999600	3.686000	-11.056000	24.373844	0.001019	20.737970
802.207801	-2.991500	3.685800	-11.025000	24.388072	0.001019	20.739441
803.195413	-2.992100	3.685400	-11.026000	24.412373	0.001020	20.718300
804.194344	-3.000500	3.684700	-11.055000	24.407793	0.001019	20.736466
805.192441	-3.004200	3.684200	-11.066000	24.425467	0.001019	20.723850
806.201100	-3.008500	3.682500	-11.078000	24.441659	0.001018	20.719705
807.195354	-2.961600	3.684800	-10.911000	24.446255	0.001017	20.730481
808.201494	-3.032700	3.682700	-11.167000	24.442775	0.001018	20.713238
809.199255	-3.007200	3.683600	-11.076000	24.460294	0.001016	20.716590
810.208857	-2.992200	3.682400	-11.017000	24.409356	0.001017	20.721437
811.194630	-3.012900	3.683000	-11.096000	24.443654	0.001016	20.723130
812.195202	-3.017000	3.681700	-11.106000	24.419102	0.001017	20.737854
813.203713	-2.999000	3.682700	-11.043000	24.459723	0.001017	20.728820
814.198041	-2.979600	3.684100	-10.976000	24.454833	0.001016	20.719172
815.198720	-3.014200	3.681000	-11.093000	24.466176	0.001015	20.719172
816.198376	-2.995900	3.681400	-11.028000	24.466844	0.001015	20.743077
817.208435	-2.996700	3.680300	-11.027000	24.442815	0.001015	20.714226
818.199311	-3.017500	3.679600	-11.102000	24.431129	0.001014	20.700605
819.196243	-3.021000	3.679100	-11.114000	24.449022	0.001013	20.711445
820.199703	-3.004500	3.680300	-11.056000	24.423868	0.001014	20.703752
821.201387	-3.002100	3.680100	-11.047000	24.401654	0.001014	20.718926
822.194231	-3.011800	3.678800	-11.078000	24.446750	0.001013	20.691620
823.196100	-2.999100	3.680700	-11.037000	24.430989	0.001013	20.704258
824.201080	-2.982800	3.679400	-10.972000	24.438747	0.001012	20.704455
825.192929	-2.991200	3.679400	-11.005000	24.435186	0.001015	20.712263
826.199093	-2.996200	3.680400	-11.026000	24.453332	0.001011	20.693482
827.197521	-3.019800	3.677300	-11.103000	24.467910	0.001013	20.706212
828.197628	-3.017100	3.676100	-11.089000	24.490017	0.001012	20.726970
829.199211	-3.009700	3.677700	-11.066000	24.480100	0.001010	20.698052
830.199985	-3.024200	3.676200	-11.117000	24.446642	0.001013	20.717592
831.197070	-2.989000	3.678100	-10.992000	24.468179	0.001011	20.709801
832.198744	-3.003500	3.677300	-11.044000	24.480597	0.001010	20.686222
833.200767	-2.996200	3.675800	-11.011000	24.482063	0.001010	20.700971
834.198790	-2.984700	3.677700	-10.975000	24.498661	0.001011	20.690121
835.203366	-2.998600	3.677100	-11.024000	24.510133	0.001010	20.707322
836.203343	-3.019300	3.676200	-11.099000	24.515975	0.001009	20.710814
837.198758	-3.004900	3.675500	-11.044000	24.480986	0.001007	20.692777
838.204482	-3.016200	3.675300	-11.084000	24.469041	0.001010	20.694544
839.200551	-3.001600	3.675100	-11.030000	24.427059	0.001008	20.705057
840.198750	-2.997500	3.673700	-11.011000	24.429317	0.001007	20.688355
841.206046	-3.001300	3.675200	-11.030000	24.436389	0.001007	20.691183
842.203367	-2.998500	3.675000	-11.018000	24.464420	0.001010	20.679001
843.200206	-2.984600	3.674900	-10.968000	24.443153	0.001008	20.691804
844.199245	-2.998000	3.673900	-11.013000	24.469269	0.001008	20.699514
845.201083	-2.980000	3.674700	-10.949000	24.513945	0.001006	20.675109
846.199807	-2.995500	3.674100	-11.005000	24.492287	0.001006	20.697952
847.207182	-3.011900	3.673200	-11.061000	24.502180	0.001006	20.687487
848.198270	-3.003400	3.671500	-11.027000	24.509619	0.001007	20.704435
849.198773	-3.013600	3.672300	-11.064000	24.550268	0.001006	20.694959
850.199060	-2.988600	3.673200	-10.977000	24.553723	0.001005	20.705539
851.204655	-3.009300	3.671300	-11.046000	24.563948	0.001004	20.672647
852.202859	-2.997200	3.671300	-11.003000	24.559369	0.001004	20.694608
853.206770	-2.980800	3.669700	-10.937000	24.556485	0.001005	20.682704
854.205023	-3.004200	3.670300	-11.025000	24.555222	0.001006	20.694239
855.203627	-3.009200	3.671400	-11.047000	24.534803	0.001005	20.688925
856.210252	-2.996200	3.670500	-10.996000	24.565146	0.001003	20.684755
857.203807	-2.989000	3.670800	-10.971000	24.553153	0.001004	20.688844
858.202663	-3.030600	3.669300	-11.119000	24.563378	0.001003	20.681559
859.205483	-2.988200	3.669700	-10.964000	24.560567	0.001004	20.665935
860.204852	-3.009000	3.669800	-11.041000	24.566563	0.001004	20.685704
861.203605	-3.003800	3.669200	-11.020000	24.561137	0.001001	20.680259
862.208214	-3.013300	3.668400	-11.051000	24.586908	0.001005	20.702325
863.203837	-3.000200	3.668600	-11.006000	24.605134	0.001003	20.676514
864.205217	-3.020900	3.668400	-11.081000	24.637218	0.001001	20.697330
865.208423	-3.012800	3.667400	-11.048000	24.640673	0.001002	20.686571
866.205723	-3.010000	3.668100	-11.038000	24.665195	0.001002	20.690315
867.209229	-3.007200	3.668100	-11.029000	24.675843	0.001000	20.688672
868.212226	-3.005100	3.667800	-11.021000	24.676308	0.001001	20.681077
869.206702	-3.012600	3.667300	-11.048000	24.654425	0.000999	20.679033
870.207947	-2.985700	3.667100	-10.948000	24.629878	0.000999	20.696129
871.211546	-2.987700	3.666700	-10.953000	24.609534	0.001000	20.678084
872.217366	-2.984100	3.667300	-10.942000	24.597248	0.001000	20.661961
873.209210	-2.989200	3.666700	-10.959000	24.596947	0.001000	20.660711
874.210345	-2.976700	3.666700	-10.912000	24.563468	0.000998	20.694927
875.212591	-2.994100	3.665800	-10.973000	24.562646	0.000999	20.682721
876.212914	-3.007000	3.664800	-11.019000	24.563941	0.000997	20.675959
877.213087	-3.007400	3.665400	-11.023000	24.581230	0.000999	20.654423
878.213995	-3.022000	3.664100	-11.072000	24.583446	0.000999	20.680357
879.215882	-3.003300	3.664000	-11.003000	24.553975	0.000999	20.675917
880.213283	-2.989600	3.664900	-10.955000	24.559516	0.000997	20.686694
881.214311	-3.038000	3.662600	-11.126000	24.574190	0.000998	20.658266
882.214696	-3.018500	3.662600	-11.054000	24.566686	0.000998	20.671126
883.215725	-3.019100	3.663400	-11.058000	24.556412	0.000997	20.687372
884.215175	-3.004500	3.662500	-11.003000	24.527308	0.000996	20.675713
885.213694	-3.012600	3.663500	-11.035000	24.524301	0.000996	20.671274
886.214286	-2.989000	3.662400	-10.946000	24.543481	0.000996	20.671077
887.214338	-3.016500	3.662800	-11.046000	24.546414	0.000996	20.648888
888.215288	-2.999900	3.663000	-10.988000	24.575591	0.000997	20.688124
889.216184	-3.004200	3.662900	-11.002000	24.606706	0.000995	20.657227
890.216125	-3.008300	3.662100	-11.015000	24.630603	0.000995	20.667930
891.213764	-2.976900	3.661300	-10.898000	24.650253	0.000992	20.680537
892.219100	-3.006500	3.660200	-11.003000	24.631279	0.000991	20.671453
893.215423	-3.003200	3.661700	-10.995000	24.569847	0.000994	20.644897
894.215928	-3.005100	3.660000	-10.997000	24.551164	0.000992	20.668829
895.215853	-2.991100	3.661400	-10.950000	24.529426	0.000994	20.660767
896.215871	-2.996200	3.659000	-10.962000	24.506098	0.000992	20.664863
897.216877	-3.008300	3.659400	-11.007000	24.542560	0.000993	20.656875
898.217641	-2.989100	3.660500	-10.941000	24.542609	0.000992	20.669254
899.216174	-3.008900	3.659800	-11.009000	24.562286	0.000990	20.636361
900.215025	-2.999900	3.658400	-10.973000	24.578426	0.000991	20.673424
901.216013	-3.006900	3.659100	-11.002000	24.566539	0.000990	20.655330
902.216874	-2.993600	3.658100	-10.949000	24.545273	0.000991	20.671927
903.215988	-2.986800	3.658200	-10.925000	24.525653	0.000990	20.654136
904.217643	-2.991300	3.658000	-10.940000	24.508412	0.000989	20.655330
905.218866	-2.999900	3.657100	-10.970000	24.485198	0.000991	20.663335
906.220559	-3.012800	3.656100	-11.013000	24.458854	0.000989	20.650180
907.216530	-3.014500	3.655900	-11.019000	24.447886	0.000989	20.660988
908.220845	-3.005100	3.657000	-10.989000	24.503044	0.000991	20.658006
909.221760	-3.012900	3.655700	-11.013000	24.494439	0.000987	20.664546
910.220958	-3.011000	3.656600	-11.009000	24.540444	0.000989	20.675143
911.221364	-3.017500	3.656300	-11.032000	24.548796	0.000990	20.656969
912.220834	-3.003100	3.655100	-10.976000	24.591785	0.000991	20.640830
913.221478	-2.993500	3.656800	-10.945000	24.607697	0.000990	20.680035
914.221458	-3.010900	3.655800	-11.005000	24.626039	0.000988	20.658133
915.226410	-3.007900	3.654500	-10.991000	24.652021	0.000989	20.651012
916.220726	-2.997000	3.654200	-10.951000	24.634505	0.000986	20.656197
917.223609	-2.994500	3.655000	-10.944000	24.656454	0.000988	20.669688
918.221942	-3.035100	3.652200	-11.083000	24.665922	0.000987	20.642201
919.220635	-2.995900	3.653300	-10.944000	24.648603	0.000986	20.662283
920.221230	-3.004900	3.652700	-10.974000	24.642918	0.000986	20.674123
921.220897	-3.030600	3.652100	-11.067000	24.596699	0.000985	20.681801
922.219683	-3.007100	3.651900	-10.980000	24.588560	0.000986	20.652295
923.226017	-2.988000	3.653700	-10.917000	24.563654	0.000983	20.667136
924.221515	-3.004600	3.652100	-10.972000	24.571208	0.000985	20.656696
925.221136	-3.019900	3.652000	-11.028000	24.626612	0.000982	20.663450
926.227780	-3.004000	3.652200	-10.970000	24.626612	0.000983	20.639739
927.227591	-3.017800	3.651000	-11.018000	24.622807	0.000983	20.669116
928.224798	-2.970500	3.652900	-10.850000	24.617766	0.000981	20.665954
929.226494	-2.990700	3.652200	-10.921000	24.566827	0.000982	20.661310
930.223825	-2.995000	3.651000	-10.933000	24.554835	0.000981	20.671089
931.225082	-2.990500	3.652500	-10.921000	24.537122	0.000980	20.653315
932.228635	-3.013900	3.650500	-11.001000	24.575246	0.000983	20.651263
933.227504	-3.016300	3.649600	-11.007000	24.599412	0.000980	20.655123
934.226999	-3.035100	3.649100	-11.074000	24.619553	0.000980	20.659212
935.234287	-2.999100	3.650100	-10.946000	24.620498	0.000982	20.671067
936.227311	-2.998100	3.649700	-10.940000	24.643799	0.000979	20.659834
937.228315	-3.014200	3.649000	-10.998000	24.645553	0.000979	20.642150
938.229627	-2.996700	3.649200	-10.934000	24.686410	0.000979	20.647588
939.231879	-2.977300	3.648100	-10.859000	24.702696	0.000979	20.653025
940.230195	-2.983200	3.649300	-10.885000	24.733954	0.000978	20.653573
941.234827	-3.005100	3.646200	-10.956000	24.742533	0.000978	20.673090
942.228959	-3.004100	3.646700	-10.954000	24.759665	0.000978	20.673212
943.231105	-3.006400	3.647100	-10.963000	24.750102	0.000978	20.665512
944.233057	-2.989300	3.647200	-10.902000	24.716034	0.000977	20.645072
945.232677	-3.001200	3.646600	-10.942000	24.693371	0.000976	20.650780
946.231035	-2.977900	3.647000	-10.859000	24.717045	0.000977	20.669323
947.233678	-2.983400	3.646300	-10.877000	24.692076	0.000976	20.679355
948.234508	-2.999100	3.644500	-10.929000	24.703335	0.000975	20.646554
949.232202	-3.006700	3.645500	-10.960000	24.660564	0.000975	20.669070
950.235070	-3.020400	3.645000	-11.007000	24.635015	0.000975	20.653864
951.236768	-3.003100	3.644000	-10.941000	24.630486	0.000976	20.661648
952.234952	-3.008800	3.643200	-10.960000	24.591835	0.000974	20.670282
953.238552	-3.021000	3.642100	-11.001000	24.616579	0.000973	20.685628
954.236236	-3.015200	3.645000	-10.988000	24.622298	0.000974	20.661967
955.237287	-2.996500	3.643500	-10.916000	24.665918	0.000973	20.664011
956.236671	-2.989000	3.644000	-10.891000	24.646391	0.000973	20.658166
957.238777	-3.002500	3.642600	-10.935000	24.634374	0.000972	20.662704
958.236822	-3.005900	3.643300	-10.950000	24.641284	0.000973	20.653041
959.239246	-2.998400	3.643600	-10.924000	24.595398	0.000972	20.664847
960.235045	-3.004100	3.642200	-10.941000	24.582019	0.000973	20.649999
961.235881	-2.995400	3.641500	-10.906000	24.585572	0.000972	20.661152
962.242267	-3.017600	3.640800	-10.985000	24.608353	0.000972	20.666466
963.238868	-3.037200	3.640500	-11.055000	24.604817	0.000969	20.671454
964.235690	-3.007000	3.642000	-10.949000	24.612882	0.000972	20.679547
965.239675	-3.007000	3.640600	-10.946000	24.624485	0.000969	20.656574
966.237422	-3.010400	3.640400	-10.957000	24.646295	0.000969	20.659493
967.238768	-2.998900	3.640400	-10.915000	24.642736	0.000971	20.681054
968.240972	-3.002200	3.641300	-10.930000	24.631720	0.000969	20.677113
969.239722	-3.018900	3.639900	-10.988000	24.640894	0.000970	20.661660
970.237692	-2.994700	3.639900	-10.899000	24.665784	0.000966	20.680000
971.238473	-3.021000	3.637500	-10.988000	24.636113	0.000968	20.663975
972.238871	-2.974800	3.640800	-10.830000	24.647128	0.000969	20.668865
973.241830	-2.996400	3.638300	-10.901000	24.665109	0.000967	20.662250
974.239454	-2.982000	3.639000	-10.850000	24.683064	0.000967	20.649921
975.239718	-3.018700	3.638300	-10.982000	24.661826	0.000967	20.683140
976.240353	-2.994100	3.640300	-10.898000	24.694226	0.000968	20.680565
977.240969	-3.006400	3.637500	-10.933000	24.710585	0.000964	20.673747
978.245205	-3.009700	3.637600	-10.947000	24.681094	0.000966	20.665015
979.241214	-3.001900	3.638400	-10.920000	24.659977	0.000966	20.652833
980.240291	-2.999800	3.637600	-10.911000	24.647569	0.000965	20.689224
981.239914	-2.992400	3.637600	-10.885000	24.627568	0.000963	20.672946
982.240644	-3.008400	3.636400	-10.938000	24.628366	0.000963	20.653356
983.241281	-3.022200	3.637200	-10.991000	24.636963	0.000963	20.667199
984.241875	-3.017800	3.635000	-10.969000	24.649525	0.000963	20.664157
985.240962	-2.979400	3.636900	-10.835000	24.637639	0.000961	20.684948
986.240601	-2.990100	3.635200	-10.868000	24.640099	0.000961	20.670821
987.242363	-2.985500	3.635800	-10.854000	24.653330	0.000962	20.682202
988.242096	-2.993300	3.635500	-10.882000	24.646568	0.000961	20.677786
989.243013	-3.006900	3.635500	-10.931000	24.644678	0.000961	20.669251
990.246952	-2.997200	3.634500	-10.893000	24.625524	0.000962	20.681327
991.245811	-2.978400	3.635500	-10.827000	24.652507	0.000961	20.680902
992.244846	-2.988800	3.634100	-10.860000	24.639749	0.000961	20.679479
993.244618	-2.989600	3.633900	-10.863000	24.674919	0.000959	20.681106
994.246122	-3.023200	3.631500	-10.978000	24.652752	0.000960	20.675931
995.244521	-3.006100	3.632700	-10.919000	24.635447	0.000959	20.668049
996.246943	-3.003100	3.633000	-10.909000	24.622682	0.000958	20.669939
997.245914	-2.999600	3.633400	-10.898000	24.634047	0.000958	20.657160
998.246408	-3.004500	3.632300	-10.910000	24.633599	0.000960	20.662401
999.247353	-3.007300	3.629600	-10.913000	24.683939	0.000961	20.677354
1000.248072	-2.998200	3.632100	-10.889000	24.651849	0.000958	20.687354
1001.249119	-2.989300	3.632100	-10.856000	24.647663	0.000957	20.705440
1002.248690	-3.006600	3.630500	-10.912000	24.688933	0.000956	20.669089
1003.249432	-2.992400	3.630400	-10.863000	24.694498	0.000956	20.692219
1004.249742	-3.013700	3.631300	-10.943000	24.690312	0.000955	20.669524
1005.251693	-2.998900	3.631000	-10.888000	24.702751	0.000954	20.667782
1006.249352	-2.994400	3.630300	-10.868000	24.726002	0.000955	20.693487
1007.248281	-3.003200	3.629800	-10.900000	24.751541	0.000954	20.705366
1008.248753	-2.995800	3.630500	-10.875000	24.784159	0.000953	20.678829
1009.248537	-3.024000	3.628000	-10.970000	24.807041	0.000954	20.698949
1010.248103	-3.005200	3.628500	-10.903000	24.805567	0.000951	20.691305
1011.252050	-2.998400	3.629000	-10.881000	24.807629	0.000951	20.694797
1012.248445	-3.009000	3.628400	-10.916000	24.808532	0.000949	20.689064
1013.248701	-3.009400	3.626900	-10.913000	24.788111	0.000950	20.696072
1014.250775	-3.006200	3.627300	-10.903000	24.810138	0.000951	20.687357
1015.255882	-2.998900	3.627700	-10.879000	24.817218	0.000952	20.681660
1016.250832	-2.992600	3.627300	-10.854000	24.827717	0.000951	20.702630
1017.251257	-2.977800	3.627500	-10.801000	24.824140	0.000950	20.687185
1018.251085	-2.989300	3.626700	-10.840000	24.829281	0.000950	20.692819
1019.250852	-3.011100	3.626600	-10.919000	24.826601	0.000949	20.688232
1020.253542	-3.006800	3.626100	-10.901000	24.830202	0.000948	20.687578
1021.253265	-2.991700	3.624900	-10.844000	24.839178	0.000951	20.693269
1022.251628	-3.001100	3.625100	-10.877000	24.848228	0.000948	20.701878
1023.263078	-2.995600	3.625300	-10.859000	24.846989	0.000949	20.699686
1024.253505	-2.983400	3.625600	-10.814000	24.844025	0.000946	20.709988
1025.255229	-3.000500	3.625200	-10.876000	24.833362	0.000948	20.687431
1026.254202	-2.978700	3.625900	-10.799000	24.834055	0.000948	20.688126
1027.254142	-2.988100	3.623500	-10.826000	24.841908	0.000947	20.686524
1028.254227	-2.991700	3.624600	-10.840000	24.851259	0.000947	20.714878
1029.255959	-3.006300	3.623400	-10.892000	24.867574	0.000946	20.699957
1030.253728	-2.988700	3.624400	-10.831000	24.909938	0.000947	20.684153
1031.254689	-2.984500	3.622700	-10.811000	24.914361	0.000945	20.693809
1032.258151	-2.995600	3.622600	-10.851000	24.920583	0.000945	20.701477
1033.254363	-2.987700	3.621800	-10.820000	24.941491	0.000947	20.702549
1034.254502	-2.988000	3.623100	-10.825000	24.951975	0.000945	20.694579
1035.258504	-2.977100	3.623400	-10.786000	24.920845	0.000944	20.706483
1036.257890	-3.018900	3.619700	-10.926000	24.911901	0.000944	20.708885
1037.257148	-3.016000	3.620800	-10.919000	24.926784	0.000946	20.716711
1038.259053	-2.989000	3.621000	-10.822000	24.930913	0.000945	20.693827
1039.255986	-3.028200	3.619300	-10.959000	24.968533	0.000942	20.712148
1040.256344	-3.008700	3.620600	-10.892000	24.983723	0.000943	20.722654
1041.258682	-3.025300	3.621300	-10.954000	24.968575	0.000941	20.705077
1042.257026	-2.999100	3.619800	-10.856000	25.015554	0.000940	20.701498
1043.256918	-3.019400	3.619000	-10.925000	24.991624	0.000940	20.697866
1044.259298	-2.987400	3.620400	-10.815000	24.970654	0.000939	20.700525
1045.257358	-3.005300	3.619600	-10.876000	24.973537	0.000940	20.688719
1046.257493	-2.992400	3.620200	-10.832000	24.981616	0.000939	20.686872
1047.260841	-2.997000	3.619900	-10.847000	25.005186	0.000939	20.710532
1048.258518	-3.007900	3.618500	-10.883000	25.002923	0.000938	20.710630
1049.258302	-2.999200	3.618600	-10.852000	25.021191	0.000938	20.722330
1050.261165	-2.985000	3.619500	-10.803000	25.010522	0.000940	20.704508
1051.261962	-3.008000	3.618100	-10.882000	25.000505	0.000937	20.712945
1052.263436	-3.012600	3.615900	-10.892000	24.966118	0.000937	20.687437
1053.264759	-3.002500	3.615500	-10.854000	24.980633	0.000936	20.709594
1054.263215	-3.000400	3.617500	-10.853000	24.973148	0.000938	20.709193
1055.261542	-2.981400	3.616900	-10.783000	24.993639	0.000937	20.723124
1056.266427	-2.986700	3.617000	-10.802000	24.988264	0.000937	20.724367
1057.262506	-2.982300	3.616700	-10.785000	25.013822	0.000935	20.722994
1058.264131	-2.985000	3.616100	-10.793000	25.004938	0.000936	20.727353
1059.268579	-3.002600	3.615100	-10.854000	25.009441	0.000934	20.715277
1060.265347	-2.992800	3.614700	-10.818000	25.019238	0.000935	20.717999
1061.263991	-3.019400	3.612100	-10.906000	25.003503	0.000935	20.703152
1062.269850	-3.000600	3.614600	-10.845000	25.020460	0.000933	20.704999
1063.263355	-2.997800	3.613700	-10.831000	24.984233	0.000932	20.712734
1064.265392	-3.008300	3.614600	-10.872000	24.973841	0.000933	20.736917
1065.267701	-3.000500	3.613600	-10.840000	24.992467	0.000934	20.725741
1066.269220	-2.986100	3.613900	-10.791000	24.980601	0.000931	20.714304
1067.265706	-2.988100	3.612300	-10.794000	24.990399	0.000930	20.738364
1068.268375	-2.966900	3.612300	-10.717000	24.966062	0.000932	20.725316
1069.268254	-3.024200	3.610800	-10.919000	24.937270	0.000929	20.736246
1070.267226	-2.994600	3.612100	-10.816000	24.913177	0.000931	20.731505
1071.270406	-3.002100	3.610600	-10.839000	24.943485	0.000930	20.721146
1072.268321	-3.011300	3.611800	-10.875000	24.949976	0.000928	20.723869
1073.267233	-2.969600	3.611300	-10.721000	24.972081	0.000931	20.735625
1074.266391	-2.996800	3.610900	-10.820000	24.989650	0.000927	20.740458
1075.265366	-3.015700	3.608800	-10.881000	24.983859	0.000929	20.726109
1076.266162	-2.997500	3.609800	-10.819000	24.989772	0.000929	20.736313
1077.267593	-3.011600	3.610000	-10.870000	24.976171	0.000928	20.727876
1078.266160	-2.998900	3.608700	-10.821000	25.022447	0.000926	20.735446
1079.265894	-2.996600	3.609100	-10.815000	25.035022	0.000926	20.733844
1080.266107	-2.979700	3.608900	-10.752000	25.010067	0.000927	20.733925
1081.265985	-2.994500	3.607900	-10.803000	24.993338	0.000923	20.729460
1082.267762	-2.977700	3.609000	-10.744000	24.977473	0.000924	20.729183
1083.266312	-2.994300	3.608900	-10.805000	24.932392	0.000924	20.747946
1084.266973	-2.994600	3.607900	-10.803000	24.928410	0.000924	20.745846
1085.267925	-3.001200	3.606400	-10.823000	24.900009	0.000922	20.731090
1086.267562	-3.006600	3.605500	-10.839000	24.874921	0.000924	20.747163
1087.267570	-2.993700	3.606800	-10.796000	24.857319	0.000923	20.759842
1088.268093	-2.987600	3.606800	-10.774000	24.853556	0.000922	20.732358
1089.271189	-3.006300	3.605600	-10.838000	24.869000	0.000921	20.725572
1090.268407	-2.999300	3.606200	-10.814000	24.843537	0.000919	20.747907
1091.269771	-2.993800	3.605900	-10.794000	24.856465	0.000920	20.714413
1092.269958	-2.985900	3.605600	-10.765000	24.880153	0.000923	20.750043
1093.270793	-3.013100	3.604900	-10.861000	24.907235	0.000921	20.739765
1094.270465	-3.006900	3.603300	-10.834000	24.946371	0.000918	20.735424
1095.270027	-3.013400	3.604700	-10.862000	24.984758	0.000919	20.738866
1096.269910	-2.997800	3.604200	-10.804000	24.982788	0.000916	20.757278
1097.271389	-3.011200	3.603400	-10.849000	24.995787	0.000918	20.743773
1098.270922	-3.013900	3.602700	-10.856000	24.988082	0.000916	20.755480
1099.273575	-2.986200	3.602900	-10.758000	25.017775	0.000916	20.756836
1100.272005	-2.990600	3.603200	-10.774000	25.065403	0.000916	20.747271
1101.272097	-3.012700	3.600800	-10.847000	25.042877	0.000917	20.757851
1102.272173	-3.004400	3.601200	-10.819000	25.055582	0.000916	20.764440
1103.274130	-2.972600	3.602800	-10.708000	25.080788	0.000916	20.746593
1104.273319	-3.020900	3.602000	-10.879000	25.096497	0.000915	20.760941
1105.275162	-3.013200	3.601700	-10.851000	25.105846	0.000915	20.744247
1106.276161	-3.006300	3.601800	-10.825000	25.119120	0.000915	20.762789
1107.274263	-3.013500	3.599400	-10.845000	25.132566	0.000914	20.756372
1108.274507	-3.002600	3.599600	-10.807000	25.116139	0.000912	20.761693
1109.276061	-3.010800	3.599500	-10.836000	25.107532	0.000914	20.754949
1110.276409	-3.006600	3.598500	-10.818000	25.084885	0.000912	20.761138
1111.276932	-2.993800	3.599200	-10.775000	25.080259	0.000912	20.754598
1112.279648	-2.989700	3.598300	-10.757000	25.086050	0.000911	20.774162
1113.276874	-3.000400	3.598600	-10.795000	25.108054	0.000911	20.774439
1114.278951	-3.007400	3.598100	-10.820000	25.116783	0.000910	20.767081
1115.277592	-2.983400	3.599000	-10.736000	25.143103	0.000909	20.761735
1116.277635	-3.007500	3.597200	-10.817000	25.169186	0.000909	20.755676
1117.285086	-2.993700	3.598500	-10.770000	25.167394	0.000909	20.776164
1118.280594	-2.980900	3.597300	-10.722000	25.137460	0.000909	20.767924
1119.281417	-3.025500	3.595300	-10.876000	25.115187	0.000909	20.765479
1120.283315	-3.003700	3.596900	-10.803000	25.056796	0.000910	20.756175
1121.281472	-2.990200	3.597300	-10.755000	25.037975	0.000906	20.766681
1122.282232	-3.019800	3.596100	-10.857000	25.023080	0.000906	20.746038
1123.283002	-2.995200	3.595100	-10.766000	24.971695	0.000907	20.771749
1124.280450	-3.000700	3.596000	-10.789000	24.990111	0.000906	20.765578
1125.282382	-3.002000	3.596100	-10.795000	25.001382	0.000906	20.774994
1126.282639	-3.005700	3.593900	-10.801000	24.982609	0.000905	20.765634
1127.282710	-2.998500	3.594100	-10.775000	25.017166	0.000905	20.765233
1128.283026	-2.982500	3.594700	-10.720000	25.010301	0.000904	20.781576
1129.284155	-3.009200	3.594200	-10.815000	25.043276	0.000903	20.773424
1130.282537	-3.010700	3.592300	-10.814000	25.081382	0.000904	20.780382
1131.283070	-2.966500	3.594800	-10.663000	25.078524	0.000903	20.788418
1132.284079	-2.979100	3.593500	-10.704000	25.097319	0.000901	20.768405
1133.283448	-3.021100	3.592400	-10.852000	25.127167	0.000903	20.785092
1134.282316	-3.007900	3.591900	-10.802000	25.155636	0.000902	20.759617
1135.286998	-2.998300	3.592100	-10.769000	25.164308	0.000903	20.778282
1136.281952	-2.998800	3.592300	-10.771000	25.165383	0.000903	20.765609
1137.283200	-2.978800	3.591900	-10.699000	25.153949	0.000900	20.783529
1138.284610	-2.978000	3.591200	-10.694000	25.174895	0.000900	20.756667
1139.284238	-3.003600	3.590500	-10.784000	25.197027	0.000899	20.777938
1140.284260	-2.990500	3.591200	-10.738000	25.187052	0.000898	20.763182
1141.287535	-2.994400	3.590500	-10.750000	25.211195	0.000899	20.784102
1142.286682	-3.009700	3.589200	-10.801000	25.257748	0.000898	20.784372
1143.287803	-2.999300	3.590700	-10.768000	25.253669	0.000896	20.792605
1144.288552	-3.004900	3.589200	-10.785000	25.257080	0.000897	20.778011
1145.287324	-2.999200	3.587500	-10.759000	25.248701	0.000898	20.771022
1146.290699	-2.988600	3.588500	-10.724000	25.267812	0.000897	20.787364
1147.288206	-2.999000	3.587400	-10.757000	25.223776	0.000897	20.795784
1148.288177	-2.989600	3.587700	-10.725000	25.189617	0.000894	20.802741
1149.290048	-3.006100	3.587500	-10.782000	25.189764	0.000894	20.823277
1150.288607	-3.013000	3.587200	-10.808000	25.202670	0.000893	20.795931
1151.289359	-3.014600	3.585000	-10.806000	25.199934	0.000895	20.786072
1152.287865	-3.003700	3.587200	-10.773000	25.207784	0.000894	20.783048
1153.287672	-3.024500	3.584800	-10.841000	25.184226	0.000893	20.794958
1154.287772	-3.002100	3.586000	-10.765000	25.172915	0.000894	20.813475
1155.291821	-2.971500	3.585400	-10.653000	25.178005	0.000892	20.795351
1156.290054	-3.005100	3.584300	-10.770000	25.167818	0.000891	20.793184
1157.291250	-2.982700	3.585500	-10.693000	25.150115	0.000892	20.777309
1158.289817	-2.991900	3.584800	-10.724000	25.132744	0.000890	20.792113
1159.289912	-2.983000	3.585700	-10.695000	25.163437	0.000891	20.789261
1160.290590	-2.992000	3.585100	-10.725000	25.157378	0.000890	20.805463
1161.292397	-2.997400	3.581900	-10.735000	25.202596	0.000890	20.796331
1162.291105	-2.999200	3.583700	-10.747000	25.234883	0.000890	20.800297
1163.290300	-3.001600	3.583000	-10.754000	25.208379	0.000888	20.814939
1164.290891	-2.990600	3.582800	-10.713000	25.235827	0.000888	20.797452
1165.291023	-2.997700	3.583200	-10.740000	25.254988	0.000888	20.798196
1166.292516	-2.985000	3.582700	-10.693000	25.292296	0.000886	20.806731
1167.291718	-3.011600	3.582500	-10.788000	25.300146	0.000886	20.796595
1168.295024	-3.012300	3.581300	-10.787000	25.277625	0.000884	20.799587
1169.291955	-3.003300	3.581600	-10.756000	25.249761	0.000886	20.795794
1170.293492	-3.026800	3.580000	-10.835000	25.201018	0.000884	20.806601
1171.293047	-3.008100	3.581400	-10.772000	25.175668	0.000885	20.805333
1172.293022	-3.005100	3.580500	-10.759000	25.153739	0.000883	20.795172
1173.294023	-3.022300	3.579000	-10.815000	25.150125	0.000885	20.842752
1174.294623	-3.023200	3.578800	-10.818000	25.144335	0.000882	20.819396
1175.292154	-3.010500	3.579000	-10.773000	25.163651	0.000881	20.831200
1176.295785	-2.959300	3.581000	-10.597000	25.158242	0.000882	20.817236
1177.294823	-3.001400	3.578300	-10.738000	25.180580	0.000883	20.830178
1178.294604	-2.966800	3.579400	-10.618000	25.140980	0.000883	20.834993
1179.294807	-2.957300	3.579300	-10.583000	25.125491	0.000881	20.823238
1180.295040	-3.000900	3.578500	-10.738000	25.099261	0.000883	20.812554
1181.295966	-2.978500	3.578100	-10.656000	25.073307	0.000879	20.812104
1182.298392	-2.989300	3.579100	-10.698000	25.083201	0.000880	20.811606
1183.296933	-3.000500	3.577400	-10.733000	25.112868	0.000881	20.811989
1184.300199	-3.002600	3.577500	-10.740000	25.139979	0.000878	20.819290
1185.297309	-3.000800	3.577300	-10.734000	25.160141	0.000880	20.818195
1186.297659	-3.008600	3.575600	-10.757000	25.150345	0.000878	20.808835
1187.304188	-2.996500	3.577000	-10.718000	25.142659	0.000878	20.821506
1188.300318	-3.001300	3.575300	-10.729000	25.169759	0.000877	20.802720
1189.298459	-2.991900	3.575600	-10.697000	25.213511	0.000877	20.805867
1190.300319	-2.987500	3.576000	-10.683000	25.228022	0.000876	20.828022
1191.302216	-3.002900	3.575400	-10.735000	25.235026	0.000874	20.804708
1192.300279	-2.998600	3.574200	-10.717000	25.240196	0.000875	20.835976
1193.301942	-3.010600	3.574000	-10.759000	25.230621	0.000875	20.806924
1194.301922	-2.993700	3.575800	-10.704000	25.213115	0.000874	20.816375
1195.300231	-2.996800	3.573400	-10.708000	25.211048	0.000874	20.802920
1196.302466	-3.023200	3.572500	-10.799000	25.232195	0.000874	20.803288
1197.301656	-2.999500	3.573000	-10.716000	25.243009	0.000873	20.812722
1198.300430	-2.996400	3.573500	-10.707000	25.244240	0.000871	20.809691
1199.301810	-3.027400	3.571400	-10.811000	25.235193	0.000872	20.804402
1200.304396	-3.004300	3.571700	-10.729000	25.221018	0.000872	20.816248
1201.302162	-2.984800	3.571900	-10.661000	25.234056	0.000873	20.797570
1202.303432	-2.986900	3.571000	-10.665000	25.255277	0.000871	20.795168
1203.306261	-3.016300	3.571100	-10.770000	25.279362	0.000869	20.799909
1204.303499	-3.011600	3.569300	-10.747000	25.264984	0.000869	20.791638
1205.304425	-3.014900	3.570200	-10.763000	25.259212	0.000868	20.787265
1206.305668	-2.995400	3.571100	-10.696000	25.252569	0.000869	20.791975
1207.304572	-3.000700	3.568400	-10.707000	25.242970	0.000867	20.783760
1208.307392	-2.997500	3.568900	-10.694000	25.239730	0.000868	20.802792
1209.305421	-2.982500	3.568800	-10.642000	25.207013	0.000867	20.802662
1210.306526	-2.987900	3.569300	-10.664000	25.222795	0.000867	20.801437
1211.308567	-2.997700	3.569200	-10.698000	25.268028	0.000867	20.798012
1212.305797	-3.007700	3.568300	-10.731000	25.258477	0.000866	20.769457
1213.308379	-2.986500	3.568800	-10.658000	25.264519	0.000866	20.794489
1214.308039	-3.017500	3.568500	-10.767000	25.250288	0.000867	20.811021
1215.306868	-2.991900	3.567100	-10.671000	25.238352	0.000866	20.795719
1216.307083	-3.018600	3.568400	-10.770000	25.240982	0.000865	20.802627
1217.308679	-2.985100	3.565700	-10.642000	25.228353	0.000865	20.782361
1218.308963	-2.976000	3.566400	-10.611000	25.224152	0.000865	20.782411
1219.307209	-3.002900	3.566800	-10.710000	25.239233	0.000864	20.787121
1220.309215	-2.988200	3.566000	-10.654000	25.241717	0.000863	20.776338
1221.309169	-3.002700	3.564600	-10.703000	25.288642	0.000861	20.786941
1222.307513	-3.004400	3.565400	-10.711000	25.312101	0.000861	20.781571
1223.310707	-3.001200	3.565000	-10.699000	25.310978	0.000862	20.782340
1224.309773	-2.995600	3.565100	-10.678000	25.285225	0.000860	20.804847
1225.311182	-2.990400	3.564800	-10.659000	25.254503	0.000860	20.780640
1226.308255	-2.998300	3.565000	-10.689000	25.235018	0.000859	20.775302
1227.309471	-3.021600	3.563200	-10.765000	25.206870	0.000860	20.786871
1228.310129	-3.000600	3.563900	-10.693000	25.196038	0.000859	20.793541
1229.312224	-3.014700	3.562900	-10.739000	25.192180	0.000858	20.791089
1230.317761	-3.010500	3.562000	-10.721000	25.222651	0.000857	20.771421
1231.313182	-2.994000	3.562000	-10.664000	25.235801	0.000856	20.780356
1232.313006	-2.999500	3.562200	-10.683000	25.259562	0.000857	20.778607
1233.313086	-2.997700	3.562200	-10.677000	25.272257	0.000855	20.783766
1234.312303	-3.007900	3.560800	-10.709000	25.263616	0.000856	20.768927
1235.311911	-2.979700	3.562300	-10.613000	25.303831	0.000855	20.769475
1236.310782	-2.979900	3.560500	-10.609000	25.292693	0.000856	20.772042
1237.318113	-2.997400	3.560900	-10.672000	25.258176	0.000854	20.782906
1238.316704	-3.002000	3.561500	-10.689000	25.269700	0.000855	20.774561
1239.313231	-2.999200	3.559600	-10.673000	25.272914	0.000852	20.763563
1240.314951	-3.008100	3.558100	-10.702000	25.302415	0.000852	20.755724
1241.317626	-2.982300	3.560200	-10.616000	25.304150	0.000853	20.780700
1242.314411	-2.986100	3.558900	-10.626000	25.269024	0.000851	20.758235
1243.315757	-2.988900	3.557800	-10.634000	25.260930	0.000852	20.779506
1244.316411	-3.007900	3.557600	-10.700000	25.257029	0.000851	20.760891
1245.317334	-3.007600	3.557100	-10.697000	25.282384	0.000851	20.748415
1246.316743	-3.031800	3.556800	-10.783000	25.313976	0.000848	20.771125
1247.317735	-2.987400	3.557200	-10.625000	25.333484	0.000849	20.767480
1248.317256	-2.970700	3.557400	-10.567000	25.347179	0.000848	20.767954
1249.316113	-3.007200	3.556800	-10.694000	25.326303	0.000848	20.747466
1250.319842	-2.990000	3.557600	-10.636000	25.308676	0.000848	20.765804
1251.316631	-3.015700	3.555100	-10.721000	25.303488	0.000848	20.764863
1252.316199	-3.011100	3.555300	-10.705000	25.331375	0.000846	20.775319
1253.318561	-3.001000	3.555500	-10.669000	25.332620	0.000846	20.770405
1254.316479	-3.019900	3.553700	-10.731000	25.319765	0.000846	20.766507
1255.315468	-3.020000	3.553800	-10.732000	25.298245	0.000844	20.762917
1256.319333	-2.998900	3.553500	-10.656000	25.244302	0.000844	20.750009
1257.317160	-2.988900	3.554500	-10.623000	25.238474	0.000843	20.749848
1258.315817	-3.004600	3.554200	-10.678000	25.222780	0.000843	20.770128
1259.318787	-3.003200	3.552900	-10.669000	25.214573	0.000844	20.746715
1260.315529	-2.998700	3.554400	-10.658000	25.228098	0.000841	20.763613
1261.315799	-3.023600	3.551400	-10.737000	25.245327	0.000843	20.763841
1262.320369	-2.996500	3.551900	-10.642000	25.208930	0.000842	20.748636
1263.327121	-2.991200	3.554300	-10.629000	25.214867	0.000843	20.753648
1264.316250	-3.017600	3.550500	-10.712000	25.235500	0.000839	20.738801
1265.319806	-2.999500	3.552600	-10.655000	25.239352	0.000840	20.768273
1266.316237	-2.984200	3.551800	-10.598000	25.256784	0.000837	20.759696
1267.318263	-3.010600	3.549800	-10.685000	25.269773	0.000838	20.752823
1268.320043	-3.014300	3.549900	-10.700000	25.291025	0.000839	20.766574
1269.318033	-3.005400	3.549800	-10.667000	25.289223	0.000838	20.760497
1270.318384	-2.987400	3.551600	-10.609000	25.275342	0.000837	20.766475
1271.318353	-3.009700	3.548900	-10.679000	25.254986	0.000837	20.755046
1272.320282	-3.009900	3.549500	-10.683000	25.230305	0.000838	20.753501
1273.319883	-3.013500	3.549500	-10.695000	25.196871	0.000836	20.745538
1274.321195	-2.991600	3.549200	-10.616000	25.157289	0.000835	20.748000
1275.320972	-3.001600	3.548100	-10.649000	25.150162	0.000835	20.766451
1276.322747	-2.954300	3.549600	-10.486000	25.143672	0.000834	20.743813
1277.323414	-3.010600	3.547100	-10.677000	25.150634	0.000834	20.758390
1278.322764	-2.985400	3.549000	-10.594000	25.175341	0.000831	20.743838
1279.322496	-2.976200	3.547700	-10.557000	25.171189	0.000832	20.766696
1280.326514	-2.985200	3.547600	-10.589000	25.172850	0.000832	20.747501
1281.325110	-3.015400	3.546300	-10.692000	25.179788	0.000830	20.753044
1282.324229	-2.974700	3.546500	-10.549000	25.203109	0.000828	20.751801
1283.325120	-2.993300	3.545600	-10.612000	25.210812	0.000830	20.743887
1284.324073	-3.007000	3.545800	-10.662000	25.235200	0.000827	20.738499
1285.324119	-3.005000	3.545000	-10.651000	25.275661	0.000827	20.760156
1286.326874	-2.990400	3.546400	-10.605000	25.296636	0.000827	20.739964
1287.324934	-2.992100	3.545300	-10.606000	25.310012	0.000826	20.742015
1288.323635	-3.006500	3.544600	-10.656000	25.293883	0.000828	20.735303
1289.327196	-3.017100	3.543800	-10.691000	25.316974	0.000827	20.714864
1290.324379	-2.999800	3.543500	-10.629000	25.333324	0.000826	20.718478
1291.326551	-2.992100	3.544300	-10.604000	25.350569	0.000826	20.730579
1292.328154	-3.016900	3.543100	-10.688000	25.361738	0.000827	20.752700
1293.326097	-2.976300	3.543200	-10.544000	25.398147	0.000825	20.735679
1294.324840	-2.975300	3.543500	-10.541000	25.409032	0.000824	20.742342
1295.327806	-3.018800	3.542600	-10.693000	25.415097	0.000824	20.757916
1296.326113	-2.995600	3.542400	-10.609000	25.431078	0.000824	20.742668
1297.326619	-2.995000	3.542100	-10.607000	25.453100	0.000822	20.737754
1298.332904	-2.985700	3.541400	-10.572000	25.467394	0.000822	20.733143
1299.326943	-3.001600	3.541200	-10.628000	25.449501	0.000818	20.727976
1300.329448	-3.011800	3.541500	-10.666000	25.435255	0.000820	20.725524
1301.331094	-2.990900	3.541200	-10.590000	25.433317	0.000820	20.736381
1302.329379	-2.992500	3.540800	-10.594000	25.443908	0.000820	20.730895
1303.329169	-3.028700	3.539400	-10.718000	25.465247	0.000821	20.709648
1304.331672	-3.000200	3.539600	-10.618000	25.456608	0.000817	20.724681
1305.329843	-2.993900	3.538700	-10.592000	25.410823	0.000820	20.736079
1306.329065	-3.002200	3.539600	-10.626000	25.380854	0.000819	20.735384
1307.346067	-3.001400	3.538600	-10.619000	25.389231	0.000816	20.726251
1308.329955	-2.997600	3.537400	-10.602000	25.379266	0.000817	20.731418
1309.331716	-2.985900	3.538700	-10.565000	25.390403	0.000818	20.729325
1310.332933	-2.992200	3.538100	-10.586000	25.383645	0.000815	20.731548
1311.332760	-3.001600	3.537600	-10.617000	25.358096	0.000817	20.722489
1312.331802	-2.997000	3.537800	-10.602000	25.361395	0.000815	20.724853
1313.334912	-2.992800	3.537300	-10.586000	25.380976	0.000814	20.713694
1314.331233	-2.972400	3.537000	-10.513000	25.404114	0.000815	20.734558
1315.330638	-2.989400	3.536100	-10.569000	25.427032	0.000814	20.725802
1316.332787	-2.998600	3.536100	-10.602000	25.434538	0.000812	20.711053
1317.330752	-2.996300	3.536400	-10.595000	25.458497	0.000813	20.740329
1318.330067	-3.002400	3.535500	-10.614000	25.454338	0.000812	20.742791
1319.334759	-2.995500	3.534300	-10.586000	25.454817	0.000812	20.736634
1320.332002	-2.995400	3.534400	-10.587000	25.503856	0.000812	20.740361
1321.331352	-3.022600	3.533300	-10.679000	25.463530	0.000811	20.730210
1322.333145	-3.009700	3.533200	-10.633000	25.403618	0.000808	20.716515
1323.330286	-2.993500	3.533400	-10.576000	25.344248	0.000810	20.720912
1324.332267	-3.000800	3.533700	-10.603000	25.308358	0.000810	20.706212
1325.333705	-2.991800	3.532000	-10.566000	25.314252	0.000807	20.717347
1326.332792	-3.021300	3.529800	-10.664000	25.328395	0.000808	20.725858
1327.332651	-2.985400	3.532200	-10.544000	25.338392	0.000807	20.732103
1328.343216	-2.976500	3.533200	-10.516000	25.339239	0.000806	20.729159
1329.335559	-3.000300	3.531100	-10.594000	25.354962	0.000808	20.710807
1330.335003	-2.999800	3.531000	-10.591000	25.344321	0.000805	20.723831
1331.337443	-2.995600	3.530900	-10.576000	25.373900	0.000806	20.722711
1332.336237	-2.979800	3.531100	-10.522000	25.375512	0.000803	20.722907
1333.337659	-2.999800	3.529900	-10.587000	25.396891	0.000806	20.701699
1334.339257	-2.977200	3.530400	-10.509000	25.392414	0.000804	20.723283
1335.335986	-2.985200	3.529600	-10.535000	25.386520	0.000805	20.732538
1336.340775	-2.998700	3.529900	-10.584000	25.343034	0.000804	20.718271
1337.336855	-2.992500	3.529000	-10.559000	25.317803	0.000801	20.700522
1338.336493	-3.023400	3.527100	-10.663000	25.339494	0.000801	20.719458
1339.336345	-2.983500	3.530000	-10.531000	25.305493	0.000803	20.698120
1340.342599	-3.002700	3.527000	-10.589000	25.285634	0.000801	20.732711
1341.338220	-3.004400	3.528200	-10.599000	25.294215	0.000801	20.712401
1342.339077	-2.992200	3.526900	-10.552000	25.257641	0.000799	20.691326
1343.338874	-2.990500	3.527900	-10.549000	25.237113	0.000799	20.710547
1344.339765	-2.975200	3.528800	-10.497000	25.267314	0.000801	20.720954
1345.340100	-3.001000	3.524500	-10.576000	25.284291	0.000799	20.709549
1346.345156	-3.001500	3.525000	-10.580000	25.301488	0.000798	20.719230
1347.339667	-3.018000	3.523400	-10.632000	25.292539	0.000797	20.707400
1348.339014	-3.012700	3.524000	-10.616000	25.279911	0.000795	20.709419
1349.344389	-3.044100	3.523500	-10.725000	25.304297	0.000795	20.708773
1350.340832	-3.004000	3.523700	-10.582000	25.281929	0.000797	20.699117
1351.340425	-2.996200	3.525500	-10.562000	25.305738	0.000797	20.710220
1352.344113	-3.011500	3.523400	-10.610000	25.320181	0.000795	20.700065
1353.343450	-3.005800	3.523500	-10.590000	25.316159	0.000793	20.705984
1354.340969	-2.996800	3.523600	-10.559000	25.318177	0.000795	20.698527
1355.343153	-2.994900	3.523300	-10.549000	25.292497	0.000794	20.709728
1356.341640	-3.016200	3.521200	-10.620000	25.274706	0.000792	20.715573
1357.341759	-3.010600	3.520600	-10.597000	25.270529	0.000792	20.694783
1358.343327	-3.011700	3.522100	-10.607000	25.267107	0.000790	20.708418
1359.340782	-2.999000	3.522200	-10.562000	25.287806	0.000789	20.694112
1360.342008	-3.000800	3.521000	-10.564000	25.288653	0.000790	20.686426
1361.344102	-3.009000	3.519800	-10.590000	25.291217	0.000789	20.685682
1362.343916	-3.020700	3.519300	-10.629000	25.302404	0.000788	20.705924
1363.345433	-3.022600	3.519300	-10.637000	25.299627	0.000787	20.662828
1364.346394	-3.013500	3.519500	-10.605000	25.325348	0.000788	20.675379
1365.343882	-3.010900	3.518800	-10.594000	25.366880	0.000787	20.684839
1366.344527	-3.011700	3.519000	-10.597000	25.379727	0.000785	20.695369
1367.346750	-3.017200	3.519200	-10.616000	25.345140	0.000788	20.699995
1368.344728	-2.990300	3.518600	-10.520000	25.339351	0.000786	20.686595
1369.346386	-2.997700	3.517800	-10.545000	25.326062	0.000785	20.687002
1370.348445	-2.995600	3.517100	-10.535000	25.361706	0.000785	20.696240
1371.347012	-2.990100	3.518200	-10.519000	25.361633	0.000782	20.689528
1372.347687	-2.999900	3.517600	-10.551000	25.333250	0.000783	20.659130
1373.350290	-3.018200	3.517700	-10.616000	25.341579	0.000782	20.696419
1374.349926	-3.026100	3.515100	-10.635000	25.345633	0.000781	20.687687
1375.349916	-2.983400	3.516100	-10.488000	25.349044	0.000779	20.687318
1376.352148	-3.024900	3.513400	-10.626000	25.368037	0.000780	20.682682
1377.350419	-2.967200	3.516300	-10.432000	25.380934	0.000781	20.698478
1378.350717	-2.985200	3.514600	-10.491000	25.397818	0.000782	20.695517
1379.352587	-2.983400	3.515700	-10.487000	25.355963	0.000782	20.685731
1380.349223	-2.995500	3.513400	-10.523000	25.363126	0.000780	20.687708
1381.353472	-2.993000	3.513100	-10.514000	25.382991	0.000780	20.672566
1382.350839	-3.009400	3.512600	-10.569000	25.404940	0.000778	20.676588
1383.351530	-2.982800	3.513500	-10.479000	25.418113	0.000779	20.657096
1384.352199	-2.997500	3.512800	-10.528000	25.449749	0.000777	20.684126
1385.358613	-3.010400	3.513200	-10.575000	25.477737	0.000776	20.670504
1386.352811	-3.002700	3.513000	-10.547000	25.486617	0.000776	20.675629
1387.354039	-3.008000	3.511300	-10.561000	25.478842	0.000776	20.688685
1388.355358	-2.999400	3.510600	-10.529000	25.472012	0.000775	20.664280
1389.354697	-2.994200	3.511400	-10.513000	25.456535	0.000775	20.668179
1390.352718	-3.024600	3.509600	-10.614000	25.484645	0.000775	20.667009
1391.355211	-3.000200	3.510000	-10.530000	25.519389	0.000774	20.677719
1392.352004	-3.009900	3.511200	-10.568000	25.525999	0.000775	20.654009
1393.354081	-2.997300	3.509800	-10.518000	25.561189	0.000774	20.672756
1394.357007	-2.999400	3.509100	-10.524000	25.583785	0.000774	20.665102
1395.354056	-2.987600	3.509800	-10.485000	25.589034	0.000773	20.656148
1396.353487	-3.000500	3.508600	-10.527000	25.598134	0.000770	20.675721
1397.357040	-3.007000	3.507200	-10.545000	25.612518	0.000771	20.658870
1398.354071	-2.990100	3.507600	-10.487000	25.611703	0.000772	20.670856
1399.356107	-2.995100	3.507200	-10.502000	25.602121	0.000771	20.656963
1400.359454	-2.994500	3.508700	-10.506000	25.606020	0.000770	20.666096
1401.353601	-2.998300	3.506300	-10.511000	25.606720	0.000770	20.663005
1402.355381	-3.007500	3.507700	-10.548000	25.575249	0.000768	20.666960
1403.357999	-2.990300	3.507200	-10.487000	25.543144	0.000770	20.666012
1404.355854	-2.998700	3.506700	-10.515000	25.526577	0.000770	20.654115
1405.358087	-3.002700	3.505600	-10.525000	25.522051	0.000770	20.660950
1406.361372	-3.007500	3.505300	-10.541000	25.517686	0.000767	20.657515
1407.356239	-2.999200	3.504300	-10.509000	25.494607	0.000766	20.659468
1408.356361	-3.008500	3.504700	-10.543000	25.478836	0.000768	20.652640
1409.367173	-2.987300	3.504800	-10.467000	25.467001	0.000766	20.683906
1410.357174	-2.984300	3.503700	-10.455000	25.449611	0.000766	20.655534
1411.356153	-2.985500	3.504100	-10.461000	25.477452	0.000767	20.658836
1412.361507	-3.005700	3.503900	-10.530000	25.499496	0.000766	20.655369
1413.360917	-2.997200	3.502000	-10.495000	25.467022	0.000764	20.658794
1414.359155	-2.999800	3.502000	-10.504000	25.487731	0.000765	20.663470
1415.368319	-2.977500	3.503500	-10.431000	25.488497	0.000763	20.647167
1416.369284	-3.016600	3.500500	-10.559000	25.474087	0.000763	20.676797
1417.358285	-2.978000	3.501600	-10.426000	25.483017	0.000763	20.681022
1418.368634	-3.007100	3.500400	-10.525000	25.492841	0.000761	20.663386
1419.362343	-3.018100	3.501300	-10.566000	25.479246	0.000761	20.654000
1420.362943	-3.012900	3.500700	-10.545000	25.473091	0.000761	20.641653
1421.359475	-3.000100	3.499800	-10.498000	25.444109	0.000763	20.639102
1422.359615	-3.023300	3.498100	-10.574000	25.414939	0.000760	20.646321
1423.360263	-3.002500	3.499800	-10.508000	25.411584	0.000759	20.642004
1424.364333	-3.003800	3.498800	-10.509000	25.434085	0.000761	20.670292
1425.365471	-3.008300	3.499100	-10.525000	25.409328	0.000761	20.651120
1426.362376	-3.025500	3.497100	-10.580000	25.432344	0.000757	20.650048
1427.365374	-2.995900	3.497600	-10.478000	25.451158	0.000760	20.667046
1428.362375	-2.994900	3.497800	-10.474000	25.442837	0.000759	20.662958
1429.378376	-2.973000	3.498900	-10.400000	25.457254	0.000758	20.646613
1430.381375	-2.989600	3.497300	-10.455000	25.460339	0.000757	20.662989
1431.365373	-2.971600	3.498300	-10.393000	25.490362	0.000758	20.655680
1432.384374	-2.965100	3.497000	-10.366000	25.524088	0.000758	20.654935
1433.371374	-2.984200	3.495900	-10.432000	25.537658	0.000757	20.648647
1434.363519	-2.980900	3.495600	-10.419000	25.555991	0.000755	20.651886
1435.362739	-2.994100	3.494100	-10.461000	25.540516	0.000754	20.646301
1436.369936	-2.987900	3.495700	-10.444000	25.569886	0.000755	20.646399
1437.372699	-3.012800	3.493000	-10.522000	25.584781	0.000754	20.665628
1438.364715	-2.989000	3.494400	-10.443000	25.562542	0.000753	20.651352
1439.367436	-2.990600	3.493800	-10.447000	25.534833	0.000752	20.676159
1440.363406	-2.970300	3.494500	-10.379000	25.492493	0.000754	20.655922
1441.364231	-2.997900	3.493800	-10.473000	25.473882	0.000752	20.647664
1442.369376	-2.993100	3.493400	-10.455000	25.489943	0.000752	20.661423
1443.371995	-2.988600	3.493400	-10.439000	25.483805	0.000749	20.659052
1444.369315	-3.001700	3.491600	-10.479000	25.491507	0.000750	20.679116
1445.368223	-2.997300	3.491900	-10.465000	25.506273	0.000749	20.646526
1446.366827	-3.021300	3.491400	-10.546000	25.538509	0.000749	20.661357
1447.365562	-3.023200	3.490100	-10.550000	25.538883	0.000749	20.637074
1448.370564	-2.988600	3.490500	-10.431000	25.519151	0.000748	20.649027
1449.367846	-3.003300	3.488800	-10.477000	25.494858	0.000750	20.657823
1450.367599	-2.987800	3.489100	-10.425000	25.451719	0.000748	20.647693
1451.370916	-2.997600	3.488800	-10.457000	25.408896	0.000748	20.655902
1452.369041	-2.988600	3.488100	-10.423000	25.424567	0.000746	20.652671
1453.370040	-3.006200	3.489600	-10.488000	25.427302	0.000745	20.646882
1454.373249	-3.008600	3.489700	-10.498000	25.445172	0.000746	20.665302
1455.370445	-2.995000	3.487900	-10.445000	25.483540	0.000746	20.647879
1456.368486	-2.996100	3.487100	-10.447000	25.450771	0.000746	20.644845
1457.373015	-3.015300	3.487600	-10.515000	25.493463	0.000744	20.670649
1458.372298	-2.992100	3.486600	-10.431000	25.495572	0.000744	20.640995
1459.370454	-3.015300	3.485600	-10.509000	25.507009	0.000744	20.665759
1460.373449	-3.003700	3.486600	-10.472000	25.498363	0.000745	20.649963
1461.375036	-2.995500	3.485400	-10.439000	25.507862	0.000742	20.659503
1462.373025	-3.013200	3.484600	-10.497000	25.541532	0.000742	20.663919
1463.376308	-2.997800	3.484700	-10.446000	25.552944	0.000740	20.666845
1464.375073	-3.007000	3.484100	-10.476000	25.567230	0.000741	20.666019
1465.373879	-3.001600	3.484400	-10.457000	25.569339	0.000741	20.677147
1466.382477	-2.987700	3.483700	-10.407000	25.543648	0.000741	20.666992
1467.376439	-3.002400	3.483600	-10.458000	25.539325	0.000740	20.658857
1468.374119	-2.983200	3.484200	-10.394000	25.519397	0.000741	20.642636
1469.381263	-3.003200	3.483700	-10.459000	25.535604	0.000737	20.676933
1470.375865	-2.976600	3.484400	-10.370000	25.478921	0.000739	20.649879
1471.373928	-2.978100	3.483400	-10.372000	25.491547	0.000738	20.649756
1472.378199	-3.007100	3.482000	-10.470000	25.465462	0.000737	20.662444
1473.376950	-3.002900	3.481300	-10.453000	25.426841	0.000739	20.647368
1474.375158	-3.003300	3.481900	-10.456000	25.385417	0.000737	20.672631
1475.378789	-2.980200	3.481000	-10.373000	25.363866	0.000738	20.660474
1476.376299	-2.999600	3.479500	-10.436000	25.412480	0.000735	20.651439
1477.376486	-2.981100	3.481300	-10.377000	25.425928	0.000738	20.662574
1478.373951	-2.981800	3.479500	-10.375000	25.495290	0.000734	20.673906
1479.374377	-2.990500	3.479800	-10.405000	25.486595	0.000736	20.649999
1480.377043	-2.984000	3.478900	-10.380000	25.522626	0.000734	20.661528
1481.375290	-2.983300	3.478400	-10.376000	25.515705	0.000734	20.651731
1482.376346	-3.010600	3.478800	-10.471000	25.542023	0.000733	20.678638
1483.376977	-2.999400	3.478800	-10.432000	25.550472	0.000734	20.694712
1484.376514	-2.992000	3.477700	-10.405000	25.551539	0.000732	20.670650
1485.376661	-2.998100	3.477600	-10.425000	25.567347	0.000732	20.668508
1486.377257	-2.998400	3.476800	-10.423000	25.571564	0.000731	20.661837
1487.379990	-2.988900	3.476100	-10.389000	25.569707	0.000731	20.668982
1488.378426	-3.003600	3.475400	-10.438000	25.594909	0.000731	20.666790
1489.379900	-2.975600	3.476300	-10.342000	25.597692	0.000732	20.668164
1490.382353	-2.999100	3.475600	-10.421000	25.581542	0.000729	20.673282
1491.380915	-3.017500	3.474200	-10.482000	25.590341	0.000727	20.686861
1492.380054	-3.005000	3.473000	-10.435000	25.581542	0.000729	20.696992
1493.380023	-3.002800	3.475600	-10.436000	25.580322	0.000727	20.678220
1494.380327	-2.969200	3.474400	-10.315000	25.592475	0.000727	20.675726
1495.379447	-2.999300	3.474100	-10.419000	25.608649	0.000728	20.683911
1496.380104	-2.983800	3.474900	-10.367000	25.628803	0.000726	20.668115
1497.381979	-2.984300	3.472700	-10.362000	25.636853	0.000727	20.678572
1498.379813	-2.996500	3.471800	-10.402000	25.633370	0.000726	20.680763
1499.380902	-2.997600	3.472100	-10.407000	25.628201	0.000725	20.682685
1500.379814	-2.996600	3.472100	-10.402000	25.635926	0.000724	20.677640
1501.382093	-3.012600	3.471100	-10.456000	25.599728	0.000725	20.673527
1502.381673	-2.989800	3.471500	-10.378000	25.590554	0.000724	20.692766
1503.380956	-2.973400	3.470400	-10.318000	25.605117	0.000724	20.667559
1504.381419	-2.976800	3.472200	-10.335000	25.642910	0.000723	20.677068
1505.383509	-2.993500	3.469700	-10.386000	25.641640	0.000726	20.662515
1506.382710	-3.002800	3.469100	-10.416000	25.647092	0.000722	20.692176
1507.382987	-3.007700	3.469800	-10.435000	25.614111	0.000720	20.682284
1508.385705	-2.985000	3.470000	-10.357000	25.570424	0.000721	20.688670
1509.383377	-3.001100	3.468300	-10.408000	25.514124	0.000721	20.688554
1510.382338	-3.019000	3.466900	-10.465000	25.475879	0.000720	20.686183
1511.382360	-3.000300	3.466800	-10.400000	25.457447	0.000719	20.716040
1512.384429	-3.002000	3.466200	-10.405000	25.477792	0.000720	20.690476
1513.384010	-2.995500	3.468000	-10.387000	25.506626	0.000719	20.693827
1514.382289	-3.007700	3.465600	-10.421000	25.552221	0.000718	20.699788
1515.386981	-2.992700	3.466900	-10.375000	25.540491	0.000720	20.687058
1516.387091	-2.994500	3.466500	-10.380000	25.549763	0.000721	20.695896
1517.384706	-2.998300	3.465100	-10.388000	25.515548	0.000716	20.697571
1518.386016	-2.987400	3.464300	-10.348000	25.532154	0.000718	20.693385
1519.387969	-3.001200	3.465400	-10.399000	25.507773	0.000717	20.681227
1520.385232	-2.980900	3.463700	-10.322000	25.497613	0.000716	20.713227
1521.386671	-2.984400	3.464500	-10.337000	25.490377	0.000716	20.699795
1522.387962	-3.008600	3.463000	-10.418000	25.517843	0.000714	20.692763
1523.387516	-2.981000	3.465700	-10.330000	25.556265	0.000716	20.680613
1524.388115	-3.018400	3.461600	-10.446000	25.574272	0.000713	20.724305
1525.387685	-2.998100	3.463000	-10.381000	25.572139	0.000714	20.703669
1526.391126	-3.007500	3.462300	-10.412000	25.539324	0.000714	20.695370
1527.388969	-3.011300	3.461400	-10.422000	25.490090	0.000714	20.689549
1528.389517	-2.997200	3.461200	-10.372000	25.485442	0.000713	20.709065
1529.395424	-3.014100	3.459800	-10.427000	25.453212	0.000712	20.699458
1530.389247	-2.999300	3.460300	-10.377000	25.466905	0.000712	20.694716
1531.390188	-3.022500	3.459500	-10.455000	25.461564	0.000711	20.710691
1532.391979	-2.983700	3.460500	-10.324000	25.453090	0.000712	20.696016
1533.389702	-3.007500	3.459700	-10.403000	25.444982	0.000710	20.705893
1534.389534	-2.988500	3.458900	-10.336000	25.475730	0.000710	20.696940
1535.391244	-3.030800	3.456000	-10.473000	25.492052	0.000710	20.703374
1536.391762	-3.005700	3.459200	-10.396000	25.493175	0.000709	20.696915
1537.391827	-2.997900	3.457700	-10.364000	25.512730	0.000709	20.700431
1538.391450	-3.008300	3.456600	-10.397000	25.507169	0.000708	20.698166
1539.392653	-2.989700	3.457400	-10.336000	25.531899	0.000709	20.704984
1540.392185	-3.009700	3.455800	-10.400000	25.528643	0.000708	20.700765
1541.393780	-3.014000	3.455500	-10.414000	25.519200	0.000706	20.698394
1542.394150	-3.004100	3.455200	-10.378000	25.508267	0.000707	20.701166
1543.395731	-3.009100	3.455900	-10.398000	25.494990	0.000707	20.710593
1544.393588	-2.996400	3.454700	-10.351000	25.526755	0.000704	20.705033
1545.393815	-3.008400	3.455200	-10.394000	25.549613	0.000705	20.702384
1546.393884	-2.988100	3.454800	-10.323000	25.573797	0.000705	20.711974
1547.394542	-3.012200	3.453000	-10.400000	25.599145	0.000703	20.694755
1548.394680	-2.998500	3.453600	-10.355000	25.602751	0.000705	20.709283
1549.395335	-2.988700	3.454100	-10.322000	25.632168	0.000702	20.703740
1550.395058	-3.006200	3.453900	-10.382000	25.631297	0.000704	20.723730
1551.395129	-2.991900	3.453700	-10.332000	25.634854	0.000701	20.714499
1552.398053	-2.972400	3.453900	-10.265000	25.673443	0.000703	20.717222
1553.396842	-3.007400	3.450600	-10.376000	25.676422	0.000702	20.723533
1554.396947	-2.992600	3.450700	-10.326000	25.704950	0.000701	20.705718
1555.395982	-3.012500	3.451900	-10.398000	25.692008	0.000701	20.710738
1556.398125	-2.988400	3.450300	-10.310000	25.697649	0.000701	20.735845
1557.396727	-2.988600	3.450100	-10.309000	25.699292	0.000700	20.730857
1558.400711	-3.015900	3.448500	-10.400000	25.657375	0.000698	20.704875
1559.398911	-2.988700	3.450800	-10.313000	25.636016	0.000699	20.722779
1560.399644	-2.994400	3.449500	-10.328000	25.604783	0.000697	20.715592
1561.398551	-2.995900	3.448400	-10.330000	25.602797	0.000698	20.719288
1562.399582	-3.000300	3.447200	-10.342000	25.578645	0.000699	20.732017
1563.399175	-3.011000	3.447400	-10.380000	25.598548	0.000698	20.712649
1564.400122	-2.988400	3.449200	-10.306000	25.621884	0.000696	20.719492
1565.399291	-3.021800	3.446000	-10.412000	25.597268	0.000696	20.725589
1566.400270	-3.006100	3.447700	-10.364000	25.607029	0.000696	20.716899
1567.398549	-3.005900	3.447400	-10.362000	25.628207	0.000696	20.727739
1568.400561	-2.997700	3.447700	-10.334000	25.607736	0.000694	20.739896
1569.399914	-2.990300	3.445600	-10.303000	25.589022	0.000694	20.731059
1570.400906	-2.980500	3.446300	-10.271000	25.571487	0.000695	20.738579
1571.400199	-2.999200	3.446400	-10.335000	25.568053	0.000692	20.729439
1572.401719	-2.995700	3.445900	-10.322000	25.583046	0.000692	20.723634
1573.402367	-3.001600	3.443800	-10.336000	25.599619	0.000692	20.724157
1574.402798	-3.012800	3.444200	-10.376000	25.599944	0.000691	20.740606
1575.403650	-2.998400	3.443200	-10.323000	25.628320	0.000691	20.708411
1576.403338	-3.012100	3.442700	-10.368000	25.644151	0.000691	20.718147
1577.404479	-2.999100	3.443200	-10.326000	25.652730	0.000691	20.729135
1578.404015	-2.997000	3.442400	-10.315000	25.654342	0.000692	20.735021
1579.404420	-2.989200	3.442200	-10.289000	25.640861	0.000690	20.726697
1580.404558	-2.978100	3.443400	-10.253000	25.646379	0.000690	20.743620
1581.405320	-2.995500	3.441800	-10.309000	25.613031	0.000688	20.733835
1582.404132	-2.989800	3.440900	-10.287000	25.575790	0.000688	20.730098
1583.404994	-2.982500	3.442000	-10.265000	25.554275	0.000688	20.715128
1584.405689	-2.965400	3.441400	-10.203000	25.597280	0.000686	20.722756
1585.406442	-2.990200	3.440600	-10.286000	25.611052	0.000687	20.725683
1586.405730	-2.980100	3.439800	-10.250000	25.651776	0.000688	20.729125
1587.404694	-2.983500	3.440000	-10.262000	25.659231	0.000687	20.732820
1588.404234	-2.997100	3.438900	-10.305000	25.674419	0.000687	20.723417
1589.409354	-3.003600	3.439500	-10.330000	25.674118	0.000686	20.749195
1590.406526	-2.977800	3.439300	-10.241000	25.685528	0.000686	20.726041
1591.407940	-2.986800	3.437700	-10.267000	25.670642	0.000687	20.720098
1592.407687	-2.981400	3.438900	-10.252000	25.688906	0.000685	20.740815
1593.407510	-2.986500	3.437800	-10.266000	25.685577	0.000685	20.751222
1594.405910	-2.993200	3.437200	-10.287000	25.656063	0.000682	20.747183
1595.409361	-2.991700	3.437100	-10.282000	25.637001	0.000682	20.734201
1596.408775	-2.986600	3.436900	-10.264000	25.633833	0.000682	20.754254
1597.408955	-2.965000	3.435900	-10.186000	25.619859	0.000684	20.753020
1598.410573	-2.996700	3.436700	-10.298000	25.590563	0.000682	20.728813
1599.408887	-2.985700	3.436000	-10.258000	25.593868	0.000682	20.752047
1600.411462	-2.985900	3.435700	-10.258000	25.622618	0.000681	20.758637
1601.409963	-2.981000	3.435900	-10.241000	25.641470	0.000682	20.755760
1602.409978	-2.987400	3.434200	-10.258000	25.660232	0.000681	20.749947
1603.410160	-2.981300	3.434100	-10.236000	25.669649	0.000681	20.764621
1604.410714	-3.004500	3.432100	-10.310000	25.658889	0.000680	20.749546
1605.409589	-2.984900	3.432000	-10.243000	25.653003	0.000680	20.749325
1606.410945	-3.002900	3.434200	-10.312000	25.634853	0.000678	20.743898
1607.409990	-3.017000	3.431900	-10.353000	25.614878	0.000680	20.752286
1608.409577	-3.003200	3.432600	-10.308000	25.625534	0.000678	20.762513
1609.414424	-2.992000	3.431500	-10.266000	25.646362	0.000677	20.754035
1610.411296	-3.009900	3.431000	-10.324000	25.649415	0.000676	20.755679
1611.411678	-3.008900	3.430500	-10.321000	25.683877	0.000678	20.758998
1612.409718	-2.980700	3.431300	-10.226000	25.686385	0.000675	20.754878
1613.411226	-2.998500	3.429700	-10.283000	25.724255	0.000676	20.768260
1614.412419	-2.994900	3.429600	-10.270000	25.728773	0.000675	20.777065
1615.412116	-3.005000	3.429800	-10.305000	25.736774	0.000674	20.741478
1616.412449	-3.002000	3.429900	-10.295000	25.718216	0.000676	20.752711
1617.412882	-2.998400	3.428100	-10.277000	25.686734	0.000674	20.775618
1618.417417	-3.011800	3.428900	-10.326000	25.654535	0.000673	20.770304
1619.414979	-3.010400	3.429100	-10.322000	25.665141	0.000675	20.778112
1620.415337	-3.003900	3.428200	-10.296000	25.660941	0.000674	20.764884
1621.414751	-2.996200	3.429900	-10.276000	25.664466	0.000673	20.761786
1622.415142	-2.988800	3.428100	-10.244000	25.665116	0.000674	20.782829
1623.415283	-2.990800	3.427100	-10.249000	25.689616	0.000671	20.787995
1624.416698	-3.014200	3.427000	-10.328000	25.690406	0.000672	20.790211
1625.420865	-2.983600	3.425700	-10.219000	25.721993	0.000673	20.765513
1626.417976	-2.989000	3.426800	-10.242000	25.703876	0.000670	20.784300
1627.417172	-2.997200	3.426500	-10.268000	25.699383	0.000671	20.758450
1628.416809	-3.004700	3.425400	-10.291000	25.729098	0.000671	20.782134
1629.418837	-3.017900	3.424600	-10.334000	25.716671	0.000669	20.781505
1630.416966	-2.992100	3.424800	-10.246000	25.682762	0.000668	20.773051
1631.417523	-3.002700	3.424200	-10.281000	25.688836	0.000667	20.765400
1632.417274	-2.982900	3.424800	-10.215000	25.669561	0.000668	20.780655
1633.421707	-2.997300	3.423900	-10.262000	25.679524	0.000667	20.773117
1634.418122	-2.986400	3.422700	-10.220000	25.734731	0.000669	20.784472
1635.419417	-3.030300	3.421400	-10.366000	25.702159	0.000667	20.773567
1636.420200	-2.988500	3.422700	-10.228000	25.692847	0.000666	20.796456
1637.420488	-2.984700	3.421500	-10.211000	25.695672	0.000665	20.785069
1638.420026	-2.995900	3.420600	-10.247000	25.689983	0.000666	20.779829
1639.420225	-3.006900	3.421000	-10.285000	25.662333	0.000665	20.797103
1640.421071	-3.002200	3.420700	-10.268000	25.659892	0.000665	20.800815
1641.422831	-2.997400	3.421100	-10.254000	25.669064	0.000667	20.780630
1642.421931	-2.985100	3.421100	-10.212000	25.648911	0.000663	20.801166
1643.420083	-2.993300	3.420000	-10.236000	25.663480	0.000663	20.793039
1644.421643	-2.990600	3.419500	-10.225000	25.727350	0.000664	20.800766
1645.424354	-3.012900	3.418000	-10.297000	25.747281	0.000662	20.776215
1646.421847	-3.023200	3.418300	-10.333000	25.744417	0.000663	20.793253
1647.422243	-2.997000	3.418500	-10.244000	25.775034	0.000660	20.786074
1648.422401	-3.002200	3.417400	-10.259000	25.765569	0.000663	20.789369
1649.422695	-2.991300	3.418000	-10.223000	25.777866	0.000663	20.800299
1650.424787	-2.998300	3.417000	-10.245000	25.780283	0.000661	20.806045
1651.422953	-3.011800	3.414900	-10.283000	25.773520	0.000658	20.786924
1652.423316	-3.001400	3.415500	-10.251000	25.786940	0.000659	20.789973
1653.422024	-3.006300	3.416300	-10.270000	25.785101	0.000659	20.793341
1654.423321	-2.975600	3.416000	-10.164000	25.763208	0.000658	20.799800
1655.422401	-2.997400	3.414800	-10.235000	25.731190	0.000658	20.792295
1656.421550	-2.993500	3.415900	-10.225000	25.733599	0.000658	20.795663
1657.422383	-2.996900	3.413200	-10.229000	25.761401	0.000656	20.797036
1658.425676	-3.006800	3.413400	-10.262000	25.766674	0.000657	20.802333
1659.425524	-3.008900	3.414000	-10.271000	25.740883	0.000657	20.802979
1660.422626	-3.001200	3.412700	-10.241000	25.698568	0.000656	20.799832
1661.423972	-3.018700	3.412200	-10.299000	25.698715	0.000655	20.817523
1662.422687	-2.991800	3.413400	-10.211000	25.697078	0.000654	20.801655
1663.423934	-3.003400	3.412300	-10.248000	25.697673	0.000655	20.804149
1664.423432	-3.017600	3.411600	-10.294000	25.690340	0.000653	20.814327
1665.425210	-2.992000	3.411500	-10.205000	25.739987	0.000653	20.792123
1666.423946	-2.981600	3.411800	-10.170000	25.750145	0.000654	20.804222
1667.424850	-2.994100	3.410900	-10.211000	25.759212	0.000652	20.809536
1668.422972	-2.996200	3.410100	-10.216000	25.717769	0.000653	20.797307
1669.425407	-2.970000	3.411400	-10.131000	25.767359	0.000652	20.790693
1670.425318	-2.985300	3.411000	-10.181000	25.732298	0.000650	20.790563
1671.425691	-3.010700	3.409400	-10.264000	25.815433	0.000651	20.803896
1672.425386	-3.002700	3.408500	-10.234000	25.830432	0.000654	20.797152
1673.424307	-3.008200	3.409400	-10.255000	25.835485	0.000650	20.809814
1674.425495	-2.998600	3.408700	-10.221000	25.819657	0.000650	20.802448
1675.427005	-2.995600	3.408700	-10.210000	25.849394	0.000650	20.778267
1676.425125	-3.011600	3.407800	-10.261000	25.867151	0.000649	20.814597
1677.424914	-3.014900	3.407800	-10.273000	25.849142	0.000648	20.806937
1678.427068	-3.013200	3.407700	-10.267000	25.826639	0.000647	20.787177
1679.427001	-3.016400	3.407500	-10.277000	25.779062	0.000646	20.798181
1680.426791	-3.003300	3.407600	-10.232000	25.761100	0.000647	20.802424
1681.427382	-2.984700	3.408000	-10.171000	25.763062	0.000644	20.787325
1682.426441	-2.993600	3.405700	-10.194000	25.785580	0.000645	20.810418
1683.429543	-2.986400	3.405700	-10.170000	25.780429	0.000646	20.792442
1684.429365	-3.017400	3.405600	-10.275000	25.747663	0.000645	20.783237
1685.430301	-2.993700	3.406300	-10.196000	25.770150	0.000645	20.786384
1686.431586	-3.012800	3.403600	-10.253000	25.792083	0.000644	20.779018
1687.431126	-2.988500	3.405200	-10.175000	25.744635	0.000644	20.786833
1688.430452	-2.981800	3.406200	-10.154000	25.713356	0.000643	20.777227
1689.432662	-3.004300	3.403800	-10.225000	25.699268	0.000644	20.786310
1690.431751	-3.014600	3.403500	-10.259000	25.662568	0.000643	20.788329
1691.432462	-3.004200	3.403200	-10.223000	25.665026	0.000641	20.778945
1692.433245	-3.009700	3.402400	-10.239000	25.710199	0.000641	20.791599
1693.432148	-3.003400	3.403700	-10.222000	25.734078	0.000642	20.776230
1694.430737	-3.023400	3.402200	-10.285000	25.727445	0.000640	20.790904
1695.430398	-3.008700	3.402900	-10.238000	25.724312	0.000640	20.770687
1696.431342	-3.041900	3.400000	-10.342000	25.719444	0.000642	20.784765
1697.431045	-3.013300	3.400900	-10.247000	25.724214	0.000640	20.771537
1698.434106	-3.001100	3.401200	-10.205000	25.763142	0.000639	20.753740
1699.430578	-2.998200	3.399800	-10.192000	25.775927	0.000637	20.783652
1700.430874	-2.998600	3.400100	-10.195000	25.800937	0.000637	20.795024
1701.431656	-3.010100	3.399700	-10.233000	25.838031	0.000637	20.772542
1702.432942	-3.004900	3.400300	-10.217000	25.874994	0.000637	20.770319
1703.432556	-3.006500	3.398300	-10.217000	25.877533	0.000636	20.776662
1704.435475	-2.995300	3.399300	-10.180000	25.898894	0.000635	20.771095
1705.432847	-2.991400	3.398900	-10.166000	25.910442	0.000633	20.778903
1706.433217	-2.997100	3.399000	-10.186000	25.929776	0.000635	20.773670
1707.433490	-2.994900	3.397500	-10.174000	25.966589	0.000633	20.761816
1708.433271	-2.974500	3.397900	-10.107000	25.952479	0.000634	20.789840
1709.439311	-3.013300	3.396400	-10.233000	25.967313	0.000632	20.776294
1710.435193	-2.990700	3.396700	-10.158000	25.946376	0.000632	20.763319
1711.432498	-2.991800	3.396800	-10.162000	25.938198	0.000632	20.755578
1712.437881	-2.997000	3.396600	-10.178000	25.912792	0.000630	20.763720
1713.435126	-2.988500	3.395500	-10.146000	25.905419	0.000631	20.763425
1714.433996	-2.978900	3.396200	-10.116000	25.866985	0.000632	20.766066
1715.435727	-3.015100	3.393800	-10.231000	25.827987	0.000631	20.767668
1716.434153	-3.000500	3.394200	-10.184000	25.780581	0.000627	20.778844
1717.444741	-3.042900	3.392800	-10.323000	25.752713	0.000628	20.754644
1718.436337	-2.992200	3.394900	-10.157000	25.721712	0.000631	20.769498
1719.434491	-3.024100	3.392500	-10.257000	25.740097	0.000627	20.747188
1720.444023	-2.992600	3.392500	-10.151000	25.728083	0.000629	20.764992
1721.434947	-3.010300	3.394100	-10.215000	25.746860	0.000626	20.766309
1722.434783	-2.994000	3.393100	-10.159000	25.766067	0.000628	20.743876
1723.436193	-3.008600	3.392600	-10.206000	25.760581	0.000627	20.744055
1724.434451	-3.011800	3.391600	-10.214000	25.770551	0.000629	20.744586
1725.443332	-3.011100	3.391000	-10.210000	25.778128	0.000628	20.762155
1726.440738	-2.974500	3.392700	-10.091000	25.756284	0.000625	20.747325
1727.436535	-2.997400	3.391200	-10.163000	25.747102	0.000626	20.727196
1728.437703	-3.002000	3.389400	-10.174000	25.733014	0.000628	20.754772
1729.440473	-3.007500	3.389800	-10.194000	25.736448	0.000624	20.758221
1730.436223	-2.999500	3.388700	-10.164000	25.702614	0.000622	20.759799
1731.437127	-3.011200	3.388500	-10.202000	25.734812	0.000624	20.744249
1732.437067	-3.016000	3.389100	-10.220000	25.735626	0.000623	20.746016
1733.438155	-3.006000	3.387700	-10.183000	25.725647	0.000621	20.746898
1734.439316	-3.011000	3.388500	-10.202000	25.739117	0.000623	20.737193
1735.437231	-3.002200	3.389200	-10.174000	25.760376	0.000622	20.732469
1736.442379	-2.987700	3.388200	-10.122000	25.767195	0.000622	20.757811
1737.438759	-2.984900	3.388200	-10.112000	25.803314	0.000620	20.741461
1738.440086	-2.967100	3.388100	-10.052000	25.803150	0.000619	20.750305
1739.440001	-2.995500	3.386600	-10.144000	25.857180	0.000620	20.741991
1740.437732	-2.984100	3.386300	-10.104000	25.847814	0.000620	20.719304
1741.441571	-2.986900	3.386500	-10.114000	25.828380	0.000619	20.752416
1742.442405	-3.010500	3.385600	-10.191000	25.841303	0.000618	20.726516
1743.441898	-2.980900	3.386700	-10.095000	25.830195	0.000617	20.744755
1744.441073	-3.014900	3.384800	-10.203000	25.817230	0.000618	20.741215
1745.439294	-2.987300	3.385500	-10.113000	25.805608	0.000617	20.739498
1746.442541	-3.003200	3.385900	-10.167000	25.860631	0.000614	20.739294
1747.440887	-3.029800	3.383700	-10.252000	25.857254	0.000617	20.737798
1748.441542	-2.989100	3.384300	-10.115000	25.868151	0.000616	20.741159
1749.448789	-3.013800	3.384700	-10.200000	25.919948	0.000615	20.768063
1750.443135	-3.006100	3.384400	-10.173000	25.929436	0.000615	20.742507
1751.441891	-3.011000	3.383700	-10.187000	25.961904	0.000616	20.731503
1752.441632	-3.006400	3.383100	-10.170000	25.982687	0.000614	20.742900
1753.441771	-2.978200	3.382600	-10.073000	25.972182	0.000613	20.738036
1754.443767	-2.985300	3.382200	-10.096000	25.972769	0.000614	20.732461
1755.442351	-2.987700	3.382100	-10.103000	25.939235	0.000613	20.752352
1756.442091	-2.992900	3.382000	-10.120000	25.919583	0.000611	20.741618
1757.444371	-3.006300	3.380200	-10.161000	25.879041	0.000612	20.729338
1758.445559	-2.990600	3.381200	-10.110000	25.841526	0.000612	20.744284
1759.442828	-2.995700	3.381700	-10.129000	25.826194	0.000611	20.739788
1760.441660	-3.005100	3.379400	-10.154000	25.792477	0.000610	20.731523
1761.446940	-2.993900	3.380800	-10.120000	25.810764	0.000611	20.733771
1762.451551	-3.003500	3.379600	-10.149000	25.836767	0.000608	20.733812
1763.443254	-3.004400	3.380100	-10.154000	25.848021	0.000609	20.747016
1764.443912	-3.033200	3.378300	-10.246000	25.822679	0.000608	20.736257
1765.442608	-3.007200	3.378200	-10.158000	25.797557	0.000608	20.741367
1766.451589	-2.987800	3.378000	-10.092000	25.794033	0.000608	20.719808
1767.446716	-2.968400	3.379200	-10.030000	25.774029	0.000605	20.732906
1768.443461	-3.018200	3.376600	-10.190000	25.775836	0.000604	20.714806
1769.450077	-3.002500	3.377200	-10.140000	25.728656	0.000605	20.737591
1770.447998	-3.000100	3.375700	-10.127000	25.700104	0.000605	20.725982
1771.447476	-3.005800	3.376300	-10.148000	25.698069	0.000605	20.723464
1772.445404	-2.975500	3.377900	-10.049000	25.678291	0.000603	20.730626
1773.448727	-3.007800	3.375800	-10.153000	25.727159	0.000602	20.733717
1774.452670	-2.989100	3.375200	-10.088000	25.717840	0.000602	20.719140
1775.449102	-2.988300	3.374400	-10.083000	25.744576	0.000603	20.747419
1776.449521	-2.983900	3.375700	-10.072000	25.719403	0.000603	20.727823
1777.456243	-3.004400	3.375200	-10.140000	25.737341	0.000600	20.742996
1778.450335	-3.016800	3.372900	-10.173000	25.750037	0.000602	20.733938
1779.446548	-3.020000	3.373600	-10.187000	25.756076	0.000602	20.730046
1780.452194	-2.994600	3.374200	-10.103000	25.769115	0.000602	20.735083
1781.449063	-2.989500	3.373200	-10.083000	25.820916	0.000601	20.697973
1782.450357	-3.023400	3.371200	-10.191000	25.827825	0.000600	20.729098
1783.451521	-3.015500	3.371000	-10.163000	25.823871	0.000600	20.717064
1784.456423	-2.994000	3.372300	-10.096000	25.792993	0.000597	20.709754
1785.455968	-2.977600	3.372900	-10.041000	25.783406	0.000597	20.736635
1786.451433	-3.001100	3.372600	-10.121000	25.783056	0.000597	20.717791
1787.452080	-3.001700	3.371900	-10.121000	25.810532	0.000599	20.718363
1788.453367	-2.969600	3.371900	-10.013000	25.808423	0.000599	20.711029
1789.463248	-2.986300	3.372100	-10.069000	25.797762	0.000598	20.722607
1790.459023	-2.997300	3.370800	-10.102000	25.783682	0.000594	20.714152
1791.451732	-2.971900	3.371300	-10.018000	25.780965	0.000596	20.724700
1792.450819	-2.992600	3.370000	-10.084000	25.753489	0.000596	20.708953
1793.450511	-2.985600	3.369800	-10.060000	25.755059	0.000593	20.730921
1794.451349	-2.986500	3.368500	-10.059000	25.778287	0.000594	20.706836
1795.449526	-2.992400	3.368100	-10.077000	25.801644	0.000594	20.710858
1796.451264	-2.985000	3.369300	-10.056000	25.832993	0.000592	20.720064
1797.450562	-3.003600	3.369100	-10.118000	25.874008	0.000592	20.708160
1798.452588	-2.985100	3.369400	-10.057000	25.901856	0.000592	20.719540
1799.452935	-2.998000	3.367400	-10.095000	25.943610	0.000591	20.729245
1800.450855	-2.992600	3.367600	-10.076000	25.945554	0.000590	20.704644
1801.453105	-2.982200	3.368900	-10.045000	25.955441	0.000589	20.714103
1802.455933	-2.997600	3.367900	-10.094000	25.981789	0.000589	20.719238
1803.454564	-3.016100	3.365600	-10.150000	25.998413	0.000588	20.726931
1804.453513	-2.992100	3.366800	-10.073000	26.002880	0.000589	20.709607
1805.457642	-2.990500	3.366400	-10.066000	25.980828	0.000590	20.716850
1806.453456	-3.008900	3.365700	-10.126000	25.959314	0.000587	20.710408
1807.454604	-2.993900	3.364500	-10.072000	25.978892	0.000588	20.713007
1808.455948	-2.976700	3.365100	-10.016000	26.010739	0.000587	20.719400
1809.458396	-3.010500	3.364800	-10.129000	25.989925	0.000588	20.715558
1810.458215	-3.005600	3.363200	-10.108000	25.987265	0.000587	20.675897
1811.455810	-3.011600	3.363000	-10.127000	25.996557	0.000585	20.710366
1812.466145	-3.006700	3.363300	-10.111000	26.032040	0.000585	20.690538
1813.464319	-2.985400	3.364300	-10.043000	26.033805	0.000585	20.715548
1814.458601	-3.030300	3.362400	-10.188000	26.024171	0.000584	20.713454
1815.459454	-3.001500	3.363200	-10.094000	26.024619	0.000584	20.703946
1816.467267	-3.003500	3.361600	-10.095000	26.035522	0.000583	20.706840
1817.458433	-3.009700	3.362700	-10.118000	25.985594	0.000585	20.707413
1818.459136	-3.006600	3.362000	-10.106000	25.980736	0.000582	20.688779
1819.457573	-2.992900	3.361400	-10.059000	26.016400	0.000583	20.689050
1820.463900	-2.988900	3.361100	-10.045000	26.008531	0.000580	20.697740
1821.458814	-3.008400	3.360600	-10.109000	26.010419	0.000581	20.711966
1822.459627	-2.977000	3.360200	-10.003000	26.019882	0.000579	20.702032
1823.460243	-3.010100	3.359500	-10.112000	26.023616	0.000580	20.692981
1824.466111	-2.997500	3.359900	-10.070000	26.016586	0.000582	20.716739
1825.459042	-2.993700	3.359700	-10.057000	26.061223	0.000578	20.689514
1826.461428	-3.027200	3.358100	-10.166000	26.065771	0.000578	20.691239
1827.467936	-2.989300	3.359400	-10.041000	26.070067	0.000578	20.692236
1828.462191	-2.999700	3.359100	-10.075000	26.032761	0.000578	20.682728
1829.468087	-2.998000	3.358000	-10.066000	25.996317	0.000575	20.707280
1830.462916	-3.010800	3.356800	-10.105000	25.975055	0.000576	20.698246
1831.469917	-2.963000	3.358400	-9.949900	25.958194	0.000576	20.694108
1832.476649	-3.007100	3.357400	-10.095000	25.914993	0.000576	20.698123
1833.459545	-2.999400	3.356400	-10.066000	25.919192	0.000574	20.703290
1834.467452	-3.000000	3.356100	-10.067000	25.926142	0.000574	20.676605
1835.474627	-2.986800	3.356100	-10.022000	25.957023	0.000576	20.694354
1836.471598	-3.033200	3.354200	-10.173000	25.953020	0.000574	20.700290
1837.465271	-3.015200	3.355200	-10.116000	25.916857	0.000572	20.707108
1838.463378	-3.015500	3.354800	-10.116000	25.893876	0.000572	20.680227
1839.470155	-2.989400	3.355300	-10.029000	25.845016	0.000572	20.703216
1840.461388	-3.002400	3.355100	-10.072000	25.866672	0.000571	20.696995
1841.470964	-3.003300	3.353900	-10.072000	25.872311	0.000571	20.690332
1842.462044	-3.009500	3.353500	-10.091000	25.872336	0.000568	20.706479
1843.462623	-3.007400	3.353100	-10.083000	25.929666	0.000572	20.672558
1844.471117	-2.976800	3.353700	-9.982400	25.945835	0.000571	20.683113
1845.469910	-2.993600	3.354000	-10.039000	25.980736	0.000569	20.690202
1846.460982	-2.992300	3.352800	-10.032000	25.975576	0.000571	20.699244
1847.465950	-3.015900	3.350800	-10.105000	25.986724	0.000569	20.672509
1848.469324	-3.023300	3.351500	-10.131000	25.987269	0.000568	20.693922
1849.465617	-3.002700	3.351700	-10.063000	26.005130	0.000570	20.680570
1850.466939	-2.985800	3.352100	-10.008000	25.979718	0.000566	20.676851
1851.469654	-3.004100	3.349700	-10.062000	26.007196	0.000566	20.691656
1852.468393	-3.006900	3.350900	-10.075000	26.004056	0.000567	20.668585
1853.468354	-2.996100	3.349600	-10.035000	26.051973	0.000567	20.683064
1854.469373	-3.024400	3.349000	-10.127000	26.074723	0.000564	20.701182
1855.479920	-3.042300	3.348600	-10.186000	26.103736	0.000567	20.675804
1856.474493	-3.003600	3.349200	-10.058000	26.090816	0.000565	20.675625
1857.476548	-2.994700	3.348400	-10.026000	26.092851	0.000564	20.676246
1858.473855	-2.995900	3.349300	-10.033000	26.096553	0.000564	20.685656
1859.469065	-3.008200	3.349700	-10.074000	26.092648	0.000563	20.682207
1860.472354	-3.020000	3.348500	-10.111000	26.127226	0.000564	20.686605
1861.481252	-3.005100	3.348300	-10.061000	26.161673	0.000563	20.693718
1862.481028	-2.985800	3.348400	-9.996300	26.143969	0.000562	20.674504
1863.481102	-3.008900	3.347200	-10.070000	26.139893	0.000562	20.684160
1864.472293	-2.992900	3.348200	-10.020000	26.128666	0.000561	20.661022
1865.474267	-3.006500	3.347400	-10.063000	26.128763	0.000561	20.676295
1866.476671	-2.979800	3.347000	-9.971500	26.104876	0.000560	20.667939
1867.482834	-3.017900	3.345700	-10.096000	26.139316	0.000558	20.672199
1868.474929	-2.999600	3.345200	-10.032000	26.152658	0.000558	20.670907
1869.486200	-2.991000	3.344600	-10.003000	26.142895	0.000559	20.660622
1870.477963	-2.983500	3.345800	-9.981400	26.149453	0.000558	20.649666
1871.485146	-3.022900	3.343500	-10.106000	26.111360	0.000558	20.659755
1872.481355	-3.017900	3.343000	-10.087000	26.043674	0.000556	20.666664
1873.476566	-3.010400	3.343500	-10.064000	26.004056	0.000555	20.673327
1874.479445	-2.985900	3.344800	-9.986300	26.010590	0.000556	20.672779
1875.476971	-2.973100	3.343200	-9.938700	26.030607	0.000555	20.687202
1876.476566	-2.978900	3.342500	-9.954600	26.102044	0.000555	20.661300
1877.474535	-2.984500	3.342800	-9.975000	26.113793	0.000552	20.663622
1878.479940	-3.020200	3.341600	-10.091000	26.062446	0.000553	20.675094
1879.480216	-3.008100	3.341600	-10.051000	26.048467	0.000551	20.670057
1880.487848	-3.003300	3.343300	-10.039000	26.056643	0.000552	20.661202
1881.485734	-3.005600	3.341700	-10.043000	26.026895	0.000551	20.662607
1882.478120	-3.002600	3.341400	-10.032000	26.034016	0.000552	20.667865
1883.476472	-3.015900	3.339600	-10.071000	26.004162	0.000552	20.672010
1884.483559	-3.018200	3.339700	-10.079000	26.011118	0.000551	20.656713
1885.480856	-2.977600	3.342200	-9.950300	26.010776	0.000551	20.678656
1886.478387	-2.994200	3.339900	-9.999700	26.028930	0.000550	20.663703
1887.481745	-3.003500	3.339300	-10.029000	26.054039	0.000549	20.661430
1888.476909	-2.964800	3.340200	-9.901800	26.061419	0.000550	20.681175
1889.492244	-2.981300	3.340200	-9.956100	26.059930	0.000546	20.681575
1890.490528	-3.031000	3.339300	-10.120000	26.078855	0.000548	20.654595
1891.488747	-3.005900	3.337500	-10.030000	26.078684	0.000547	20.652526
1892.484543	-3.040600	3.337100	-10.146000	26.072224	0.000546	20.654096
1893.477322	-2.999200	3.337200	-10.008000	26.036977	0.000547	20.639543
1894.487079	-2.999000	3.338400	-10.011000	26.031191	0.000547	20.663605
1895.478974	-3.007700	3.336200	-10.033000	26.047961	0.000545	20.659590
1896.479481	-2.999200	3.336300	-10.005000	26.028458	0.000544	20.649951
1897.480581	-2.997000	3.336600	-9.999100	26.069718	0.000545	20.675288
1898.483582	-2.994300	3.337400	-9.992600	26.065292	0.000545	20.653769
1899.488638	-2.998400	3.335300	-9.999000	26.077341	0.000545	20.654971
1900.480437	-2.999300	3.336100	-10.005000	26.058392	0.000542	20.657268
1901.494959	-2.993800	3.335500	-9.983900	26.036488	0.000543	20.656123
1902.487299	-3.009700	3.334000	-10.033000	26.041410	0.000542	20.655379
1903.479425	-3.003000	3.334300	-10.012000	26.032915	0.000539	20.620287
1904.482838	-3.004400	3.333700	-10.015000	26.058326	0.000541	20.668583
1905.481566	-3.040500	3.331600	-10.129000	26.065355	0.000542	20.670905
1906.480754	-2.982900	3.333900	-9.942100	26.090667	0.000540	20.655084
1907.482638	-3.009600	3.332000	-10.027000	26.071148	0.000539	20.668664
1908.492764	-3.022600	3.331600	-10.069000	26.091318	0.000538	20.651470
1909.483909	-3.008400	3.331900	-10.022000	26.136773	0.000537	20.646408
1910.481482	-2.986000	3.332600	-9.949500	26.132030	0.000538	20.652074
1911.485185	-3.004100	3.331200	-10.006000	26.124610	0.000536	20.666430
1912.485980	-2.994900	3.330700	-9.973700	26.147536	0.000537	20.677615
1913.499378	-3.017700	3.331600	-10.053000	26.151531	0.000536	20.652229
1914.491782	-2.977800	3.331900	-9.920400	26.126976	0.000535	20.662644
1915.483449	-2.959000	3.331100	-9.856000	26.133223	0.000535	20.662757
1916.487368	-2.973000	3.331200	-9.902900	26.110076	0.000535	20.649455
1917.491824	-3.002000	3.329400	-9.992900	26.119140	0.000535	20.647656
1918.484994	-2.983800	3.330300	-9.935400	26.115243	0.000534	20.644688
1919.493495	-2.980600	3.330500	-9.926200	26.118260	0.000536	20.659101
1920.493633	-3.005500	3.328300	-10.002000	26.106739	0.000534	20.644678
1921.485948	-3.009000	3.329100	-10.016000	26.115624	0.000531	20.645546
1922.485909	-2.995100	3.327100	-9.964200	26.116177	0.000533	20.662698
1923.490494	-2.969100	3.329700	-9.885100	26.089831	0.000532	20.659460
1924.485883	-2.994400	3.328200	-9.965100	26.065065	0.000530	20.669190
1925.485902	-3.005500	3.326600	-9.996700	26.033600	0.000529	20.663180
1926.488925	-3.005600	3.326600	-9.996400	26.008473	0.000530	20.683455
1927.499375	-2.997600	3.326000	-9.968700	25.942204	0.000530	20.654807
1928.498798	-3.003600	3.326000	-9.988500	25.934807	0.000528	20.650694
1929.493681	-2.994100	3.326700	-9.959900	25.932374	0.000530	20.669114
1930.487687	-2.974300	3.326600	-9.893400	25.976095	0.000529	20.665148
1931.489720	-3.021800	3.324400	-10.044000	26.000612	0.000528	20.653743
1932.491831	-3.005100	3.324800	-9.991000	25.998333	0.000526	20.636752
1933.495049	-2.992200	3.324400	-9.946800	26.063165	0.000527	20.654952
1934.492578	-2.979100	3.324400	-9.903200	26.107703	0.000526	20.659399
1935.487582	-2.998700	3.324600	-9.967900	26.096524	0.000525	20.658598
1936.507218	-3.016500	3.323200	-10.023000	26.076802	0.000525	20.662016
1937.497924	-2.996700	3.322000	-9.953500	26.069291	0.000525	20.672014
1938.494064	-3.024100	3.323100	-10.049000	26.101607	0.000524	20.651377
1939.505071	-2.995100	3.322000	-9.948400	26.124461	0.000523	20.677662
1940.495283	-3.005500	3.321600	-9.982100	26.131320	0.000522	20.669380
1941.494239	-2.973100	3.323200	-9.878600	26.154938	0.000521	20.650436
1942.503116	-2.991000	3.321800	-9.934100	26.162984	0.000521	20.662316
1943.497657	-3.002700	3.321500	-9.972300	26.153473	0.000522	20.678839
1944.493957	-3.013000	3.319500	-9.999500	26.177277	0.000520	20.643485
1945.504686	-2.962100	3.322400	-9.840300	26.175089	0.000521	20.663100
1946.495500	-2.991600	3.320700	-9.933800	26.172070	0.000519	20.665756
1947.496340	-2.995900	3.320300	-9.946700	26.184583	0.000519	20.663156
1948.498082	-3.000200	3.320200	-9.961000	26.215798	0.000518	20.645210
1949.499722	-3.003100	3.319200	-9.965800	26.227920	0.000520	20.667825
1950.499962	-3.003500	3.319200	-9.968300	26.233459	0.000518	20.630713
1951.500748	-2.988800	3.319300	-9.919300	26.237982	0.000519	20.663238
1952.498160	-3.012000	3.318400	-9.993200	26.254276	0.000519	20.669181
1953.494585	-2.988000	3.318900	-9.915200	26.301141	0.000517	20.655584
1954.509442	-2.979500	3.318600	-9.885500	26.281373	0.000517	20.650417
1955.502535	-2.997600	3.316900	-9.941900	26.276533	0.000516	20.667840
1956.497522	-3.020700	3.316000	-10.016000	26.259044	0.000515	20.671127
1957.497885	-2.983100	3.317300	-9.895300	26.286043	0.000517	20.675501
1958.502830	-3.008200	3.314600	-9.969900	26.283544	0.000515	20.663980
1959.516579	-3.000400	3.314600	-9.943600	26.274360	0.000516	20.663285
1960.505059	-3.021300	3.315000	-10.015000	26.251722	0.000514	20.682737
1961.508753	-3.011900	3.315800	-9.985700	26.199313	0.000511	20.647611
1962.506732	-3.007000	3.315900	-9.969900	26.185752	0.000510	20.656744
1963.506789	-3.002800	3.313600	-9.949000	26.161662	0.000512	20.668100
1964.500484	-3.006000	3.315200	-9.964000	26.126596	0.000512	20.658469
1965.513762	-3.006600	3.313600	-9.961700	26.106176	0.000512	20.653596
1966.499803	-3.018000	3.313600	-9.998900	26.155731	0.000508	20.655027
1967.499954	-3.011600	3.313100	-9.976800	26.206496	0.000509	20.653407
1968.506760	-3.016400	3.312000	-9.988900	26.229047	0.000507	20.667535
1969.512542	-2.991300	3.312400	-9.907500	26.248375	0.000509	20.695970
1970.509688	-2.974500	3.312300	-9.850900	26.256844	0.000507	20.668442
1971.502007	-2.975700	3.313800	-9.859700	26.220390	0.000507	20.674484
1972.503186	-3.011700	3.311600	-9.972200	26.216948	0.000507	20.667231
1973.497931	-3.018100	3.310100	-9.989400	26.211677	0.000507	20.654820
1974.504375	-3.009600	3.311000	-9.963800	26.208228	0.000506	20.687393
1975.501858	-3.036400	3.310400	-10.050000	26.171154	0.000506	20.680958
1976.504067	-2.996200	3.308900	-9.913100	26.174408	0.000506	20.669054
1977.500485	-2.981900	3.309900	-9.868100	26.208805	0.000504	20.683705
1978.503010	-2.993700	3.310900	-9.910800	26.170738	0.000503	20.672005
1979.501997	-2.990200	3.311100	-9.899700	26.168973	0.000504	20.692044
1980.501376	-2.986600	3.309600	-9.883000	26.183552	0.000503	20.682986
1981.501788	-2.996300	3.308300	-9.910900	26.212953	0.000502	20.684081
1982.510455	-3.001600	3.307000	-9.924600	26.215377	0.000501	20.683197
1983.506415	-2.992100	3.308600	-9.898300	26.225693	0.000502	20.690720
1984.504374	-3.005600	3.307300	-9.939100	26.278472	0.000499	20.680696
1985.504219	-3.000700	3.307100	-9.923400	26.290911	0.000501	20.686558
1986.503354	-3.014100	3.305200	-9.961200	26.309945	0.000501	20.682453
1987.515826	-2.992800	3.307700	-9.897900	26.296027	0.000499	20.695020
1988.504104	-3.003300	3.305800	-9.926600	26.328704	0.000499	20.663845
1989.503026	-3.053000	3.302900	-10.082000	26.322204	0.000499	20.678652
1990.513130	-2.978400	3.305900	-9.845100	26.352228	0.000498	20.677531
1991.517075	-3.010700	3.304900	-9.949200	26.354880	0.000495	20.712916
1992.504845	-3.008700	3.304600	-9.941500	26.351057	0.000497	20.699116
1993.504636	-3.002600	3.303300	-9.917700	26.376460	0.000494	20.677229
1994.515857	-2.993300	3.304100	-9.889400	26.392784	0.000494	20.684153
1995.512219	-2.983900	3.304100	-9.858300	26.383065	0.000493	20.684342
1996.505952	-2.992800	3.304200	-9.886900	26.362607	0.000494	20.686541
1997.515999	-3.001900	3.303800	-9.916900	26.372969	0.000493	20.701224
1998.509366	-3.010200	3.302200	-9.939200	26.387091	0.000492	20.674163
1999.511381	-2.993100	3.302000	-9.881800	26.398623	0.000493	20.682910
2000.509835	-2.982000	3.302400	-9.846800	26.383771	0.000493	20.709236
2001.523182	-3.002100	3.302400	-9.912800	26.377670	0.000491	20.698362
2002.511141	-2.995900	3.301200	-9.888800	26.359848	0.000491	20.719806
2003.525575	-3.002600	3.301100	-9.910800	26.326025	0.000490	20.704780
2004.515597	-2.980600	3.301000	-9.837200	26.309984	0.000490	20.697667
2005.517490	-3.015300	3.299100	-9.946800	26.306242	0.000488	20.692957
2006.509470	-2.994900	3.301000	-9.884600	26.322999	0.000487	20.687512
2007.509619	-3.013300	3.299400	-9.941000	26.330206	0.000486	20.681004
2008.511603	-2.990300	3.298300	-9.861500	26.371405	0.000486	20.690642
2009.508414	-2.988500	3.299700	-9.859900	26.404038	0.000485	20.693569
2010.516579	-2.995000	3.299200	-9.879600	26.387649	0.000487	20.704124
2011.511827	-3.001200	3.297700	-9.895800	26.351378	0.000487	20.697542
2012.518689	-2.992600	3.298800	-9.870500	26.343959	0.000484	20.691982
2013.517809	-2.997000	3.297300	-9.881300	26.351581	0.000485	20.702488
2014.514615	-2.968900	3.298700	-9.792500	26.349205	0.000485	20.705316
2015.521211	-3.016800	3.296400	-9.943700	26.368922	0.000485	20.693837
2016.522671	-2.995800	3.296900	-9.875900	26.381091	0.000483	20.686152
2017.520998	-2.988800	3.296600	-9.851800	26.419524	0.000483	20.704392
2018.520291	-2.994200	3.296100	-9.868200	26.449178	0.000482	20.712861
2019.521055	-3.012900	3.295600	-9.927400	26.477856	0.000482	20.710867
2020.520846	-2.997000	3.295000	-9.873600	26.521385	0.000482	20.683494
2021.516330	-3.004900	3.294500	-9.899000	26.530501	0.000481	20.717316
2022.518257	-2.990000	3.295400	-9.850600	26.509941	0.000480	20.711348
2023.521484	-3.008600	3.294000	-9.909800	26.500311	0.000479	20.709255
2024.517626	-3.003500	3.294100	-9.893300	26.483654	0.000480	20.701521
2025.520448	-2.986700	3.294800	-9.839800	26.504890	0.000479	20.718599
2026.524959	-3.014700	3.292300	-9.924400	26.494764	0.000477	20.715059
2027.525951	-2.998500	3.293200	-9.872200	26.573986	0.000478	20.709344
2028.518423	-3.009000	3.292900	-9.906900	26.552987	0.000476	20.700563
2029.530935	-3.009400	3.291100	-9.903500	26.499554	0.000475	20.712761
2030.527396	-2.998600	3.292000	-9.870300	26.471901	0.000477	20.705828
2031.521236	-2.997800	3.291300	-9.866600	26.471111	0.000475	20.720683
2032.520021	-3.005700	3.290600	-9.889700	26.487272	0.000473	20.732186
2033.520139	-3.017800	3.290800	-9.929900	26.481773	0.000476	20.720494
2034.520575	-3.005100	3.291000	-9.888700	26.470102	0.000473	20.696907
2035.518466	-2.988100	3.290300	-9.830700	26.480976	0.000472	20.708787
2036.523334	-3.011400	3.289200	-9.904000	26.474079	0.000470	20.730304
2037.519262	-2.992300	3.290300	-9.844800	26.504595	0.000473	20.716406
2038.527997	-3.002400	3.291300	-9.880500	26.516185	0.000472	20.710511
2039.523255	-3.003400	3.288500	-9.876500	26.527611	0.000470	20.696866
2040.525199	-3.005500	3.288100	-9.880900	26.547674	0.000470	20.715612
2041.531120	-2.985800	3.288600	-9.818200	26.482480	0.000471	20.719308
2042.527851	-2.995400	3.288600	-9.850100	26.478056	0.000469	20.724344
2043.523490	-3.015500	3.287800	-9.913400	26.450084	0.000468	20.708082
2044.523414	-2.998600	3.287500	-9.857000	26.436250	0.000469	20.722627
2045.525139	-2.997400	3.287000	-9.851600	26.385681	0.000468	20.730597
2046.529755	-3.007800	3.285000	-9.880000	26.378353	0.000466	20.728447
2047.523806	-2.981500	3.286300	-9.797400	26.366135	0.000466	20.709529
2048.525242	-2.991700	3.287200	-9.832500	26.407407	0.000466	20.740105
2049.533363	-2.991200	3.285600	-9.825100	26.429352	0.000464	20.699097
2050.537897	-2.963800	3.286000	-9.736600	26.451622	0.000464	20.717689
2051.526347	-3.022700	3.282700	-9.921700	26.474102	0.000464	20.732224
2052.529407	-3.000700	3.283800	-9.853200	26.520810	0.000463	20.726067
2053.534230	-3.003000	3.284000	-9.861200	26.489189	0.000461	20.746442
2054.539087	-3.006800	3.283300	-9.870900	26.485147	0.000462	20.739059
2055.528077	-2.978000	3.284400	-9.779600	26.437159	0.000461	20.732077
2056.530456	-2.992600	3.283500	-9.824900	26.425544	0.000459	20.716608
2057.528001	-2.997900	3.281800	-9.837500	26.378636	0.000459	20.747700
2058.534992	-3.018000	3.281900	-9.903800	26.356348	0.000460	20.714392
2059.540042	-2.990600	3.281500	-9.812800	26.335817	0.000459	20.728372
2060.529536	-2.998100	3.282100	-9.839400	26.342715	0.000458	20.730563
2061.529370	-2.997800	3.281200	-9.834700	26.354461	0.000456	20.746636
2062.537283	-2.998900	3.279700	-9.835400	26.367370	0.000458	20.745860
2063.536686	-2.994800	3.280500	-9.823500	26.362953	0.000457	20.740946
2064.538990	-2.999400	3.280900	-9.840400	26.397116	0.000458	20.732608
2065.539542	-3.005500	3.279600	-9.855500	26.398791	0.000456	20.714375
2066.541459	-2.943100	3.279800	-9.652500	26.416808	0.000453	20.763306
2067.544772	-2.994200	3.279000	-9.816200	26.443324	0.000453	20.746808
2068.535215	-3.026100	3.278000	-9.918500	26.439152	0.000452	20.759210
2069.537044	-2.998300	3.278600	-9.829100	26.463511	0.000453	20.756193
2070.539914	-3.009300	3.276600	-9.859300	26.487041	0.000452	20.732902
2071.534394	-2.988200	3.277300	-9.792300	26.496012	0.000451	20.732910
2072.536944	-3.027000	3.276500	-9.916900	26.549364	0.000451	20.740072
2073.537203	-3.014500	3.275800	-9.872900	26.569273	0.000450	20.734954
2074.544170	-2.995700	3.277400	-9.817100	26.562588	0.000450	20.730131
2075.543159	-2.987100	3.276300	-9.785300	26.583318	0.000449	20.749547
2076.536164	-2.992500	3.276100	-9.802900	26.562620	0.000449	20.756243
2077.542994	-2.995800	3.274300	-9.807900	26.573396	0.000449	20.757591
2078.536407	-2.973300	3.276300	-9.740400	26.585701	0.000445	20.766168
2079.544275	-3.009100	3.275500	-9.855100	26.562051	0.000447	20.739548
2080.546062	-2.981500	3.275800	-9.765400	26.589832	0.000446	20.760363
2081.560966	-3.032300	3.273600	-9.925400	26.583326	0.000446	20.750029
2082.538949	-3.005800	3.274700	-9.842400	26.613164	0.000446	20.753945
2083.538368	-2.992000	3.274300	-9.795900	26.666029	0.000444	20.756356
2084.539692	-3.014100	3.272900	-9.864200	26.681212	0.000442	20.758817
2085.538738	-2.997100	3.272900	-9.808400	26.682798	0.000444	20.766102
2086.538269	-3.012500	3.271400	-9.854000	26.687571	0.000442	20.734389
2087.543368	-3.019300	3.271300	-9.875500	26.686505	0.000441	20.759872
2088.539645	-3.001100	3.272400	-9.820200	26.671510	0.000443	20.768505
2089.547866	-3.012200	3.270700	-9.851400	26.665533	0.000441	20.762496
2090.541358	-2.995400	3.272100	-9.800200	26.739652	0.000439	20.765414
2091.541315	-3.008300	3.270100	-9.836600	26.745466	0.000439	20.780268
2092.542903	-3.016500	3.270500	-9.864600	26.771453	0.000439	20.772731
2093.550002	-2.991600	3.269500	-9.780000	26.770762	0.000436	20.758285
2094.544433	-3.000700	3.269900	-9.810700	26.727398	0.000437	20.779173
2095.548259	-2.996300	3.269400	-9.795500	26.748474	0.000437	20.773810
2096.548031	-3.009200	3.268800	-9.835200	26.728991	0.000436	20.758489
2097.545146	-2.989900	3.268200	-9.770900	26.749669	0.000435	20.770744
2098.545092	-2.991300	3.268300	-9.775400	26.751402	0.000435	20.771063
2099.543379	-3.014900	3.266300	-9.845800	26.760988	0.000433	20.753199
2100.544045	-2.999000	3.267600	-9.798500	26.753320	0.000433	20.768724
2101.545134	-3.005900	3.267200	-9.820000	26.726445	0.000434	20.771103
2102.546488	-3.017100	3.266700	-9.855100	26.664930	0.000433	20.762838
2103.545644	-2.959100	3.267200	-9.667000	26.661531	0.000431	20.768904
2104.548396	-3.012200	3.264700	-9.832600	26.634126	0.000432	20.785450
2105.549955	-2.997000	3.265200	-9.785200	26.615015	0.000430	20.779041
2106.547303	-3.002200	3.266000	-9.804000	26.591228	0.000430	20.785001
2107.546978	-2.992200	3.266700	-9.773600	26.536040	0.000430	20.783578
2108.547419	-2.995000	3.265300	-9.778500	26.583364	0.000429	20.790845
2109.551895	-3.014400	3.264000	-9.837800	26.574995	0.000429	20.783856
2110.549966	-3.010700	3.263800	-9.825300	26.608062	0.000427	20.769680
2111.552927	-2.994600	3.264200	-9.773900	26.646763	0.000426	20.786775
2112.553546	-2.996000	3.263800	-9.777300	26.677851	0.000427	20.769189
2113.558238	-3.012200	3.261900	-9.824700	26.688324	0.000426	20.772132
2114.554413	-3.012700	3.262600	-9.827200	26.709711	0.000425	20.759968
2115.552748	-2.985400	3.262300	-9.738800	26.755067	0.000422	20.793241
2116.553930	-3.002600	3.262700	-9.795400	26.798389	0.000422	20.788907
2117.553748	-3.001200	3.262100	-9.788500	26.817919	0.000423	20.788630
2118.552763	-2.999000	3.259300	-9.774100	26.858873	0.000422	20.784289
2119.556378	-3.002600	3.260900	-9.790700	26.853937	0.000422	20.794025
2120.553290	-3.010000	3.260100	-9.811000	26.836360	0.000421	20.768290
2121.553937	-2.982500	3.260600	-9.724000	26.819586	0.000420	20.786512
2122.558014	-3.009500	3.259700	-9.808700	26.790843	0.000419	20.807399
2123.563729	-2.999200	3.259300	-9.774500	26.762873	0.000422	20.793976
2124.558218	-2.996700	3.258900	-9.764100	26.715215	0.000418	20.783994
2125.554025	-3.015700	3.257100	-9.821400	26.702180	0.000417	20.803606
2126.556016	-3.024400	3.258100	-9.851800	26.703781	0.000418	20.770602
2127.558679	-3.006100	3.258400	-9.794500	26.704798	0.000416	20.785849
2128.554090	-3.005100	3.257200	-9.787000	26.738706	0.000415	20.799076
2129.564283	-2.967200	3.258700	-9.667500	26.713434	0.000414	20.795480
2130.557314	-3.006500	3.256900	-9.790600	26.696560	0.000414	20.790844
2131.559245	-2.990200	3.257400	-9.739800	26.707286	0.000414	20.778867
2132.560059	-2.992300	3.255000	-9.739100	26.727077	0.000414	20.802084
2133.562135	-3.006500	3.254900	-9.784400	26.767360	0.000413	20.783788
2134.557001	-2.993000	3.254300	-9.738300	26.804819	0.000412	20.801062
2135.560153	-2.969200	3.255000	-9.663800	26.826365	0.000412	20.791906
2136.557378	-2.997300	3.253400	-9.749800	26.817657	0.000412	20.784098
2137.559769	-3.005200	3.252400	-9.772200	26.808526	0.000411	20.802893
2138.563322	-2.999700	3.252900	-9.756700	26.790231	0.000408	20.800620
2139.567514	-3.033500	3.251300	-9.860900	26.773091	0.000406	20.806146
2140.563375	-3.042200	3.250200	-9.885400	26.776912	0.000407	20.789599
2141.561838	-3.008000	3.252000	-9.781400	26.825364	0.000408	20.789477
2142.561826	-3.028400	3.250200	-9.841700	26.828941	0.000405	20.799237
2143.559317	-2.989600	3.252200	-9.720600	26.837478	0.000408	20.806399
2144.567620	-2.995600	3.249800	-9.734100	26.870244	0.000406	20.830335
2145.564277	-2.984300	3.251000	-9.699700	26.905268	0.000404	20.812448
2146.563325	-2.994600	3.249100	-9.728900	26.906138	0.000403	20.806210
2147.559895	-2.970400	3.251500	-9.657700	26.948234	0.000403	20.812504
2148.563410	-3.013500	3.249700	-9.791800	26.968094	0.000403	20.809242
2149.561953	-2.991800	3.249700	-9.721000	26.952746	0.000401	20.813249
2150.563051	-3.017200	3.249700	-9.803000	26.997157	0.000401	20.780621
2151.573568	-3.014500	3.248700	-9.792000	26.975313	0.000401	20.788527
2152.565255	-3.022000	3.247700	-9.814000	26.996197	0.000401	20.782975
2153.571970	-3.005800	3.247000	-9.758600	27.022251	0.000399	20.820082
2154.564693	-3.003000	3.247000	-9.749300	27.018553	0.000398	20.797396
2155.564251	-3.005300	3.246700	-9.756300	27.024169	0.000397	20.803519
2156.569632	-3.020600	3.247000	-9.807100	27.002156	0.000398	20.807933
2157.565841	-2.997900	3.246200	-9.730000	26.989352	0.000398	20.790790
2158.564455	-3.003900	3.245400	-9.747800	26.982116	0.000396	20.799161
2159.564166	-2.973800	3.245100	-9.648700	26.973507	0.000396	20.793348
2160.570489	-2.987900	3.244800	-9.694100	26.941387	0.000394	20.815576
2161.569113	-3.001600	3.243400	-9.733800	26.917737	0.000393	20.798908
2162.568755	-3.011200	3.244000	-9.766700	26.914542	0.000393	20.790479
2163.567421	-3.020900	3.243100	-9.795500	26.974401	0.000393	20.801834
2164.569715	-3.000500	3.243200	-9.730300	27.009202	0.000392	20.781829
2165.568382	-3.006600	3.243500	-9.751000	27.015226	0.000391	20.779826
2166.566874	-3.012000	3.241200	-9.761700	26.972393	0.000387	20.815936
2167.570399	-2.975300	3.241800	-9.644500	26.955711	0.000392	20.772608
2168.565514	-3.023800	3.241100	-9.799000	26.902233	0.000388	20.788059
2169.572341	-2.993700	3.241600	-9.702600	26.900826	0.000389	20.787118
2170.565993	-3.011800	3.240600	-9.759300	26.899680	0.000386	20.785492
2171.569573	-3.016700	3.240500	-9.774600	26.885883	0.000387	20.785369
2172.567769	-2.993500	3.239900	-9.697900	26.894891	0.000387	20.796798
2173.566196	-3.021600	3.238400	-9.784000	26.918444	0.000384	20.784445
2174.571079	-3.012100	3.238600	-9.753900	26.923614	0.000385	20.776368
2175.565973	-2.997200	3.239500	-9.708600	26.928070	0.000384	20.796970
2176.569983	-3.001800	3.238300	-9.719900	26.944524	0.000384	20.786963
2177.568691	-2.984000	3.237900	-9.661000	26.986221	0.000386	20.787167
2178.566289	-3.008600	3.237100	-9.737400	27.024705	0.000384	20.771340
2179.566748	-2.995600	3.238200	-9.698400	27.034541	0.000383	20.781232
2180.568923	-2.978500	3.236200	-9.637200	27.041955	0.000381	20.797223
2181.565822	-2.985300	3.237300	-9.663500	26.999423	0.000380	20.766304
2182.572981	-2.980500	3.236000	-9.644700	26.938329	0.000381	20.777888
2183.570518	-2.990300	3.236500	-9.676600	26.902858	0.000379	20.775886
2184.568722	-2.983000	3.235200	-9.650100	26.895785	0.000380	20.775886
2185.567966	-2.993400	3.233700	-9.678600	26.953581	0.000378	20.780897
2186.570603	-3.012100	3.234200	-9.741000	26.997236	0.000380	20.758415
2187.569462	-2.990300	3.233300	-9.667600	27.027038	0.000377	20.775583
2188.575050	-2.978200	3.233300	-9.628900	27.026762	0.000377	20.787634
2189.571197	-2.996700	3.231800	-9.683400	27.076243	0.000376	20.773384
2190.567277	-2.990400	3.232800	-9.666400	27.099970	0.000375	20.771643
2191.568047	-2.999100	3.231300	-9.689900	27.136474	0.000376	20.774692
2192.569335	-3.008000	3.231700	-9.719300	27.130663	0.000375	20.756993
2193.571807	-2.991000	3.231400	-9.664000	27.147911	0.000372	20.773866
2194.571517	-2.981400	3.232300	-9.634800	27.155104	0.000372	20.782050
2195.570234	-3.025200	3.228100	-9.764400	27.158908	0.000372	20.771650
2196.571813	-2.999600	3.229100	-9.685100	27.162330	0.000370	20.788843
2197.571581	-3.006100	3.228700	-9.704500	27.170344	0.000370	20.774618
2198.571301	-2.992800	3.228900	-9.662900	27.159152	0.000371	20.769525
2199.570559	-2.994100	3.229000	-9.666700	27.131191	0.000371	20.752308
2200.569936	-3.017800	3.226400	-9.734000	27.061838	0.000369	20.754630
2201.570949	-3.007200	3.229400	-9.709400	27.071543	0.000368	20.785254
2202.574915	-3.019200	3.227700	-9.743700	27.066975	0.000369	20.743200
2203.572313	-2.989000	3.227500	-9.645500	27.121689	0.000367	20.755079
2204.573892	-3.016300	3.226200	-9.729700	27.118511	0.000368	20.776065
2205.572690	-3.009900	3.226700	-9.710800	27.156030	0.000366	20.774921
2206.572583	-3.024700	3.225400	-9.755100	27.123274	0.000364	20.747190
2207.573171	-3.000900	3.225600	-9.679300	27.073007	0.000365	20.767285
2208.573497	-3.001100	3.223900	-9.674500	27.018014	0.000365	20.775517
2209.574596	-3.002400	3.224200	-9.678700	27.035037	0.000362	20.728624
2210.574691	-3.007300	3.222500	-9.689900	27.033297	0.000362	20.772869
2211.573686	-3.013100	3.223200	-9.710900	27.071543	0.000362	20.767236
2212.574654	-3.006700	3.223600	-9.691700	27.117934	0.000361	20.771692
2213.575432	-2.995800	3.222400	-9.652800	27.103416	0.000360	20.758988
2214.576944	-3.002500	3.222300	-9.674700	27.063594	0.000360	20.757818
2215.578917	-2.971900	3.222200	-9.573600	27.074811	0.000359	20.747288
2216.578676	-2.992500	3.221600	-9.639400	27.081681	0.000361	20.762732
2217.576999	-2.961900	3.221100	-9.539800	27.127314	0.000356	20.757892
2218.578946	-2.988200	3.220600	-9.621900	27.103741	0.000358	20.749357
2219.583583	-2.981200	3.221000	-9.600700	27.081981	0.000356	20.758767
2220.577870	-2.953900	3.220500	-9.512100	27.096743	0.000356	20.753224
2221.579513	-3.000700	3.218200	-9.655000	27.121454	0.000354	20.748679
2222.578876	-2.983200	3.219800	-9.603900	27.140133	0.000356	20.752767
2223.577479	-3.005500	3.216800	-9.667100	27.161306	0.000355	20.732810
2224.578857	-2.985500	3.218400	-9.606600	27.176612	0.000355	20.755791
2225.577547	-2.982100	3.217300	-9.592300	27.161501	0.000355	20.745809
2226.579403	-3.012900	3.215800	-9.687800	27.138165	0.000352	20.736088
2227.577621	-2.980100	3.217100	-9.585800	27.083437	0.000351	20.747428
2228.579047	-2.995800	3.215300	-9.631400	27.022120	0.000350	20.737446
2229.580007	-2.996500	3.214600	-9.631000	27.008203	0.000352	20.742416
2230.579791	-3.018200	3.214300	-9.700900	26.993042	0.000350	20.750878
2231.587526	-3.000200	3.214200	-9.642300	27.030136	0.000348	20.753093
2232.580759	-2.995400	3.213700	-9.624200	27.050490	0.000348	20.755071
2233.593628	-3.014400	3.213500	-9.685600	27.026420	0.000347	20.758366
2234.582351	-3.000800	3.212900	-9.640300	26.989944	0.000347	20.752030
2235.580751	-3.000000	3.214100	-9.640400	27.017681	0.000348	20.726817
2236.585085	-3.006700	3.212800	-9.658600	27.033932	0.000346	20.737944
2237.581009	-3.024100	3.211100	-9.709900	27.092426	0.000345	20.745563
2238.581969	-3.014900	3.211300	-9.681300	27.123242	0.000344	20.732933
2239.583013	-2.987000	3.212100	-9.593600	27.152503	0.000346	20.752406
2240.582998	-3.020300	3.210200	-9.693700	27.203986	0.000343	20.752504
2241.587716	-2.990800	3.210700	-9.600200	27.196614	0.000342	20.725648
2242.583028	-2.981100	3.209800	-9.566900	27.164606	0.000341	20.746087
2243.585026	-3.011700	3.208900	-9.662900	27.151553	0.000343	20.744337
2244.583522	-2.997700	3.207900	-9.614700	27.159022	0.000342	20.741893
2245.583730	-2.995500	3.209100	-9.610900	27.138523	0.000341	20.743561
2246.588557	-2.982000	3.207700	-9.564000	27.094906	0.000340	20.750428
2247.584229	-3.015400	3.207100	-9.669700	27.054116	0.000340	20.735957
2248.590916	-3.012100	3.204900	-9.652300	27.046889	0.000337	20.751450
2249.584154	-2.996200	3.206100	-9.605600	27.077137	0.000338	20.733505
2250.585903	-3.007700	3.205600	-9.640500	27.050710	0.000337	20.730161
2251.584471	-2.992000	3.205200	-9.589100	27.004731	0.000336	20.728493
2252.592040	-3.000700	3.205600	-9.617900	26.954800	0.000337	20.740871
2253.586700	-2.994300	3.204300	-9.594400	26.926760	0.000335	20.734486
2254.587958	-2.953400	3.204200	-9.461500	26.966393	0.000335	20.743045
2255.590285	-2.995600	3.204200	-9.598200	27.001504	0.000333	20.739947
2256.588636	-2.985900	3.203300	-9.562800	27.002667	0.000333	20.717881
2257.586865	-2.979300	3.202900	-9.541700	27.039817	0.000332	20.731060
2258.589756	-2.978700	3.201700	-9.536400	27.054157	0.000330	20.716083
2259.587829	-2.992800	3.201700	-9.580700	27.065318	0.000333	20.732050
2260.591252	-3.011900	3.200100	-9.637200	27.114626	0.000331	20.728060
2261.593187	-2.997200	3.202400	-9.597800	27.157747	0.000331	20.723539
2262.591592	-3.014700	3.198200	-9.640300	27.171970	0.000330	20.715560
2263.591977	-2.997100	3.200700	-9.592400	27.196948	0.000329	20.718871
2264.591768	-3.010800	3.199800	-9.631800	27.223396	0.000329	20.717024
2265.592193	-2.993400	3.199700	-9.576600	27.253118	0.000329	20.738861
2266.593070	-3.023000	3.197200	-9.664500	27.279036	0.000328	20.715618
2267.592266	-2.999000	3.197900	-9.589100	27.322109	0.000328	20.723384
2268.593339	-2.991100	3.198200	-9.564700	27.330838	0.000326	20.727423
2269.593621	-2.991200	3.197400	-9.562900	27.325799	0.000328	20.715242
2270.593822	-2.982000	3.197200	-9.533000	27.243243	0.000326	20.720866
2271.594149	-2.989300	3.196700	-9.554600	27.208303	0.000327	20.722232
2272.594881	-2.984200	3.197600	-9.541200	27.172150	0.000326	20.731863
2273.596043	-3.002500	3.194600	-9.590500	27.113221	0.000324	20.728544
2274.594002	-2.996500	3.194800	-9.572800	27.093542	0.000324	20.725821
2275.595367	-3.010000	3.192800	-9.609400	27.066929	0.000322	20.718971
2276.594634	-3.000500	3.193000	-9.579600	27.048119	0.000322	20.710485
2277.595349	-3.003500	3.192200	-9.586800	27.098314	0.000322	20.715922
2278.595390	-2.979900	3.193700	-9.516100	27.150921	0.000321	20.710035
2279.595268	-2.991800	3.191100	-9.545800	27.190447	0.000321	20.709961
2280.595159	-2.992600	3.190800	-9.547300	27.200738	0.000321	20.725528
2281.598292	-2.998600	3.192900	-9.572400	27.170957	0.000320	20.726395
2282.599118	-3.016500	3.190300	-9.622500	27.173461	0.000319	20.745035
2283.594870	-2.988400	3.191100	-9.534900	27.183466	0.000318	20.722381
2284.600654	-3.025300	3.189200	-9.647400	27.217676	0.000317	20.710796
2285.597170	-3.008700	3.192100	-9.603200	27.228885	0.000318	20.720648
2286.597022	-3.010700	3.188200	-9.597400	27.201201	0.000316	20.698966
2287.602419	-2.991000	3.188300	-9.535100	27.223797	0.000314	20.709840
2288.597691	-2.979400	3.186400	-9.492600	27.211890	0.000315	20.727736
2289.598173	-2.997500	3.186700	-9.550900	27.214019	0.000315	20.707592
2290.597864	-3.009700	3.186100	-9.588000	27.213345	0.000316	20.685101
2291.602710	-3.008200	3.188600	-9.590700	27.228674	0.000313	20.709056
2292.602355	-3.003500	3.184900	-9.565100	27.254618	0.000312	20.698641
2293.599679	-2.998000	3.185000	-9.547700	27.262070	0.000312	20.699498
2294.604915	-2.986300	3.186000	-9.512900	27.258746	0.000312	20.727451
2295.604575	-3.012200	3.183500	-9.588600	27.246580	0.000312	20.694348
2296.604798	-2.997100	3.183900	-9.541700	27.275512	0.000310	20.712547
2297.603423	-3.004400	3.182500	-9.560900	27.287216	0.000309	20.709147
2298.603719	-2.999900	3.181700	-9.541900	27.335913	0.000311	20.718778
2299.601554	-2.981900	3.182200	-9.487700	27.329704	0.000308	20.742879
2300.605592	-3.003600	3.180300	-9.550000	27.308469	0.000308	20.686427
2301.605782	-2.994700	3.181400	-9.525800	27.318766	0.000309	20.709589
2302.602314	-2.993900	3.180000	-9.519900	27.299334	0.000306	20.716595
2303.603859	-3.001900	3.182100	-9.550800	27.296189	0.000307	20.704422
2304.602462	-2.991900	3.179700	-9.512400	27.235876	0.000305	20.692591
2305.602235	-3.008100	3.178000	-9.558800	27.226424	0.000304	20.699205
2306.607236	-2.985500	3.180300	-9.493500	27.251896	0.000304	20.716293
2307.603225	-3.048400	3.176900	-9.683400	27.264501	0.000304	20.708109
2308.603885	-3.003100	3.177700	-9.540600	27.297156	0.000302	20.704920
2309.606789	-2.974000	3.177600	-9.448900	27.291646	0.000302	20.708861
2310.605142	-3.003700	3.175100	-9.536100	27.268947	0.000303	20.702623
2311.602726	-2.998500	3.175500	-9.520700	27.286258	0.000301	20.703915
2312.604717	-2.997800	3.175000	-9.515800	27.316702	0.000301	20.704667
2313.602881	-2.992200	3.175300	-9.500400	27.357279	0.000300	20.701863
2314.602818	-2.983800	3.173300	-9.467500	27.375498	0.000299	20.727779
2315.603567	-2.986700	3.173600	-9.477500	27.378717	0.000299	20.711576
2316.611895	-2.991100	3.173200	-9.490500	27.365063	0.000298	20.695469
2317.604815	-3.016300	3.172800	-9.568500	27.320058	0.000297	20.699508
2318.604463	-3.016300	3.171600	-9.566000	27.291199	0.000297	20.701299
2319.605226	-2.998700	3.171500	-9.510100	27.247344	0.000296	20.694169
2320.605649	-2.995600	3.170500	-9.495400	27.212257	0.000297	20.710087
2321.605154	-3.023300	3.169000	-9.579800	27.150697	0.000296	20.708387
2322.606172	-3.014100	3.169500	-9.552000	27.132741	0.000296	20.693646
2323.608800	-2.988100	3.170400	-9.472700	27.180729	0.000294	20.694021
2324.605769	-2.981200	3.170400	-9.451000	27.214842	0.000293	20.671906
2325.608313	-2.996100	3.169700	-9.495700	27.271653	0.000295	20.685429
2326.606540	-3.002900	3.167500	-9.510300	27.304429	0.000294	20.715557
2327.606564	-3.000200	3.167600	-9.502200	27.316368	0.000292	20.697218
2328.607280	-2.985100	3.167500	-9.453900	27.347152	0.000292	20.694520
2329.607556	-3.029800	3.165400	-9.589600	27.376766	0.000292	20.686852
2330.606590	-3.015200	3.166300	-9.545800	27.426538	0.000294	20.672911
2331.608117	-3.008600	3.166200	-9.524000	27.431300	0.000291	20.683393
2332.606655	-3.009800	3.165400	-9.526000	27.460911	0.000289	20.699908
2333.617688	-2.984400	3.163700	-9.440300	27.488986	0.000290	20.684530
2334.608436	-3.025200	3.161800	-9.563600	27.465942	0.000289	20.676992
2335.609448	-2.975900	3.163700	-9.413800	27.442823	0.000291	20.677441
2336.609983	-2.985900	3.162300	-9.441300	27.392442	0.000290	20.667532
2337.610206	-3.006200	3.163100	-9.507500	27.355450	0.000288	20.671571
2338.612089	-3.045000	3.160500	-9.622900	27.275099	0.000288	20.685102
2339.614467	-2.997100	3.160300	-9.471700	27.262958	0.000287	20.696598
2340.610852	-3.019900	3.160500	-9.542800	27.295661	0.000287	20.668800
2341.612532	-2.992100	3.157300	-9.446600	27.320196	0.000286	20.680680
2342.615094	-2.971900	3.158500	-9.385500	27.371964	0.000288	20.677753
2343.612190	-3.006300	3.158900	-9.495100	27.406915	0.000287	20.672610
2344.624175	-3.019800	3.156000	-9.529200	27.366113	0.000285	20.686566
2345.614438	-3.012200	3.155200	-9.503200	27.294833	0.000285	20.673183
2346.616470	-3.026300	3.154000	-9.544100	27.279920	0.000284	20.700384
2347.616142	-3.015000	3.153600	-9.507400	27.268883	0.000283	20.681694
2348.614671	-3.012200	3.154500	-9.500400	27.213852	0.000282	20.693672
2349.622622	-2.997800	3.154100	-9.454100	27.215168	0.000285	20.658482
2350.614084	-2.983000	3.155100	-9.410700	27.222004	0.000284	20.679585
2351.615489	-2.970500	3.152300	-9.362800	27.283984	0.000283	20.688824
2352.614527	-2.989400	3.152500	-9.424000	27.342847	0.000282	20.683551
2353.625565	-3.007300	3.151900	-9.477200	27.401764	0.000280	20.693035
2354.615937	-3.018200	3.151100	-9.509400	27.391793	0.000281	20.661190
2355.617434	-2.993400	3.152100	-9.433600	27.371372	0.000279	20.686642
2356.616842	-2.968000	3.150100	-9.346700	27.368146	0.000278	20.677231
2357.617306	-2.986900	3.148400	-9.402600	27.426265	0.000279	20.675008
2358.617771	-3.005200	3.148600	-9.461100	27.446971	0.000280	20.674975
2359.617970	-2.996900	3.147900	-9.433400	27.487681	0.000278	20.680371
2360.620157	-3.001700	3.146300	-9.442900	27.520386	0.000278	20.665386
2361.618972	-2.983100	3.145600	-9.382000	27.532339	0.000278	20.653702
2362.620002	-3.005900	3.147200	-9.458200	27.517527	0.000278	20.680054
2363.618341	-3.007900	3.143400	-9.453600	27.491225	0.000274	20.668289
2364.627319	-3.017400	3.142500	-9.481200	27.447070	0.000278	20.685982
2365.619664	-3.022600	3.142200	-9.497100	27.422538	0.000274	20.689751
2366.619522	-2.987300	3.143400	-9.389200	27.420498	0.000275	20.696235
2367.621776	-2.998300	3.142000	-9.418600	27.388668	0.000275	20.668004
2368.621023	-2.999600	3.140400	-9.417400	27.364476	0.000274	20.658365
2369.623327	-2.996000	3.140700	-9.408400	27.368435	0.000275	20.648121
2370.626662	-3.013600	3.140000	-9.462400	27.397315	0.000272	20.684765
2371.621572	-3.016000	3.138400	-9.464700	27.437834	0.000274	20.685698
2372.623348	-2.990300	3.139300	-9.387000	27.489278	0.000274	20.651155
2373.627076	-2.977200	3.138400	-9.342000	27.519530	0.000274	20.687285
2374.623961	-2.998900	3.136600	-9.405700	27.505912	0.000273	20.682118
2375.625008	-2.993800	3.137200	-9.391000	27.538722	0.000271	20.687629
2376.629119	-3.028800	3.134000	-9.491000	27.552210	0.000274	20.690295
2377.630346	-3.008800	3.136300	-9.435500	27.560043	0.000271	20.676838
2378.626002	-2.999000	3.134400	-9.398800	27.536595	0.000271	20.665098
2379.628805	-2.979800	3.133200	-9.334800	27.595420	0.000270	20.679717
2380.626842	-3.019700	3.132500	-9.458300	27.626075	0.000271	20.656031
2381.625566	-2.984700	3.132100	-9.347900	27.646410	0.000270	20.667960
2382.628305	-2.972500	3.133400	-9.312800	27.687146	0.000269	20.678606
2383.628484	-3.003700	3.131800	-9.406300	27.678738	0.000270	20.680577
2384.627758	-3.010400	3.130500	-9.423400	27.654877	0.000269	20.679326
2385.630818	-2.977300	3.127500	-9.310700	27.630618	0.000269	20.696643
2386.631481	-2.993600	3.128500	-9.364600	27.615531	0.000271	20.653008
2387.629051	-2.980000	3.128100	-9.320800	27.592514	0.000267	20.694338
2388.627710	-2.964800	3.128700	-9.274800	27.510784	0.000269	20.674217
2389.628601	-3.020200	3.125600	-9.439400	27.491032	0.000268	20.665249
2390.629314	-3.019000	3.124200	-9.430200	27.468962	0.000267	20.678134
2391.628794	-3.025100	3.123600	-9.448500	27.506405	0.000267	20.691625
2392.631925	-3.005700	3.123600	-9.387200	27.519203	0.000265	20.646175
2393.630024	-2.994900	3.122500	-9.351200	27.552094	0.000265	20.670736
2394.630454	-2.991100	3.122300	-9.338200	27.564664	0.000268	20.656354
2395.633796	-3.001200	3.122300	-9.369000	27.584871	0.000265	20.657720
2396.630724	-2.969800	3.121800	-9.269500	27.612064	0.000265	20.659952
2397.632886	-3.012100	3.119600	-9.395100	27.678026	0.000265	20.668954
2398.631869	-2.999800	3.120300	-9.359000	27.670658	0.000265	20.678136
2399.636319	-3.004000	3.119700	-9.370600	27.673080	0.000264	20.681996
2400.634031	-2.983900	3.118100	-9.303100	27.636162	0.000265	20.668553
2401.633387	-2.998200	3.117300	-9.346000	27.641980	0.000264	20.661131
2402.634717	-3.011100	3.115400	-9.379500	27.628339	0.000264	20.681072
2403.634509	-2.972900	3.115900	-9.262700	27.615526	0.000265	20.675291
2404.633585	-2.981200	3.114800	-9.284800	27.581411	0.000265	20.683639
2405.634764	-3.007100	3.112200	-9.357000	27.599911	0.000262	20.676649
2406.631888	-3.010300	3.112500	-9.368100	27.565364	0.000261	20.663698
2407.632535	-2.990600	3.112500	-9.307000	27.575658	0.000263	20.667418
2408.632651	-3.012500	3.110700	-9.370100	27.603105	0.000262	20.674172
2409.637836	-3.010700	3.110200	-9.363300	27.565706	0.000263	20.671629
2410.634775	-3.005400	3.109500	-9.344200	27.549862	0.000262	20.682241
2411.634420	-3.018600	3.108700	-9.383200	27.522951	0.000261	20.686460
2412.638610	-3.010300	3.106500	-9.350000	27.563398	0.000262	20.677369
2413.639394	-2.972000	3.106900	-9.232600	27.561911	0.000261	20.689150
2414.637235	-3.002800	3.106300	-9.326400	27.583337	0.000262	20.667084
2415.640121	-3.018300	3.105400	-9.371900	27.641574	0.000261	20.674949
2416.638864	-3.001600	3.104200	-9.315600	27.690206	0.000260	20.678366
2417.640543	-3.016700	3.103700	-9.362400	27.698290	0.000258	20.693614
2418.642050	-2.978200	3.104000	-9.243400	27.693529	0.000260	20.686452
2419.638432	-3.018600	3.102400	-9.362900	27.703294	0.000259	20.662138
2420.640053	-2.984700	3.100500	-9.252800	27.739453	0.000258	20.686199
2421.640501	-2.985600	3.099800	-9.254400	27.766952	0.000258	20.693484
2422.640058	-2.999700	3.099600	-9.297200	27.770453	0.000258	20.686101
2423.641595	-2.995000	3.099300	-9.282200	27.800851	0.000260	20.671172
2424.645361	-2.988900	3.097300	-9.255100	27.818729	0.000258	20.682528
2425.643701	-2.992100	3.096500	-9.263100	27.864900	0.000257	20.684425
2426.641877	-2.983000	3.094400	-9.229600	27.819501	0.000257	20.673347
2427.646566	-2.996300	3.096700	-9.277000	27.763759	0.000256	20.694064
2428.643316	-3.019600	3.093300	-9.339000	27.763361	0.000255	20.677067
2429.641346	-3.017200	3.092600	-9.329700	27.765148	0.000257	20.698781
2430.644426	-2.999400	3.091300	-9.270700	27.724742	0.000255	20.673764
2431.645839	-2.976400	3.092300	-9.202400	27.694496	0.000255	20.683158
2432.642359	-3.013900	3.091100	-9.315200	27.666566	0.000254	20.677337
2433.642242	-3.004700	3.089100	-9.281500	27.656467	0.000253	20.700368
2434.643445	-2.968300	3.090200	-9.172300	27.658670	0.000256	20.695472
2435.649137	-2.975100	3.088000	-9.186100	27.659644	0.000252	20.702617
2436.643397	-3.006000	3.087000	-9.278700	27.613667	0.000252	20.696182
2437.644985	-3.018600	3.086500	-9.315800	27.612246	0.000254	20.677681
2438.645897	-2.999900	3.084200	-9.251200	27.636774	0.000254	20.681499
2439.648573	-2.977200	3.085100	-9.183500	27.671270	0.000254	20.682545
2440.646731	-2.987900	3.083900	-9.213700	27.661570	0.000254	20.672310
2441.646944	-2.995900	3.083800	-9.238600	27.646174	0.000253	20.681474
2442.648154	-3.020500	3.080100	-9.301600	27.684300	0.000253	20.673371
2443.651478	-2.988400	3.081600	-9.207900	27.631339	0.000252	20.671287
2444.651403	-2.983000	3.081300	-9.190500	27.618575	0.000253	20.717717
2445.648078	-3.001500	3.078100	-9.237800	27.624742	0.000251	20.672710
2446.649792	-3.014800	3.077200	-9.275000	27.691710	0.000255	20.697425
2447.646973	-3.025600	3.075900	-9.304600	27.729356	0.000252	20.689789
2448.646977	-3.003500	3.074400	-9.232400	27.770746	0.000253	20.680231
2449.649882	-3.009900	3.073900	-9.251300	27.747236	0.000251	20.704938
2450.648653	-2.979200	3.074400	-9.158000	27.771388	0.000252	20.682300
2451.647591	-3.004300	3.072100	-9.228800	27.785002	0.000250	20.703115
2452.650449	-3.003300	3.071200	-9.222500	27.809722	0.000250	20.698594
2453.651059	-3.015500	3.071600	-9.261400	27.816349	0.000251	20.687246
2454.647881	-3.019000	3.068700	-9.262600	27.809924	0.000252	20.701644
2455.649288	-2.998900	3.067200	-9.197000	27.770470	0.000249	20.704612
2456.650989	-2.957800	3.068800	-9.076100	27.755839	0.000250	20.688939
2457.650648	-3.026800	3.065400	-9.276500	27.736050	0.000250	20.717390
2458.648295	-2.977000	3.066800	-9.128600	27.748454	0.000250	20.692413
2459.650170	-3.025800	3.064300	-9.270600	27.791184	0.000249	20.699378
2460.649787	-2.997900	3.064100	-9.184700	27.759438	0.000251	20.683551
2461.649731	-3.002600	3.062300	-9.193400	27.748113	0.000249	20.693492
2462.651287	-3.001000	3.061600	-9.187100	27.747795	0.000250	20.721150
2463.650663	-2.979500	3.062000	-9.121800	27.685836	0.000250	20.699575
2464.650564	-2.982700	3.059600	-9.124400	27.589683	0.000250	20.710457
2465.650996	-2.990400	3.057800	-9.142500	27.561587	0.000251	20.685978
2466.651505	-3.009000	3.056400	-9.196000	27.536188	0.000248	20.716376
2467.652203	-3.015100	3.055700	-9.211800	27.521180	0.000249	20.696533
2468.651428	-3.020400	3.054200	-9.223200	27.564016	0.000250	20.693165
2469.657138	-2.996900	3.053900	-9.150600	27.623319	0.000250	20.700678
2470.653303	-2.990900	3.052400	-9.129200	27.705438	0.000248	20.683737
2471.655435	-2.984800	3.051600	-9.107200	27.749258	0.000249	20.696541
2472.653204	-3.002600	3.050500	-9.158200	27.794286	0.000251	20.704872
2473.652917	-2.978200	3.050400	-9.084000	27.855964	0.000249	20.710047
2474.658419	-3.021000	3.046300	-9.201100	27.849019	0.000249	20.685986
2475.653930	-3.035700	3.045700	-9.245200	27.807413	0.000249	20.703858
2476.654504	-3.021200	3.046400	-9.202800	27.751970	0.000248	20.722506
2477.655269	-2.987500	3.045400	-9.097100	27.682650	0.000250	20.728614
2478.658617	-2.979900	3.045600	-9.074600	27.674525	0.000248	20.730869
2479.659707	-2.995900	3.042200	-9.112700	27.668644	0.000249	20.714518
2480.656843	-2.998700	3.043000	-9.124500	27.679352	0.000248	20.697317
2481.657714	-3.001200	3.041100	-9.126100	27.706688	0.000248	20.721983
2482.658469	-2.982700	3.040800	-9.069000	27.707582	0.000248	20.714346
2483.656646	-3.011000	3.037200	-9.144200	27.746917	0.000248	20.709833
2484.656726	-2.982800	3.036900	-9.058000	27.750435	0.000249	20.715744
2485.656940	-3.011200	3.036800	-9.143800	27.772660	0.000249	20.722938
2486.657042	-3.026400	3.034300	-9.182200	27.746917	0.000248	20.698927
2487.657422	-3.000100	3.033300	-9.099500	27.716842	0.000249	20.709440
2488.657814	-3.027600	3.033400	-9.182400	27.692040	0.000248	20.702973
2489.656393	-2.990400	3.032700	-9.067700	27.700668	0.000247	20.699802
2490.657399	-2.992900	3.031500	-9.071900	27.713593	0.000247	20.707118
2491.659471	-2.995600	3.031000	-9.077700	27.727379	0.000246	20.696335
2492.660978	-3.014000	3.028100	-9.125300	27.743626	0.000246	20.718850
2493.659376	-3.001400	3.026200	-9.081800	27.753570	0.000247	20.714158
2494.659301	-3.004200	3.024800	-9.086600	27.733334	0.000246	20.730779
2495.658627	-3.002400	3.024400	-9.080100	27.751912	0.000244	20.720076
2496.660248	-3.002500	3.021400	-9.070900	27.800173	0.000245	20.720755
2497.663151	-3.000900	3.021900	-9.067400	27.796801	0.000247	20.712620
2498.660710	-3.007100	3.020900	-9.082700	27.849447	0.000245	20.712971
2499.662188	-3.001100	3.020500	-9.064400	27.846474	0.000246	20.721833
2500.662730	-2.989300	3.018400	-9.021500	27.874074	0.000245	20.719266
2501.659963	-3.009600	3.018800	-9.083100	27.907921	0.000245	20.706863
2502.660285	-2.999700	3.015000	-9.043500	27.925700	0.000245	20.719544
2503.663268	-3.010000	3.014600	-9.072800	27.946428	0.000245	20.704370
2504.669450	-2.992900	3.014700	-9.021300	27.963094	0.000245	20.723517
2505.665629	-2.986600	3.013000	-8.997500	27.982903	0.000245	20.741560
2506.667548	-3.006600	3.010800	-9.051900	27.994704	0.000245	20.733049
2507.665371	-3.018300	3.008700	-9.080000	27.980621	0.000247	20.742582
2508.663559	-3.011500	3.007700	-9.057000	27.956751	0.000244	20.727089
2509.665097	-2.989300	3.008600	-8.992500	27.943455	0.000246	20.716551
2510.664642	-3.024000	3.004700	-9.084000	27.898335	0.000246	20.737995
2511.665738	-3.013400	3.004900	-9.053900	27.868639	0.000245	20.705259
2512.666343	-3.023400	3.002500	-9.077200	27.865065	0.000245	20.724897
2513.664093	-3.004500	3.002600	-9.019300	27.888767	0.000244	20.748280
2514.665009	-2.997900	3.001300	-8.996900	27.882943	0.000245	20.726770
2515.667016	-2.981500	2.999700	-8.942400	27.854830	0.000246	20.730718
2516.665771	-3.003700	2.998900	-9.006700	27.864301	0.000245	20.708006
2517.664927	-3.001400	2.997300	-8.994600	27.899788	0.000246	20.729025
2518.665243	-3.003700	2.996000	-8.997100	27.923968	0.000243	20.719697
2519.666320	-2.986800	2.995900	-8.946400	27.962045	0.000242	20.714873
2520.667100	-3.007700	2.992300	-8.998800	27.994524	0.000245	20.731920
2521.665393	-2.992400	2.992300	-8.953200	27.995701	0.000245	20.731207
2522.664937	-3.023300	2.990600	-9.040700	27.993387	0.000245	20.725085
2523.666781	-3.013500	2.989000	-9.006100	27.989399	0.000245	20.743356
2524.666248	-3.012200	2.988900	-9.002600	27.934640	0.000245	20.741819
2525.668211	-3.021700	2.986200	-9.020400	27.931164	0.000243	20.736423
2526.667586	-2.990000	2.985700	-8.926200	27.946109	0.000243	20.740086
2527.668427	-2.998200	2.984300	-8.946000	27.910265	0.000243	20.731510
2528.668511	-3.012400	2.982600	-8.984000	27.911312	0.000244	20.714545
2529.669780	-2.991300	2.981300	-8.917000	27.885053	0.000244	20.750231
2530.669335	-2.999800	2.980700	-8.940700	27.858345	0.000244	20.728092
2531.668206	-3.001000	2.978900	-8.939100	27.832888	0.000245	20.726653
2532.674318	-3.015500	2.975700	-8.971900	27.841124	0.000244	20.743003
2533.669403	-2.987200	2.975600	-8.888300	27.869099	0.000242	20.730854
2534.668884	-2.971300	2.973500	-8.833900	27.870529	0.000245	20.738932
2535.668866	-2.996300	2.973300	-8.907900	27.840660	0.000244	20.731156
2536.669641	-2.964600	2.973100	-8.812100	27.918914	0.000244	20.735473
2537.668999	-2.986700	2.970500	-8.870600	27.934784	0.000245	20.750974
2538.672731	-3.043100	2.967300	-9.029400	27.963828	0.000244	20.753180
2539.671018	-3.034900	2.964900	-8.997600	27.980591	0.000243	20.755354
2540.671641	-3.000900	2.966000	-8.899300	27.954041	0.000243	20.757553
2541.672265	-2.973300	2.964100	-8.811600	27.974638	0.000243	20.731343
2542.673512	-2.992900	2.963200	-8.867200	27.948192	0.000243	20.734597
2543.672938	-2.997300	2.960100	-8.871100	27.914396	0.000242	20.749419
2544.672227	-2.990300	2.960100	-8.850800	27.912275	0.000244	20.735430
2545.672761	-3.021100	2.959100	-8.939100	27.925190	0.000242	20.751274
2546.673139	-3.020900	2.955600	-8.927100	28.013800	0.000242	20.751323
2547.674119	-3.020400	2.954900	-8.923800	28.047991	0.000241	20.751127
2548.674128	-2.994200	2.954000	-8.843600	28.085820	0.000244	20.766922
2549.673882	-2.980300	2.954500	-8.804500	28.112277	0.000243	20.742346
2550.673237	-2.955000	2.952700	-8.722700	28.166442	0.000245	20.739027
2551.675275	-2.992800	2.949600	-8.827000	28.201001	0.000242	20.748216
2552.676339	-3.014100	2.946900	-8.881400	28.243290	0.000243	20.732470
2553.676439	-2.999400	2.946800	-8.836800	28.255761	0.000241	20.753562
2554.676958	-3.011400	2.945200	-8.868500	28.241438	0.000243	20.757633
2555.676031	-2.984100	2.944500	-8.784500	28.173067	0.000242	20.761345
2556.677570	-2.998600	2.941800	-8.820000	28.159441	0.000242	20.760429
2557.677150	-2.965600	2.940900	-8.720400	28.131506	0.000242	20.768342
2558.678107	-2.999100	2.937800	-8.810100	28.105625	0.000243	20.770264
2559.676544	-3.025400	2.936200	-8.882400	28.019678	0.000243	20.756292
2560.677828	-2.990600	2.935700	-8.778400	27.960544	0.000245	20.749400
2561.681386	-3.017700	2.934600	-8.854400	27.981718	0.000244	20.752221
2562.675961	-3.002200	2.931500	-8.800100	27.992357	0.000243	20.754869
2563.676771	-2.981800	2.929900	-8.735000	28.067107	0.000243	20.764679
2564.681118	-3.022200	2.928700	-8.850000	28.109279	0.000242	20.775364
2565.677510	-3.007700	2.926600	-8.800500	28.155680	0.000242	20.750953
2566.677631	-3.012300	2.926300	-8.813400	28.170288	0.000242	20.748116
2567.678400	-3.017500	2.925100	-8.825300	28.180130	0.000244	20.762292
2568.678586	-3.013700	2.922400	-8.806800	28.168534	0.000242	20.742082
2569.678428	-3.004500	2.921300	-8.775100	28.152870	0.000244	20.758555
2570.678530	-2.998200	2.919100	-8.751200	28.176199	0.000241	20.779671
2571.679017	-3.008300	2.917000	-8.774200	28.186334	0.000243	20.767589
2572.679184	-2.996500	2.916300	-8.737500	28.235768	0.000241	20.772313
2573.678162	-2.995100	2.913900	-8.726800	28.278348	0.000242	20.760182
2574.679132	-3.016600	2.913500	-8.788200	28.286678	0.000242	20.771414
2575.679053	-3.004700	2.911400	-8.746700	28.334151	0.000242	20.758521
2576.680142	-3.020800	2.910700	-8.791100	28.384757	0.000241	20.782450
2577.683827	-3.019200	2.906400	-8.774000	28.412815	0.000241	20.773245
2578.680975	-2.994000	2.906300	-8.700500	28.404615	0.000240	20.766410
2579.678605	-3.009900	2.904300	-8.740800	28.389246	0.000243	20.775591
2580.683641	-3.004800	2.901600	-8.717400	28.395173	0.000244	20.769231
2581.680023	-2.991700	2.900900	-8.677800	28.397227	0.000244	20.791214
2582.680727	-2.980400	2.901000	-8.644700	28.444070	0.000241	20.778640
2583.684615	-2.989300	2.896800	-8.658300	28.406952	0.000242	20.788205
2584.682376	-3.004200	2.896600	-8.699400	28.348278	0.000242	20.783178
2585.682147	-3.031400	2.893400	-8.770000	28.325829	0.000240	20.779539
2586.683867	-2.991800	2.893100	-8.654400	28.321152	0.000243	20.756337
2587.683981	-3.015100	2.888900	-8.708600	28.325829	0.000240	20.788548
2588.685849	-3.008500	2.888100	-8.687000	28.337114	0.000241	20.787109
2589.682966	-2.971900	2.887400	-8.580200	28.336164	0.000243	20.787101
2590.685883	-2.965800	2.885900	-8.557100	28.314112	0.000243	20.771061
2591.687127	-3.005600	2.882500	-8.660800	28.338048	0.000242	20.781411
2592.684247	-2.989600	2.881400	-8.613300	28.352849	0.000241	20.784935
2593.682677	-3.011700	2.878600	-8.667600	28.400562	0.000240	20.777503
2594.683260	-2.987700	2.876800	-8.594200	28.438500	0.000241	20.761177
2595.683821	-2.986300	2.876500	-8.589200	28.474205	0.000241	20.787649
2596.684956	-2.998700	2.873500	-8.615900	28.491252	0.000242	20.794386
2597.685602	-3.015700	2.871400	-8.657800	28.521491	0.000242	20.802078
2598.685836	-2.991200	2.868900	-8.580300	28.517578	0.000241	20.795767
2599.688057	-3.011500	2.867900	-8.635600	28.498144	0.000243	20.815076
2600.686067	-2.958400	2.866100	-8.478500	28.483004	0.000241	20.789873
2601.685831	-2.967000	2.864700	-8.497900	28.448649	0.000240	20.787993
2602.688643	-2.965900	2.863100	-8.491300	28.464609	0.000240	20.786995
2603.687536	-3.014800	2.859800	-8.620200	28.479408	0.000242	20.804743
2604.686375	-2.995100	2.858800	-8.561700	28.441181	0.000243	20.807499
2605.686898	-3.025000	2.856400	-8.639200	28.408715	0.000242	20.796144
2606.691945	-3.021400	2.853300	-8.619000	28.415974	0.000243	20.787332
2607.690761	-2.991800	2.851700	-8.530400	28.435523	0.000240	20.802750
2608.691355	-2.983700	2.851200	-8.506200	28.482406	0.000241	20.792589
2609.688554	-2.978900	2.849100	-8.486500	28.524278	0.000244	20.818635
2610.689800	-2.979100	2.845200	-8.475400	28.511931	0.000241	20.793399
2611.691295	-3.019200	2.842800	-8.581700	28.505972	0.000242	20.804467
2612.689351	-2.982500	2.842900	-8.478000	28.492034	0.000244	20.802759
2613.689954	-2.983000	2.838100	-8.465000	28.539036	0.000242	20.798411
2614.689641	-2.996200	2.838900	-8.503300	28.573642	0.000241	20.798649
2615.689749	-2.999600	2.836600	-8.508200	28.583350	0.000243	20.804633
2616.691089	-3.008100	2.833500	-8.522700	28.622028	0.000241	20.830311
2617.691777	-2.986000	2.831000	-8.451500	28.611493	0.000241	20.789354
2618.689949	-3.006400	2.828200	-8.501000	28.641988	0.000240	20.809163
2619.693367	-2.986500	2.826500	-8.439600	28.607151	0.000242	20.809163
2620.696152	-2.988300	2.823900	-8.437200	28.636307	0.000240	20.807234
2621.689833	-2.987000	2.821300	-8.425000	28.565559	0.000243	20.813742
2622.692302	-2.985200	2.820500	-8.419400	28.544641	0.000241	20.830607
2623.693709	-2.962200	2.817000	-8.343700	28.534803	0.000242	20.833975
2624.690774	-3.028900	2.815400	-8.526100	28.504484	0.000242	20.830943
2625.692294	-3.001800	2.814000	-8.445900	28.478685	0.000240	20.831516
2626.693029	-3.027900	2.809500	-8.505300	28.459073	0.000243	20.816508
2627.693799	-2.998800	2.808400	-8.420800	28.440612	0.000242	20.811194
2628.691870	-3.031200	2.804900	-8.500700	28.416810	0.000242	20.814726
2629.695996	-3.007600	2.803700	-8.431300	28.430441	0.000241	20.806167
2630.692655	-2.985400	2.800200	-8.358800	28.483071	0.000240	20.809854
2631.691545	-2.986600	2.798600	-8.358000	28.503083	0.000242	20.830006
2632.693802	-2.968900	2.795300	-8.297100	28.508750	0.000242	20.821015
2633.701143	-3.021200	2.793000	-8.437600	28.509830	0.000242	20.824474
2634.696465	-3.024400	2.789900	-8.436700	28.526407	0.000242	20.819356
2635.695778	-3.024700	2.786400	-8.425200	28.484373	0.000242	20.822071
2636.699049	-3.016400	2.784800	-8.398700	28.493734	0.000242	20.830549
2637.696274	-3.007800	2.782300	-8.367700	28.537903	0.000241	20.834253
2638.698459	-2.987500	2.780800	-8.306800	28.573117	0.000241	20.840793
2639.699091	-2.990600	2.776000	-8.300300	28.568945	0.000242	20.809565
2640.696289	-3.011300	2.774100	-8.353300	28.590448	0.000240	20.813204
2641.696743	-2.942100	2.773200	-8.158100	28.577485	0.000239	20.823856
2642.700526	-2.974400	2.769200	-8.235900	28.567640	0.000241	20.806354
2643.699364	-3.006600	2.765400	-8.312900	28.559182	0.000242	20.826285
2644.698113	-3.006600	2.765100	-8.312000	28.547136	0.000241	20.796611
2645.703389	-3.025500	2.758400	-8.344100	28.573040	0.000240	20.807526
2646.701618	-3.007200	2.755700	-8.285900	28.578463	0.000241	20.817728
2647.699156	-3.007600	2.754600	-8.283400	28.610225	0.000241	20.818898
2648.701015	-2.985900	2.751300	-8.213700	28.610389	0.000240	20.797251
2649.698174	-2.990300	2.748400	-8.217100	28.651095	0.000240	20.793679
2650.698560	-2.981600	2.746500	-8.187600	28.694251	0.000240	20.810120
2651.699437	-2.972400	2.741000	-8.146300	28.723081	0.000239	20.817821
2652.700393	-3.035700	2.737700	-8.310000	28.722585	0.000239	20.825857
2653.699826	-2.996500	2.734900	-8.192800	28.676843	0.000242	20.784051
2654.699650	-2.998700	2.731500	-8.190000	28.684740	0.000239	20.803385
2655.701441	-2.998800	2.728900	-8.182400	28.676713	0.000242	20.797197
2656.700005	-3.003400	2.724000	-8.179000	28.675740	0.000240	20.784363
2657.700566	-3.027100	2.720500	-8.234800	28.607746	0.000239	20.793168
2658.702658	-3.000400	2.718600	-8.155900	28.599370	0.000242	20.802275
2659.701006	-3.026600	2.713400	-8.211800	28.539626	0.000239	20.793315
2660.700441	-2.975600	2.712700	-8.070100	28.516078	0.000240	20.791885
2661.703794	-3.019500	2.705900	-8.169800	28.542615	0.000241	20.794902
2662.700929	-2.985100	2.704100	-8.070900	28.561227	0.000239	20.789939
2663.701486	-2.971400	2.701600	-8.025800	28.617764	0.000239	20.786662
2664.704423	-3.014200	2.698000	-8.131500	28.611759	0.000241	20.788200
2665.700692	-3.000300	2.694300	-8.082900	28.593666	0.000240	20.770452
2666.702180	-3.000000	2.690800	-8.071700	28.550928	0.000243	20.823663
2667.702117	-2.994700	2.686000	-8.043300	28.508474	0.000241	20.779960
2668.700975	-3.003700	2.682100	-8.055700	28.544646	0.000241	20.791732
2669.702640	-2.999600	2.679100	-8.034900	28.542163	0.000240	20.779274
2670.701956	-3.012000	2.673200	-8.050800	28.546749	0.000240	20.791005
2671.701395	-2.989000	2.671700	-7.985200	28.585809	0.000242	20.796204
2672.701380	-2.967400	2.666600	-7.912300	28.646184	0.000241	20.780672
2673.701248	-2.996900	2.662100	-7.977300	28.722195	0.000243	20.772832
2674.706501	-3.018000	2.658200	-8.020400	28.714858	0.000241	20.805746
2675.702590	-3.019800	2.653900	-8.013200	28.698609	0.000241	20.805026
2676.703431	-2.979900	2.651100	-7.899100	28.683991	0.000240	20.806424
2677.703602	-2.965600	2.647400	-7.850200	28.676605	0.000242	20.795666
2678.704442	-3.016100	2.640700	-7.964200	28.735343	0.000241	20.765688
2679.704133	-2.998800	2.638600	-7.912000	28.743914	0.000239	20.781908
2680.705320	-3.017800	2.633200	-7.945000	28.792049	0.000241	20.780134
2681.711061	-3.004400	2.627900	-7.894800	28.858497	0.000241	20.787802
2682.708089	-3.025000	2.622300	-7.931200	28.892799	0.000242	20.783478
2683.704081	-3.009900	2.618100	-7.879700	28.922458	0.000241	20.780166
2684.707598	-3.000100	2.613300	-7.839400	28.909377	0.000241	20.763668
2685.706275	-2.993000	2.609100	-7.808300	28.830978	0.000241	20.765295
2686.706042	-2.965800	2.603400	-7.720700	28.803824	0.000241	20.781090
2687.707394	-2.994800	2.598600	-7.780100	28.773382	0.000241	20.767968
2688.706407	-2.984800	2.593200	-7.738900	28.790295	0.000241	20.775997
2689.705895	-2.987300	2.588200	-7.730600	28.830848	0.000242	20.760423
2690.706658	-3.003500	2.581900	-7.753800	28.835514	0.000242	20.763226
2691.706178	-2.997400	2.578800	-7.728700	28.840765	0.000241	20.769464
2692.706950	-3.025100	2.572000	-7.779300	28.868120	0.000244	20.757666
2693.706673	-2.979600	2.566300	-7.645600	28.889066	0.000239	20.781613
2694.706486	-2.975400	2.561100	-7.619200	28.905197	0.000242	20.772260
2695.706703	-2.990800	2.555000	-7.640100	28.963557	0.000241	20.774631
2696.707953	-3.035900	2.546600	-7.730000	29.014132	0.000242	20.748773
2697.707070	-3.004800	2.544100	-7.643700	29.056137	0.000243	20.771181
2698.706674	-2.993700	2.537200	-7.594500	29.115064	0.000242	20.763226
2699.708505	-2.993300	2.531100	-7.575500	29.125611	0.000243	20.771958
2700.713971	-3.013400	2.524400	-7.606300	29.161868	0.000243	20.764396
2701.711434	-3.001800	2.518600	-7.559900	29.170589	0.000242	20.757062
2702.707787	-2.963300	2.514700	-7.450700	29.221681	0.000245	20.766349
2703.711665	-3.031500	2.505600	-7.594200	29.239487	0.000242	20.753947
2704.708311	-2.944700	2.501700	-7.366000	29.237922	0.000244	20.749524
2705.708169	-2.987900	2.493800	-7.450300	29.161795	0.000243	20.755313
