LabVIEW Measurement	
Writer_Version	2
Reader_Version	2
Separator	Tab
Decimal_Separator	.
Multi_Headings	No
X_Columns	One
Time_Pref	Absolute
Operator	admin
Description	Clolumns are: time, Current, Voltage, Power, Battery Temp, and Chamber Temp
Date	2024/08/16
Time	13:06:06.104549407958984375
***End_of_Header***	
	
Channels	6						
Samples	1	1	1	1	1	1	
Date	2024/08/24	2024/08/24	2024/08/24	2024/08/24	2024/08/24	2024/08/24	
Time	05:39:35.0692033767700195313	05:39:35.076694488525390625	05:39:35.0847382545471191406	05:39:35.0485854148864746094	05:39:35.0485854148864746094	05:39:35.0485854148864746094	
X_Dimension	Time	Time	Time	Time	Time	Time	
X0	0.0000000000000000E+0	0.0000000000000000E+0	0.0000000000000000E+0	0.0000000000000000E+0	0.0000000000000000E+0	0.0000000000000000E+0	
Delta_X	1.000000	1.000000	1.000000	1.000000	1.000000	1.000000	
***End_of_Header***							
X_Value	Untitled	Untitled 1	Untitled 2	Untitled 3	Untitled 4	Untitled 5	Comment
0.000000	0.029892	4.113700	0.122810	21.014204	0.000972	20.838312
0.994865	-3.020400	3.955300	-11.946000	20.992692	0.000972	20.833867
1.996512	-3.011800	3.948400	-11.891000	21.013477	0.000972	20.843276
2.997668	-2.998000	3.943900	-11.823000	20.988407	0.000969	20.827210
3.999956	-2.996000	3.939500	-11.802000	20.998480	0.000969	20.846767
4.997483	-2.993900	3.935800	-11.783000	21.008263	0.000970	20.839957
6.005202	-3.002900	3.933300	-11.811000	20.999803	0.000966	20.839082
6.998166	-2.990900	3.930400	-11.756000	21.005235	0.000967	20.813695
8.001961	-3.006200	3.929300	-11.811000	21.003245	0.000965	20.834938
9.001114	-3.001800	3.925500	-11.781000	20.994010	0.000964	20.824754
9.998417	-2.994500	3.924100	-11.750000	20.991615	0.000963	20.830893
10.996446	-3.019200	3.921300	-11.838000	21.027718	0.000965	20.820536
12.000662	-2.992100	3.921300	-11.732000	21.016809	0.000963	20.809625
13.002728	-3.016000	3.919600	-11.819000	21.026513	0.000964	20.834028
13.996508	-2.995800	3.918100	-11.737000	21.018300	0.000962	20.824866
14.997515	-3.000700	3.917300	-11.754000	21.017604	0.000962	20.832705
15.997222	-3.013300	3.914400	-11.793000	21.017727	0.000961	20.817655
16.998958	-2.995500	3.913900	-11.722000	21.034892	0.000963	20.840987
17.999953	-3.019200	3.911400	-11.808000	21.037282	0.000958	20.820618
19.005708	-2.998900	3.912700	-11.733000	21.021139	0.000960	20.822490
19.998291	-3.023000	3.910200	-11.819000	21.037978	0.000956	20.813728
20.999272	-3.006700	3.909000	-11.752000	21.049928	0.000960	20.826628
22.000583	-3.002400	3.909200	-11.736000	21.043014	0.000959	20.837731
23.003289	-3.005600	3.907800	-11.744000	21.065867	0.000956	20.817916
24.005846	-3.000600	3.906500	-11.721000	21.062604	0.000957	20.809910
25.005821	-2.979100	3.907400	-11.640000	21.065344	0.000955	20.813125
26.001203	-2.999500	3.906800	-11.718000	21.071599	0.000955	20.841667
27.002194	-2.986000	3.905900	-11.661000	21.083678	0.000954	20.804437
28.001085	-3.003200	3.903800	-11.723000	21.072271	0.000954	20.836648
29.001272	-3.009800	3.903400	-11.746000	21.077036	0.000953	20.812492
30.003534	-2.992000	3.903900	-11.679000	21.059995	0.000953	20.805878
31.008362	-3.005500	3.901900	-11.727000	21.093726	0.000952	20.810220
32.004786	-2.996000	3.902300	-11.690000	21.106045	0.000951	20.800731
33.001993	-3.019400	3.901900	-11.778000	21.117200	0.000951	20.819949
34.000110	-3.001400	3.900600	-11.706000	21.104875	0.000952	20.810466
35.002832	-3.011300	3.900400	-11.744000	21.101902	0.000950	20.786156
36.000398	-2.994000	3.899100	-11.673000	21.093770	0.000948	20.827333
37.003656	-2.992600	3.899800	-11.669000	21.107382	0.000948	20.829569
38.004404	-3.017200	3.897200	-11.758000	21.130111	0.000949	20.817217
39.007554	-2.995400	3.898800	-11.677000	21.130807	0.000949	20.797050
40.005226	-3.001500	3.896400	-11.694000	21.134273	0.000948	20.816164
41.005672	-3.015300	3.896600	-11.749000	21.150438	0.000948	20.795825
42.005767	-3.007500	3.896100	-11.717000	21.150211	0.000948	20.804607
43.003968	-3.014000	3.895300	-11.739000	21.152200	0.000946	20.817976
44.005188	-2.994200	3.895200	-11.661000	21.168544	0.000945	20.828160
45.006052	-2.993900	3.895300	-11.661000	21.162752	0.000948	20.799608
46.005787	-2.996100	3.894000	-11.666000	21.167768	0.000946	20.803203
47.009181	-3.007300	3.893100	-11.707000	21.177544	0.000946	20.785956
48.008026	-2.969800	3.894600	-11.565000	21.179736	0.000944	20.790519
49.010257	-3.020700	3.891900	-11.755000	21.183405	0.000946	20.797034
50.009277	-2.987100	3.893400	-11.629000	21.196419	0.000944	20.800570
51.011652	-2.999600	3.892000	-11.673000	21.214351	0.000944	20.809025
52.014369	-2.984400	3.891700	-11.613000	21.209063	0.000946	20.779553
53.015790	-3.028300	3.889200	-11.775000	21.218143	0.000944	20.782946
54.010301	-3.012500	3.890200	-11.718000	21.205518	0.000943	20.795447
55.011139	-3.004900	3.890200	-11.689000	21.221431	0.000942	20.799512
56.011598	-3.010400	3.891700	-11.714000	21.236143	0.000942	20.805695
57.013087	-3.015500	3.890300	-11.730000	21.235472	0.000943	20.782738
58.012341	-2.997400	3.889900	-11.659000	21.247741	0.000941	20.768459
59.012201	-2.999800	3.889000	-11.665000	21.255398	0.000943	20.792241
60.016816	-2.999700	3.889300	-11.666000	21.254267	0.000942	20.814342
61.016362	-3.005800	3.889100	-11.689000	21.231486	0.000941	20.807200
62.013397	-2.992100	3.890400	-11.640000	21.270149	0.000942	20.801307
63.015934	-2.994600	3.887700	-11.641000	21.276231	0.000940	20.794590
64.012454	-2.989400	3.889800	-11.628000	21.277370	0.000942	20.790514
65.015922	-2.992900	3.888500	-11.636000	21.261157	0.000941	20.775242
66.016764	-3.021000	3.887400	-11.743000	21.295978	0.000940	20.773094
67.017540	-3.032100	3.886100	-11.781000	21.298244	0.000939	20.783895
68.013660	-2.994800	3.887500	-11.641000	21.299137	0.000941	20.798065
69.019179	-2.986900	3.887700	-11.611000	21.306591	0.000938	20.804574
70.016734	-3.002100	3.885300	-11.663000	21.301920	0.000938	20.781410
71.014637	-3.012500	3.885400	-11.704000	21.321648	0.000938	20.817741
72.016572	-3.012600	3.886700	-11.709000	21.332321	0.000941	20.789065
73.015257	-3.010900	3.886000	-11.700000	21.314385	0.000937	20.766853
74.016729	-2.999100	3.885000	-11.650000	21.332908	0.000936	20.783487
75.020113	-2.992900	3.885700	-11.628000	21.352087	0.000939	20.788451
76.019695	-2.950600	3.888100	-11.471000	21.342584	0.000938	20.789375
77.021810	-2.992300	3.885600	-11.626000	21.354100	0.000938	20.791414
78.022734	-2.985000	3.884200	-11.593000	21.364650	0.000939	20.777787
79.019621	-3.003400	3.884700	-11.666000	21.377761	0.000938	20.786163
80.017654	-2.986400	3.884000	-11.598000	21.363617	0.000936	20.784340
81.018845	-2.992400	3.883400	-11.620000	21.372789	0.000937	20.794465
82.021660	-2.982400	3.885000	-11.586000	21.376378	0.000937	20.792365
83.021289	-2.988600	3.884200	-11.607000	21.370686	0.000937	20.804688
84.028321	-3.014200	3.882500	-11.701000	21.390412	0.000936	20.796449
85.016012	-2.991300	3.883500	-11.614000	21.373050	0.000938	20.777182
86.018807	-2.995600	3.884000	-11.634000	21.391779	0.000936	20.799240
87.023732	-2.969700	3.885000	-11.537000	21.389982	0.000937	20.798390
88.018402	-3.007600	3.881500	-11.673000	21.420030	0.000935	20.790996
89.024466	-2.994500	3.881300	-11.621000	21.410023	0.000938	20.786199
90.024687	-3.017100	3.881700	-11.710000	21.428979	0.000935	20.789993
91.023779	-2.980800	3.882800	-11.573000	21.423139	0.000936	20.795529
92.028974	-2.988900	3.880500	-11.598000	21.431620	0.000935	20.763237
93.028981	-2.993300	3.880800	-11.616000	21.442791	0.000936	20.793380
94.025576	-3.001300	3.880800	-11.647000	21.440145	0.000937	20.767973
95.021016	-3.005100	3.880500	-11.660000	21.441611	0.000936	20.769914
96.024666	-2.984900	3.881300	-11.584000	21.456701	0.000935	20.791177
97.023389	-2.987200	3.879700	-11.588000	21.463952	0.000936	20.794165
98.031116	-2.996300	3.878300	-11.620000	21.465048	0.000936	20.775346
99.033397	-3.001200	3.877600	-11.637000	21.458359	0.000936	20.771973
100.033187	-3.023900	3.877400	-11.723000	21.464919	0.000936	20.778537
101.026390	-3.005000	3.877600	-11.651000	21.505721	0.000935	20.781431
102.027812	-3.018700	3.876900	-11.702000	21.481173	0.000934	20.776783
103.029850	-3.013500	3.878000	-11.686000	21.510953	0.000935	20.764855
104.030043	-3.005500	3.878700	-11.657000	21.521299	0.000936	20.762879
105.029841	-2.998100	3.877100	-11.623000	21.517459	0.000937	20.778951
106.031486	-2.991100	3.877900	-11.597000	21.547133	0.000934	20.767393
107.028626	-2.987700	3.877700	-11.584000	21.529176	0.000933	20.779771
108.027437	-2.979400	3.878100	-11.553000	21.569122	0.000934	20.774224
109.030123	-2.990700	3.877300	-11.594000	21.539043	0.000934	20.778738
110.032301	-2.995800	3.877100	-11.613000	21.557572	0.000934	20.767407
111.028344	-3.011100	3.877500	-11.674000	21.537947	0.000932	20.777641
112.034406	-3.019300	3.875700	-11.701000	21.547493	0.000934	20.779133
113.028092	-3.005500	3.876300	-11.648000	21.543025	0.000935	20.787465
114.027566	-3.004600	3.876400	-11.646000	21.553075	0.000935	20.774287
115.029244	-3.011800	3.875100	-11.671000	21.556540	0.000937	20.786289
116.036771	-3.000300	3.875600	-11.627000	21.573445	0.000935	20.775230
117.031438	-2.988300	3.874200	-11.576000	21.555291	0.000935	20.777927
118.031986	-2.987700	3.875200	-11.576000	21.574442	0.000934	20.776702
119.037998	-2.991400	3.874000	-11.588000	21.576984	0.000935	20.768340
120.028150	-2.988300	3.875400	-11.580000	21.583869	0.000936	20.773333
121.037270	-2.987400	3.875400	-11.577000	21.608730	0.000933	20.758856
122.032966	-3.023700	3.873600	-11.711000	21.593296	0.000936	20.755266
123.035454	-2.990700	3.875300	-11.589000	21.629923	0.000935	20.766314
124.036519	-2.992200	3.873200	-11.588000	21.632169	0.000937	20.747698
125.035702	-3.003600	3.872700	-11.629000	21.615481	0.000936	20.761820
126.034311	-2.990200	3.872900	-11.579000	21.609450	0.000935	20.763371
127.036462	-2.996100	3.873400	-11.604000	21.605783	0.000936	20.749743
128.038435	-2.991300	3.873600	-11.585000	21.621246	0.000937	20.755260
129.037631	-3.008700	3.871400	-11.644000	21.621187	0.000936	20.743346
130.034713	-2.990900	3.872500	-11.581000	21.648648	0.000937	20.759449
131.035379	-2.987800	3.873400	-11.572000	21.641886	0.000935	20.758372
132.035555	-2.996800	3.872100	-11.603000	21.642212	0.000937	20.768181
133.039542	-3.001600	3.872600	-11.623000	21.671065	0.000937	20.761493
134.040621	-2.996200	3.871800	-11.600000	21.661687	0.000937	20.759221
135.037648	-2.988500	3.872500	-11.572000	21.685618	0.000936	20.748557
136.036165	-3.002400	3.873500	-11.629000	21.678610	0.000936	20.737750
137.040166	-3.010000	3.871500	-11.653000	21.709007	0.000938	20.747781
138.044168	-3.002600	3.871700	-11.624000	21.719706	0.000935	20.758016
139.038168	-2.986800	3.872500	-11.565000	21.715861	0.000937	20.731407
140.040201	-3.019900	3.870700	-11.689000	21.713216	0.000938	20.742511
141.038511	-2.997900	3.870400	-11.602000	21.699402	0.000938	20.748601
142.043609	-3.008200	3.870900	-11.644000	21.718250	0.000938	20.753713
143.043072	-3.034900	3.870100	-11.744000	21.721339	0.000939	20.737838
144.042080	-3.012900	3.869100	-11.656000	21.752183	0.000940	20.728404
145.046237	-2.994300	3.869100	-11.585000	21.749483	0.000940	20.769325
146.043954	-2.983800	3.870300	-11.546000	21.744943	0.000941	20.754824
147.043809	-2.986200	3.870200	-11.556000	21.748906	0.000941	20.745987
148.046223	-3.042600	3.868500	-11.769000	21.761371	0.000939	20.746609
149.043513	-3.002800	3.867800	-11.613000	21.756875	0.000941	20.736893
150.045499	-2.995600	3.870600	-11.593000	21.777696	0.000942	20.736869
151.048314	-2.985100	3.870700	-11.553000	21.793349	0.000942	20.738785
152.053224	-3.011200	3.868400	-11.648000	21.777764	0.000941	20.733144
153.049780	-2.974700	3.869000	-11.509000	21.772326	0.000941	20.716320
154.048444	-3.008400	3.869000	-11.638000	21.779624	0.000939	20.748757
155.050254	-2.988600	3.869600	-11.562000	21.799028	0.000943	20.760117
156.046946	-3.003500	3.867300	-11.614000	21.811488	0.000942	20.740819
157.050118	-3.003900	3.868000	-11.617000	21.804037	0.000940	20.723877
158.048659	-3.007200	3.866400	-11.626000	21.802789	0.000942	20.719782
159.050290	-3.013900	3.867200	-11.655000	21.808621	0.000942	20.742691
160.056997	-2.994600	3.867100	-11.579000	21.801110	0.000944	20.747976
161.052065	-3.013900	3.866900	-11.654000	21.811459	0.000944	20.719451
162.057702	-2.985600	3.866300	-11.542000	21.833995	0.000944	20.739164
163.055608	-2.967300	3.867800	-11.477000	21.800188	0.000944	20.739465
164.048601	-2.993800	3.866900	-11.575000	21.818954	0.000944	20.730747
165.056989	-2.994300	3.864700	-11.571000	21.858653	0.000945	20.737766
166.054624	-2.997000	3.865200	-11.582000	21.840899	0.000944	20.733271
167.049265	-3.003300	3.865300	-11.607000	21.861915	0.000944	20.732970
168.057098	-3.021600	3.864400	-11.675000	21.863459	0.000943	20.717445
169.053608	-3.015700	3.864500	-11.653000	21.875426	0.000946	20.713775
170.053520	-2.987900	3.865000	-11.547000	21.895686	0.000944	20.722201
171.052914	-2.984600	3.865900	-11.537000	21.905214	0.000947	20.729843
172.055278	-2.982600	3.864600	-11.526000	21.898928	0.000944	20.752475
173.055915	-3.003700	3.864600	-11.607000	21.923683	0.000946	20.736950
174.053377	-2.993300	3.864400	-11.565000	21.907578	0.000948	20.720354
175.058277	-3.006500	3.863200	-11.613000	21.926698	0.000946	20.735701
176.054523	-3.006900	3.865000	-11.621000	21.943800	0.000945	20.720102
177.055428	-3.025400	3.862600	-11.685000	21.927394	0.000948	20.736397
178.059194	-2.997400	3.863600	-11.580000	21.929737	0.000947	20.743011
179.055912	-2.982000	3.864600	-11.523000	21.949430	0.000949	20.729531
180.054022	-3.028200	3.862000	-11.694000	21.930586	0.000947	20.725842
181.059393	-2.988900	3.863300	-11.546000	21.953244	0.000947	20.740936
182.056075	-2.986100	3.863300	-11.534000	21.957630	0.000947	20.713557
183.058145	-3.011200	3.861600	-11.627000	21.977973	0.000948	20.736767
184.060048	-2.986500	3.862200	-11.533000	21.959826	0.000949	20.735671
185.058405	-2.989600	3.863200	-11.549000	21.986672	0.000949	20.719869
186.057550	-3.004400	3.861700	-11.600000	21.998790	0.000950	20.718724
187.059586	-3.003600	3.861600	-11.598000	21.992006	0.000947	20.745124
188.059845	-2.994100	3.862600	-11.564000	22.021471	0.000951	20.701598
189.056902	-2.982500	3.863200	-11.521000	22.022541	0.000950	20.709309
190.061479	-3.010900	3.861500	-11.626000	22.015713	0.000949	20.692989
191.060716	-3.003500	3.860200	-11.592000	22.037348	0.000949	20.721761
192.058608	-3.010400	3.860900	-11.621000	22.039667	0.000951	20.736885
193.059626	-2.999600	3.860300	-11.579000	22.044605	0.000951	20.719543
194.059732	-2.986900	3.860600	-11.531000	22.028718	0.000950	20.717389
195.060289	-3.003600	3.861600	-11.597000	22.042232	0.000952	20.735186
196.059266	-2.990600	3.860300	-11.544000	22.039957	0.000951	20.705880
197.057641	-3.009300	3.859300	-11.613000	22.051951	0.000951	20.723104
198.058799	-3.004500	3.860500	-11.598000	22.048661	0.000952	20.718387
199.061046	-3.004200	3.859100	-11.593000	22.045912	0.000953	20.739345
200.058951	-2.995500	3.859700	-11.561000	22.067779	0.000953	20.705283
201.059913	-2.993300	3.859400	-11.551000	22.049203	0.000952	20.726043
202.060909	-2.986600	3.859600	-11.526000	22.061222	0.000954	20.730963
203.068609	-2.970000	3.860300	-11.464000	22.060171	0.000955	20.713314
204.062217	-2.997700	3.859300	-11.568000	22.095170	0.000954	20.701884
205.060592	-2.990400	3.857600	-11.534000	22.070073	0.000953	20.710425
206.059021	-2.991300	3.857400	-11.537000	22.090606	0.000954	20.693521
207.063564	-2.988800	3.859300	-11.533000	22.092925	0.000954	20.708172
208.063601	-2.991900	3.858200	-11.542000	22.107404	0.000957	20.728359
209.061044	-2.985600	3.857000	-11.514000	22.108628	0.000956	20.708246
210.062052	-2.986700	3.856700	-11.518000	22.110473	0.000955	20.697765
211.065915	-2.986100	3.856900	-11.516000	22.123986	0.000956	20.719355
212.067427	-3.014000	3.855800	-11.618000	22.122018	0.000957	20.729713
213.061923	-2.993300	3.856900	-11.544000	22.128692	0.000957	20.725964
214.064711	-3.000900	3.855100	-11.567000	22.128599	0.000959	20.732035
215.065769	-3.003900	3.857300	-11.586000	22.125130	0.000957	20.709595
216.063726	-2.978100	3.856500	-11.484000	22.145495	0.000959	20.711966
217.063046	-2.984100	3.855700	-11.505000	22.137721	0.000959	20.720303
218.062853	-3.012800	3.855200	-11.613000	22.143349	0.000959	20.697488
219.065230	-2.994600	3.856000	-11.547000	22.145638	0.000957	20.714479
220.064395	-3.006900	3.855700	-11.593000	22.136393	0.000958	20.728932
221.064826	-2.987900	3.856900	-11.523000	22.157059	0.000960	20.729708
222.065878	-3.005700	3.854600	-11.584000	22.161518	0.000960	20.733225
223.063223	-2.996200	3.855100	-11.549000	22.166555	0.000960	20.715033
224.065862	-3.002200	3.853500	-11.568000	22.173106	0.000962	20.709738
225.066625	-2.992900	3.855800	-11.538000	22.186391	0.000961	20.714978
226.064474	-3.008500	3.853800	-11.593000	22.194486	0.000963	20.727825
227.064640	-2.985300	3.855100	-11.507000	22.180106	0.000964	20.723385
228.070761	-3.016100	3.853600	-11.622000	22.184990	0.000963	20.726852
229.066077	-2.998600	3.853600	-11.555000	22.209660	0.000964	20.734958
230.068546	-2.986700	3.854600	-11.511000	22.219783	0.000965	20.704788
231.064628	-3.009500	3.853000	-11.594000	22.210336	0.000965	20.717616
232.072807	-2.994500	3.853000	-11.537000	22.207889	0.000965	20.731762
233.070130	-2.997600	3.853900	-11.551000	22.223591	0.000963	20.720456
234.068985	-3.012800	3.852400	-11.605000	22.222639	0.000965	20.709070
235.067020	-2.999600	3.852200	-11.553000	22.225100	0.000967	20.724812
236.073446	-2.995000	3.851300	-11.534000	22.230807	0.000965	20.710611
237.069853	-3.003300	3.851700	-11.567000	22.238133	0.000967	20.718894
238.070712	-2.998600	3.850500	-11.545000	22.245852	0.000968	20.728047
239.066180	-2.993300	3.852900	-11.532000	22.234468	0.000970	20.719966
240.066115	-2.987500	3.852200	-11.508000	22.246972	0.000969	20.712571
241.069550	-2.998700	3.851800	-11.549000	22.268756	0.000970	20.710200
242.070144	-3.010000	3.851200	-11.591000	22.273861	0.000969	20.736177
243.068058	-2.987500	3.851800	-11.505000	22.255590	0.000972	20.742538
244.067138	-3.005800	3.850100	-11.572000	22.268474	0.000970	20.730309
245.071568	-3.020500	3.850800	-11.630000	22.283746	0.000972	20.745126
246.069984	-2.999700	3.849800	-11.546000	22.268267	0.000970	20.737214
247.069104	-3.014500	3.850300	-11.606000	22.299614	0.000971	20.727349
248.072120	-3.000700	3.850100	-11.551000	22.312202	0.000971	20.726204
249.069541	-2.991400	3.850600	-11.517000	22.316612	0.000972	20.739155
250.071556	-3.000100	3.849400	-11.546000	22.311773	0.000973	20.711548
251.068490	-2.987800	3.848800	-11.498000	22.356431	0.000973	20.735880
252.070336	-2.993600	3.849000	-11.521000	22.318826	0.000974	20.740424
253.078764	-2.972700	3.850200	-11.445000	22.330684	0.000974	20.730960
254.073690	-3.004200	3.849400	-11.563000	22.334995	0.000974	20.740493
255.082236	-2.999000	3.848000	-11.539000	22.326896	0.000976	20.747556
256.069694	-3.008500	3.847500	-11.573000	22.358626	0.000975	20.721007
257.070000	-2.967500	3.849500	-11.422000	22.359765	0.000976	20.734002
258.070279	-3.023300	3.846400	-11.628000	22.365842	0.000977	20.714008
259.072970	-2.992400	3.848600	-11.515000	22.366518	0.000978	20.735074
260.076426	-2.971600	3.848300	-11.434000	22.352105	0.000978	20.750040
261.079515	-2.995500	3.847800	-11.525000	22.341441	0.000980	20.711859
262.068279	-3.004900	3.847300	-11.560000	22.351508	0.000979	20.732846
263.074897	-2.997900	3.846700	-11.529000	22.370764	0.000980	20.740275
264.074496	-3.017400	3.846500	-11.605000	22.347843	0.000979	20.730599
265.069390	-2.974700	3.848300	-11.447000	22.376545	0.000980	20.734684
266.075686	-3.008600	3.846400	-11.570000	22.395189	0.000980	20.741026
267.074317	-3.011800	3.845700	-11.580000	22.420382	0.000982	20.710777
268.071972	-2.995600	3.846000	-11.520000	22.427060	0.000982	20.727897
269.075832	-3.009700	3.845500	-11.572000	22.438241	0.000981	20.732930
270.078615	-3.006100	3.845800	-11.560000	22.428022	0.000982	20.741663
271.069401	-2.997800	3.845400	-11.526000	22.450374	0.000984	20.746977
272.076354	-3.004800	3.845200	-11.553000	22.440801	0.000981	20.739287
273.078704	-3.008900	3.844900	-11.568000	22.471176	0.000982	20.734145
274.073241	-3.009800	3.845600	-11.573000	22.489370	0.000984	20.729606
275.076468	-2.983900	3.845200	-11.473000	22.471516	0.000985	20.725476
276.073621	-3.023600	3.845100	-11.623000	22.476350	0.000985	20.756396
277.075277	-2.999000	3.845400	-11.531000	22.458230	0.000986	20.734456
278.071278	-3.015600	3.844900	-11.594000	22.500362	0.000985	20.740615
279.072319	-3.012100	3.842800	-11.574000	22.484260	0.000985	20.725436
280.072044	-3.012000	3.843300	-11.574000	22.491411	0.000987	20.737340
281.076348	-2.997000	3.843400	-11.517000	22.479599	0.000985	20.743055
282.076739	-3.001200	3.844700	-11.537000	22.497186	0.000988	20.758297
283.072894	-3.006300	3.843300	-11.553000	22.518886	0.000987	20.738303
284.074618	-2.967600	3.845200	-11.410000	22.496930	0.000989	20.752350
285.076014	-3.009200	3.842500	-11.562000	22.520104	0.000987	20.736204
286.079965	-2.986300	3.844000	-11.478000	22.499913	0.000988	20.733052
287.078321	-3.010900	3.843000	-11.570000	22.526747	0.000988	20.732425
288.078963	-3.005800	3.842400	-11.549000	22.516025	0.000990	20.732119
289.075391	-2.983800	3.843200	-11.466000	22.543287	0.000990	20.746621
290.078104	-2.984000	3.841900	-11.463000	22.542138	0.000991	20.756850
291.077233	-2.995900	3.842600	-11.511000	22.561366	0.000991	20.745761
292.073476	-3.000400	3.842600	-11.528000	22.561736	0.000992	20.746606
293.076849	-2.999400	3.841200	-11.520000	22.554358	0.000992	20.739690
294.080449	-3.013500	3.840200	-11.571000	22.590412	0.000993	20.768689
295.075342	-3.018200	3.842300	-11.595000	22.578872	0.000994	20.768037
296.076861	-3.002700	3.840900	-11.532000	22.591423	0.000994	20.755002
297.077625	-3.012600	3.840700	-11.569000	22.583350	0.000996	20.742175
298.075780	-3.011000	3.840800	-11.564000	22.574030	0.000995	20.772670
299.076870	-3.006800	3.840200	-11.545000	22.571308	0.000995	20.732484
300.078742	-2.998800	3.839700	-11.513000	22.579701	0.000997	20.744684
301.075449	-3.019100	3.839000	-11.590000	22.580426	0.000995	20.761532
302.081551	-3.019900	3.839900	-11.595000	22.591985	0.000998	20.790179
303.081047	-3.002900	3.838800	-11.527000	22.594638	0.001000	20.770077
304.083082	-2.995000	3.838700	-11.496000	22.579937	0.001000	20.769104
305.079494	-2.995300	3.840500	-11.501000	22.573310	0.001000	20.759620
306.085921	-2.979600	3.839100	-11.439000	22.603425	0.001001	20.768921
307.076528	-3.011000	3.837700	-11.555000	22.593301	0.001002	20.767315
308.081964	-3.007800	3.838100	-11.544000	22.588020	0.001002	20.761077
309.076572	-3.008500	3.838200	-11.546000	22.591280	0.001002	20.760075
310.080198	-3.013500	3.837900	-11.565000	22.602217	0.001003	20.757279
311.077285	-2.979500	3.837900	-11.432000	22.611957	0.001003	20.747119
312.087185	-3.001500	3.837800	-11.518000	22.597602	0.001003	20.757397
313.085956	-3.012300	3.836600	-11.556000	22.584588	0.001004	20.767123
314.080497	-2.993400	3.837400	-11.486000	22.612494	0.001003	20.751925
315.083691	-2.988900	3.836700	-11.466000	22.617943	0.001005	20.749796
316.076867	-2.980300	3.837900	-11.437000	22.635858	0.001004	20.766318
317.081734	-2.993200	3.836200	-11.482000	22.648960	0.001004	20.777545
318.082095	-3.018800	3.836200	-11.579000	22.647185	0.001007	20.765809
319.083509	-2.988900	3.836600	-11.465000	22.662831	0.001005	20.782429
320.079040	-2.982100	3.836000	-11.438000	22.671278	0.001008	20.771924
321.078006	-3.018100	3.834100	-11.570000	22.672442	0.001007	20.752226
322.086356	-2.978400	3.835300	-11.423000	22.660233	0.001010	20.761808
323.081739	-2.977900	3.836100	-11.422000	22.682181	0.001009	20.785215
324.084932	-3.008300	3.834600	-11.535000	22.697555	0.001008	20.788761
325.078382	-3.023400	3.833000	-11.588000	22.682925	0.001009	20.762727
326.081847	-2.986800	3.835600	-11.456000	22.705395	0.001011	20.778597
327.084518	-3.000100	3.833200	-11.499000	22.717944	0.001012	20.783106
328.084613	-2.994200	3.834100	-11.479000	22.745552	0.001013	20.773776
329.079499	-3.024800	3.832400	-11.591000	22.727633	0.001015	20.774320
330.084725	-3.015700	3.833100	-11.557000	22.736854	0.001012	20.794935
331.083567	-2.996400	3.833700	-11.485000	22.730449	0.001011	20.773346
332.087281	-3.017000	3.832700	-11.561000	22.726859	0.001012	20.761690
333.084829	-3.020600	3.831400	-11.572000	22.735528	0.001013	20.769899
334.083838	-3.003500	3.831300	-11.506000	22.724143	0.001013	20.787418
335.088659	-2.992800	3.831900	-11.468000	22.735276	0.001013	20.797148
336.086464	-2.995500	3.831500	-11.476000	22.736149	0.001014	20.761986
337.082557	-2.987300	3.832600	-11.448000	22.755088	0.001016	20.805140
338.088488	-3.020700	3.829400	-11.567000	22.760112	0.001015	20.785991
339.086894	-2.996100	3.830800	-11.475000	22.751143	0.001015	20.798344
340.085081	-2.993300	3.830200	-11.464000	22.749925	0.001014	20.782899
341.094270	-2.984800	3.832400	-11.438000	22.763677	0.001016	20.785294
342.092749	-2.999900	3.831200	-11.493000	22.742697	0.001016	20.773761
343.089659	-2.995900	3.832700	-11.481000	22.767483	0.001015	20.769193
344.092631	-3.022800	3.829200	-11.572000	22.762074	0.001017	20.773732
345.096533	-3.000700	3.830400	-11.493000	22.773735	0.001019	20.769766
346.095335	-3.012900	3.828800	-11.534000	22.766463	0.001020	20.794723
347.092535	-3.018600	3.827400	-11.551000	22.789178	0.001018	20.785709
348.097863	-3.000700	3.828600	-11.487000	22.792116	0.001018	20.790550
349.095822	-2.981000	3.831500	-11.420000	22.809407	0.001019	20.790327
350.095002	-2.989900	3.831400	-11.454000	22.820096	0.001019	20.794397
351.099535	-3.001900	3.828800	-11.492000	22.826895	0.001021	20.805950
352.098395	-2.993300	3.828900	-11.459000	22.840192	0.001022	20.790347
353.097882	-2.977500	3.830100	-11.403000	22.839823	0.001021	20.782390
354.099098	-2.986400	3.829100	-11.434000	22.824578	0.001024	20.786085
355.099504	-3.008800	3.828100	-11.518000	22.826743	0.001024	20.791098
356.095736	-3.004500	3.827300	-11.498000	22.844304	0.001024	20.788777
357.101521	-2.996700	3.826200	-11.466000	22.857409	0.001023	20.796215
358.099483	-2.978200	3.827500	-11.397000	22.849935	0.001025	20.776399
359.102597	-3.003900	3.826900	-11.495000	22.838028	0.001027	20.806671
360.106601	-3.007400	3.826100	-11.506000	22.845246	0.001027	20.794936
361.102048	-3.006800	3.827400	-11.507000	22.846119	0.001028	20.810509
362.099285	-3.014400	3.825100	-11.530000	22.842786	0.001025	20.782514
363.102019	-3.018100	3.825600	-11.545000	22.875216	0.001028	20.788925
364.102255	-2.994900	3.826300	-11.458000	22.854687	0.001029	20.785428
365.103136	-3.015300	3.824900	-11.532000	22.890603	0.001027	20.815245
366.102173	-2.987600	3.826600	-11.431000	22.879200	0.001027	20.807140
367.106069	-2.980500	3.826300	-11.403000	22.903791	0.001028	20.797637
368.098566	-2.984800	3.826100	-11.419000	22.907646	0.001028	20.812879
369.103759	-2.984100	3.824900	-11.411000	22.908371	0.001028	20.796536
370.100349	-2.999500	3.823700	-11.467000	22.912354	0.001028	20.788199
371.100720	-3.006500	3.824000	-11.495000	22.908218	0.001029	20.813926
372.102511	-2.992300	3.824700	-11.443000	22.930265	0.001031	20.801401
373.103790	-2.986600	3.824000	-11.420000	22.956669	0.001032	20.799406
374.101708	-3.002900	3.823300	-11.480000	22.945833	0.001031	20.807990
375.102982	-2.977000	3.826000	-11.388000	22.922244	0.001033	20.791943
376.103415	-2.993000	3.823500	-11.443000	22.934352	0.001032	20.804547
377.100267	-3.003400	3.822900	-11.481000	22.934278	0.001032	20.803999
378.106514	-2.990800	3.823100	-11.433000	22.917787	0.001032	20.795538
379.104148	-3.002600	3.821400	-11.472000	22.936545	0.001033	20.823814
380.102133	-3.003100	3.821800	-11.476000	22.920134	0.001032	20.806898
381.104755	-3.006900	3.821500	-11.490000	22.948776	0.001033	20.798610
382.107667	-2.991400	3.821300	-11.430000	22.932434	0.001034	20.802626
383.102916	-3.005400	3.820200	-11.480000	22.944837	0.001035	20.801776
384.108410	-3.008300	3.821700	-11.495000	22.942826	0.001034	20.780795
385.116861	-3.011800	3.818800	-11.500000	22.960854	0.001033	20.803125
386.103862	-3.020500	3.820000	-11.537000	22.933233	0.001035	20.820495
387.106380	-3.005000	3.821100	-11.481000	22.983945	0.001037	20.794017
388.104009	-2.973300	3.822700	-11.365000	22.958813	0.001037	20.812934
389.107148	-3.021700	3.820300	-11.542000	22.996195	0.001036	20.807713
390.106605	-3.011600	3.819100	-11.501000	23.012014	0.001038	20.814080
391.105348	-3.025800	3.817900	-11.552000	23.009717	0.001038	20.796605
392.106591	-3.002400	3.817800	-11.462000	23.011664	0.001039	20.824634
393.108103	-2.983400	3.817800	-11.389000	23.041827	0.001039	20.816924
394.107867	-3.005900	3.819400	-11.479000	23.048999	0.001039	20.789024
395.107621	-2.984600	3.818100	-11.394000	23.021626	0.001039	20.816124
396.111506	-3.002300	3.817400	-11.460000	23.046732	0.001039	20.809037
397.109645	-2.977000	3.818000	-11.364000	23.047747	0.001042	20.813848
398.109053	-3.000600	3.818300	-11.456000	23.051637	0.001040	20.826753
399.108632	-2.985000	3.817900	-11.395000	23.042665	0.001041	20.816342
400.105963	-3.007500	3.816100	-11.475000	23.040472	0.001045	20.824101
401.105876	-3.001300	3.815800	-11.452000	23.031653	0.001042	20.827119
402.107840	-3.009100	3.815100	-11.479000	23.008440	0.001041	20.831361
403.107633	-2.995900	3.816200	-11.433000	23.039565	0.001043	20.835046
404.105909	-2.997100	3.816200	-11.436000	23.041039	0.001044	20.823721
405.109466	-2.989400	3.814900	-11.403000	23.059667	0.001045	20.811566
406.110715	-2.998000	3.816600	-11.441000	23.081355	0.001043	20.825237
407.109290	-3.010700	3.815200	-11.485000	23.082676	0.001047	20.848845
408.112657	-3.011600	3.813900	-11.483000	23.087433	0.001046	20.828956
409.113012	-3.007300	3.813900	-11.468000	23.088853	0.001046	20.828482
410.112283	-2.989200	3.816300	-11.407000	23.076697	0.001047	20.835742
411.113758	-2.991900	3.815300	-11.414000	23.070620	0.001045	20.814954
412.112752	-2.992700	3.813700	-11.412000	23.090967	0.001045	20.816377
413.113322	-3.006100	3.814100	-11.465000	23.069294	0.001047	20.840178
414.117878	-2.986800	3.815500	-11.396000	23.078166	0.001048	20.831050
415.113956	-3.011000	3.813000	-11.479000	23.090263	0.001048	20.826576
416.112772	-3.009300	3.813700	-11.475000	23.108303	0.001048	20.820471
417.116302	-3.000500	3.813200	-11.440000	23.137384	0.001048	20.859568
418.114309	-2.985900	3.813200	-11.385000	23.136063	0.001050	20.841649
419.113271	-3.014200	3.812600	-11.491000	23.151028	0.001049	20.821558
420.116540	-2.998600	3.812700	-11.432000	23.155557	0.001048	20.830364
421.114048	-3.016700	3.810800	-11.495000	23.166938	0.001051	20.830389
422.115723	-3.006500	3.811500	-11.458000	23.170945	0.001052	20.827292
423.120355	-3.016600	3.810300	-11.494000	23.159466	0.001050	20.841393
424.115572	-2.986500	3.811900	-11.384000	23.170423	0.001050	20.843363
425.116935	-2.990300	3.811000	-11.396000	23.175899	0.001051	20.838894
426.123488	-2.982500	3.811200	-11.366000	23.193470	0.001051	20.852234
427.115629	-3.011100	3.809600	-11.470000	23.183460	0.001051	20.846944
428.116500	-2.997800	3.809500	-11.418000	23.185249	0.001051	20.847315
429.121964	-3.005100	3.808900	-11.445000	23.196703	0.001052	20.844569
430.120538	-2.993400	3.808200	-11.398000	23.212815	0.001053	20.829421
431.116905	-3.012700	3.807800	-11.469000	23.222121	0.001052	20.835901
432.119997	-3.018300	3.809000	-11.496000	23.235167	0.001053	20.834276
433.118951	-2.997800	3.808400	-11.416000	23.224334	0.001052	20.857558
434.118211	-3.004100	3.808700	-11.441000	23.211056	0.001054	20.857055
435.122821	-3.020100	3.807500	-11.497000	23.207094	0.001052	20.845024
436.121162	-3.027200	3.807300	-11.523000	23.237049	0.001055	20.856551
437.118869	-2.995400	3.808200	-11.406000	23.212121	0.001055	20.851958
438.122473	-2.999700	3.807600	-11.420000	23.222205	0.001054	20.881976
439.121095	-2.992700	3.807700	-11.393000	23.256793	0.001056	20.834613
440.121403	-2.989700	3.807000	-11.381000	23.260430	0.001054	20.846792
441.129025	-3.007400	3.806600	-11.447000	23.233851	0.001055	20.855243
442.122602	-2.985300	3.806800	-11.363000	23.274772	0.001058	20.865431
443.125209	-2.986900	3.806500	-11.369000	23.261845	0.001056	20.852003
444.122318	-3.002800	3.806000	-11.428000	23.266098	0.001058	20.857213
445.123400	-3.018900	3.805500	-11.488000	23.249243	0.001057	20.867348
446.122598	-2.996700	3.806100	-11.405000	23.259977	0.001057	20.854398
447.123846	-3.007800	3.805200	-11.445000	23.245108	0.001058	20.855618
448.124181	-3.008600	3.805700	-11.449000	23.244709	0.001058	20.862804
449.123857	-3.003900	3.804800	-11.429000	23.224886	0.001059	20.869491
450.126391	-3.018800	3.803600	-11.482000	23.242614	0.001057	20.859283
451.125678	-3.007900	3.805000	-11.444000	23.241096	0.001060	20.846856
452.126594	-2.991500	3.803400	-11.377000	23.246079	0.001059	20.854220
453.127669	-2.997900	3.803800	-11.403000	23.284072	0.001060	20.862898
454.126616	-2.994900	3.803800	-11.390000	23.290449	0.001059	20.851746
455.126288	-3.009700	3.802500	-11.443000	23.273318	0.001060	20.868242
456.128532	-2.997600	3.803700	-11.401000	23.270031	0.001060	20.849775
457.127267	-3.011400	3.801700	-11.448000	23.272988	0.001061	20.874549
458.127701	-3.008800	3.802200	-11.440000	23.302198	0.001061	20.882011
459.129596	-3.001200	3.802100	-11.410000	23.292785	0.001059	20.889172
460.128125	-2.991600	3.801500	-11.372000	23.301523	0.001061	20.853361
461.129183	-2.988000	3.802500	-11.360000	23.334492	0.001059	20.863170
462.129420	-2.999200	3.800700	-11.398000	23.324158	0.001062	20.887424
463.131771	-3.001800	3.801000	-11.408000	23.304268	0.001063	20.865120
464.128852	-3.004200	3.800200	-11.415000	23.318106	0.001063	20.860024
465.130410	-3.018500	3.799900	-11.470000	23.326967	0.001063	20.860844
466.130361	-2.999400	3.801000	-11.400000	23.335286	0.001062	20.865387
467.136760	-3.009100	3.800700	-11.435000	23.350449	0.001064	20.880584
468.133801	-3.018200	3.799400	-11.466000	23.342077	0.001062	20.851332
469.130785	-3.012500	3.800700	-11.448000	23.352884	0.001063	20.868326
470.132210	-2.991700	3.799600	-11.365000	23.362691	0.001064	20.880999
471.138897	-3.010900	3.798700	-11.437000	23.381565	0.001063	20.868623
472.140911	-2.999100	3.797700	-11.389000	23.352130	0.001066	20.873260
473.131736	-3.000500	3.798100	-11.395000	23.366200	0.001065	20.870292
474.136283	-2.999800	3.799100	-11.395000	23.373764	0.001066	20.853693
475.141345	-2.996300	3.798000	-11.379000	23.374937	0.001066	20.855816
476.133560	-3.021600	3.796300	-11.470000	23.402297	0.001067	20.863324
477.136332	-3.004500	3.798400	-11.411000	23.420416	0.001065	20.840235
478.132744	-3.007100	3.795400	-11.412000	23.410157	0.001067	20.858874
479.132721	-3.006600	3.796300	-11.413000	23.391949	0.001066	20.875236
480.139511	-3.010600	3.795400	-11.425000	23.379900	0.001066	20.831868
481.137682	-3.023800	3.795400	-11.475000	23.382463	0.001066	20.877108
482.138005	-2.993000	3.795200	-11.358000	23.391821	0.001068	20.864677
483.139330	-3.017900	3.794500	-11.450000	23.394502	0.001070	20.855985
484.139761	-3.022000	3.793900	-11.464000	23.381029	0.001067	20.842009
485.138716	-3.013000	3.795500	-11.435000	23.372489	0.001067	20.835346
486.141925	-2.976800	3.794100	-11.294000	23.395438	0.001068	20.854554
487.137818	-2.988200	3.794500	-11.337000	23.404077	0.001067	20.851832
488.138659	-3.009500	3.793400	-11.415000	23.424513	0.001068	20.860461
489.142578	-3.002400	3.793200	-11.387000	23.434319	0.001071	20.850850
490.142296	-2.981500	3.795100	-11.314000	23.432722	0.001073	20.844983
491.142138	-2.986000	3.793600	-11.326000	23.465264	0.001072	20.856263
492.140133	-2.991200	3.792200	-11.341000	23.435984	0.001069	20.838295
493.142847	-3.000100	3.792100	-11.375000	23.428727	0.001070	20.839555
494.141046	-3.023600	3.790800	-11.461000	23.472917	0.001071	20.838331
495.140764	-2.992400	3.792000	-11.346000	23.469103	0.001072	20.838301
496.139929	-2.987000	3.791900	-11.325000	23.500052	0.001070	20.833288
497.140473	-2.982800	3.792400	-11.311000	23.492652	0.001070	20.860956
498.145295	-2.980700	3.793100	-11.304000	23.489060	0.001072	20.850718
499.141250	-3.005600	3.791400	-11.394000	23.485049	0.001071	20.849543
500.144797	-2.995500	3.792700	-11.360000	23.479866	0.001070	20.841029
501.141918	-2.986400	3.790300	-11.317000	23.455120	0.001072	20.848941
502.143550	-2.999800	3.790200	-11.368000	23.436760	0.001071	20.846659
503.144762	-3.017600	3.789000	-11.432000	23.460763	0.001072	20.838950
504.143030	-2.994100	3.789400	-11.344000	23.458294	0.001070	20.856863
505.141720	-3.010800	3.788700	-11.405000	23.478576	0.001073	20.849218
506.143880	-2.981500	3.789700	-11.298000	23.460428	0.001070	20.840511
507.145678	-3.016300	3.787700	-11.423000	23.438737	0.001073	20.837736
508.144665	-3.017100	3.787900	-11.428000	23.459675	0.001072	20.820316
509.145448	-3.016200	3.786400	-11.419000	23.457551	0.001072	20.827671
510.147072	-3.001300	3.787700	-11.367000	23.436934	0.001073	20.830713
511.144958	-2.999300	3.788300	-11.361000	23.453540	0.001074	20.837875
512.145529	-2.995600	3.785500	-11.339000	23.461356	0.001074	20.829113
513.146288	-3.012300	3.786300	-11.404000	23.489581	0.001075	20.832749
514.146853	-3.009600	3.785900	-11.393000	23.496228	0.001074	20.839411
515.148424	-2.991900	3.785700	-11.325000	23.508275	0.001074	20.842004
516.148269	-2.990100	3.785900	-11.319000	23.534311	0.001075	20.857197
517.147200	-2.990700	3.785800	-11.319000	23.543402	0.001073	20.829800
518.152933	-2.976400	3.786800	-11.270000	23.540041	0.001074	20.824535
519.149426	-2.952700	3.786400	-11.178000	23.561194	0.001075	20.816342
520.152946	-2.982900	3.785000	-11.289000	23.565204	0.001075	20.837431
521.148918	-2.971200	3.784800	-11.245000	23.567520	0.001073	20.827425
522.147586	-3.000200	3.784400	-11.351000	23.588475	0.001075	20.820931
523.148450	-3.000900	3.783700	-11.353000	23.592062	0.001074	20.846337
524.150559	-2.981500	3.782900	-11.277000	23.592362	0.001076	20.830991
525.151944	-2.993800	3.782300	-11.322000	23.592609	0.001077	20.830290
526.155727	-3.005900	3.783900	-11.373000	23.595397	0.001075	20.817439
527.153253	-3.000400	3.781800	-11.345000	23.619387	0.001075	20.816832
528.151514	-2.998800	3.782000	-11.340000	23.614085	0.001077	20.819104
529.153555	-3.019600	3.782300	-11.421000	23.624092	0.001077	20.844781
530.152305	-3.020900	3.781400	-11.422000	23.631704	0.001075	20.841981
531.152828	-3.007900	3.782300	-11.375000	23.591279	0.001077	20.828009
532.153269	-3.029400	3.779800	-11.449000	23.554110	0.001077	20.837215
533.153761	-2.999100	3.781400	-11.341000	23.565659	0.001077	20.816077
534.153410	-2.988700	3.781000	-11.299000	23.572404	0.001079	20.815726
535.157181	-2.980900	3.780900	-11.269000	23.561816	0.001077	20.804164
536.155203	-3.014100	3.780900	-11.394000	23.571877	0.001075	20.824207
537.156221	-2.975000	3.779900	-11.244000	23.586240	0.001074	20.801621
538.156639	-2.976800	3.780500	-11.253000	23.605903	0.001078	20.801892
539.156483	-2.985400	3.780000	-11.284000	23.597163	0.001076	20.817312
540.155003	-2.996100	3.779200	-11.323000	23.610781	0.001077	20.819110
541.161806	-2.989700	3.779400	-11.298000	23.615984	0.001078	20.811524
542.155920	-3.007400	3.778800	-11.363000	23.642293	0.001078	20.804234
543.158671	-2.989100	3.779000	-11.295000	23.651230	0.001078	20.803236
544.160842	-2.992300	3.778200	-11.304000	23.662803	0.001077	20.811519
545.159424	-2.984900	3.778200	-11.277000	23.687075	0.001079	20.812620
546.157201	-3.001500	3.777100	-11.336000	23.669650	0.001077	20.801789
547.164115	-2.996600	3.777400	-11.318000	23.644727	0.001077	20.813786
548.159964	-2.996100	3.777200	-11.316000	23.634346	0.001078	20.824716
549.163322	-2.988900	3.777600	-11.290000	23.669222	0.001080	20.807998
550.162913	-3.000400	3.775700	-11.327000	23.663497	0.001080	20.823595
551.158881	-2.983600	3.776800	-11.267000	23.680869	0.001080	20.813036
552.162531	-2.984200	3.775500	-11.266000	23.669572	0.001078	20.812616
553.168138	-2.981200	3.776100	-11.256000	23.667079	0.001080	20.817229
554.162752	-3.006400	3.774700	-11.347000	23.693367	0.001082	20.804703
555.160813	-2.999600	3.775500	-11.324000	23.708649	0.001080	20.824766
556.166457	-3.020200	3.773300	-11.395000	23.724581	0.001078	20.808497
557.159689	-3.036500	3.772900	-11.455000	23.727118	0.001080	20.828110
558.165329	-3.017800	3.773400	-11.387000	23.724951	0.001079	20.791798
559.166273	-2.993700	3.773300	-11.295000	23.740306	0.001080	20.810038
560.160321	-2.994400	3.775300	-11.304000	23.723433	0.001079	20.820622
561.162313	-3.015300	3.771700	-11.372000	23.747705	0.001081	20.798016
562.164522	-2.984500	3.773400	-11.261000	23.750188	0.001082	20.810463
563.161426	-2.995500	3.772200	-11.299000	23.730503	0.001080	20.788355
564.160162	-3.001400	3.773100	-11.323000	23.715492	0.001080	20.807445
565.167863	-2.996400	3.772000	-11.301000	23.690500	0.001081	20.806097
566.163285	-2.984000	3.772300	-11.256000	23.712255	0.001079	20.807045
567.164653	-3.000800	3.769900	-11.311000	23.712531	0.001081	20.810166
568.168389	-2.982800	3.770800	-11.246000	23.707102	0.001081	20.804724
569.165349	-2.987600	3.770600	-11.264000	23.703216	0.001081	20.803198
570.164438	-2.970700	3.771800	-11.204000	23.670686	0.001082	20.820370
571.170129	-2.995000	3.769400	-11.289000	23.649501	0.001082	20.801977
572.165804	-3.010800	3.768900	-11.347000	23.624557	0.001079	20.800679
573.165653	-3.034600	3.766900	-11.429000	23.638244	0.001080	20.798753
574.170983	-2.987600	3.769200	-11.260000	23.649945	0.001080	20.787724
575.165648	-3.008300	3.767100	-11.330000	23.665656	0.001081	20.798733
576.166013	-3.008700	3.767600	-11.335000	23.660251	0.001080	20.789521
577.168188	-3.010100	3.768000	-11.341000	23.652384	0.001080	20.781159
578.166152	-3.011100	3.767400	-11.342000	23.637269	0.001079	20.796827
579.165872	-3.012100	3.766700	-11.345000	23.642644	0.001079	20.779456
580.164984	-3.015900	3.766800	-11.359000	23.627839	0.001081	20.801598
581.167325	-3.003600	3.767000	-11.313000	23.614817	0.001080	20.773371
582.168457	-2.975000	3.766100	-11.203000	23.633929	0.001081	20.768822
583.166549	-2.997600	3.765900	-11.287000	23.620316	0.001082	20.804487
584.166383	-3.011400	3.765000	-11.337000	23.643935	0.001081	20.767474
585.166008	-3.004800	3.765700	-11.313000	23.620439	0.001082	20.774265
586.166249	-2.975900	3.764800	-11.200000	23.640645	0.001082	20.794995
587.171468	-2.992200	3.765900	-11.266000	23.640772	0.001082	20.787537
588.166688	-3.008900	3.764300	-11.325000	23.666263	0.001084	20.774211
589.167766	-2.979300	3.765900	-11.219000	23.678831	0.001082	20.767845
590.167981	-3.020600	3.763200	-11.367000	23.674274	0.001081	20.787458
591.177194	-2.999000	3.763800	-11.287000	23.722765	0.001083	20.789132
592.168925	-2.977100	3.764600	-11.206000	23.733416	0.001083	20.781793
593.168046	-2.996100	3.762400	-11.272000	23.749067	0.001082	20.794166
594.168809	-3.014400	3.761600	-11.338000	23.746008	0.001084	20.783986
595.170531	-3.013000	3.763300	-11.337000	23.766117	0.001083	20.788975
596.171341	-3.022200	3.761600	-11.367000	23.768954	0.001084	20.787552
597.173662	-2.998000	3.763800	-11.282000	23.768925	0.001083	20.789420
598.174026	-2.973900	3.763100	-11.189000	23.761511	0.001081	20.781512
599.173235	-3.001500	3.761500	-11.290000	23.759738	0.001081	20.786373
600.169959	-2.993000	3.759500	-11.252000	23.749132	0.001080	20.771471
601.174046	-3.001600	3.761100	-11.289000	23.754753	0.001083	20.787539
602.174440	-3.008500	3.760300	-11.312000	23.752364	0.001082	20.775660
603.176833	-3.001200	3.759800	-11.283000	23.787157	0.001081	20.790631
604.172694	-3.016600	3.759800	-11.341000	23.757640	0.001081	20.776683
605.173293	-2.997600	3.759200	-11.267000	23.769434	0.001082	20.779972
606.171908	-2.975700	3.759800	-11.186000	23.750241	0.001082	20.759307
607.173669	-3.010100	3.758700	-11.313000	23.797404	0.001084	20.771033
608.174131	-2.996000	3.758600	-11.260000	23.805242	0.001081	20.775572
609.176082	-2.999100	3.758300	-11.269000	23.825852	0.001081	20.763521
610.172517	-2.993800	3.757300	-11.247000	23.824527	0.001081	20.771202
611.178219	-2.983000	3.759000	-11.212000	23.827114	0.001081	20.768105
612.178085	-3.009900	3.757100	-11.307000	23.821369	0.001081	20.797433
613.176536	-2.992500	3.758400	-11.245000	23.805656	0.001081	20.766505
614.176573	-3.003000	3.757100	-11.281000	23.782814	0.001083	20.761145
615.175993	-2.998100	3.757400	-11.264000	23.755006	0.001082	20.761714
616.175007	-3.023800	3.754700	-11.353000	23.746543	0.001080	20.772195
617.177161	-2.979500	3.755900	-11.190000	23.761277	0.001081	20.778433
618.174521	-3.014400	3.755100	-11.318000	23.769189	0.001080	20.762658
619.180833	-2.979700	3.756500	-11.193000	23.779273	0.001081	20.765181
620.177844	-3.006200	3.755000	-11.288000	23.823552	0.001082	20.777336
621.176111	-2.998300	3.756600	-11.261000	23.826114	0.001080	20.773267
622.175846	-2.990700	3.754000	-11.226000	23.821139	0.001080	20.765433
623.177416	-3.003200	3.753500	-11.271000	23.836217	0.001081	20.770595
624.177915	-2.989000	3.754400	-11.221000	23.809809	0.001082	20.780626
625.178006	-2.978400	3.754100	-11.180000	23.803538	0.001079	20.780029
626.175448	-2.995700	3.754300	-11.246000	23.793879	0.001078	20.769395
627.177640	-3.017200	3.752300	-11.320000	23.813021	0.001080	20.752552
628.176416	-2.995700	3.752500	-11.240000	23.799578	0.001079	20.742392
629.177290	-3.006700	3.752100	-11.281000	23.789771	0.001080	20.754844
630.177648	-3.010000	3.752100	-11.292000	23.776036	0.001078	20.734908
631.176677	-3.026500	3.750100	-11.349000	23.773170	0.001080	20.771864
632.177190	-3.007700	3.751800	-11.283000	23.801293	0.001079	20.756439
633.174806	-3.019700	3.751200	-11.326000	23.793298	0.001081	20.747475
634.176409	-3.011700	3.751500	-11.297000	23.774456	0.001079	20.748972
635.177492	-2.982600	3.750700	-11.186000	23.807115	0.001079	20.750898
636.175824	-3.012100	3.749500	-11.293000	23.797131	0.001079	20.752266
637.178699	-3.001600	3.750100	-11.255000	23.841533	0.001078	20.747475
638.178478	-2.985300	3.749000	-11.191000	23.839962	0.001079	20.753012
639.179375	-3.009100	3.749100	-11.279000	23.866069	0.001080	20.739834
640.179485	-2.999900	3.748800	-11.244000	23.882220	0.001078	20.748444
641.180125	-3.013700	3.748600	-11.296000	23.888490	0.001079	20.763266
642.179825	-3.003700	3.748500	-11.259000	23.908149	0.001077	20.748839
643.178340	-3.012800	3.748200	-11.292000	23.918601	0.001077	20.764062
644.180024	-2.998800	3.746200	-11.233000	23.885225	0.001078	20.750035
645.177792	-3.022600	3.745900	-11.321000	23.864202	0.001078	20.748394
646.180480	-2.992400	3.747000	-11.211000	23.876689	0.001078	20.741001
647.180233	-2.990300	3.746900	-11.202000	23.892022	0.001080	20.743100
648.182558	-2.970200	3.748500	-11.132000	23.882285	0.001078	20.762260
649.184087	-3.025500	3.745800	-11.331000	23.912853	0.001076	20.754030
650.186772	-2.983200	3.746400	-11.175000	23.918699	0.001078	20.726701
651.186545	-3.013800	3.745500	-11.287000	23.923748	0.001078	20.745515
652.186109	-2.988100	3.745500	-11.191000	23.916561	0.001080	20.725506
653.191682	-2.999300	3.746100	-11.235000	23.946946	0.001080	20.740329
654.188232	-2.988300	3.746800	-11.196000	23.967204	0.001079	20.746419
655.186522	-2.995600	3.745000	-11.216000	23.927083	0.001077	20.728944
656.190116	-3.004800	3.744100	-11.249000	23.945228	0.001078	20.719164
657.192956	-2.991300	3.743400	-11.196000	23.952813	0.001080	20.743367
658.189898	-2.995400	3.745100	-11.217000	23.978252	0.001077	20.717667
659.191805	-2.989300	3.744100	-11.192000	23.971233	0.001077	20.732441
660.192241	-3.004900	3.742600	-11.245000	23.936091	0.001078	20.723753
661.189301	-3.013300	3.741700	-11.273000	23.933378	0.001078	20.748059
662.196645	-3.008700	3.743100	-11.260000	23.941909	0.001076	20.721051
663.192378	-2.996000	3.742300	-11.211000	23.920438	0.001076	20.728445
664.198849	-3.013500	3.742100	-11.276000	23.943406	0.001076	20.732985
665.194799	-3.018100	3.740900	-11.289000	23.934644	0.001075	20.724672
666.193357	-3.022000	3.739700	-11.300000	23.938352	0.001076	20.718907
667.192420	-3.002900	3.740900	-11.232000	23.931901	0.001075	20.725715
668.192938	-3.002000	3.741000	-11.229000	23.945494	0.001077	20.730811
669.197289	-3.000800	3.740300	-11.223000	23.942110	0.001076	20.725047
670.192635	-2.974700	3.742300	-11.130000	23.927650	0.001078	20.737099
671.194249	-2.992300	3.740400	-11.192000	23.891565	0.001074	20.722726
672.196438	-3.000300	3.738400	-11.216000	23.883827	0.001076	20.720656
673.191173	-3.013300	3.738100	-11.263000	23.877158	0.001074	20.698320
674.194738	-2.988700	3.738400	-11.173000	23.878354	0.001075	20.722281
675.196642	-3.001100	3.737300	-11.215000	23.881664	0.001075	20.736032
676.193388	-2.979900	3.738300	-11.139000	23.899189	0.001075	20.734639
677.195751	-3.038800	3.736700	-11.354000	23.887717	0.001075	20.741153
678.195952	-3.003800	3.737700	-11.227000	23.893687	0.001075	20.723431
679.195609	-3.027700	3.737500	-11.315000	23.916714	0.001074	20.723287
680.197193	-3.010800	3.737400	-11.252000	23.913478	0.001076	20.723362
681.195736	-3.030200	3.736300	-11.321000	23.931820	0.001074	20.719469
682.195767	-3.002000	3.737000	-11.217000	23.944739	0.001076	20.718674
683.199643	-3.009200	3.735800	-11.241000	23.956309	0.001074	20.713206
684.196195	-2.997700	3.736900	-11.200000	23.958229	0.001075	20.712761
685.194835	-2.997100	3.736400	-11.197000	23.987569	0.001074	20.726537
686.196713	-3.007900	3.735400	-11.235000	24.009170	0.001074	20.723069
687.196609	-2.993300	3.735800	-11.182000	24.019202	0.001073	20.715586
688.199905	-2.988500	3.734600	-11.159000	24.021941	0.001074	20.707426
689.196862	-2.977800	3.734600	-11.120000	24.033391	0.001073	20.708952
690.196723	-2.994000	3.734800	-11.181000	24.020744	0.001075	20.729935
691.196601	-2.950200	3.735200	-11.019000	24.013332	0.001073	20.710172
692.199117	-2.990100	3.735300	-11.167000	23.989247	0.001074	20.725849
693.197241	-2.994700	3.733200	-11.179000	23.974639	0.001073	20.724002
694.198080	-3.002000	3.734700	-11.211000	23.954189	0.001073	20.718193
695.199008	-3.027700	3.732100	-11.298000	23.982357	0.001073	20.735535
696.196182	-2.993800	3.732500	-11.173000	23.989577	0.001074	20.718593
697.195324	-2.994500	3.731600	-11.173000	24.007795	0.001076	20.720267
698.196617	-3.004000	3.730700	-11.207000	24.034720	0.001072	20.733045
699.197626	-2.997600	3.733000	-11.190000	24.057611	0.001076	20.721863
700.199177	-2.988400	3.732600	-11.154000	24.046490	0.001075	20.701700
701.198962	-3.002300	3.730500	-11.199000	24.028499	0.001074	20.717323
702.200804	-2.999600	3.730900	-11.191000	24.043481	0.001075	20.733297
703.199711	-2.999800	3.731400	-11.192000	24.056473	0.001073	20.720721
704.197006	-2.990200	3.731400	-11.156000	24.046770	0.001074	20.704826
705.200811	-2.992800	3.731200	-11.166000	24.022210	0.001073	20.725240
706.197734	-2.981700	3.731100	-11.124000	24.027937	0.001071	20.712966
707.200506	-3.022000	3.729800	-11.269000	24.014271	0.001072	20.717278
708.199927	-3.011500	3.727600	-11.225000	24.001588	0.001072	20.711197
709.201669	-2.998100	3.728900	-11.179000	23.984439	0.001073	20.726717
710.202754	-2.996200	3.728100	-11.169000	23.963059	0.001072	20.704801
711.203900	-2.994200	3.727900	-11.162000	23.962487	0.001072	20.710867
712.205081	-3.001900	3.728500	-11.191000	24.014970	0.001071	20.695692
713.202673	-2.998400	3.727500	-11.175000	24.021540	0.001072	20.716507
714.203654	-3.017800	3.727000	-11.246000	24.006957	0.001072	20.728910
715.202641	-3.005700	3.727700	-11.203000	24.002430	0.001069	20.704455
716.204299	-3.004400	3.727600	-11.198000	24.018654	0.001069	20.710294
717.205798	-2.999200	3.726000	-11.174000	24.027036	0.001069	20.702578
718.210402	-2.987600	3.727000	-11.134000	24.001707	0.001068	20.695194
719.204932	-2.984100	3.726100	-11.118000	24.017831	0.001069	20.708046
720.207197	-2.996800	3.726300	-11.166000	24.048218	0.001070	20.722874
721.206462	-2.999300	3.726500	-11.176000	24.063417	0.001071	20.724366
722.205415	-2.987700	3.726200	-11.132000	24.067026	0.001068	20.719926
723.207531	-3.005000	3.725200	-11.193000	24.061555	0.001069	20.719180
724.207129	-3.018600	3.723700	-11.240000	24.081465	0.001069	20.717811
725.208519	-3.001700	3.725200	-11.181000	24.065140	0.001068	20.722775
726.212441	-2.970300	3.724800	-11.062000	24.045986	0.001072	20.717791
727.209032	-2.987500	3.725100	-11.127000	24.016919	0.001068	20.725151
728.208998	-2.994500	3.724700	-11.152000	24.051882	0.001068	20.727971
729.211271	-3.001900	3.724500	-11.179000	24.053703	0.001068	20.725531
730.210156	-2.983400	3.724100	-11.109000	24.069433	0.001068	20.754109
731.208728	-3.003800	3.722900	-11.182000	24.082375	0.001068	20.720620
732.215966	-2.992800	3.721700	-11.137000	24.086408	0.001067	20.721346
733.209795	-2.982000	3.723400	-11.102000	24.085492	0.001068	20.707150
734.210777	-3.018800	3.721700	-11.234000	24.106323	0.001068	20.717137
735.215587	-2.991900	3.723700	-11.139000	24.097690	0.001068	20.704685
736.213285	-3.008800	3.721500	-11.196000	24.089530	0.001068	20.710251
737.212073	-3.011800	3.720500	-11.205000	24.089431	0.001067	20.738603
738.217377	-3.011900	3.719900	-11.203000	24.079059	0.001066	20.697378
739.211132	-3.010600	3.720500	-11.200000	24.098669	0.001068	20.705193
740.212534	-3.003700	3.720400	-11.174000	24.090115	0.001067	20.720796
741.216794	-2.987300	3.720600	-11.114000	24.083476	0.001067	20.716034
742.211110	-3.014900	3.718400	-11.208000	24.106021	0.001067	20.698815
743.213212	-3.012900	3.719000	-11.203000	24.093453	0.001067	20.726990
744.215205	-3.009500	3.719700	-11.194000	24.084825	0.001065	20.686564
745.211278	-3.026800	3.718200	-11.253000	24.091542	0.001065	20.712270
746.212049	-3.000100	3.718100	-11.154000	24.081047	0.001065	20.709330
747.218078	-3.009400	3.718100	-11.188000	24.095954	0.001066	20.722385
748.214622	-2.972700	3.718600	-11.052000	24.112550	0.001063	20.722909
749.214224	-3.007700	3.717900	-11.181000	24.103395	0.001064	20.726529
750.217001	-2.991500	3.717500	-11.120000	24.108925	0.001065	20.728756
751.212238	-2.999700	3.717800	-11.151000	24.118257	0.001064	20.728633
752.215774	-3.010400	3.715700	-11.185000	24.119380	0.001064	20.725491
753.219999	-3.016600	3.717000	-11.212000	24.136325	0.001062	20.724469
754.215330	-3.001200	3.716200	-11.153000	24.167201	0.001062	20.719875
755.214002	-2.984600	3.715800	-11.089000	24.171510	0.001063	20.723723
756.215220	-2.994600	3.716800	-11.130000	24.177906	0.001062	20.716862
757.214270	-2.984000	3.715900	-11.088000	24.194403	0.001062	20.721554
758.213454	-2.992900	3.715200	-11.118000	24.207791	0.001062	20.736407
759.217387	-2.993900	3.716400	-11.126000	24.214282	0.001061	20.705456
760.214921	-3.010300	3.713400	-11.177000	24.214508	0.001062	20.731289
761.215006	-2.993900	3.713400	-11.117000	24.213489	0.001061	20.715567
762.218729	-3.021700	3.713000	-11.218000	24.207146	0.001061	20.723905
763.216985	-3.009700	3.713700	-11.176000	24.222071	0.001062	20.732238
764.216730	-2.993300	3.714000	-11.116000	24.200848	0.001060	20.723278
765.227841	-3.008100	3.713400	-11.170000	24.175749	0.001060	20.711853
766.216462	-3.018000	3.712700	-11.204000	24.140860	0.001060	20.736604
767.216231	-3.002000	3.712600	-11.143000	24.153998	0.001059	20.713745
768.221086	-2.970000	3.714100	-11.029000	24.129041	0.001061	20.720482
769.216872	-3.016600	3.712000	-11.197000	24.128342	0.001057	20.711720
770.218911	-3.017500	3.710900	-11.195000	24.138866	0.001058	20.736501
771.220725	-2.997100	3.712400	-11.126000	24.141633	0.001058	20.742121
772.220203	-2.992900	3.711400	-11.107000	24.151083	0.001058	20.731211
773.221140	-3.005200	3.711100	-11.152000	24.156387	0.001057	20.728943
774.222488	-3.009500	3.709900	-11.163000	24.133872	0.001059	20.731018
775.220678	-3.002700	3.710700	-11.140000	24.111372	0.001055	20.728366
776.221342	-2.991000	3.710700	-11.097000	24.120433	0.001057	20.719909
777.225111	-2.985300	3.711700	-11.080000	24.146858	0.001056	20.740724
778.222110	-2.992500	3.709300	-11.100000	24.136211	0.001056	20.733364
779.223419	-2.997300	3.710100	-11.119000	24.135516	0.001055	20.734090
780.226396	-2.995100	3.709700	-11.111000	24.142628	0.001054	20.731265
781.223898	-2.994400	3.708400	-11.104000	24.156687	0.001055	20.724977
782.223562	-2.998600	3.708800	-11.120000	24.119566	0.001055	20.742748
783.225754	-2.998500	3.708600	-11.120000	24.145789	0.001055	20.741548
784.223960	-2.987300	3.708200	-11.077000	24.145149	0.001056	20.718619
785.224637	-2.998500	3.707300	-11.115000	24.134098	0.001056	20.723658
786.225548	-2.982900	3.710000	-11.066000	24.139525	0.001053	20.722936
787.226950	-3.008700	3.708300	-11.156000	24.128002	0.001054	20.731294
788.226085	-3.016100	3.707100	-11.180000	24.109736	0.001053	20.721509
789.228815	-3.017700	3.706900	-11.185000	24.092544	0.001054	20.738881
790.227925	-2.997600	3.707600	-11.112000	24.120585	0.001054	20.724804
791.224779	-2.986600	3.705900	-11.067000	24.136260	0.001055	20.736732
792.227722	-2.999400	3.706900	-11.118000	24.158253	0.001053	20.754998
793.226603	-3.007400	3.705500	-11.142000	24.201149	0.001052	20.726424
794.227277	-3.006900	3.705800	-11.142000	24.213114	0.001055	20.740324
795.231008	-2.997400	3.707100	-11.111000	24.246475	0.001054	20.744863
796.229500	-2.993600	3.706400	-11.093000	24.235135	0.001051	20.742497
797.226717	-3.005900	3.705600	-11.138000	24.220599	0.001053	20.742616
798.228343	-3.007200	3.706400	-11.144000	24.201646	0.001052	20.740674
799.230966	-3.008200	3.704100	-11.142000	24.218960	0.001050	20.732910
800.229992	-3.009500	3.702900	-11.143000	24.219231	0.001053	20.740768
801.232306	-2.986300	3.703500	-11.059000	24.214503	0.001053	20.750726
802.230156	-2.982200	3.703800	-11.045000	24.206192	0.001051	20.755191
803.231543	-3.014000	3.703700	-11.161000	24.242714	0.001050	20.739667
804.234426	-2.990300	3.703000	-11.072000	24.245826	0.001051	20.784515
805.233021	-2.994900	3.702900	-11.088000	24.234008	0.001052	20.747056
806.232619	-3.008000	3.702400	-11.136000	24.231098	0.001050	20.749827
807.234265	-2.995900	3.702600	-11.091000	24.231718	0.001051	20.737647
808.230633	-2.994600	3.700700	-11.080000	24.246348	0.001049	20.757063
809.230721	-2.999100	3.701500	-11.100000	24.272819	0.001048	20.739045
810.230592	-3.002700	3.700800	-11.111000	24.277467	0.001049	20.754139
811.232312	-2.993800	3.701600	-11.081000	24.267373	0.001050	20.737375
812.234105	-3.004400	3.700700	-11.118000	24.258116	0.001049	20.756540
813.234288	-2.996600	3.700800	-11.089000	24.290628	0.001050	20.744582
814.235526	-2.996300	3.699000	-11.082000	24.289087	0.001050	20.744932
815.234659	-3.003400	3.700100	-11.112000	24.263257	0.001046	20.758378
816.235203	-3.002800	3.699100	-11.107000	24.261987	0.001045	20.761845
817.235691	-3.026300	3.699600	-11.195000	24.269254	0.001047	20.742108
818.235417	-3.020500	3.698600	-11.170000	24.271273	0.001046	20.761677
819.234890	-3.013400	3.698600	-11.144000	24.299959	0.001046	20.757261
820.235755	-3.016000	3.698500	-11.153000	24.288610	0.001046	20.754411
821.234525	-3.004300	3.698500	-11.110000	24.314928	0.001046	20.751413
822.235837	-2.999900	3.698400	-11.093000	24.306493	0.001046	20.774722
823.234633	-2.974700	3.698700	-11.002000	24.336912	0.001045	20.759243
824.235742	-2.995700	3.698700	-11.079000	24.333008	0.001046	20.755800
825.236981	-2.981100	3.698800	-11.026000	24.285666	0.001046	20.764261
826.235036	-2.998000	3.697800	-11.084000	24.306558	0.001045	20.770519
827.237263	-2.999100	3.697100	-11.087000	24.295514	0.001043	20.763708
828.241433	-2.999500	3.696500	-11.087000	24.297577	0.001046	20.762933
829.236998	-2.995800	3.696200	-11.071000	24.278921	0.001043	20.733786
830.235985	-3.008700	3.696700	-11.121000	24.272948	0.001044	20.746761
831.240505	-3.006900	3.696400	-11.113000	24.248693	0.001045	20.774589
832.238351	-2.994900	3.696200	-11.069000	24.251155	0.001044	20.772791
833.239510	-3.000600	3.695100	-11.086000	24.277429	0.001044	20.777335
834.238641	-3.022100	3.694600	-11.164000	24.271087	0.001044	20.775715
835.239445	-3.016700	3.694800	-11.145000	24.290989	0.001043	20.743047
836.239602	-2.986500	3.695200	-11.034000	24.299423	0.001044	20.755775
837.240365	-2.989000	3.695300	-11.043000	24.296809	0.001042	20.782551
838.238520	-3.007100	3.694300	-11.108000	24.304430	0.001041	20.767436
839.239285	-2.982000	3.695400	-11.019000	24.316070	0.001042	20.766310
840.241387	-3.015200	3.693700	-11.137000	24.303682	0.001043	20.771427
841.240527	-3.006900	3.692900	-11.102000	24.281815	0.001042	20.772726
842.240127	-2.983700	3.692900	-11.018000	24.283854	0.001039	20.766710
843.238518	-2.999200	3.691800	-11.071000	24.291545	0.001041	20.784857
844.244268	-2.999300	3.691400	-11.070000	24.316720	0.001040	20.758427
845.242821	-3.037000	3.691000	-11.208000	24.323288	0.001041	20.766913
846.242738	-3.004200	3.691000	-11.087000	24.330206	0.001040	20.785232
847.241293	-2.998600	3.690300	-11.065000	24.325799	0.001040	20.789347
848.242067	-2.981300	3.691500	-11.005000	24.350579	0.001039	20.758728
849.248477	-2.988700	3.692100	-11.034000	24.329560	0.001041	20.788378
850.241047	-2.985500	3.691900	-11.021000	24.323942	0.001038	20.787484
851.240950	-3.007100	3.689800	-11.094000	24.294484	0.001039	20.778796
852.248657	-2.989700	3.690700	-11.032000	24.285601	0.001040	20.744281
853.242054	-2.995400	3.690800	-11.054000	24.323967	0.001038	20.787983
854.245430	-3.007500	3.689100	-11.093000	24.293469	0.001041	20.772088
855.244030	-2.999300	3.691200	-11.070000	24.300161	0.001040	20.777378
856.244894	-2.985500	3.691400	-11.020000	24.325340	0.001038	20.784145
857.254653	-2.978500	3.688900	-10.987000	24.336055	0.001038	20.773081
858.246856	-2.992700	3.689800	-11.041000	24.369018	0.001039	20.792398
859.246338	-3.002200	3.688300	-11.072000	24.364390	0.001037	20.771634
860.244627	-2.999600	3.686200	-11.056000	24.386107	0.001039	20.799111
861.246830	-2.997900	3.687500	-11.054000	24.400291	0.001038	20.779201
862.244756	-2.975000	3.689400	-10.975000	24.420289	0.001038	20.790729
863.245752	-2.998000	3.686900	-11.052000	24.402477	0.001037	20.811740
864.244013	-2.999800	3.686900	-11.059000	24.392079	0.001035	20.769540
865.246466	-2.986200	3.686300	-11.007000	24.373941	0.001036	20.778846
866.247507	-2.985200	3.687100	-11.006000	24.399459	0.001035	20.769358
867.245278	-2.978500	3.687100	-10.980000	24.428915	0.001036	20.770459
868.245779	-2.993900	3.686200	-11.034000	24.422244	0.001034	20.790320
869.248214	-3.012100	3.686900	-11.103000	24.415652	0.001036	20.794138
870.249665	-3.007300	3.684700	-11.080000	24.435773	0.001033	20.799625
871.248313	-3.001900	3.684200	-11.059000	24.436788	0.001034	20.797798
872.250528	-3.015100	3.685200	-11.109000	24.463033	0.001034	20.782403
873.248042	-3.009200	3.684700	-11.087000	24.487781	0.001033	20.773567
874.249928	-3.010100	3.683400	-11.085000	24.509787	0.001035	20.800861
875.249764	-2.971500	3.685100	-10.948000	24.513321	0.001033	20.796346
876.247445	-2.983000	3.684700	-10.991000	24.521124	0.001033	20.801330
877.247005	-2.971500	3.684000	-10.946000	24.520031	0.001034	20.801182
878.250746	-2.985200	3.684800	-10.999000	24.506843	0.001035	20.802175
879.250886	-3.002800	3.683500	-11.059000	24.511018	0.001033	20.791191
880.251513	-3.016100	3.682900	-11.106000	24.515596	0.001033	20.793888
881.253664	-3.004900	3.684500	-11.071000	24.527928	0.001031	20.818588
882.250531	-3.003300	3.683300	-11.061000	24.540840	0.001032	20.797404
883.252996	-2.993500	3.683200	-11.025000	24.561230	0.001031	20.814069
884.251792	-3.014200	3.682400	-11.098000	24.552128	0.001029	20.806833
885.253205	-2.977200	3.683300	-10.964000	24.538715	0.001029	20.803332
886.251837	-2.979100	3.683500	-10.973000	24.536603	0.001030	20.806903
887.249860	-2.997300	3.681700	-11.034000	24.522076	0.001030	20.802285
888.252452	-2.998400	3.681300	-11.037000	24.533512	0.001028	20.802379
889.253159	-2.990100	3.680400	-11.004000	24.550130	0.001027	20.810519
890.253109	-2.995000	3.680500	-11.021000	24.550923	0.001027	20.805150
891.256912	-3.001100	3.680800	-11.045000	24.538804	0.001028	20.813853
892.254231	-3.000000	3.680300	-11.041000	24.500899	0.001027	20.800952
893.253674	-3.007400	3.679400	-11.064000	24.490797	0.001027	20.794137
894.255673	-2.990600	3.680500	-11.007000	24.463534	0.001027	20.804242
895.252965	-2.993200	3.678700	-11.010000	24.442837	0.001026	20.799125
896.253112	-3.003800	3.679000	-11.050000	24.439150	0.001025	20.811548
897.254484	-2.981100	3.680300	-10.970000	24.450941	0.001025	20.835704
898.254392	-2.998600	3.678100	-11.028000	24.441012	0.001025	20.828588
899.253817	-2.990700	3.678800	-11.001000	24.438196	0.001025	20.802530
900.256109	-2.989600	3.679300	-10.999000	24.448471	0.001024	20.828010
901.255414	-2.993900	3.677400	-11.008000	24.418892	0.001025	20.804500
902.256183	-3.005900	3.677800	-11.055000	24.455354	0.001023	20.823536
903.258394	-2.999800	3.676600	-11.028000	24.458189	0.001023	20.824484
904.264346	-3.003300	3.676500	-11.041000	24.464826	0.001026	20.825453
905.259351	-2.965800	3.678800	-10.909000	24.492788	0.001022	20.820790
906.257684	-3.000200	3.675800	-11.027000	24.508404	0.001024	20.809431
907.261168	-3.009000	3.675100	-11.058000	24.501360	0.001023	20.818958
908.259937	-3.014200	3.674900	-11.076000	24.474668	0.001022	20.809249
909.256837	-2.985300	3.676700	-10.976000	24.451259	0.001022	20.825592
910.262733	-3.006800	3.674900	-11.049000	24.483022	0.001022	20.816208
911.259088	-2.990500	3.675500	-10.991000	24.494213	0.001024	20.819374
912.258702	-2.989400	3.674900	-10.984000	24.510182	0.001023	20.826862
913.264087	-3.027900	3.674000	-11.124000	24.501696	0.001023	20.814080
914.258759	-2.986500	3.675000	-10.975000	24.462741	0.001021	20.855128
915.259782	-2.988100	3.674700	-10.980000	24.436796	0.001020	20.837160
916.263433	-3.010400	3.672600	-11.054000	24.465794	0.001020	20.828320
917.260758	-3.009200	3.673000	-11.051000	24.448780	0.001020	20.831639
918.258058	-3.028000	3.671400	-11.114000	24.448204	0.001021	20.831536
919.263075	-2.977200	3.676700	-10.944000	24.468275	0.001020	20.821327
920.260786	-3.003900	3.673200	-11.033000	24.493693	0.001019	20.850620
921.263030	-3.015200	3.673500	-11.076000	24.529187	0.001018	20.809893
922.262583	-3.022800	3.672000	-11.098000	24.572811	0.001018	20.825689
923.262514	-3.009600	3.672100	-11.051000	24.580368	0.001019	20.839908
924.261646	-3.000100	3.671300	-11.013000	24.578074	0.001019	20.831918
925.264981	-3.014100	3.671400	-11.064000	24.579718	0.001019	20.821239
926.265381	-3.002000	3.671000	-11.019000	24.576780	0.001014	20.848636
927.262337	-2.975700	3.672400	-10.927000	24.571577	0.001016	20.863804
928.266145	-2.990800	3.672100	-10.981000	24.543021	0.001016	20.835628
929.263716	-3.010200	3.669400	-11.045000	24.505042	0.001016	20.833558
930.263192	-2.974500	3.671800	-10.920000	24.501006	0.001016	20.835673
931.267947	-2.991700	3.670100	-10.978000	24.498043	0.001018	20.851665
932.266604	-3.020400	3.669000	-11.081000	24.491673	0.001015	20.837214
933.267878	-3.020400	3.670000	-11.084000	24.473217	0.001015	20.856629
934.265321	-3.008000	3.670300	-11.039000	24.500348	0.001013	20.861564
935.265267	-3.003500	3.669600	-11.021000	24.517336	0.001014	20.843522
936.264377	-2.988700	3.670500	-10.969000	24.516741	0.001015	20.853355
937.267657	-2.981500	3.669400	-10.939000	24.492260	0.001013	20.858191
938.271589	-2.995800	3.668200	-10.988000	24.496562	0.001012	20.856818
939.267245	-2.996200	3.668300	-10.990000	24.512631	0.001015	20.849232
940.270958	-2.991800	3.669300	-10.976000	24.506084	0.001011	20.849301
941.274369	-3.009100	3.667200	-11.034000	24.545830	0.001012	20.864523
942.272436	-3.008900	3.668400	-11.037000	24.563931	0.001013	20.847124
943.271900	-3.015700	3.666700	-11.056000	24.537767	0.001011	20.846477
944.273460	-3.011700	3.666300	-11.041000	24.560003	0.001011	20.825165
945.266875	-3.005600	3.666100	-11.018000	24.549356	0.001008	20.846724
946.268652	-3.009000	3.666800	-11.032000	24.554402	0.001011	20.842778
947.269127	-3.003800	3.666300	-11.012000	24.568632	0.001011	20.853737
948.267853	-2.983400	3.665500	-10.935000	24.577656	0.001008	20.870377
949.275985	-2.970600	3.667300	-10.892000	24.606005	0.001008	20.873217
950.270229	-2.989800	3.666100	-10.959000	24.598650	0.001009	20.857778
951.268014	-3.021400	3.664100	-11.069000	24.608150	0.001008	20.854982
952.275445	-3.003300	3.665500	-11.008000	24.634460	0.001008	20.847717
953.271723	-3.004500	3.664100	-11.007000	24.619664	0.001007	20.859897
954.274054	-3.014200	3.663500	-11.042000	24.631498	0.001007	20.839055
955.271897	-2.980200	3.665100	-10.921000	24.636749	0.001005	20.840531
956.271918	-3.027500	3.663600	-11.091000	24.644458	0.001006	20.853007
957.271000	-3.016900	3.663300	-11.050000	24.655675	0.001006	20.845297
958.275697	-3.000100	3.663300	-10.989000	24.687609	0.001004	20.841781
959.276226	-3.019200	3.663100	-11.058000	24.665298	0.001006	20.852582
960.271781	-2.997500	3.663100	-10.979000	24.660002	0.001005	20.821190
961.271045	-3.028800	3.662200	-11.091000	24.643562	0.001004	20.824608
962.274670	-2.967800	3.662900	-10.870000	24.634658	0.001004	20.850760
963.271008	-3.001800	3.660900	-10.988000	24.623666	0.001004	20.828826
964.270670	-2.999700	3.661900	-10.984000	24.607201	0.001005	20.848340
965.275485	-2.976900	3.662500	-10.902000	24.611725	0.001006	20.851931
966.272661	-2.964800	3.662300	-10.856000	24.602899	0.001003	20.837385
967.275306	-3.029100	3.659500	-11.083000	24.572453	0.001003	20.831968
968.273097	-2.989800	3.661600	-10.947000	24.575540	0.001005	20.854978
969.274658	-3.005900	3.661000	-11.003000	24.593472	0.001003	20.829824
970.274836	-3.019500	3.658300	-11.045000	24.605508	0.001002	20.829572
971.274646	-2.995200	3.660300	-10.962000	24.603893	0.001004	20.821788
972.275139	-3.007900	3.658800	-11.004000	24.624360	0.001001	20.825730
973.275074	-3.000900	3.659000	-10.979000	24.609416	0.001000	20.811209
974.275470	-2.998700	3.658400	-10.969000	24.621048	0.001000	20.841846
975.275455	-3.003800	3.658000	-10.987000	24.620580	0.001001	20.825256
976.274476	-3.017700	3.658200	-11.039000	24.647120	0.000998	20.837188
977.275021	-3.000100	3.658100	-10.973000	24.653485	0.000997	20.813229
978.276266	-2.990300	3.659500	-10.942000	24.652791	0.000998	20.829127
979.276793	-3.020500	3.657400	-11.046000	24.658141	0.000999	20.833547
980.277297	-2.990900	3.658100	-10.939000	24.652515	0.000999	20.795661
981.276548	-3.000500	3.656600	-10.971000	24.649754	0.000998	20.834141
982.277083	-2.997000	3.657300	-10.959000	24.666642	0.000998	20.817896
983.283946	-3.014900	3.655300	-11.018000	24.664707	0.000998	20.822118
984.278473	-2.995900	3.657000	-10.955000	24.665574	0.000996	20.811134
985.279383	-2.986000	3.655900	-10.915000	24.673389	0.000996	20.805701
986.279229	-2.973800	3.656800	-10.873000	24.669078	0.000997	20.831720
987.283716	-3.008800	3.656300	-11.000000	24.647322	0.000996	20.818424
988.282905	-3.005200	3.656700	-10.988000	24.620239	0.000995	20.814483
989.286810	-2.986300	3.655400	-10.914000	24.643443	0.000996	20.810739
990.284450	-3.010800	3.654200	-11.002000	24.660503	0.000996	20.817901
991.284387	-2.975800	3.656500	-10.880000	24.690371	0.000993	20.836017
992.285308	-2.979900	3.655900	-10.893000	24.698260	0.000994	20.805528
993.288290	-2.979000	3.653500	-10.883000	24.696719	0.000994	20.821525
994.289593	-3.003400	3.653300	-10.971000	24.701818	0.000997	20.796296
995.283194	-2.966000	3.654100	-10.837000	24.709128	0.000993	20.800786
996.299336	-3.008200	3.652300	-10.985000	24.731655	0.000994	20.801108
997.286622	-3.007500	3.653300	-10.987000	24.747651	0.000991	20.805305
998.288292	-2.999700	3.653700	-10.959000	24.740731	0.000993	20.788878
999.293316	-2.995200	3.653000	-10.941000	24.701489	0.000992	20.804501
1000.289661	-2.998000	3.652900	-10.950000	24.702985	0.000990	20.796519
1001.289066	-3.001400	3.652900	-10.963000	24.691172	0.000991	20.803631
1002.292969	-2.989700	3.651900	-10.917000	24.725985	0.000990	20.807746
1003.289259	-2.995000	3.651500	-10.934000	24.708030	0.000992	20.804901
1004.288218	-3.010300	3.650600	-10.989000	24.695149	0.000988	20.803829
1005.286322	-3.005700	3.650200	-10.970000	24.706440	0.000990	20.811840
1006.285912	-2.973200	3.651500	-10.856000	24.685621	0.000989	20.789526
1007.289859	-3.007600	3.650200	-10.977000	24.664304	0.000989	20.808438
1008.289528	-3.015500	3.649200	-11.003000	24.641356	0.000989	20.806748
1009.285341	-2.996800	3.650200	-10.938000	24.610665	0.000986	20.806773
1010.289128	-2.991700	3.649900	-10.918000	24.639137	0.000988	20.788400
1011.286958	-3.002200	3.651200	-10.960000	24.659184	0.000988	20.827956
1012.287322	-2.980100	3.649100	-10.874000	24.628322	0.000986	20.795092
1013.290228	-3.002500	3.648700	-10.953000	24.665903	0.000987	20.798663
1014.290322	-3.000700	3.649600	-10.951000	24.663433	0.000987	20.799977
1015.290653	-2.989400	3.648600	-10.906000	24.695913	0.000986	20.791793
1016.285234	-3.010600	3.646600	-10.978000	24.709074	0.000988	20.776076
1017.285735	-2.998500	3.647600	-10.937000	24.714316	0.000988	20.794139
1018.293552	-3.008100	3.647400	-10.971000	24.736100	0.000985	20.783283
1019.292410	-3.009900	3.646100	-10.974000	24.740402	0.000983	20.795186
1020.294528	-2.999500	3.647700	-10.940000	24.763431	0.000984	20.802175
1021.294334	-2.991900	3.647400	-10.911000	24.765522	0.000983	20.772980
1022.289958	-3.012900	3.646100	-10.984000	24.769869	0.000985	20.796308
1023.291795	-2.983500	3.648100	-10.883000	24.760547	0.000983	20.799755
1024.295732	-2.992000	3.646800	-10.910000	24.744384	0.000984	20.799182
1025.289604	-3.002600	3.645900	-10.946000	24.760542	0.000983	20.799750
1026.289313	-2.999100	3.644900	-10.930000	24.771483	0.000983	20.799825
1027.295572	-2.982500	3.646400	-10.873000	24.791076	0.000983	20.799573
1028.288398	-3.002600	3.644000	-10.941000	24.775312	0.000983	20.792288
1029.292465	-3.015500	3.643300	-10.985000	24.746762	0.000978	20.792085
1030.294084	-2.995800	3.644300	-10.916000	24.682448	0.000981	20.770694
1031.288638	-2.995100	3.642900	-10.910000	24.684136	0.000980	20.775234
1032.292884	-3.005600	3.644300	-10.953000	24.690328	0.000981	20.799465
1033.292778	-3.010200	3.643700	-10.967000	24.661258	0.000980	20.800641
1034.292831	-3.002700	3.642700	-10.937000	24.683733	0.000979	20.780994
1035.295542	-3.000000	3.643500	-10.929000	24.675425	0.000980	20.768389
1036.295298	-3.012400	3.642500	-10.972000	24.688656	0.000977	20.781665
1037.294481	-2.990400	3.643300	-10.893000	24.693356	0.000978	20.785434
1038.294612	-2.989000	3.641200	-10.882000	24.701906	0.000977	20.769358
1039.292483	-2.991200	3.642800	-10.895000	24.640602	0.000976	20.772326
1040.292325	-3.001700	3.641300	-10.929000	24.674451	0.000975	20.784955
1041.296122	-2.985300	3.641900	-10.871000	24.662457	0.000974	20.791886
1042.295629	-2.991900	3.641100	-10.893000	24.683075	0.000975	20.787446
1043.296547	-2.972400	3.642000	-10.825000	24.696006	0.000975	20.753953
1044.301441	-3.013500	3.639500	-10.966000	24.728604	0.000974	20.782398
1045.301331	-2.999600	3.639800	-10.917000	24.748428	0.000974	20.793284
1046.296900	-3.017100	3.639800	-10.981000	24.743601	0.000972	20.759989
1047.305058	-2.984100	3.640900	-10.864000	24.771679	0.000973	20.766355
1048.304992	-3.017200	3.636900	-10.972000	24.800898	0.000973	20.780032
1049.297308	-3.015100	3.639600	-10.972000	24.805076	0.000974	20.768104
1050.304547	-3.007600	3.639300	-10.945000	24.843217	0.000972	20.766079
1051.303187	-3.003600	3.638200	-10.927000	24.841657	0.000971	20.778738
1052.300950	-3.007400	3.638200	-10.940000	24.801473	0.000970	20.764014
1053.302351	-2.993400	3.638900	-10.891000	24.820347	0.000971	20.781059
1054.301776	-2.997700	3.637700	-10.904000	24.789814	0.000970	20.786452
1055.295856	-3.016100	3.637200	-10.969000	24.794111	0.000972	20.765634
1056.298845	-3.005400	3.638000	-10.932000	24.810154	0.000970	20.777942
1057.299801	-3.025600	3.635200	-10.997000	24.840589	0.000969	20.772450
1058.303104	-2.992600	3.637200	-10.884000	24.831612	0.000969	20.772924
1059.300562	-3.020600	3.635900	-10.981000	24.845091	0.000969	20.786452
1060.303648	-3.040200	3.633400	-11.045000	24.871302	0.000968	20.785257
1061.306888	-3.001200	3.636400	-10.912000	24.858571	0.000969	20.777695
1062.305994	-3.017600	3.634200	-10.966000	24.834603	0.000969	20.792522
1063.306505	-2.969600	3.636600	-10.798000	24.843107	0.000967	20.754114
1064.305588	-2.997000	3.635800	-10.896000	24.848329	0.000968	20.758407
1065.306860	-3.007200	3.634400	-10.928000	24.833412	0.000967	20.779472
1066.308835	-3.011200	3.634900	-10.945000	24.807673	0.000968	20.768814
1067.304925	-3.002800	3.633200	-10.909000	24.794897	0.000968	20.770216
1068.304958	-2.998600	3.633700	-10.895000	24.765205	0.000967	20.772661
1069.313085	-3.000900	3.634600	-10.906000	24.752645	0.000967	20.755789
1070.304848	-2.993200	3.633700	-10.875000	24.755061	0.000967	20.770542
1071.307986	-2.997900	3.634100	-10.893000	24.794473	0.000965	20.761730
1072.309085	-3.006700	3.631900	-10.918000	24.768237	0.000964	20.758634
1073.307153	-2.998900	3.633300	-10.894000	24.795842	0.000964	20.742240
1074.313301	-3.029700	3.632100	-11.003000	24.794991	0.000965	20.760827
1075.309203	-2.995100	3.632100	-10.878000	24.780673	0.000963	20.747880
1076.309062	-2.992900	3.632500	-10.871000	24.802924	0.000962	20.764996
1077.311204	-2.996200	3.631800	-10.881000	24.824263	0.000963	20.778825
1078.308621	-2.999800	3.631100	-10.892000	24.813618	0.000961	20.744433
1079.313133	-2.998500	3.630800	-10.886000	24.806630	0.000962	20.775827
1080.308332	-3.016900	3.631400	-10.955000	24.803923	0.000961	20.744660
1081.313821	-2.982200	3.632000	-10.830000	24.840971	0.000960	20.756238
1082.314332	-2.988300	3.630700	-10.849000	24.828585	0.000961	20.737642
1083.313542	-2.999100	3.630700	-10.887000	24.856410	0.000960	20.751344
1084.313950	-3.004100	3.630000	-10.904000	24.877472	0.000959	20.777699
1085.322772	-3.020100	3.628800	-10.958000	24.914642	0.000959	20.747674
1086.317685	-2.987200	3.630200	-10.843000	24.879879	0.000959	20.773951
1087.315260	-3.005400	3.629300	-10.906000	24.916453	0.000959	20.744750
1088.316236	-2.986400	3.629100	-10.837000	24.875303	0.000958	20.768883
1089.318582	-2.995300	3.630100	-10.872000	24.861681	0.000959	20.749995
1090.324388	-3.008100	3.627300	-10.911000	24.867144	0.000958	20.741728
1091.311832	-3.008000	3.628100	-10.913000	24.868512	0.000957	20.755903
1092.316713	-3.007300	3.626700	-10.906000	24.902798	0.000955	20.768030
1093.337520	-3.021200	3.625700	-10.953000	24.928333	0.000957	20.757623
1094.320630	-3.002100	3.627200	-10.887000	24.899392	0.000957	20.758922
1095.316928	-2.981700	3.626500	-10.813000	24.863709	0.000956	20.759618
1096.318121	-2.996600	3.626700	-10.866000	24.852543	0.000955	20.752205
1097.316457	-3.006800	3.625900	-10.900000	24.837400	0.000955	20.747438
1098.321051	-3.018000	3.625200	-10.940000	24.801814	0.000955	20.735431
1099.319194	-2.985400	3.625600	-10.822000	24.799875	0.000954	20.742020
1100.317827	-3.005900	3.625200	-10.895000	24.824102	0.000952	20.748317
1101.322800	-3.002700	3.624900	-10.882000	24.822430	0.000951	20.763234
1102.319205	-3.021600	3.623700	-10.949000	24.815865	0.000953	20.746213
1103.317289	-2.994200	3.623900	-10.850000	24.850403	0.000951	20.744366
1104.321986	-2.992700	3.624800	-10.847000	24.855078	0.000951	20.735307
1105.320604	-3.005000	3.622800	-10.886000	24.860147	0.000951	20.747034
1106.324219	-2.992100	3.623700	-10.841000	24.839039	0.000950	20.729168
1107.322113	-2.985800	3.625300	-10.823000	24.853784	0.000951	20.764830
1108.325238	-3.004900	3.623000	-10.886000	24.848139	0.000950	20.748258
1109.322385	-2.997200	3.622400	-10.856000	24.876465	0.000948	20.739229
1110.322412	-2.990200	3.621400	-10.827000	24.902370	0.000948	20.754324
1111.328010	-2.986600	3.622500	-10.818000	24.891652	0.000949	20.745937
1112.320545	-3.008300	3.623100	-10.898000	24.899811	0.000948	20.731366
1113.323370	-3.014100	3.622500	-10.916000	24.910180	0.000949	20.728496
1114.321665	-2.997800	3.622500	-10.858000	24.933382	0.000945	20.746094
1115.322749	-2.974900	3.622100	-10.774000	24.959413	0.000945	20.736660
1116.324009	-2.996100	3.620300	-10.846000	24.954709	0.000945	20.738577
1117.323051	-3.003200	3.621100	-10.874000	24.958049	0.000946	20.733869
1118.323860	-3.006600	3.618800	-10.879000	24.952573	0.000945	20.745443
1119.322719	-3.017500	3.619100	-10.920000	24.986639	0.000946	20.727003
1120.323319	-2.998900	3.618600	-10.851000	24.942637	0.000945	20.721243
1121.323267	-3.007600	3.619500	-10.885000	24.942308	0.000942	20.745571
1122.321243	-3.000000	3.618500	-10.854000	24.964441	0.000943	20.707092
1123.322851	-2.998500	3.619900	-10.852000	24.973663	0.000944	20.728678
1124.326219	-3.017800	3.618600	-10.919000	24.984508	0.000940	20.718225
1125.325819	-2.979100	3.619000	-10.780000	24.998281	0.000941	20.721145
1126.324786	-3.021100	3.616500	-10.924000	25.028463	0.000942	20.713982
1127.328841	-2.983000	3.618200	-10.793000	25.011979	0.000942	20.718299
1128.327410	-2.978300	3.617900	-10.774000	25.010468	0.000941	20.725792
1129.324862	-3.005100	3.617300	-10.869000	25.000819	0.000941	20.717054
1130.323989	-3.005100	3.617000	-10.868000	24.940402	0.000940	20.737494
1131.330520	-2.994200	3.615400	-10.824000	24.950171	0.000940	20.726435
1132.324638	-2.991900	3.618100	-10.823000	24.934109	0.000940	20.738289
1133.325867	-3.007400	3.615400	-10.871000	24.909844	0.000938	20.717252
1134.329479	-2.996000	3.615800	-10.832000	24.903436	0.000939	20.724572
1135.330616	-2.996200	3.615000	-10.831000	24.941972	0.000937	20.719153
1136.327257	-2.983400	3.615300	-10.785000	24.953240	0.000939	20.730464
1137.324603	-2.999600	3.615300	-10.843000	24.949407	0.000937	20.719030
1138.328134	-2.985500	3.615300	-10.792000	24.949678	0.000937	20.733053
1139.330070	-3.007000	3.614500	-10.868000	24.893765	0.000938	20.719133
1140.327516	-3.006900	3.613900	-10.866000	24.876035	0.000935	20.746858
1141.330981	-3.020000	3.613800	-10.912000	24.878869	0.000936	20.725046
1142.332949	-2.997000	3.613900	-10.831000	24.851394	0.000936	20.726868
1143.329155	-2.983300	3.613800	-10.778000	24.873603	0.000935	20.716441
1144.328681	-2.999000	3.612800	-10.834000	24.856221	0.000934	20.734558
1145.330873	-3.016600	3.611600	-10.894000	24.848215	0.000935	20.722729
1146.328539	-3.003000	3.611400	-10.843000	24.862959	0.000934	20.734682
1147.332417	-3.023700	3.611400	-10.919000	24.855942	0.000934	20.729536
1148.331321	-3.021600	3.611000	-10.910000	24.853387	0.000933	20.723178
1149.329138	-2.994600	3.610000	-10.809000	24.835306	0.000930	20.735379
1150.332479	-3.019400	3.610100	-10.899000	24.821256	0.000932	20.720329
1151.335419	-3.006800	3.610700	-10.856000	24.833540	0.000934	20.734080
1152.337466	-2.974900	3.612100	-10.744000	24.847812	0.000930	20.727066
1153.330700	-2.990700	3.610200	-10.795000	24.837590	0.000930	20.710168
1154.335667	-3.012100	3.608200	-10.867000	24.843083	0.000931	20.719949
1155.332317	-2.999400	3.609300	-10.824000	24.822792	0.000932	20.717603
1156.329536	-3.012700	3.608100	-10.868000	24.850145	0.000930	20.718976
1157.333283	-3.005700	3.607900	-10.843000	24.868738	0.000930	20.718196
1158.334426	-3.008100	3.609500	-10.855000	24.896813	0.000928	20.719347
1159.345937	-3.021300	3.606800	-10.895000	24.942086	0.000927	20.724010
1160.329738	-3.002700	3.608100	-10.833000	24.972073	0.000926	20.724711
1161.333416	-3.006700	3.607100	-10.845000	24.962675	0.000928	20.714803
1162.332073	-3.001300	3.607000	-10.824000	24.968290	0.000928	20.732294
1163.332369	-3.001400	3.606500	-10.823000	24.989646	0.000928	20.723383
1164.335270	-2.981700	3.606800	-10.753000	25.037750	0.000928	20.705285
1165.332492	-2.989600	3.607100	-10.782000	25.016296	0.000926	20.710304
1166.338924	-2.994300	3.608200	-10.803000	24.951924	0.000925	20.723453
1167.337241	-2.993100	3.607500	-10.796000	24.928673	0.000928	20.702960
1168.337945	-2.958800	3.608400	-10.675000	24.947446	0.000925	20.706629
1169.337532	-2.992000	3.605900	-10.788000	24.930961	0.000924	20.717111
1170.342669	-2.984100	3.605400	-10.758000	24.908281	0.000924	20.707623
1171.336646	-2.995000	3.604600	-10.794000	24.894483	0.000923	20.718904
1172.341404	-2.999000	3.603200	-10.805000	24.910072	0.000922	20.712266
1173.342032	-2.996600	3.604200	-10.799000	24.913326	0.000921	20.726438
1174.334940	-2.988200	3.604000	-10.768000	24.940602	0.000923	20.705924
1175.335303	-2.988900	3.603800	-10.771000	24.934309	0.000921	20.719997
1176.336064	-2.996200	3.603000	-10.794000	24.964370	0.000920	20.705598
1177.344406	-3.002800	3.602600	-10.817000	24.990893	0.000922	20.711832
1178.337246	-2.996900	3.603400	-10.798000	24.953004	0.000922	20.710311
1179.338984	-2.996100	3.602500	-10.793000	24.978656	0.000920	20.720887
1180.348469	-2.985200	3.602700	-10.754000	24.995613	0.000917	20.733640
1181.340598	-3.034900	3.600700	-10.925000	25.017564	0.000920	20.716792
1182.335233	-3.015700	3.599800	-10.854000	25.023134	0.000918	20.738506
1183.338257	-3.011600	3.600800	-10.843000	25.034039	0.000917	20.721002
1184.339228	-2.995200	3.600900	-10.784000	25.023897	0.000917	20.724573
1185.339970	-2.976400	3.602200	-10.720000	25.059600	0.000918	20.716314
1186.342009	-2.994700	3.600100	-10.780000	25.030379	0.000919	20.736295
1187.341963	-2.990300	3.599900	-10.764000	25.043383	0.000915	20.720899
1188.342963	-2.985100	3.600600	-10.747000	25.051417	0.000915	20.729912
1189.341558	-3.001700	3.600400	-10.806000	25.067547	0.000916	20.721921
1190.341985	-3.016400	3.598200	-10.852000	25.089620	0.000914	20.724638
1191.344028	-3.014200	3.598400	-10.846000	25.047782	0.000912	20.722944
1192.340573	-3.037600	3.596500	-10.924000	25.028789	0.000913	20.723319
1193.341901	-3.004600	3.597800	-10.809000	25.035899	0.000913	20.716231
1194.338397	-3.007100	3.596700	-10.815000	25.052009	0.000913	20.737144
1195.341379	-2.974700	3.598900	-10.705000	25.078407	0.000912	20.736616
1196.342947	-2.997900	3.597100	-10.783000	25.079824	0.000911	20.721443
1197.343554	-3.018000	3.596500	-10.853000	25.068582	0.000909	20.722486
1198.341233	-2.981900	3.597500	-10.726000	25.023683	0.000909	20.726729
1199.344898	-3.009100	3.595500	-10.818000	24.993550	0.000908	20.751959
1200.340180	-2.967100	3.596300	-10.669000	24.983457	0.000908	20.730448
1201.338971	-3.009700	3.595300	-10.820000	24.973680	0.000908	20.739127
1202.343432	-3.002600	3.595300	-10.794000	24.930938	0.000908	20.730365
1203.338653	-3.011100	3.595400	-10.825000	24.958707	0.000907	20.724572
1204.341475	-3.006900	3.595000	-10.809000	24.988969	0.000906	20.735507
1205.338028	-2.968800	3.595600	-10.673000	24.971914	0.000907	20.718861
1206.340921	-2.973700	3.595100	-10.689000	24.972559	0.000907	20.740372
1207.341002	-3.002900	3.594300	-10.792000	25.012662	0.000905	20.731313
1208.342011	-2.980600	3.594400	-10.713000	25.018252	0.000906	20.726019
1209.340376	-2.981600	3.593500	-10.713000	25.035607	0.000905	20.750078
1210.340357	-2.991300	3.594200	-10.750000	25.071698	0.000903	20.755488
1211.343606	-2.992900	3.593900	-10.755000	25.081494	0.000905	20.742561
1212.342113	-2.990100	3.591700	-10.738000	25.052110	0.000905	20.749101
1213.340999	-2.983100	3.591600	-10.713000	25.037192	0.000904	20.754040
1214.343907	-3.014700	3.592600	-10.829000	25.047013	0.000900	20.739242
1215.341398	-3.017500	3.591200	-10.835000	25.050212	0.000901	20.749566
1216.342803	-2.988300	3.591000	-10.731000	25.060904	0.000901	20.757928
1217.341897	-3.004500	3.590200	-10.785000	25.092650	0.000900	20.736689
1218.343261	-2.986900	3.591000	-10.724000	25.114923	0.000899	20.750989
1219.345384	-2.979800	3.588900	-10.693000	25.088320	0.000900	20.762690
1220.348405	-2.993600	3.590200	-10.747000	25.082131	0.000898	20.748416
1221.343627	-2.988500	3.589900	-10.728000	25.046630	0.000899	20.751661
1222.344263	-3.000900	3.590000	-10.772000	25.036382	0.000899	20.732838
1223.349874	-3.009800	3.589600	-10.804000	25.050081	0.000899	20.731890
1224.348255	-3.033600	3.587900	-10.884000	25.012936	0.000899	20.733011
1225.351912	-3.001500	3.587800	-10.768000	25.040383	0.000896	20.752028
1226.349440	-2.990600	3.587300	-10.728000	25.030414	0.000898	20.747236
1227.347533	-2.975600	3.587400	-10.674000	25.037224	0.000897	20.749805
1228.349365	-2.995500	3.588400	-10.748000	25.058303	0.000896	20.762904
1229.346549	-3.003800	3.588300	-10.777000	25.102827	0.000895	20.746432
1230.346241	-2.976200	3.587900	-10.677000	25.106182	0.000893	20.748378
1231.353535	-2.992800	3.586700	-10.733000	25.120574	0.000896	20.743385
1232.348527	-2.970800	3.586100	-10.652000	25.140678	0.000894	20.733221
1233.352021	-3.008100	3.584300	-10.779000	25.147714	0.000894	20.739336
1234.356590	-2.992200	3.585700	-10.726000	25.163049	0.000893	20.741455
1235.355493	-3.011700	3.585800	-10.798000	25.160766	0.000893	20.754810
1236.355595	-2.998800	3.585000	-10.749000	25.158125	0.000895	20.760220
1237.357532	-3.009000	3.586100	-10.790000	25.137815	0.000893	20.765436
1238.350832	-3.019000	3.584600	-10.821000	25.101245	0.000892	20.747215
1239.354324	-3.010700	3.583900	-10.788000	25.063355	0.000894	20.747586
1240.355595	-3.020500	3.582900	-10.821000	25.060196	0.000892	20.751054
1241.355437	-2.996800	3.584200	-10.740000	25.102830	0.000891	20.755919
1242.356333	-2.975800	3.585700	-10.669000	25.103397	0.000889	20.776403
1243.359454	-3.005600	3.582300	-10.766000	25.085497	0.000891	20.764124
1244.360511	-3.010400	3.583000	-10.786000	25.104711	0.000889	20.763971
1245.356995	-3.001200	3.583200	-10.752000	25.077089	0.000888	20.756632
1246.360589	-2.999900	3.581300	-10.742000	25.052950	0.000890	20.762747
1247.362174	-3.022500	3.581700	-10.823000	25.040689	0.000888	20.751861
1248.362130	-3.005300	3.581800	-10.763000	24.983955	0.000889	20.758924
1249.360043	-2.983200	3.581900	-10.684000	25.011398	0.000885	20.765608
1250.362349	-2.977900	3.581700	-10.665000	25.017235	0.000885	20.769096
1251.364361	-3.007000	3.579500	-10.763000	25.043240	0.000888	20.768646
1252.356643	-3.021800	3.579700	-10.816000	25.033115	0.000888	20.760379
1253.365226	-3.000400	3.579100	-10.737000	25.022747	0.000884	20.755188
1254.361350	-2.999100	3.579600	-10.735000	25.090236	0.000885	20.771726
1255.361991	-3.004100	3.579700	-10.753000	25.088273	0.000885	20.770229
1256.362057	-3.015100	3.579100	-10.789000	25.122498	0.000886	20.767603
1257.366338	-2.989400	3.578800	-10.697000	25.139477	0.000884	20.777535
1258.362632	-3.007200	3.578400	-10.760000	25.140319	0.000884	20.774587
1259.361056	-2.996000	3.578200	-10.719000	25.122716	0.000884	20.763554
1260.365393	-2.998600	3.578100	-10.728000	25.076526	0.000882	20.777877
1261.359428	-2.995600	3.576900	-10.714000	25.080777	0.000883	20.771713
1262.361854	-3.026000	3.576800	-10.823000	25.084876	0.000881	20.766819
1263.357371	-2.974900	3.578700	-10.645000	25.108759	0.000880	20.760923
1264.361033	-3.019800	3.576800	-10.799000	25.116592	0.000881	20.768786
1265.361357	-3.011800	3.575900	-10.769000	25.105773	0.000879	20.774047
1266.360805	-3.010900	3.576000	-10.766000	25.131250	0.000878	20.781604
1267.358046	-3.009800	3.574800	-10.758000	25.156681	0.000876	20.754503
1268.359234	-3.010400	3.575500	-10.763000	25.166275	0.000877	20.778360
1269.363334	-2.983500	3.575000	-10.665000	25.168136	0.000877	20.772641
1270.361271	-2.984700	3.575500	-10.671000	25.200051	0.000876	20.786189
1271.366526	-2.990200	3.574300	-10.687000	25.185208	0.000876	20.770814
1272.364779	-3.009700	3.573500	-10.754000	25.177902	0.000873	20.797144
1273.371458	-2.989800	3.573900	-10.685000	25.139169	0.000875	20.781019
1274.365135	-2.979100	3.573700	-10.644000	25.124748	0.000875	20.794518
1275.363110	-2.981900	3.573500	-10.655000	25.111922	0.000874	20.802504
1276.365318	-2.985000	3.573700	-10.667000	25.087533	0.000872	20.791298
1277.365300	-2.983600	3.572900	-10.659000	25.113663	0.000870	20.786709
1278.367317	-2.980700	3.573300	-10.649000	25.084473	0.000872	20.784433
1279.364614	-2.982400	3.571400	-10.650000	25.114033	0.000872	20.783287
1280.365036	-3.007500	3.571600	-10.741000	25.097595	0.000870	20.785752
1281.361025	-2.998100	3.571800	-10.708000	25.063188	0.000871	20.807163
1282.364706	-3.009800	3.570700	-10.746000	25.068733	0.000870	20.789496
1283.366560	-3.017400	3.571400	-10.774000	25.060477	0.000869	20.796381
1284.363378	-2.998700	3.569400	-10.703000	25.074849	0.000870	20.779514
1285.366718	-3.011300	3.569100	-10.745000	25.109999	0.000867	20.788247
1286.376173	-3.005100	3.568800	-10.724000	25.141017	0.000869	20.777658
1287.367928	-3.007900	3.568500	-10.733000	25.190481	0.000867	20.781324
1288.362980	-3.010000	3.567900	-10.738000	25.188522	0.000866	20.792633
1289.365691	-2.995100	3.568600	-10.687000	25.235895	0.000869	20.798942
1290.364480	-3.001600	3.567600	-10.707000	25.257471	0.000866	20.796897
1291.363661	-2.991200	3.567800	-10.670000	25.229525	0.000866	20.790176
1292.365045	-3.000800	3.568900	-10.708000	25.256145	0.000865	20.781814
1293.376566	-3.000200	3.568300	-10.704000	25.250280	0.000865	20.801057
1294.363805	-3.012600	3.565600	-10.741000	25.226240	0.000863	20.815327
1295.366987	-2.988900	3.567500	-10.662000	25.185775	0.000862	20.805048
1296.363799	-2.974200	3.567500	-10.609000	25.140552	0.000864	20.814650
1297.364048	-2.993500	3.566700	-10.676000	25.093940	0.000863	20.805790
1298.371561	-2.997800	3.565300	-10.687000	25.082924	0.000861	20.815595
1299.370294	-3.022200	3.565700	-10.773000	25.096445	0.000860	20.812098
1300.369355	-3.009700	3.564700	-10.728000	25.115610	0.000860	20.801939
1301.370176	-3.037700	3.563800	-10.824000	25.139300	0.000864	20.811970
1302.372262	-2.989600	3.565700	-10.659000	25.164874	0.000858	20.814885
1303.370839	-2.998100	3.565200	-10.688000	25.176583	0.000861	20.813364
1304.368261	-3.003200	3.563400	-10.700000	25.196888	0.000857	20.807196
1305.372863	-2.996100	3.565100	-10.678000	25.216178	0.000857	20.805225
1306.371469	-3.004100	3.563800	-10.705000	25.212400	0.000855	20.810915
1307.371676	-2.991900	3.563300	-10.660000	25.244461	0.000859	20.806120
1308.373453	-2.996500	3.562400	-10.674000	25.246301	0.000856	20.811286
1309.375831	-2.992300	3.563100	-10.661000	25.240983	0.000856	20.807843
1310.377552	-3.011300	3.562800	-10.727000	25.249508	0.000856	20.800756
1311.374788	-3.008500	3.562000	-10.715000	25.244182	0.000854	20.820538
1312.374370	-3.012300	3.561300	-10.727000	25.264169	0.000855	20.816897
1313.369613	-3.015100	3.561900	-10.738000	25.239336	0.000854	20.812828
1314.374796	-2.992900	3.560400	-10.655000	25.237472	0.000855	20.807163
1315.370540	-3.005400	3.560300	-10.699000	25.235307	0.000854	20.818740
1316.375728	-3.021800	3.559400	-10.754000	25.235706	0.000852	20.832416
1317.383253	-2.968700	3.561800	-10.574000	25.244901	0.000852	20.828846
1318.377279	-3.000700	3.559800	-10.680000	25.218901	0.000852	20.808907
1319.380291	-2.998600	3.559200	-10.672000	25.235903	0.000851	20.822657
1320.382099	-2.977600	3.560200	-10.599000	25.230580	0.000851	20.815417
1321.376534	-3.007400	3.557400	-10.697000	25.259738	0.000850	20.835208
1322.384567	-3.004600	3.558000	-10.689000	25.261701	0.000851	20.833385
1323.380137	-2.978900	3.557600	-10.597000	25.234231	0.000848	20.821928
1324.376873	-2.990900	3.558800	-10.643000	25.220162	0.000846	20.807802
1325.384557	-3.009700	3.557200	-10.704000	25.240667	0.000849	20.823647
1326.377253	-3.017100	3.557800	-10.732000	25.248473	0.000851	20.841916
1327.382308	-2.992100	3.557000	-10.642000	25.256572	0.000849	20.820175
1328.375032	-2.997900	3.557400	-10.663000	25.243274	0.000848	20.818679
1329.378574	-3.009000	3.555000	-10.696000	25.230297	0.000847	20.832202
1330.382655	-2.996600	3.556100	-10.654000	25.207377	0.000846	20.825313
1331.383236	-3.005600	3.554600	-10.682000	25.165667	0.000849	20.820423
1332.380949	-3.010700	3.556000	-10.705000	25.144409	0.000846	20.835591
1333.380456	-3.009300	3.555200	-10.698000	25.158574	0.000845	20.817095
1334.385597	-2.999700	3.554900	-10.663000	25.140750	0.000844	20.831918
1335.380776	-2.980100	3.554900	-10.591000	25.166608	0.000843	20.832272
1336.382717	-3.004900	3.554900	-10.681000	25.174452	0.000844	20.838725
1337.382149	-2.996300	3.553900	-10.648000	25.185964	0.000843	20.832738
1338.386826	-3.015000	3.554700	-10.716000	25.233291	0.000842	20.826199
1339.385099	-2.994300	3.553800	-10.639000	25.237266	0.000844	20.831138
1340.385282	-2.977800	3.554000	-10.581000	25.241611	0.000842	20.828863
1341.387133	-3.014700	3.552700	-10.709000	25.234425	0.000842	20.822596
1342.381173	-2.985900	3.553300	-10.609000	25.263455	0.000840	20.842732
1343.385537	-2.993200	3.552400	-10.632000	25.241135	0.000842	20.841186
1344.385262	-2.983800	3.554100	-10.604000	25.247119	0.000839	20.859047
1345.384452	-3.020300	3.551400	-10.725000	25.260617	0.000838	20.841306
1346.387272	-2.993800	3.550800	-10.628000	25.254474	0.000839	20.854577
1347.385414	-3.007300	3.549300	-10.672000	25.262051	0.000839	20.833262
1348.385647	-2.990500	3.551500	-10.619000	25.244601	0.000836	20.841821
1349.384521	-2.984900	3.551000	-10.598000	25.276859	0.000836	20.840543
1350.390283	-2.987600	3.549600	-10.604000	25.295326	0.000836	20.844860
1351.388426	-3.025800	3.548000	-10.735000	25.324926	0.000835	20.844233
1352.388631	-2.983600	3.550300	-10.590000	25.293409	0.000836	20.864271
1353.389410	-3.022500	3.549700	-10.727000	25.293035	0.000835	20.824542
1354.397795	-2.986800	3.549400	-10.600000	25.299741	0.000833	20.862094
1355.396761	-3.001800	3.547700	-10.649000	25.336650	0.000833	20.856478
1356.391593	-2.978900	3.548500	-10.569000	25.338017	0.000834	20.849317
1357.396479	-2.990000	3.548100	-10.607000	25.366248	0.000833	20.862016
1358.390465	-3.013000	3.548200	-10.689000	25.372933	0.000830	20.856874
1359.393827	-3.007200	3.546400	-10.662000	25.370120	0.000830	20.849309
1360.392265	-3.011200	3.548100	-10.683000	25.367591	0.000831	20.867157
1361.390508	-3.000900	3.547200	-10.644000	25.363238	0.000831	20.851407
1362.389596	-2.998500	3.546000	-10.631000	25.353864	0.000830	20.861909
1363.394695	-3.021200	3.545300	-10.711000	25.360356	0.000829	20.866056
1364.393298	-3.001200	3.545500	-10.638000	25.344542	0.000828	20.861084
1365.398464	-2.979700	3.546200	-10.565000	25.332712	0.000830	20.867223
1366.396723	-3.014100	3.544400	-10.681000	25.368129	0.000828	20.857740
1367.394344	-3.028300	3.543400	-10.729000	25.385026	0.000828	20.871387
1368.399261	-3.030400	3.544000	-10.739000	25.387436	0.000826	20.855790
1369.401286	-3.014900	3.543400	-10.681000	25.406945	0.000828	20.867318
1370.399040	-3.010500	3.542900	-10.665000	25.381298	0.000827	20.857687
1371.396086	-2.998400	3.544400	-10.627000	25.342075	0.000829	20.874727
1372.399920	-3.003900	3.544300	-10.645000	25.328581	0.000827	20.850748
1373.397289	-3.001900	3.543700	-10.637000	25.355022	0.000826	20.876821
1374.397716	-2.976000	3.543000	-10.544000	25.345155	0.000826	20.865966
1375.398398	-3.004800	3.542300	-10.642000	25.335135	0.000827	20.860173
1376.398388	-2.996300	3.542400	-10.613000	25.323005	0.000825	20.866011
1377.400080	-2.992000	3.542000	-10.596000	25.338416	0.000826	20.869631
1378.407098	-3.017900	3.540700	-10.684000	25.354250	0.000824	20.877942
1379.400456	-3.003900	3.541500	-10.637000	25.360956	0.000825	20.867607
1380.397593	-3.017400	3.541000	-10.683000	25.396766	0.000825	20.866580
1381.404113	-3.009900	3.539700	-10.653000	25.424700	0.000822	20.886093
1382.401258	-3.025000	3.539600	-10.705000	25.426638	0.000821	20.888988
1383.400033	-3.010800	3.539400	-10.656000	25.424326	0.000820	20.885244
1384.398247	-3.004700	3.537900	-10.629000	25.458492	0.000819	20.881620
1385.398456	-2.982500	3.540000	-10.557000	25.427402	0.000820	20.883591
1386.398520	-3.018900	3.536700	-10.676000	25.430830	0.000820	20.899835
1387.401433	-2.990700	3.538600	-10.581000	25.404634	0.000817	20.894393
1388.404941	-2.997200	3.538200	-10.603000	25.386394	0.000818	20.886510
1389.401157	-3.004600	3.537300	-10.627000	25.356024	0.000818	20.884465
1390.403143	-2.997500	3.535900	-10.598000	25.349483	0.000817	20.875527
1391.401100	-2.993700	3.539500	-10.595000	25.367231	0.000815	20.872010
1392.401981	-2.994300	3.538600	-10.595000	25.392303	0.000817	20.885331
1393.400433	-3.000000	3.538700	-10.615000	25.391186	0.000815	20.880417
1394.400584	-3.002800	3.535800	-10.616000	25.384871	0.000814	20.889722
1395.400667	-3.005400	3.536000	-10.626000	25.404383	0.000812	20.876125
1396.400633	-3.001500	3.534600	-10.608000	25.397448	0.000814	20.882437
1397.401397	-2.994100	3.534900	-10.582000	25.417827	0.000814	20.869236
1398.405872	-2.994600	3.534900	-10.585000	25.372470	0.000813	20.877271
1399.402169	-2.987400	3.535200	-10.560000	25.375427	0.000810	20.869809
1400.403524	-3.003400	3.533700	-10.612000	25.385742	0.000813	20.872579
1401.400185	-3.015100	3.533700	-10.653000	25.389343	0.000812	20.860549
1402.404476	-2.985500	3.536200	-10.556000	25.394783	0.000810	20.882132
1403.402067	-3.023800	3.531900	-10.679000	25.379500	0.000809	20.864891
1404.408080	-3.005400	3.534300	-10.620000	25.372988	0.000809	20.878739
1405.404881	-3.007300	3.533900	-10.626000	25.386333	0.000810	20.870803
1406.402921	-3.005400	3.534000	-10.621000	25.382083	0.000808	20.854682
1407.408219	-3.005800	3.531700	-10.614000	25.401665	0.000806	20.872448
1408.404642	-2.986700	3.533000	-10.551000	25.410317	0.000807	20.860273
1409.402036	-3.023300	3.530700	-10.673000	25.410662	0.000808	20.852559
1410.405428	-2.980700	3.532000	-10.527000	25.430071	0.000807	20.857350
1411.403943	-2.998000	3.530900	-10.584000	25.435935	0.000805	20.856600
1412.419877	-2.983500	3.531500	-10.535000	25.413393	0.000805	20.851034
1413.411101	-2.988300	3.530700	-10.549000	25.438595	0.000805	20.867331
1414.405007	-3.001500	3.529600	-10.592000	25.438669	0.000804	20.857923
1415.405637	-3.011500	3.528800	-10.625000	25.451295	0.000804	20.864437
1416.410198	-3.002200	3.528600	-10.592000	25.424701	0.000805	20.840104
1417.410698	-3.000100	3.529200	-10.586000	25.435713	0.000803	20.855903
1418.427371	-3.003100	3.528500	-10.595000	25.437277	0.000804	20.867430
1419.413680	-3.006900	3.528900	-10.610000	25.426466	0.000804	20.844248
1420.424037	-3.012600	3.527500	-10.626000	25.408104	0.000802	20.849516
1421.410649	-3.014200	3.527600	-10.632000	25.431960	0.000799	20.872048
1422.414993	-3.009800	3.528300	-10.618000	25.420159	0.000798	20.867785
1423.415125	-2.994400	3.528400	-10.565000	25.411212	0.000799	20.863542
1424.413140	-3.025400	3.525900	-10.666000	25.431393	0.000798	20.868634
1425.414248	-3.013100	3.525800	-10.622000	25.444343	0.000798	20.866465
1426.419929	-3.004100	3.526400	-10.591000	25.428934	0.000799	20.860949
1427.418113	-3.012300	3.524900	-10.616000	25.372597	0.000798	20.858434
1428.414327	-3.006800	3.525200	-10.598000	25.346896	0.000798	20.838793
1429.456388	-2.991600	3.526500	-10.549000	25.338298	0.000797	20.858607
1430.436376	-3.008800	3.523600	-10.600000	25.315831	0.000798	20.861180
1431.417802	-3.000900	3.523800	-10.574000	25.319289	0.000796	20.848057
1432.425434	-3.002800	3.524100	-10.581000	25.287369	0.000794	20.853940
1433.417296	-3.009500	3.523600	-10.602000	25.327909	0.000796	20.856711
1434.448113	-2.986900	3.524000	-10.525000	25.345360	0.000794	20.841992
1435.417113	-2.987900	3.522000	-10.522000	25.366163	0.000794	20.851499
1436.424933	-3.006000	3.522200	-10.586000	25.363182	0.000794	20.847084
1437.417505	-3.009900	3.521600	-10.598000	25.385002	0.000795	20.849079
1438.416732	-3.001200	3.522000	-10.569000	25.402125	0.000793	20.849203
1439.440251	-2.997200	3.521900	-10.554000	25.418980	0.000793	20.830093
1440.420867	-2.999000	3.521700	-10.561000	25.453823	0.000792	20.825252
1441.421572	-2.985500	3.521000	-10.510000	25.462450	0.000791	20.847665
1442.446219	-3.003600	3.521600	-10.577000	25.497912	0.000791	20.824955
1443.424756	-2.985500	3.520300	-10.509000	25.500051	0.000791	20.832793
1444.424978	-2.990400	3.521500	-10.530000	25.485361	0.000791	20.833688
1445.426325	-3.015200	3.520100	-10.613000	25.501122	0.000791	20.843352
1446.445866	-3.007200	3.518900	-10.582000	25.514388	0.000789	20.849087
1447.426240	-2.981700	3.519900	-10.494000	25.513723	0.000788	20.830876
1448.423680	-3.016600	3.517700	-10.610000	25.496154	0.000788	20.834570
1449.433326	-3.003700	3.520300	-10.573000	25.435470	0.000788	20.838590
1450.426558	-3.031600	3.517400	-10.662000	25.439075	0.000785	20.824192
1451.429790	-3.014700	3.518800	-10.608000	25.451647	0.000787	20.822119
1452.428166	-3.003500	3.516400	-10.559000	25.476155	0.000784	20.844832
1453.427338	-2.992300	3.517800	-10.524000	25.473675	0.000787	20.850402
1454.445422	-3.003500	3.515800	-10.559000	25.477033	0.000786	20.837654
1455.440983	-3.026800	3.515800	-10.640000	25.486477	0.000783	20.816791
1456.451252	-2.990800	3.517600	-10.519000	25.481730	0.000782	20.843793
1457.430498	-3.004400	3.515600	-10.562000	25.449897	0.000783	20.803293
1458.441189	-3.037800	3.513300	-10.671000	25.418934	0.000782	20.814874
1459.437533	-3.002700	3.514500	-10.551000	25.382652	0.000783	20.849090
1460.448508	-3.015000	3.514400	-10.595000	25.383802	0.000782	20.824641
1461.452024	-2.984000	3.517600	-10.494000	25.399561	0.000781	20.812017
1462.428432	-2.992900	3.512900	-10.513000	25.416856	0.000783	20.815632
1463.435052	-2.956200	3.515400	-10.391000	25.432315	0.000780	20.817405
1464.432265	-2.996600	3.515200	-10.532000	25.390220	0.000780	20.807852
1465.452264	-3.013000	3.513200	-10.584000	25.373717	0.000781	20.812144
1466.444619	-2.983900	3.513800	-10.484000	25.388811	0.000780	20.829671
1467.444577	-3.009100	3.512200	-10.568000	25.386869	0.000776	20.830566
1468.435380	-3.003500	3.512500	-10.549000	25.380981	0.000777	20.808058
1469.433340	-3.012600	3.510900	-10.574000	25.421040	0.000778	20.815566
1470.459439	-2.980300	3.512000	-10.466000	25.410081	0.000778	20.836330
1471.462070	-2.984300	3.511100	-10.477000	25.415127	0.000780	20.796827
1472.454074	-3.006200	3.510300	-10.552000	25.381777	0.000777	20.802694
1473.461738	-2.984800	3.512100	-10.482000	25.375840	0.000778	20.810008
1474.454353	-2.993500	3.511800	-10.512000	25.356228	0.000777	20.813550
1475.437964	-2.998800	3.510800	-10.526000	25.363164	0.000776	20.824781
1476.439281	-3.021100	3.508900	-10.600000	25.335003	0.000775	20.804566
1477.441670	-2.993600	3.507900	-10.500000	25.342957	0.000775	20.827725
1478.441347	-2.983900	3.509100	-10.470000	25.348895	0.000776	20.789591
1479.450163	-3.000200	3.510000	-10.530000	25.402830	0.000773	20.806764
1480.444194	-2.990000	3.508200	-10.489000	25.423483	0.000774	20.817545
1481.440264	-2.998000	3.507200	-10.513000	25.430714	0.000773	20.802995
1482.441341	-3.007900	3.507900	-10.550000	25.434463	0.000773	20.791587
1483.470658	-3.021500	3.507600	-10.598000	25.419283	0.000770	20.805267
1484.445166	-2.992300	3.507800	-10.495000	25.457058	0.000771	20.803844
1485.469294	-2.989400	3.506000	-10.480000	25.476790	0.000772	20.806116
1486.466796	-3.021200	3.504100	-10.586000	25.473711	0.000770	20.803972
1487.460901	-2.981500	3.506900	-10.455000	25.475476	0.000770	20.798633
1488.465235	-2.987700	3.505700	-10.473000	25.459595	0.000770	20.804970
1489.465363	-2.996700	3.505800	-10.503000	25.447446	0.000768	20.789451
1490.467544	-2.993500	3.505700	-10.493000	25.484920	0.000770	20.788676
1491.468720	-2.998300	3.505700	-10.510000	25.508158	0.000768	20.810115
1492.473071	-3.003000	3.503300	-10.518000	25.525181	0.000767	20.789752
1493.463377	-2.989700	3.503200	-10.473000	25.513377	0.000768	20.786907
1494.467163	-3.000400	3.503100	-10.510000	25.510720	0.000768	20.786610
1495.465915	-2.993100	3.504200	-10.488000	25.472845	0.000766	20.798835
1496.443239	-3.011200	3.502100	-10.543000	25.446854	0.000767	20.810668
1497.450937	-2.996200	3.503800	-10.497000	25.443430	0.000765	20.794427
1498.447070	-2.997800	3.501700	-10.497000	25.442531	0.000767	20.806800
1499.443362	-3.008100	3.501900	-10.534000	25.448250	0.000766	20.806380
1500.451460	-3.003900	3.502100	-10.519000	25.400407	0.000764	20.804805
1501.466921	-2.982000	3.501000	-10.439000	25.344045	0.000764	20.807955
1502.463944	-2.994300	3.500100	-10.480000	25.307214	0.000765	20.793260
1503.464733	-2.986800	3.501000	-10.456000	25.309699	0.000764	20.803815
1504.451140	-3.004800	3.498900	-10.512000	25.289836	0.000764	20.816114
1505.481441	-2.982300	3.500700	-10.439000	25.295256	0.000763	20.801168
1506.453926	-3.030300	3.499400	-10.603000	25.297794	0.000764	20.780483
1507.460012	-3.001500	3.498500	-10.500000	25.288973	0.000763	20.800550
1508.451680	-2.981700	3.498800	-10.432000	25.300632	0.000763	20.784280
1509.450795	-3.032600	3.496100	-10.601000	25.336374	0.000761	20.801201
1510.453167	-2.998300	3.497100	-10.484000	25.331179	0.000762	20.788873
1511.456309	-3.013700	3.495200	-10.532000	25.380492	0.000761	20.802826
1512.449624	-3.006400	3.498400	-10.516000	25.381715	0.000761	20.785562
1513.455936	-2.994000	3.497900	-10.472000	25.376349	0.000757	20.787286
1514.454108	-2.985200	3.498100	-10.441000	25.399713	0.000757	20.780874
1515.452576	-2.986400	3.496200	-10.440000	25.443425	0.000758	20.802958
1516.454729	-2.994900	3.496700	-10.470000	25.446632	0.000757	20.780099
1517.450244	-3.013100	3.495200	-10.530000	25.444674	0.000757	20.782400
1518.478861	-3.008900	3.496100	-10.519000	25.459414	0.000759	20.780132
1519.471205	-3.020300	3.494800	-10.554000	25.481902	0.000757	20.774739
1520.493611	-3.012100	3.495100	-10.527000	25.490401	0.000757	20.777584
1521.474253	-3.000800	3.494200	-10.483000	25.477008	0.000756	20.776937
1522.478632	-3.005900	3.495300	-10.505000	25.489711	0.000755	20.772624
1523.482790	-3.008100	3.493500	-10.508000	25.476166	0.000755	20.798377
1524.470833	-3.020400	3.492000	-10.547000	25.420551	0.000756	20.792790
1525.472410	-3.008600	3.492400	-10.507000	25.394284	0.000754	20.791545
1526.478451	-2.992700	3.492200	-10.450000	25.397639	0.000754	20.763145
1527.475132	-3.005800	3.493400	-10.498000	25.378804	0.000751	20.792596
1528.471782	-3.018400	3.491600	-10.538000	25.376689	0.000754	20.780041
1529.478573	-2.977400	3.493300	-10.400000	25.323455	0.000753	20.759306
1530.474164	-3.005500	3.490200	-10.488000	25.316499	0.000750	20.778400
1531.468993	-2.998800	3.488900	-10.461000	25.363352	0.000752	20.786090
1532.474496	-3.001700	3.491100	-10.478000	25.385797	0.000752	20.783022
1533.472441	-2.992600	3.490400	-10.443000	25.398895	0.000749	20.768200
1534.481677	-3.004200	3.490200	-10.484000	25.390449	0.000750	20.762089
1535.476995	-3.001700	3.488800	-10.471000	25.354532	0.000747	20.772018
1536.476317	-2.993600	3.488200	-10.439000	25.300800	0.000746	20.755525
1537.474136	-2.998200	3.487600	-10.456000	25.307662	0.000747	20.782804
1538.480298	-3.004100	3.489500	-10.482000	25.339154	0.000747	20.779336
1539.476491	-3.015500	3.487600	-10.517000	25.375568	0.000748	20.773226
1540.475632	-3.004600	3.488300	-10.481000	25.388146	0.000745	20.778268
1541.484004	-3.003000	3.487200	-10.471000	25.414018	0.000745	20.772480
1542.470798	-2.987300	3.488100	-10.419000	25.406541	0.000745	20.772558
1543.476203	-3.011500	3.486400	-10.499000	25.396456	0.000744	20.781872
1544.487300	-2.985000	3.487300	-10.408000	25.411961	0.000744	20.759982
1545.459661	-3.000300	3.486900	-10.460000	25.422354	0.000741	20.774685
1546.461612	-3.015200	3.486000	-10.509000	25.425589	0.000742	20.769400
1547.461307	-3.022100	3.485100	-10.531000	25.433641	0.000741	20.764209
1548.457829	-2.995400	3.485800	-10.441000	25.446940	0.000742	20.759071
1549.463677	-3.004500	3.484900	-10.470000	25.469461	0.000741	20.735218
1550.458902	-3.001300	3.485900	-10.460000	25.463426	0.000741	20.752392
1551.473534	-3.007800	3.484000	-10.478000	25.514444	0.000740	20.742933
1552.458134	-3.005400	3.484000	-10.470000	25.541804	0.000739	20.752866
1553.483166	-2.995200	3.483200	-10.431000	25.547527	0.000740	20.756243
1554.498124	-3.003800	3.482500	-10.460000	25.500386	0.000738	20.771016
1555.478928	-3.023700	3.481100	-10.525000	25.474220	0.000738	20.752800
1556.462377	-2.995800	3.482100	-10.430000	25.446965	0.000738	20.747716
1557.458526	-2.988900	3.480900	-10.403000	25.451264	0.000737	20.756775
1558.486631	-3.002100	3.480300	-10.446000	25.432003	0.000736	20.748813
1559.494190	-3.011000	3.479500	-10.475000	25.438421	0.000736	20.779914
1560.476564	-3.031300	3.480200	-10.549000	25.459222	0.000736	20.742954
1561.495570	-3.016200	3.479800	-10.494000	25.464198	0.000734	20.751270
1562.471753	-2.991400	3.479600	-10.407000	25.486464	0.000733	20.759880
1563.462029	-3.013300	3.479200	-10.483000	25.477394	0.000736	20.749823
1564.464413	-3.033200	3.479200	-10.551000	25.489970	0.000733	20.765298
1565.478085	-3.017400	3.477000	-10.488000	25.513328	0.000734	20.751295
1566.487738	-2.976100	3.480100	-10.356000	25.524339	0.000732	20.739119
1567.479585	-3.017700	3.477700	-10.493000	25.510573	0.000731	20.741416
1568.495274	-2.981500	3.477700	-10.368000	25.522397	0.000732	20.751394
1569.497454	-2.985500	3.477000	-10.379000	25.559996	0.000731	20.746953
1570.500113	-2.995900	3.477100	-10.416000	25.562907	0.000729	20.755093
1571.497232	-3.010700	3.477300	-10.468000	25.544518	0.000730	20.743263
1572.493022	-3.010100	3.476300	-10.463000	25.525082	0.000729	20.732753
1573.482222	-2.993900	3.475900	-10.405000	25.474339	0.000731	20.737746
1574.498407	-2.983200	3.476300	-10.369000	25.493924	0.000729	20.756940
1575.495099	-2.984100	3.475500	-10.370000	25.508183	0.000727	20.731903
1576.468929	-3.007000	3.474100	-10.445000	25.514748	0.000729	20.760309
1577.469584	-3.004800	3.475300	-10.442000	25.529061	0.000729	20.738171
1578.470297	-3.018600	3.473600	-10.484000	25.546107	0.000728	20.732056
1579.466363	-2.979100	3.476200	-10.354000	25.570958	0.000727	20.742789
1580.466012	-2.979600	3.474400	-10.351000	25.574784	0.000726	20.736674
1581.469089	-3.002900	3.473300	-10.429000	25.572994	0.000726	20.743886
1582.467128	-2.985100	3.473200	-10.366000	25.601297	0.000726	20.718730
1583.470726	-2.977800	3.473700	-10.343000	25.587852	0.000724	20.734151
1584.483589	-2.990600	3.472600	-10.383000	25.595131	0.000726	20.736245
1585.493409	-2.998900	3.471900	-10.410000	25.569985	0.000724	20.740389
1586.490777	-2.991700	3.472200	-10.387000	25.557135	0.000724	20.718000
1587.496256	-2.988600	3.472000	-10.376000	25.525427	0.000724	20.725512
1588.493660	-2.981200	3.470400	-10.345000	25.508676	0.000724	20.736666
1589.493190	-3.015700	3.470300	-10.463000	25.511115	0.000722	20.722519
1590.491714	-3.000700	3.468700	-10.408000	25.490709	0.000724	20.735219
1591.496236	-2.981100	3.471500	-10.348000	25.475222	0.000723	20.718243
1592.487553	-3.002300	3.468900	-10.413000	25.450895	0.000722	20.716573
1593.486239	-3.004300	3.469000	-10.421000	25.485909	0.000722	20.734192
1594.505211	-2.998000	3.467900	-10.394000	25.460162	0.000721	20.726353
1595.487662	-2.992500	3.468300	-10.378000	25.479517	0.000721	20.734410
1596.497313	-2.993800	3.468700	-10.383000	25.444625	0.000723	20.727347
1597.490838	-2.998000	3.467300	-10.394000	25.451359	0.000720	20.724151
1598.488793	-2.986500	3.468500	-10.358000	25.465746	0.000720	20.730064
1599.474047	-2.996600	3.466300	-10.384000	25.500982	0.000717	20.729413
1600.475432	-3.006800	3.465200	-10.417000	25.534521	0.000719	20.729429
1601.482249	-3.000300	3.467100	-10.401000	25.523464	0.000718	20.724963
1602.477587	-3.010700	3.466300	-10.435000	25.539739	0.000718	20.725660
1603.472297	-3.022800	3.464500	-10.470000	25.520783	0.000716	20.735548
1604.478902	-3.001500	3.464600	-10.397000	25.495081	0.000714	20.743403
1605.480883	-2.990100	3.464100	-10.357000	25.491579	0.000718	20.719022
1606.481691	-2.983100	3.465400	-10.337000	25.442268	0.000716	20.734464
1607.478032	-2.992000	3.463300	-10.361000	25.409613	0.000717	20.752408
1608.482359	-2.979800	3.464100	-10.322000	25.396736	0.000714	20.727623
1609.476347	-3.011500	3.462500	-10.426000	25.402353	0.000713	20.732315
1610.492221	-2.990200	3.462500	-10.352000	25.408015	0.000713	20.715715
1611.475901	-2.998100	3.462400	-10.379000	25.390293	0.000712	20.739172
1612.475457	-3.006600	3.461700	-10.406000	25.357657	0.000714	20.739119
1613.475832	-3.024500	3.461200	-10.467000	25.373836	0.000713	20.716956
1614.477536	-3.011900	3.462100	-10.427000	25.376969	0.000712	20.722947
1615.475111	-3.003900	3.460900	-10.395000	25.404800	0.000712	20.730505
1616.479014	-3.004600	3.461300	-10.399000	25.415484	0.000712	20.733173
1617.482326	-3.000600	3.460800	-10.384000	25.452463	0.000710	20.737115
1618.478003	-2.994700	3.460800	-10.364000	25.489243	0.000712	20.713830
1619.477555	-3.010500	3.458900	-10.412000	25.484743	0.000709	20.721166
1620.480164	-3.001000	3.459900	-10.382000	25.436055	0.000709	20.720164
1621.479266	-2.976200	3.460100	-10.297000	25.429597	0.000709	20.721265
1622.478261	-3.002000	3.457800	-10.380000	25.389731	0.000709	20.755203
1623.485626	-3.008300	3.458500	-10.403000	25.411801	0.000709	20.722836
1624.477180	-2.996900	3.457800	-10.362000	25.404365	0.000707	20.728171
1625.483748	-3.004400	3.458100	-10.389000	25.440178	0.000707	20.714820
1626.484446	-2.995500	3.457000	-10.355000	25.436971	0.000708	20.731515
1627.495071	-2.996500	3.458300	-10.361000	25.470171	0.000706	20.725025
1628.484232	-3.008600	3.455900	-10.396000	25.460305	0.000704	20.723178
1629.480394	-3.015000	3.455400	-10.417000	25.438860	0.000707	20.729618
1630.483999	-3.026000	3.454000	-10.451000	25.400386	0.000704	20.754049
1631.495738	-2.991700	3.454700	-10.335000	25.422156	0.000706	20.712845
1632.480073	-2.989700	3.455100	-10.327000	25.420588	0.000704	20.731659
1633.483439	-3.004900	3.454100	-10.378000	25.443725	0.000704	20.733082
1634.512519	-2.995100	3.454400	-10.345000	25.461019	0.000705	20.728637
1635.500194	-3.004900	3.453200	-10.376000	25.482690	0.000704	20.748977
1636.497694	-3.020800	3.453200	-10.430000	25.466837	0.000701	20.727367
1637.503436	-2.991200	3.454200	-10.331000	25.460945	0.000703	20.715286
1638.513402	-3.016700	3.452400	-10.413000	25.459730	0.000702	20.736352
1639.489562	-2.996700	3.452400	-10.344000	25.483183	0.000703	20.718176
1640.483677	-2.985000	3.452200	-10.304000	25.484919	0.000700	20.715179
1641.491920	-2.984800	3.451700	-10.301000	25.471403	0.000699	20.736220
1642.488658	-2.983500	3.451800	-10.297000	25.511902	0.000701	20.734690
1643.485590	-3.002100	3.451900	-10.362000	25.547363	0.000701	20.741378
1644.482325	-3.011300	3.451000	-10.391000	25.552109	0.000699	20.752309
1645.485590	-3.017600	3.448500	-10.403000	25.550836	0.000698	20.732064
1646.485165	-3.006100	3.450100	-10.371000	25.527254	0.000699	20.706008
1647.491069	-3.011000	3.448700	-10.383000	25.553714	0.000700	20.743963
1648.493469	-2.983100	3.449800	-10.290000	25.543426	0.000696	20.732208
1649.490479	-2.996900	3.448300	-10.333000	25.520882	0.000700	20.739914
1650.493914	-2.993700	3.448500	-10.323000	25.550003	0.000697	20.743555
1651.486184	-3.028300	3.446800	-10.437000	25.530271	0.000696	20.732748
1652.494936	-3.000500	3.448700	-10.346000	25.518636	0.000695	20.729598
1653.488700	-2.985600	3.447800	-10.292000	25.498378	0.000695	20.756671
1654.486806	-3.017800	3.445800	-10.398000	25.473403	0.000696	20.725899
1655.485588	-3.021400	3.445200	-10.409000	25.481376	0.000694	20.744813
1656.491564	-2.993400	3.448000	-10.319000	25.470508	0.000694	20.745279
1657.494417	-2.977900	3.446400	-10.262000	25.488652	0.000693	20.754016
1658.491935	-2.995600	3.445300	-10.319000	25.471703	0.000693	20.735099
1659.491549	-2.999200	3.444800	-10.330000	25.477759	0.000693	20.752087
1660.497599	-3.010700	3.443900	-10.367000	25.497865	0.000693	20.745250
1661.496294	-3.025000	3.445300	-10.421000	25.515606	0.000691	20.756428
1662.508927	-3.012100	3.443500	-10.371000	25.514908	0.000692	20.754779
1663.511311	-2.976300	3.444400	-10.251000	25.520201	0.000691	20.749662
1664.511583	-3.018200	3.443400	-10.392000	25.560230	0.000691	20.759991
1665.512286	-3.000200	3.444500	-10.333000	25.551280	0.000691	20.753847
1666.518737	-3.008400	3.442800	-10.356000	25.543677	0.000690	20.738624
1667.521432	-2.989300	3.442300	-10.289000	25.550406	0.000691	20.748228
1668.514681	-2.975200	3.443600	-10.244000	25.525382	0.000691	20.748228
1669.524769	-2.999300	3.442900	-10.325000	25.507067	0.000688	20.753542
1670.519437	-2.989800	3.441900	-10.289000	25.504131	0.000688	20.732576
1671.507923	-3.007100	3.441800	-10.349000	25.524754	0.000687	20.750916
1672.514784	-2.993500	3.441200	-10.299000	25.545401	0.000689	20.759323
1673.528574	-3.011600	3.440700	-10.361000	25.556363	0.000686	20.734769
1674.520401	-2.990900	3.440100	-10.288000	25.553949	0.000687	20.743251
1675.521419	-2.988800	3.439900	-10.281000	25.516469	0.000685	20.766304
1676.520057	-3.005900	3.439800	-10.338000	25.528470	0.000687	20.756070
1677.527013	-3.003900	3.439000	-10.330000	25.543308	0.000687	20.741573
1678.493467	-2.974200	3.439500	-10.229000	25.522800	0.000685	20.739945
1679.494288	-2.975900	3.438900	-10.232000	25.532370	0.000686	20.745288
1680.495582	-2.968600	3.438400	-10.206000	25.566586	0.000685	20.751675
1681.502723	-3.007700	3.436300	-10.333000	25.539522	0.000684	20.755790
1682.498551	-2.985300	3.437800	-10.262000	25.558753	0.000685	20.772258
1683.497160	-3.003100	3.438100	-10.323000	25.558084	0.000685	20.752145
1684.497027	-3.005000	3.436500	-10.326000	25.565437	0.000685	20.745305
1685.497983	-2.993700	3.437700	-10.291000	25.563996	0.000681	20.758557
1686.517395	-3.000100	3.435400	-10.306000	25.581239	0.000683	20.769236
1687.516837	-3.007400	3.436000	-10.331000	25.573804	0.000682	20.766037
1688.515975	-3.022100	3.434900	-10.380000	25.569752	0.000682	20.753432
1689.516363	-2.992400	3.435800	-10.279000	25.554993	0.000683	20.775120
1690.519654	-2.994400	3.434100	-10.282000	25.539855	0.000680	20.740477
1691.523928	-3.022500	3.433600	-10.375000	25.519003	0.000679	20.770271
1692.498533	-3.012300	3.434200	-10.344000	25.537138	0.000679	20.767620
1693.520529	-2.990600	3.433900	-10.268000	25.555231	0.000680	20.730787
1694.502546	-2.997700	3.433200	-10.291000	25.547426	0.000678	20.781746
1695.501104	-2.996000	3.432700	-10.284000	25.549065	0.000678	20.776753
1696.528813	-3.029400	3.431500	-10.394000	25.567601	0.000679	20.765497
1697.521391	-2.984300	3.433800	-10.246000	25.584598	0.000676	20.771661
1698.524370	-3.014400	3.431300	-10.341000	25.594159	0.000676	20.776997
1699.535219	-3.010100	3.430300	-10.325000	25.602650	0.000676	20.761341
1700.522158	-2.990900	3.432500	-10.265000	25.601808	0.000675	20.761919
1701.522006	-3.015900	3.429400	-10.341000	25.588412	0.000675	20.784501
1702.503449	-3.021800	3.429400	-10.361000	25.567462	0.000675	20.761090
1703.518643	-2.968000	3.431600	-10.184000	25.572676	0.000674	20.781026
1704.521838	-3.034000	3.427800	-10.398000	25.533587	0.000676	20.775435
1705.521666	-3.008900	3.428100	-10.312000	25.537533	0.000675	20.778923
1706.518322	-3.012700	3.428400	-10.327000	25.523143	0.000675	20.780593
1707.530677	-2.988200	3.429000	-10.244000	25.520212	0.000672	20.769588
1708.527615	-3.026500	3.427200	-10.372000	25.507188	0.000674	20.777847
1709.534125	-2.981500	3.428500	-10.221000	25.543216	0.000672	20.778940
1710.533720	-2.985200	3.427900	-10.232000	25.565755	0.000673	20.775023
1711.529037	-2.991200	3.428100	-10.252000	25.574401	0.000672	20.779439
1712.518795	-3.029700	3.426200	-10.379000	25.572459	0.000672	20.780808
1713.526530	-2.980500	3.428100	-10.217000	25.555459	0.000672	20.794080
1714.524947	-2.993400	3.426100	-10.255000	25.585080	0.000671	20.775939
1715.527332	-3.006500	3.426500	-10.300000	25.577821	0.000671	20.773865
1716.528379	-3.011200	3.425200	-10.313000	25.578692	0.000670	20.778532
1717.525790	-3.001700	3.424500	-10.278000	25.597597	0.000670	20.771915
1718.530933	-2.989900	3.425800	-10.242000	25.620481	0.000667	20.797742
1719.532433	-3.012500	3.423400	-10.312000	25.643687	0.000669	20.774108
1720.526635	-2.997500	3.424400	-10.263000	25.651812	0.000666	20.787484
1721.532622	-3.006500	3.423600	-10.292000	25.653302	0.000668	20.772385
1722.536505	-3.004000	3.423700	-10.283000	25.655186	0.000669	20.790399
1723.544905	-2.997100	3.423700	-10.260000	25.675014	0.000666	20.806994
1724.537479	-2.991100	3.423100	-10.238000	25.655162	0.000665	20.793219
1725.529512	-3.001200	3.422200	-10.270000	25.670047	0.000666	20.790626
1726.529952	-3.020700	3.420700	-10.331000	25.633072	0.000665	20.795215
1727.529915	-3.005100	3.420300	-10.277000	25.612898	0.000665	20.794868
1728.534395	-2.989600	3.421500	-10.228000	25.615280	0.000664	20.784932
1729.516965	-2.996800	3.422300	-10.256000	25.621244	0.000664	20.789974
1730.516832	-2.992600	3.421000	-10.237000	25.614364	0.000662	20.787331
1731.527118	-2.976300	3.421500	-10.182000	25.619011	0.000662	20.772558
1732.512503	-2.990200	3.420900	-10.228000	25.601966	0.000661	20.796217
1733.530793	-3.018600	3.418400	-10.317000	25.603037	0.000660	20.789706
1734.540547	-2.979600	3.419600	-10.188000	25.610989	0.000660	20.782994
1735.535307	-2.990400	3.420000	-10.225000	25.643536	0.000661	20.788655
1736.516096	-2.984400	3.420600	-10.207000	25.662994	0.000657	20.791129
1737.520151	-2.972300	3.419400	-10.163000	25.670375	0.000659	20.788110
1738.534690	-3.030900	3.417400	-10.357000	25.667395	0.000658	20.802187
1739.512253	-2.990300	3.417400	-10.219000	25.686976	0.000659	20.782973
1740.514363	-2.995200	3.417200	-10.234000	25.664291	0.000658	20.775836
1741.515210	-3.001900	3.416800	-10.256000	25.663150	0.000657	20.794604
1742.512968	-3.000700	3.415700	-10.249000	25.656146	0.000657	20.786147
1743.512194	-3.001400	3.416000	-10.252000	25.640522	0.000656	20.779464
1744.513003	-2.983600	3.416700	-10.193000	25.629885	0.000656	20.787747
1745.514277	-2.998500	3.415700	-10.241000	25.625759	0.000654	20.794983
1746.512035	-2.995600	3.415600	-10.230000	25.626806	0.000655	20.795086
1747.514062	-2.999800	3.416000	-10.246000	25.659180	0.000654	20.786823
1748.522277	-2.988200	3.416500	-10.208000	25.648399	0.000655	20.807764
1749.514556	-3.018500	3.414300	-10.304000	25.672702	0.000652	20.806569
1750.513089	-3.001800	3.414200	-10.248000	25.675189	0.000654	20.810015
1751.515180	-3.000600	3.413700	-10.242000	25.661376	0.000654	20.781917
1752.517871	-2.961900	3.414400	-10.111000	25.628276	0.000652	20.792295
1753.521502	-3.001500	3.413600	-10.245000	25.630812	0.000652	20.799584
1754.542213	-3.003500	3.413400	-10.250000	25.645924	0.000651	20.801010
1755.534221	-3.001600	3.412200	-10.242000	25.649179	0.000649	20.778676
1756.532194	-2.988000	3.412600	-10.196000	25.641625	0.000650	20.809496
1757.538999	-2.998600	3.412000	-10.230000	25.614346	0.000651	20.797745
1758.554443	-2.984600	3.412600	-10.184000	25.586766	0.000650	20.785693
1759.537921	-2.988600	3.412600	-10.196000	25.521361	0.000648	20.783071
1760.536257	-2.983300	3.411800	-10.177000	25.508292	0.000646	20.801715
1761.538071	-2.985500	3.410300	-10.181000	25.484586	0.000648	20.799720
1762.541675	-2.979900	3.411200	-10.164000	25.512073	0.000646	20.796504
1763.539028	-3.000200	3.409900	-10.229000	25.548700	0.000648	20.817638
1764.556710	-2.988400	3.409500	-10.188000	25.598376	0.000645	20.815845
1765.522585	-3.003500	3.409300	-10.239000	25.616439	0.000647	20.815968
1766.539781	-3.003800	3.407300	-10.233000	25.609534	0.000648	20.802869
1767.541937	-2.996500	3.408900	-10.214000	25.612219	0.000646	20.802721
1768.539843	-3.009200	3.408500	-10.256000	25.619949	0.000644	20.801950
1769.540108	-2.988000	3.408500	-10.184000	25.613758	0.000645	20.805690
1770.531825	-2.992800	3.405900	-10.192000	25.655357	0.000645	20.793889
1771.524373	-2.991600	3.407600	-10.193000	25.681740	0.000647	20.780085
1772.553646	-3.024000	3.405600	-10.297000	25.694634	0.000645	20.802993
1773.552566	-2.990900	3.406800	-10.188000	25.677023	0.000644	20.838409
1774.549512	-3.005000	3.405200	-10.231000	25.635877	0.000646	20.810361
1775.549428	-2.998800	3.406700	-10.215000	25.604694	0.000641	20.804172
1776.545818	-2.983300	3.406500	-10.162000	25.567150	0.000643	20.797287
1777.552305	-2.995600	3.405500	-10.200000	25.592098	0.000643	20.819497
1778.562134	-3.001900	3.405100	-10.220000	25.581092	0.000642	20.810340
1779.545344	-3.027800	3.405000	-10.309000	25.594906	0.000641	20.814257
1780.531289	-2.989000	3.404700	-10.176000	25.613372	0.000641	20.810043
1781.550408	-3.012800	3.403500	-10.253000	25.608897	0.000640	20.818825
1782.528589	-2.990400	3.404400	-10.179000	25.601126	0.000641	20.805330
1783.530280	-2.997600	3.403600	-10.202000	25.604849	0.000640	20.806699
1784.528503	-3.020900	3.401400	-10.274000	25.606541	0.000641	20.819303
1785.529536	-2.990200	3.402300	-10.173000	25.578238	0.000640	20.816009
1786.525084	-3.013500	3.402100	-10.251000	25.568151	0.000640	20.840017
1787.528965	-2.997500	3.401200	-10.193000	25.582988	0.000638	20.809874
1788.525373	-2.978200	3.402200	-10.132000	25.606446	0.000638	20.799294
1789.527526	-3.010900	3.401500	-10.240000	25.622445	0.000636	20.821051
1790.530480	-2.994400	3.400600	-10.181000	25.643841	0.000637	20.811721
1791.530630	-2.996800	3.402400	-10.196000	25.650377	0.000636	20.813543
1792.530206	-2.979400	3.400600	-10.131000	25.683152	0.000635	20.808530
1793.531248	-2.995700	3.399700	-10.184000	25.695151	0.000637	20.809676
1794.528189	-3.020600	3.399600	-10.267000	25.707277	0.000636	20.810476
1795.558381	-2.988600	3.401000	-10.164000	25.716866	0.000634	20.830064
1796.553084	-2.983800	3.399400	-10.142000	25.715729	0.000634	20.819439
1797.548290	-2.984600	3.400100	-10.147000	25.706833	0.000634	20.821410
1798.554756	-2.999400	3.399100	-10.195000	25.689490	0.000634	20.826749
1799.563410	-2.997900	3.399500	-10.190000	25.670877	0.000633	20.824651
1800.529081	-3.032200	3.397100	-10.299000	25.668496	0.000634	20.816569
1801.535150	-2.990200	3.397900	-10.159000	25.656965	0.000633	20.822057
1802.529972	-2.979500	3.397900	-10.123000	25.664917	0.000630	20.831940
1803.534576	-2.981100	3.397300	-10.126000	25.669162	0.000631	20.845686
1804.534502	-2.999200	3.396400	-10.185000	25.691748	0.000631	20.840870
1805.539285	-3.015900	3.396800	-10.243000	25.737788	0.000630	20.830691
1806.534957	-2.985400	3.396800	-10.140000	25.733565	0.000630	20.816017
1807.533641	-2.994700	3.395500	-10.167000	25.713286	0.000627	20.829314
1808.549381	-2.981200	3.396500	-10.125000	25.719050	0.000629	20.830361
1809.549024	-3.006100	3.393900	-10.202000	25.712790	0.000629	20.834505
1810.560410	-3.016100	3.394700	-10.238000	25.709830	0.000630	20.834377
1811.533848	-3.004100	3.394400	-10.196000	25.703837	0.000628	20.849694
1812.543155	-3.003700	3.393800	-10.192000	25.709703	0.000627	20.829034
1813.532237	-2.997500	3.395100	-10.176000	25.727765	0.000627	20.840537
1814.535404	-2.992100	3.394300	-10.155000	25.741032	0.000627	20.867137
1815.543393	-2.997400	3.393100	-10.170000	25.751561	0.000628	20.833144
1816.534462	-2.991600	3.392600	-10.149000	25.782789	0.000626	20.824210
1817.533261	-3.010500	3.392600	-10.210000	25.775364	0.000626	20.846622
1818.539151	-3.005300	3.391900	-10.193000	25.815437	0.000625	20.824762
1819.537320	-3.009200	3.392600	-10.208000	25.813820	0.000624	20.840207
1820.541141	-2.997900	3.392700	-10.170000	25.791775	0.000623	20.839873
1821.534890	-2.970700	3.391600	-10.075000	25.808148	0.000624	20.845415
1822.543978	-3.007600	3.389700	-10.192000	25.818114	0.000623	20.838356
1823.559441	-3.008700	3.390600	-10.200000	25.804220	0.000623	20.831512
1824.552210	-2.995200	3.390900	-10.155000	25.787777	0.000622	20.849133
1825.560452	-3.001300	3.388800	-10.171000	25.771654	0.000621	20.840525
1826.555821	-3.002800	3.391000	-10.181000	25.758584	0.000620	20.833561
1827.561040	-2.993400	3.390300	-10.148000	25.755304	0.000620	20.835957
1828.542014	-3.004200	3.389500	-10.182000	25.766683	0.000622	20.840273
1829.541395	-3.001100	3.389000	-10.169000	25.791652	0.000621	20.823629
1830.536266	-2.999200	3.388500	-10.162000	25.797788	0.000619	20.852551
1831.544409	-3.004800	3.388900	-10.183000	25.779153	0.000619	20.841894
1832.548289	-3.025600	3.387100	-10.247000	25.749668	0.000619	20.839778
1833.547393	-3.029500	3.386800	-10.259000	25.722137	0.000616	20.821609
1834.560280	-3.005300	3.385900	-10.175000	25.702339	0.000618	20.846767
1835.558504	-2.994400	3.387300	-10.143000	25.674585	0.000616	20.874839
1836.560909	-2.997500	3.387300	-10.152000	25.692721	0.000617	20.856546
1837.558628	-3.039000	3.384900	-10.286000	25.758539	0.000616	20.865282
1838.572405	-2.987600	3.386000	-10.115000	25.746815	0.000615	20.856826
1839.570558	-3.021800	3.384800	-10.227000	25.760579	0.000614	20.844573
1840.564069	-2.995000	3.385000	-10.136000	25.733549	0.000615	20.862466
1841.551312	-2.984500	3.385700	-10.103000	25.749627	0.000613	20.864866
1842.550637	-2.998200	3.384800	-10.148000	25.747936	0.000613	20.848469
1843.553649	-3.002500	3.383200	-10.157000	25.766596	0.000614	20.851091
1844.552224	-3.019800	3.384700	-10.220000	25.774399	0.000613	20.884531
1845.553049	-2.998600	3.383900	-10.145000	25.828682	0.000613	20.865567
1846.552207	-3.005600	3.383100	-10.168000	25.795641	0.000610	20.854188
1847.567618	-2.999000	3.384200	-10.147000	25.832089	0.000611	20.853342
1848.549349	-3.002800	3.383500	-10.159000	25.846922	0.000609	20.853544
1849.553452	-3.017100	3.382600	-10.204000	25.826129	0.000610	20.858735
1850.550764	-3.005600	3.380700	-10.160000	25.825308	0.000611	20.863600
1851.572790	-3.005200	3.381900	-10.162000	25.834203	0.000610	20.875853
1852.550162	-3.011000	3.380800	-10.178000	25.827176	0.000606	20.873062
1853.555511	-3.020500	3.381200	-10.212000	25.822209	0.000608	20.861909
1854.553262	-3.014100	3.380600	-10.189000	25.840569	0.000606	20.874187
1855.549327	-3.001300	3.381500	-10.148000	25.845564	0.000608	20.860714
1856.551974	-3.009200	3.380200	-10.171000	25.868466	0.000604	20.862857
1857.551356	-3.002000	3.380100	-10.146000	25.874709	0.000607	20.861542
1858.552291	-3.014700	3.380100	-10.189000	25.887822	0.000604	20.861913
1859.556597	-3.000900	3.380000	-10.142000	25.889936	0.000605	20.848864
1860.554154	-2.990000	3.379000	-10.102000	25.924915	0.000605	20.861719
1861.550121	-3.023500	3.378800	-10.215000	25.919428	0.000604	20.857155
1862.573932	-3.000300	3.377900	-10.133000	25.913764	0.000604	20.828707
1863.578854	-2.986100	3.379300	-10.090000	25.886808	0.000603	20.857102
1864.569754	-3.018800	3.376900	-10.193000	25.855139	0.000603	20.858479
1865.582299	-2.997400	3.377400	-10.122000	25.813429	0.000603	20.845030
1866.570697	-3.014700	3.377100	-10.180000	25.760483	0.000601	20.880511
1867.579296	-2.957500	3.378800	-9.991400	25.737903	0.000603	20.837444
1868.575858	-2.989700	3.375900	-10.093000	25.700860	0.000603	20.851919
1869.557297	-2.975500	3.377900	-10.050000	25.741856	0.000601	20.829560
1870.555830	-3.005100	3.374800	-10.141000	25.767318	0.000602	20.844704
1871.555365	-2.993800	3.375200	-10.104000	25.784787	0.000601	20.855139
1872.553998	-2.995200	3.374700	-10.107000	25.809731	0.000601	20.859806
1873.558893	-2.996900	3.374800	-10.112000	25.820813	0.000600	20.850550
1874.562633	-2.996800	3.373500	-10.109000	25.798825	0.000600	20.833679
1875.554722	-3.020500	3.373000	-10.188000	25.780962	0.000600	20.854615
1876.562036	-3.003400	3.374700	-10.134000	25.785711	0.000599	20.849429
1877.559521	-2.990800	3.373600	-10.088000	25.812592	0.000599	20.860783
1878.561762	-2.985900	3.373400	-10.071000	25.804218	0.000598	20.843364
1879.563068	-2.989200	3.373100	-10.082000	25.794158	0.000597	20.837526
1880.564724	-3.002900	3.372700	-10.126000	25.807149	0.000598	20.854842
1881.561859	-2.996500	3.372700	-10.106000	25.819914	0.000597	20.829734
1882.577279	-2.989600	3.373900	-10.085000	25.826900	0.000596	20.825371
1883.560601	-3.008200	3.372100	-10.143000	25.826728	0.000596	20.838948
1884.559876	-3.005300	3.371600	-10.132000	25.828439	0.000597	20.843038
1885.574292	-2.996500	3.371500	-10.101000	25.858824	0.000595	20.829465
1886.580955	-3.007000	3.371500	-10.138000	25.856292	0.000596	20.848732
1887.559023	-2.987400	3.372000	-10.072000	25.881328	0.000593	20.831684
1888.559953	-2.990800	3.370900	-10.080000	25.923860	0.000594	20.832685
1889.558622	-3.000200	3.370600	-10.112000	25.925428	0.000592	20.832364
1890.556394	-3.003900	3.370800	-10.125000	25.904956	0.000592	20.823178
1891.560610	-2.995700	3.369400	-10.093000	25.879297	0.000592	20.822531
1892.580647	-2.993800	3.369200	-10.086000	25.866824	0.000591	20.839398
1893.576225	-2.987600	3.370400	-10.068000	25.859276	0.000593	20.843669
1894.587000	-2.997100	3.368300	-10.095000	25.852717	0.000590	20.830443
1895.575151	-2.987200	3.368000	-10.060000	25.806238	0.000592	20.830220
1896.586650	-3.010900	3.367700	-10.139000	25.819302	0.000590	20.822007
1897.578121	-3.014400	3.367500	-10.150000	25.846831	0.000588	20.822159
1898.581937	-2.985500	3.367700	-10.053000	25.876592	0.000591	20.839727
1899.562759	-2.983100	3.368100	-10.045000	25.914696	0.000589	20.836755
1900.568853	-2.983600	3.367900	-10.047000	25.893407	0.000586	20.828645
1901.561895	-3.018600	3.365700	-10.159000	25.893879	0.000588	20.808731
1902.560340	-3.014000	3.367700	-10.149000	25.875320	0.000586	20.822329
1903.583581	-2.975800	3.365500	-10.014000	25.893752	0.000587	20.818560
1904.578654	-3.007700	3.364700	-10.119000	25.880565	0.000585	20.820960
1905.560874	-2.984300	3.367000	-10.047000	25.928309	0.000584	20.833836
1906.578557	-3.016200	3.364800	-10.149000	25.910497	0.000584	20.818787
1907.580399	-2.995100	3.366500	-10.082000	25.943437	0.000585	20.803515
1908.588033	-3.010200	3.365100	-10.129000	25.962939	0.000586	20.795607
1909.560866	-2.993200	3.364800	-10.071000	25.956602	0.000584	20.808207
1910.560244	-3.005400	3.363700	-10.109000	25.952876	0.000582	20.823904
1911.581967	-2.994100	3.364800	-10.073000	25.951460	0.000581	20.802093
1912.597468	-2.992100	3.363300	-10.062000	25.926327	0.000581	20.814775
1913.586307	-3.020700	3.362300	-10.156000	25.904439	0.000580	20.818865
1914.581777	-2.979500	3.363500	-10.020000	25.905010	0.000581	20.798102
1915.587775	-2.995700	3.362900	-10.074000	25.948337	0.000579	20.805593
1916.586065	-3.003700	3.361800	-10.097000	25.949605	0.000580	20.813979
1917.582654	-2.990500	3.363900	-10.058000	25.952215	0.000579	20.819446
1918.600634	-3.018600	3.361700	-10.147000	25.986721	0.000580	20.827086
1919.580892	-2.969000	3.361900	-9.980200	25.961359	0.000578	20.818201
1920.581886	-2.996500	3.361100	-10.071000	25.977557	0.000580	20.805077
1921.585121	-2.999900	3.359800	-10.078000	25.968097	0.000578	20.804108
1922.578629	-3.021200	3.361200	-10.154000	25.999344	0.000577	20.802311
1923.588517	-3.002900	3.358500	-10.084000	25.980467	0.000578	20.793302
1924.593083	-3.019200	3.359200	-10.141000	25.965889	0.000578	20.809002
1925.589126	-3.010300	3.359000	-10.111000	25.966858	0.000578	20.794803
1926.599503	-2.993500	3.360000	-10.057000	25.967408	0.000575	20.812899
1927.592651	-2.990600	3.359500	-10.046000	25.933874	0.000577	20.811451
1928.583297	-2.985000	3.359900	-10.027000	25.902579	0.000574	20.796134
1929.595570	-2.995700	3.357000	-10.056000	25.875052	0.000576	20.795033
1930.585215	-2.996500	3.358100	-10.060000	25.904242	0.000574	20.793537
1931.594314	-3.002900	3.356500	-10.078000	25.930299	0.000574	20.801696
1932.596286	-2.990800	3.356000	-10.036000	25.955465	0.000571	20.791417
1933.594137	-2.989200	3.357000	-10.034000	25.951915	0.000572	20.781687
1934.592462	-2.980900	3.357800	-10.008000	25.965729	0.000572	20.790350
1935.594819	-3.015700	3.355100	-10.116000	25.971068	0.000571	20.785282
1936.594177	-2.984800	3.355900	-10.016000	25.935995	0.000571	20.779918
1937.591101	-2.987800	3.357000	-10.029000	25.919427	0.000568	20.801206
1938.590713	-2.976400	3.356500	-9.989800	25.884303	0.000569	20.789628
1939.596524	-3.016900	3.353800	-10.118000	25.865469	0.000568	20.809588
1940.594743	-3.011800	3.355400	-10.105000	25.864553	0.000568	20.792073
1941.601844	-3.012300	3.354000	-10.103000	25.853652	0.000567	20.783493
1942.590007	-2.996800	3.354800	-10.053000	25.891161	0.000570	20.778500
1943.592630	-3.007500	3.352600	-10.081000	25.905941	0.000566	20.792399
1944.593390	-2.993800	3.354600	-10.040000	25.915430	0.000566	20.776327
1945.592213	-3.007900	3.354100	-10.088000	25.946510	0.000566	20.781472
1946.598034	-2.991400	3.353900	-10.032000	25.934813	0.000566	20.779205
1947.597848	-2.982100	3.352700	-9.996700	25.935458	0.000565	20.771791
1948.599125	-3.006900	3.351600	-10.077000	25.964522	0.000564	20.793879
1949.588160	-3.006300	3.352300	-10.077000	25.964153	0.000564	20.769325
1950.596356	-2.988500	3.353100	-10.019000	25.973071	0.000562	20.781130
1951.600526	-3.016700	3.350300	-10.105000	26.002331	0.000564	20.789191
1952.596880	-2.982200	3.351600	-9.994100	25.986384	0.000563	20.788341
1953.596857	-3.028400	3.350100	-10.143000	25.959483	0.000563	20.785971
1954.593322	-3.004100	3.349800	-10.061000	25.947786	0.000562	20.782280
1955.603126	-3.007600	3.349600	-10.072000	25.926494	0.000562	20.774166
1956.582749	-2.984900	3.349600	-9.997800	25.965105	0.000561	20.771230
1957.579986	-2.981100	3.350500	-9.987200	25.929630	0.000560	20.781584
1958.579514	-3.003500	3.348600	-10.056000	25.942200	0.000559	20.791368
1959.614131	-2.979700	3.348400	-9.976600	25.952362	0.000560	20.783558
1960.600358	-2.986300	3.348700	-9.999000	25.936442	0.000561	20.763297
1961.609405	-2.988200	3.347900	-10.003000	25.967223	0.000558	20.770513
1962.603343	-2.995000	3.347800	-10.026000	26.001474	0.000558	20.782639
1963.619412	-3.005500	3.346900	-10.058000	25.972886	0.000559	20.769564
1964.598552	-2.983000	3.348300	-9.986800	25.973083	0.000555	20.755537
1965.614485	-2.971500	3.347300	-9.945500	25.990373	0.000556	20.787133
1966.603841	-2.998200	3.346000	-10.031000	26.009648	0.000557	20.764773
1967.615775	-2.983700	3.347300	-9.986500	26.014392	0.000558	20.782342
1968.583147	-3.008700	3.346000	-10.066000	26.048375	0.000556	20.778553
1969.580339	-2.993100	3.346000	-10.013000	26.042363	0.000555	20.772038
1970.585590	-2.998100	3.344400	-10.026000	26.089226	0.000557	20.772657
1971.586221	-2.990300	3.346400	-10.005000	26.076317	0.000554	20.771065
1972.584849	-3.001000	3.344900	-10.036000	26.089029	0.000555	20.762501
1973.593045	-2.986600	3.344300	-9.987300	26.073555	0.000554	20.763549
1974.590871	-2.989500	3.343700	-9.995900	26.055553	0.000554	20.776281
1975.582448	-2.989700	3.344700	-9.998300	26.019563	0.000554	20.760036
1976.581939	-3.017900	3.343400	-10.089000	26.034464	0.000553	20.772162
1977.612722	-2.995600	3.342700	-10.013000	25.999541	0.000553	20.759834
1978.611410	-3.010100	3.341900	-10.059000	25.994001	0.000551	20.762328
1979.588665	-3.005200	3.342100	-10.043000	25.965109	0.000549	20.767441
1980.589612	-3.011400	3.342600	-10.065000	25.984209	0.000550	20.749645
1981.607576	-3.006500	3.341900	-10.047000	25.984209	0.000552	20.746326
1982.601413	-3.005100	3.342500	-10.043000	25.961629	0.000549	20.767264
1983.600944	-2.998300	3.341900	-10.019000	25.985452	0.000552	20.763223
1984.602145	-3.007700	3.341800	-10.049000	26.017692	0.000548	20.764320
1985.598163	-3.002000	3.340000	-10.026000	26.020347	0.000550	20.762246
1986.602081	-2.997000	3.341800	-10.015000	26.027697	0.000548	20.754931
1987.599629	-3.011600	3.339900	-10.057000	26.041309	0.000547	20.761495
1988.600058	-3.013800	3.340300	-10.066000	26.028070	0.000547	20.747246
1989.602072	-2.981300	3.341500	-9.960900	26.041978	0.000546	20.762642
1990.605744	-2.982200	3.340600	-9.960900	26.041280	0.000546	20.735387
1991.621834	-3.008700	3.338400	-10.043000	26.068102	0.000545	20.762337
1992.603965	-2.991600	3.340300	-9.992000	26.077987	0.000546	20.756622
1993.588669	-2.999300	3.339900	-10.016000	26.084963	0.000543	20.755096
1994.603946	-3.020000	3.337900	-10.079000	26.062188	0.000543	20.776310
1995.592330	-2.998600	3.338700	-10.009000	26.028731	0.000543	20.782050
1996.619727	-2.999600	3.337000	-10.009000	25.986528	0.000541	20.767623
1997.607920	-2.988200	3.339300	-9.976200	26.021775	0.000542	20.764629
1998.607203	-2.985100	3.336600	-9.959300	25.995917	0.000541	20.749081
1999.614555	-2.985100	3.335800	-9.956400	26.003173	0.000541	20.771070
2000.612005	-2.997400	3.335500	-9.996900	25.989852	0.000539	20.769066
2001.606575	-3.000300	3.335300	-10.005000	25.988514	0.000540	20.753971
2002.604657	-2.999000	3.335700	-10.003000	25.939377	0.000539	20.756288
2003.613027	-3.006600	3.336400	-10.030000	25.974232	0.000539	20.748631
2004.611647	-2.982700	3.334700	-9.945400	25.997879	0.000539	20.746784
2005.610682	-3.010200	3.334700	-10.036000	25.995417	0.000540	20.747629
2006.607987	-2.998200	3.334600	-9.995200	26.016330	0.000538	20.768641
2007.615674	-3.014000	3.333700	-10.046000	26.021250	0.000536	20.759834
2008.617457	-2.998700	3.333300	-9.994300	26.046385	0.000538	20.747629
2009.610874	-3.001300	3.333900	-10.005000	26.069062	0.000535	20.760457
2010.608150	-3.003700	3.331900	-10.007000	26.056690	0.000537	20.764621
2011.606561	-2.991200	3.332500	-9.967400	26.061585	0.000535	20.761953
2012.608349	-2.981400	3.333600	-9.936900	26.045491	0.000535	20.750998
2013.620577	-3.022400	3.330200	-10.065000	26.065557	0.000534	20.734175
2014.610824	-2.968100	3.332800	-9.891100	26.035531	0.000532	20.740517
2015.596934	-3.025400	3.329800	-10.073000	26.009251	0.000533	20.735923
2016.594583	-3.011600	3.331400	-10.030000	26.009645	0.000534	20.761450
2017.591508	-3.004200	3.330400	-10.004000	26.023856	0.000533	20.742063
2018.603101	-3.002200	3.330900	-9.999200	26.034661	0.000532	20.741065
2019.591050	-3.016300	3.329400	-10.042000	26.040718	0.000533	20.731977
2020.609347	-3.008000	3.329800	-10.015000	26.085776	0.000533	20.749749
2021.611578	-3.011400	3.329300	-10.025000	26.111283	0.000528	20.725116
2022.594694	-2.976900	3.329000	-9.908800	26.094861	0.000531	20.726159
2023.594456	-3.000000	3.328900	-9.985400	26.062997	0.000531	20.729231
2024.598632	-3.015300	3.328400	-10.035000	26.019383	0.000528	20.741362
2025.602253	-2.988800	3.328000	-9.944300	25.991292	0.000530	20.738269
2026.593390	-2.981800	3.327100	-9.919200	25.958301	0.000527	20.742108
2027.600885	-3.006100	3.327600	-10.002000	25.898286	0.000527	20.742982
2028.598533	-2.984100	3.328100	-9.930800	25.859833	0.000527	20.738492
2029.593997	-2.991500	3.327100	-9.951600	25.877942	0.000525	20.725388
2030.594686	-2.997500	3.325600	-9.968300	25.874514	0.000523	20.726687
2031.596356	-2.999700	3.326800	-9.978400	25.896649	0.000524	20.726638
2032.602784	-2.984400	3.328000	-9.930400	25.851239	0.000524	20.742187
2033.598875	-2.998200	3.325700	-9.970200	25.902489	0.000524	20.719228
2034.598420	-3.004700	3.324200	-9.985800	25.902760	0.000524	20.737519
2035.598169	-2.989200	3.323500	-9.934000	25.962204	0.000524	20.739391
2036.597362	-2.994000	3.324700	-9.953000	25.959868	0.000521	20.743209
2037.597312	-3.006100	3.324200	-9.991900	25.974425	0.000520	20.741238
2038.601931	-3.003100	3.324100	-9.981800	25.990549	0.000520	20.731833
2039.606524	-3.010200	3.323500	-10.003000	26.022916	0.000520	20.734480
2040.606790	-2.993700	3.323600	-9.948600	26.022022	0.000521	20.725994
2041.604539	-3.012400	3.324200	-10.012000	26.038096	0.000520	20.717488
2042.599785	-3.003900	3.322700	-9.980200	26.041699	0.000520	20.725850
2043.598611	-3.005800	3.322100	-9.983500	26.054194	0.000518	20.736509
2044.599922	-2.997800	3.322500	-9.959500	26.065619	0.000518	20.712899
2045.598894	-2.992100	3.322600	-9.941300	26.045228	0.000517	20.744096
2046.597475	-3.001000	3.320700	-9.964400	26.033385	0.000517	20.733618
2047.610328	-2.983900	3.322000	-9.911700	26.021435	0.000514	20.742001
2048.599339	-3.003700	3.321100	-9.975100	26.017811	0.000515	20.713703
2049.600256	-3.011400	3.320600	-9.998600	25.991288	0.000514	20.737791
2050.612337	-2.999600	3.320800	-9.960000	26.029740	0.000513	20.729482
2051.603336	-3.000800	3.320400	-9.963000	26.020975	0.000514	20.710243
2052.606973	-2.992900	3.317700	-9.928500	26.050755	0.000515	20.722621
2053.612289	-2.976700	3.319000	-9.878100	26.064342	0.000514	20.713987
2054.608584	-2.998400	3.318100	-9.947600	26.098521	0.000511	20.732208
2055.601313	-2.994800	3.317700	-9.935200	26.117848	0.000512	20.733136
2056.607645	-2.998600	3.317400	-9.946900	26.111762	0.000511	20.731763
2057.604960	-3.034100	3.316200	-10.061000	26.081019	0.000509	20.726951
2058.606895	-2.991300	3.318400	-9.925200	26.064753	0.000509	20.731944
2059.605084	-3.010400	3.316700	-9.983500	26.089838	0.000509	20.723483
2060.607902	-2.999900	3.315800	-9.944600	26.119817	0.000509	20.699077
2061.610254	-2.988400	3.316800	-9.910800	26.133129	0.000509	20.711979
2062.608435	-3.011500	3.315300	-9.982800	26.167900	0.000508	20.713727
2063.606172	-2.995700	3.316900	-9.933600	26.182778	0.000508	20.747171
2064.605086	-3.008800	3.315800	-9.974700	26.184440	0.000506	20.723236
2065.609173	-2.993400	3.316200	-9.925800	26.183873	0.000506	20.733099
2066.611235	-2.990200	3.315700	-9.913700	26.113391	0.000506	20.709216
2067.605396	-2.987100	3.313900	-9.897600	26.120244	0.000506	20.711360
2068.613994	-3.003900	3.315600	-9.959200	26.146124	0.000506	20.706544
2069.610620	-2.986400	3.315500	-9.900500	26.158992	0.000504	20.724217
2070.611707	-3.002700	3.312800	-9.946000	26.184591	0.000502	20.719120
2071.611052	-3.021900	3.313300	-10.010000	26.179475	0.000505	20.714453
2072.606771	-3.009200	3.312400	-9.966900	26.211938	0.000504	20.739015
2073.610560	-3.008300	3.311100	-9.959200	26.216308	0.000503	20.723017
2074.618309	-3.021100	3.311300	-10.001000	26.237217	0.000503	20.727907
2075.613830	-2.977900	3.311200	-9.859700	26.224723	0.000503	20.717723
2076.610378	-3.003600	3.310500	-9.942400	26.204586	0.000500	20.725462
2077.610941	-2.987800	3.312000	-9.894500	26.180591	0.000502	20.719842
2078.610281	-3.007100	3.311100	-9.955400	26.182704	0.000502	20.714379
2079.611481	-2.990000	3.310900	-9.897800	26.211979	0.000500	20.723883
2080.614745	-3.008400	3.308800	-9.952900	26.236417	0.000501	20.730422
2081.612988	-2.984600	3.310500	-9.879900	26.259532	0.000500	20.722357
2082.615709	-2.985600	3.310700	-9.883200	26.279300	0.000500	20.727524
2083.619022	-3.018900	3.309400	-9.988600	26.290870	0.000499	20.718288
2084.611208	-2.975800	3.310200	-9.849100	26.280810	0.000498	20.709600
2085.612575	-2.994200	3.311200	-9.913900	26.258339	0.000497	20.745815
2086.622558	-3.001400	3.307500	-9.926300	26.231264	0.000498	20.726666
2087.615493	-3.015300	3.307800	-9.972800	26.232232	0.000496	20.716733
2088.620839	-2.993900	3.309000	-9.905800	26.271119	0.000496	20.718354
2089.615599	-3.009100	3.307300	-9.951400	26.247080	0.000498	20.714111
2090.613129	-2.978700	3.308000	-9.853000	26.267467	0.000495	20.733651
2091.613020	-3.000000	3.305800	-9.916400	26.274368	0.000495	20.725887
2092.612668	-3.005600	3.306100	-9.936000	26.310394	0.000493	20.728427
2093.614620	-3.009400	3.307200	-9.951900	26.301036	0.000494	20.730402
2094.618508	-3.005300	3.305000	-9.931400	26.304835	0.000496	20.715727
2095.613006	-2.995800	3.305000	-9.900200	26.314595	0.000494	20.747823
2096.619224	-3.004300	3.306400	-9.932500	26.295100	0.000492	20.709262
2097.616729	-3.006200	3.305800	-9.936100	26.291723	0.000492	20.721516
2098.615192	-3.008600	3.303800	-9.938800	26.307789	0.000492	20.713006
2099.618649	-2.985300	3.304000	-9.863200	26.315391	0.000490	20.728233
2100.618187	-3.016100	3.304100	-9.963600	26.343125	0.000490	20.726233
2101.615590	-2.960100	3.304600	-9.780600	26.369094	0.000487	20.728151
2102.617421	-2.989500	3.303200	-9.873800	26.360208	0.000490	20.726332
2103.622064	-3.003700	3.304700	-9.925300	26.379079	0.000488	20.745774
2104.622531	-3.011700	3.302200	-9.944200	26.357750	0.000488	20.726233
2105.624216	-3.011000	3.302800	-9.944500	26.354624	0.000488	20.715979
2106.619887	-2.999700	3.303000	-9.907500	26.362571	0.000487	20.742933
2107.626748	-3.013900	3.301400	-9.949700	26.363715	0.000488	20.727013
2108.621118	-3.011300	3.300300	-9.937200	26.390331	0.000486	20.733375
2109.626323	-3.017600	3.301100	-9.960900	26.384994	0.000487	20.729433
2110.631118	-2.980400	3.300800	-9.836700	26.331613	0.000486	20.721776
2111.628958	-2.996200	3.300000	-9.885700	26.334046	0.000484	20.735601
2112.623568	-2.981800	3.300800	-9.841500	26.331634	0.000485	20.742660
2113.627615	-3.005400	3.298100	-9.910000	26.373725	0.000483	20.743238
2114.623529	-3.002300	3.298500	-9.901900	26.376831	0.000482	20.734030
2115.626794	-3.012200	3.299300	-9.937100	26.392428	0.000482	20.730266
2116.626844	-3.010000	3.299600	-9.930400	26.371969	0.000481	20.759966
2117.625514	-3.023700	3.297400	-9.969800	26.378398	0.000480	20.723751
2118.628234	-3.012400	3.297400	-9.931200	26.381532	0.000479	20.730220
2119.633713	-2.996900	3.297700	-9.881400	26.395808	0.000478	20.733663
2120.625067	-2.992100	3.296600	-9.863300	26.382676	0.000480	20.743225
2121.626652	-3.012300	3.296900	-9.929300	26.391615	0.000477	20.714276
2122.633223	-2.995300	3.296100	-9.872800	26.393974	0.000478	20.751736
2123.625774	-3.018600	3.296100	-9.948200	26.363883	0.000479	20.721491
2124.625915	-3.010300	3.296100	-9.921600	26.389384	0.000479	20.754234
2125.625968	-2.989600	3.296800	-9.854400	26.343248	0.000476	20.718296
2126.624777	-3.016400	3.294900	-9.937800	26.301532	0.000476	20.749868
2127.635651	-2.993600	3.295900	-9.865500	26.297536	0.000477	20.731152
2128.631555	-3.001000	3.294700	-9.885100	26.314132	0.000475	20.727916
2129.624839	-2.989600	3.294700	-9.849200	26.337398	0.000476	20.743712
2130.625757	-2.993000	3.293700	-9.856000	26.344597	0.000475	20.733404
2131.628537	-2.988300	3.294900	-9.845200	26.338710	0.000474	20.732703
2132.629298	-2.993000	3.292900	-9.854900	26.337972	0.000474	20.718209
2133.628531	-2.992300	3.292400	-9.850700	26.331888	0.000475	20.747184
2134.631469	-3.020500	3.292100	-9.943600	26.315625	0.000472	20.739374
2135.627529	-2.989100	3.291100	-9.836400	26.318206	0.000470	20.739597
2136.634313	-3.002600	3.292200	-9.883800	26.336479	0.000470	20.741366
2137.628690	-2.999400	3.292600	-9.874500	26.346710	0.000470	20.750701
2138.629907	-3.005600	3.290400	-9.888000	26.347654	0.000469	20.746907
2139.627419	-2.992900	3.290500	-9.847700	26.358009	0.000471	20.757314
2140.630342	-2.995100	3.291300	-9.855500	26.310804	0.000468	20.736900
2141.634148	-2.987100	3.289900	-9.826500	26.322796	0.000469	20.743737
2142.637245	-2.990600	3.290800	-9.839800	26.338074	0.000467	20.738228
2143.630610	-3.014200	3.287500	-9.908700	26.381076	0.000466	20.761058
2144.631097	-2.996700	3.288500	-9.854100	26.372461	0.000465	20.749080
2145.629061	-3.006500	3.287000	-9.881300	26.372269	0.000465	20.742722
2146.635774	-2.982600	3.289300	-9.809700	26.394590	0.000466	20.753303
2147.633932	-3.004500	3.287900	-9.878600	26.403106	0.000468	20.752379
2148.632442	-3.008300	3.288300	-9.891100	26.366800	0.000463	20.755719
2149.636020	-2.965900	3.288100	-9.750900	26.385971	0.000463	20.743691
2150.635462	-2.974600	3.287300	-9.777100	26.403405	0.000462	20.746990
2151.635233	-2.998400	3.286600	-9.853200	26.425943	0.000462	20.758737
2152.632041	-3.014900	3.285700	-9.905300	26.445535	0.000460	20.752824
2153.632032	-3.003200	3.285800	-9.867600	26.487274	0.000461	20.759689
2154.635630	-2.987100	3.286400	-9.815900	26.457427	0.000460	20.749604
2155.633924	-2.991900	3.286000	-9.829700	26.421427	0.000459	20.753723
2156.638959	-2.989600	3.286000	-9.822600	26.403303	0.000459	20.752577
2157.638779	-2.993200	3.285900	-9.834800	26.386020	0.000458	20.753224
2158.634543	-3.037100	3.283000	-9.969400	26.384826	0.000459	20.744438
2159.637757	-2.993400	3.284200	-9.830000	26.400698	0.000456	20.745217
2160.634459	-2.991400	3.285100	-9.824700	26.433742	0.000457	20.753298
2161.635061	-2.994100	3.284900	-9.834300	26.458498	0.000456	20.737877
2162.635329	-2.996300	3.284500	-9.841100	26.461923	0.000456	20.749381
2163.636763	-2.978800	3.283000	-9.778700	26.473072	0.000454	20.761537
2164.635345	-2.982300	3.281700	-9.786000	26.474812	0.000454	20.763759
2165.635426	-2.972800	3.283000	-9.758300	26.505047	0.000453	20.755269
2166.638871	-3.006700	3.280700	-9.863000	26.503636	0.000452	20.752428
2167.639378	-2.990000	3.282400	-9.812500	26.485563	0.000451	20.756073
2168.638390	-3.016800	3.281100	-9.896800	26.493509	0.000453	20.755051
2169.641284	-2.972100	3.282100	-9.754100	26.483028	0.000451	20.760638
2170.644801	-2.996700	3.280100	-9.828500	26.510314	0.000453	20.768150
2171.636970	-3.008500	3.279100	-9.864900	26.485214	0.000450	20.769474
2172.640803	-3.004700	3.279900	-9.854200	26.486974	0.000450	20.740896
2173.637516	-2.998700	3.279100	-9.831700	26.502069	0.000449	20.751327
2174.640663	-3.020900	3.278400	-9.902800	26.482532	0.000449	20.775312
2175.636745	-3.015200	3.277400	-9.880300	26.470587	0.000447	20.766150
2176.640602	-2.993600	3.278000	-9.811600	26.471653	0.000446	20.755842
2177.637487	-2.981800	3.278800	-9.775500	26.483602	0.000446	20.755525
2178.641651	-3.004900	3.277400	-9.847000	26.478561	0.000446	20.786494
2179.639147	-2.989500	3.278000	-9.798400	26.527542	0.000446	20.782148
2180.645649	-2.994100	3.276200	-9.807100	26.552370	0.000444	20.761586
2181.641683	-3.006800	3.275100	-9.846200	26.555077	0.000444	20.774265
2182.637565	-3.013300	3.276300	-9.871100	26.573375	0.000443	20.763260
2183.639641	-2.979500	3.276700	-9.762200	26.580995	0.000442	20.775663
2184.638552	-2.973500	3.275900	-9.738700	26.564289	0.000444	20.758869
2185.638084	-2.986600	3.275800	-9.782000	26.527247	0.000442	20.760514
2186.645456	-2.986400	3.275500	-9.779700	26.485514	0.000439	20.771671
2187.640590	-2.985000	3.274400	-9.773200	26.452119	0.000440	20.781254
2188.640760	-2.988700	3.273500	-9.781600	26.362308	0.000442	20.773015
2189.648507	-2.990600	3.273700	-9.789800	26.344458	0.000440	20.781155
2190.647952	-3.001500	3.274300	-9.826200	26.336959	0.000438	20.776937
2191.643080	-3.004100	3.272900	-9.830600	26.335121	0.000440	20.774141
2192.650198	-2.998500	3.273100	-9.813000	26.350915	0.000437	20.764410
2193.639757	-2.993800	3.271700	-9.793500	26.378205	0.000436	20.777139
2194.640830	-2.957200	3.272800	-9.677500	26.400210	0.000434	20.780763
2195.643751	-3.009200	3.271800	-9.843800	26.483906	0.000435	20.792341
2196.643764	-3.007900	3.271100	-9.837900	26.490408	0.000433	20.771849
2197.642391	-3.013200	3.270200	-9.852600	26.524154	0.000433	20.787277
2198.646544	-3.011000	3.270000	-9.845200	26.570257	0.000432	20.777671
2199.644331	-3.010400	3.269500	-9.841000	26.560696	0.000433	20.781336
2200.643320	-2.991900	3.269600	-9.781500	26.575938	0.000430	20.771527
2201.643757	-3.012600	3.269700	-9.849200	26.579072	0.000430	20.787005
2202.646082	-2.984300	3.268900	-9.754900	26.544290	0.000431	20.765792
2203.646482	-2.992600	3.268600	-9.780900	26.544692	0.000431	20.769989
2204.649158	-2.991000	3.267500	-9.771800	26.573215	0.000430	20.780643
2205.647877	-2.998800	3.268200	-9.799800	26.595138	0.000430	20.776603
2206.647267	-2.997300	3.267300	-9.791700	26.622442	0.000428	20.798834
2207.644994	-2.991100	3.265800	-9.767000	26.633844	0.000427	20.777580
2208.645716	-2.971100	3.268700	-9.709900	26.656557	0.000427	20.790456
2209.653114	-3.014600	3.266000	-9.844300	26.667753	0.000428	20.789384
2210.645463	-2.997600	3.267500	-9.793500	26.680935	0.000428	20.786515
2211.645785	-3.000200	3.265000	-9.795000	26.665965	0.000425	20.789483
2212.645204	-2.984300	3.265200	-9.743400	26.650302	0.000425	20.800290
2213.650117	-2.992800	3.265800	-9.772800	26.664030	0.000426	20.785641
2214.653641	-2.999600	3.264200	-9.790100	26.650450	0.000423	20.770566
2215.649630	-3.002500	3.264100	-9.799000	26.604379	0.000424	20.786366
2216.647197	-3.003100	3.263100	-9.799300	26.594596	0.000424	20.787438
2217.649642	-2.986800	3.263200	-9.745500	26.580741	0.000424	20.784890
2218.650273	-2.981700	3.264100	-9.731100	26.546706	0.000422	20.802360
2219.650136	-3.000100	3.262800	-9.788200	26.502738	0.000421	20.782820
2220.652504	-3.002700	3.262300	-9.794400	26.541025	0.000422	20.790959
2221.652828	-3.003200	3.261700	-9.794200	26.562965	0.000421	20.794048
2222.653139	-2.995400	3.262300	-9.769400	26.583420	0.000422	20.803230
2223.653490	-3.012600	3.261900	-9.826400	26.581164	0.000419	20.798117
2224.658625	-2.995500	3.260900	-9.767100	26.577891	0.000419	20.770645
2225.658554	-2.982100	3.261600	-9.725600	26.572005	0.000417	20.787962
2226.650290	-2.995100	3.259300	-9.760800	26.579724	0.000419	20.815162
2227.652621	-2.968500	3.261500	-9.679900	26.585388	0.000417	20.789562
2228.655720	-2.989700	3.259600	-9.744000	26.558276	0.000418	20.805456
2229.655485	-3.005900	3.258800	-9.793900	26.604329	0.000415	20.802912
2230.657300	-2.991000	3.258000	-9.743100	26.627515	0.000414	20.794452
2231.657635	-2.982800	3.257800	-9.716000	26.626026	0.000415	20.798171
2232.657574	-2.994400	3.258200	-9.755400	26.666568	0.000416	20.804788
2233.662528	-3.014000	3.257100	-9.814600	26.646234	0.000414	20.800941
2234.658400	-3.039800	3.256500	-9.898400	26.627741	0.000414	20.800842
2235.658633	-3.037800	3.255200	-9.887000	26.663808	0.000411	20.812445
2236.657046	-2.998300	3.255500	-9.759800	26.686869	0.000411	20.814766
2237.663840	-3.018700	3.255100	-9.825200	26.675603	0.000412	20.826199
2238.660256	-2.996500	3.255400	-9.752400	26.698262	0.000410	20.811521
2239.659198	-2.992000	3.254400	-9.736900	26.720281	0.000408	20.803786
2240.659999	-2.997900	3.254200	-9.755200	26.720630	0.000409	20.821680
2241.661770	-2.985500	3.256200	-9.719800	26.697069	0.000408	20.813166
2242.659592	-2.988300	3.254700	-9.724000	26.703918	0.000408	20.809146
2243.658615	-2.976200	3.254500	-9.685200	26.720376	0.000407	20.798665
2244.667678	-2.988400	3.254100	-9.723500	26.678220	0.000406	20.807967
2245.664365	-3.017700	3.252300	-9.813900	26.667126	0.000404	20.816254
2246.665718	-2.989100	3.253600	-9.723900	26.669661	0.000406	20.813587
2247.666278	-3.033300	3.252700	-9.865200	26.691676	0.000403	20.820546
2248.663873	-3.004500	3.252400	-9.771000	26.731965	0.000402	20.800834
2249.666528	-2.992100	3.251300	-9.726800	26.738441	0.000404	20.799758
2250.665997	-2.996100	3.250000	-9.736100	26.765819	0.000403	20.829180
2251.662438	-3.000400	3.250600	-9.751300	26.782694	0.000403	20.819120
2252.661879	-2.993300	3.250100	-9.727800	26.795529	0.000402	20.826335
2253.663228	-2.999400	3.251900	-9.752100	26.783436	0.000403	20.832668
2254.661955	-3.014600	3.249400	-9.795200	26.763506	0.000399	20.826380
2255.664198	-3.001600	3.249800	-9.753600	26.704677	0.000400	20.826504
2256.669583	-2.998800	3.248600	-9.740300	26.681964	0.000398	20.816473
2257.667030	-3.028000	3.247200	-9.830900	26.628151	0.000397	20.822117
2258.666206	-2.994000	3.247700	-9.722800	26.597312	0.000398	20.821936
2259.668453	-3.002700	3.246900	-9.746800	26.582488	0.000396	20.811777
2260.668817	-3.032500	3.244900	-9.839000	26.626777	0.000396	20.820262
2261.667737	-3.006200	3.246500	-9.758100	26.631194	0.000396	20.832763
2262.672278	-3.025900	3.246000	-9.821700	26.654605	0.000394	20.825003
2263.670888	-3.029900	3.245600	-9.832400	26.656914	0.000395	20.836807
2264.667813	-3.019600	3.244300	-9.795700	26.718600	0.000394	20.821536
2265.669419	-3.004000	3.245000	-9.745500	26.738777	0.000394	20.834235
2266.671914	-3.006000	3.244200	-9.751400	26.791744	0.000392	20.839124
2267.672085	-2.980000	3.245500	-9.670400	26.833769	0.000391	20.835385
2268.669794	-2.969000	3.244500	-9.631500	26.814360	0.000390	20.843371
2269.669309	-2.995700	3.242100	-9.710300	26.817981	0.000391	20.840374
2270.667473	-3.000100	3.242900	-9.728200	26.819818	0.000391	20.843169
2271.670264	-3.004600	3.242000	-9.740800	26.788517	0.000390	20.854371
2272.671334	-3.014600	3.242600	-9.773300	26.825001	0.000389	20.842217
2273.671408	-2.996600	3.242500	-9.714600	26.841182	0.000387	20.846632
2274.673142	-2.993000	3.241700	-9.701200	26.837763	0.000387	20.837978
2275.670253	-3.002500	3.241400	-9.731100	26.864986	0.000386	20.845911
2276.672788	-3.010100	3.241800	-9.756400	26.870223	0.000386	20.847857
2277.673634	-3.031000	3.238400	-9.814400	26.859549	0.000386	20.825271
2278.673072	-2.997700	3.240600	-9.713200	26.872925	0.000384	20.855789
2279.674622	-2.985400	3.239500	-9.670300	26.855088	0.000386	20.839277
2280.677509	-2.983500	3.240300	-9.665700	26.800258	0.000382	20.840097
2281.674730	-3.014100	3.238600	-9.760400	26.778285	0.000383	20.832231
2282.676224	-3.000500	3.238300	-9.714700	26.749624	0.000382	20.829493
2283.676445	-3.015200	3.237000	-9.758800	26.773057	0.000381	20.835034
2284.673080	-3.018800	3.234800	-9.764400	26.773352	0.000382	20.850029
2285.674012	-2.994300	3.237700	-9.693400	26.779065	0.000380	20.858617
2286.678442	-2.986800	3.237400	-9.668400	26.750370	0.000380	20.848261
2287.676263	-2.990200	3.235600	-9.672800	26.767693	0.000376	20.861409
2288.679248	-3.027400	3.234200	-9.790600	26.783883	0.000378	20.867255
2289.679470	-2.994400	3.233900	-9.682400	26.816968	0.000377	20.851683
2290.678538	-2.974500	3.235900	-9.623500	26.871887	0.000377	20.850479
2291.679409	-2.982700	3.235500	-9.649500	26.873483	0.000376	20.852083
2292.682291	-3.007300	3.234300	-9.725400	26.943045	0.000375	20.871295
2293.679928	-3.003600	3.233200	-9.710200	26.950610	0.000376	20.851402
2294.679567	-2.981500	3.232900	-9.638000	26.930908	0.000373	20.846290
2295.679303	-2.980000	3.234500	-9.637700	26.936267	0.000375	20.855946
2296.682705	-3.004900	3.231000	-9.707100	26.945645	0.000373	20.857789
2297.681153	-2.981300	3.233600	-9.639200	26.940712	0.000373	20.858044
2298.679733	-3.008200	3.231800	-9.719700	26.937481	0.000372	20.863330
2299.682743	-2.996300	3.230400	-9.677300	26.948900	0.000372	20.868648
2300.682010	-2.990300	3.232100	-9.663900	26.919514	0.000373	20.878926
2301.681709	-3.009100	3.228200	-9.713100	26.906852	0.000371	20.879471
2302.678970	-2.966700	3.231500	-9.585900	26.967183	0.000371	20.873282
2303.683139	-3.006600	3.229800	-9.709900	26.948170	0.000368	20.887827
2304.691095	-3.005700	3.227500	-9.700400	26.963710	0.000369	20.857937
2305.679980	-2.991100	3.228700	-9.656100	26.951004	0.000368	20.875504
2306.682776	-2.998900	3.227100	-9.677600	26.993436	0.000368	20.858906
2307.684641	-3.031800	3.225400	-9.778000	26.999196	0.000369	20.865647
2308.681046	-3.003200	3.228200	-9.694600	27.038674	0.000366	20.869312
2309.682518	-3.016300	3.226200	-9.730100	27.053364	0.000366	20.875076
2310.684740	-2.991600	3.227600	-9.653900	27.069222	0.000366	20.879170
2311.682149	-2.973600	3.225900	-9.591300	27.065348	0.000365	20.875748
2312.684782	-2.983700	3.224600	-9.620600	27.084309	0.000365	20.859256
2313.684253	-2.995200	3.225300	-9.659700	27.110809	0.000363	20.879743
2314.688604	-2.985100	3.224300	-9.623600	27.087457	0.000362	20.872853
2315.682265	-2.995200	3.223500	-9.654000	27.124403	0.000363	20.874923
2316.685880	-3.019000	3.222800	-9.728400	27.141252	0.000361	20.878592
2317.685322	-2.991200	3.223100	-9.640300	27.120258	0.000360	20.893987
2318.686416	-2.999500	3.221100	-9.660600	27.118496	0.000362	20.888421
2319.689436	-3.000900	3.222600	-9.670500	27.121771	0.000358	20.877966
2320.683384	-3.012600	3.222500	-9.705800	27.132266	0.000360	20.877141
2321.684230	-2.999300	3.221200	-9.660200	27.146384	0.000358	20.888969
2322.683878	-3.006300	3.221700	-9.684400	27.184049	0.000358	20.869481
2323.685912	-3.003100	3.220700	-9.670700	27.174449	0.000358	20.897281
2324.687559	-2.997500	3.219100	-9.648600	27.149561	0.000358	20.887423
2325.685857	-3.001700	3.218700	-9.660500	27.120283	0.000356	20.883581
2326.689801	-3.010600	3.217800	-9.686100	27.060830	0.000357	20.874523
2327.687485	-2.999600	3.217800	-9.649200	27.048198	0.000353	20.886001
2328.685540	-3.017400	3.218100	-9.709300	27.012390	0.000354	20.869906
2329.686053	-2.992100	3.217800	-9.627000	27.037805	0.000353	20.875550
2330.689040	-2.972100	3.217600	-9.561600	27.055598	0.000354	20.881116
2331.685382	-3.026100	3.215300	-9.729100	27.080861	0.000353	20.868590
2332.684286	-2.985600	3.217000	-9.603900	27.094386	0.000353	20.874606
2333.687034	-3.005800	3.215500	-9.664600	27.067188	0.000351	20.878547
2334.688652	-3.003500	3.214800	-9.654300	27.066102	0.000353	20.871765
2335.689705	-2.994000	3.215400	-9.625500	27.081037	0.000352	20.874457
2336.689771	-3.027600	3.214100	-9.729500	27.106422	0.000351	20.865849
2337.693650	-2.985200	3.215800	-9.598500	27.123251	0.000350	20.876609
2338.689206	-3.026300	3.211600	-9.717400	27.121041	0.000349	20.846414
2339.692182	-3.005200	3.213600	-9.656300	27.104668	0.000347	20.866929
2340.690377	-3.005500	3.212700	-9.654200	27.119234	0.000349	20.852656
2341.691159	-3.004300	3.213100	-9.652400	27.149508	0.000349	20.874094
2342.693545	-3.011100	3.212400	-9.671600	27.169829	0.000346	20.857075
2343.689888	-2.999400	3.210800	-9.628600	27.178638	0.000346	20.873047
2344.691586	-2.997400	3.210600	-9.621800	27.205612	0.000346	20.844703
2345.693433	-2.998700	3.209200	-9.621900	27.208268	0.000346	20.846900
2346.698112	-2.997300	3.209800	-9.620400	27.148229	0.000344	20.845783
2347.694141	-3.005600	3.207700	-9.640300	27.109370	0.000345	20.862650
2348.689871	-3.010400	3.209000	-9.658900	27.073892	0.000343	20.847358
2349.692225	-2.990800	3.208000	-9.593600	27.100392	0.000343	20.832759
2350.695162	-2.988600	3.207700	-9.585100	27.119652	0.000339	20.854973
2351.692478	-2.987400	3.210100	-9.588600	27.096153	0.000341	20.848883
2352.692713	-3.017100	3.206500	-9.673300	27.085412	0.000340	20.850883
2353.695305	-3.009900	3.206400	-9.650300	27.086703	0.000340	20.873043
2354.694672	-3.025400	3.207400	-9.702700	27.106377	0.000340	20.844468
2355.694541	-3.020800	3.204700	-9.679200	27.110797	0.000339	20.833740
2356.697514	-2.989200	3.205300	-9.580800	27.076606	0.000338	20.844398
2357.695742	-3.019400	3.204800	-9.675600	27.029934	0.000338	20.844876
2358.695010	-3.011400	3.204200	-9.647900	27.049736	0.000338	20.836816
2359.696032	-2.978000	3.204100	-9.540900	27.080632	0.000337	20.834697
2360.696494	-3.020100	3.203200	-9.672600	27.110686	0.000336	20.830784
2361.700214	-2.994900	3.202200	-9.588700	27.136985	0.000336	20.838267
2362.697750	-3.016100	3.203100	-9.660000	27.164627	0.000336	20.833353
2363.696834	-3.013500	3.204200	-9.653900	27.165771	0.000335	20.839718
2364.696443	-3.015600	3.201500	-9.652800	27.144335	0.000335	20.841392
2365.698579	-2.999000	3.200400	-9.597700	27.172769	0.000334	20.841067
2366.700873	-2.993000	3.201200	-9.580600	27.166566	0.000334	20.819656
2367.699891	-2.967700	3.200000	-9.495300	27.163537	0.000331	20.827514
2368.698925	-3.010500	3.200900	-9.635500	27.168083	0.000331	20.838251
2369.700259	-3.003200	3.199400	-9.607000	27.186739	0.000331	20.845161
2370.699444	-3.015700	3.199600	-9.647600	27.207903	0.000331	20.830413
2371.700355	-3.026300	3.198900	-9.679200	27.209941	0.000330	20.840997
2372.701688	-2.998400	3.196600	-9.583800	27.178897	0.000330	20.853868
2373.702296	-2.988800	3.197100	-9.555000	27.160167	0.000331	20.832186
2374.702389	-3.002900	3.197000	-9.599800	27.169694	0.000328	20.848880
2375.703156	-2.996400	3.197100	-9.578400	27.172055	0.000327	20.824229
2376.701212	-3.018000	3.195000	-9.641600	27.203665	0.000328	20.830891
2377.700029	-2.999900	3.195000	-9.584000	27.193741	0.000326	20.831815
2378.702546	-3.001400	3.195200	-9.589000	27.220836	0.000327	20.834886
2379.702006	-2.995300	3.193200	-9.563900	27.184062	0.000328	20.820184
2380.700601	-3.001000	3.196000	-9.588900	27.155363	0.000326	20.847742
2381.700283	-3.013200	3.193700	-9.622700	27.071740	0.000323	20.807262
2382.703033	-2.992300	3.193300	-9.554300	27.011890	0.000325	20.837637
2383.702049	-2.951300	3.193500	-9.423000	26.965560	0.000325	20.841306
2384.702363	-2.998200	3.191700	-9.568700	26.983276	0.000324	20.831147
2385.702081	-3.004600	3.191100	-9.587400	27.011251	0.000324	20.835571
2386.706735	-2.992900	3.191600	-9.550700	27.042845	0.000323	20.809972
2387.705105	-3.008700	3.192000	-9.602900	27.094534	0.000322	20.826394
2388.707273	-2.986700	3.192800	-9.534900	27.096990	0.000322	20.830286
2389.709022	-2.957400	3.190500	-9.434600	27.126667	0.000321	20.814614
2390.702812	-3.024100	3.188600	-9.640600	27.159376	0.000321	20.822856
2391.706719	-3.010900	3.188200	-9.598900	27.152231	0.000320	20.822782
2392.705596	-3.018900	3.187300	-9.620300	27.135760	0.000320	20.811906
2393.708418	-3.004900	3.186300	-9.572600	27.152760	0.000322	20.819047
2394.711833	-2.973500	3.187900	-9.477000	27.184645	0.000321	20.817925
2395.710149	-2.999700	3.184900	-9.552100	27.155294	0.000318	20.812112
2396.711932	-2.990900	3.185400	-9.525700	27.134132	0.000319	20.817855
2397.706385	-3.010900	3.186700	-9.593600	27.122396	0.000319	20.813163
2398.710280	-3.005400	3.184100	-9.568300	27.122990	0.000318	20.813761
2399.706805	-2.973700	3.187000	-9.476100	27.103046	0.000316	20.821677
2400.706847	-2.995900	3.183100	-9.535100	27.117013	0.000316	20.789258
2401.710012	-3.011400	3.183400	-9.585200	27.153244	0.000317	20.803887
2402.708106	-3.005800	3.181900	-9.562700	27.175996	0.000319	20.815390
2403.707045	-2.983200	3.183600	-9.496800	27.219493	0.000316	20.820259
2404.708640	-3.018500	3.183000	-9.606500	27.243338	0.000316	20.806785
2405.710152	-2.999000	3.181900	-9.541300	27.215574	0.000314	20.819163
2406.708313	-2.997500	3.181800	-9.537000	27.212127	0.000314	20.802893
2407.711876	-2.999200	3.180700	-9.538900	27.190241	0.000315	20.806958
2408.710774	-3.000800	3.178900	-9.537900	27.202826	0.000313	20.803969
2409.705496	-2.992300	3.180700	-9.515700	27.230094	0.000314	20.812430
2410.706085	-3.033700	3.177200	-9.637700	27.222895	0.000313	20.794758
2411.713532	-2.998900	3.178000	-9.529400	27.171733	0.000313	20.799723
2412.712614	-3.029100	3.175600	-9.618600	27.124249	0.000312	20.807915
2413.709285	-2.994300	3.179000	-9.518300	27.088419	0.000312	20.802700
2414.709656	-3.016600	3.176500	-9.581400	27.094150	0.000310	20.809886
2415.711388	-2.995100	3.175400	-9.509300	27.134125	0.000312	20.803149
2416.711600	-2.988700	3.174800	-9.486800	27.157996	0.000311	20.804398
2417.710760	-2.965400	3.175200	-9.414900	27.170159	0.000311	20.805726
2418.713805	-3.025300	3.174500	-9.602400	27.173586	0.000309	20.799690
2419.709443	-2.980700	3.174300	-9.460900	27.200379	0.000310	20.800560
2420.710185	-2.990000	3.173500	-9.488200	27.215517	0.000310	20.814364
2421.716538	-2.990800	3.172700	-9.487800	27.251245	0.000309	20.806679
2422.709512	-3.004200	3.172000	-9.527700	27.254996	0.000309	20.798124
2423.712870	-2.986700	3.172500	-9.474700	27.253684	0.000310	20.789218
2424.710888	-2.984400	3.171900	-9.465400	27.239047	0.000307	20.798202
2425.712073	-2.999700	3.170500	-9.509700	27.275766	0.000307	20.801472
2426.711135	-2.997900	3.170100	-9.501800	27.264629	0.000306	20.798804
2427.716620	-3.012800	3.169600	-9.548500	27.278893	0.000306	20.797031
2428.711969	-3.009000	3.167300	-9.529700	27.269155	0.000304	20.797192
2429.713718	-2.997400	3.168200	-9.495500	27.269150	0.000304	20.805249
2430.715610	-2.987200	3.168700	-9.463600	27.244843	0.000307	20.802610
2431.711471	-2.968600	3.169700	-9.408700	27.265511	0.000306	20.793053
2432.713459	-3.003200	3.166200	-9.508200	27.278734	0.000305	20.794500
2433.717613	-2.991100	3.167300	-9.473000	27.245393	0.000306	20.780403
2434.714947	-3.022600	3.164700	-9.564400	27.216810	0.000305	20.798594
2435.713414	-2.997800	3.166600	-9.491400	27.187484	0.000303	20.777158
2436.713629	-2.995000	3.167100	-9.484000	27.184581	0.000303	20.792731
2437.712857	-3.000100	3.163700	-9.490200	27.155308	0.000303	20.786522
2438.716264	-3.008100	3.163700	-9.516000	27.101859	0.000303	20.779707
2439.714952	-2.976000	3.162700	-9.411100	27.081762	0.000301	20.783677
2440.715206	-2.980000	3.160400	-9.416600	27.073555	0.000301	20.796760
2441.717253	-3.009300	3.160500	-9.510100	27.115088	0.000301	20.784477
2442.719517	-2.985500	3.160400	-9.433200	27.154296	0.000303	20.788349
2443.716537	-3.000200	3.159600	-9.477400	27.189309	0.000301	20.789425
2444.713364	-2.981600	3.159100	-9.417500	27.232079	0.000300	20.794039
2445.716393	-2.999600	3.158100	-9.472000	27.260269	0.000302	20.786832
2446.717514	-3.016800	3.156800	-9.522700	27.231510	0.000301	20.776870
2447.715445	-2.995800	3.158700	-9.461700	27.231239	0.000299	20.781814
2448.714026	-3.003900	3.156100	-9.479300	27.237175	0.000298	20.778776
2449.723523	-2.988200	3.158000	-9.436200	27.267364	0.000299	20.801555
2450.718985	-3.004300	3.155400	-9.478700	27.266495	0.000299	20.788827
2451.717057	-2.992800	3.154100	-9.438900	27.302717	0.000295	20.783063
2452.717208	-3.004000	3.153700	-9.472600	27.333061	0.000296	20.774232
2453.716267	-3.033000	3.151500	-9.557100	27.358960	0.000296	20.777052
2454.715441	-2.999700	3.152100	-9.454400	27.384810	0.000294	20.785987
2455.717629	-2.997900	3.151800	-9.447700	27.396761	0.000297	20.768612
2456.718198	-2.981000	3.151600	-9.394000	27.379650	0.000296	20.774632
2457.715973	-3.000100	3.152000	-9.453800	27.308898	0.000294	20.790704
2458.714215	-2.990800	3.151200	-9.423700	27.266549	0.000294	20.781769
2459.714009	-3.017700	3.147900	-9.497600	27.224295	0.000295	20.784787
2460.723594	-2.991600	3.148400	-9.417500	27.200906	0.000294	20.776434
2461.716622	-3.036300	3.147100	-9.554800	27.237126	0.000293	20.781571
2462.720275	-3.005700	3.147800	-9.460100	27.259105	0.000292	20.793722
2463.719845	-2.996600	3.146600	-9.428000	27.293741	0.000292	20.789681
2464.722727	-3.007700	3.145300	-9.459200	27.355989	0.000290	20.776434
2465.727546	-2.992200	3.146400	-9.412900	27.330954	0.000291	20.774957
2466.721667	-2.981800	3.144600	-9.375400	27.401757	0.000291	20.767948
2467.730338	-2.980800	3.143700	-9.369100	27.387986	0.000289	20.762155
2468.723106	-2.979800	3.144400	-9.368400	27.379630	0.000291	20.770344
2469.719240	-2.998200	3.141900	-9.419400	27.409515	0.000291	20.770537
2470.716960	-3.008000	3.141900	-9.449900	27.419934	0.000290	20.765371
2471.726303	-2.974200	3.142800	-9.345900	27.443007	0.000288	20.764876
2472.720434	-3.002600	3.139600	-9.425900	27.467957	0.000288	20.763899
2473.725203	-3.023900	3.138100	-9.488300	27.500476	0.000288	20.789978
2474.725681	-3.021600	3.138100	-9.480700	27.524417	0.000287	20.784668
2475.721313	-3.004800	3.137700	-9.427400	27.505685	0.000289	20.773881
2476.727306	-3.003400	3.136500	-9.418400	27.485395	0.000287	20.758683
2477.728260	-3.009200	3.136900	-9.438400	27.457171	0.000287	20.773436
2478.726471	-3.000800	3.136900	-9.412100	27.417999	0.000289	20.756312
2479.723190	-3.009600	3.135400	-9.435500	27.444245	0.000287	20.763276
2480.720279	-3.016700	3.134200	-9.454400	27.474433	0.000286	20.756663
2481.726622	-2.999300	3.134100	-9.398400	27.448487	0.000286	20.740042
2482.727326	-2.988600	3.134100	-9.365300	27.464953	0.000285	20.737168
2483.723890	-3.000900	3.132900	-9.399600	27.451359	0.000286	20.769960
2484.724920	-3.024400	3.130000	-9.464700	27.482612	0.000283	20.777695
2485.726624	-2.983100	3.131600	-9.340600	27.491370	0.000285	20.763272
2486.726080	-2.986100	3.130500	-9.347200	27.547996	0.000284	20.730154
2487.729447	-3.005000	3.128600	-9.400100	27.543853	0.000282	20.748272
2488.730678	-2.985100	3.129300	-9.339700	27.554446	0.000284	20.776475
2489.725406	-2.977400	3.128300	-9.312800	27.564888	0.000283	20.754263
2490.727579	-2.968200	3.128500	-9.283400	27.570764	0.000280	20.749744
2491.731905	-2.977800	3.127700	-9.312700	27.579943	0.000279	20.768937
2492.731938	-3.036800	3.124200	-9.486600	27.605709	0.000281	20.756456
2493.724788	-3.008000	3.124100	-9.395800	27.629869	0.000282	20.746627
2494.729619	-3.012600	3.124400	-9.411400	27.647583	0.000281	20.769668
2495.726066	-3.003700	3.123200	-9.380700	27.631213	0.000282	20.773584
2496.727369	-3.027900	3.122100	-9.452600	27.550209	0.000281	20.735226
2497.732018	-2.988900	3.121200	-9.327400	27.542128	0.000280	20.775461
2498.728664	-3.003200	3.120700	-9.371000	27.543071	0.000282	20.751278
2499.736068	-2.996500	3.119700	-9.346700	27.561253	0.000281	20.759141
2500.739510	-2.988600	3.119300	-9.320400	27.538805	0.000279	20.751728
2501.729805	-3.004500	3.118500	-9.368200	27.597318	0.000281	20.770299
2502.728795	-2.984000	3.117600	-9.302000	27.576829	0.000280	20.748260
2503.733667	-2.989100	3.116600	-9.314800	27.591639	0.000280	20.745143
2504.729156	-3.000800	3.115600	-9.347900	27.560335	0.000279	20.754898
2505.729861	-2.973200	3.117900	-9.268500	27.559250	0.000279	20.757125
2506.732839	-2.998000	3.114700	-9.337100	27.520877	0.000278	20.748862
2507.729724	-3.009300	3.113300	-9.366700	27.505673	0.000277	20.754429
2508.729613	-2.995400	3.111800	-9.320300	27.515049	0.000278	20.744422
2509.735188	-3.009800	3.111600	-9.364100	27.508014	0.000275	20.742084
2510.731944	-3.012200	3.109700	-9.366400	27.534400	0.000277	20.754882
2511.728837	-2.989100	3.110100	-9.295200	27.587922	0.000278	20.740929
2512.733861	-2.995400	3.109000	-9.312100	27.594897	0.000276	20.750318
2513.733625	-3.003300	3.107600	-9.331600	27.610869	0.000276	20.745053
2514.734480	-2.994100	3.107400	-9.302300	27.598716	0.000275	20.729504
2515.736032	-2.976800	3.107400	-9.249300	27.580985	0.000275	20.749122
2516.732462	-2.996500	3.104900	-9.303100	27.564869	0.000275	20.730535
2517.732883	-2.996100	3.103600	-9.297400	27.514218	0.000275	20.736472
2518.733099	-3.012100	3.103100	-9.345000	27.507895	0.000276	20.759035
2519.740263	-2.994700	3.103300	-9.292200	27.509858	0.000272	20.733982
2520.735147	-3.030000	3.100700	-9.394900	27.506088	0.000274	20.726395
2521.730944	-3.002100	3.101300	-9.309300	27.562168	0.000274	20.736353
2522.732739	-2.980400	3.100700	-9.240100	27.553518	0.000274	20.734288
2523.735595	-3.008800	3.099200	-9.324200	27.541020	0.000276	20.730247
2524.735398	-2.988800	3.098900	-9.260800	27.506121	0.000274	20.733067
2525.737700	-2.992400	3.097500	-9.267900	27.491192	0.000273	20.736539
2526.739294	-2.969300	3.097900	-9.198000	27.487254	0.000274	20.728784
2527.734545	-2.992300	3.096300	-9.264300	27.496577	0.000275	20.745751
2528.737234	-3.007600	3.093700	-9.304300	27.533582	0.000274	20.733670
2529.735848	-2.997300	3.093800	-9.271400	27.514494	0.000275	20.731534
2530.741954	-2.976000	3.094500	-9.208600	27.519531	0.000274	20.718583
2531.733091	-3.027600	3.091500	-9.358700	27.507720	0.000273	20.707648
2532.738297	-2.993900	3.090900	-9.252900	27.526276	0.000274	20.728215
2533.741092	-3.001200	3.090900	-9.275300	27.586302	0.000273	20.722228
2534.737464	-3.018800	3.090100	-9.327000	27.608651	0.000274	20.743768
2535.735762	-3.001900	3.088500	-9.270500	27.622783	0.000274	20.730487
2536.741140	-2.981000	3.087800	-9.203200	27.677575	0.000271	20.735835
2537.737761	-3.002300	3.087700	-9.268800	27.692305	0.000272	20.707034
2538.743461	-3.006800	3.084900	-9.274600	27.701774	0.000272	20.701863
2539.741965	-2.999300	3.085600	-9.254000	27.712292	0.000271	20.704386
2540.737074	-2.998100	3.084800	-9.247700	27.736494	0.000272	20.726846
2541.741162	-3.009600	3.082000	-9.274900	27.764268	0.000271	20.699319
2542.739245	-3.020200	3.081400	-9.304500	27.790133	0.000271	20.721556
2543.743791	-3.005300	3.080300	-9.256000	27.798937	0.000272	20.716666
2544.740754	-3.026100	3.078800	-9.316100	27.815103	0.000271	20.729617
2545.743685	-3.011900	3.078500	-9.271400	27.830155	0.000271	20.711099
2546.739139	-2.983700	3.078500	-9.184200	27.841389	0.000271	20.721457
2547.744478	-2.996600	3.078800	-9.224200	27.846370	0.000272	20.713668
2548.740799	-3.008900	3.075300	-9.252600	27.811064	0.000271	20.716542
2549.738913	-3.001400	3.074200	-9.226400	27.737240	0.000269	20.712423
2550.741056	-3.019300	3.072700	-9.276500	27.711575	0.000269	20.727849
2551.740879	-3.009200	3.072400	-9.244300	27.622542	0.000270	20.712699
2552.745040	-3.008300	3.072000	-9.240300	27.588068	0.000271	20.721161
2553.742917	-3.003500	3.071500	-9.224700	27.548615	0.000270	20.724612
2554.738815	-3.021800	3.069200	-9.274000	27.485038	0.000270	20.734141
2555.739222	-3.025300	3.066900	-9.276700	27.466957	0.000271	20.721639
2556.746192	-2.969100	3.069000	-9.111200	27.455998	0.000270	20.722468
2557.741454	-2.981400	3.067100	-9.143000	27.508459	0.000270	20.711236
2558.748900	-2.997700	3.066000	-9.189600	27.531404	0.000267	20.736219
2559.746974	-2.971000	3.065500	-9.106800	27.600010	0.000268	20.713261
2560.751048	-2.992900	3.064000	-9.169200	27.621362	0.000269	20.700606
2561.742801	-3.002700	3.061800	-9.192800	27.663895	0.000270	20.728233
2562.742110	-3.009300	3.061700	-9.212600	27.684632	0.000270	20.707373
2563.748756	-3.009600	3.061500	-9.212400	27.693736	0.000270	20.708474
2564.750864	-2.989600	3.061300	-9.151000	27.718336	0.000268	20.733230
2565.745513	-3.019900	3.059600	-9.238300	27.747676	0.000268	20.701588
2566.744368	-2.997300	3.057000	-9.162000	27.790327	0.000268	20.717958
2567.742958	-3.008300	3.056100	-9.193100	27.787102	0.000268	20.721351
2568.744414	-3.013500	3.055000	-9.205200	27.827424	0.000267	20.715463
2569.744435	-2.987200	3.055200	-9.125500	27.849993	0.000270	20.702615
2570.745641	-3.004300	3.053500	-9.172500	27.845253	0.000269	20.713492
2571.744250	-2.996600	3.053300	-9.148400	27.832979	0.000269	20.694500
2572.745189	-3.019200	3.051300	-9.210800	27.792015	0.000265	20.715389
2573.744910	-2.995400	3.050100	-9.135300	27.802753	0.000268	20.712919
2574.747727	-2.985300	3.049200	-9.102300	27.809054	0.000269	20.733961
2575.749155	-2.986900	3.048900	-9.106200	27.818899	0.000268	20.718737
2576.750506	-2.976000	3.047400	-9.068100	27.808234	0.000268	20.706582
2577.746818	-3.008600	3.045200	-9.159900	27.803076	0.000268	20.704710
2578.748049	-3.008500	3.044500	-9.158600	27.827978	0.000268	20.703691
2579.751405	-2.997000	3.043200	-9.119300	27.777938	0.000266	20.707386
2580.751050	-2.995300	3.042100	-9.111200	27.765860	0.000268	20.696653
2581.752738	-3.014400	3.039400	-9.161200	27.692635	0.000267	20.697882
2582.747777	-2.989100	3.040400	-9.087200	27.668034	0.000267	20.711535
2583.751321	-2.997200	3.038600	-9.106300	27.654615	0.000267	20.698979
2584.748377	-2.985000	3.038200	-9.068100	27.598888	0.000265	20.705494
2585.746867	-3.004100	3.037000	-9.122200	27.573966	0.000267	20.719773
2586.751166	-2.972000	3.035400	-9.019900	27.573470	0.000267	20.733974
2587.747712	-2.990800	3.033900	-9.073100	27.596036	0.000266	20.715427
2588.748868	-2.999000	3.032400	-9.093000	27.645691	0.000267	20.705646
2589.750314	-2.993100	3.031500	-9.071300	27.681085	0.000267	20.715184
2590.748827	-2.962800	3.032000	-8.981900	27.686518	0.000264	20.725394
2591.746900	-2.998200	3.028800	-9.080200	27.688796	0.000265	20.726738
2592.750901	-3.005600	3.028900	-9.102600	27.691034	0.000268	20.722825
2593.748891	-2.999600	3.027600	-9.079700	27.730540	0.000266	20.729389
2594.753843	-3.020900	3.024400	-9.135600	27.742339	0.000265	20.740316
2595.755722	-3.000600	3.025100	-9.076200	27.781426	0.000265	20.708525
2596.753499	-2.992800	3.022900	-9.046500	27.767139	0.000266	20.714063
2597.756422	-2.971400	3.022800	-8.981700	27.813935	0.000265	20.702835
2598.760463	-3.007200	3.021100	-9.083800	27.833021	0.000267	20.718726
2599.757062	-2.979500	3.019300	-8.994700	27.863526	0.000265	20.735677
2600.753460	-2.982900	3.018500	-9.003000	27.901608	0.000266	20.714260
2601.758285	-2.990600	3.017600	-9.024100	27.895086	0.000265	20.737570
2602.757041	-2.977300	3.017300	-8.982200	27.876639	0.000265	20.706673
2603.757995	-2.961800	3.015400	-8.928700	27.876565	0.000265	20.715609
2604.753168	-3.009600	3.013700	-9.069200	27.849064	0.000265	20.736770
2605.755439	-2.995400	3.013600	-9.026000	27.801058	0.000266	20.732077
2606.757328	-2.978200	3.011500	-8.967300	27.710299	0.000263	20.729410
2607.757304	-3.038000	3.008900	-9.140200	27.654099	0.000265	20.722643
2608.755581	-3.016700	3.008700	-9.075500	27.624388	0.000263	20.727834
2609.754539	-2.975300	3.008000	-8.948500	27.599138	0.000264	20.735619
2610.755655	-3.006600	3.005300	-9.035000	27.619573	0.000264	20.713505
2611.755875	-2.984800	3.006100	-8.971000	27.678975	0.000263	20.737718
2612.760632	-3.017900	3.005300	-9.067200	27.713818	0.000263	20.729158
2613.757650	-2.982100	3.004600	-8.958500	27.776538	0.000264	20.729686
2614.756973	-2.995700	3.001800	-8.991600	27.827692	0.000263	20.709568
2615.757226	-2.972400	3.000400	-8.917100	27.825061	0.000263	20.723991
2616.761548	-2.986400	2.999700	-8.956600	27.804110	0.000265	20.704327
2617.762088	-2.994200	2.998300	-8.977100	27.776111	0.000263	20.738740
2618.759843	-3.012400	2.997300	-9.027900	27.771129	0.000263	20.711440
2619.758868	-3.030100	2.994900	-9.074000	27.746334	0.000263	20.723946
2620.759664	-3.003100	2.993900	-8.990500	27.764812	0.000262	20.737327
2621.758663	-2.994000	2.993100	-8.960400	27.733273	0.000265	20.734985
2622.757911	-3.019700	2.991200	-9.031600	27.713360	0.000265	20.726800
2623.762845	-3.019500	2.989200	-9.024700	27.700667	0.000264	20.731097
2624.760157	-2.998700	2.988900	-8.962000	27.692755	0.000264	20.727403
2625.773731	-3.007300	2.988000	-8.984200	27.684995	0.000265	20.727654
2626.761161	-3.003400	2.985700	-8.965800	27.722072	0.000264	20.739835
2627.767938	-2.985800	2.985900	-8.914000	27.744893	0.000262	20.720126
2628.767195	-3.008700	2.983500	-8.975500	27.728726	0.000263	20.745109
2629.761937	-2.996600	2.982200	-8.936000	27.750326	0.000264	20.732232
2630.763345	-3.003900	2.980100	-8.950700	27.765830	0.000264	20.725548
2631.762604	-2.994600	2.979300	-8.921300	27.803895	0.000262	20.730191
2632.764768	-3.012500	2.977600	-8.969300	27.835863	0.000263	20.740554
2633.762832	-3.007400	2.977000	-8.952300	27.853099	0.000263	20.711905
2634.768395	-2.987900	2.977500	-8.896100	27.890817	0.000262	20.726160
2635.771229	-2.998300	2.974500	-8.917700	27.907747	0.000264	20.736088
2636.764504	-2.974500	2.972200	-8.839800	27.939319	0.000263	20.738942
2637.770350	-3.034500	2.970600	-9.013100	27.971647	0.000262	20.749196
2638.767844	-3.008200	2.969000	-8.929400	28.022943	0.000263	20.729232
2639.768566	-2.981000	2.967900	-8.846500	27.991486	0.000264	20.730283
2640.764076	-2.986200	2.966600	-8.858000	27.937169	0.000265	20.714491
2641.766185	-2.988000	2.965200	-8.858900	27.911206	0.000263	20.726766
2642.764116	-2.978400	2.965100	-8.828800	27.876049	0.000263	20.753024
2643.772944	-2.982500	2.961800	-8.831600	27.868782	0.000263	20.755666
2644.768704	-3.005600	2.961300	-8.899700	27.858122	0.000265	20.739248
2645.772233	-3.003200	2.959000	-8.885200	27.843620	0.000263	20.724652
2646.768961	-3.018700	2.957800	-8.928100	27.850015	0.000263	20.713069
2647.768608	-3.015700	2.956300	-8.914600	27.865341	0.000263	20.720908
2648.771812	-2.977600	2.956000	-8.800900	27.882276	0.000263	20.736057
2649.772620	-3.005600	2.954700	-8.878500	27.882973	0.000265	20.746241
2650.772211	-3.013300	2.952400	-8.896000	27.897626	0.000264	20.757197
2651.772284	-2.997800	2.950300	-8.843800	27.892473	0.000263	20.754381
2652.767166	-2.994100	2.948300	-8.826800	27.880671	0.000264	20.740605
2653.767054	-3.015200	2.947700	-8.887100	27.913177	0.000263	20.749140
2654.769402	-2.997800	2.945500	-8.829000	27.942557	0.000261	20.742201
2655.769364	-2.987500	2.945600	-8.799300	27.955903	0.000263	20.755635
2656.769023	-2.988400	2.942400	-8.792200	28.014090	0.000263	20.718422
2657.768273	-3.013500	2.941200	-8.861400	28.052818	0.000262	20.742709
2658.771766	-3.039700	2.939200	-8.933400	28.094170	0.000262	20.737394
2659.769853	-3.024200	2.938100	-8.884100	28.145063	0.000262	20.738367
2660.771720	-2.993300	2.937800	-8.792800	28.176750	0.000261	20.735180
2661.770737	-2.983500	2.935400	-8.756200	28.166467	0.000262	20.736681
2662.773238	-3.006500	2.934300	-8.821100	28.150625	0.000262	20.744441
2663.776992	-2.983000	2.933100	-8.749000	28.170235	0.000264	20.750907
2664.774074	-2.982300	2.930800	-8.739300	28.184364	0.000262	20.752329
2665.771185	-2.994500	2.928700	-8.769400	28.155860	0.000262	20.754927
2666.777018	-2.991700	2.928200	-8.759100	28.179909	0.000261	20.734093
2667.776121	-2.980000	2.926300	-8.719500	28.179786	0.000260	20.750091
2668.771806	-2.993600	2.925200	-8.756200	28.147264	0.000262	20.735841
2669.771923	-3.008900	2.923500	-8.795600	28.100094	0.000264	20.751893
2670.775497	-3.019500	2.921600	-8.821000	28.114548	0.000264	20.729459
2671.776078	-2.975400	2.921100	-8.690800	28.144918	0.000264	20.747230
2672.773882	-3.000800	2.919000	-8.758400	28.155800	0.000262	20.721200
2673.773654	-3.025000	2.914700	-8.816000	28.161751	0.000262	20.766073
2674.775382	-3.018100	2.913800	-8.793300	28.161476	0.000263	20.766271
2675.776433	-2.992700	2.914000	-8.719900	28.148907	0.000262	20.739392
2676.774474	-2.982600	2.910500	-8.679400	28.167775	0.000264	20.745111
2677.777650	-2.983300	2.910300	-8.681500	28.209270	0.000261	20.745635
2678.780077	-2.996700	2.907700	-8.711200	28.215888	0.000262	20.752772
2679.778770	-2.971200	2.907400	-8.636800	28.193232	0.000260	20.739446
2680.777000	-2.990300	2.905400	-8.686600	28.125189	0.000261	20.745862
2681.779427	-2.999900	2.903000	-8.707400	28.064248	0.000261	20.764646
2682.777097	-2.978400	2.901100	-8.640000	28.073427	0.000260	20.769620
2683.776529	-3.012800	2.899100	-8.733700	28.064826	0.000261	20.735356
2684.781576	-3.023400	2.897400	-8.759100	28.061229	0.000262	20.745486
2685.773849	-3.018400	2.895400	-8.737200	28.085379	0.000263	20.743718
2686.782245	-2.945500	2.897000	-8.531100	28.106427	0.000262	20.743095
2687.778740	-3.002700	2.891800	-8.681900	28.116564	0.000264	20.751878
2688.780238	-2.992200	2.890600	-8.648200	28.130149	0.000264	20.762709
2689.785770	-2.986100	2.889400	-8.626700	28.133922	0.000263	20.736634
2690.779521	-3.010400	2.886100	-8.685700	28.179480	0.000262	20.727971
2691.776933	-3.004500	2.885700	-8.669300	28.198471	0.000263	20.768429
2692.778578	-3.004600	2.884200	-8.664000	28.197853	0.000264	20.755952
2693.781678	-3.012900	2.881800	-8.682000	28.245022	0.000259	20.770251
2694.788773	-3.008800	2.880700	-8.665600	28.275491	0.000260	20.765366
2695.788122	-2.984200	2.879600	-8.592400	28.290630	0.000263	20.773022
2696.788389	-2.986600	2.876200	-8.588900	28.288054	0.000262	20.759997
2697.784492	-2.978100	2.875700	-8.563000	28.291282	0.000261	20.771307
2698.782341	-3.000900	2.873100	-8.620700	28.278071	0.000261	20.768438
2699.783525	-2.995300	2.870100	-8.595300	28.241239	0.000260	20.792521
2700.781075	-3.015900	2.868500	-8.650200	28.236682	0.000261	20.732929
2701.785373	-2.964600	2.868700	-8.503700	28.168514	0.000260	20.749174
2702.791143	-2.970600	2.866500	-8.514600	28.176025	0.000261	20.755314
2703.787133	-3.003000	2.863700	-8.598800	28.178679	0.000262	20.776952
2704.781912	-3.006800	2.861100	-8.601900	28.191891	0.000264	20.773184
2705.787909	-3.011700	2.858100	-8.607000	28.158083	0.000263	20.770442
2706.786221	-2.983600	2.857200	-8.522800	28.139268	0.000262	20.765251
2707.785414	-3.009300	2.854700	-8.588800	28.103889	0.000263	20.791276
2708.787021	-2.986100	2.853200	-8.518900	28.138768	0.000262	20.756687
2709.785648	-2.993300	2.851500	-8.533100	28.152108	0.000261	20.781971
2710.788870	-3.022400	2.848400	-8.607400	28.176501	0.000265	20.762905
2711.783665	-3.007500	2.847100	-8.561400	28.156499	0.000264	20.775959
2712.790117	-2.987400	2.844900	-8.498100	28.190478	0.000261	20.765123
2713.782200	-3.014200	2.839900	-8.558900	28.203837	0.000261	20.761503
2714.782793	-3.010000	2.838400	-8.542200	28.240376	0.000261	20.769366
2715.790549	-2.969900	2.838200	-8.427900	28.192313	0.000262	20.764600
2716.786436	-3.013100	2.836300	-8.545100	28.176869	0.000263	20.784139
2717.786167	-2.988600	2.836000	-8.474200	28.139784	0.000263	20.782366
2718.784831	-2.996400	2.832300	-8.485000	28.131978	0.000260	20.776878
2719.784935	-3.029200	2.828700	-8.567100	28.155847	0.000261	20.762501
2720.787968	-2.989400	2.828200	-8.452500	28.142654	0.000262	20.762970
2721.790569	-2.992700	2.825500	-8.455100	28.083533	0.000265	20.788328
2722.787606	-2.982800	2.823700	-8.420600	28.017691	0.000262	20.774206
2723.792694	-3.004400	2.821400	-8.475200	27.981665	0.000261	20.764970
2724.788119	-3.012200	2.817100	-8.484900	27.999737	0.000264	20.767040
2725.794630	-3.017700	2.815000	-8.494100	28.040669	0.000260	20.789276
2726.798341	-3.018400	2.814000	-8.493600	28.081874	0.000263	20.793296
2727.791517	-2.982200	2.811300	-8.382200	28.145284	0.000263	20.792645
2728.788169	-3.008400	2.810600	-8.454200	28.164516	0.000262	20.786876
2729.789570	-3.001400	2.807600	-8.425100	28.139436	0.000264	20.787231
2730.788531	-2.977300	2.805100	-8.351000	28.157603	0.000262	20.777072
2731.788706	-2.970600	2.803000	-8.325700	28.118118	0.000264	20.773831
2732.794042	-2.997000	2.798600	-8.386000	28.068538	0.000263	20.779397
2733.792500	-3.001200	2.796500	-8.392500	28.041096	0.000263	20.782593
2734.792678	-3.029100	2.793100	-8.459500	28.028299	0.000262	20.786782
2735.796267	-3.007700	2.792400	-8.397500	27.999393	0.000264	20.774755
2736.792189	-2.994800	2.789200	-8.351900	28.002765	0.000263	20.802330
2737.792426	-3.013600	2.785200	-8.392900	28.007823	0.000263	20.784188
2738.791857	-2.995100	2.783300	-8.335100	28.104090	0.000263	20.798117
2739.792001	-2.980900	2.781300	-8.289600	28.158775	0.000261	20.797218
2740.791342	-3.022600	2.777200	-8.393400	28.181137	0.000263	20.788436
2741.792374	-3.003300	2.775100	-8.333500	28.233517	0.000264	20.807031
2742.792564	-2.974100	2.772300	-8.244200	28.276299	0.000263	20.784198
2743.793366	-2.998200	2.768400	-8.299600	28.301778	0.000263	20.782350
2744.798615	-2.984500	2.768100	-8.259400	28.369437	0.000262	20.812069
2745.795067	-3.028800	2.762100	-8.364600	28.391054	0.000262	20.794007
2746.794491	-3.034000	2.759700	-8.371700	28.411944	0.000263	20.800344
2747.795907	-3.038100	2.758000	-8.378000	28.412219	0.000262	20.805836
2748.798032	-2.967100	2.758300	-8.182800	28.430607	0.000261	20.795903
2749.797904	-2.994900	2.752200	-8.241200	28.426300	0.000261	20.791566
2750.801176	-2.978100	2.749900	-8.189100	28.421714	0.000261	20.804966
2751.799758	-3.015700	2.744800	-8.275500	28.433760	0.000261	20.815674
2752.799347	-2.993200	2.742700	-8.208500	28.440259	0.000260	20.789501
2753.799646	-3.034300	2.738800	-8.309300	28.389105	0.000260	20.801528
2754.799515	-3.008800	2.735800	-8.230200	28.319888	0.000262	20.804378
2755.805765	-2.995600	2.734300	-8.190300	28.287640	0.000262	20.800831
2756.808347	-2.980700	2.730900	-8.138500	28.312623	0.000260	20.780942
2757.801384	-2.982600	2.727700	-8.134200	28.353744	0.000262	20.810492
2758.808023	-3.003500	2.721800	-8.174000	28.411619	0.000262	20.791481
2759.800461	-2.968200	2.721000	-8.075200	28.441852	0.000262	20.802011
2760.802099	-2.957600	2.716800	-8.033400	28.470775	0.000261	20.793679
2761.803133	-3.009300	2.711800	-8.159700	28.520189	0.000261	20.823051
2762.804644	-2.983800	2.709000	-8.082100	28.541650	0.000262	20.807681
2763.802563	-3.018600	2.705500	-8.166200	28.552601	0.000261	20.829615
2764.804430	-2.993200	2.703700	-8.091500	28.523685	0.000263	20.817090
2765.802333	-2.983200	2.699900	-8.053300	28.490658	0.000262	20.800899
2766.799932	-3.003500	2.694600	-8.092000	28.469396	0.000262	20.803670
2767.806457	-2.970200	2.692700	-7.996300	28.465134	0.000261	20.785627
2768.802652	-3.014100	2.686600	-8.095600	28.531056	0.000261	20.828305
2769.801848	-2.994400	2.683400	-8.034100	28.541934	0.000262	20.814131
2770.801629	-2.999500	2.680300	-8.039000	28.572463	0.000263	20.812160
2771.803157	-3.026100	2.674800	-8.093500	28.548996	0.000262	20.799906
2772.814085	-3.015500	2.671000	-8.052800	28.586444	0.000262	20.794947
2773.811582	-3.004800	2.668700	-8.018200	28.613725	0.000263	20.799664
2774.803484	-3.025200	2.663100	-8.055100	28.589813	0.000261	20.813513
2775.803891	-2.974600	2.662000	-7.917400	28.612784	0.000264	20.820052
2776.804541	-3.020700	2.655200	-8.019500	28.655129	0.000263	20.815286
2777.803070	-3.008200	2.650500	-7.972900	28.698963	0.000262	20.808228
2778.803626	-3.025300	2.647100	-8.006500	28.715611	0.000264	20.808401
2779.805016	-3.007900	2.643200	-7.949300	28.752558	0.000263	20.821908
2780.808870	-2.994500	2.640200	-7.904900	28.765591	0.000264	20.798053
2781.806950	-2.996600	2.634200	-7.892700	28.738338	0.000263	20.800947
2782.806621	-3.011100	2.629400	-7.916200	28.724986	0.000265	20.818792
2783.808479	-2.983600	2.625300	-7.832100	28.723897	0.000264	20.827178
2784.806473	-3.003200	2.620300	-7.868700	28.663666	0.000265	20.844272
2785.806053	-3.017200	2.615300	-7.890000	28.605392	0.000264	20.818772
2786.813097	-2.979500	2.612000	-7.781500	28.581730	0.000264	20.820545
2787.808429	-3.003800	2.605000	-7.824300	28.610080	0.000265	20.808320
2788.806013	-3.001000	2.600600	-7.804200	28.592063	0.000265	20.809140
2789.809787	-3.017400	2.594000	-7.826600	28.634708	0.000263	20.827908
2790.809102	-2.992100	2.589700	-7.747500	28.670094	0.000264	20.823246
2791.807714	-2.997500	2.583300	-7.742700	28.658947	0.000265	20.821028
2792.811989	-3.014600	2.579800	-7.775200	28.670917	0.000265	20.845886
2793.813346	-2.998700	2.573800	-7.717200	28.740116	0.000263	20.837825
2794.809485	-3.009400	2.569100	-7.729800	28.760328	0.000265	20.824994
2795.814680	-2.975000	2.563900	-7.626900	28.805320	0.000264	20.834279
2796.809786	-2.991700	2.556600	-7.647800	28.866166	0.000263	20.829192
2797.807528	-2.993800	2.552600	-7.641500	28.912840	0.000262	20.837805
2798.812590	-3.023100	2.544100	-7.689900	28.938397	0.000264	20.833207
2799.807868	-2.989300	2.540600	-7.593000	28.892675	0.000262	20.832664
2800.808770	-3.003100	2.534300	-7.609700	28.901269	0.000265	20.819986
2801.814727	-3.000100	2.528100	-7.583300	28.882095	0.000263	20.838126
2802.807137	-3.025500	2.520700	-7.624700	28.907986	0.000264	20.856148
2803.809992	-3.012400	2.514800	-7.574300	28.932112	0.000266	20.840625
2804.807717	-3.016800	2.509400	-7.569700	28.899911	0.000264	20.841850
2805.813904	-3.012700	2.503400	-7.541000	28.920100	0.000263	20.848438
2806.813461	-2.992500	2.498700	-7.476300	28.949702	0.000264	20.846018
