LabVIEW Measurement	
Writer_Version	2
Reader_Version	2
Separator	Tab
Decimal_Separator	.
Multi_Headings	No
X_Columns	One
Time_Pref	Absolute
Operator	admin
Description	Clolumns are: time, Current, Voltage, Power, Battery Temp, and Chamber Temp
Date	2024/08/16
Time	13:06:06.104549407958984375
***End_of_Header***	
	
Channels	6						
Samples	1	1	1	1	1	1	
Date	2024/09/08	2024/09/08	2024/09/08	2024/09/08	2024/09/08	2024/09/08	
Time	01:22:12.1133809089660644531	01:22:12.1193695068359375	01:22:12.1253695487976074219	01:22:12.0964145660400390625	01:22:12.0964145660400390625	01:22:12.0964145660400390625	
X_Dimension	Time	Time	Time	Time	Time	Time	
X0	0.0000000000000000E+0	0.0000000000000000E+0	0.0000000000000000E+0	0.0000000000000000E+0	0.0000000000000000E+0	0.0000000000000000E+0	
Delta_X	1.000000	1.000000	1.000000	1.000000	1.000000	1.000000	
***End_of_Header***							
X_Value	Untitled	Untitled 1	Untitled 2	Untitled 3	Untitled 4	Untitled 5	Comment
0.000000	3.400000E+38	4.095600	0.212720	20.958650	0.000917	20.736756
1.003305	-2.989900	3.926200	-11.737000	20.963990	0.000913	20.743045
2.000473	-3.011700	3.916700	-11.796000	20.977789	0.000917	20.738354
3.003146	-3.024600	3.911200	-11.829000	20.954807	0.000914	20.750931
4.003111	-3.012600	3.907600	-11.771000	20.957080	0.000913	20.708157
5.000707	-2.991300	3.906300	-11.684000	20.978064	0.000911	20.735784
6.001227	-2.994500	3.901700	-11.682000	20.962369	0.000910	20.723405
7.001108	-2.983200	3.900900	-11.636000	20.985000	0.000914	20.734660
8.001474	-2.997100	3.897900	-11.681000	20.979388	0.000910	20.729996
9.002458	-2.985500	3.896400	-11.631000	20.973548	0.000905	20.708032
10.000232	-2.999000	3.894400	-11.679000	20.981034	0.000907	20.735436
11.003972	-2.983400	3.892500	-11.611000	20.982682	0.000908	20.753205
12.002466	-2.969600	3.891300	-11.555000	20.985401	0.000907	20.744545
13.005541	-3.016100	3.888300	-11.726000	20.990192	0.000909	20.726576
14.002700	-3.020800	3.886600	-11.739000	20.997427	0.000906	20.730968
15.001624	-2.996100	3.887200	-11.644000	21.009754	0.000905	20.736659
16.002338	-3.002800	3.886100	-11.668000	20.997378	0.000905	20.732816
17.002034	-2.976200	3.883900	-11.558000	20.993859	0.000901	20.725977
18.002247	-2.992500	3.883200	-11.618000	20.991140	0.000902	20.727051
19.003461	-2.997700	3.880500	-11.631000	21.016516	0.000902	20.732991
20.004881	-2.983400	3.881700	-11.580000	21.021206	0.000902	20.714448
21.004061	-3.017700	3.879300	-11.705000	21.037699	0.000902	20.734264
22.005001	-3.028200	3.879000	-11.746000	21.042565	0.000903	20.734864
23.003173	-3.014200	3.878300	-11.688000	21.018262	0.000900	20.744695
24.004900	-2.985700	3.878300	-11.578000	21.028592	0.000900	20.739380
25.008073	-2.985600	3.877200	-11.574000	21.049003	0.000899	20.745097
26.003204	-2.984700	3.876600	-11.569000	21.058808	0.000898	20.730247
27.006813	-2.995300	3.876300	-11.610000	21.069087	0.000901	20.740529
28.005020	-2.982300	3.876000	-11.558000	21.081612	0.000898	20.737410
29.012448	-3.000000	3.873200	-11.618000	21.057611	0.000898	20.742327
30.007346	-3.014800	3.873600	-11.677000	21.088797	0.000895	20.743649
31.009538	-3.007200	3.872100	-11.644000	21.103842	0.000897	20.740206
32.005792	-3.015200	3.872600	-11.676000	21.102070	0.000897	20.747917
33.006494	-3.023600	3.870500	-11.701000	21.105715	0.000896	20.719792
34.005679	-3.024500	3.871000	-11.706000	21.118063	0.000897	20.736412
35.007182	-2.981800	3.873100	-11.546000	21.129441	0.000893	20.749216
36.007337	-2.986600	3.870800	-11.560000	21.120409	0.000896	20.737811
37.005336	-3.019400	3.869100	-11.682000	21.148201	0.000894	20.737636
38.007177	-2.988000	3.869800	-11.561000	21.153116	0.000895	20.742079
39.005042	-3.001300	3.867900	-11.607000	21.161300	0.000894	20.747894
40.005352	-2.976000	3.868500	-11.511000	21.146581	0.000892	20.748818
41.008787	-2.983800	3.867900	-11.540000	21.167937	0.000895	20.740782
42.005514	-3.018900	3.866100	-11.669000	21.155937	0.000892	20.743951
43.006149	-3.004200	3.866400	-11.614000	21.156037	0.000892	20.754009
44.007008	-3.001500	3.866500	-11.605000	21.178240	0.000894	20.761521
45.007216	-2.993900	3.866000	-11.572000	21.160104	0.000894	20.732946
46.006698	-2.996000	3.865600	-11.579000	21.157235	0.000893	20.745724
47.006692	-2.996500	3.864800	-11.579000	21.190440	0.000894	20.753810
48.004027	-3.009300	3.865600	-11.632000	21.195528	0.000892	20.744202
49.005042	-3.003900	3.864800	-11.608000	21.182956	0.000891	20.754858
50.006552	-2.982600	3.866000	-11.529000	21.209300	0.000894	20.740908
51.013799	-3.001200	3.863600	-11.594000	21.220776	0.000893	20.733422
52.009152	-3.007200	3.863400	-11.616000	21.208153	0.000892	20.766315
53.012637	-3.002600	3.864500	-11.603000	21.230903	0.000893	20.730276
54.007045	-3.029400	3.861600	-11.696000	21.241506	0.000891	20.743728
55.006912	-2.997100	3.862200	-11.574000	21.229781	0.000891	20.753811
56.007147	-2.987500	3.862300	-11.536000	21.240109	0.000893	20.754659
57.009466	-3.003300	3.860600	-11.594000	21.274534	0.000894	20.759701
58.008570	-3.001800	3.860400	-11.587000	21.282342	0.000894	20.757080
59.009650	-3.006400	3.860600	-11.605000	21.268273	0.000890	20.751540
60.007837	-2.994500	3.861700	-11.562000	21.285310	0.000891	20.755783
61.010605	-2.991800	3.860900	-11.550000	21.273637	0.000890	20.736517
62.016987	-3.023800	3.859700	-11.669000	21.277129	0.000892	20.756133
63.012042	-2.994600	3.860100	-11.557000	21.295838	0.000891	20.758729
64.021833	-2.997900	3.860300	-11.572000	21.279998	0.000891	20.771806
65.011292	-3.015800	3.859300	-11.638000	21.319012	0.000890	20.756308
66.011213	-3.027600	3.856600	-11.674000	21.300852	0.000890	20.749520
67.012189	-3.034500	3.856600	-11.702000	21.329612	0.000891	20.777345
68.016583	-2.979000	3.858100	-11.492000	21.338967	0.000891	20.750668
69.013535	-3.013800	3.857400	-11.623000	21.345452	0.000888	20.748147
70.015232	-3.000700	3.858800	-11.578000	21.337445	0.000890	20.754362
71.014437	-2.994200	3.856500	-11.546000	21.349169	0.000892	20.750917
72.014094	-2.979500	3.857900	-11.494000	21.363163	0.000891	20.745004
73.020266	-3.006300	3.856800	-11.593000	21.351489	0.000892	20.776473
74.014884	-3.009100	3.856400	-11.603000	21.361117	0.000890	20.763346
75.017390	-3.003100	3.856200	-11.580000	21.380497	0.000891	20.763296
76.017439	-3.008600	3.855400	-11.597000	21.388555	0.000892	20.747649
77.016515	-2.996500	3.856100	-11.552000	21.386235	0.000889	20.747699
78.019436	-3.024700	3.854000	-11.656000	21.411426	0.000891	20.772430
79.018313	-3.012800	3.855300	-11.614000	21.415491	0.000892	20.764169
80.017755	-3.028000	3.854700	-11.670000	21.425044	0.000890	20.756183
81.019939	-3.007300	3.854800	-11.591000	21.420955	0.000890	20.744505
82.017566	-3.010900	3.855100	-11.606000	21.439511	0.000891	20.761649
83.018245	-2.999900	3.854000	-11.561000	21.442530	0.000891	20.761824
84.019523	-2.994100	3.854200	-11.538000	21.468617	0.000890	20.768961
85.018996	-2.991400	3.854600	-11.528000	21.480864	0.000893	20.769835
86.025225	-2.986500	3.853900	-11.509000	21.480865	0.000892	20.762250
87.017163	-3.002500	3.853900	-11.569000	21.491040	0.000891	20.772905
88.018909	-3.004600	3.852100	-11.574000	21.503036	0.000889	20.744604
89.024695	-2.997200	3.852600	-11.546000	21.512913	0.000892	20.782938
90.018329	-2.999500	3.852800	-11.556000	21.503011	0.000892	20.776822
91.018507	-3.021400	3.850400	-11.633000	21.521269	0.000890	20.758581
92.020482	-3.012100	3.850700	-11.597000	21.525159	0.000891	20.773380
93.023630	-2.993200	3.852000	-11.529000	21.532840	0.000892	20.766841
94.019569	-2.990400	3.851300	-11.516000	21.541095	0.000891	20.775576
95.024361	-3.017800	3.850200	-11.619000	21.539424	0.000893	20.765369
96.033873	-3.033700	3.850100	-11.677000	21.561820	0.000891	20.767864
97.021163	-3.020100	3.849300	-11.624000	21.555062	0.000889	20.787181
98.022217	-2.999700	3.850500	-11.550000	21.557206	0.000895	20.786008
99.025243	-3.023400	3.849400	-11.636000	21.597283	0.000890	20.771110
100.024386	-2.999800	3.850000	-11.547000	21.591223	0.000894	20.783538
101.024015	-2.997300	3.848800	-11.535000	21.616734	0.000894	20.758805
102.024558	-2.993300	3.849300	-11.521000	21.627483	0.000890	20.785684
103.022840	-2.959600	3.850900	-11.396000	21.633916	0.000895	20.765095
104.022790	-2.961700	3.850600	-11.403000	21.638006	0.000896	20.790525
105.027053	-3.018300	3.849600	-11.617000	21.632171	0.000893	20.764770
106.026285	-2.992300	3.849800	-11.518000	21.646410	0.000893	20.793719
107.030000	-3.000800	3.848800	-11.549000	21.651173	0.000894	20.797063
108.021721	-3.025200	3.847500	-11.637000	21.646684	0.000893	20.788778
109.023456	-3.016800	3.847700	-11.607000	21.652869	0.000894	20.809666
110.024568	-2.974300	3.849100	-11.447000	21.665188	0.000893	20.794494
111.024155	-2.990100	3.848700	-11.506000	21.674714	0.000896	20.783638
112.023467	-3.030800	3.845900	-11.654000	21.670350	0.000894	20.781641
113.025546	-3.014600	3.847700	-11.598000	21.701146	0.000895	20.788280
114.034744	-3.018800	3.846300	-11.610000	21.699401	0.000894	20.778472
115.025971	-2.969900	3.849100	-11.430000	21.705335	0.000899	20.790575
116.030716	-2.999000	3.846200	-11.534000	21.710672	0.000894	20.776001
117.026130	-2.986500	3.846800	-11.487000	21.704164	0.000897	20.784661
118.028574	-3.003600	3.845200	-11.548000	21.706359	0.000897	20.783539
119.026628	-2.981900	3.845800	-11.466000	21.732965	0.000895	20.799261
120.025158	-2.986500	3.846600	-11.487000	21.745557	0.000897	20.791475
121.029635	-2.980300	3.846700	-11.463000	21.756130	0.000895	20.807746
122.028477	-2.989600	3.845700	-11.496000	21.743638	0.000900	20.775804
123.027150	-2.983900	3.846300	-11.476000	21.764907	0.000899	20.794246
124.027636	-3.008600	3.845100	-11.568000	21.773111	0.000897	20.786335
125.028548	-2.996700	3.844500	-11.520000	21.736457	0.000898	20.786634
126.029220	-3.021600	3.843600	-11.612000	21.758051	0.000900	20.810143
127.030658	-2.993600	3.843300	-11.505000	21.779070	0.000898	20.781868
128.029178	-2.980000	3.845600	-11.458000	21.774807	0.000899	20.793723
129.035275	-3.008100	3.843200	-11.558000	21.784755	0.000901	20.801308
130.029936	-2.982100	3.843000	-11.459000	21.783560	0.000898	20.817181
131.035102	-2.995400	3.842900	-11.510000	21.793109	0.000901	20.790703
132.033163	-2.984200	3.843300	-11.467000	21.801013	0.000900	20.821373
133.031072	-3.007400	3.841800	-11.552000	21.814078	0.000900	20.792724
134.030861	-2.991800	3.842200	-11.494000	21.817793	0.000901	20.792649
135.030350	-2.986700	3.841700	-11.474000	21.855716	0.000899	20.806425
136.031832	-3.003600	3.841800	-11.539000	21.868506	0.000901	20.794571
137.035487	-2.991200	3.842400	-11.492000	21.854296	0.000902	20.801210
138.032408	-3.005100	3.841400	-11.541000	21.890972	0.000901	20.827014
139.033986	-3.010500	3.840300	-11.560000	21.900595	0.000900	20.815784
140.032166	-2.982300	3.842200	-11.458000	21.903512	0.000903	20.826764
141.033445	-3.000900	3.839900	-11.522000	21.907975	0.000904	20.809895
142.032835	-2.979700	3.841200	-11.444000	21.903837	0.000902	20.811917
143.036348	-3.011400	3.839800	-11.562000	21.910294	0.000903	20.787560
144.033999	-2.991000	3.840400	-11.485000	21.910592	0.000903	20.814885
145.032465	-3.009700	3.838900	-11.552000	21.930114	0.000903	20.799813
146.034080	-2.994900	3.839600	-11.497000	21.938815	0.000904	20.821799
147.035669	-2.982500	3.839700	-11.450000	21.943453	0.000907	20.837346
148.041292	-3.006700	3.838900	-11.541000	21.943777	0.000903	20.808274
149.037826	-2.999700	3.840400	-11.519000	21.934628	0.000903	20.828987
150.039375	-3.017200	3.838500	-11.578000	21.936298	0.000904	20.824969
151.038345	-3.010100	3.839100	-11.555000	21.956491	0.000904	20.818630
152.039037	-3.014600	3.838000	-11.569000	21.954422	0.000905	20.822723
153.041079	-2.988800	3.838900	-11.472000	21.967262	0.000907	20.816609
154.040112	-3.019800	3.838600	-11.591000	21.946894	0.000905	20.833678
155.038425	-2.982600	3.837700	-11.445000	21.965043	0.000905	20.817233
156.039687	-3.004900	3.838000	-11.531000	22.003709	0.000909	20.838869
157.037906	-3.004100	3.837200	-11.527000	22.015376	0.000904	20.842488
158.037810	-2.995700	3.837300	-11.495000	22.026295	0.000909	20.827341
159.041217	-3.014600	3.836100	-11.562000	22.014928	0.000909	20.838720
160.039021	-3.000200	3.835700	-11.507000	22.029511	0.000908	20.819180
161.045705	-2.996400	3.836400	-11.494000	22.016199	0.000908	20.821027
162.042969	-3.003400	3.835400	-11.517000	22.019167	0.000911	20.829213
163.042192	-2.993100	3.836100	-11.480000	22.017021	0.000912	20.863574
164.048058	-3.025600	3.835200	-11.602000	22.012908	0.000909	20.824371
165.040324	-3.013800	3.835900	-11.559000	22.034372	0.000911	20.806029
166.040236	-2.985300	3.835700	-11.449000	22.053742	0.000913	20.806453
167.039219	-2.974700	3.837000	-11.411000	22.059900	0.000909	20.825894
168.038936	-2.984700	3.833900	-11.441000	22.071616	0.000914	20.835726
169.040582	-2.989900	3.836500	-11.469000	22.066903	0.000914	20.831009
170.046434	-2.988700	3.833600	-11.455000	22.053717	0.000914	20.825394
171.040034	-3.011800	3.834500	-11.549000	22.072613	0.000911	20.828190
172.041217	-2.976100	3.835900	-11.413000	22.085251	0.000912	20.822824
173.039966	-3.003900	3.834300	-11.516000	22.061645	0.000914	20.832856
174.042455	-3.002700	3.833600	-11.510000	22.074531	0.000914	20.853817
175.054353	-2.996200	3.834300	-11.487000	22.078247	0.000913	20.836200
176.042730	-2.989600	3.834100	-11.461000	22.101454	0.000916	20.852795
177.043830	-3.009400	3.831900	-11.529000	22.089464	0.000914	20.827990
178.042088	-2.999200	3.833400	-11.495000	22.131690	0.000915	20.853194
179.043889	-3.009800	3.831800	-11.531000	22.138818	0.000916	20.843261
180.044859	-3.011300	3.833700	-11.543000	22.156865	0.000919	20.846630
181.046797	-3.002500	3.831800	-11.504000	22.159582	0.000917	20.847454
182.042666	-2.994200	3.833000	-11.475000	22.182663	0.000918	20.836898
183.045105	-3.017500	3.830500	-11.558000	22.187923	0.000919	20.839793
184.042285	-2.998300	3.832800	-11.491000	22.202329	0.000918	20.833828
185.044412	-2.989900	3.833000	-11.458000	22.209109	0.000918	20.841565
186.045542	-2.987100	3.831400	-11.442000	22.225808	0.000917	20.839793
187.046062	-3.014100	3.831900	-11.549000	22.227827	0.000922	20.854616
188.050067	-2.997300	3.830000	-11.478000	22.235255	0.000919	20.862052
189.046576	-2.989600	3.830600	-11.450000	22.226955	0.000921	20.841416
190.049710	-3.007900	3.829600	-11.518000	22.242109	0.000919	20.844735
191.054892	-2.993400	3.829600	-11.463000	22.240863	0.000922	20.847755
192.048875	-3.005600	3.829900	-11.510000	22.257113	0.000921	20.849326
193.046701	-3.008300	3.829100	-11.518000	22.262123	0.000922	20.854817
194.048985	-3.000200	3.829300	-11.488000	22.272043	0.000923	20.857636
195.062819	-2.994400	3.828700	-11.463000	22.264815	0.000921	20.860830
196.051285	-2.988900	3.829600	-11.445000	22.297117	0.000922	20.874681
197.048833	-2.989700	3.828200	-11.444000	22.287920	0.000925	20.848404
198.051577	-2.989200	3.829300	-11.445000	22.321490	0.000924	20.854518
199.050453	-3.028800	3.826600	-11.588000	22.326649	0.000926	20.858735
200.049075	-3.006700	3.827300	-11.505000	22.321889	0.000924	20.869615
201.051447	-3.032400	3.826000	-11.601000	22.329415	0.000925	20.869565
202.051154	-3.004700	3.827700	-11.500000	22.337191	0.000926	20.867394
203.051978	-2.995600	3.827800	-11.466000	22.326724	0.000924	20.875878
204.054873	-2.997200	3.827400	-11.471000	22.324730	0.000926	20.866296
205.056511	-2.994600	3.828100	-11.463000	22.324058	0.000929	20.867993
206.056284	-2.995900	3.828500	-11.468000	22.328918	0.000929	20.866222
207.056531	-2.985900	3.828500	-11.430000	22.354711	0.000928	20.868342
208.055377	-2.991200	3.827100	-11.447000	22.369615	0.000929	20.870938
209.056357	-2.984500	3.826100	-11.418000	22.357952	0.000930	20.877751
210.057166	-2.993500	3.827300	-11.456000	22.381727	0.000927	20.872161
211.056086	-3.009400	3.825500	-11.511000	22.388105	0.000931	20.856264
212.059430	-3.016500	3.825300	-11.538000	22.431020	0.000930	20.865100
213.057161	-2.998800	3.826100	-11.473000	22.398498	0.000931	20.874257
214.064766	-3.008100	3.824500	-11.502000	22.406348	0.000932	20.881169
215.057645	-3.011500	3.824700	-11.518000	22.416866	0.000932	20.866572
216.059952	-3.013100	3.823500	-11.518000	22.435580	0.000933	20.890053
217.057572	-2.992600	3.824700	-11.445000	22.431594	0.000931	20.885587
218.061957	-2.996600	3.825000	-11.461000	22.481208	0.000933	20.900184
219.060144	-2.993100	3.823500	-11.442000	22.451679	0.000938	20.887209
220.060106	-2.991000	3.825600	-11.442000	22.468251	0.000934	20.878675
221.060917	-2.986900	3.823200	-11.418000	22.484298	0.000935	20.871988
222.060194	-3.021000	3.824000	-11.551000	22.477371	0.000938	20.875007
223.063918	-2.983600	3.821800	-11.402000	22.512681	0.000936	20.877179
224.061213	-2.983200	3.823100	-11.404000	22.503311	0.000936	20.899087
225.062615	-3.003300	3.822300	-11.479000	22.522822	0.000938	20.883067
226.062002	-2.995700	3.823200	-11.452000	22.511436	0.000936	20.863130
227.060913	-3.008100	3.821500	-11.495000	22.507124	0.000936	20.874458
228.071542	-3.012100	3.822400	-11.512000	22.506775	0.000936	20.877428
229.062224	-2.996700	3.821800	-11.450000	22.515223	0.000939	20.868820
230.061897	-3.017700	3.820500	-11.528000	22.525963	0.000940	20.887161
231.062070	-2.985400	3.821400	-11.407000	22.553347	0.000939	20.882818
232.062965	-3.010400	3.821300	-11.502000	22.550706	0.000940	20.891553
233.064397	-2.982800	3.821900	-11.399000	22.546869	0.000940	20.896718
234.065025	-3.001800	3.819800	-11.464000	22.561346	0.000941	20.893200
235.063509	-2.994000	3.820600	-11.438000	22.589800	0.000943	20.891353
236.064299	-2.996400	3.821200	-11.448000	22.563440	0.000942	20.879651
237.064245	-3.006500	3.819900	-11.484000	22.541761	0.000942	20.869319
238.063442	-2.991700	3.821000	-11.430000	22.552525	0.000942	20.870616
239.066019	-3.000400	3.820100	-11.461000	22.544452	0.000944	20.893349
240.064931	-3.016700	3.819400	-11.521000	22.569245	0.000943	20.866025
241.065566	-2.995900	3.819900	-11.441000	22.555690	0.000944	20.867623
242.065986	-2.981200	3.820000	-11.387000	22.583797	0.000943	20.873013
243.063559	-2.986100	3.818200	-11.400000	22.574304	0.000946	20.869195
244.066197	-2.995300	3.818600	-11.436000	22.570391	0.000947	20.855320
245.068362	-3.005800	3.818700	-11.478000	22.596629	0.000945	20.853624
246.065056	-2.995700	3.817600	-11.434000	22.570168	0.000947	20.860312
247.064002	-2.996200	3.817500	-11.435000	22.564759	0.000947	20.874808
248.065120	-2.992000	3.817000	-11.419000	22.558431	0.000947	20.856144
249.064424	-3.005900	3.817800	-11.473000	22.574951	0.000948	20.853723
250.067886	-2.988700	3.816700	-11.406000	22.577394	0.000948	20.855222
251.066521	-3.010600	3.816900	-11.491000	22.587111	0.000949	20.867324
252.072477	-2.994000	3.815700	-11.423000	22.606918	0.000947	20.834532
253.068161	-2.994500	3.816100	-11.426000	22.615315	0.000949	20.869968
254.067608	-3.007700	3.816100	-11.476000	22.599868	0.000952	20.866825
255.073785	-2.994100	3.816400	-11.426000	22.608663	0.000952	20.860935
256.068937	-2.979600	3.816700	-11.371000	22.629766	0.000951	20.848407
257.073524	-2.990700	3.815600	-11.409000	22.634848	0.000951	20.866773
258.069905	-2.993100	3.815000	-11.418000	22.671574	0.000951	20.855669
259.069582	-2.994100	3.816000	-11.424000	22.656475	0.000953	20.853823
260.069209	-2.985300	3.815000	-11.386000	22.667886	0.000956	20.852925
261.073761	-3.015800	3.813000	-11.498000	22.668385	0.000955	20.850579
262.071681	-3.002400	3.814000	-11.451000	22.670130	0.000953	20.841896
263.070345	-3.017800	3.814000	-11.509000	22.699253	0.000956	20.862057
264.069466	-2.958700	3.816500	-11.290000	22.701147	0.000954	20.834084
265.072978	-3.004900	3.814000	-11.459000	22.707648	0.000956	20.860510
266.072978	-2.995800	3.813200	-11.423000	22.711186	0.000955	20.829915
267.071221	-2.991000	3.814800	-11.408000	22.698332	0.000956	20.845015
268.072690	-3.001000	3.812900	-11.441000	22.717664	0.000956	20.861059
269.072432	-2.987600	3.815200	-11.398000	22.735476	0.000954	20.826272
270.075981	-2.990700	3.813400	-11.403000	22.740933	0.000958	20.845013
271.072565	-3.020600	3.811300	-11.511000	22.753763	0.000959	20.846012
272.071577	-2.976500	3.814000	-11.351000	22.748158	0.000961	20.835656
273.072493	-3.015900	3.811800	-11.495000	22.749503	0.000960	20.843167
274.071144	-2.999900	3.811900	-11.434000	22.745193	0.000962	20.838850
275.070676	-3.007400	3.809900	-11.457000	22.764949	0.000961	20.823552
276.071336	-3.012400	3.810000	-11.476000	22.753165	0.000963	20.832137
277.073170	-3.011700	3.810700	-11.476000	22.754960	0.000963	20.830141
278.073877	-3.015400	3.810400	-11.488000	22.769682	0.000962	20.833509
279.073325	-2.994400	3.810000	-11.408000	22.774192	0.000960	20.838026
280.072606	-3.020400	3.808600	-11.502000	22.767440	0.000962	20.843591
281.073805	-3.000300	3.809700	-11.430000	22.798905	0.000963	20.828644
282.075178	-3.009100	3.810600	-11.466000	22.810762	0.000962	20.821555
283.073110	-2.997400	3.809000	-11.415000	22.793224	0.000968	20.825324
284.074202	-3.013400	3.808800	-11.476000	22.827377	0.000965	20.845787
285.075872	-2.998100	3.808200	-11.416000	22.824488	0.000964	20.842418
286.073065	-2.997800	3.808700	-11.416000	22.857694	0.000965	20.840122
287.081305	-3.009600	3.809900	-11.465000	22.836171	0.000965	20.823302
288.075753	-2.994000	3.808900	-11.402000	22.853759	0.000967	20.836654
289.075664	-3.003800	3.807800	-11.436000	22.852014	0.000966	20.826372
290.074815	-3.014300	3.805800	-11.470000	22.865315	0.000967	20.833059
291.076466	-3.001800	3.807400	-11.428000	22.869203	0.000969	20.827470
292.079293	-2.999400	3.806700	-11.416000	22.875828	0.000966	20.835530
293.075142	-2.975500	3.808000	-11.330000	22.880062	0.000967	20.823177
294.076816	-3.015100	3.806400	-11.476000	22.897574	0.000971	20.826022
295.076482	-2.982200	3.807200	-11.353000	22.888134	0.000970	20.817513
296.076605	-2.991600	3.806500	-11.385000	22.877671	0.000970	20.831686
297.078503	-2.992300	3.806500	-11.388000	22.911674	0.000971	20.824026
298.076907	-2.984400	3.806400	-11.359000	22.918747	0.000972	20.823052
299.077985	-2.987100	3.805500	-11.367000	22.927365	0.000971	20.827893
300.077559	-3.005800	3.803600	-11.431000	22.918150	0.000974	20.833833
301.079185	-2.999600	3.805000	-11.411000	22.953145	0.000973	20.812945
302.077286	-3.003200	3.803700	-11.422000	22.952149	0.000974	20.818110
303.080915	-2.995200	3.803700	-11.392000	22.936382	0.000974	20.807530
304.081205	-2.994000	3.805200	-11.391000	22.914811	0.000973	20.827169
305.082676	-3.006200	3.804100	-11.436000	22.890673	0.000975	20.825272
306.086985	-3.008200	3.802300	-11.437000	22.868952	0.000976	20.808727
307.082570	-2.996900	3.803200	-11.396000	22.860533	0.000975	20.824474
308.086132	-2.997500	3.802700	-11.398000	22.869575	0.000975	20.812671
309.082362	-3.000500	3.803500	-11.412000	22.901983	0.000975	20.813370
310.081197	-2.985400	3.804100	-11.356000	22.911523	0.000977	20.818185
311.085619	-3.021700	3.802600	-11.490000	22.908958	0.000976	20.811822
312.084652	-3.000300	3.804300	-11.413000	22.930430	0.000979	20.802515
313.084633	-2.993600	3.802000	-11.380000	22.943606	0.000978	20.818561
314.082925	-2.966800	3.803900	-11.284000	22.971978	0.000981	20.818063
315.083785	-3.017300	3.801500	-11.469000	22.971653	0.000982	20.805884
316.083217	-3.020400	3.801400	-11.480000	22.978403	0.000980	20.809802
317.083894	-2.995400	3.801900	-11.387000	22.979598	0.000982	20.820008
318.085272	-3.005700	3.801100	-11.424000	22.974317	0.000981	20.795276
319.085625	-2.997000	3.802400	-11.393000	22.973946	0.000982	20.799172
320.085672	-3.030300	3.799800	-11.514000	22.985975	0.000980	20.806483
321.084447	-2.993100	3.801900	-11.378000	23.003535	0.000981	20.822180
322.084156	-2.988200	3.800400	-11.355000	23.005080	0.000981	20.827995
323.089297	-2.996300	3.799500	-11.383000	23.007321	0.000979	20.804636
324.086643	-3.020100	3.797800	-11.468000	23.017956	0.000985	20.799645
325.087989	-3.009000	3.798700	-11.429000	23.012452	0.000984	20.777060
326.089315	-3.004300	3.798100	-11.409000	23.013125	0.000985	20.803813
327.088461	-2.994200	3.798800	-11.374000	23.029886	0.000985	20.801167
328.092772	-2.991000	3.798400	-11.361000	23.017832	0.000984	20.812797
329.092399	-3.006200	3.797100	-11.414000	23.039227	0.000986	20.804362
330.089458	-3.012200	3.798800	-11.441000	23.038479	0.000986	20.811199
331.092093	-2.965100	3.800600	-11.267000	23.045504	0.000987	20.817764
332.091018	-3.006500	3.798800	-11.420000	23.081890	0.000987	20.812497
333.089737	-2.999900	3.797900	-11.393000	23.078478	0.000987	20.817138
334.095694	-2.984500	3.796500	-11.329000	23.087818	0.000987	20.803264
335.091941	-2.974400	3.798300	-11.297000	23.093447	0.000986	20.788515
336.095216	-3.004100	3.796700	-11.405000	23.045404	0.000989	20.798223
337.092326	-3.026400	3.795600	-11.487000	23.065579	0.000989	20.795679
338.092189	-3.005800	3.796700	-11.411000	23.062588	0.000989	20.810226
339.096062	-2.984400	3.796200	-11.329000	23.109237	0.000990	20.787268
340.095487	-2.987700	3.796900	-11.342000	23.110533	0.000988	20.796627
341.094971	-3.024600	3.794700	-11.476000	23.112574	0.000991	20.781603
342.097803	-3.003900	3.794800	-11.398000	23.132249	0.000990	20.789465
343.095584	-2.997300	3.794500	-11.372000	23.153244	0.000989	20.817140
344.099146	-2.988400	3.796200	-11.344000	23.140268	0.000992	20.796552
345.094166	-3.008200	3.794300	-11.413000	23.175158	0.000993	20.817289
346.098330	-3.016000	3.793700	-11.440000	23.158173	0.000991	20.782251
347.095881	-2.988600	3.795400	-11.342000	23.171423	0.000991	20.796951
348.095441	-2.993300	3.793700	-11.354000	23.178022	0.000992	20.771321
349.097293	-3.000500	3.794100	-11.384000	23.206561	0.000991	20.780006
350.098482	-3.019500	3.791100	-11.446000	23.225737	0.000992	20.784050
351.100675	-2.995700	3.792400	-11.358000	23.210646	0.000992	20.809230
352.096692	-3.010300	3.789800	-11.407000	23.198991	0.000994	20.812249
353.097556	-3.004000	3.791000	-11.386000	23.217446	0.000995	20.786173
354.099334	-3.020300	3.791200	-11.449000	23.211644	0.000995	20.801221
355.103815	-2.996800	3.790100	-11.357000	23.170205	0.000997	20.780084
356.105467	-3.000900	3.792500	-11.380000	23.183303	0.000996	20.784200
357.105618	-3.009300	3.790600	-11.406000	23.180192	0.000995	20.803368
358.100626	-3.012900	3.790500	-11.419000	23.207933	0.000997	20.792761
359.101793	-3.011900	3.789000	-11.411000	23.230969	0.000995	20.800673
360.102238	-2.987000	3.791000	-11.322000	23.237418	0.000997	20.793385
361.102042	-2.967500	3.790900	-11.248000	23.247480	0.000999	20.801572
362.101282	-3.002500	3.789500	-11.377000	23.245887	0.000997	20.780061
363.103685	-3.011200	3.790100	-11.412000	23.272830	0.001000	20.791416
364.103578	-3.006200	3.789400	-11.391000	23.238242	0.000999	20.790892
365.101014	-2.999000	3.788700	-11.361000	23.245687	0.001001	20.780809
366.104846	-2.986200	3.788000	-11.310000	23.234432	0.000999	20.802721
367.101830	-3.009900	3.786800	-11.397000	23.234057	0.001000	20.786698
368.101120	-3.025400	3.787300	-11.457000	23.218893	0.001002	20.788571
369.101399	-3.022400	3.786300	-11.443000	23.245613	0.000999	20.781210
370.102225	-3.001400	3.787200	-11.366000	23.245987	0.001001	20.780161
371.105145	-3.019300	3.786000	-11.430000	23.266181	0.001001	20.784279
372.102578	-3.007700	3.786100	-11.387000	23.251217	0.000999	20.793464
373.103817	-3.031300	3.784700	-11.472000	23.280800	0.001005	20.793713
374.102486	-3.001100	3.786600	-11.363000	23.286104	0.001002	20.782433
375.102254	-3.014100	3.786800	-11.412000	23.284161	0.001002	20.783806
376.103871	-3.007100	3.784300	-11.379000	23.293649	0.001004	20.775770
377.105862	-2.993900	3.785500	-11.332000	23.324849	0.001004	20.780961
378.103769	-2.994100	3.785700	-11.333000	23.314490	0.001002	20.775321
379.103743	-3.008400	3.783800	-11.381000	23.357069	0.001004	20.781011
380.105016	-3.003600	3.784600	-11.366000	23.316757	0.001005	20.796085
381.106877	-3.008600	3.785100	-11.387000	23.340287	0.001004	20.754234
382.106772	-2.986500	3.783400	-11.298000	23.306199	0.001003	20.777917
383.108952	-3.007300	3.783000	-11.375000	23.290861	0.001007	20.782934
384.108838	-3.018500	3.782900	-11.417000	23.294771	0.001005	20.790171
385.106253	-3.012000	3.782700	-11.392000	23.309287	0.001007	20.785279
386.105867	-3.016600	3.781400	-11.403000	23.303437	0.001007	20.741008
387.111885	-2.994200	3.782300	-11.325000	23.310160	0.001007	20.770981
388.108826	-3.006700	3.781900	-11.370000	23.318401	0.001007	20.770705
389.109638	-3.029000	3.780900	-11.451000	23.357819	0.001007	20.770383
390.109919	-3.001400	3.781400	-11.349000	23.330105	0.001009	20.759202
391.109970	-2.985600	3.782200	-11.291000	23.330778	0.001008	20.781687
392.113208	-2.997400	3.780600	-11.330000	23.329608	0.001010	20.777670
393.114516	-3.001000	3.780300	-11.344000	23.310087	0.001009	20.769960
394.110940	-2.998700	3.780300	-11.335000	23.324281	0.001011	20.787030
395.111158	-2.969200	3.781100	-11.226000	23.329460	0.001009	20.755236
396.112172	-3.001800	3.780200	-11.346000	23.360410	0.001008	20.760652
397.111395	-2.966400	3.780900	-11.214000	23.379583	0.001009	20.761376
398.115836	-2.983500	3.778600	-11.272000	23.377416	0.001011	20.757782
399.110831	-3.011300	3.778600	-11.377000	23.360436	0.001010	20.767316
400.115228	-2.987400	3.778900	-11.289000	23.378364	0.001010	20.750670
401.112702	-2.977300	3.779800	-11.252000	23.362777	0.001011	20.787206
402.112523	-3.001700	3.776800	-11.337000	23.358096	0.001009	20.775876
403.115026	-2.996700	3.777500	-11.318000	23.365267	0.001012	20.769787
404.112665	-2.990300	3.778400	-11.297000	23.377817	0.001013	20.768615
405.113375	-2.999300	3.777200	-11.327000	23.401670	0.001012	20.779247
406.112214	-2.980900	3.777900	-11.261000	23.382249	0.001011	20.755987
407.113560	-3.002400	3.776200	-11.337000	23.375352	0.001013	20.770411
408.115268	-3.000900	3.775700	-11.329000	23.389122	0.001015	20.746754
409.115097	-2.994300	3.775400	-11.304000	23.408070	0.001013	20.782816
410.116772	-3.007100	3.774500	-11.349000	23.414344	0.001011	20.767294
411.113285	-3.020800	3.774800	-11.401000	23.419996	0.001015	20.783864
412.114286	-3.019700	3.775400	-11.399000	23.410163	0.001013	20.775905
413.114549	-2.995900	3.776000	-11.312000	23.419624	0.001016	20.758835
414.118849	-3.003200	3.775200	-11.337000	23.424778	0.001015	20.765897
415.117967	-2.981800	3.776400	-11.260000	23.429933	0.001014	20.755417
416.119615	-2.994400	3.772800	-11.295000	23.448132	0.001015	20.765124
417.117087	-3.010600	3.773800	-11.361000	23.440563	0.001013	20.758960
418.117750	-3.000200	3.773300	-11.319000	23.467901	0.001014	20.754594
419.117074	-3.008100	3.773000	-11.349000	23.487171	0.001017	20.764426
420.122491	-3.006900	3.772200	-11.341000	23.472658	0.001014	20.747033
421.117247	-2.971500	3.773300	-11.211000	23.475819	0.001018	20.743090
422.117645	-3.000100	3.773000	-11.318000	23.438374	0.001017	20.761507
423.119828	-3.007000	3.772300	-11.342000	23.432722	0.001015	20.736401
424.117609	-3.002200	3.772200	-11.323000	23.419129	0.001017	20.767347
425.123613	-2.993600	3.772900	-11.294000	23.421271	0.001017	20.757640
426.118664	-3.003100	3.772300	-11.328000	23.424857	0.001017	20.749854
427.119634	-3.019800	3.770900	-11.386000	23.457372	0.001017	20.739772
428.118484	-2.994500	3.770300	-11.288000	23.490285	0.001021	20.759487
429.119990	-3.008800	3.769400	-11.340000	23.481473	0.001017	20.757767
430.124225	-3.005500	3.769600	-11.329000	23.480776	0.001018	20.731936
431.128447	-2.983200	3.770000	-11.246000	23.489315	0.001016	20.744764
432.122869	-2.999100	3.768100	-11.300000	23.503034	0.001019	20.750455
433.123025	-3.013200	3.768900	-11.355000	23.519862	0.001020	20.745038
434.123574	-3.013100	3.768100	-11.353000	23.534079	0.001019	20.754073
435.122671	-3.003200	3.768100	-11.315000	23.533531	0.001020	20.740721
436.125059	-3.007800	3.767500	-11.331000	23.540129	0.001019	20.754923
437.122762	-3.009100	3.767600	-11.335000	23.550609	0.001019	20.722278
438.124205	-3.004400	3.768500	-11.320000	23.563531	0.001020	20.754200
439.124753	-2.998600	3.766600	-11.293000	23.577646	0.001021	20.758866
440.132699	-3.019600	3.765000	-11.368000	23.601993	0.001019	20.743918
441.126222	-2.986000	3.767100	-11.247000	23.573489	0.001018	20.761811
442.124860	-3.016700	3.765900	-11.359000	23.578294	0.001018	20.758567
443.128365	-3.022700	3.764700	-11.378000	23.565300	0.001021	20.735109
444.125803	-3.019500	3.766100	-11.370000	23.543865	0.001021	20.748236
445.126428	-3.005500	3.765400	-11.315000	23.573637	0.001022	20.729242
446.129306	-2.994800	3.766300	-11.279000	23.541027	0.001021	20.766254
447.129625	-3.003100	3.765300	-11.306000	23.550438	0.001020	20.742497
448.126838	-3.011800	3.763900	-11.335000	23.530894	0.001022	20.757993
449.129429	-3.022300	3.764600	-11.377000	23.523303	0.001022	20.724778
450.128694	-3.000200	3.765600	-11.296000	23.509959	0.001021	20.749810
451.131093	-2.997600	3.764800	-11.284000	23.520688	0.001021	20.729270
452.130771	-2.992500	3.764500	-11.264000	23.503610	0.001023	20.746764
453.129243	-3.016600	3.763100	-11.351000	23.508315	0.001023	20.725875
454.135268	-2.990800	3.764200	-11.257000	23.519370	0.001023	20.763512
455.129556	-2.997000	3.764500	-11.281000	23.489345	0.001021	20.762338
456.130800	-3.003500	3.762500	-11.300000	23.496541	0.001023	20.746316
457.134715	-3.001000	3.762000	-11.287000	23.489570	0.001022	20.746442
458.131211	-2.988500	3.762800	-11.245000	23.501146	0.001023	20.739553
459.129495	-2.989700	3.762400	-11.248000	23.520217	0.001022	20.735910
460.130123	-2.986700	3.762100	-11.235000	23.557063	0.001023	20.731593
461.129746	-2.981000	3.761600	-11.212000	23.592362	0.001022	20.717193
462.131515	-3.003600	3.760600	-11.294000	23.595127	0.001024	20.746992
463.133930	-2.994800	3.760500	-11.261000	23.578223	0.001025	20.748064
464.132247	-2.998800	3.760200	-11.275000	23.615290	0.001023	20.738756
465.131045	-2.996700	3.759900	-11.267000	23.621564	0.001027	20.728923
466.132217	-2.976200	3.761100	-11.193000	23.624526	0.001026	20.723358
467.130229	-2.992400	3.759400	-11.248000	23.653153	0.001027	20.734039
468.133938	-2.991000	3.758700	-11.242000	23.670054	0.001024	20.740078
469.130282	-2.976500	3.759000	-11.187000	23.661069	0.001025	20.743399
470.130941	-3.009100	3.758500	-11.308000	23.660024	0.001026	20.732393
471.131682	-2.993300	3.758200	-11.249000	23.670802	0.001025	20.755527
472.130881	-2.998100	3.757800	-11.265000	23.658580	0.001026	20.743274
473.133332	-3.001500	3.756400	-11.273000	23.634632	0.001027	20.729696
474.130925	-3.005200	3.757600	-11.291000	23.670354	0.001029	20.714773
475.133004	-2.996800	3.757300	-11.258000	23.674037	0.001025	20.726527
476.131937	-2.988200	3.757200	-11.227000	23.660596	0.001027	20.729648
477.131501	-3.020900	3.755200	-11.343000	23.631546	0.001026	20.736086
478.132430	-2.979800	3.757400	-11.195000	23.661044	0.001025	20.739106
479.131894	-3.003200	3.755800	-11.278000	23.652331	0.001024	20.725629
480.130710	-2.979100	3.755400	-11.187000	23.673193	0.001025	20.736112
481.130836	-3.018600	3.752800	-11.327000	23.663831	0.001028	20.728149
482.133061	-3.009500	3.755100	-11.300000	23.693378	0.001026	20.735013
483.132709	-2.996100	3.755100	-11.250000	23.697113	0.001028	20.739706
484.133242	-3.001600	3.753700	-11.266000	23.702515	0.001025	20.729000
485.133366	-3.004900	3.752800	-11.276000	23.689896	0.001029	20.730572
486.135247	-2.996900	3.752500	-11.246000	23.700847	0.001027	20.719266
487.133420	-2.988900	3.754300	-11.220000	23.735121	0.001024	20.725180
488.134918	-3.016100	3.752900	-11.318000	23.773403	0.001027	20.736535
489.136774	-2.984700	3.752100	-11.197000	23.749434	0.001028	20.739056
490.135555	-2.981100	3.751900	-11.184000	23.763073	0.001030	20.737084
491.136338	-3.020400	3.750600	-11.327000	23.746795	0.001028	20.727875
492.135502	-3.002200	3.750400	-11.259000	23.796923	0.001028	20.741152
493.135839	-2.983700	3.751800	-11.194000	23.759215	0.001027	20.725155
494.135530	-3.003200	3.750200	-11.261000	23.752793	0.001028	20.735786
495.139433	-3.016400	3.749800	-11.310000	23.730467	0.001029	20.717194
496.135317	-3.009900	3.750200	-11.287000	23.725116	0.001030	20.729374
497.136849	-3.013600	3.750700	-11.302000	23.720361	0.001027	20.721761
498.134862	-2.974900	3.750800	-11.158000	23.745499	0.001028	20.736060
499.135980	-3.004200	3.749000	-11.262000	23.740247	0.001029	20.720836
500.138519	-2.999400	3.748900	-11.243000	23.788088	0.001026	20.724232
501.136044	-3.000500	3.748400	-11.246000	23.792542	0.001027	20.717318
502.139200	-2.996300	3.749300	-11.234000	23.745226	0.001028	20.745743
503.138185	-3.010300	3.745900	-11.276000	23.732930	0.001029	20.728673
504.137045	-3.001100	3.749000	-11.251000	23.700448	0.001030	20.728349
505.139816	-3.027400	3.745600	-11.339000	23.694125	0.001031	20.732916
506.138345	-3.001300	3.747900	-11.248000	23.698579	0.001028	20.746391
507.137851	-3.006900	3.746400	-11.265000	23.684491	0.001028	20.740801
508.138649	-3.000000	3.747200	-11.240000	23.699327	0.001027	20.735761
509.143670	-3.001100	3.745000	-11.238000	23.729670	0.001028	20.734413
510.138102	-3.001800	3.745300	-11.241000	23.748139	0.001030	20.738232
511.141754	-2.993100	3.745000	-11.208000	23.763024	0.001027	20.746992
512.139442	-2.998200	3.744700	-11.227000	23.781667	0.001031	20.732019
513.141448	-2.979300	3.745000	-11.156000	23.790752	0.001030	20.740180
514.140806	-3.009000	3.743900	-11.265000	23.836224	0.001030	20.738358
515.143645	-2.986200	3.744500	-11.181000	23.839409	0.001032	20.744871
516.140894	-3.003700	3.742300	-11.239000	23.838962	0.001029	20.746319
517.141062	-2.975300	3.743800	-11.137000	23.818579	0.001031	20.728726
518.142694	-2.983300	3.745000	-11.171000	23.778331	0.001031	20.750012
519.140843	-3.011700	3.741800	-11.269000	23.769546	0.001032	20.742626
520.143708	-3.005500	3.742400	-11.247000	23.767829	0.001028	20.729050
521.144136	-3.002100	3.742200	-11.232000	23.771189	0.001031	20.721513
522.144276	-2.994000	3.742200	-11.203000	23.800011	0.001031	20.730023
523.143404	-3.008800	3.742000	-11.258000	23.805538	0.001028	20.749315
524.142684	-2.996700	3.740900	-11.207000	23.832989	0.001033	20.736536
525.143131	-2.998300	3.740900	-11.214000	23.830053	0.001031	20.760621
526.145694	-2.987600	3.739900	-11.172000	23.863131	0.001031	20.744001
527.144656	-2.976100	3.741000	-11.132000	23.859048	0.001030	20.770728
528.142895	-3.000500	3.739700	-11.220000	23.855788	0.001030	20.750863
529.147761	-3.009100	3.739600	-11.251000	23.875947	0.001031	20.772500
530.149651	-2.962600	3.741100	-11.082000	23.860069	0.001029	20.747095
531.142488	-2.988700	3.738900	-11.173000	23.880004	0.001030	20.743851
532.144077	-3.007000	3.738100	-11.239000	23.896156	0.001031	20.771428
533.142114	-2.984200	3.738100	-11.154000	23.901581	0.001028	20.752211
534.142861	-3.001300	3.738100	-11.217000	23.903372	0.001030	20.757801
535.146490	-2.993000	3.738700	-11.188000	23.914894	0.001029	20.754655
536.143272	-2.996800	3.738300	-11.203000	23.930549	0.001031	20.762767
537.148723	-3.025400	3.735300	-11.299000	23.939408	0.001031	20.753633
538.146187	-3.011600	3.738300	-11.257000	23.919947	0.001031	20.734591
539.146976	-2.995700	3.736400	-11.191000	23.921167	0.001030	20.762368
540.143990	-2.988600	3.737800	-11.170000	23.930624	0.001032	20.768058
541.144509	-2.997000	3.736300	-11.196000	23.931097	0.001031	20.759523
542.148043	-2.992100	3.735200	-11.175000	23.932738	0.001032	20.753582
543.149625	-3.016300	3.736200	-11.268000	23.920620	0.001032	20.755655
544.147768	-3.000300	3.736300	-11.208000	23.917285	0.001029	20.765113
545.145811	-3.024600	3.733500	-11.292000	23.903374	0.001031	20.755905
546.145483	-3.015300	3.735000	-11.261000	23.934880	0.001028	20.760946
547.146266	-3.002100	3.733300	-11.206000	23.950309	0.001030	20.764564
548.146437	-2.988700	3.735000	-11.162000	23.938987	0.001030	20.777867
549.145253	-2.991600	3.733800	-11.169000	23.971686	0.001031	20.763242
550.150787	-3.021200	3.733000	-11.276000	23.978207	0.001031	20.760772
551.151245	-2.997000	3.732800	-11.186000	23.980918	0.001034	20.767758
552.146296	-3.013100	3.733000	-11.247000	23.966336	0.001031	20.767834
553.151857	-2.977700	3.732300	-11.113000	23.963399	0.001031	20.768208
554.148198	-2.995100	3.733100	-11.181000	23.960514	0.001032	20.782859
555.145810	-3.001700	3.731700	-11.200000	23.987190	0.001031	20.766936
556.145996	-3.007500	3.732100	-11.223000	24.022576	0.001029	20.776818
557.148176	-3.015100	3.731500	-11.249000	24.000404	0.001030	20.777343
558.146266	-3.014800	3.730900	-11.245000	24.005307	0.001030	20.756655
559.157822	-3.015500	3.730500	-11.249000	24.001400	0.001031	20.771703
560.146748	-2.988700	3.730800	-11.149000	24.012001	0.001031	20.775696
561.145539	-2.994300	3.729700	-11.166000	23.994631	0.001030	20.776768
562.144823	-2.988500	3.729700	-11.144000	24.008095	0.001033	20.755658
563.148504	-3.004900	3.729200	-11.205000	24.020288	0.001029	20.758402
564.149406	-3.000600	3.729300	-11.189000	24.031462	0.001031	20.794739
565.147121	-3.011200	3.728500	-11.225000	24.052836	0.001029	20.762595
566.146851	-2.997000	3.728000	-11.172000	24.061547	0.001031	20.786979
567.145868	-3.004700	3.727000	-11.198000	24.063961	0.001030	20.760476
568.149909	-2.988000	3.728400	-11.140000	24.055251	0.001031	20.789199
569.148911	-3.000000	3.727400	-11.181000	24.090512	0.001028	20.765292
570.148165	-2.991100	3.727200	-11.148000	24.111065	0.001031	20.783062
571.147684	-3.028700	3.725000	-11.280000	24.096881	0.001031	20.776896
572.147820	-3.011600	3.726000	-11.220000	24.131966	0.001029	20.769885
573.151192	-3.007900	3.726700	-11.207000	24.137218	0.001029	20.792696
574.148936	-3.014000	3.725700	-11.228000	24.124602	0.001030	20.762025
575.151061	-3.012700	3.724800	-11.220000	24.132490	0.001030	20.774678
576.151751	-3.022700	3.725400	-11.259000	24.136672	0.001030	20.776501
577.152077	-3.008200	3.724000	-11.200000	24.137119	0.001030	20.781218
578.151070	-3.021500	3.725000	-11.253000	24.143839	0.001030	20.785587
579.150057	-2.993700	3.724200	-11.148000	24.135777	0.001029	20.781768
580.153851	-2.995800	3.724400	-11.156000	24.133115	0.001031	20.806125
581.149538	-3.003900	3.724400	-11.187000	24.161181	0.001030	20.784014
582.150290	-3.000100	3.723800	-11.170000	24.167353	0.001031	20.800162
583.150694	-3.022300	3.722100	-11.248000	24.183153	0.001030	20.776180
584.150622	-3.005600	3.722600	-11.188000	24.177729	0.001030	20.803931
585.150461	-3.004500	3.723500	-11.186000	24.170788	0.001031	20.794124
586.153527	-2.986100	3.724200	-11.119000	24.178500	0.001029	20.780048
587.152781	-2.983700	3.722800	-11.107000	24.164243	0.001030	20.798939
588.149770	-2.985700	3.721300	-11.110000	24.154565	0.001028	20.782120
589.149709	-3.005800	3.721600	-11.185000	24.141280	0.001030	20.782545
590.152079	-3.002000	3.721500	-11.171000	24.130754	0.001029	20.792852
591.156273	-3.022300	3.720500	-11.243000	24.113088	0.001028	20.796470
592.153048	-2.991400	3.719700	-11.126000	24.124111	0.001027	20.797094
593.154065	-2.996200	3.720500	-11.146000	24.110476	0.001029	20.800962
594.155529	-3.008800	3.719700	-11.191000	24.131352	0.001029	20.808150
595.151836	-3.016700	3.719000	-11.218000	24.101343	0.001030	20.811718
596.155890	-2.993100	3.719300	-11.129000	24.113635	0.001029	20.800812
597.154542	-3.014500	3.719000	-11.209000	24.104356	0.001028	20.787712
598.154658	-3.014400	3.718400	-11.208000	24.103882	0.001029	20.811893
599.155311	-3.004500	3.718900	-11.172000	24.095523	0.001028	20.806355
600.158818	-2.999000	3.718900	-11.152000	24.117518	0.001029	20.793801
601.156220	-2.983200	3.718600	-11.092000	24.085345	0.001027	20.783819
602.161106	-3.006300	3.717000	-11.173000	24.087087	0.001028	20.799316
603.156921	-3.009800	3.717000	-11.187000	24.091342	0.001027	20.793626
604.158210	-3.014900	3.715800	-11.202000	24.059143	0.001029	20.807801
605.159589	-3.001100	3.717200	-11.155000	24.061382	0.001029	20.815736
606.158507	-3.009700	3.715500	-11.181000	24.064843	0.001028	20.789809
607.160216	-3.006400	3.715800	-11.169000	24.073153	0.001023	20.792454
608.160104	-2.997200	3.716000	-11.136000	24.084002	0.001027	20.817559
609.161351	-2.991900	3.715400	-11.116000	24.112692	0.001027	20.788013
610.160011	-2.984600	3.717200	-11.094000	24.157428	0.001027	20.823397
611.160701	-3.037600	3.713200	-11.278000	24.142078	0.001028	20.808951
612.167915	-2.983500	3.716800	-11.088000	24.120355	0.001028	20.808500
613.160637	-2.993400	3.715000	-11.120000	24.109358	0.001028	20.809325
614.165261	-3.001200	3.715700	-11.151000	24.114782	0.001028	20.822350
615.161621	-2.989800	3.714200	-11.103000	24.100549	0.001026	20.800490
616.161934	-3.004500	3.714100	-11.158000	24.098658	0.001028	20.795274
617.165926	-2.998700	3.713300	-11.133000	24.135260	0.001027	20.811121
618.161268	-3.029300	3.713000	-11.247000	24.157802	0.001027	20.809074
619.163650	-3.000900	3.713100	-11.141000	24.171288	0.001027	20.811221
620.165197	-3.013300	3.712800	-11.187000	24.196966	0.001026	20.816113
621.164142	-3.008300	3.712300	-11.166000	24.218461	0.001025	20.822026
622.163497	-3.005100	3.711200	-11.151000	24.243167	0.001024	20.815039
623.168724	-2.999700	3.711400	-11.131000	24.255333	0.001026	20.793578
624.163610	-2.998700	3.712900	-11.133000	24.247769	0.001026	20.813966
625.165763	-2.998400	3.711200	-11.126000	24.284218	0.001027	20.816388
626.164816	-3.016800	3.709000	-11.187000	24.296507	0.001025	20.818757
627.168819	-3.007800	3.711000	-11.161000	24.301831	0.001026	20.814141
628.170706	-2.992000	3.710900	-11.102000	24.347630	0.001024	20.826419
629.168788	-3.007400	3.709500	-11.155000	24.346635	0.001021	20.813567
630.167537	-3.013800	3.709500	-11.178000	24.354422	0.001026	20.810947
631.169989	-2.992500	3.709900	-11.101000	24.367259	0.001024	20.841842
632.169228	-3.010400	3.708500	-11.163000	24.359820	0.001025	20.819681
633.172316	-3.015700	3.707600	-11.179000	24.371711	0.001023	20.819756
634.168756	-2.988400	3.709000	-11.083000	24.372806	0.001024	20.838397
635.167010	-2.988000	3.707900	-11.077000	24.346387	0.001026	20.835603
636.168950	-2.969500	3.708800	-11.011000	24.330440	0.001023	20.825770
637.168111	-3.007000	3.706300	-11.144000	24.350118	0.001026	20.823225
638.174659	-2.989900	3.707500	-11.085000	24.328376	0.001025	20.822751
639.170437	-2.990800	3.707800	-11.087000	24.307827	0.001025	20.832958
640.170372	-3.016800	3.705500	-11.178000	24.324370	0.001025	20.839121
641.170419	-3.007900	3.706100	-11.147000	24.327803	0.001023	20.829763
642.169816	-2.986100	3.706500	-11.067000	24.346512	0.001026	20.822452
643.170711	-2.999200	3.706200	-11.113000	24.324446	0.001024	20.841568
644.174933	-2.992900	3.704400	-11.086000	24.322431	0.001024	20.822477
645.172544	-3.022800	3.704300	-11.196000	24.308548	0.001023	20.823724
646.171742	-3.012700	3.704600	-11.159000	24.302380	0.001023	20.851675
647.173710	-2.995000	3.706000	-11.099000	24.306732	0.001023	20.826170
648.173613	-3.002700	3.705000	-11.124000	24.344920	0.001024	20.824175
649.179007	-3.011800	3.703700	-11.153000	24.344744	0.001021	20.846283
650.173982	-3.002400	3.703700	-11.118000	24.377459	0.001022	20.861082
651.175062	-2.998100	3.704600	-11.106000	24.396516	0.001024	20.842268
652.174464	-2.998100	3.703900	-11.104000	24.402036	0.001022	20.838798
653.176659	-3.000200	3.704400	-11.114000	24.410519	0.001022	20.834980
654.179502	-2.989700	3.702800	-11.068000	24.402011	0.001024	20.851100
655.177649	-3.001000	3.701900	-11.108000	24.436117	0.001021	20.853547
656.174325	-3.006100	3.701900	-11.127000	24.422211	0.001022	20.841020
657.177153	-2.992600	3.702600	-11.078000	24.421364	0.001020	20.854868
658.174848	-2.988800	3.701700	-11.061000	24.432086	0.001022	20.847133
659.176353	-3.009800	3.699900	-11.135000	24.459024	0.001020	20.837649
660.179109	-3.012100	3.700400	-11.144000	24.493028	0.001020	20.851376
661.175997	-2.992100	3.701700	-11.075000	24.475567	0.001020	20.862780
662.177085	-2.999200	3.699800	-11.095000	24.509694	0.001021	20.855294
663.176520	-2.978700	3.700600	-11.022000	24.521657	0.001019	20.842167
664.176949	-2.996800	3.698800	-11.084000	24.544615	0.001020	20.859985
665.185925	-2.988000	3.699000	-11.051000	24.533323	0.001020	20.864302
666.178344	-2.981000	3.699200	-11.026000	24.557375	0.001019	20.844813
667.179538	-2.992200	3.698400	-11.065000	24.552451	0.001020	20.861683
668.180077	-3.011100	3.698700	-11.135000	24.550560	0.001018	20.843666
669.182017	-3.014600	3.699100	-11.150000	24.557226	0.001023	20.843716
670.181214	-3.028300	3.696200	-11.193000	24.540239	0.001019	20.858913
671.185315	-3.003600	3.697100	-11.104000	24.526061	0.001019	20.850853
672.184937	-3.022800	3.696500	-11.172000	24.510416	0.001018	20.856018
673.181077	-3.015800	3.696100	-11.146000	24.481339	0.001018	20.876631
674.182651	-2.979500	3.697100	-11.013000	24.487631	0.001018	20.853073
675.181806	-3.013400	3.694800	-11.134000	24.471340	0.001018	20.860436
676.185755	-3.011500	3.695800	-11.129000	24.470544	0.001016	20.860112
677.182117	-2.983100	3.696200	-11.025000	24.502656	0.001018	20.843018
678.182764	-2.987000	3.695500	-11.038000	24.481489	0.001016	20.865876
679.182213	-2.991600	3.693900	-11.049000	24.519521	0.001021	20.861360
680.183312	-2.989900	3.695600	-11.048000	24.499846	0.001017	20.864379
681.184437	-3.026000	3.692800	-11.174000	24.519495	0.001017	20.864653
682.183936	-3.024500	3.693500	-11.170000	24.514944	0.001016	20.871466
683.181208	-2.971200	3.695400	-10.978000	24.526510	0.001017	20.871691
684.182899	-3.006300	3.692600	-11.099000	24.540488	0.001016	20.884766
685.182339	-3.003800	3.693800	-11.095000	24.569987	0.001017	20.863157
686.184152	-3.014900	3.693300	-11.134000	24.553970	0.001015	20.863681
687.184526	-3.004300	3.693500	-11.095000	24.551655	0.001014	20.865152
688.183479	-2.986600	3.692100	-11.025000	24.555063	0.001018	20.862881
689.184637	-2.988800	3.692700	-11.037000	24.558447	0.001016	20.892827
690.184549	-3.006900	3.691300	-11.098000	24.580458	0.001015	20.873662
691.183886	-3.016500	3.691000	-11.132000	24.581204	0.001016	20.869195
692.190115	-3.009100	3.689800	-11.102000	24.571479	0.001016	20.874136
693.185885	-3.003100	3.691000	-11.084000	24.567499	0.001014	20.881048
694.189199	-3.011600	3.689200	-11.109000	24.587347	0.001016	20.864454
695.186885	-2.982400	3.690600	-11.005000	24.596921	0.001016	20.885439
696.185360	-3.004700	3.689700	-11.086000	24.596773	0.001014	20.892876
697.186484	-2.999300	3.689700	-11.066000	24.598364	0.001013	20.881197
698.191960	-2.995400	3.689400	-11.050000	24.588515	0.001013	20.874634
699.190680	-3.002100	3.689700	-11.075000	24.548647	0.001015	20.863081
700.190590	-3.021400	3.688900	-11.143000	24.570385	0.001015	20.879202
701.188389	-3.017700	3.687600	-11.127000	24.583791	0.001015	20.885066
702.188593	-2.988100	3.688300	-11.021000	24.605179	0.001014	20.868122
703.192453	-3.010500	3.687900	-11.099000	24.628409	0.001012	20.872938
704.188424	-3.005900	3.687000	-11.082000	24.611770	0.001013	20.888484
705.191791	-2.988700	3.688100	-11.022000	24.634204	0.001010	20.873537
706.191966	-3.004900	3.687000	-11.079000	24.619805	0.001012	20.896071
707.187950	-3.004800	3.686600	-11.077000	24.602271	0.001013	20.896495
708.189319	-3.009600	3.685200	-11.090000	24.610728	0.001012	20.883645
709.190231	-2.997700	3.686500	-11.050000	24.603663	0.001012	20.899315
710.189583	-3.012500	3.686600	-11.104000	24.594039	0.001013	20.884917
711.188841	-3.019200	3.686100	-11.126000	24.609733	0.001013	20.897345
712.190410	-3.006700	3.684700	-11.077000	24.576305	0.001010	20.890357
713.189761	-2.995900	3.687100	-11.045000	24.586701	0.001009	20.900787
714.191214	-2.979600	3.685200	-10.979000	24.598665	0.001010	20.887662
715.189218	-3.016700	3.684600	-11.115000	24.595581	0.001009	20.908748
716.190725	-3.011300	3.684700	-11.095000	24.612517	0.001008	20.888285
717.192796	-3.007900	3.685200	-11.084000	24.605653	0.001010	20.888510
718.193917	-3.002700	3.684900	-11.064000	24.619855	0.001010	20.888535
719.197084	-3.017800	3.683200	-11.114000	24.629653	0.001010	20.885091
720.196448	-2.994000	3.683100	-11.026000	24.656165	0.001009	20.886090
721.196363	-2.989300	3.682700	-11.007000	24.663526	0.001008	20.882571
722.206412	-3.005600	3.682600	-11.067000	24.651042	0.001009	20.878579
723.195523	-2.995700	3.682400	-11.030000	24.650247	0.001007	20.883944
724.199779	-2.994400	3.682100	-11.024000	24.679393	0.001009	20.898966
725.196221	-3.006000	3.682100	-11.067000	24.642287	0.001006	20.893500
726.196014	-3.028000	3.679100	-11.139000	24.650569	0.001008	20.884268
727.195650	-2.992000	3.681800	-11.015000	24.607965	0.001010	20.872339
728.195926	-2.997800	3.681900	-11.036000	24.614905	0.001008	20.877405
729.195924	-2.980800	3.681500	-10.973000	24.630747	0.001006	20.889507
730.198629	-3.017700	3.679200	-11.102000	24.653876	0.001008	20.884741
731.195029	-3.034200	3.678900	-11.160000	24.661313	0.001006	20.873238
732.201365	-3.004100	3.679600	-11.053000	24.677801	0.001006	20.890256
733.196229	-2.981400	3.679800	-10.970000	24.679964	0.001006	20.855919
734.197614	-2.968000	3.680200	-10.922000	24.656363	0.001007	20.861160
735.202484	-2.992300	3.678200	-11.005000	24.651437	0.001006	20.872811
736.198773	-2.995500	3.678700	-11.018000	24.683569	0.001005	20.878027
737.198413	-3.007700	3.677500	-11.059000	24.671259	0.001005	20.882744
738.206036	-2.999200	3.678100	-11.030000	24.715850	0.001005	20.868696
739.205750	-3.002100	3.677600	-11.040000	24.696177	0.001006	20.883092
740.200276	-3.007100	3.676500	-11.054000	24.703911	0.001005	20.849130
741.202899	-3.002700	3.677400	-11.041000	24.717739	0.001003	20.858264
742.201213	-2.988300	3.677300	-10.988000	24.712964	0.001001	20.888083
743.201814	-2.983800	3.676500	-10.968000	24.696872	0.001004	20.862929
744.204978	-3.006700	3.676500	-11.052000	24.689139	0.001003	20.852798
745.202852	-2.997100	3.675600	-11.015000	24.659791	0.001004	20.847057
746.208429	-2.995500	3.676600	-11.012000	24.625520	0.001003	20.846807
747.202964	-2.988000	3.676000	-10.983000	24.603410	0.001003	20.861605
748.202766	-2.987900	3.674600	-10.978000	24.597616	0.001004	20.855792
749.203514	-3.011900	3.675200	-11.069000	24.613533	0.001000	20.853745
750.203678	-3.010200	3.674800	-11.062000	24.635867	0.001003	20.852922
751.205221	-3.021300	3.673400	-11.097000	24.636140	0.001001	20.845135
752.207872	-2.998300	3.673200	-11.012000	24.649719	0.001001	20.838372
753.204056	-3.007600	3.673200	-11.046000	24.617886	0.001002	20.864276
754.206757	-3.002800	3.673800	-11.031000	24.612089	0.001000	20.857037
755.209558	-3.001600	3.672300	-11.020000	24.599877	0.001001	20.857587
756.206069	-3.034000	3.672600	-11.140000	24.602239	0.001000	20.851422
757.206025	-3.007900	3.672300	-11.045000	24.627608	0.001001	20.843213
758.204619	-3.005400	3.672400	-11.034000	24.637856	0.001000	20.840693
759.206245	-2.993800	3.672000	-10.992000	24.627507	0.001002	20.830784
760.207285	-3.011100	3.670500	-11.051000	24.633129	0.000999	20.837847
761.210093	-2.998300	3.671200	-11.005000	24.642879	0.000998	20.853794
762.205114	-2.991600	3.671200	-10.982000	24.661108	0.000999	20.836999
763.204816	-3.003700	3.671200	-11.025000	24.679437	0.001000	20.845907
764.205037	-2.992800	3.671500	-10.988000	24.668918	0.001000	20.869490
765.206130	-3.000300	3.671200	-11.014000	24.662377	0.000998	20.830686
766.207441	-3.000800	3.669500	-11.009000	24.668545	0.000999	20.852996
767.207297	-2.982100	3.670900	-10.946000	24.630892	0.000995	20.852672
768.206491	-3.032800	3.668300	-11.124000	24.636636	0.000999	20.823823
769.208205	-3.025100	3.668500	-11.096000	24.657750	0.000997	20.838371
770.208101	-3.002400	3.669500	-11.016000	24.669192	0.000999	20.842740
771.209163	-3.001500	3.668100	-11.008000	24.686700	0.000997	20.841342
772.206843	-3.010600	3.668600	-11.043000	24.705228	0.000995	20.844287
773.207479	-2.983200	3.669800	-10.947000	24.725173	0.000995	20.849129
774.208111	-3.001400	3.668100	-11.009000	24.755387	0.000996	20.841518
775.206950	-2.979500	3.669000	-10.930000	24.743574	0.000997	20.844835
776.207633	-3.002400	3.667800	-11.011000	24.749245	0.000995	20.830612
777.207642	-2.993300	3.667200	-10.975000	24.776153	0.000992	20.837227
778.211880	-2.983400	3.665900	-10.935000	24.743750	0.000994	20.837426
779.208528	-2.987100	3.666900	-10.952000	24.708461	0.000995	20.823350
780.208544	-3.014500	3.664200	-11.044000	24.672874	0.000994	20.841693
781.211738	-3.005300	3.665200	-11.013000	24.650516	0.000994	20.821629
782.209451	-2.999500	3.665100	-10.992000	24.635469	0.000995	20.819333
783.213766	-3.005400	3.665800	-11.015000	24.635992	0.000992	20.825073
784.209517	-3.004900	3.664100	-11.008000	24.625298	0.000993	20.832360
785.209789	-2.981100	3.666000	-10.928000	24.637434	0.000992	20.828891
786.210213	-3.007000	3.665100	-11.020000	24.631367	0.000991	20.834657
787.215664	-2.996400	3.664800	-10.981000	24.654098	0.000993	20.813844
788.208848	-2.985900	3.664600	-10.940000	24.672726	0.000992	20.834906
789.210082	-2.998300	3.663000	-10.983000	24.680634	0.000994	20.837152
790.211612	-3.032200	3.660700	-11.100000	24.690781	0.000991	20.830265
791.209863	-2.982100	3.663100	-10.923000	24.690259	0.000992	20.827844
792.211817	-3.007000	3.662100	-11.011000	24.683692	0.000991	20.824574
793.209830	-3.000600	3.662300	-10.988000	24.696451	0.000991	20.790910
794.211712	-2.977800	3.663100	-10.907000	24.695779	0.000990	20.797348
795.210713	-3.019200	3.661600	-11.054000	24.715574	0.000992	20.837601
796.212186	-3.018000	3.659700	-11.044000	24.698839	0.000988	20.817962
797.213251	-2.995300	3.660000	-10.962000	24.704534	0.000989	20.837901
798.211160	-3.010900	3.660900	-11.022000	24.704509	0.000989	20.826023
799.217778	-2.995100	3.661600	-10.965000	24.693741	0.000990	20.818536
800.210608	-3.013500	3.659700	-11.028000	24.709731	0.000994	20.822729
801.212842	-2.996800	3.659400	-10.965000	24.742606	0.000990	20.805459
802.211107	-3.016400	3.659800	-11.039000	24.745193	0.000987	20.818486
803.214099	-2.972200	3.659900	-10.877000	24.793113	0.000990	20.823428
804.211000	-2.986000	3.660100	-10.928000	24.799404	0.000988	20.798921
805.212039	-3.016600	3.658000	-11.032000	24.795773	0.000987	20.798597
806.211670	-2.997400	3.659200	-10.967000	24.757601	0.000990	20.820032
807.209938	-3.016500	3.658900	-11.036000	24.750665	0.000988	20.811175
808.212674	-3.016800	3.657000	-11.031000	24.771654	0.000988	20.805212
809.210996	-2.996800	3.659700	-10.966000	24.780506	0.000989	20.810776
810.213039	-3.013500	3.657200	-11.020000	24.778741	0.000986	20.810427
811.213394	-2.986600	3.656400	-10.919000	24.804627	0.000987	20.812224
812.211133	-2.982600	3.659200	-10.912000	24.819075	0.000988	20.807757
813.212280	-3.013600	3.657200	-11.021000	24.840585	0.000986	20.808482
814.213029	-2.996000	3.657200	-10.956000	24.860028	0.000988	20.814245
815.213950	-3.020000	3.655800	-11.039000	24.911947	0.000986	20.820361
816.215050	-3.000900	3.657700	-10.975000	24.909683	0.000983	20.819985
817.213559	-3.006100	3.656200	-10.990000	24.893995	0.000987	20.818938
818.213153	-2.978200	3.657100	-10.889000	24.898521	0.000985	20.813050
819.216733	-2.993500	3.654900	-10.940000	24.904214	0.000983	20.810702
820.214656	-2.991400	3.656100	-10.937000	24.909735	0.000985	20.814347
821.217587	-3.011700	3.653700	-11.002000	24.923286	0.000982	20.830793
822.214125	-2.995800	3.654000	-10.945000	24.904912	0.000984	20.819938
823.216174	-2.995900	3.654200	-10.947000	24.920031	0.000983	20.818991
824.217981	-2.976400	3.655100	-10.878000	24.917842	0.000982	20.794509
825.217381	-2.998300	3.653800	-10.954000	24.895315	0.000982	20.818367
826.220245	-3.010500	3.652400	-10.994000	24.917196	0.000982	20.802396
827.216442	-2.975700	3.652700	-10.868000	24.932462	0.000982	20.801596
828.216565	-2.970200	3.652800	-10.849000	24.924953	0.000982	20.805914
829.219781	-2.995500	3.652100	-10.939000	24.913143	0.000982	20.805914
830.219230	-2.989500	3.651800	-10.916000	24.912720	0.000979	20.818766
831.216399	-2.997000	3.653500	-10.949000	24.915828	0.000979	20.793436
832.218475	-3.024400	3.652100	-11.044000	24.902526	0.000980	20.790043
833.221138	-2.998000	3.653000	-10.950000	24.892829	0.000980	20.799276
834.218384	-2.992000	3.652400	-10.926000	24.896956	0.000976	20.807211
835.219969	-3.013900	3.649600	-10.998000	24.898621	0.000978	20.815046
836.219001	-3.030500	3.648200	-11.056000	24.923957	0.000979	20.808233
837.223392	-2.998700	3.651200	-10.948000	24.907100	0.000977	20.786572
838.219674	-2.980700	3.650300	-10.879000	24.881936	0.000978	20.813948
839.218559	-2.997900	3.649000	-10.938000	24.911924	0.000979	20.791414
840.224171	-2.994600	3.649200	-10.927000	24.903345	0.000977	20.811727
841.217732	-3.015500	3.648400	-11.000000	24.913888	0.000977	20.818041
842.218702	-3.019900	3.648600	-11.017000	24.915703	0.000977	20.798526
843.219161	-3.002800	3.648700	-10.956000	24.874354	0.000976	20.800648
844.219682	-3.024200	3.648300	-11.032000	24.918860	0.000975	20.784151
845.218373	-2.999000	3.647300	-10.937000	24.910929	0.000975	20.803692
846.231370	-3.026300	3.648000	-11.039000	24.913489	0.000975	20.794882
847.220925	-3.017400	3.647300	-11.003000	24.929029	0.000976	20.796254
848.222574	-3.023800	3.645800	-11.024000	24.940515	0.000975	20.793558
849.223471	-2.979800	3.647200	-10.866000	24.959038	0.000976	20.818314
850.225072	-3.011300	3.645700	-10.977000	24.962145	0.000975	20.795829
851.225476	-2.968400	3.646600	-10.824000	24.982086	0.000971	20.796877
852.229049	-3.013300	3.645700	-10.985000	25.017464	0.000972	20.795405
853.226573	-3.013500	3.645600	-10.985000	24.985790	0.000974	20.794905
854.224562	-3.007700	3.644300	-10.960000	24.998967	0.000973	20.796278
855.223204	-3.004000	3.645500	-10.950000	24.993621	0.000970	20.788067
856.230680	-3.008400	3.644500	-10.963000	24.972761	0.000971	20.780879
857.229544	-3.030900	3.643000	-11.040000	24.911921	0.000972	20.793782
858.228745	-2.992700	3.645600	-10.909000	24.905876	0.000970	20.785819
859.226093	-3.011900	3.646300	-10.980000	24.907396	0.000969	20.784973
860.227206	-2.992200	3.645100	-10.906000	24.944913	0.000970	20.798447
861.226160	-2.997000	3.643500	-10.919000	24.941881	0.000968	20.789239
862.226585	-2.992600	3.644700	-10.905000	24.945858	0.000971	20.766204
863.225366	-2.994500	3.643700	-10.910000	24.987726	0.000971	20.793056
864.227520	-2.994200	3.644200	-10.910000	24.978082	0.000969	20.794281
865.231036	-2.993600	3.641600	-10.900000	24.975022	0.000969	20.800693
866.227279	-2.995300	3.644100	-10.914000	25.002593	0.000971	20.790435
867.234643	-2.997600	3.641900	-10.916000	25.026138	0.000969	20.798422
868.227987	-3.009400	3.642000	-10.958000	24.983674	0.000968	20.782825
869.231197	-2.988700	3.641900	-10.883000	24.993395	0.000969	20.792582
870.229609	-3.000300	3.641900	-10.926000	24.966220	0.000967	20.784745
871.230104	-2.996900	3.640000	-10.908000	24.972959	0.000968	20.781552
872.235551	-3.008900	3.640900	-10.954000	24.967687	0.000968	20.788114
873.231042	-3.007900	3.639600	-10.946000	24.994165	0.000966	20.777708
874.232363	-3.024600	3.640800	-11.011000	24.972808	0.000966	20.788513
875.231126	-3.039700	3.637100	-11.055000	24.911919	0.000965	20.786194
876.234736	-3.020700	3.639600	-10.993000	24.903764	0.000968	20.793181
877.234478	-2.988500	3.638300	-10.872000	24.852990	0.000963	20.780629
878.236054	-3.019000	3.637000	-10.979000	24.869276	0.000965	20.773741
879.234701	-2.984800	3.637700	-10.856000	24.871490	0.000967	20.766954
880.233186	-3.009300	3.637800	-10.947000	24.897249	0.000963	20.794230
881.234949	-3.012500	3.638000	-10.958000	24.875866	0.000964	20.767551
882.242393	-2.978300	3.637200	-10.831000	24.866195	0.000964	20.798149
883.235795	-2.990100	3.636700	-10.873000	24.857715	0.000965	20.785371
884.235573	-2.974300	3.637500	-10.818000	24.883426	0.000965	20.788890
885.236846	-2.989900	3.636500	-10.871000	24.880889	0.000961	20.789189
886.239976	-2.998300	3.636400	-10.901000	24.930170	0.000963	20.779856
887.237551	-2.990400	3.636600	-10.873000	24.928628	0.000963	20.779731
888.241882	-3.007600	3.636900	-10.937000	24.945635	0.000961	20.776412
889.240676	-3.008400	3.636800	-10.939000	24.962742	0.000960	20.771772
890.239092	-2.994400	3.635900	-10.886000	24.969902	0.000960	20.786544
891.240893	-2.991300	3.637000	-10.878000	25.019552	0.000961	20.789439
892.239309	-2.979100	3.636200	-10.831000	25.001081	0.000962	20.769950
893.242923	-3.003200	3.635000	-10.916000	24.954239	0.000962	20.774617
894.239732	-3.013500	3.633500	-10.948000	24.936809	0.000961	20.783674
895.241482	-2.990600	3.634100	-10.867000	24.927138	0.000961	20.778709
896.241502	-3.011600	3.634400	-10.944000	24.916745	0.000958	20.787244
897.241670	-3.004200	3.633800	-10.915000	24.936760	0.000959	20.747115
898.242947	-2.995900	3.634000	-10.886000	24.961027	0.000957	20.774792
899.241630	-2.986900	3.633000	-10.849000	24.955657	0.000959	20.761340
900.241565	-2.989700	3.633300	-10.862000	24.943101	0.000959	20.744944
901.241086	-3.017600	3.631200	-10.957000	24.926268	0.000957	20.765507
902.243442	-2.987900	3.632300	-10.853000	24.897874	0.000955	20.784425
903.241627	-3.016100	3.630000	-10.947000	24.915154	0.000955	20.746766
904.247298	-2.995700	3.630900	-10.876000	24.912569	0.000957	20.756025
905.240354	-3.011800	3.630800	-10.935000	24.951406	0.000955	20.761341
906.244790	-3.019400	3.629500	-10.958000	24.969683	0.000955	20.750762
907.240929	-2.996500	3.630700	-10.878000	24.979900	0.000954	20.776191
908.242130	-3.003700	3.630800	-10.904000	25.007248	0.000955	20.766183
909.248288	-2.997500	3.630100	-10.880000	25.031165	0.000954	20.777863
910.240349	-2.997500	3.628600	-10.875000	25.031190	0.000954	20.753232
911.241866	-2.987000	3.628700	-10.838000	25.066867	0.000957	20.740205
912.241314	-3.000900	3.629100	-10.890000	25.076686	0.000955	20.742950
913.242243	-2.983300	3.629600	-10.828000	25.057890	0.000952	20.754903
914.241216	-3.024800	3.628500	-10.975000	25.053268	0.000953	20.755953
915.245726	-2.994800	3.630000	-10.869000	25.033752	0.000954	20.731146
916.241789	-2.999000	3.628800	-10.882000	25.029650	0.000953	20.744099
917.241335	-2.981600	3.628600	-10.818000	24.990220	0.000953	20.735340
918.243628	-3.023600	3.628300	-10.968000	24.970628	0.000951	20.734166
919.245086	-2.979000	3.628500	-10.807000	24.964363	0.000952	20.756803
920.251045	-3.007700	3.628000	-10.911000	24.989102	0.000952	20.744175
921.245158	-3.012600	3.627200	-10.926000	24.991090	0.000950	20.767982
922.247545	-2.988600	3.626300	-10.837000	25.002901	0.000951	20.754707
923.246604	-3.011000	3.624300	-10.913000	25.009762	0.000951	20.755430
924.246934	-3.011200	3.625600	-10.915000	25.013268	0.000950	20.757053
925.248667	-2.989500	3.625900	-10.838000	25.001259	0.000948	20.746895
926.246697	-2.997700	3.624300	-10.864000	25.037507	0.000947	20.756728
927.247144	-3.007300	3.624200	-10.898000	25.031739	0.000947	20.758998
928.247412	-2.997000	3.625500	-10.863000	25.054637	0.000947	20.746895
929.246835	-3.023000	3.624000	-10.955000	25.063661	0.000945	20.740307
930.247422	-2.994300	3.624600	-10.852000	25.094415	0.000947	20.757428
931.248742	-3.002100	3.624900	-10.880000	25.121436	0.000947	20.753260
932.247984	-3.010700	3.623900	-10.909000	25.142193	0.000947	20.733793
933.248698	-2.994200	3.624400	-10.851000	25.159645	0.000945	20.753685
934.247493	-3.008900	3.622200	-10.898000	25.177540	0.000945	20.767383
935.248518	-3.007500	3.622400	-10.893000	25.194370	0.000946	20.733543
936.252400	-3.020500	3.622400	-10.941000	25.191139	0.000944	20.746421
937.248405	-2.981300	3.622600	-10.799000	25.180871	0.000945	20.753183
938.249661	-3.013900	3.622100	-10.916000	25.167821	0.000943	20.735814
939.256154	-2.989700	3.621700	-10.826000	25.138388	0.000943	20.741828
940.247848	-2.989400	3.622500	-10.828000	25.137296	0.000945	20.734567
941.253297	-3.010100	3.621900	-10.900000	25.127899	0.000942	20.752161
942.250321	-2.973000	3.623000	-10.771000	25.120019	0.000942	20.738086
943.250535	-3.029300	3.620000	-10.965000	25.155964	0.000943	20.777017
944.250772	-3.000500	3.620600	-10.862000	25.174906	0.000942	20.735814
945.249267	-2.975700	3.620100	-10.771000	25.188751	0.000940	20.760620
946.249873	-3.012700	3.618400	-10.901000	25.205331	0.000940	20.738384
947.248788	-2.995400	3.620000	-10.841000	25.206250	0.000941	20.743575
948.249080	-2.990600	3.620000	-10.825000	25.203217	0.000942	20.753806
949.249078	-3.001400	3.618200	-10.859000	25.212912	0.000941	20.736038
950.250755	-3.005400	3.619800	-10.877000	25.184277	0.000938	20.737161
951.255841	-2.999200	3.617600	-10.849000	25.154048	0.000939	20.743798
952.253630	-2.984900	3.618000	-10.797000	25.192008	0.000940	20.748717
953.254481	-3.016700	3.616000	-10.907000	25.150344	0.000938	20.740554
954.258880	-2.999900	3.616200	-10.847000	25.158051	0.000939	20.735963
955.255463	-2.990800	3.616100	-10.813000	25.171947	0.000940	20.738060
956.255973	-3.008000	3.616900	-10.878000	25.169958	0.000936	20.728476
957.260864	-2.993500	3.617300	-10.828000	25.154347	0.000938	20.749789
958.256179	-2.990200	3.616100	-10.812000	25.164291	0.000936	20.745072
959.254937	-3.014400	3.615900	-10.899000	25.162227	0.000936	20.746319
960.256509	-2.988000	3.615400	-10.801000	25.092646	0.000937	20.738582
961.258785	-3.021200	3.614800	-10.921000	25.090707	0.000935	20.751335
962.260140	-2.992700	3.615000	-10.817000	25.086855	0.000937	20.741778
963.259755	-3.003600	3.614300	-10.856000	25.087252	0.000936	20.742177
964.256831	-3.009100	3.615000	-10.877000	25.100278	0.000936	20.756676
965.255554	-2.987100	3.615800	-10.799000	25.148977	0.000935	20.729698
966.258076	-3.002700	3.614600	-10.853000	25.139035	0.000930	20.748168
967.260900	-2.991000	3.612800	-10.805000	25.164093	0.000932	20.727329
968.256951	-3.014100	3.612000	-10.886000	25.197899	0.000933	20.745147
969.258456	-3.015000	3.612300	-10.891000	25.181069	0.000932	20.756701
970.255929	-2.994500	3.614400	-10.822000	25.233445	0.000930	20.743850
971.257713	-2.993100	3.612500	-10.812000	25.244282	0.000933	20.743351
972.257574	-2.986700	3.612400	-10.788000	25.244580	0.000932	20.736537
973.258505	-3.009200	3.610200	-10.862000	25.232351	0.000932	20.745122
974.258130	-3.000800	3.610700	-10.834000	25.199763	0.000932	20.748441
975.262186	-3.027900	3.611000	-10.933000	25.208811	0.000929	20.748991
976.257390	-2.997000	3.610600	-10.820000	25.210178	0.000929	20.744199
977.259143	-2.999300	3.609900	-10.826000	25.202720	0.000929	20.740504
978.260695	-2.969200	3.611300	-10.722000	25.200185	0.000930	20.755504
979.258605	-2.978500	3.610600	-10.753000	25.135653	0.000929	20.740030
980.260753	-3.007600	3.609400	-10.854000	25.141967	0.000928	20.765811
981.260866	-2.981200	3.609100	-10.758000	25.161108	0.000927	20.733816
982.259311	-2.987700	3.607900	-10.779000	25.166652	0.000927	20.758823
983.261907	-2.989700	3.608200	-10.786000	25.225142	0.000927	20.773447
984.262704	-3.018600	3.607300	-10.887000	25.249354	0.000926	20.742753
985.262595	-2.996900	3.609000	-10.814000	25.259493	0.000927	20.769529
986.260288	-3.005200	3.607700	-10.840000	25.236006	0.000926	20.741205
987.259627	-2.989300	3.608500	-10.786000	25.264342	0.000926	20.742628
988.262939	-2.980300	3.605600	-10.743000	25.241647	0.000927	20.752559
989.266657	-2.986900	3.606900	-10.772000	25.239907	0.000925	20.749390
990.264380	-3.006200	3.606200	-10.839000	25.231630	0.000923	20.752460
991.267259	-3.010900	3.604800	-10.852000	25.238018	0.000923	20.759347
992.262364	-2.983100	3.605700	-10.755000	25.234042	0.000920	20.759623
993.264720	-2.994800	3.606800	-10.800000	25.221786	0.000922	20.748266
994.266779	-2.993500	3.604800	-10.790000	25.242367	0.000922	20.746169
995.264501	-2.992800	3.605600	-10.790000	25.254174	0.000920	20.778413
996.267056	-2.998400	3.604500	-10.806000	25.228795	0.000921	20.767632
997.266231	-3.020400	3.604500	-10.886000	25.230038	0.000921	20.770302
998.268813	-3.001800	3.603200	-10.815000	25.218132	0.000921	20.764039
999.268314	-3.025700	3.603900	-10.903000	25.230834	0.000921	20.771576
1000.267577	-2.997200	3.605300	-10.803000	25.218056	0.000918	20.761118
1001.265536	-3.009800	3.602100	-10.840000	25.239558	0.000920	20.759471
1002.267801	-3.012300	3.601700	-10.848000	25.217087	0.000918	20.754454
1003.267354	-3.011200	3.601400	-10.843000	25.224593	0.000918	20.752982
1004.267827	-3.028000	3.601600	-10.905000	25.197101	0.000917	20.775167
1005.271884	-3.002100	3.601500	-10.811000	25.196032	0.000919	20.771249
1006.269305	-3.015700	3.602100	-10.861000	25.214948	0.000919	20.762739
1007.275056	-3.003200	3.601400	-10.814000	25.245423	0.000916	20.752557
1008.269114	-3.005200	3.600900	-10.821000	25.247535	0.000918	20.758946
1009.268789	-2.988900	3.600900	-10.761000	25.270700	0.000917	20.770349
1010.275272	-2.999200	3.599300	-10.795000	25.285415	0.000915	20.786546
1011.272232	-3.013300	3.600600	-10.848000	25.289964	0.000914	20.763138
1012.271926	-3.022200	3.598300	-10.873000	25.288174	0.000915	20.767030
1013.272536	-3.017500	3.598300	-10.856000	25.321580	0.000914	20.772596
1014.271611	-3.010400	3.597100	-10.828000	25.307313	0.000914	20.775815
1015.282939	-2.995200	3.599200	-10.779000	25.310096	0.000913	20.783826
1016.272682	-2.992200	3.598600	-10.766000	25.313824	0.000912	20.766232
1017.271551	-2.996800	3.598500	-10.783000	25.342009	0.000913	20.769875
1018.273297	-2.986400	3.597400	-10.743000	25.364601	0.000913	20.765058
1019.272603	-2.996900	3.598800	-10.785000	25.350137	0.000913	20.770449
1020.273822	-3.012400	3.595300	-10.830000	25.382372	0.000910	20.764410
1021.277808	-3.011200	3.597000	-10.830000	25.363013	0.000909	20.769153
1022.277095	-3.004700	3.597400	-10.808000	25.354736	0.000912	20.775067
1023.276430	-3.003500	3.596300	-10.801000	25.353020	0.000909	20.771922
1024.277787	-3.007700	3.596300	-10.816000	25.357394	0.000911	20.799074
1025.277018	-2.987100	3.597700	-10.744000	25.368703	0.000913	20.752107
1026.276627	-3.010700	3.596100	-10.825000	25.344322	0.000909	20.737583
1027.280127	-2.993400	3.594600	-10.759000	25.293767	0.000907	20.780233
1028.279305	-2.994600	3.594200	-10.762000	25.275996	0.000908	20.786098
1029.277177	-2.992700	3.594200	-10.755000	25.268937	0.000907	20.761941
1030.279389	-2.998800	3.594600	-10.779000	25.318598	0.000907	20.773870
1031.279495	-3.008900	3.594500	-10.814000	25.304928	0.000907	20.770576
1032.278302	-2.991200	3.593100	-10.746000	25.320163	0.000905	20.775441
1033.277529	-2.995500	3.592400	-10.759000	25.296923	0.000909	20.794782
1034.281888	-2.992900	3.591700	-10.749000	25.298490	0.000905	20.776440
1035.280713	-3.023800	3.592200	-10.861000	25.301970	0.000903	20.774718
1036.280781	-2.984500	3.593000	-10.722000	25.375888	0.000903	20.771651
1037.280967	-3.015300	3.592400	-10.832000	25.356626	0.000901	20.778388
1038.281238	-3.005700	3.592300	-10.796000	25.316363	0.000905	20.783480
1039.280023	-2.990500	3.592300	-10.742000	25.289693	0.000904	20.791789
1040.279529	-2.999300	3.590900	-10.770000	25.282037	0.000903	20.783154
1041.282426	-2.994200	3.592400	-10.755000	25.311019	0.000902	20.784752
1042.279807	-3.005700	3.588900	-10.786000	25.341391	0.000903	20.781109
1043.287042	-2.994800	3.589900	-10.749000	25.330803	0.000901	20.780434
1044.286463	-2.996800	3.590400	-10.759000	25.294863	0.000903	20.769005
1045.281974	-2.985000	3.589700	-10.715000	25.294539	0.000901	20.784801
1046.283672	-2.989200	3.589000	-10.727000	25.313056	0.000902	20.778737
1047.285181	-2.979800	3.589700	-10.695000	25.345094	0.000898	20.782456
1048.281212	-2.990900	3.588000	-10.730000	25.373825	0.000898	20.796132
1049.282355	-2.992600	3.589300	-10.740000	25.363933	0.000898	20.787622
1050.282314	-2.991000	3.587500	-10.730000	25.370768	0.000900	20.808709
1051.283318	-2.997700	3.588500	-10.756000	25.335078	0.000899	20.798003
1052.285779	-2.987000	3.588700	-10.718000	25.304283	0.000897	20.778937
1053.282785	-3.000900	3.587200	-10.764000	25.274431	0.000897	20.787372
1054.286795	-3.022400	3.586600	-10.838000	25.304483	0.000897	20.786251
1055.282944	-2.999700	3.585400	-10.754000	25.297398	0.000897	20.785301
1056.285106	-2.983800	3.586400	-10.700000	25.332742	0.000894	20.778114
1057.283628	-3.008500	3.585600	-10.786000	25.373777	0.000895	20.800825
1058.283042	-2.998300	3.585000	-10.748000	25.377282	0.000893	20.798654
1059.283036	-3.020500	3.583600	-10.822000	25.369999	0.000893	20.779013
1060.283522	-3.003600	3.585100	-10.767000	25.386179	0.000894	20.784828
1061.282839	-3.002400	3.584100	-10.760000	25.410461	0.000893	20.792615
1062.281299	-2.990700	3.584200	-10.718000	25.393785	0.000895	20.826605
1063.287238	-3.013000	3.583100	-10.794000	25.368858	0.000894	20.781187
1064.283039	-2.965000	3.585700	-10.631000	25.311967	0.000894	20.800403
1065.284465	-2.970000	3.584700	-10.645000	25.323549	0.000892	20.807290
1066.283121	-3.012900	3.581200	-10.788000	25.291785	0.000891	20.817124
1067.282708	-3.007600	3.582100	-10.773000	25.266608	0.000891	20.813656
1068.286234	-2.986200	3.582400	-10.696000	25.262183	0.000889	20.804472
1069.284795	-2.989300	3.581700	-10.705000	25.285373	0.000891	20.789823
1070.286889	-2.989900	3.582400	-10.710000	25.308861	0.000889	20.823363
1071.286336	-2.990700	3.581300	-10.708000	25.297254	0.000890	20.801278
1072.283558	-2.984400	3.581100	-10.686000	25.319102	0.000887	20.820369
1073.285577	-3.014100	3.581700	-10.794000	25.326310	0.000887	20.808166
1074.285922	-3.003300	3.580500	-10.753000	25.355366	0.000887	20.814581
1075.283763	-3.015800	3.580200	-10.796000	25.366749	0.000886	20.800880
1076.285417	-3.006500	3.579800	-10.762000	25.381288	0.000886	20.805996
1077.283621	-2.997900	3.580000	-10.731000	25.382184	0.000886	20.809740
1078.283465	-3.011600	3.580900	-10.783000	25.372068	0.000886	20.826135
1079.287032	-2.995400	3.579000	-10.720000	25.398240	0.000884	20.834871
1080.286844	-2.999700	3.579300	-10.736000	25.378009	0.000887	20.825462
1081.290890	-2.983200	3.580800	-10.680000	25.391332	0.000884	20.785735
1082.286795	-3.004500	3.577000	-10.746000	25.384297	0.000884	20.817078
1083.286912	-2.999500	3.578800	-10.733000	25.402540	0.000882	20.816430
1084.291305	-2.987300	3.579300	-10.691000	25.434500	0.000884	20.816280
1085.287928	-3.027900	3.577600	-10.831000	25.466287	0.000883	20.814061
1086.287794	-2.988300	3.576700	-10.688000	25.452619	0.000881	20.822146
1087.288284	-3.011800	3.575800	-10.769000	25.470413	0.000880	20.815359
1088.288080	-3.005200	3.577000	-10.748000	25.476749	0.000879	20.824093
1089.288342	-2.996000	3.576300	-10.713000	25.458137	0.000879	20.836696
1090.292452	-2.987700	3.575700	-10.682000	25.446184	0.000880	20.826590
1091.292104	-2.970700	3.576400	-10.623000	25.478316	0.000879	20.816657
1092.288546	-3.021200	3.575000	-10.799000	25.488108	0.000878	20.828386
1093.288707	-3.010200	3.573600	-10.756000	25.478641	0.000879	20.815087
1094.294497	-2.987800	3.577100	-10.686000	25.415814	0.000880	20.834500
1095.291008	-3.009200	3.575900	-10.760000	25.425210	0.000878	20.824020
1096.288978	-3.008400	3.572300	-10.745000	25.438828	0.000877	20.821575
1097.288842	-3.017800	3.574700	-10.786000	25.459679	0.000876	20.827339
1098.288707	-2.996900	3.574100	-10.710000	25.462314	0.000875	20.818606
1099.290639	-3.001500	3.572900	-10.722000	25.497157	0.000875	20.844111
1100.291578	-3.008600	3.571900	-10.745000	25.502076	0.000876	20.841939
1101.290614	-2.970000	3.573600	-10.613000	25.527474	0.000875	20.828565
1102.293857	-3.023900	3.571500	-10.799000	25.536071	0.000874	20.834353
1103.291921	-3.021400	3.570000	-10.784000	25.548523	0.000873	20.827417
1104.293543	-2.980500	3.571700	-10.644000	25.569046	0.000875	20.831907
1105.293535	-2.994300	3.570800	-10.691000	25.572800	0.000869	20.847056
1106.292893	-2.999000	3.570300	-10.705000	25.578713	0.000873	20.825020
1107.292989	-3.004400	3.570600	-10.727000	25.583409	0.000872	20.832581
1108.291619	-3.013400	3.570600	-10.758000	25.565345	0.000868	20.829613
1109.292134	-3.009300	3.569300	-10.739000	25.546011	0.000873	20.832007
1110.294429	-3.017700	3.570000	-10.772000	25.511272	0.000872	20.857811
1111.297314	-3.009300	3.569300	-10.740000	25.455109	0.000871	20.838870
1112.302114	-3.013800	3.569500	-10.757000	25.431598	0.000869	20.846081
1113.296049	-2.997800	3.568700	-10.697000	25.433014	0.000870	20.832331
1114.294868	-3.000800	3.568500	-10.707000	25.407913	0.000866	20.836049
1115.295425	-2.987600	3.568900	-10.661000	25.374660	0.000868	20.828264
1116.300072	-2.995900	3.567600	-10.687000	25.368296	0.000868	20.837046
1117.294733	-2.972400	3.568000	-10.605000	25.380252	0.000867	20.857585
1118.298517	-3.013400	3.566800	-10.747000	25.428116	0.000871	20.845904
1119.295462	-3.014800	3.566200	-10.750000	25.423991	0.000864	20.846504
1120.296247	-2.985900	3.566700	-10.649000	25.404383	0.000866	20.826815
1121.300858	-2.999800	3.567100	-10.699000	25.434629	0.000865	20.847702
1122.300194	-3.005200	3.566100	-10.716000	25.444668	0.000863	20.845929
1123.300293	-3.005800	3.565600	-10.717000	25.468874	0.000864	20.837994
1124.298033	-3.014000	3.565300	-10.744000	25.466835	0.000863	20.865344
1125.299950	-3.000700	3.564300	-10.694000	25.439151	0.000863	20.857933
1126.299565	-2.997500	3.564000	-10.681000	25.460175	0.000863	20.852966
1127.300762	-3.020800	3.564300	-10.765000	25.439499	0.000862	20.856385
1128.302279	-3.002800	3.563500	-10.698000	25.449737	0.000863	20.846753
1129.307123	-3.017200	3.563700	-10.752000	25.468003	0.000859	20.852292
1130.303516	-2.991900	3.562700	-10.658000	25.526078	0.000860	20.863671
1131.300682	-3.008600	3.562300	-10.717000	25.532068	0.000861	20.840290
1132.302693	-3.014400	3.562000	-10.736000	25.577270	0.000862	20.852494
1133.301208	-3.003300	3.562000	-10.697000	25.580326	0.000861	20.847976
1134.299741	-3.012700	3.561900	-10.730000	25.579357	0.000855	20.861227
1135.300918	-2.997100	3.561100	-10.673000	25.539026	0.000857	20.854389
1136.301089	-3.012800	3.561600	-10.728000	25.532391	0.000855	20.839191
1137.301211	-2.987300	3.561600	-10.638000	25.526253	0.000856	20.870010
1138.304306	-2.986600	3.561000	-10.634000	25.510175	0.000858	20.858132
1139.300961	-3.002600	3.561300	-10.692000	25.487114	0.000856	20.843983
1140.303341	-2.989600	3.561600	-10.647000	25.476428	0.000857	20.866916
1141.301208	-2.977900	3.560000	-10.600000	25.500160	0.000854	20.869885
1142.300467	-3.006700	3.559300	-10.701000	25.516264	0.000855	20.864247
1143.305988	-2.988400	3.558600	-10.633000	25.553190	0.000853	20.874302
1144.304853	-3.002900	3.557800	-10.682000	25.532665	0.000854	20.875501
1145.308642	-2.991300	3.558900	-10.645000	25.529584	0.000855	20.875252
1146.300562	-2.989600	3.559000	-10.639000	25.515842	0.000854	20.863349
1147.302458	-2.988300	3.557900	-10.631000	25.514500	0.000851	20.877173
1148.303583	-2.982500	3.558500	-10.612000	25.523297	0.000851	20.869886
1149.304325	-2.984100	3.556400	-10.612000	25.526404	0.000851	20.882015
1150.302266	-3.006500	3.556800	-10.693000	25.494967	0.000852	20.886006
1151.303603	-3.007000	3.556000	-10.692000	25.493203	0.000849	20.867167
1152.303173	-2.980100	3.556600	-10.598000	25.460748	0.000849	20.868714
1153.304336	-2.976200	3.557600	-10.587000	25.460647	0.000849	20.873828
1154.306567	-2.971500	3.556800	-10.567000	25.476679	0.000850	20.881866
1155.303957	-2.979400	3.555200	-10.591000	25.488359	0.000850	20.882215
1156.306959	-3.007800	3.556400	-10.695000	25.512736	0.000847	20.880143
1157.305671	-3.004800	3.553600	-10.676000	25.497105	0.000845	20.870137
1158.306046	-3.001300	3.555100	-10.668000	25.462936	0.000849	20.885135
1159.309628	-3.014500	3.553200	-10.710000	25.482766	0.000845	20.872806
1160.307289	-3.017500	3.552600	-10.719000	25.505480	0.000844	20.886606
1161.311765	-3.021800	3.552600	-10.733000	25.515172	0.000844	20.893019
1162.312337	-2.998200	3.552300	-10.650000	25.539624	0.000844	20.880118
1163.307899	-2.996200	3.552400	-10.643000	25.585620	0.000845	20.880792
1164.311142	-3.010300	3.553100	-10.695000	25.609673	0.000843	20.878871
1165.308741	-2.999300	3.551800	-10.652000	25.650696	0.000844	20.890674
1166.311854	-3.007600	3.551900	-10.682000	25.652833	0.000842	20.901353
1167.307942	-3.012100	3.549700	-10.690000	25.679569	0.000842	20.879844
1168.309012	-3.011600	3.550700	-10.692000	25.683570	0.000842	20.876277
1169.313550	-2.994900	3.551000	-10.634000	25.706924	0.000843	20.885509
1170.310544	-3.008300	3.551400	-10.683000	25.737036	0.000840	20.890624
1171.309705	-3.025400	3.550400	-10.741000	25.743768	0.000837	20.860404
1172.310966	-3.030000	3.549600	-10.754000	25.696712	0.000839	20.882838
1173.309886	-2.994400	3.550300	-10.631000	25.630396	0.000838	20.881191
1174.313899	-3.022400	3.549800	-10.727000	25.598318	0.000837	20.877424
1175.321298	-2.989600	3.548500	-10.607000	25.558757	0.000839	20.880841
1176.313466	-3.003600	3.547300	-10.653000	25.544444	0.000834	20.882587
1177.312480	-2.993000	3.547900	-10.617000	25.525609	0.000836	20.881691
1178.313965	-2.993700	3.548100	-10.620000	25.533310	0.000837	20.882312
1179.314185	-3.008600	3.548900	-10.676000	25.543177	0.000836	20.890323
1180.318629	-3.001300	3.547600	-10.647000	25.567628	0.000833	20.875052
1181.313933	-2.998000	3.546400	-10.630000	25.589098	0.000837	20.872432
1182.320154	-3.018600	3.547000	-10.705000	25.620803	0.000832	20.871083
1183.321842	-2.970700	3.548200	-10.538000	25.608827	0.000832	20.857160
1184.316223	-2.978700	3.546600	-10.563000	25.587830	0.000831	20.869262
1185.320201	-2.979500	3.547200	-10.568000	25.578934	0.000830	20.862225
1186.317537	-2.994600	3.546300	-10.619000	25.582785	0.000828	20.850920
1187.318003	-2.996100	3.545100	-10.621000	25.605696	0.000828	20.868239
1188.317464	-2.994700	3.545200	-10.616000	25.606316	0.000829	20.859853
1189.320853	-3.033800	3.543300	-10.749000	25.595657	0.000829	20.856734
1190.316718	-3.013400	3.543100	-10.676000	25.597618	0.000828	20.859179
1191.318120	-2.997000	3.543700	-10.620000	25.589990	0.000829	20.850095
1192.319971	-3.018300	3.543200	-10.693000	25.602240	0.000829	20.864294
1193.320961	-3.022800	3.542600	-10.707000	25.602538	0.000827	20.853214
1194.321045	-2.999500	3.541800	-10.622000	25.648034	0.000828	20.856234
1195.318902	-3.019400	3.541900	-10.693000	25.691639	0.000828	20.847399
1196.322444	-2.995100	3.541700	-10.607000	25.729878	0.000829	20.868736
1197.321162	-2.996000	3.541800	-10.610000	25.720163	0.000827	20.854711
1198.319722	-3.002900	3.539500	-10.628000	25.675041	0.000824	20.856807
1199.322762	-3.003100	3.541300	-10.634000	25.666394	0.000824	20.869458
1200.319963	-3.027600	3.541200	-10.720000	25.644555	0.000824	20.842309
1201.322267	-3.006900	3.540100	-10.644000	25.653302	0.000824	20.825490
1202.320359	-3.002700	3.539800	-10.628000	25.655960	0.000822	20.854237
1203.322885	-3.018200	3.539300	-10.681000	25.632156	0.000820	20.840287
1204.321313	-3.000300	3.539200	-10.618000	25.661873	0.000824	20.857805
1205.321273	-3.000800	3.537900	-10.615000	25.675464	0.000820	20.841110
1206.326849	-3.015800	3.537300	-10.666000	25.666396	0.000823	20.853339
1207.327040	-3.005800	3.538600	-10.636000	25.717577	0.000821	20.849743
1208.327935	-2.983700	3.538600	-10.557000	25.712783	0.000822	20.855359
1209.330784	-2.993300	3.537100	-10.586000	25.677999	0.000820	20.821372
1210.328465	-2.995500	3.537700	-10.596000	25.675390	0.000820	20.830606
1211.328560	-2.991800	3.536300	-10.579000	25.641151	0.000821	20.838890
1212.328703	-3.018000	3.534600	-10.666000	25.620029	0.000820	20.833798
1213.326272	-3.001100	3.536200	-10.612000	25.630864	0.000818	20.832826
1214.326968	-3.009600	3.536500	-10.642000	25.624404	0.000819	20.840562
1215.327290	-3.008400	3.535400	-10.635000	25.619259	0.000818	20.824016
1216.326225	-3.011400	3.536100	-10.647000	25.612824	0.000820	20.827985
1217.327182	-3.019100	3.536100	-10.673000	25.577068	0.000817	20.824791
1218.326477	-2.999600	3.535000	-10.603000	25.584994	0.000815	20.818053
1219.328434	-3.004400	3.533500	-10.615000	25.629870	0.000816	20.841310
1220.328892	-2.995900	3.534700	-10.588000	25.659960	0.000817	20.821271
1221.328250	-2.998700	3.534100	-10.597000	25.707069	0.000816	20.833975
1222.331229	-2.984900	3.533400	-10.546000	25.668234	0.000814	20.835272
1223.328064	-3.010400	3.532300	-10.632000	25.676557	0.000812	20.822769
1224.330345	-3.016800	3.531300	-10.652000	25.659140	0.000812	20.830405
1225.328367	-3.003300	3.532700	-10.608000	25.662569	0.000812	20.809194
1226.330366	-3.003800	3.531300	-10.606000	25.643860	0.000811	20.813162
1227.328441	-2.982200	3.532100	-10.533000	25.631263	0.000812	20.828485
1228.333032	-3.029500	3.530400	-10.694000	25.631933	0.000811	20.831055
1229.331891	-2.982500	3.533100	-10.535000	25.637921	0.000810	20.829008
1230.332386	-3.013600	3.531400	-10.640000	25.624778	0.000810	20.825765
1231.330877	-3.005500	3.529600	-10.607000	25.681428	0.000807	20.818178
1232.331824	-3.011400	3.529900	-10.629000	25.699268	0.000805	20.815234
1233.336321	-2.969800	3.530700	-10.484000	25.698000	0.000807	20.812064
1234.332749	-2.999500	3.529700	-10.586000	25.688958	0.000809	20.810568
1235.334673	-3.025000	3.527200	-10.668000	25.691094	0.000805	20.823144
1236.335217	-2.991400	3.528800	-10.555000	25.692013	0.000806	20.805576
1237.333130	-2.991600	3.530200	-10.560000	25.702869	0.000804	20.815532
1238.337774	-3.020700	3.528100	-10.656000	25.722623	0.000805	20.819725
1239.336911	-3.001100	3.527300	-10.584000	25.759965	0.000804	20.808870
1240.335128	-3.000300	3.526800	-10.580000	25.785206	0.000804	20.839439
1241.334798	-3.022300	3.526900	-10.658000	25.802199	0.000806	20.815732
1242.336080	-2.996900	3.528100	-10.572000	25.775815	0.000802	20.820998
1243.334397	-2.999500	3.527400	-10.579000	25.799019	0.000802	20.806374
1244.340432	-3.014800	3.525800	-10.629000	25.781727	0.000804	20.813186
1245.336178	-3.029100	3.524400	-10.674000	25.799019	0.000801	20.800684
1246.335725	-2.992300	3.525300	-10.547000	25.801454	0.000800	20.812139
1247.334881	-3.024800	3.525100	-10.661000	25.818422	0.000802	20.811640
1248.336289	-3.009900	3.524400	-10.607000	25.814473	0.000799	20.799138
1249.339463	-3.033400	3.523200	-10.686000	25.821775	0.000799	20.812637
1250.338766	-2.980900	3.525300	-10.508000	25.832855	0.000799	20.810965
1251.337870	-2.996600	3.522500	-10.554000	25.848605	0.000798	20.823467
1252.337343	-3.018300	3.524200	-10.636000	25.849176	0.000797	20.803653
1253.337444	-3.020800	3.523300	-10.643000	25.827984	0.000797	20.827409
1254.340703	-2.992700	3.522100	-10.539000	25.845947	0.000795	20.797564
1255.336962	-2.999600	3.520700	-10.560000	25.852928	0.000795	20.815007
1256.338871	-3.001400	3.522400	-10.572000	25.817949	0.000796	20.819225
1257.339679	-3.002400	3.521200	-10.571000	25.810495	0.000794	20.808892
1258.337601	-2.986300	3.522400	-10.518000	25.758893	0.000792	20.782189
1259.339501	-2.992200	3.521900	-10.537000	25.745627	0.000797	20.791150
1260.339434	-3.027000	3.521000	-10.658000	25.780060	0.000793	20.814357
1261.341413	-2.997600	3.520100	-10.552000	25.783391	0.000794	20.827185
1262.342546	-2.968200	3.522200	-10.453000	25.809526	0.000792	20.796539
1263.339625	-2.984800	3.519500	-10.503000	25.811140	0.000792	20.810963
1264.341545	-2.976400	3.519000	-10.473000	25.817922	0.000790	20.801655
1265.342388	-2.985300	3.519200	-10.505000	25.852727	0.000791	20.811961
1266.338962	-3.012200	3.518600	-10.598000	25.831362	0.000790	20.790499
1267.340505	-2.997700	3.517600	-10.543000	25.841149	0.000791	20.790848
1268.340571	-2.956600	3.519800	-10.406000	25.829076	0.000790	20.800057
1269.342268	-2.984700	3.518500	-10.500000	25.821722	0.000788	20.814480
1270.341879	-2.986700	3.516700	-10.501000	25.779264	0.000787	20.806445
1271.340643	-2.998900	3.516200	-10.543000	25.759886	0.000786	20.778919
1272.343899	-2.992200	3.517000	-10.522000	25.706121	0.000787	20.796987
1273.342811	-2.985700	3.516000	-10.497000	25.689848	0.000787	20.797711
1274.341947	-2.986300	3.517800	-10.503000	25.650217	0.000785	20.809116
1275.345531	-2.988100	3.516400	-10.506000	25.683834	0.000787	20.785507
1276.350020	-3.006600	3.514300	-10.566000	25.675609	0.000785	20.785307
1277.346587	-2.998100	3.514600	-10.535000	25.697152	0.000785	20.778969
1278.343893	-2.998200	3.514800	-10.538000	25.685649	0.000783	20.793020
1279.343078	-3.002400	3.513900	-10.549000	25.643706	0.000784	20.768911
1280.345072	-3.001100	3.514400	-10.546000	25.650514	0.000786	20.806569
1281.345154	-2.999100	3.512400	-10.533000	25.623456	0.000783	20.783186
1282.344633	-2.994800	3.512700	-10.518000	25.585638	0.000785	20.773180
1283.345738	-3.003900	3.512100	-10.549000	25.610039	0.000782	20.787729
1284.343956	-2.990900	3.512800	-10.504000	25.618088	0.000781	20.793917
1285.346925	-2.990200	3.512000	-10.501000	25.628029	0.000783	20.792995
1286.353161	-2.986900	3.510900	-10.485000	25.668976	0.000779	20.799508
1287.346550	-2.981000	3.512700	-10.470000	25.696234	0.000780	20.787530
1288.348793	-3.010100	3.510700	-10.566000	25.703563	0.000780	20.769287
1289.347816	-3.000600	3.510300	-10.533000	25.678095	0.000779	20.771209
1290.347959	-2.986800	3.510500	-10.484000	25.640105	0.000778	20.794218
1291.352213	-2.977300	3.510000	-10.449000	25.648204	0.000776	20.784335
1292.348632	-3.005200	3.509700	-10.547000	25.656354	0.000777	20.784934
1293.353866	-3.003200	3.508600	-10.536000	25.643038	0.000776	20.791948
1294.356206	-2.985800	3.508000	-10.473000	25.613244	0.000777	20.797586
1295.350715	-3.000700	3.508300	-10.526000	25.608325	0.000774	20.773205
1296.352968	-3.006900	3.506500	-10.543000	25.625991	0.000774	20.790474
1297.350451	-2.963100	3.508300	-10.394000	25.639657	0.000775	20.777647
1298.353022	-2.993400	3.507900	-10.499000	25.682120	0.000774	20.773354
1299.351463	-3.025500	3.506100	-10.607000	25.664678	0.000775	20.781440
1300.353020	-2.993000	3.505300	-10.491000	25.687064	0.000772	20.793967
1301.352725	-2.981700	3.508200	-10.459000	25.688952	0.000772	20.788751
1302.353230	-3.002300	3.505900	-10.525000	25.662615	0.000771	20.780790
1303.352261	-3.004200	3.505700	-10.531000	25.663310	0.000771	20.787178
1304.353549	-3.035900	3.504200	-10.638000	25.634562	0.000770	20.772055
1305.352466	-3.015000	3.503700	-10.563000	25.613392	0.000771	20.777820
1306.353085	-3.010400	3.505000	-10.550000	25.615329	0.000769	20.779766
1307.357164	-2.986400	3.504400	-10.464000	25.655831	0.000769	20.767339
1308.353965	-3.016000	3.504800	-10.570000	25.666614	0.000768	20.760625
1309.356297	-3.020500	3.502800	-10.578000	25.685325	0.000768	20.783211
1310.353371	-3.022000	3.502000	-10.581000	25.658863	0.000769	20.767065
1311.356547	-3.019800	3.501700	-10.573000	25.669399	0.000769	20.775750
1312.356658	-3.021100	3.502900	-10.579000	25.687612	0.000769	20.759429
1313.357220	-3.016600	3.501600	-10.562000	25.716083	0.000765	20.770957
1314.361383	-3.009600	3.501300	-10.535000	25.741873	0.000765	20.780266
1315.354593	-3.002800	3.500700	-10.510000	25.793499	0.000767	20.768112
1316.356782	-3.034600	3.499700	-10.618000	25.776158	0.000765	20.775824
1317.357542	-2.998100	3.499800	-10.492000	25.786716	0.000763	20.774575
1318.360973	-2.971800	3.501500	-10.405000	25.821325	0.000765	20.778046
1319.360682	-2.986300	3.500200	-10.451000	25.839607	0.000764	20.770807
1320.363021	-2.993400	3.500300	-10.477000	25.838266	0.000764	20.760450
1321.359189	-3.001800	3.498600	-10.501000	25.874710	0.000761	20.764818
1322.357985	-2.983400	3.500200	-10.441000	25.838615	0.000762	20.775974
1323.361084	-3.010100	3.497500	-10.527000	25.827435	0.000763	20.774700
1324.358795	-3.017300	3.497200	-10.551000	25.822716	0.000761	20.762373
1325.357583	-3.028500	3.496900	-10.590000	25.816951	0.000759	20.764642
1326.361018	-2.999700	3.497600	-10.490000	25.795264	0.000760	20.766566
1327.360030	-2.994900	3.497900	-10.475000	25.808306	0.000760	20.749794
1328.363960	-2.987000	3.495100	-10.438000	25.837621	0.000761	20.774027
1329.364100	-2.997200	3.495700	-10.477000	25.837124	0.000757	20.767364
1330.359973	-3.004700	3.496800	-10.506000	25.811263	0.000759	20.766516
1331.360437	-2.973900	3.495600	-10.395000	25.802741	0.000758	20.759378
1332.360346	-3.014200	3.493200	-10.529000	25.812132	0.000759	20.773553
1333.360968	-2.987900	3.495300	-10.443000	25.822143	0.000757	20.770807
1334.363636	-2.984100	3.495500	-10.430000	25.854166	0.000754	20.743231
1335.361842	-2.992200	3.494600	-10.455000	25.851906	0.000755	20.758979
1336.364105	-3.002400	3.493200	-10.486000	25.872674	0.000758	20.768462
1337.365435	-2.995800	3.493200	-10.464000	25.892945	0.000756	20.754686
1338.365668	-3.003600	3.493300	-10.491000	25.925189	0.000755	20.754362
1339.367100	-3.006400	3.493100	-10.501000	25.927549	0.000753	20.741560
1340.367787	-2.977700	3.494300	-10.404000	25.947644	0.000754	20.748946
1341.364185	-2.979300	3.492500	-10.404000	25.960389	0.000751	20.770759
1342.366978	-2.976800	3.491400	-10.392000	25.947720	0.000750	20.756609
1343.367476	-2.986700	3.492700	-10.430000	25.958750	0.000754	20.755362
1344.368103	-2.991400	3.490000	-10.439000	25.945485	0.000752	20.754838
1345.366891	-2.958000	3.492900	-10.331000	25.916943	0.000752	20.742758
1346.368845	-3.017400	3.490000	-10.530000	25.921613	0.000751	20.751243
1347.374724	-3.018200	3.489300	-10.530000	25.923972	0.000750	20.761201
1348.365914	-2.985500	3.490600	-10.420000	25.945434	0.000749	20.753364
1349.367308	-2.963300	3.491200	-10.343000	25.962004	0.000749	20.762425
1350.374579	-3.011500	3.488900	-10.505000	25.910410	0.000750	20.747575
1351.367006	-3.012000	3.488100	-10.505000	25.843735	0.000747	20.737968
1352.371222	-2.983600	3.488400	-10.407000	25.828877	0.000748	20.757182
1353.369418	-2.998900	3.488000	-10.460000	25.834270	0.000748	20.748849
1354.370272	-2.985200	3.485900	-10.405000	25.841448	0.000745	20.722868
1355.371689	-2.977900	3.485200	-10.377000	25.841573	0.000746	20.739115
1356.369926	-2.982200	3.486600	-10.397000	25.846243	0.000742	20.759455
1357.372722	-2.992400	3.485800	-10.430000	25.875559	0.000746	20.753342
1358.379127	-2.986400	3.486900	-10.412000	25.897766	0.000745	20.738192
1359.373513	-2.998300	3.484700	-10.447000	25.930357	0.000746	20.733475
1360.374625	-2.990700	3.484300	-10.419000	25.912721	0.000741	20.737095
1361.374678	-3.021600	3.484500	-10.527000	25.917366	0.000742	20.766892
1362.375754	-2.985600	3.483700	-10.399000	25.928195	0.000744	20.725613
1363.372454	-2.994000	3.483500	-10.428000	25.931748	0.000743	20.742934
1364.373298	-2.996400	3.484000	-10.438000	25.921539	0.000741	20.735996
1365.375146	-3.003300	3.482900	-10.460000	25.943399	0.000742	20.752742
1366.375922	-2.998100	3.484000	-10.444000	25.911505	0.000743	20.736821
1367.373676	-3.003800	3.483100	-10.461000	25.883061	0.000738	20.747127
1368.379283	-2.999800	3.482400	-10.446000	25.914509	0.000739	20.746952
1369.384381	-2.991800	3.481000	-10.414000	25.871460	0.000740	20.747802
1370.376365	-2.980600	3.483300	-10.381000	25.847513	0.000738	20.726115
1371.382668	-3.023700	3.480500	-10.522000	25.880652	0.000736	20.733328
1372.376687	-3.017000	3.480100	-10.498000	25.890019	0.000737	20.747479
1373.376844	-2.981400	3.481900	-10.379000	25.920821	0.000736	20.730059
1374.377527	-3.006000	3.479300	-10.458000	25.901992	0.000739	20.752869
1375.377868	-3.007300	3.480500	-10.466000	25.901297	0.000737	20.746955
1376.378655	-3.003200	3.478200	-10.445000	25.884827	0.000734	20.759808
1377.382922	-2.994300	3.477900	-10.412000	25.904203	0.000735	20.738021
1378.378932	-3.004700	3.479600	-10.454000	25.889671	0.000735	20.764675
1379.381090	-2.987200	3.478400	-10.389000	25.900007	0.000736	20.734279
1380.378917	-3.005300	3.476400	-10.447000	25.901596	0.000736	20.734927
1381.380655	-2.994900	3.478100	-10.416000	25.881302	0.000733	20.739670
1382.385578	-2.978700	3.476600	-10.355000	25.885202	0.000734	20.739321
1383.382350	-2.988500	3.476300	-10.388000	25.879165	0.000732	20.726617
1384.382931	-2.971600	3.477900	-10.334000	25.866000	0.000734	20.746584
1385.380960	-3.010800	3.476200	-10.465000	25.873404	0.000733	20.719407
1386.380452	-3.003300	3.475500	-10.437000	25.902567	0.000732	20.722152
1387.385374	-3.007500	3.474700	-10.448000	25.921447	0.000730	20.730213
1388.383135	-3.002000	3.474200	-10.428000	25.914020	0.000731	20.744564
1389.383598	-3.018500	3.472900	-10.480000	25.915710	0.000729	20.742942
1390.382225	-2.997700	3.474800	-10.415000	25.907239	0.000730	20.729690
1391.387449	-2.999000	3.473400	-10.416000	25.914914	0.000728	20.742143
1392.380065	-3.006500	3.472300	-10.439000	25.931459	0.000725	20.729840
1393.384936	-2.972800	3.473000	-10.323000	25.959677	0.000726	20.757242
1394.382080	-3.007600	3.472400	-10.442000	25.959207	0.000726	20.736854
1395.383815	-2.992200	3.470800	-10.385000	26.000042	0.000727	20.741845
1396.383423	-2.991900	3.471500	-10.385000	26.004390	0.000729	20.726297
1397.383537	-2.990800	3.471800	-10.382000	25.993013	0.000728	20.737628
1398.387241	-2.995800	3.471500	-10.397000	25.964174	0.000725	20.742319
1399.384197	-2.981000	3.470100	-10.343000	25.946861	0.000726	20.730141
1400.385418	-2.995000	3.469400	-10.390000	25.880611	0.000725	20.738976
1401.383621	-2.988700	3.469200	-10.367000	25.837361	0.000724	20.746738
1402.384997	-3.002800	3.467900	-10.413000	25.854403	0.000723	20.750582
1403.385578	-3.029200	3.468300	-10.504000	25.840293	0.000724	20.752055
1404.384630	-3.003900	3.467800	-10.415000	25.845560	0.000725	20.726050
1405.384356	-2.997700	3.469000	-10.398000	25.852318	0.000722	20.740425
1406.384875	-2.946200	3.468600	-10.218000	25.862230	0.000722	20.737106
1407.385390	-3.006500	3.465900	-10.419000	25.880563	0.000720	20.736557
1408.385589	-2.990400	3.466200	-10.364000	25.904337	0.000723	20.756647
1409.388534	-3.009200	3.466500	-10.429000	25.918745	0.000720	20.728447
1410.386470	-3.011800	3.465500	-10.437000	25.936531	0.000722	20.750109
1411.385365	-3.000800	3.466200	-10.399000	25.908360	0.000720	20.735084
1412.390822	-2.979300	3.467000	-10.329000	25.890675	0.000720	20.745294
1413.390615	-2.970200	3.466500	-10.295000	25.830979	0.000721	20.743172
1414.389114	-3.002400	3.464400	-10.399000	25.834258	0.000718	20.755475
1415.387759	-3.006800	3.464800	-10.416000	25.844469	0.000719	20.741076
1416.389352	-2.988200	3.463600	-10.349000	25.852320	0.000719	20.736635
1417.389108	-3.010000	3.462500	-10.420000	25.896863	0.000719	20.738233
1418.389577	-3.012400	3.462500	-10.430000	25.903570	0.000718	20.737859
1419.392630	-3.007400	3.461600	-10.409000	25.923169	0.000717	20.728150
1420.388865	-3.011800	3.460500	-10.422000	25.916039	0.000715	20.748964
1421.390049	-2.990500	3.461800	-10.351000	25.938199	0.000715	20.738982
1422.389892	-3.008100	3.459800	-10.407000	25.891473	0.000715	20.767433
1423.392373	-3.004600	3.459200	-10.392000	25.901283	0.000713	20.747416
1424.392132	-2.978200	3.461600	-10.308000	25.912265	0.000713	20.752758
1425.393028	-2.982000	3.459400	-10.315000	25.925181	0.000715	20.734913
1426.391460	-2.985100	3.459900	-10.326000	25.937775	0.000714	20.745195
1427.394110	-2.999600	3.460300	-10.378000	25.922798	0.000712	20.750064
1428.393393	-2.975800	3.457800	-10.289000	25.923965	0.000711	20.736536
1429.391660	-2.994600	3.458400	-10.355000	25.940833	0.000713	20.737835
1430.397185	-2.999500	3.458800	-10.374000	25.939689	0.000713	20.749963
1431.392893	-3.014900	3.457300	-10.422000	25.951289	0.000711	20.745496
1432.393662	-2.980600	3.457200	-10.303000	25.974515	0.000711	20.756028
1433.395760	-2.986500	3.457900	-10.325000	25.975335	0.000709	20.754481
1434.395258	-3.018100	3.454400	-10.425000	25.996424	0.000710	20.754331
1435.396138	-2.981900	3.456800	-10.307000	26.009663	0.000710	20.768107
1436.393742	-3.014900	3.454200	-10.412000	25.960482	0.000709	20.747145
1437.394424	-3.012900	3.454400	-10.407000	25.961451	0.000708	20.766137
1438.394639	-3.001700	3.454600	-10.368000	25.913036	0.000706	20.741204
1439.393750	-3.018800	3.453500	-10.423000	25.898405	0.000709	20.774870
1440.397417	-3.007200	3.453800	-10.385000	25.921806	0.000707	20.745747
1441.396601	-3.006700	3.453600	-10.381000	25.905386	0.000707	20.750115
1442.395417	-2.992000	3.453600	-10.332000	25.886781	0.000706	20.761296
1443.396568	-2.987400	3.453700	-10.316000	25.859357	0.000707	20.757929
1444.395154	-2.986700	3.453300	-10.313000	25.850586	0.000707	20.755282
1445.396204	-3.018200	3.452900	-10.421000	25.809248	0.000706	20.766863
1446.396877	-2.999100	3.452700	-10.353000	25.819608	0.000705	20.754509
1447.395760	-3.008100	3.450700	-10.378000	25.772554	0.000705	20.747547
1448.400012	-3.012500	3.451100	-10.396000	25.761001	0.000704	20.752063
1449.398184	-2.971000	3.452200	-10.256000	25.770517	0.000703	20.765415
1450.397408	-2.994700	3.451200	-10.334000	25.784902	0.000701	20.755683
1451.400414	-2.999700	3.449800	-10.347000	25.828626	0.000702	20.742231
1452.397584	-2.960000	3.450700	-10.213000	25.859381	0.000700	20.764118
1453.397447	-3.000500	3.450100	-10.351000	25.893689	0.000703	20.762072
1454.398878	-2.996400	3.448300	-10.332000	25.943469	0.000702	20.757080
1455.399435	-3.002200	3.447000	-10.348000	25.979363	0.000700	20.776546
1456.401418	-2.991200	3.447900	-10.312000	25.991709	0.000700	20.760974
1457.403234	-2.990000	3.448400	-10.309000	26.022807	0.000698	20.750018
1458.399107	-3.005400	3.447000	-10.359000	26.006266	0.000698	20.777970
1459.400651	-3.010700	3.447200	-10.377000	26.028496	0.000699	20.754786
1460.403488	-2.981100	3.448300	-10.279000	26.025788	0.000698	20.743056
1461.403014	-3.003000	3.446000	-10.348000	26.035153	0.000696	20.775225
1462.402408	-2.986100	3.446300	-10.290000	26.022634	0.000697	20.780191
1463.399710	-2.988000	3.446200	-10.296000	26.019752	0.000694	20.750742
1464.401198	-2.999500	3.445700	-10.333000	25.995110	0.000695	20.771030
1465.401174	-2.974300	3.444700	-10.244000	25.971166	0.000697	20.780164
1466.401760	-2.998200	3.445200	-10.328000	26.009046	0.000694	20.761323
1467.403471	-3.015200	3.443400	-10.382000	25.972583	0.000695	20.762148
1468.403566	-2.987600	3.443000	-10.285000	25.975662	0.000693	20.775199
1469.400351	-2.978900	3.443900	-10.259000	25.979438	0.000694	20.774251
1470.400814	-2.981200	3.442900	-10.264000	25.965155	0.000691	20.774600
1471.401033	-3.021700	3.441500	-10.398000	25.988305	0.000694	20.795488
1472.404891	-2.995700	3.441400	-10.309000	25.995484	0.000692	20.793217
1473.404381	-2.970400	3.442300	-10.224000	26.015728	0.000693	20.770407
1474.406638	-3.005900	3.441100	-10.343000	26.018235	0.000691	20.777668
1475.401530	-2.991900	3.440000	-10.291000	26.040193	0.000689	20.785979
1476.402752	-3.010200	3.439500	-10.353000	26.062076	0.000688	20.768136
1477.401937	-3.020800	3.439800	-10.390000	26.038480	0.000692	20.781887
1478.404593	-3.001700	3.439300	-10.323000	26.085622	0.000692	20.764293
1479.405509	-2.999800	3.439200	-10.316000	26.093642	0.000688	20.775672
1480.406117	-3.007400	3.438700	-10.341000	26.085844	0.000688	20.772578
1481.404256	-3.015400	3.438300	-10.367000	26.074419	0.000688	20.780538
1482.404821	-3.010800	3.437800	-10.350000	26.027327	0.000688	20.791544
1483.407598	-2.987400	3.438900	-10.272000	25.986889	0.000687	20.766090
1484.407364	-3.008300	3.436900	-10.338000	25.930504	0.000684	20.781513
1485.405593	-2.981600	3.437800	-10.250000	25.908369	0.000686	20.765440
1486.404531	-2.995700	3.436200	-10.293000	25.936068	0.000686	20.795638
1487.406111	-3.009100	3.436600	-10.340000	25.965404	0.000684	20.792868
1488.404243	-2.974400	3.437900	-10.224000	26.002515	0.000683	20.773254
1489.406398	-2.987000	3.435900	-10.262000	26.004403	0.000681	20.778469
1490.407735	-3.004600	3.434300	-10.318000	25.991760	0.000683	20.774302
1491.411375	-2.984300	3.435600	-10.252000	26.035402	0.000684	20.786381
1492.406052	-2.994000	3.435400	-10.285000	26.007035	0.000682	20.786330
1493.405789	-2.982500	3.434900	-10.244000	26.023305	0.000683	20.781339
1494.410816	-2.982800	3.433500	-10.240000	25.980880	0.000681	20.787079
1495.405933	-2.983900	3.435200	-10.249000	25.999808	0.000680	20.790923
1496.406478	-3.006000	3.433900	-10.321000	26.032745	0.000682	20.792247
1497.406814	-3.010300	3.431900	-10.330000	26.033141	0.000679	20.813033
1498.408719	-2.979300	3.432100	-10.224000	26.072285	0.000681	20.797361
1499.407658	-2.995600	3.432600	-10.281000	26.091560	0.000682	20.796813
1500.407338	-2.983000	3.432500	-10.238000	26.097023	0.000679	20.803251
1501.408782	-2.991100	3.431400	-10.263000	26.092107	0.000679	20.790250
1502.409383	-3.010000	3.431100	-10.326000	26.101520	0.000676	20.787854
1503.407737	-2.995600	3.431300	-10.277000	26.074844	0.000679	20.783810
1504.408149	-2.992400	3.429400	-10.261000	26.059322	0.000678	20.793819
1505.412227	-3.005000	3.430800	-10.308000	26.035799	0.000675	20.802902
1506.412216	-3.007400	3.429900	-10.314000	26.021269	0.000675	20.812011
1507.412189	-2.992700	3.429500	-10.262000	26.053285	0.000676	20.785857
1508.408759	-3.018800	3.427100	-10.345000	26.070995	0.000675	20.812660
1509.409528	-2.997200	3.427400	-10.271000	26.060786	0.000676	20.792919
1510.410368	-2.995100	3.427700	-10.264000	26.104499	0.000675	20.811710
1511.413566	-3.010000	3.426800	-10.314000	26.104773	0.000675	20.810563
1512.410118	-3.001700	3.427400	-10.287000	26.075937	0.000670	20.806246
1513.409018	-3.015500	3.425200	-10.326000	26.032843	0.000673	20.806570
1514.410480	-3.003400	3.427300	-10.292000	26.067096	0.000672	20.804474
1515.410480	-2.990200	3.426200	-10.244000	26.114186	0.000671	20.799159
1516.414489	-2.980100	3.424000	-10.203000	26.108572	0.000670	20.813432
1517.410964	-2.980300	3.425300	-10.207000	26.135395	0.000672	20.792494
1518.415449	-3.025400	3.424600	-10.360000	26.124194	0.000671	20.800206
1519.412626	-3.007000	3.423200	-10.292000	26.107281	0.000668	20.805496
1520.412568	-3.002100	3.424000	-10.279000	26.066075	0.000670	20.802975
1521.416293	-2.990700	3.424000	-10.240000	26.053011	0.000670	20.813083
1522.412559	-3.011800	3.421400	-10.304000	26.029340	0.000669	20.824861
1523.414189	-3.023900	3.422500	-10.349000	25.994193	0.000666	20.823213
1524.412129	-3.018800	3.421200	-10.327000	25.978768	0.000668	20.810562
1525.413062	-3.016100	3.420300	-10.316000	25.938279	0.000669	20.812558
1526.412669	-2.988400	3.422900	-10.228000	25.951667	0.000667	20.834069
1527.417958	-3.012100	3.422100	-10.306000	25.968261	0.000667	20.818497
1528.413273	-2.977300	3.420800	-10.184000	25.962747	0.000667	20.793043
1529.413338	-3.006100	3.420100	-10.280000	25.980606	0.000666	20.829952
1530.413362	-3.010100	3.420600	-10.295000	25.961751	0.000665	20.816699
1531.413095	-3.022900	3.419200	-10.334000	25.962275	0.000663	20.812957
1532.415517	-3.006800	3.419600	-10.281000	25.954647	0.000665	20.817148
1533.416212	-2.984800	3.421100	-10.209000	25.944191	0.000665	20.807118
1534.415883	-2.995900	3.418200	-10.240000	25.969253	0.000664	20.814752
1535.415729	-2.994900	3.419600	-10.241000	25.994590	0.000662	20.830250
1536.417006	-2.991100	3.417600	-10.220000	26.006562	0.000662	20.808614
1537.417515	-2.994100	3.417900	-10.233000	25.979686	0.000663	20.820966
1538.418881	-2.999400	3.417600	-10.249000	25.981449	0.000663	20.829376
1539.416816	-2.999600	3.415500	-10.244000	25.957356	0.000659	20.811809
1540.417876	-3.002700	3.416600	-10.258000	25.970519	0.000662	20.808438
1541.418566	-2.996100	3.416700	-10.235000	25.971638	0.000662	20.833269
1542.420961	-3.022100	3.414500	-10.317000	25.967490	0.000660	20.830524
1543.423069	-2.982600	3.415900	-10.185000	25.994788	0.000660	20.826656
1544.418240	-2.991600	3.416300	-10.219000	26.035846	0.000660	20.815751
1545.424010	-2.982000	3.415400	-10.183000	26.023279	0.000658	20.828254
1546.421164	-3.011900	3.412700	-10.278000	25.981746	0.000657	20.820666
1547.420923	-2.996600	3.414000	-10.229000	25.958920	0.000658	20.839932
1548.426892	-2.979200	3.414700	-10.172000	25.963441	0.000656	20.858224
1549.420002	-2.988400	3.413400	-10.200000	25.988305	0.000656	20.841954
1550.422870	-2.991600	3.413500	-10.210000	25.958994	0.000656	20.840007
1551.422231	-2.999300	3.412900	-10.235000	25.970496	0.000654	20.847294
1552.424593	-3.007600	3.412100	-10.261000	25.958820	0.000654	20.835090
1553.425973	-3.007000	3.410800	-10.255000	25.976458	0.000655	20.867982
1554.424725	-3.007900	3.410500	-10.258000	26.018436	0.000655	20.829553
1555.421589	-3.016900	3.410600	-10.288000	26.015083	0.000655	20.845149
1556.422260	-2.994900	3.412100	-10.217000	26.043149	0.000651	20.826881
1557.422760	-3.005200	3.410100	-10.247000	26.069404	0.000652	20.835242
1558.422756	-3.003500	3.409700	-10.240000	26.115452	0.000653	20.829354
1559.426278	-2.999300	3.408500	-10.221000	26.096949	0.000655	20.828305
1560.422212	-2.979100	3.410500	-10.159000	26.064909	0.000650	20.858226
1561.423992	-2.994700	3.408500	-10.205000	26.046727	0.000653	20.854657
1562.423232	-2.991700	3.407600	-10.194000	26.026806	0.000653	20.859298
1563.423869	-2.996500	3.407300	-10.209000	26.022660	0.000652	20.847072
1564.425465	-3.005600	3.406900	-10.239000	26.033465	0.000651	20.855082
1565.427165	-2.982900	3.406900	-10.162000	26.038433	0.000650	20.857229
1566.423555	-3.005000	3.406700	-10.236000	26.067021	0.000649	20.851813
1567.427326	-2.992300	3.404800	-10.187000	26.092555	0.000649	20.844753
1568.423197	-2.984100	3.405900	-10.162000	26.085179	0.000645	20.842083
1569.425690	-2.993400	3.405900	-10.194000	26.051600	0.000647	20.859553
1570.425358	-2.981300	3.406300	-10.154000	26.020899	0.000647	20.857155
1571.424564	-2.994300	3.405900	-10.197000	26.051351	0.000648	20.848871
1572.424941	-2.969200	3.405200	-10.109000	26.071221	0.000648	20.871206
1573.424949	-2.990600	3.404500	-10.180000	26.094221	0.000644	20.856384
1574.427024	-3.003500	3.405400	-10.227000	26.124250	0.000645	20.863796
1575.424687	-2.999100	3.403200	-10.206000	26.173076	0.000645	20.852641
1576.427504	-3.008800	3.403500	-10.240000	26.203027	0.000642	20.855711
1577.424024	-2.988600	3.404200	-10.172000	26.180627	0.000642	20.852168
1578.426682	-2.994300	3.403100	-10.189000	26.225255	0.000643	20.850547
1579.431486	-2.956700	3.403300	-10.061000	26.229352	0.000644	20.874577
1580.430081	-2.996800	3.402400	-10.196000	26.221281	0.000642	20.879269
1581.427770	-3.015500	3.400300	-10.252000	26.228360	0.000641	20.854616
1582.429319	-2.990300	3.401700	-10.171000	26.247705	0.000639	20.880218
1583.427938	-3.002100	3.401000	-10.210000	26.273109	0.000641	20.884410
1584.428490	-3.002700	3.400400	-10.209000	26.208443	0.000639	20.835550
1585.430471	-3.004400	3.399500	-10.212000	26.183734	0.000636	20.873307
1586.429969	-3.008700	3.400000	-10.229000	26.151424	0.000639	20.870238
1587.434530	-2.989700	3.400200	-10.165000	26.142433	0.000639	20.874954
1588.433745	-3.022400	3.397900	-10.269000	26.057193	0.000639	20.858534
1589.429660	-2.997400	3.397700	-10.183000	26.058361	0.000639	20.863026
1590.433738	-2.968200	3.399400	-10.088000	26.048426	0.000640	20.877225
1591.430666	-2.988500	3.400300	-10.161000	26.080170	0.000638	20.855542
1592.428842	-3.004200	3.398200	-10.208000	26.081013	0.000636	20.875354
1593.429630	-2.977900	3.397700	-10.117000	26.123982	0.000636	20.868742
1594.430009	-3.005500	3.397000	-10.208000	26.136325	0.000636	20.876403
1595.434429	-3.002100	3.396600	-10.196000	26.165357	0.000635	20.869540
1596.434533	-2.988600	3.396400	-10.149000	26.187114	0.000635	20.875281
1597.432253	-3.000500	3.395900	-10.188000	26.150731	0.000634	20.870016
1598.431206	-3.006800	3.395600	-10.209000	26.137470	0.000634	20.896992
1599.431221	-3.001500	3.394400	-10.188000	26.093235	0.000634	20.885263
1600.433146	-3.020000	3.393500	-10.248000	26.083774	0.000632	20.874809
1601.435984	-3.007500	3.394000	-10.207000	26.117775	0.000632	20.899962
1602.434006	-3.010000	3.394200	-10.216000	26.137271	0.000635	20.891577
1603.435921	-2.994200	3.394400	-10.163000	26.195585	0.000632	20.874784
1604.434509	-3.026000	3.393000	-10.266000	26.201619	0.000628	20.875632
1605.434301	-2.978300	3.394600	-10.109000	26.231000	0.000629	20.878129
1606.439292	-2.998400	3.392200	-10.170000	26.228591	0.000630	20.859114
1607.438369	-2.991800	3.391600	-10.146000	26.231197	0.000629	20.892077
1608.438514	-3.008600	3.391500	-10.202000	26.223227	0.000629	20.899241
1609.436197	-3.005600	3.390800	-10.191000	26.253226	0.000629	20.893351
1610.436158	-2.978400	3.391400	-10.100000	26.232938	0.000626	20.876759
1611.435833	-2.986900	3.390500	-10.126000	26.250642	0.000628	20.878902
1612.436823	-2.977900	3.391700	-10.099000	26.199635	0.000627	20.888810
1613.436977	-2.979800	3.389900	-10.100000	26.207533	0.000626	20.884420
1614.440884	-3.036700	3.389600	-10.291000	26.216671	0.000626	20.903084
1615.437919	-3.000800	3.388400	-10.167000	26.214834	0.000627	20.882273
1616.439081	-2.985700	3.388500	-10.116000	26.267083	0.000624	20.890208
1617.443961	-3.008200	3.387900	-10.190000	26.258715	0.000625	20.895548
1618.439255	-2.988500	3.388400	-10.125000	26.240413	0.000623	20.902760
1619.448546	-2.994900	3.387700	-10.145000	26.226258	0.000623	20.900863
1620.446246	-2.977400	3.386700	-10.083000	26.212325	0.000623	20.904406
1621.441752	-2.991700	3.387600	-10.134000	26.205917	0.000621	20.888011
1622.442161	-2.991500	3.387000	-10.131000	26.221539	0.000623	20.900389
1623.445932	-3.026000	3.385400	-10.243000	26.241554	0.000622	20.896795
1624.440648	-2.992600	3.386500	-10.133000	26.240636	0.000621	20.899191
1625.441097	-3.013700	3.385100	-10.201000	26.261049	0.000623	20.885567
1626.443740	-3.009400	3.384300	-10.183000	26.245204	0.000622	20.877705
1627.440435	-3.005300	3.384600	-10.171000	26.209617	0.000621	20.885091
1628.443982	-2.999900	3.384200	-10.150000	26.232515	0.000621	20.887712
1629.442654	-2.995800	3.385400	-10.139000	26.231199	0.000618	20.883071
1630.445858	-3.003100	3.384100	-10.162000	26.249775	0.000618	20.911693
1631.443654	-2.998200	3.384500	-10.147000	26.279276	0.000619	20.892977
1632.443861	-3.016000	3.381800	-10.198000	26.309721	0.000617	20.859565
1633.444440	-2.999900	3.383700	-10.150000	26.319355	0.000618	20.870669
1634.444004	-3.020600	3.381100	-10.212000	26.324990	0.000620	20.863530
1635.446483	-3.033900	3.381100	-10.257000	26.321513	0.000618	20.866674
1636.444251	-3.014600	3.382400	-10.196000	26.346023	0.000617	20.879451
1637.444580	-3.042600	3.380300	-10.284000	26.344531	0.000616	20.869418
1638.447641	-2.997600	3.381100	-10.135000	26.344209	0.000614	20.869094
1639.447653	-3.011500	3.378700	-10.174000	26.329733	0.000613	20.883942
1640.448290	-2.992500	3.381000	-10.116000	26.310611	0.000612	20.875158
1641.445849	-3.009100	3.379600	-10.169000	26.350018	0.000613	20.877303
1642.446349	-3.011700	3.379100	-10.176000	26.364819	0.000612	20.876532
1643.444533	-3.007400	3.379700	-10.163000	26.358361	0.000612	20.860559
1644.448329	-3.049500	3.376700	-10.296000	26.338893	0.000615	20.878450
1645.446034	-3.004900	3.378900	-10.151000	26.308649	0.000612	20.868445
1646.445854	-3.019400	3.379100	-10.201000	26.242694	0.000609	20.879450
1647.445698	-3.000900	3.378200	-10.137000	26.209516	0.000609	20.858438
1648.445894	-2.994400	3.376100	-10.108000	26.186618	0.000611	20.844912
1649.450503	-3.006100	3.378900	-10.156000	26.162082	0.000612	20.874784
1650.449150	-3.032700	3.375700	-10.236000	26.177430	0.000609	20.863180
1651.448738	-3.004500	3.375700	-10.141000	26.184011	0.000609	20.874534
1652.446930	-3.006000	3.376400	-10.149000	26.208473	0.000609	20.852174
1653.448547	-3.002800	3.376700	-10.138000	26.227745	0.000608	20.845463
1654.448837	-3.018000	3.375000	-10.185000	26.236783	0.000605	20.859761
1655.449361	-3.017900	3.374600	-10.183000	26.233828	0.000603	20.876704
1656.447890	-2.998700	3.375200	-10.121000	26.233779	0.000607	20.880448
1657.447758	-2.995700	3.374300	-10.107000	26.200006	0.000604	20.858365
1658.447691	-2.990100	3.373400	-10.086000	26.234871	0.000604	20.850253
1659.447586	-2.978400	3.373300	-10.045000	26.216320	0.000605	20.876654
1660.451677	-3.012500	3.373300	-10.161000	26.218877	0.000606	20.841293
1661.448937	-3.000400	3.373600	-10.121000	26.229606	0.000600	20.844488
1662.450766	-2.997300	3.372300	-10.106000	26.176609	0.000602	20.852872
1663.450016	-2.980900	3.373300	-10.054000	26.186717	0.000603	20.866348
1664.452041	-2.995400	3.371500	-10.098000	26.222851	0.000601	20.852398
1665.453422	-3.008800	3.370900	-10.142000	26.230970	0.000603	20.847281
1666.451022	-2.988900	3.370500	-10.072000	26.263031	0.000602	20.850577
1667.453628	-3.000500	3.371800	-10.116000	26.307902	0.000601	20.844462
1668.452778	-3.009800	3.369300	-10.141000	26.331293	0.000600	20.844261
1669.454353	-3.017500	3.370200	-10.168000	26.344951	0.000601	20.848505
1670.458913	-2.996600	3.369800	-10.096000	26.380755	0.000601	20.834704
1671.453189	-3.005700	3.370300	-10.129000	26.399678	0.000596	20.850876
1672.454092	-2.998100	3.370100	-10.103000	26.414550	0.000594	20.853495
1673.453110	-2.984400	3.369400	-10.054000	26.401488	0.000601	20.829463
1674.456182	-3.009900	3.369700	-10.141000	26.424382	0.000597	20.862429
1675.453485	-3.005200	3.367500	-10.119000	26.397689	0.000597	20.838921
1676.456389	-3.021200	3.366700	-10.170000	26.407125	0.000596	20.842714
1677.453578	-3.001900	3.368000	-10.110000	26.411494	0.000598	20.834303
1678.459186	-3.012200	3.365900	-10.136000	26.412611	0.000597	20.831633
1679.453901	-2.979900	3.368200	-10.034000	26.373380	0.000596	20.835826
1680.452062	-2.985600	3.367500	-10.053000	26.328437	0.000595	20.839495
1681.458337	-2.997900	3.365500	-10.089000	26.318181	0.000591	20.831084
1682.458665	-3.009200	3.365000	-10.124000	26.294268	0.000593	20.835027
1683.457234	-2.990200	3.366100	-10.064000	26.291065	0.000594	20.828964
1684.458331	-3.018200	3.365900	-10.158000	26.316865	0.000593	20.821227
1685.457875	-3.002800	3.363700	-10.100000	26.324736	0.000591	20.825819
1686.456914	-3.008500	3.363200	-10.117000	26.357240	0.000594	20.852794
1687.458797	-3.027400	3.363000	-10.180000	26.388105	0.000593	20.852994
1688.456907	-2.972500	3.363000	-9.994700	26.371097	0.000590	20.836376
1689.456261	-3.010500	3.363500	-10.125000	26.377205	0.000591	20.839670
1690.456772	-2.995300	3.362400	-10.071000	26.367894	0.000589	20.824623
1691.455622	-2.984100	3.364100	-10.038000	26.351580	0.000586	20.843787
1692.459993	-2.989500	3.363400	-10.054000	26.352301	0.000587	20.832184
1693.457643	-3.012900	3.361300	-10.127000	26.321709	0.000588	20.832259
1694.461627	-2.984700	3.362000	-10.034000	26.298218	0.000589	20.815764
1695.457760	-2.961700	3.362300	-9.956800	26.257891	0.000588	20.845411
1696.458951	-3.003900	3.360600	-10.094000	26.273485	0.000589	20.824099
1697.460710	-3.017000	3.359800	-10.135000	26.262088	0.000588	20.823551
1698.461581	-3.003900	3.360100	-10.092000	26.251063	0.000587	20.826222
1699.462865	-2.996600	3.359700	-10.066000	26.248951	0.000587	20.820307
1700.459491	-2.982800	3.361300	-10.025000	26.271698	0.000586	20.833209
1701.460430	-3.026400	3.357800	-10.161000	26.298991	0.000584	20.844515
1702.460085	-2.997700	3.359400	-10.069000	26.304528	0.000586	20.818786
1703.460433	-2.992200	3.358900	-10.049000	26.299339	0.000585	20.834434
1704.461445	-2.998600	3.357600	-10.067000	26.296010	0.000584	20.826347
1705.463975	-2.996900	3.358200	-10.063000	26.325785	0.000584	20.840623
1706.461137	-2.995600	3.356700	-10.055000	26.320870	0.000583	20.816243
1707.461526	-2.985400	3.358900	-10.027000	26.360128	0.000581	20.835783
1708.462687	-3.003600	3.355500	-10.078000	26.376815	0.000583	20.816519
1709.459841	-3.000800	3.357200	-10.074000	26.378825	0.000581	20.799099
1710.464461	-3.002500	3.356800	-10.078000	26.358563	0.000581	20.831840
1711.460646	-3.010200	3.355800	-10.101000	26.355485	0.000581	20.809306
1712.462822	-3.017400	3.354600	-10.121000	26.349800	0.000582	20.828723
1713.466437	-3.020100	3.353600	-10.127000	26.317196	0.000580	20.823931
1714.462758	-3.006900	3.354300	-10.085000	26.301404	0.000578	20.838880
1715.467448	-2.992600	3.354500	-10.038000	26.305129	0.000579	20.828873
1716.467775	-3.010200	3.353900	-10.095000	26.276076	0.000579	20.819590
1717.466231	-3.008600	3.353200	-10.087000	26.235472	0.000577	20.827624
1718.466779	-3.014000	3.353200	-10.105000	26.258892	0.000577	20.816073
1719.471210	-2.998300	3.353700	-10.055000	26.276920	0.000576	20.808111
1720.464814	-3.001300	3.353300	-10.063000	26.296339	0.000574	20.810082
1721.465978	-3.004800	3.353200	-10.075000	26.276524	0.000577	20.817196
1722.465888	-3.021600	3.351600	-10.127000	26.288816	0.000575	20.817221
1723.466241	-3.017200	3.351000	-10.109000	26.314243	0.000572	20.821437
1724.473766	-3.046100	3.351300	-10.207000	26.344909	0.000574	20.810531
1725.465431	-3.002200	3.350900	-10.059000	26.351913	0.000573	20.817096
1726.468331	-2.995000	3.351300	-10.037000	26.324946	0.000570	20.823185
1727.465985	-3.011100	3.349300	-10.084000	26.363905	0.000571	20.813502
1728.465457	-3.023500	3.349800	-10.126000	26.379200	0.000571	20.830769
1729.470065	-3.025500	3.349300	-10.133000	26.413268	0.000572	20.803371
1730.467079	-3.016300	3.348400	-10.098000	26.408921	0.000571	20.817493
1731.471990	-2.990700	3.348600	-10.014000	26.375203	0.000569	20.791666
1732.467278	-2.988100	3.349500	-10.008000	26.370784	0.000567	20.828001
1733.468418	-3.005500	3.346900	-10.058000	26.394720	0.000567	20.813652
1734.468839	-3.006500	3.348500	-10.067000	26.372523	0.000568	20.810309
1735.473292	-3.011200	3.348000	-10.080000	26.416471	0.000564	20.822711
1736.472114	-2.991300	3.347700	-10.012000	26.408476	0.000565	20.813253
1737.469498	-3.015300	3.347000	-10.091000	26.459774	0.000565	20.803172
1738.468604	-3.018400	3.345200	-10.096000	26.467220	0.000567	20.819665
1739.469423	-3.010600	3.344700	-10.068000	26.460269	0.000565	20.831644
1740.471756	-3.003000	3.345600	-10.046000	26.506870	0.000567	20.801673
1741.469581	-3.018000	3.345800	-10.096000	26.497064	0.000563	20.802247
1742.471002	-2.990800	3.345200	-10.005000	26.500490	0.000562	20.803795
1743.473023	-3.010600	3.345100	-10.069000	26.499871	0.000563	20.815500
1744.470580	-2.992000	3.345200	-10.008000	26.464986	0.000561	20.817894
1745.471731	-2.992200	3.344600	-10.007000	26.453342	0.000562	20.828475
1746.472233	-2.969100	3.343900	-9.927700	26.403832	0.000560	20.816645
1747.472057	-2.990800	3.343400	-9.998000	26.399039	0.000560	20.802820
1748.472964	-2.969200	3.343900	-9.927800	26.423572	0.000562	20.806615
1749.473353	-2.991700	3.344000	-10.004000	26.455228	0.000557	20.812827
1750.472878	-2.994400	3.342900	-10.009000	26.483929	0.000559	20.796157
1751.474159	-3.010200	3.342000	-10.059000	26.437476	0.000559	20.797355
1752.473797	-3.003600	3.341200	-10.034000	26.425705	0.000559	20.797853
1753.480981	-2.987800	3.342700	-9.986100	26.420788	0.000558	20.798601
1754.473417	-3.028200	3.339600	-10.111000	26.440801	0.000559	20.780783
1755.475816	-2.988100	3.340900	-9.982000	26.432707	0.000558	20.809632
1756.481119	-2.979300	3.341600	-9.954600	26.426275	0.000555	20.812650
1757.475431	-3.023800	3.339300	-10.096000	26.456517	0.000557	20.798950
1758.475641	-3.001800	3.340000	-10.024000	26.467465	0.000558	20.801419
1759.477640	-2.990100	3.339800	-9.984800	26.482064	0.000555	20.805188
1760.481318	-2.983900	3.339800	-9.963700	26.526306	0.000557	20.819312
1761.475638	-3.012200	3.338100	-10.055000	26.504432	0.000554	20.790213
1762.481027	-3.025100	3.337700	-10.097000	26.486804	0.000552	20.782926
1763.477719	-3.014500	3.337900	-10.061000	26.503861	0.000552	20.801019
1764.475306	-3.040900	3.336700	-10.145000	26.481466	0.000551	20.804587
1765.477637	-3.007200	3.336100	-10.031000	26.486132	0.000550	20.794104
1766.481069	-3.024000	3.335000	-10.084000	26.505748	0.000551	20.784898
1767.478394	-3.012600	3.336600	-10.050000	26.497430	0.000551	20.800244
1768.479042	-3.007100	3.336200	-10.031000	26.536258	0.000552	20.786168
1769.478097	-2.982900	3.337900	-9.955600	26.497477	0.000549	20.790334
1770.480590	-2.980500	3.336900	-9.945100	26.479204	0.000551	20.801365
1771.481480	-2.986900	3.335900	-9.962600	26.433395	0.000548	20.800366
1772.482585	-2.994900	3.335900	-9.990000	26.430862	0.000549	20.796872
1773.482184	-3.001200	3.334200	-10.005000	26.382147	0.000549	20.792007
1774.481983	-3.001700	3.334400	-10.007000	26.347732	0.000546	20.771643
1775.483053	-2.994100	3.333800	-9.981200	26.311826	0.000546	20.785818
1776.483654	-2.986300	3.335000	-9.958600	26.304176	0.000545	20.761060
1777.484054	-3.002200	3.334500	-10.010000	26.287714	0.000544	20.791458
1778.483052	-2.990300	3.332600	-9.963800	26.278773	0.000545	20.770144
1779.483189	-2.997900	3.334000	-9.994200	26.321310	0.000543	20.790608
1780.483121	-3.007400	3.332000	-10.019000	26.328660	0.000543	20.789933
1781.482456	-2.996100	3.331700	-9.981600	26.375638	0.000543	20.779300
1782.486107	-3.014900	3.332200	-10.044000	26.389321	0.000541	20.784517
1783.483068	-2.992600	3.331000	-9.967000	26.398681	0.000541	20.772114
1784.484834	-3.012200	3.331100	-10.032000	26.394062	0.000545	20.785015
1785.484178	-3.000100	3.330000	-9.988400	26.367519	0.000542	20.779201
1786.484875	-2.983600	3.331400	-9.938000	26.354632	0.000543	20.786638
1787.487213	-2.989600	3.330800	-9.955100	26.336455	0.000543	20.785913
1788.489499	-2.994500	3.328800	-9.967200	26.332308	0.000540	20.771314
1789.485690	-2.989300	3.328000	-9.946400	26.312888	0.000539	20.777402
1790.486719	-3.000900	3.329200	-9.989200	26.308667	0.000539	20.764150
1791.490918	-3.008400	3.327600	-10.010000	26.311001	0.000537	20.771238
1792.486457	-3.000900	3.328400	-9.986800	26.326918	0.000538	20.778699
1793.486124	-2.972300	3.327900	-9.889200	26.374867	0.000538	20.773784
1794.487626	-2.993800	3.327500	-9.961100	26.380701	0.000538	20.788657
1795.491794	-2.991300	3.328600	-9.956100	26.399969	0.000538	20.780521
1796.487154	-3.005000	3.326400	-9.995300	26.410225	0.000535	20.766646
1797.491199	-2.990500	3.327000	-9.948600	26.381221	0.000535	20.755988
1798.494521	-3.001300	3.326200	-9.981800	26.373749	0.000534	20.789730
1799.488140	-2.996400	3.326300	-9.965900	26.390832	0.000534	20.766596
1800.488070	-2.982100	3.325200	-9.915800	26.374320	0.000534	20.765648
1801.489171	-2.999200	3.325200	-9.971100	26.406848	0.000533	20.773684
1802.489106	-3.000600	3.324800	-9.975600	26.434434	0.000534	20.784341
1803.488611	-2.973900	3.326600	-9.892100	26.442327	0.000532	20.767144
1804.491618	-3.005600	3.324300	-9.990400	26.484908	0.000531	20.769640
1805.490789	-3.012900	3.323500	-10.013000	26.481879	0.000531	20.765646
1806.493536	-3.011200	3.323400	-10.007000	26.523267	0.000532	20.755091
1807.490587	-2.990400	3.322800	-9.934600	26.528281	0.000529	20.753493
1808.490598	-3.008500	3.322000	-9.993300	26.503902	0.000528	20.764075
1809.500707	-2.985900	3.322800	-9.920700	26.478527	0.000531	20.759432
1810.490822	-2.994100	3.322600	-9.945800	26.447144	0.000529	20.753968
1811.491167	-2.985500	3.321700	-9.916700	26.463184	0.000528	20.772934
1812.493733	-2.988500	3.322200	-9.927900	26.489825	0.000529	20.769840
1813.492898	-3.009900	3.321200	-9.994900	26.476690	0.000528	20.778449
1814.495924	-3.011700	3.320100	-9.997900	26.451737	0.000526	20.769490
1815.496452	-2.995000	3.321700	-9.947800	26.419758	0.000526	20.774806
1816.497450	-3.009900	3.321000	-9.993900	26.363817	0.000528	20.749875
1817.496276	-3.031400	3.320300	-10.062000	26.356715	0.000525	20.752695
1818.496657	-3.002800	3.319400	-9.966100	26.299428	0.000526	20.754392
1819.500116	-3.009100	3.319400	-9.986700	26.335955	0.000525	20.742736
1820.499814	-3.008200	3.318400	-9.980200	26.352072	0.000523	20.751348
1821.500565	-3.015400	3.316500	-9.999800	26.353139	0.000524	20.759532
1822.497944	-3.004200	3.316600	-9.962400	26.367642	0.000523	20.769842
1823.497589	-3.009900	3.317000	-9.983000	26.358081	0.000520	20.722772
1824.502770	-3.000000	3.317900	-9.952900	26.367491	0.000522	20.756413
1825.500945	-3.005200	3.316400	-9.965300	26.429394	0.000521	20.758412
1826.498733	-3.009000	3.316000	-9.976500	26.425670	0.000519	20.749927
1827.497823	-3.018300	3.315500	-10.006000	26.449853	0.000520	20.751000
1828.498675	-2.986700	3.315200	-9.900700	26.497548	0.000517	20.742989
1829.498434	-3.000900	3.315200	-9.946900	26.512445	0.000520	20.738523
1830.500686	-2.991100	3.316500	-9.919100	26.538414	0.000521	20.739971
1831.499777	-2.990900	3.315900	-9.916000	26.551424	0.000518	20.735978
1832.499133	-2.997100	3.315200	-9.935000	26.561181	0.000517	20.732983
1833.502056	-3.033300	3.311800	-10.044000	26.583425	0.000516	20.747758
1834.499457	-2.995600	3.313900	-9.926200	26.610162	0.000516	20.749032
1835.498952	-2.999600	3.314600	-9.941800	26.623469	0.000516	20.746761
1836.500667	-3.006200	3.312100	-9.955800	26.588763	0.000514	20.732260
1837.502940	-3.014700	3.311800	-9.983000	26.585090	0.000513	20.741371
1838.498950	-3.009300	3.312000	-9.966400	26.539932	0.000513	20.750506
1839.500601	-3.014300	3.311700	-9.981500	26.512548	0.000511	20.741471
1840.502350	-2.986500	3.311600	-9.889500	26.520071	0.000510	20.727695
1841.499647	-2.990900	3.310900	-9.902000	26.533825	0.000513	20.747212
1842.499001	-2.999500	3.309600	-9.925000	26.523052	0.000510	20.751082
1843.504781	-2.997400	3.310800	-9.923400	26.504009	0.000512	20.735733
1844.502248	-2.978700	3.311100	-9.862100	26.466420	0.000511	20.742521
1845.501962	-3.008400	3.307500	-9.950100	26.434466	0.000508	20.745966
1846.501911	-3.001200	3.309700	-9.930600	26.392656	0.000508	20.740927
1847.506172	-3.000500	3.309800	-9.929300	26.384262	0.000509	20.744819
1848.503783	-3.023700	3.306900	-9.997800	26.434516	0.000508	20.750283
1849.502812	-3.015500	3.309400	-9.977700	26.463344	0.000507	20.736110
1850.501239	-3.001800	3.307800	-9.927500	26.488743	0.000507	20.732241
1851.506503	-3.007800	3.307400	-9.947500	26.526629	0.000508	20.735237
1852.503825	-3.010600	3.307900	-9.956800	26.543239	0.000508	20.732017
1853.505789	-3.014900	3.305000	-9.963300	26.582042	0.000505	20.733565
1854.502470	-3.008700	3.308000	-9.950600	26.632486	0.000507	20.733540
1855.503741	-2.997900	3.306400	-9.910800	26.631767	0.000505	20.734240
1856.507128	-3.024000	3.306200	-9.996900	26.606893	0.000505	20.734839
1857.508646	-2.992700	3.306500	-9.893900	26.616848	0.000503	20.744847
1858.505378	-3.005600	3.305400	-9.933300	26.605007	0.000505	20.729149
1859.504878	-3.004500	3.304000	-9.926000	26.613746	0.000503	20.739831
1860.505292	-2.992900	3.305000	-9.889700	26.646614	0.000504	20.732570
1861.505371	-2.999800	3.303600	-9.909400	26.675534	0.000503	20.738410
1862.507766	-2.997800	3.303000	-9.901000	26.702443	0.000500	20.740332
1863.506849	-2.993300	3.302800	-9.885600	26.703510	0.000500	20.729551
1864.507817	-2.996500	3.303700	-9.898900	26.714879	0.000496	20.726756
1865.507647	-2.988100	3.302900	-9.868800	26.744988	0.000500	20.737113
1866.506360	-3.002000	3.301800	-9.909900	26.747843	0.000496	20.737612
1867.512221	-3.013700	3.301200	-9.948400	26.772491	0.000499	20.741531
1868.518737	-3.010600	3.301100	-9.937500	26.772914	0.000498	20.731050
1869.506853	-3.008000	3.301100	-9.928500	26.712573	0.000497	20.713056
1870.506818	-2.993200	3.300800	-9.877200	26.686259	0.000496	20.737338
1871.507477	-2.994500	3.299300	-9.878400	26.687476	0.000496	20.742830
1872.507634	-2.980100	3.300500	-9.834500	26.688916	0.000497	20.743329
1873.513343	-3.026800	3.299300	-9.985100	26.724959	0.000497	20.716975
1874.511956	-3.000500	3.299000	-9.897300	26.725356	0.000496	20.720693
1875.513618	-2.972500	3.299500	-9.805500	26.700533	0.000495	20.726557
1876.513389	-3.008400	3.300000	-9.925600	26.663472	0.000495	20.717748
1877.513275	-3.023800	3.297800	-9.970400	26.648653	0.000492	20.736043
1878.514552	-3.010800	3.296900	-9.925200	26.667842	0.000492	20.724512
1879.511836	-2.985700	3.297200	-9.842500	26.685615	0.000491	20.700652
1880.512539	-3.006100	3.296100	-9.907400	26.681594	0.000491	20.723165
1881.515395	-3.007700	3.297800	-9.917400	26.680576	0.000492	20.726409
1882.513013	-2.995400	3.296800	-9.874300	26.672957	0.000491	20.715903
1883.512659	-2.995300	3.296500	-9.872500	26.704779	0.000490	20.743155
1884.512772	-2.995700	3.296700	-9.875300	26.714461	0.000491	20.727758
1885.527013	-2.991900	3.295400	-9.858600	26.770385	0.000488	20.727559
1886.512834	-3.004600	3.294500	-9.896700	26.794041	0.000493	20.710565
1887.512261	-2.986600	3.295700	-9.841500	26.811214	0.000490	20.702227
1888.512846	-2.995400	3.295400	-9.869500	26.773910	0.000487	20.742958
1889.514129	-3.000400	3.294500	-9.883800	26.741321	0.000487	20.717778
1890.511943	-3.028600	3.292800	-9.971200	26.659579	0.000487	20.743708
1891.514507	-2.986200	3.293800	-9.834300	26.653176	0.000485	20.742011
1892.513451	-3.015000	3.292500	-9.925800	26.653174	0.000488	20.723517
1893.513128	-2.987600	3.292800	-9.835700	26.664246	0.000484	20.726587
1894.518693	-3.002500	3.291500	-9.882000	26.670899	0.000483	20.723792
1895.514281	-2.983300	3.292300	-9.821000	26.657023	0.000484	20.730706
1896.516494	-2.987600	3.292500	-9.834900	26.659134	0.000483	20.717654
1897.513280	-2.998000	3.292400	-9.868700	26.652234	0.000480	20.751970
1898.515607	-3.012000	3.290700	-9.909000	26.650817	0.000482	20.723992
1899.519071	-3.013400	3.289600	-9.911700	26.668345	0.000481	20.724543
1900.514844	-2.990200	3.291800	-9.842300	26.677007	0.000482	20.726140
1901.518331	-3.015900	3.289400	-9.918500	26.664173	0.000481	20.721298
1902.516846	-3.017300	3.289000	-9.922300	26.685596	0.000478	20.732878
1903.516560	-2.994400	3.288900	-9.847000	26.727596	0.000478	20.743335
1904.517797	-2.998800	3.287200	-9.855900	26.747553	0.000477	20.724044
1905.519444	-2.990800	3.289400	-9.836700	26.786946	0.000476	20.739468
1906.516950	-3.012600	3.287600	-9.903100	26.795333	0.000475	20.738892
1907.518056	-2.985900	3.288900	-9.819500	26.753362	0.000476	20.722298
1908.516830	-3.025600	3.287400	-9.945400	26.713547	0.000475	20.707397
1909.517368	-3.032900	3.287100	-9.967500	26.679814	0.000474	20.728961
1910.519856	-2.989800	3.286200	-9.824300	26.629843	0.000476	20.727564
1911.517558	-3.026300	3.285600	-9.942000	26.613659	0.000472	20.717931
1912.520624	-3.000000	3.286900	-9.860000	26.596951	0.000474	20.740966
1913.519154	-3.001400	3.286000	-9.861100	26.607328	0.000473	20.750924
1914.519016	-3.025100	3.284200	-9.933400	26.630564	0.000474	20.751523
1915.520488	-3.032100	3.285500	-9.960400	26.637069	0.000469	20.724870
1916.519364	-2.996300	3.285400	-9.842700	26.650696	0.000472	20.750899
1917.522782	-2.993100	3.285700	-9.833600	26.689867	0.000469	20.743337
1918.519026	-3.007700	3.283500	-9.875300	26.654718	0.000469	20.747356
1919.521167	-2.993800	3.284100	-9.831300	26.629720	0.000469	20.747356
1920.519754	-2.976800	3.284800	-9.776500	26.601842	0.000472	20.717906
1921.527608	-2.992300	3.282700	-9.821800	26.604424	0.000468	20.745634
1922.520707	-3.005700	3.280800	-9.859400	26.570812	0.000466	20.745985
1923.521413	-2.978400	3.282600	-9.776000	26.603283	0.000468	20.739271
1924.519946	-3.007000	3.282600	-9.869200	26.639851	0.000466	20.729090
1925.520864	-2.988500	3.282300	-9.808200	26.681828	0.000466	20.743789
1926.524807	-2.989900	3.282500	-9.813100	26.675200	0.000464	20.757515
1927.520957	-2.996600	3.281100	-9.831200	26.695258	0.000463	20.712244
1928.527328	-2.994000	3.281400	-9.823500	26.688407	0.000464	20.741395
1929.520555	-2.989400	3.280500	-9.805700	26.698187	0.000463	20.753124
1930.521340	-3.020100	3.280900	-9.906800	26.696449	0.000464	20.726244
1931.520973	-2.984400	3.280100	-9.787900	26.676839	0.000463	20.744938
1932.522314	-2.978300	3.278600	-9.763300	26.720304	0.000462	20.723675
1933.527956	-3.006400	3.278800	-9.856100	26.720975	0.000461	20.741420
1934.524473	-2.995800	3.277400	-9.817600	26.702060	0.000462	20.770768
1935.525158	-3.004000	3.280500	-9.853400	26.722167	0.000460	20.742144
1936.525155	-2.991900	3.278600	-9.808000	26.762925	0.000458	20.761312
1937.526608	-3.006000	3.276300	-9.847300	26.769181	0.000460	20.740099
1938.526026	-2.989300	3.277300	-9.796000	26.760816	0.000459	20.740698
1939.528663	-3.006600	3.275000	-9.844300	26.761610	0.000457	20.742445
1940.525259	-2.981800	3.276300	-9.768600	26.803757	0.000457	20.750207
1941.525234	-2.979200	3.276100	-9.759400	26.785041	0.000457	20.751304
1942.527469	-2.999500	3.275100	-9.823100	26.759551	0.000454	20.734210
1943.526165	-2.991500	3.275200	-9.796900	26.748556	0.000454	20.755399
1944.528149	-2.995400	3.274600	-9.806800	26.733959	0.000455	20.745465
1945.526015	-3.006100	3.274300	-9.840100	26.717453	0.000453	20.754949
1946.525165	-2.983400	3.275000	-9.769500	26.776826	0.000452	20.749209
1947.526577	-3.016800	3.272300	-9.871300	26.759179	0.000452	20.747113
1948.527973	-2.994600	3.274400	-9.804600	26.736889	0.000451	20.737979
1949.526046	-2.989900	3.273300	-9.786300	26.770099	0.000452	20.769947
1950.525546	-2.994000	3.272000	-9.794800	26.799909	0.000450	20.752977
1951.527133	-3.001700	3.272400	-9.822300	26.814304	0.000447	20.766028
1952.528755	-3.007900	3.271000	-9.837800	26.857690	0.000448	20.758443
1953.529995	-3.000200	3.272000	-9.815400	26.872010	0.000447	20.757669
1954.528302	-3.012400	3.271400	-9.854500	26.875088	0.000447	20.756496
1955.531105	-3.011900	3.270700	-9.850200	26.911248	0.000448	20.756820
1956.528434	-3.001800	3.270300	-9.816400	26.925617	0.000446	20.746138
1957.530948	-2.997000	3.269400	-9.797100	26.903503	0.000448	20.761834
1958.532743	-2.973800	3.271100	-9.725800	26.892780	0.000445	20.774760
1959.532344	-3.003900	3.270400	-9.821400	26.881240	0.000445	20.756992
1960.532734	-2.997800	3.267600	-9.794300	26.831454	0.000445	20.760986
1961.532554	-3.010300	3.268200	-9.837200	26.801196	0.000443	20.744788
1962.531390	-3.012600	3.268600	-9.845800	26.785710	0.000446	20.739648
1963.531809	-3.011600	3.268200	-9.840800	26.805665	0.000444	20.746910
1964.532288	-3.011300	3.267600	-9.839000	26.811621	0.000441	20.752899
1965.531030	-3.012300	3.267400	-9.841800	26.848306	0.000442	20.769396
1966.532298	-3.017900	3.265300	-9.853500	26.870468	0.000442	20.766549
1967.536429	-3.003500	3.266000	-9.808500	26.919087	0.000441	20.786040
1968.532036	-3.003800	3.265100	-9.806200	26.938345	0.000438	20.764153
1969.538339	-2.998900	3.265900	-9.793300	26.957058	0.000442	20.766850
1970.533444	-2.986100	3.264600	-9.747200	26.954177	0.000436	20.757315
1971.538812	-2.992500	3.264400	-9.766800	26.975072	0.000439	20.751773
1972.535552	-3.018600	3.263400	-9.850000	26.950653	0.000438	20.753770
1973.534873	-2.981000	3.264600	-9.729700	26.939459	0.000438	20.756739
1974.539003	-2.988800	3.264800	-9.757100	26.914717	0.000433	20.770740
1975.535346	-3.001700	3.264200	-9.797500	26.931269	0.000433	20.779323
1976.535094	-2.986200	3.262300	-9.740400	26.959612	0.000435	20.768469
1977.534013	-3.013200	3.261100	-9.825300	26.971448	0.000434	20.786062
1978.533274	-3.032600	3.261100	-9.888900	26.991523	0.000432	20.759308
1979.534927	-3.007100	3.260900	-9.804600	27.028028	0.000429	20.780846
1980.537992	-2.998100	3.261300	-9.776200	27.016860	0.000434	20.766770
1981.533652	-3.010000	3.260400	-9.812500	27.027208	0.000433	20.771486
1982.540815	-3.010700	3.260600	-9.816000	27.052915	0.000431	20.762252
1983.535145	-3.010900	3.260100	-9.813700	27.077481	0.000431	20.782217
1984.535069	-3.003300	3.260600	-9.791300	27.082593	0.000429	20.774081
1985.537459	-3.012200	3.260800	-9.820900	27.044802	0.000429	20.763576
1986.534498	-2.997800	3.259100	-9.769800	27.022144	0.000426	20.782516
1987.533829	-3.000700	3.258500	-9.777500	27.037033	0.000428	20.778996
1988.535113	-2.978800	3.259100	-9.706800	27.043409	0.000429	20.763124
1989.533317	-2.994200	3.258200	-9.754500	27.066809	0.000425	20.771483
1990.535242	-2.985300	3.257800	-9.724600	27.056338	0.000424	20.787032
1991.536242	-3.006900	3.257300	-9.793200	27.087231	0.000424	20.794393
1992.537775	-2.996100	3.257400	-9.758300	27.092070	0.000424	20.798312
1993.535057	-2.984200	3.256700	-9.717400	27.103384	0.000423	20.795939
1994.536263	-3.004900	3.256400	-9.784200	27.113558	0.000422	20.779619
1995.534065	-3.028400	3.253300	-9.850900	27.100904	0.000423	20.777323
1996.538506	-3.003900	3.255800	-9.778400	27.090779	0.000424	20.752916
1997.537720	-2.998400	3.256100	-9.761900	27.110829	0.000422	20.787780
1998.538064	-2.987300	3.255800	-9.725000	27.054154	0.000422	20.785783
1999.537576	-2.991700	3.255300	-9.738400	26.996259	0.000419	20.755535
2000.537270	-2.982900	3.256600	-9.712500	27.018816	0.000419	20.762099
2001.542462	-2.995300	3.254100	-9.745400	27.035592	0.000417	20.760951
2002.542570	-2.996800	3.252500	-9.745600	27.023829	0.000417	20.794168
2003.539130	-2.994300	3.253400	-9.740400	27.066733	0.000416	20.768562
2004.539001	-3.014800	3.253100	-9.806700	27.089091	0.000414	20.775400
2005.540957	-2.984100	3.252900	-9.705700	27.139810	0.000415	20.788952
2006.538949	-3.000600	3.253900	-9.762500	27.169732	0.000415	20.775425
2007.540432	-3.007300	3.253000	-9.781800	27.176284	0.000414	20.790550
2008.536726	-3.019800	3.249900	-9.813800	27.193254	0.000413	20.790548
2009.540564	-3.011400	3.249300	-9.783400	27.193800	0.000413	20.771657
2010.537644	-3.000600	3.250600	-9.751800	27.186952	0.000410	20.802703
2011.537863	-3.018900	3.248600	-9.806300	27.216826	0.000410	20.775851
2012.540862	-2.990600	3.251200	-9.722500	27.199681	0.000411	20.781840
2013.540778	-3.017300	3.248600	-9.801300	27.217173	0.000412	20.794218
2014.536975	-2.980000	3.250000	-9.684300	27.241166	0.000410	20.789428
2015.537939	-3.008600	3.249400	-9.775800	27.248781	0.000409	20.774802
2016.540053	-2.992100	3.248000	-9.716800	27.249228	0.000408	20.792321
2017.546001	-3.000400	3.247700	-9.743600	27.243820	0.000406	20.790201
2018.541166	-2.975500	3.248900	-9.665800	27.230944	0.000408	20.800484
2019.539569	-2.994800	3.246900	-9.722100	27.248932	0.000405	20.801981
2020.537777	-2.984700	3.246200	-9.688300	27.257268	0.000405	20.799934
2021.539855	-2.987000	3.246300	-9.695700	27.204695	0.000401	20.797789
2022.538384	-2.992000	3.247500	-9.715400	27.208119	0.000405	20.809768
2023.541158	-3.006200	3.243600	-9.749900	27.218914	0.000399	20.789805
2024.541906	-3.002300	3.244200	-9.739000	27.248313	0.000403	20.797565
2025.549904	-3.003700	3.244200	-9.743500	27.266846	0.000401	20.817156
2026.542786	-2.995700	3.244200	-9.717600	27.288035	0.000403	20.782993
2027.544091	-3.008300	3.242500	-9.753300	27.289252	0.000399	20.806976
2028.546619	-3.010500	3.242500	-9.760400	27.299223	0.000400	20.798041
2029.544171	-3.015200	3.242500	-9.775500	27.317436	0.000398	20.805929
2030.543462	-3.004500	3.242100	-9.740200	27.311084	0.000397	20.805230
2031.543274	-3.008000	3.241800	-9.750100	27.308901	0.000397	20.792603
2032.545113	-2.997800	3.241000	-9.714900	27.296076	0.000396	20.778280
2033.546120	-3.008500	3.240300	-9.747900	27.260028	0.000396	20.818357
2034.551495	-3.010900	3.240700	-9.756100	27.231595	0.000395	20.813466
2035.546891	-3.002900	3.239700	-9.727500	27.233729	0.000392	20.809923
2036.553125	-3.028000	3.239700	-9.808500	27.232292	0.000393	20.805158
2037.547934	-3.004900	3.239700	-9.733300	27.202866	0.000394	20.804958
2038.548885	-3.000500	3.239500	-9.719300	27.255292	0.000392	20.806008
2039.554445	-3.022500	3.238200	-9.786500	27.240181	0.000392	20.811671
2040.552467	-2.991100	3.238800	-9.687000	27.276181	0.000392	20.820855
2041.550726	-2.995300	3.238300	-9.698700	27.265586	0.000389	20.802612
2042.558547	-3.011400	3.236200	-9.743600	27.279852	0.000389	20.818384
2043.552577	-2.995800	3.236100	-9.694000	27.240307	0.000391	20.821281
2044.551819	-2.989800	3.235500	-9.672800	27.274046	0.000386	20.808277
2045.552680	-2.971800	3.237600	-9.620600	27.277869	0.000390	20.814966
2046.552906	-3.005200	3.235400	-9.722200	27.302901	0.000387	20.823077
2047.555156	-3.015600	3.234000	-9.751400	27.326121	0.000385	20.806131
2048.556826	-2.999200	3.234900	-9.700900	27.355643	0.000383	20.810225
2049.553363	-2.999000	3.235000	-9.700700	27.368271	0.000386	20.827670
2050.554969	-3.002400	3.232400	-9.704000	27.384199	0.000385	20.815718
2051.552850	-2.976700	3.233400	-9.624100	27.363629	0.000385	20.842914
2052.554428	-3.004300	3.233300	-9.712900	27.348523	0.000381	20.792157
2053.552433	-2.998200	3.233100	-9.692800	27.310742	0.000383	20.826696
2054.551981	-2.999500	3.232700	-9.695500	27.263281	0.000381	20.821630
2055.553130	-3.010800	3.232300	-9.731000	27.242689	0.000378	20.813719
2056.557369	-2.999000	3.232900	-9.694100	27.232665	0.000381	20.815491
2057.553246	-3.001200	3.231100	-9.695900	27.231251	0.000379	20.819284
2058.557083	-2.990000	3.231200	-9.660000	27.228645	0.000376	20.834206
2059.557038	-3.005500	3.230800	-9.709000	27.226437	0.000377	20.829615
2060.558564	-2.997000	3.230700	-9.681800	27.218598	0.000378	20.822204
2061.559285	-3.002700	3.229000	-9.694900	27.257525	0.000376	20.822478
2062.554914	-3.022100	3.227900	-9.753800	27.262735	0.000375	20.814442
2063.557389	-3.008900	3.228300	-9.712900	27.322152	0.000376	20.830114
2064.555424	-3.014500	3.226900	-9.726100	27.325452	0.000373	20.847657
2065.556714	-3.027900	3.227000	-9.770300	27.342123	0.000375	20.839298
2066.558006	-3.001300	3.228700	-9.688800	27.350087	0.000373	20.838300
2067.558300	-2.993700	3.227200	-9.660000	27.338477	0.000371	20.834208
2068.558489	-3.022700	3.226500	-9.751200	27.309402	0.000370	20.838625
2069.557457	-3.001100	3.224800	-9.676700	27.300793	0.000370	20.852250
2070.558514	-3.004700	3.223900	-9.685900	27.289580	0.000368	20.833859
2071.558111	-3.003700	3.226800	-9.691800	27.242120	0.000370	20.822155
2072.558372	-3.011000	3.224600	-9.708500	27.209244	0.000369	20.854994
2073.559288	-2.996900	3.224700	-9.663400	27.216018	0.000368	20.848058
2074.558282	-3.008800	3.224600	-9.702400	27.223536	0.000367	20.845188
2075.557580	-3.005700	3.224700	-9.691400	27.266308	0.000365	20.837002
2076.559008	-3.008600	3.222200	-9.693200	27.277796	0.000368	20.842867
2077.561837	-3.018700	3.220700	-9.721200	27.277175	0.000365	20.838450
2078.561413	-2.999900	3.222800	-9.666300	27.256311	0.000364	20.845912
2079.560770	-2.991900	3.222300	-9.640100	27.212743	0.000362	20.831962
2080.559960	-3.001600	3.222000	-9.670000	27.259908	0.000364	20.853797
2081.562262	-3.000900	3.222100	-9.667800	27.241127	0.000361	20.862881
2082.565753	-3.004900	3.220300	-9.676100	27.227232	0.000362	20.843690
2083.564390	-2.996100	3.219800	-9.646600	27.250158	0.000360	20.849680
2084.562562	-2.996100	3.220100	-9.646300	27.270924	0.000361	20.863455
2085.560710	-3.019900	3.219500	-9.721100	27.300199	0.000358	20.822256
2086.562291	-3.005600	3.219400	-9.674900	27.301291	0.000358	20.842320
2087.561996	-3.007000	3.218800	-9.678100	27.307890	0.000359	20.847535
2088.564404	-3.012400	3.217900	-9.691700	27.315854	0.000358	20.868347
2089.561866	-2.990900	3.217900	-9.623900	27.349444	0.000355	20.841921
2090.568859	-3.003100	3.217200	-9.661200	27.333096	0.000355	20.870993
2091.563096	-2.978900	3.217900	-9.585000	27.308338	0.000355	20.848934
2092.563259	-2.990700	3.216300	-9.617200	27.325631	0.000352	20.846889
2093.564491	-3.003100	3.215300	-9.654500	27.361824	0.000356	20.846313
2094.564014	-3.000600	3.215800	-9.648100	27.367207	0.000354	20.858367
2095.569210	-2.988000	3.215300	-9.606000	27.381918	0.000353	20.863208
2096.563439	-2.999100	3.215700	-9.643000	27.373534	0.000353	20.881799
2097.568713	-3.007600	3.214500	-9.667000	27.412604	0.000352	20.841448
2098.568239	-3.001200	3.214800	-9.647300	27.447184	0.000349	20.852528
2099.570553	-3.004800	3.213100	-9.653300	27.498108	0.000349	20.860614
2100.567378	-2.982500	3.213500	-9.583500	27.521103	0.000348	20.864308
2101.567491	-3.008600	3.210600	-9.659000	27.556373	0.000348	20.864233
2102.564976	-3.000800	3.213600	-9.642800	27.595735	0.000346	20.840303
2103.568719	-3.007900	3.210800	-9.656700	27.628993	0.000346	20.883248
2104.573421	-3.008800	3.211800	-9.663100	27.634897	0.000347	20.855999
2105.567642	-3.003100	3.211000	-9.642100	27.650374	0.000347	20.887218
2106.569579	-3.001200	3.211100	-9.635600	27.605981	0.000344	20.856301
2107.566505	-3.008100	3.209500	-9.652700	27.559426	0.000344	20.871572
2108.570432	-3.005900	3.209800	-9.646500	27.522794	0.000343	20.868380
2109.570657	-2.977700	3.210900	-9.559700	27.503594	0.000343	20.867081
2110.570858	-3.003600	3.208500	-9.635300	27.541817	0.000342	20.867131
2111.568102	-2.986700	3.208600	-9.582200	27.562106	0.000342	20.873320
2112.568360	-3.017300	3.205900	-9.671900	27.553648	0.000340	20.887568
2113.568949	-2.990700	3.207700	-9.591600	27.526886	0.000338	20.869178
2114.568930	-3.008000	3.207500	-9.647300	27.512079	0.000339	20.885099
2115.571167	-2.984200	3.208800	-9.574600	27.458527	0.000337	20.875318
2116.569920	-3.023900	3.205500	-9.692500	27.463336	0.000335	20.884897
2117.577481	-2.979700	3.205900	-9.551400	27.437567	0.000338	20.894533
2118.571175	-2.996600	3.205100	-9.603300	27.432258	0.000334	20.876392
2119.570348	-2.990100	3.203900	-9.578800	27.442154	0.000335	20.894406
2120.572147	-3.023400	3.204300	-9.685800	27.470432	0.000336	20.888717
2121.572184	-3.024300	3.204700	-9.691100	27.482164	0.000334	20.885348
2122.572713	-2.991300	3.203800	-9.582500	27.501389	0.000335	20.857750
2123.572909	-3.000600	3.202200	-9.607800	27.506868	0.000335	20.903089
2124.573102	-2.982800	3.202300	-9.551200	27.506299	0.000331	20.871225
2125.574125	-3.009400	3.201400	-9.633800	27.566075	0.000332	20.912398
2126.577337	-3.018800	3.200300	-9.660000	27.570441	0.000332	20.882654
2127.576459	-3.001800	3.199700	-9.603500	27.618135	0.000329	20.904563
2128.577757	-2.978500	3.201600	-9.535300	27.630238	0.000330	20.876914
2129.575550	-3.012300	3.198200	-9.633000	27.598393	0.000329	20.881381
2130.575402	-3.015500	3.200200	-9.649000	27.591001	0.000327	20.889590
2131.576075	-3.008600	3.199400	-9.625000	27.568060	0.000328	20.894007
2132.575091	-3.001500	3.197600	-9.596900	27.604642	0.000327	20.890513
2133.576087	-3.004700	3.198200	-9.608500	27.647152	0.000327	20.898199
2134.578010	-3.004900	3.196800	-9.605100	27.629196	0.000326	20.888193
2135.577544	-3.013000	3.197700	-9.633600	27.629816	0.000326	20.901618
2136.579656	-3.011900	3.197000	-9.627600	27.633435	0.000323	20.891036
2137.577538	-3.005000	3.195800	-9.602600	27.648838	0.000323	20.876190
2138.578303	-2.989200	3.197500	-9.557400	27.613249	0.000321	20.895380
2139.578482	-3.017900	3.194600	-9.640200	27.559725	0.000322	20.867131
2140.577868	-2.999000	3.195500	-9.582800	27.542016	0.000322	20.880607
2141.579234	-2.990300	3.196000	-9.555900	27.526016	0.000321	20.883001
2142.580290	-2.993600	3.193500	-9.558900	27.505801	0.000322	20.872620
2143.579136	-2.997200	3.194900	-9.574200	27.505108	0.000321	20.854380
2144.579264	-2.995800	3.192700	-9.563200	27.548242	0.000319	20.882604
2145.580211	-2.975800	3.192800	-9.499800	27.582891	0.000318	20.884275
2146.580035	-3.021700	3.191200	-9.641600	27.617936	0.000317	20.878760
2147.583665	-3.008800	3.190800	-9.599100	27.640654	0.000315	20.881231
2148.579420	-2.999300	3.192600	-9.575100	27.661510	0.000317	20.884200
2149.584125	-2.999100	3.190100	-9.566100	27.698339	0.000316	20.877637
2150.582614	-3.000000	3.189600	-9.567200	27.704886	0.000316	20.865260
2151.583642	-2.982500	3.190200	-9.513500	27.707688	0.000314	20.881355
2152.584665	-3.017100	3.189100	-9.620600	27.748680	0.000313	20.863338
2153.588545	-2.982000	3.189800	-9.511000	27.802195	0.000311	20.857924
2154.583547	-2.998700	3.188500	-9.559900	27.793192	0.000313	20.850286
2155.582800	-3.001400	3.188700	-9.569400	27.783473	0.000311	20.853308
2156.583218	-3.008100	3.187600	-9.587400	27.789771	0.000311	20.871973
2157.583881	-2.992400	3.188000	-9.538700	27.748805	0.000308	20.853981
2158.591455	-3.013200	3.185500	-9.597800	27.720609	0.000309	20.854530
2159.582977	-3.001600	3.187200	-9.565700	27.702554	0.000309	20.861966
2160.589509	-3.009500	3.184500	-9.582400	27.701141	0.000307	20.857225
2161.585475	-2.996400	3.183700	-9.538800	27.699108	0.000306	20.873196
2162.584129	-3.002900	3.183100	-9.557500	27.702009	0.000305	20.843874
2163.590490	-2.993200	3.184600	-9.531500	27.731769	0.000304	20.860545
2164.584813	-2.998300	3.182900	-9.542100	27.737001	0.000304	20.852533
2165.584802	-2.998700	3.182100	-9.539700	27.767552	0.000305	20.843924
2166.586034	-2.999800	3.183500	-9.547900	27.781512	0.000304	20.852283
2167.588118	-3.004700	3.180800	-9.556000	27.792324	0.000301	20.857947
2168.586786	-2.982200	3.181500	-9.486700	27.763039	0.000302	20.863564
2169.588623	-2.983600	3.180500	-9.488300	27.773949	0.000299	20.858896
2170.586991	-3.007200	3.182800	-9.570700	27.739479	0.000301	20.850286
2171.588517	-3.001300	3.180300	-9.543900	27.691569	0.000299	20.874619
2172.586482	-3.017000	3.180400	-9.593900	27.684351	0.000301	20.845545
2173.587249	-3.023200	3.178300	-9.607200	27.715598	0.000297	20.840480
2174.592696	-3.007600	3.179900	-9.562900	27.685021	0.000296	20.850961
2175.587631	-3.020800	3.176900	-9.596200	27.675496	0.000298	20.851807
2176.589235	-3.008300	3.177800	-9.558900	27.719663	0.000298	20.853578
2177.589301	-3.018600	3.176300	-9.587300	27.720606	0.000297	20.850734
2178.589457	-3.021000	3.176200	-9.593400	27.703990	0.000296	20.846341
2179.587635	-3.021900	3.174900	-9.593100	27.688764	0.000293	20.841926
2180.590800	-3.015400	3.174100	-9.569000	27.676883	0.000293	20.831393
2181.586862	-2.993700	3.174400	-9.502000	27.713264	0.000294	20.828648
2182.589382	-3.001900	3.174000	-9.527100	27.727300	0.000293	20.835660
2183.589229	-3.010600	3.176300	-9.561500	27.764622	0.000292	20.855674
2184.588774	-2.986600	3.174100	-9.478800	27.803826	0.000291	20.832066
2185.593705	-2.970200	3.174900	-9.429600	27.827903	0.000289	20.819314
2186.592601	-2.992200	3.174200	-9.497000	27.828945	0.000291	20.829371
2187.595470	-2.994300	3.172400	-9.498300	27.793163	0.000289	20.828448
2188.591249	-3.011300	3.170000	-9.545700	27.765961	0.000292	20.834263
2189.590443	-3.002300	3.171500	-9.520900	27.691068	0.000289	20.828124
2190.591426	-3.015400	3.168600	-9.553300	27.698334	0.000289	20.843021
2191.592314	-3.018900	3.170200	-9.568300	27.657713	0.000287	20.799775
2192.592043	-3.018500	3.168600	-9.563900	27.712098	0.000291	20.833638
2193.591104	-3.012300	3.167900	-9.541600	27.735682	0.000289	20.843146
2194.592115	-2.998900	3.168200	-9.500200	27.735582	0.000285	20.816494
2195.589622	-3.010200	3.168100	-9.534800	27.770745	0.000288	20.821534
2196.591999	-3.001600	3.167400	-9.505600	27.806576	0.000284	20.841946
2197.593719	-3.003600	3.165700	-9.507000	27.837648	0.000283	20.837181
2198.592344	-3.012300	3.165300	-9.533300	27.824333	0.000282	20.806712
2199.599452	-3.010700	3.164100	-9.525200	27.767746	0.000280	20.816619
2200.592993	-2.993400	3.164800	-9.472800	27.763801	0.000283	20.841572
2201.596513	-3.019200	3.163500	-9.550100	27.744460	0.000280	20.818790
2202.593835	-3.036500	3.164200	-9.607500	27.682386	0.000283	20.830293
2203.595301	-2.995500	3.162800	-9.472700	27.756684	0.000282	20.824927
2204.594542	-3.005600	3.162700	-9.505300	27.759388	0.000282	20.828122
2205.595991	-3.000000	3.161000	-9.480800	27.779523	0.000278	20.814247
2206.595043	-3.011300	3.160200	-9.515100	27.832490	0.000279	20.814921
2207.597030	-3.005200	3.160900	-9.498300	27.811910	0.000276	20.826451
2208.594538	-2.988500	3.160700	-9.443900	27.841591	0.000277	20.817442
2209.595640	-3.009500	3.161500	-9.512800	27.868024	0.000275	20.802320
2210.596805	-2.997700	3.159200	-9.470100	27.867181	0.000274	20.819489
2211.594386	-2.996800	3.157600	-9.461800	27.812331	0.000276	20.820237
2212.600465	-2.997400	3.158100	-9.465200	27.788898	0.000274	20.811828
2213.593104	-3.024000	3.158800	-9.550900	27.780441	0.000272	20.797152
2214.600485	-2.982800	3.156700	-9.414000	27.718621	0.000272	20.802271
2215.600086	-3.016800	3.155500	-9.517400	27.725565	0.000270	20.808784
2216.597010	-3.027100	3.156600	-9.553700	27.771492	0.000271	20.807587
2217.599590	-3.011600	3.155600	-9.502800	27.813821	0.000272	20.823159
2218.597229	-3.007700	3.154100	-9.484900	27.809134	0.000269	20.830296
2219.597567	-3.009900	3.153700	-9.490800	27.811638	0.000269	20.796780
2220.598313	-3.008600	3.154300	-9.489500	27.788304	0.000269	20.806963
2221.598858	-3.032200	3.152000	-9.554600	27.769707	0.000269	20.809584
2222.599470	-3.019500	3.154400	-9.522700	27.725193	0.000265	20.818367
2223.601676	-3.002500	3.151800	-9.462200	27.651315	0.000267	20.828898
2224.600111	-3.032000	3.151300	-9.553300	27.621429	0.000265	20.798827
2225.599693	-3.003300	3.152400	-9.465800	27.616245	0.000266	20.802146
2226.602400	-3.001900	3.150500	-9.456500	27.638841	0.000266	20.826304
2227.599816	-3.007400	3.149700	-9.470600	27.648315	0.000266	20.795060
2228.599501	-2.997700	3.148100	-9.435500	27.664112	0.000265	20.811430
2229.601290	-2.973100	3.148900	-9.361100	27.722193	0.000264	20.784529
2230.602211	-2.990900	3.148600	-9.416300	27.692582	0.000263	20.813051
2231.600664	-2.971500	3.149100	-9.356200	27.697667	0.000263	20.818643
2232.602402	-2.979300	3.147200	-9.375000	27.725442	0.000262	20.795858
2233.605041	-2.980100	3.147300	-9.378700	27.765541	0.000260	20.814874
2234.603035	-3.000000	3.145200	-9.434000	27.769607	0.000261	20.804742
2235.604089	-3.004200	3.145400	-9.447900	27.786569	0.000259	20.800949
2236.605363	-2.988600	3.143400	-9.393500	27.757160	0.000260	20.791267
2237.605430	-3.007300	3.143600	-9.452600	27.774491	0.000258	20.804442
2238.610325	-2.956300	3.144100	-9.292700	27.747413	0.000258	20.790942
2239.604532	-3.047800	3.141600	-9.573300	27.736773	0.000258	20.794933
2240.604007	-3.009400	3.141800	-9.454200	27.764599	0.000259	20.783106
2241.603340	-3.001700	3.140600	-9.426100	27.760655	0.000257	20.814699
2242.608055	-2.989800	3.140400	-9.387200	27.739502	0.000257	20.810482
2243.605365	-2.984400	3.140200	-9.370100	27.743569	0.000259	20.800349
2244.608178	-2.995100	3.140100	-9.404200	27.799341	0.000255	20.791517
2245.605435	-2.984200	3.139000	-9.365800	27.800728	0.000253	20.813302
2246.606869	-2.987100	3.137500	-9.371200	27.853149	0.000254	20.790668
2247.605069	-3.013100	3.136500	-9.448800	27.913154	0.000253	20.805068
2248.605758	-2.951700	3.137200	-9.259400	27.910004	0.000256	20.792414
2249.606720	-2.972900	3.134600	-9.317900	27.890738	0.000254	20.793887
2250.605474	-3.002800	3.135900	-9.416000	27.876258	0.000253	20.791641
2251.608050	-3.009200	3.132700	-9.425800	27.888507	0.000253	20.783106
2252.605234	-3.009300	3.133300	-9.427500	27.907029	0.000252	20.789895
2253.605822	-3.009000	3.132800	-9.425200	27.917989	0.000251	20.787175
2254.608107	-2.998000	3.133300	-9.393200	27.956444	0.000248	20.789370
2255.608733	-2.973900	3.132000	-9.312800	28.018873	0.000248	20.826130
2256.607018	-3.020200	3.130100	-9.452200	28.051673	0.000250	20.770955
2257.607213	-2.979300	3.130600	-9.325800	28.053284	0.000248	20.810983
2258.606721	-3.005300	3.128900	-9.401600	28.082512	0.000251	20.783507
2259.607805	-2.997700	3.130000	-9.382300	28.127507	0.000248	20.769532
2260.608165	-3.007100	3.128500	-9.407100	28.133010	0.000249	20.791668
2261.606976	-3.000700	3.129000	-9.389100	28.145232	0.000247	20.774100
2262.608155	-3.004400	3.127200	-9.393400	28.165211	0.000245	20.795162
2263.607801	-2.998500	3.126700	-9.374200	28.148801	0.000247	20.778168
2264.606774	-2.990900	3.126500	-9.350400	28.184424	0.000247	20.792693
2265.608822	-2.995900	3.126500	-9.365500	28.183928	0.000247	20.786978
2266.608411	-3.021600	3.124100	-9.437400	28.136953	0.000244	20.794690
2267.609825	-3.003700	3.123400	-9.380700	28.099817	0.000245	20.795711
2268.608700	-2.992000	3.122800	-9.342100	28.055072	0.000244	20.770108
2269.609701	-3.008500	3.120700	-9.387900	27.991902	0.000243	20.768636
2270.610444	-2.978300	3.122700	-9.298800	27.922257	0.000244	20.786729
2271.610808	-2.995900	3.120600	-9.348000	27.876860	0.000243	20.777548
2272.610711	-2.988700	3.119000	-9.320800	27.898108	0.000242	20.787080
2273.609549	-2.956700	3.121500	-9.227600	27.872718	0.000243	20.774327
2274.608564	-2.981600	3.118900	-9.298200	27.897639	0.000242	20.772382
2275.615176	-2.969500	3.117600	-9.256900	27.895258	0.000243	20.781366
2276.613222	-3.000800	3.114800	-9.346100	27.904879	0.000239	20.776351
2277.611121	-3.020700	3.114900	-9.408100	27.931236	0.000240	20.779171
2278.616804	-3.005900	3.116400	-9.366300	27.966741	0.000241	20.789778
2279.614734	-3.007900	3.113600	-9.364400	27.987912	0.000240	20.780742
2280.611218	-2.996700	3.113500	-9.329900	27.988584	0.000238	20.783315
2281.612554	-2.995500	3.112800	-9.323200	28.015484	0.000237	20.798064
2282.613200	-2.997300	3.112800	-9.329200	28.012187	0.000237	20.783839
2283.613472	-2.985300	3.112200	-9.290100	28.010377	0.000236	20.798613
2284.612656	-3.008400	3.110600	-9.356800	27.975643	0.000236	20.759857
2285.611604	-2.986100	3.109700	-9.284700	27.980553	0.000237	20.784240
2286.617216	-2.985200	3.108800	-9.279500	28.017071	0.000237	20.778324
2287.622900	-3.021400	3.108400	-9.390200	27.997957	0.000235	20.769516
2288.616899	-2.994100	3.107900	-9.304800	27.993446	0.000236	20.806226
2289.614867	-3.014100	3.105800	-9.360100	27.995824	0.000235	20.774481
2290.614714	-2.967200	3.107500	-9.218800	27.998850	0.000234	20.780846
2291.614487	-2.987700	3.104900	-9.275000	28.030435	0.000234	20.786560
2292.618152	-3.001500	3.102900	-9.311800	28.057062	0.000233	20.774957
2293.616508	-2.995100	3.103700	-9.295000	28.086068	0.000232	20.795147
2294.617309	-2.992700	3.101900	-9.280300	28.060532	0.000233	20.775605
2295.616770	-3.000200	3.100600	-9.301300	28.020321	0.000232	20.773060
2296.619602	-2.992600	3.101400	-9.279800	27.971901	0.000230	20.752771
2297.618413	-2.990100	3.101200	-9.270400	27.969149	0.000232	20.771813
2298.621399	-3.008900	3.099600	-9.324700	27.993618	0.000234	20.760406
2299.619446	-3.001800	3.099600	-9.303300	28.025180	0.000231	20.779849
2300.617203	-3.007100	3.097300	-9.312900	28.081927	0.000231	20.770115
2301.617208	-3.006300	3.095400	-9.304700	28.103197	0.000229	20.746008
2302.618916	-2.996100	3.096800	-9.277800	28.135448	0.000229	20.745757
2303.618368	-3.030200	3.093300	-9.370800	28.161700	0.000230	20.781670
2304.619166	-2.997400	3.095600	-9.277100	28.124294	0.000231	20.770566
2305.618286	-3.000800	3.094200	-9.284200	28.072753	0.000227	20.760406
2306.619949	-3.001500	3.093400	-9.283500	28.036757	0.000229	20.771114
2307.619036	-3.002700	3.092800	-9.285300	28.043821	0.000229	20.773008
2308.620152	-2.990800	3.090700	-9.242500	28.012809	0.000227	20.765024
2309.619882	-2.998300	3.091100	-9.266500	28.051756	0.000227	20.764874
2310.619215	-2.982500	3.090900	-9.217300	28.065466	0.000225	20.766821
2311.620121	-3.025700	3.088900	-9.344500	28.070672	0.000226	20.742663
2312.625586	-3.024600	3.086900	-9.335900	28.098759	0.000227	20.743436
2313.624923	-2.985800	3.088200	-9.219100	28.107337	0.000227	20.784789
2314.622519	-3.008300	3.085900	-9.283000	28.125756	0.000226	20.747854
2315.624752	-3.032700	3.085300	-9.356000	28.122556	0.000226	20.765497
2316.622871	-3.035200	3.082600	-9.354500	28.120722	0.000227	20.755115
2317.621000	-3.003200	3.082700	-9.257700	28.131976	0.000227	20.752694
2318.623718	-2.999100	3.082600	-9.244200	28.158501	0.000225	20.744784
2319.623288	-2.989000	3.081400	-9.209800	28.206070	0.000226	20.750474
2320.622386	-2.997000	3.080800	-9.231000	28.240821	0.000224	20.755590
2321.622832	-2.984100	3.080000	-9.189700	28.218859	0.000222	20.756712
2322.621799	-2.991100	3.080200	-9.211300	28.219852	0.000222	20.766247
2323.623310	-2.981600	3.078900	-9.178300	28.177687	0.000225	20.746081
2324.625918	-3.003800	3.077100	-9.241500	28.154188	0.000226	20.743760
2325.624458	-2.994700	3.075600	-9.210300	28.170772	0.000225	20.747180
2326.628954	-3.020400	3.075200	-9.287100	28.190206	0.000225	20.761530
2327.625529	-2.996300	3.074800	-9.211900	28.241095	0.000226	20.756813
2328.624061	-2.999800	3.072700	-9.216900	28.260725	0.000223	20.754292
2329.625195	-3.001200	3.073200	-9.222700	28.274011	0.000222	20.751073
2330.624569	-3.014700	3.071700	-9.259200	28.288462	0.000223	20.767995
2331.624561	-3.012600	3.071500	-9.252200	28.261445	0.000222	20.741266
2332.625763	-2.997000	3.069200	-9.197600	28.247169	0.000223	20.750601
2333.626403	-2.975900	3.069100	-9.131400	28.220673	0.000222	20.750003
2334.627485	-3.006600	3.066100	-9.217100	28.243649	0.000221	20.747530
2335.628083	-2.977200	3.067000	-9.129400	28.206445	0.000220	20.738523
2336.628155	-2.988500	3.066400	-9.162600	28.180317	0.000221	20.746358
2337.628653	-2.987500	3.064400	-9.154200	28.192936	0.000220	20.734879
2338.629014	-3.004300	3.063700	-9.202800	28.188077	0.000221	20.738048
2339.628970	-2.969100	3.064600	-9.098100	28.226696	0.000219	20.741368
2340.628867	-2.989000	3.063000	-9.154000	28.239932	0.000220	20.749953
2341.626471	-3.020100	3.060900	-9.243200	28.218220	0.000220	20.745637
2342.630191	-3.008400	3.059400	-9.202800	28.200000	0.000219	20.747682
2343.627305	-3.005700	3.057400	-9.188800	28.176725	0.000218	20.745113
2344.628061	-3.010600	3.057200	-9.203800	28.215768	0.000219	20.743642
2345.634004	-3.006600	3.056000	-9.186800	28.148145	0.000219	20.746685
2346.630881	-3.000200	3.055200	-9.165800	28.119513	0.000219	20.746311
2347.628645	-3.001900	3.055300	-9.170900	28.096533	0.000219	20.768223
2348.628409	-2.985400	3.054300	-9.117400	28.032920	0.000218	20.744964
2349.629333	-3.019700	3.051200	-9.212300	28.017499	0.000217	20.732761
2350.631214	-3.003200	3.051100	-9.161400	27.986980	0.000220	20.745664
2351.633924	-3.010100	3.051000	-9.183000	27.975947	0.000216	20.724125
2352.630367	-2.997500	3.049400	-9.139500	27.965087	0.000217	20.719358
2353.634354	-3.019000	3.047100	-9.197600	28.001236	0.000217	20.763807
2354.629465	-2.985600	3.046900	-9.095600	28.037159	0.000218	20.731213
2355.630884	-2.999800	3.046500	-9.137200	28.074619	0.000217	20.743318
2356.638157	-2.978800	3.046300	-9.073600	28.115402	0.000215	20.719412
2357.629375	-3.042900	3.041800	-9.254700	28.145320	0.000217	20.744790
2358.630792	-2.986100	3.044200	-9.089500	28.127250	0.000217	20.770696
2359.631229	-3.014500	3.042000	-9.168600	28.098863	0.000217	20.735955
2360.634243	-2.973500	3.040600	-9.040400	28.072586	0.000217	20.738900
2361.633306	-2.992300	3.039700	-9.095500	28.065371	0.000214	20.744914
2362.633982	-2.976500	3.039300	-9.045800	28.068075	0.000213	20.746213
2363.634566	-3.005900	3.037600	-9.129300	28.110715	0.000214	20.726548
2364.634367	-3.024200	3.034400	-9.175500	28.112027	0.000214	20.744465
2365.631993	-3.021300	3.034000	-9.164600	28.137214	0.000213	20.722878
2366.632707	-3.012000	3.034300	-9.138500	28.098392	0.000214	20.730265
2367.636796	-3.011600	3.032300	-9.131000	28.119886	0.000214	20.749532
2368.632237	-3.001000	3.031500	-9.097300	28.120578	0.000214	20.733632
2369.632349	-3.012300	3.031700	-9.130000	28.133892	0.000213	20.744191
2370.632208	-3.007100	3.029500	-9.108600	28.126752	0.000209	20.726571
2371.632990	-3.006100	3.027800	-9.101500	28.136768	0.000213	20.752776
2372.634676	-2.999300	3.027400	-9.078700	28.176009	0.000214	20.734908
2373.635662	-3.001200	3.026400	-9.081900	28.227616	0.000213	20.741820
2374.636005	-2.983700	3.024900	-9.024500	28.279817	0.000213	20.730365
2375.633904	-3.003400	3.022800	-9.078100	28.283733	0.000212	20.733360
2376.634068	-2.995200	3.022900	-9.053200	28.294662	0.000213	20.729191
2377.635674	-3.010700	3.021400	-9.096500	28.331270	0.000215	20.740446
2378.640474	-3.007600	3.020000	-9.082000	28.348546	0.000212	20.738875
2379.638356	-3.014200	3.019600	-9.100900	28.374171	0.000210	20.746660
2380.637353	-3.006500	3.017100	-9.070400	28.397938	0.000211	20.729814
2381.638370	-3.022100	3.015000	-9.110700	28.415584	0.000213	20.763706
2382.637497	-3.039000	3.014400	-9.159700	28.377368	0.000208	20.749879
2383.640242	-3.024200	3.013300	-9.112300	28.349139	0.000211	20.748008
2384.637194	-3.019200	3.012400	-9.094700	28.345173	0.000211	20.751601
2385.641225	-3.033100	3.010700	-9.130100	28.370454	0.000211	20.743391
2386.640853	-3.046500	3.010600	-9.169300	28.435311	0.000212	20.741844
2387.639083	-2.992500	3.009300	-9.004500	28.455483	0.000211	20.744613
2388.643705	-2.992900	3.009600	-9.005300	28.412981	0.000210	20.732634
2389.646973	-3.008600	3.005600	-9.041500	28.410824	0.000210	20.740419
2390.644397	-3.012500	3.004200	-9.049000	28.441755	0.000211	20.739798
2391.643139	-2.982500	3.004600	-8.960000	28.436078	0.000210	20.735504
2392.646230	-2.996700	3.002200	-8.996000	28.390850	0.000212	20.739746
2393.641719	-3.003000	3.001500	-9.012100	28.364231	0.000210	20.734280
2394.647270	-3.014600	2.999100	-9.040700	28.358309	0.000207	20.756767
2395.645066	-3.017100	2.997900	-9.044600	28.379399	0.000212	20.733906
2396.644846	-2.988600	2.997400	-8.957100	28.370923	0.000211	20.747183
2397.648851	-3.005200	2.996700	-9.004700	28.383266	0.000210	20.751551
2398.649158	-2.988000	2.995300	-8.947700	28.447948	0.000211	20.746983
2399.646333	-3.024400	2.993400	-9.052000	28.449437	0.000212	20.756069
2400.648561	-2.994600	2.993100	-8.962300	28.435508	0.000209	20.744887
2401.648582	-3.012400	2.990500	-9.007500	28.390155	0.000209	20.736202
2402.645756	-2.985500	2.989600	-8.923100	28.467327	0.000209	20.758912
2403.647270	-3.029900	2.987900	-9.051500	28.489656	0.000210	20.747258
2404.648789	-3.016300	2.985700	-9.004900	28.537904	0.000209	20.739897
2405.648082	-3.020000	2.985800	-9.016100	28.535947	0.000211	20.741244
2406.648045	-2.987400	2.985800	-8.919600	28.486781	0.000209	20.746260
2407.649053	-3.017700	2.982700	-8.999600	28.383712	0.000209	20.747732
2408.662613	-3.008300	2.982100	-8.969800	28.355309	0.000209	20.736676
2409.652442	-3.011500	2.980800	-8.975800	28.346364	0.000209	20.758964
2410.652387	-3.006900	2.977500	-8.952000	28.360365	0.000207	20.760734
2411.653712	-2.992900	2.977400	-8.909800	28.436894	0.000211	20.761931
2412.650203	-2.998800	2.976800	-8.925800	28.474786	0.000209	20.746983
2413.649699	-3.034700	2.973200	-9.021700	28.500732	0.000207	20.760310
2414.652749	-2.980400	2.972700	-8.859100	28.503657	0.000207	20.764677
2415.653943	-3.024400	2.972200	-8.987700	28.476051	0.000207	20.763430
2416.652178	-3.043600	2.969400	-9.036100	28.534731	0.000207	20.749978
2417.655074	-2.994300	2.969900	-8.891300	28.553390	0.000207	20.758338
2418.653331	-2.995700	2.967500	-8.888300	28.527570	0.000211	20.753197
2419.654263	-2.994500	2.966900	-8.883900	28.572346	0.000211	20.763679
2420.654729	-2.983300	2.964400	-8.842100	28.544864	0.000207	20.757338
2421.652854	-3.014100	2.963000	-8.929200	28.585973	0.000209	20.745634
2422.656849	-2.991600	2.961500	-8.858500	28.607333	0.000209	20.779475
2423.653967	-2.998100	2.958300	-8.868000	28.575146	0.000208	20.777405
2424.653837	-2.993700	2.956800	-8.850400	28.514584	0.000206	20.760508
2425.660277	-2.990900	2.957100	-8.843400	28.437861	0.000207	20.739195
2426.651692	-3.020500	2.955500	-8.926300	28.365246	0.000208	20.767071
2427.655778	-3.011700	2.954700	-8.898200	28.319495	0.000207	20.756092
2428.654500	-3.014500	2.953600	-8.902900	28.277954	0.000209	20.775433
2429.653105	-2.991900	2.953000	-8.833700	28.260754	0.000210	20.780874
2430.655138	-2.991800	2.949400	-8.822700	28.291935	0.000207	20.772913
2431.655070	-2.982800	2.949700	-8.797000	28.295974	0.000207	20.769394
2432.656075	-3.007700	2.946500	-8.861400	28.299669	0.000207	20.753199
2433.654350	-3.005700	2.944800	-8.849800	28.302768	0.000208	20.767225
2434.654348	-2.981200	2.944500	-8.777000	28.281229	0.000211	20.786317
2435.655313	-2.995100	2.941400	-8.809100	28.315234	0.000207	20.781199
2436.657327	-3.011300	2.940200	-8.852600	28.348421	0.000205	20.765777
2437.656126	-2.980500	2.939400	-8.760100	28.409143	0.000206	20.776660
2438.656685	-3.015900	2.936900	-8.856100	28.395363	0.000208	20.783173
2439.656432	-2.982600	2.936400	-8.757600	28.392314	0.000206	20.779154
2440.655145	-3.013500	2.933000	-8.837800	28.377446	0.000206	20.778882
2441.658018	-2.992500	2.933200	-8.777100	28.415685	0.000207	20.770446
2442.658727	-3.019900	2.930900	-8.849700	28.465449	0.000207	20.781203
2443.656921	-2.992700	2.929800	-8.767600	28.522792	0.000209	20.768774
2444.657046	-2.988100	2.927200	-8.745600	28.519423	0.000207	20.796202
2445.656873	-2.984800	2.925400	-8.730600	28.549804	0.000206	20.786021
2446.657670	-2.994000	2.926300	-8.761100	28.568263	0.000207	20.778059
2447.658679	-2.985600	2.922400	-8.724400	28.515235	0.000206	20.787243
2448.656594	-3.006900	2.921500	-8.783500	28.508199	0.000206	20.799124
2449.659852	-2.983700	2.919800	-8.710800	28.521283	0.000207	20.784799
2450.656089	-3.006500	2.917100	-8.769700	28.513057	0.000208	20.779360
2451.659537	-2.971900	2.917100	-8.668200	28.519053	0.000207	20.778760
2452.661888	-2.997400	2.914200	-8.734300	28.584077	0.000206	20.783080
2453.657606	-2.968100	2.912900	-8.644400	28.600256	0.000208	20.765235
2454.662965	-2.987900	2.911900	-8.699300	28.623698	0.000205	20.806388
2455.659495	-2.977900	2.909100	-8.662300	28.590247	0.000206	20.790716
2456.661677	-3.003700	2.907600	-8.732500	28.562693	0.000206	20.776717
2457.662308	-2.974600	2.905200	-8.640300	28.528621	0.000208	20.773696
2458.667134	-3.023200	2.903700	-8.777400	28.548495	0.000206	20.789444
2459.665072	-3.001400	2.902000	-8.709500	28.546414	0.000207	20.796358
2460.664110	-2.990600	2.902500	-8.678700	28.549637	0.000205	20.793439
2461.663186	-3.011800	2.898600	-8.728600	28.594114	0.000206	20.783706
2462.667413	-2.983100	2.896500	-8.639400	28.654920	0.000206	20.808437
2463.668284	-3.028200	2.895200	-8.765900	28.705067	0.000207	20.785926
2464.666324	-2.987600	2.894400	-8.647000	28.723029	0.000205	20.800226
2465.666843	-3.008700	2.891200	-8.698000	28.726474	0.000202	20.790419
2466.666536	-2.997000	2.890400	-8.661200	28.731355	0.000203	20.809086
2467.667499	-2.989300	2.888600	-8.633300	28.785463	0.000206	20.801001
2468.671194	-3.012600	2.886500	-8.694900	28.817222	0.000207	20.788422
2469.668886	-2.990400	2.884500	-8.624700	28.844497	0.000205	20.793613
2470.667190	-2.994800	2.884000	-8.636400	28.852598	0.000206	20.806041
2471.670380	-2.986800	2.881600	-8.605400	28.854308	0.000206	20.799229
2472.668837	-2.996400	2.879600	-8.627600	28.852426	0.000206	20.798281
2473.666027	-2.986100	2.877300	-8.591300	28.896470	0.000207	20.798555
2474.672565	-2.960100	2.875100	-8.509700	28.912571	0.000207	20.797707
2475.667592	-3.028500	2.872000	-8.696000	28.871501	0.000204	20.805644
2476.669123	-3.007200	2.871100	-8.633300	28.795845	0.000205	20.794863
2477.668518	-3.001200	2.869700	-8.611800	28.803549	0.000203	20.780338
2478.667068	-3.012700	2.866000	-8.632100	28.817224	0.000207	20.815451
2479.670973	-2.997600	2.865200	-8.587600	28.846754	0.000206	20.801103
2480.668489	-3.019600	2.862200	-8.640700	28.874425	0.000204	20.813330
2481.669221	-2.999500	2.861000	-8.578900	28.895010	0.000206	20.802300
2482.668883	-2.951400	2.860100	-8.440100	28.896373	0.000204	20.791346
2483.668341	-3.012800	2.856500	-8.604300	28.950745	0.000205	20.805819
2484.669231	-2.997600	2.853500	-8.553000	28.983218	0.000205	20.801552
2485.673337	-2.995900	2.853100	-8.546300	29.005660	0.000205	20.809464
2486.669212	-3.007900	2.850300	-8.572900	29.008038	0.000205	20.810911
2487.670431	-2.994800	2.850000	-8.534600	29.015815	0.000206	20.813531
2488.669777	-3.042100	2.845500	-8.654500	28.997860	0.000205	20.826261
2489.671052	-2.986500	2.844800	-8.494200	28.969300	0.000206	20.806495
2490.676639	-2.986200	2.843400	-8.489100	28.942374	0.000206	20.814930
2491.672422	-2.996200	2.840200	-8.508700	28.956097	0.000207	20.805522
2492.671522	-3.012500	2.837400	-8.546400	28.957064	0.000204	20.805547
2493.672843	-3.012300	2.835600	-8.540800	28.929346	0.000208	20.814132
2494.669726	-3.001800	2.834700	-8.508400	28.907003	0.000206	20.807270
2495.672956	-2.989100	2.832300	-8.465500	28.847996	0.000204	20.807569
2496.672795	-3.005100	2.829500	-8.501900	28.856392	0.000204	20.821716
2497.672794	-2.999600	2.828000	-8.482200	28.849926	0.000205	20.824212
2498.674292	-3.043900	2.825300	-8.599000	28.841108	0.000204	20.812010
2499.680038	-3.005800	2.823600	-8.486400	28.851116	0.000203	20.816402
2500.677143	-2.982600	2.822100	-8.415100	28.882477	0.000204	20.828081
2501.676825	-2.993900	2.819000	-8.438400	28.925655	0.000205	20.801405
2502.675228	-3.039100	2.815700	-8.555500	28.955106	0.000206	20.819696
2503.674931	-2.995800	2.815500	-8.433600	28.994317	0.000207	20.826959
2504.675646	-2.981700	2.812600	-8.384900	29.031000	0.000207	20.822192
2505.676308	-3.012600	2.808400	-8.459600	29.085513	0.000205	20.810738
2506.679113	-2.995500	2.806500	-8.405000	29.089922	0.000204	20.829879
2507.678173	-3.016800	2.803800	-8.456800	29.093069	0.000208	20.818351
2508.679253	-2.974600	2.802300	-8.333900	29.109983	0.000206	20.830177
2509.677405	-3.006300	2.800100	-8.417300	29.100671	0.000206	20.842131
2510.678183	-2.972800	2.796400	-8.312200	29.124844	0.000205	20.836617
2511.679894	-2.993600	2.794300	-8.363300	29.120980	0.000206	20.820396
2512.683179	-2.999500	2.793200	-8.377200	29.131183	0.000206	20.831625
2513.678730	-3.015100	2.790600	-8.412500	29.146736	0.000206	20.825012
2514.679807	-3.006300	2.786100	-8.375500	29.165707	0.000210	20.822792
2515.679766	-2.999400	2.784300	-8.350500	29.141338	0.000206	20.822892
2516.679224	-3.009700	2.782000	-8.371600	29.128583	0.000205	20.828057
2517.685331	-3.007100	2.780700	-8.360300	29.082170	0.000205	20.827757
2518.682704	-2.989200	2.776700	-8.298500	29.075903	0.000205	20.833770
2519.688648	-2.988900	2.774500	-8.292200	29.125016	0.000206	20.845799
2520.682697	-2.991300	2.772000	-8.290100	29.120507	0.000206	20.845049
2521.681878	-2.959600	2.768800	-8.193100	29.131701	0.000205	20.817923
2522.686833	-3.000300	2.764300	-8.292600	29.139354	0.000203	20.827057
2523.682371	-2.992900	2.762300	-8.266000	29.140047	0.000204	20.827281
2524.680647	-3.006300	2.760400	-8.297100	29.115058	0.000204	20.858524
2525.682652	-3.010800	2.756000	-8.297500	29.105524	0.000204	20.829478
2526.684266	-2.982400	2.752800	-8.208300	29.105425	0.000204	20.835542
2527.685003	-2.984700	2.751000	-8.210200	29.131899	0.000207	20.831398
2528.685798	-3.026200	2.748300	-8.315400	29.115232	0.000201	20.844001
2529.685374	-3.000900	2.745400	-8.238100	29.109733	0.000203	20.839882
2530.686243	-2.955000	2.743000	-8.103200	29.113966	0.000204	20.840829
2531.686800	-2.986700	2.739400	-8.180800	29.153766	0.000205	20.852483
2532.687448	-3.012900	2.733800	-8.236300	29.162777	0.000205	20.847814
2533.689983	-2.983500	2.734200	-8.156500	29.168896	0.000206	20.842600
2534.687105	-2.992600	2.730000	-8.167200	29.163027	0.000205	20.840006
2535.688738	-3.009000	2.725100	-8.199500	29.143684	0.000205	20.847540
2536.691269	-3.004400	2.724000	-8.182100	29.133133	0.000206	20.827426
2537.692659	-2.980300	2.719900	-8.104700	29.154284	0.000205	20.864385
2538.704837	-3.035300	2.715100	-8.240500	29.113419	0.000206	20.837433
2539.694472	-3.005800	2.712600	-8.152400	29.083006	0.000206	20.835712
2540.689839	-2.990300	2.708800	-8.099100	29.071364	0.000205	20.841999
2541.690730	-3.017200	2.704500	-8.158600	29.129665	0.000204	20.858544
2542.690399	-2.997800	2.701500	-8.097700	29.122804	0.000206	20.865380
2543.690061	-3.018400	2.697900	-8.141400	29.070867	0.000207	20.851929
2544.692784	-3.001200	2.695200	-8.088100	29.032082	0.000204	20.844144
2545.691444	-3.017600	2.690200	-8.117500	29.011523	0.000207	20.857094
2546.696473	-3.003400	2.688400	-8.072800	28.951358	0.000205	20.856695
2547.692760	-2.986500	2.684100	-8.015000	28.908330	0.000206	20.858866
2548.693820	-3.008500	2.679800	-8.061200	28.890172	0.000206	20.855745
2549.692369	-2.971100	2.677000	-7.953000	28.865301	0.000204	20.845390
2550.693101	-3.012700	2.671900	-8.048900	28.862875	0.000204	20.855747
2551.692308	-2.999600	2.668200	-8.002900	28.874219	0.000205	20.878554
2552.693813	-3.019900	2.663800	-8.042900	28.903721	0.000206	20.876033
2553.695186	-2.988600	2.660800	-7.951400	28.952148	0.000206	20.871715
2554.692612	-3.007700	2.655800	-7.987300	29.021924	0.000205	20.863306
2555.695507	-2.998100	2.651900	-7.949600	29.057416	0.000205	20.855445
2556.694728	-3.017500	2.647500	-7.987800	29.129488	0.000205	20.851253
2557.695978	-2.994800	2.643200	-7.915500	29.203263	0.000204	20.854946
2558.694559	-3.006900	2.637900	-7.930700	29.247690	0.000202	20.857517
2559.696805	-3.015600	2.634100	-7.942600	29.286393	0.000205	20.869019
2560.696884	-2.996100	2.631900	-7.884100	29.306128	0.000204	20.873735
2561.697024	-3.001200	2.624800	-7.876400	29.320961	0.000205	20.861659
2562.698361	-2.996500	2.621600	-7.854900	29.347753	0.000207	20.859737
2563.694951	-2.990300	2.615600	-7.820500	29.400865	0.000207	20.879128
2564.696806	-3.005000	2.611900	-7.848400	29.403759	0.000205	20.881096
2565.698490	-2.993900	2.605900	-7.801400	29.426018	0.000206	20.867971
2566.698615	-3.015100	2.600200	-7.838700	29.462116	0.000203	20.877802
2567.697425	-3.006400	2.595900	-7.802800	29.439287	0.000206	20.871862
2568.700123	-3.014500	2.590600	-7.808500	29.401284	0.000207	20.868645
2569.699076	-2.974800	2.586100	-7.692100	29.342230	0.000208	20.886411
2570.699723	-2.995100	2.581200	-7.729900	29.312367	0.000206	20.870066
2571.706976	-3.013700	2.574100	-7.756700	29.294490	0.000206	20.870068
2572.699784	-2.987700	2.571200	-7.681100	29.324947	0.000207	20.858089
2573.700923	-3.008300	2.564500	-7.713300	29.341165	0.000206	20.875382
2574.701620	-3.016400	2.557800	-7.714900	29.372115	0.000205	20.869118
2575.702265	-2.997500	2.552500	-7.649400	29.422105	0.000207	20.882992
2576.707047	-2.986700	2.546000	-7.602300	29.479052	0.000206	20.873537
2577.707505	-3.000200	2.541400	-7.624500	29.462957	0.000203	20.890977
2578.705195	-3.013300	2.534300	-7.635700	29.449216	0.000205	20.881869
2579.702550	-3.044500	2.528300	-7.696600	29.449044	0.000207	20.887385
2580.701056	-3.005000	2.522000	-7.577200	29.429879	0.000204	20.885138
2581.701808	-3.016100	2.516800	-7.589800	29.415248	0.000206	20.890305
2582.706783	-3.008400	2.508700	-7.546400	29.407522	0.000205	20.901483
2583.703845	-3.008200	2.503500	-7.529900	29.393113	0.000206	20.889805
2584.704090	-3.038400	2.497500	-7.587900	29.383754	0.000209	20.879425
