LabVIEW Measurement	
Writer_Version	2
Reader_Version	2
Separator	Tab
Decimal_Separator	.
Multi_Headings	No
X_Columns	One
Time_Pref	Absolute
Operator	admin
Description	Clolumns are: time, Current, Voltage, Power, Battery Temp, and Chamber Temp
Date	2024/08/16
Time	13:06:06.104549407958984375
***End_of_Header***	
	
Channels	6						
Samples	1	1	1	1	1	1	
Date	2024/09/16	2024/09/16	2024/09/16	2024/09/16	2024/09/16	2024/09/16	
Time	05:53:36.2621183395385742188	05:53:36.2676153182983398438	05:53:36.2757358551025390625	05:53:36.2463917732238769531	05:53:36.2463917732238769531	05:53:36.2463917732238769531	
X_Dimension	Time	Time	Time	Time	Time	Time	
X0	0.0000000000000000E+0	0.0000000000000000E+0	0.0000000000000000E+0	0.0000000000000000E+0	0.0000000000000000E+0	0.0000000000000000E+0	
Delta_X	1.000000	1.000000	1.000000	1.000000	1.000000	1.000000	
***End_of_Header***							
X_Value	Untitled	Untitled 1	Untitled 2	Untitled 3	Untitled 4	Untitled 5	Comment
0.000000	0.015116	4.090100	0.061727	21.024581	0.000940	20.823562
1.007603	-3.009200	3.908300	-11.760000	20.999984	0.000940	20.778098
2.005118	-3.008000	3.902600	-11.738000	21.010205	0.000940	20.782631
3.008507	-3.002300	3.896000	-11.696000	21.003100	0.000938	20.794491
4.008295	-3.010900	3.892000	-11.717000	20.997559	0.000938	20.790371
5.003967	-3.006600	3.889500	-11.692000	21.012285	0.000936	20.807471
6.014181	-2.992900	3.888400	-11.636000	20.989733	0.000936	20.796294
7.006438	-3.014600	3.884900	-11.710000	21.011460	0.000934	20.799059
8.010021	-2.978500	3.882600	-11.563000	21.022364	0.000933	20.770610
9.008595	-3.011800	3.879400	-11.683000	21.016048	0.000933	20.816449
10.012431	-3.020500	3.876800	-11.709000	20.999061	0.000934	20.804675
11.010409	-3.015800	3.874700	-11.684000	21.011386	0.000931	20.785709
12.009811	-3.014000	3.873600	-11.674000	21.009342	0.000931	20.788406
13.012220	-3.009000	3.872800	-11.653000	21.035194	0.000931	20.780597
14.014530	-2.995000	3.872900	-11.598000	21.036591	0.000931	20.776305
15.012673	-3.026000	3.869400	-11.708000	21.056348	0.000930	20.760030
16.009621	-2.991000	3.870100	-11.575000	21.052887	0.000928	20.785493
17.010566	-2.987900	3.868900	-11.558000	21.033777	0.000929	20.784396
18.007998	-2.995700	3.867600	-11.585000	21.035766	0.000928	20.759359
19.015877	-3.015500	3.865200	-11.655000	21.061642	0.000927	20.784292
20.013223	-2.994600	3.864800	-11.572000	21.046601	0.000926	20.777308
21.010454	-3.005200	3.864400	-11.612000	21.075888	0.000927	20.771514
22.010022	-3.000500	3.864400	-11.593000	21.081280	0.000928	20.760787
23.009472	-2.999300	3.862900	-11.585000	21.080475	0.000926	20.767568
24.008436	-2.992900	3.863200	-11.561000	21.098592	0.000925	20.779052
25.011232	-2.999400	3.861300	-11.580000	21.080357	0.000925	20.778355
26.012650	-3.004200	3.860700	-11.597000	21.100883	0.000923	20.770437
27.012547	-3.004800	3.860300	-11.599000	21.104804	0.000922	20.796645
28.018455	-2.981200	3.860000	-11.506000	21.109297	0.000923	20.757991
29.011281	-3.012700	3.857600	-11.620000	21.127453	0.000923	20.778523
30.015933	-2.999000	3.858000	-11.569000	21.141125	0.000923	20.768965
31.017362	-2.982500	3.856900	-11.502000	21.143723	0.000924	20.772512
32.015323	-3.002300	3.856800	-11.578000	21.131903	0.000922	20.754998
33.017927	-3.012200	3.855600	-11.611000	21.141229	0.000922	20.770966
34.021151	-2.997900	3.856500	-11.560000	21.182492	0.000922	20.773362
35.020177	-3.018700	3.853400	-11.630000	21.147737	0.000924	20.770363
36.014648	-3.019000	3.853900	-11.635000	21.181662	0.000921	20.749771
37.015842	-2.984300	3.854600	-11.502000	21.162283	0.000921	20.775905
38.015452	-3.009200	3.853000	-11.593000	21.183164	0.000923	20.760282
39.015417	-3.001600	3.852500	-11.563000	21.181791	0.000921	20.758909
40.025597	-3.013000	3.851800	-11.604000	21.193419	0.000921	20.766748
41.019301	-3.005300	3.851800	-11.575000	21.196386	0.000922	20.768294
42.019855	-2.995600	3.851400	-11.536000	21.211228	0.000920	20.765597
43.022049	-2.995800	3.851700	-11.538000	21.220105	0.000921	20.760726
44.024391	-3.001500	3.851600	-11.559000	21.195290	0.000920	20.762456
45.020455	-3.000200	3.850600	-11.550000	21.233154	0.000922	20.777100
46.027376	-3.026300	3.847100	-11.642000	21.233776	0.000921	20.761127
47.021493	-2.962500	3.850600	-11.406000	21.234995	0.000922	20.752863
48.025490	-3.004600	3.848300	-11.562000	21.255677	0.000922	20.757432
49.023966	-2.979700	3.850200	-11.469000	21.258738	0.000921	20.763338
50.023023	-2.992200	3.849400	-11.517000	21.268899	0.000922	20.735096
51.024872	-2.988100	3.848700	-11.498000	21.276507	0.000921	20.769736
52.021121	-2.994500	3.846900	-11.518000	21.266702	0.000920	20.779841
53.022835	-3.010400	3.846500	-11.577000	21.268272	0.000920	20.752962
54.028828	-3.000800	3.847300	-11.543000	21.290646	0.000921	20.762544
55.026554	-3.021700	3.845500	-11.619000	21.315415	0.000921	20.762193
56.025471	-3.031700	3.843700	-11.651000	21.318560	0.000921	20.751114
57.027536	-3.006000	3.845000	-11.557000	21.334871	0.000922	20.765062
58.027685	-2.999500	3.845400	-11.533000	21.349716	0.000923	20.752888
59.027765	-3.014600	3.843500	-11.586000	21.314590	0.000922	20.758523
60.027457	-3.007500	3.843300	-11.556000	21.353354	0.000921	20.744673
61.026056	-3.013200	3.843500	-11.580000	21.336693	0.000918	20.772101
62.027581	-2.979100	3.843400	-11.449000	21.351932	0.000922	20.759847
63.028095	-2.990700	3.843800	-11.495000	21.370834	0.000921	20.772594
64.027997	-2.985800	3.844100	-11.476000	21.380989	0.000922	20.738657
65.028975	-2.990900	3.843700	-11.495000	21.387797	0.000922	20.741675
66.029035	-3.009000	3.841200	-11.557000	21.396648	0.000922	20.752901
67.030072	-3.007800	3.842000	-11.553000	21.395601	0.000923	20.736681
68.030246	-2.995100	3.842600	-11.508000	21.409646	0.000920	20.750733
69.031568	-3.006200	3.840700	-11.544000	21.413363	0.000922	20.724579
70.034364	-3.012400	3.841000	-11.568000	21.397743	0.000922	20.753524
71.030117	-2.991800	3.842100	-11.493000	21.435754	0.000924	20.743665
72.030840	-2.987600	3.840800	-11.474000	21.430517	0.000921	20.739372
73.033717	-3.015900	3.839600	-11.578000	21.456126	0.000922	20.748875
74.031141	-2.992800	3.839900	-11.491000	21.448568	0.000922	20.747003
75.032686	-2.992000	3.840400	-11.489000	21.468170	0.000921	20.731054
76.035335	-2.973200	3.840000	-11.416000	21.475807	0.000921	20.749127
77.030345	-3.011600	3.839000	-11.560000	21.462957	0.000922	20.734847
78.030652	-3.022300	3.837900	-11.598000	21.482682	0.000923	20.730876
79.030532	-3.029600	3.838000	-11.626000	21.496696	0.000922	20.747269
80.033994	-3.001500	3.838000	-11.518000	21.488270	0.000923	20.740735
81.032229	-2.979100	3.838400	-11.433000	21.506203	0.000923	20.761050
82.035247	-2.985200	3.838600	-11.458000	21.523256	0.000922	20.744449
83.032077	-3.013000	3.837200	-11.560000	21.520709	0.000923	20.734313
84.031871	-2.992800	3.837900	-11.485000	21.526993	0.000923	20.724478
85.033460	-3.007000	3.835500	-11.530000	21.529712	0.000923	20.734787
86.033548	-2.992100	3.835900	-11.477000	21.545399	0.000925	20.736259
87.035516	-2.999800	3.834800	-11.502000	21.549110	0.000925	20.738550
88.033329	-2.987300	3.836300	-11.458000	21.553024	0.000923	20.725871
89.032814	-2.995500	3.835200	-11.487000	21.565289	0.000924	20.724868
90.033292	-2.982300	3.835600	-11.436000	21.566760	0.000925	20.729659
91.035369	-3.000200	3.836000	-11.508000	21.574810	0.000924	20.723489
92.033573	-2.975700	3.836000	-11.413000	21.613313	0.000923	20.735467
93.034946	-3.009000	3.835100	-11.539000	21.606231	0.000924	20.740707
94.034096	-2.998400	3.834200	-11.496000	21.596897	0.000924	20.725676
95.035187	-3.013300	3.833400	-11.548000	21.595998	0.000925	20.720510
96.037154	-2.991100	3.833100	-11.463000	21.616288	0.000924	20.752669
97.034123	-2.990600	3.833100	-11.462000	21.630705	0.000927	20.730585
98.034538	-3.017700	3.833200	-11.565000	21.633616	0.000925	20.705522
99.036630	-2.996600	3.832800	-11.484000	21.658955	0.000926	20.720449
100.038224	-3.002200	3.831600	-11.502000	21.648871	0.000926	20.734541
101.035158	-2.983600	3.832400	-11.433000	21.659191	0.000927	20.707408
102.037497	-2.993400	3.831800	-11.470000	21.673977	0.000927	20.744019
103.038823	-2.993600	3.833200	-11.474000	21.674366	0.000927	20.732080
104.036942	-3.007500	3.832500	-11.525000	21.670157	0.000927	20.715064
105.043324	-2.992700	3.832700	-11.470000	21.676108	0.000928	20.727659
106.037014	-3.008000	3.831700	-11.524000	21.695835	0.000927	20.739815
107.041094	-2.964200	3.832000	-11.357000	21.698020	0.000929	20.723509
108.040259	-3.006200	3.831300	-11.515000	21.696870	0.000928	20.743696
109.043390	-2.999600	3.831600	-11.492000	21.709884	0.000929	20.747237
110.039100	-3.001800	3.830900	-11.499000	21.715071	0.000931	20.730142
111.043544	-3.013700	3.828800	-11.537000	21.708156	0.000927	20.724170
112.041499	-3.005500	3.829200	-11.507000	21.708126	0.000928	20.711337
113.040224	-3.013900	3.829300	-11.540000	21.720598	0.000932	20.735199
114.047114	-3.016900	3.828100	-11.548000	21.714636	0.000931	20.717852
115.044336	-3.014000	3.828700	-11.538000	21.735373	0.000932	20.737658
116.045583	-3.011200	3.828100	-11.525000	21.734647	0.000930	20.703265
117.041347	-3.010800	3.827800	-11.523000	21.759954	0.000930	20.722904
118.039510	-3.011100	3.828400	-11.527000	21.766709	0.000933	20.714492
119.040064	-3.000800	3.828000	-11.486000	21.765885	0.000932	20.719357
120.040421	-3.038800	3.827100	-11.628000	21.768569	0.000932	20.716828
121.045323	-2.986400	3.827700	-11.430000	21.784849	0.000933	20.716052
122.043555	-3.005300	3.825900	-11.496000	21.779959	0.000932	20.695508
123.042994	-2.989600	3.828900	-11.445000	21.804637	0.000934	20.745816
124.043107	-3.006000	3.825900	-11.499000	21.821618	0.000934	20.713498
125.046453	-3.009400	3.826600	-11.514000	21.842309	0.000931	20.719509
126.046061	-3.003900	3.825600	-11.491000	21.837689	0.000933	20.709669
127.046567	-3.010100	3.826000	-11.516000	21.842229	0.000933	20.719903
128.046706	-3.012000	3.826100	-11.523000	21.841380	0.000936	20.716683
129.046922	-2.997900	3.825700	-11.467000	21.861123	0.000937	20.705623
130.045905	-3.006000	3.824600	-11.496000	21.858202	0.000936	20.710286
131.046314	-2.979500	3.825000	-11.395000	21.872788	0.000936	20.709713
132.048250	-3.016400	3.823600	-11.533000	21.873054	0.000937	20.698598
133.045495	-2.985600	3.824800	-11.418000	21.872561	0.000937	20.707589
134.051089	-3.013300	3.824100	-11.523000	21.869087	0.000936	20.718810
135.049907	-2.983600	3.824000	-11.407000	21.901348	0.000937	20.727869
136.047924	-3.018100	3.823300	-11.538000	21.878087	0.000937	20.713120
137.050447	-3.014500	3.823700	-11.525000	21.892668	0.000937	20.700213
138.047784	-3.021200	3.822200	-11.547000	21.901313	0.000938	20.724989
139.049087	-3.021600	3.822900	-11.550000	21.903016	0.000938	20.724797
140.052845	-3.000900	3.823400	-11.473000	21.896600	0.000938	20.718849
141.051276	-3.031500	3.821900	-11.585000	21.917665	0.000939	20.731874
142.047891	-3.011600	3.822400	-11.511000	21.921050	0.000940	20.722459
143.050742	-3.005200	3.821500	-11.483000	21.916589	0.000940	20.721314
144.049407	-2.995500	3.822300	-11.448000	21.901707	0.000943	20.706891
145.051740	-3.020100	3.820900	-11.538000	21.918465	0.000941	20.699956
146.050457	-3.031300	3.821300	-11.582000	21.932295	0.000940	20.706688
147.058077	-2.981300	3.822400	-11.395000	21.957770	0.000941	20.723180
148.053761	-3.006000	3.821200	-11.486000	21.962309	0.000944	20.691686
149.056499	-3.010100	3.820600	-11.500000	21.976919	0.000941	20.715796
150.054918	-2.984400	3.820200	-11.400000	21.996433	0.000943	20.720631
151.055206	-2.991100	3.821100	-11.427000	22.020195	0.000943	20.697475
152.059523	-2.992500	3.819600	-11.430000	21.993842	0.000945	20.700493
153.058959	-2.991300	3.818600	-11.422000	22.032731	0.000944	20.721881
154.055859	-3.001200	3.819400	-11.461000	22.028745	0.000944	20.702242
155.057468	-3.006000	3.819700	-11.481000	22.059176	0.000945	20.710896
156.056999	-3.017600	3.817500	-11.519000	22.042949	0.000945	20.705082
157.059195	-3.000800	3.819400	-11.460000	22.039135	0.000945	20.707428
158.059015	-3.012800	3.817400	-11.500000	22.051099	0.000946	20.715613
159.057106	-3.016600	3.817800	-11.515000	22.057109	0.000949	20.693178
160.055634	-3.007700	3.816600	-11.478000	22.074031	0.000947	20.701585
161.058836	-3.017100	3.817100	-11.515000	22.067726	0.000948	20.704756
162.057593	-3.006500	3.818900	-11.480000	22.077272	0.000947	20.718107
163.061207	-3.038700	3.815700	-11.594000	22.102749	0.000947	20.698567
164.054789	-3.002600	3.816100	-11.457000	22.086025	0.000947	20.703635
165.054202	-2.980200	3.817700	-11.376000	22.083701	0.000948	20.688979
166.062149	-2.999500	3.815900	-11.444000	22.079315	0.000950	20.732006
167.062528	-3.011200	3.815700	-11.489000	22.098142	0.000950	20.697747
168.057210	-2.995800	3.815400	-11.428000	22.094846	0.000950	20.702508
169.055837	-2.992500	3.814600	-11.414000	22.121072	0.000950	20.724025
170.056638	-2.991800	3.814400	-11.411000	22.122187	0.000951	20.708070
171.055192	-3.017900	3.815200	-11.511000	22.133583	0.000952	20.688658
172.057347	-2.995500	3.814900	-11.426000	22.155309	0.000953	20.699979
173.058799	-3.010900	3.814200	-11.483000	22.163765	0.000952	20.713661
174.058127	-2.995300	3.814300	-11.424000	22.145590	0.000953	20.694042
175.053826	-3.011400	3.814600	-11.486000	22.157233	0.000952	20.692896
176.059067	-3.014300	3.813000	-11.493000	22.160193	0.000956	20.702972
177.058691	-2.997500	3.813300	-11.429000	22.168742	0.000955	20.691142
178.056005	-2.986300	3.812500	-11.384000	22.185372	0.000956	20.710638
179.057134	-3.002700	3.813400	-11.448000	22.196807	0.000955	20.705491
180.057639	-3.022500	3.811900	-11.520000	22.195011	0.000957	20.715548
181.059413	-2.998200	3.812800	-11.431000	22.200116	0.000958	20.709279
182.056614	-2.989300	3.812800	-11.397000	22.191770	0.000958	20.699499
183.057985	-3.007400	3.811100	-11.460000	22.220534	0.000957	20.725456
184.053683	-2.974400	3.813400	-11.340000	22.242713	0.000958	20.688390
185.057947	-3.004200	3.811000	-11.448000	22.232965	0.000959	20.711349
186.060878	-3.000400	3.811700	-11.436000	22.233784	0.000958	20.704581
187.058559	-2.991800	3.812900	-11.406000	22.261176	0.000959	20.706878
188.053683	-2.995100	3.812200	-11.417000	22.262996	0.000961	20.707278
189.057541	-3.003800	3.811100	-11.446000	22.263440	0.000959	20.701084
190.060360	-2.986800	3.811400	-11.384000	22.270568	0.000962	20.699686
191.057186	-3.002300	3.809100	-11.435000	22.274277	0.000960	20.685855
192.063601	-3.004800	3.810500	-11.448000	22.280428	0.000962	20.719518
193.057250	-3.012200	3.810100	-11.476000	22.327436	0.000962	20.695463
194.054974	-2.989300	3.810600	-11.389000	22.300513	0.000962	20.714025
195.061189	-3.019500	3.809100	-11.499000	22.323070	0.000964	20.715275
196.060838	-3.011100	3.808700	-11.467000	22.331963	0.000964	20.705213
197.055474	-3.006500	3.807900	-11.447000	22.328126	0.000963	20.716070
198.056292	-2.996100	3.809700	-11.413000	22.304543	0.000965	20.716163
199.061008	-2.975600	3.809900	-11.336000	22.344546	0.000964	20.715442
200.059915	-2.997900	3.808100	-11.416000	22.334824	0.000965	20.711871
201.061999	-3.013400	3.807600	-11.473000	22.314309	0.000966	20.722149
202.056751	-3.001000	3.808000	-11.426000	22.316080	0.000966	20.720129
203.057795	-3.007800	3.806400	-11.447000	22.306155	0.000967	20.716829
204.056772	-2.992400	3.808300	-11.395000	22.328633	0.000965	20.732225
205.062806	-2.980100	3.808300	-11.348000	22.359411	0.000968	20.714681
206.056509	-3.006000	3.806200	-11.441000	22.324845	0.000968	20.715155
207.062952	-2.993000	3.806500	-11.392000	22.347568	0.000970	20.703769
208.060077	-2.986800	3.807700	-11.372000	22.358281	0.000968	20.719239
209.059123	-2.989300	3.805300	-11.374000	22.394815	0.000969	20.707459
210.065032	-3.003000	3.805100	-11.425000	22.365483	0.000970	20.722657
211.059309	-2.998600	3.805200	-11.409000	22.376945	0.000971	20.718014
212.060320	-2.994700	3.805700	-11.395000	22.375470	0.000970	20.726495
213.060333	-2.973700	3.805900	-11.315000	22.371288	0.000972	20.709504
214.062978	-2.991000	3.805700	-11.383000	22.403278	0.000973	20.718779
215.059719	-3.016100	3.804200	-11.472000	22.383071	0.000973	20.718933
216.063544	-3.002100	3.803700	-11.418000	22.379756	0.000975	20.735529
217.072162	-2.985100	3.805900	-11.359000	22.403599	0.000973	20.725265
218.061388	-3.004100	3.803500	-11.425000	22.421044	0.000974	20.701955
219.068963	-3.011300	3.804400	-11.456000	22.415362	0.000974	20.734200
220.074533	-3.001000	3.802300	-11.410000	22.426000	0.000975	20.714032
221.062638	-3.010700	3.801500	-11.443000	22.414533	0.000975	20.734318
222.072035	-3.006100	3.802700	-11.429000	22.408333	0.000977	20.732852
223.064682	-2.985900	3.802900	-11.354000	22.433719	0.000976	20.726978
224.064533	-3.021400	3.800900	-11.482000	22.442118	0.000977	20.723061
225.064992	-3.010200	3.803000	-11.447000	22.456292	0.000978	20.732041
226.066397	-2.998100	3.802500	-11.399000	22.468657	0.000979	20.723560
227.067471	-2.997000	3.802100	-11.393000	22.490179	0.000979	20.711923
228.061985	-2.971300	3.802000	-11.296000	22.483126	0.000979	20.726672
229.070870	-3.009000	3.800500	-11.434000	22.487940	0.000980	20.713000
230.068167	-2.991800	3.802200	-11.374000	22.488852	0.000980	20.736199
231.068075	-3.023500	3.799400	-11.486000	22.525307	0.000981	20.750425
232.068202	-3.011100	3.800900	-11.444000	22.515168	0.000979	20.721777
233.065772	-2.996700	3.800400	-11.387000	22.529243	0.000983	20.738244
234.068833	-2.993900	3.799700	-11.374000	22.539658	0.000982	20.738244
235.066090	-2.988600	3.799400	-11.353000	22.544067	0.000982	20.749298
236.070635	-2.996000	3.799300	-11.381000	22.548353	0.000983	20.750746
237.074330	-2.992900	3.799700	-11.371000	22.547381	0.000984	20.725589
238.072693	-2.994800	3.799000	-11.375000	22.569454	0.000984	20.732050
239.067617	-2.993700	3.797700	-11.369000	22.572270	0.000982	20.727284
240.071158	-2.997600	3.798600	-11.385000	22.592499	0.000985	20.724784
241.074255	-2.990500	3.798200	-11.357000	22.640361	0.000985	20.719143
242.068524	-2.985600	3.798500	-11.339000	22.617535	0.000987	20.749861
243.075929	-2.983500	3.798000	-11.329000	22.628329	0.000987	20.736490
244.072199	-2.982600	3.797700	-11.326000	22.627580	0.000988	20.738110
245.075646	-2.997100	3.796800	-11.377000	22.644474	0.000988	20.728953
246.070693	-3.039700	3.796000	-11.537000	22.678528	0.000988	20.712801
247.073399	-2.999500	3.797400	-11.389000	22.681762	0.000988	20.724576
248.069370	-2.994000	3.795700	-11.363000	22.699277	0.000990	20.741173
249.069523	-2.986800	3.796200	-11.337000	22.693952	0.000989	20.744373
250.071171	-2.994800	3.795300	-11.365000	22.690209	0.000989	20.742521
251.069221	-2.988900	3.796300	-11.346000	22.696639	0.000992	20.739478
252.072368	-2.979100	3.795800	-11.306000	22.719853	0.000991	20.753249
253.076340	-3.003800	3.795600	-11.400000	22.730795	0.000991	20.752829
254.073997	-3.007600	3.794000	-11.410000	22.757021	0.000993	20.750651
255.074188	-2.982300	3.795800	-11.320000	22.741031	0.000991	20.732736
256.076909	-2.992700	3.794900	-11.355000	22.750147	0.000992	20.746136
257.077439	-3.001900	3.794800	-11.391000	22.762829	0.000993	20.745564
258.074507	-2.990300	3.793700	-11.343000	22.772671	0.000993	20.746413
259.073663	-2.998100	3.791700	-11.366000	22.803210	0.000994	20.733857
260.074860	-2.991800	3.792600	-11.346000	22.806671	0.000993	20.731634
261.076398	-2.988800	3.793800	-11.338000	22.782808	0.000994	20.761310
262.075834	-3.003200	3.792700	-11.388000	22.786772	0.000995	20.735408
263.078091	-3.008400	3.792200	-11.407000	22.789385	0.000995	20.738974
264.073376	-3.000100	3.793200	-11.378000	22.798679	0.000996	20.730741
265.077713	-3.000500	3.790800	-11.373000	22.814417	0.000997	20.735601
266.078743	-3.024600	3.790700	-11.463000	22.801514	0.000998	20.739271
267.076311	-3.004000	3.791300	-11.388000	22.825486	0.000998	20.723455
268.082730	-3.028500	3.789700	-11.476000	22.832008	0.000998	20.766501
269.080938	-3.006700	3.790600	-11.396000	22.822562	0.001000	20.744709
270.073967	-3.014900	3.790200	-11.426000	22.843510	0.001000	20.756686
271.077548	-3.032600	3.789400	-11.489000	22.837757	0.000999	20.740491
272.079752	-3.001000	3.789000	-11.370000	22.821837	0.001000	20.758208
273.077441	-2.990600	3.790000	-11.333000	22.846325	0.000999	20.762352
274.083035	-2.984700	3.789800	-11.310000	22.846744	0.001000	20.744753
275.080314	-2.984100	3.790800	-11.311000	22.862013	0.001003	20.748670
276.083746	-2.991900	3.789800	-11.336000	22.854016	0.001002	20.759151
277.079538	-2.997900	3.789000	-11.357000	22.871523	0.001005	20.746343
278.084732	-3.037100	3.787700	-11.503000	22.872623	0.001005	20.757402
279.078206	-2.997200	3.788600	-11.353000	22.874141	0.001003	20.751811
280.083803	-2.996500	3.789200	-11.353000	22.856506	0.001005	20.750739
281.078514	-3.007900	3.787600	-11.392000	22.849278	0.001004	20.763413
282.078194	-2.998200	3.787500	-11.355000	22.864798	0.001003	20.746719
283.082381	-2.979900	3.788400	-11.289000	22.847656	0.001004	20.750882
284.079039	-3.023400	3.784400	-11.440000	22.866292	0.001005	20.753905
285.081481	-2.992400	3.785600	-11.328000	22.876379	0.001005	20.768753
286.081159	-2.993700	3.785800	-11.332000	22.888206	0.001006	20.752626
287.082854	-3.006100	3.785900	-11.379000	22.928607	0.001007	20.763704
288.083966	-3.004500	3.786200	-11.374000	22.922909	0.001008	20.779806
289.083551	-3.006000	3.784600	-11.376000	22.924446	0.001009	20.755268
290.080852	-2.992100	3.785800	-11.326000	22.932768	0.001008	20.754122
291.081537	-2.973300	3.785200	-11.253000	22.951201	0.001009	20.749830
292.085066	-2.997200	3.784300	-11.340000	22.973621	0.001011	20.754750
293.083604	-2.968600	3.785300	-11.236000	22.975337	0.001010	20.758839
294.086390	-2.988600	3.783700	-11.307000	22.989953	0.001010	20.765423
295.085513	-3.010200	3.783900	-11.389000	22.987759	0.001009	20.758009
296.089082	-2.988100	3.783100	-11.303000	23.006087	0.001010	20.767364
297.086307	-3.012900	3.783700	-11.399000	23.005392	0.001011	20.757184
298.087491	-3.022200	3.782500	-11.429000	23.023720	0.001012	20.768910
299.087131	-3.025600	3.782400	-11.443000	23.026584	0.001013	20.757080
300.088242	-3.002400	3.782900	-11.357000	23.064791	0.001013	20.773553
301.085192	-3.020400	3.781000	-11.419000	23.056121	0.001011	20.758226
302.086064	-2.993000	3.782200	-11.319000	23.061425	0.001014	20.758799
303.088681	-3.000200	3.782400	-11.347000	23.092183	0.001013	20.775395
304.089071	-2.995600	3.782400	-11.330000	23.066452	0.001014	20.768579
305.087615	-3.008100	3.781500	-11.375000	23.061740	0.001014	20.756270
306.096760	-3.016000	3.780000	-11.399000	23.049461	0.001015	20.761510
307.089626	-2.987800	3.781300	-11.296000	23.044803	0.001015	20.760162
308.092566	-3.032900	3.778600	-11.459000	23.059068	0.001017	20.764024
309.093017	-3.003800	3.778900	-11.348000	23.063307	0.001016	20.791980
310.087462	-2.984700	3.780100	-11.281000	23.054730	0.001018	20.777222
311.095847	-3.004000	3.780200	-11.354000	23.032642	0.001018	20.785910
312.089046	-3.021400	3.779400	-11.418000	23.083615	0.001019	20.769181
313.091125	-2.997500	3.779200	-11.327000	23.052058	0.001018	20.789718
314.093391	-2.982000	3.780600	-11.272000	23.058831	0.001018	20.773270
315.091704	-3.013100	3.777700	-11.381000	23.086947	0.001019	20.779158
316.093422	-3.003700	3.778000	-11.346000	23.108837	0.001019	20.767427
317.093134	-2.995900	3.778300	-11.318000	23.135927	0.001020	20.765649
318.091741	-2.997000	3.777000	-11.318000	23.123023	0.001021	20.764572
319.091026	-3.005900	3.777700	-11.354000	23.162617	0.001020	20.766315
320.087937	-2.983400	3.777900	-11.270000	23.159926	0.001021	20.786852
321.089481	-3.003300	3.775700	-11.338000	23.148170	0.001021	20.790720
322.087512	-3.020200	3.775700	-11.401000	23.149284	0.001022	20.789939
323.091533	-2.986700	3.776100	-11.276000	23.134014	0.001023	20.784121
324.088017	-2.998800	3.774600	-11.319000	23.163272	0.001023	20.786412
325.088864	-2.986300	3.776000	-11.275000	23.180178	0.001025	20.790551
326.093007	-2.985000	3.776200	-11.270000	23.182193	0.001025	20.814856
327.094458	-2.982000	3.776600	-11.262000	23.177457	0.001023	20.791618
328.096275	-3.015700	3.774600	-11.381000	23.209232	0.001025	20.790744
329.094409	-2.990400	3.775900	-11.289000	23.211174	0.001024	20.774672
330.104775	-2.995800	3.774100	-11.306000	23.238089	0.001027	20.788368
331.089013	-2.980400	3.774400	-11.248000	23.207507	0.001024	20.789015
332.090769	-3.013200	3.773200	-11.369000	23.219415	0.001026	20.790042
333.091133	-2.963700	3.774300	-11.184000	23.234225	0.001026	20.799668
334.095518	-3.005200	3.772100	-11.335000	23.235620	0.001026	20.796325
335.096290	-2.995000	3.773200	-11.299000	23.226649	0.001028	20.807250
336.094665	-3.008000	3.772300	-11.346000	23.226970	0.001027	20.800933
337.093403	-2.998400	3.772300	-11.309000	23.248010	0.001028	20.814905
338.106136	-3.005100	3.773700	-11.339000	23.254136	0.001027	20.802078
339.094375	-3.001800	3.771700	-11.321000	23.250676	0.001029	20.806198
340.096307	-3.004800	3.770400	-11.328000	23.267758	0.001028	20.811463
341.098172	-3.021100	3.771100	-11.392000	23.301669	0.001029	20.811309
342.093307	-3.031100	3.768900	-11.423000	23.286929	0.001031	20.793692
343.099398	-3.004300	3.769600	-11.324000	23.313270	0.001030	20.800651
344.100360	-2.993800	3.769700	-11.284000	23.320140	0.001029	20.816071
345.099016	-3.004100	3.768900	-11.321000	23.340858	0.001031	20.789419
346.099728	-3.001300	3.769200	-11.312000	23.355124	0.001031	20.808459
347.102095	-3.019500	3.768000	-11.377000	23.351014	0.001031	20.810504
348.100040	-3.019000	3.769400	-11.379000	23.333357	0.001031	20.810825
349.099554	-3.006300	3.767400	-11.324000	23.328478	0.001032	20.801668
350.104042	-3.005300	3.767200	-11.321000	23.339631	0.001032	20.792931
351.099429	-3.005000	3.768100	-11.322000	23.354893	0.001033	20.816762
352.100184	-3.002100	3.767900	-11.311000	23.337664	0.001034	20.819409
353.100779	-3.029800	3.766400	-11.410000	23.354720	0.001034	20.799045
354.097832	-3.002600	3.766900	-11.310000	23.365074	0.001033	20.807526
355.099136	-2.988500	3.768300	-11.261000	23.401101	0.001035	20.813290
356.105077	-2.983500	3.766600	-11.236000	23.412824	0.001035	20.804177
357.099153	-3.019300	3.764600	-11.366000	23.416259	0.001035	20.829904
358.097876	-2.997300	3.765800	-11.286000	23.422655	0.001034	20.813082
359.103670	-2.985900	3.766500	-11.245000	23.409508	0.001036	20.825509
360.103642	-2.994300	3.764600	-11.271000	23.396435	0.001035	20.832794
361.111198	-3.004700	3.766600	-11.316000	23.401338	0.001035	20.822061
362.100714	-2.988200	3.765400	-11.251000	23.417594	0.001036	20.847363
363.101791	-3.001800	3.764900	-11.300000	23.438261	0.001035	20.831569
364.107615	-2.997900	3.765000	-11.286000	23.420526	0.001037	20.828966
365.100373	-2.995500	3.765200	-11.277000	23.441641	0.001037	20.825948
366.107213	-2.990100	3.764800	-11.254000	23.416993	0.001039	20.811200
367.105330	-3.015700	3.762400	-11.345000	23.418585	0.001041	20.823227
368.102468	-3.003800	3.763400	-11.303000	23.425976	0.001040	20.811195
369.101979	-2.996000	3.762500	-11.271000	23.413701	0.001038	20.808375
370.105177	-2.977800	3.762900	-11.204000	23.437004	0.001039	20.824145
371.104560	-2.990100	3.761600	-11.246000	23.436679	0.001040	20.815759
372.106894	-3.024600	3.761500	-11.376000	23.447135	0.001038	20.808222
373.103453	-3.021600	3.761600	-11.365000	23.410134	0.001041	20.827084
374.103821	-2.990000	3.761300	-11.246000	23.432545	0.001039	20.828684
375.109398	-2.987900	3.761100	-11.237000	23.460602	0.001041	20.813186
376.111607	-2.990700	3.760700	-11.246000	23.445036	0.001041	20.814652
377.109651	-3.002000	3.759900	-11.286000	23.488058	0.001039	20.833119
378.108493	-3.008000	3.759200	-11.306000	23.479691	0.001041	20.843698
379.111431	-3.016900	3.759200	-11.340000	23.479514	0.001042	20.841150
380.110337	-2.999500	3.758200	-11.272000	23.470551	0.001042	20.833114
381.113574	-3.008400	3.759400	-11.309000	23.483274	0.001041	20.827849
382.106779	-3.014100	3.758400	-11.326000	23.485506	0.001043	20.827242
383.111733	-2.984400	3.758000	-11.214000	23.466363	0.001044	20.837451
384.110331	-3.007000	3.756800	-11.296000	23.481322	0.001045	20.846755
385.109061	-3.005200	3.757900	-11.292000	23.483411	0.001043	20.815660
386.113801	-2.973200	3.758500	-11.174000	23.508635	0.001042	20.812968
387.119719	-2.988200	3.758100	-11.229000	23.499588	0.001044	20.838038
388.116134	-3.018800	3.755700	-11.337000	23.488038	0.001044	20.836418
389.115692	-3.017400	3.756800	-11.334000	23.500238	0.001045	20.829207
390.115314	-3.015300	3.756300	-11.325000	23.476035	0.001045	20.851413
391.110947	-2.998800	3.756000	-11.262000	23.492709	0.001045	20.836833
392.115966	-2.991100	3.756000	-11.233000	23.468191	0.001047	20.843550
393.118073	-3.014100	3.754100	-11.314000	23.489674	0.001045	20.852282
394.115802	-2.988700	3.754600	-11.220000	23.511956	0.001044	20.836685
395.113806	-2.987800	3.756400	-11.222000	23.509339	0.001044	20.846390
396.115922	-2.979300	3.755800	-11.188000	23.504308	0.001046	20.820959
397.112153	-3.000100	3.753800	-11.261000	23.510778	0.001047	20.853996
398.115341	-2.989800	3.753400	-11.220000	23.522603	0.001046	20.843565
399.117526	-3.008300	3.753500	-11.291000	23.548668	0.001047	20.826545
400.112540	-3.004400	3.753700	-11.277000	23.536168	0.001047	20.824446
401.113573	-3.008700	3.753600	-11.292000	23.531187	0.001044	20.814237
402.121669	-2.996700	3.752800	-11.245000	23.520435	0.001047	20.827642
403.114407	-2.991500	3.752700	-11.225000	23.534926	0.001047	20.830788
404.117193	-2.997100	3.752700	-11.247000	23.544983	0.001044	20.810997
405.115305	-2.992100	3.752700	-11.227000	23.531438	0.001048	20.811170
406.116143	-3.013500	3.751600	-11.304000	23.530137	0.001047	20.805599
407.113688	-3.022000	3.750800	-11.334000	23.502480	0.001048	20.806799
408.117297	-3.019400	3.749700	-11.320000	23.530068	0.001049	20.806952
409.116417	-2.998100	3.751200	-11.245000	23.534394	0.001049	20.834047
410.115389	-2.992300	3.750600	-11.221000	23.519386	0.001049	20.800037
411.114646	-2.986400	3.750600	-11.199000	23.519957	0.001050	20.805352
412.116821	-2.991100	3.748900	-11.212000	23.570968	0.001049	20.802907
413.118309	-2.992100	3.750300	-11.221000	23.565391	0.001048	20.800635
414.120858	-2.999400	3.749000	-11.243000	23.571510	0.001050	20.817201
415.122916	-2.981400	3.750200	-11.179000	23.542864	0.001048	20.803658
416.116386	-3.011500	3.748500	-11.287000	23.550777	0.001049	20.795943
417.123578	-2.995300	3.748600	-11.226000	23.541667	0.001049	20.813837
418.115527	-3.009600	3.748300	-11.280000	23.524067	0.001049	20.804255
419.118026	-2.994500	3.747200	-11.219000	23.498942	0.001050	20.819848
420.117308	-3.009600	3.746300	-11.272000	23.493990	0.001049	20.807772
421.115961	-2.988100	3.748300	-11.198000	23.527777	0.001051	20.793276
422.120873	-2.994100	3.747200	-11.219000	23.552748	0.001050	20.805505
423.122754	-3.008900	3.745600	-11.269000	23.601387	0.001053	20.793572
424.122755	-3.001800	3.747300	-11.247000	23.622849	0.001050	20.796121
425.121819	-2.999000	3.746600	-11.235000	23.603777	0.001051	20.792174
426.128044	-2.993200	3.745300	-11.208000	23.646123	0.001050	20.800013
427.121853	-3.001300	3.745200	-11.238000	23.653113	0.001053	20.799435
428.121930	-2.993200	3.744300	-11.205000	23.646349	0.001052	20.786489
429.120357	-2.997400	3.746100	-11.227000	23.651424	0.001052	20.797267
430.128258	-2.987200	3.745300	-11.187000	23.675919	0.001053	20.792426
431.119197	-3.006500	3.743100	-11.253000	23.671214	0.001051	20.772536
432.125338	-3.016800	3.742400	-11.289000	23.667627	0.001055	20.794545
433.125755	-3.004000	3.742700	-11.242000	23.692492	0.001054	20.783437
434.121955	-2.989900	3.741900	-11.186000	23.700083	0.001054	20.784410
435.127653	-3.018300	3.741900	-11.293000	23.703221	0.001052	20.779496
436.123293	-2.988600	3.741500	-11.182000	23.685200	0.001052	20.790826
437.124227	-3.003600	3.741900	-11.238000	23.692782	0.001054	20.792737
438.132950	-2.981800	3.741800	-11.157000	23.696625	0.001053	20.788055
439.124092	-2.988900	3.742500	-11.185000	23.695649	0.001051	20.783758
440.122638	-2.985400	3.741800	-11.169000	23.672800	0.001052	20.791196
441.128713	-2.974200	3.742100	-11.128000	23.690496	0.001053	20.776695
442.121404	-3.018300	3.739200	-11.284000	23.710109	0.001055	20.775969
443.124497	-2.983900	3.740100	-11.159000	23.688004	0.001055	20.766609
444.125236	-3.003700	3.739600	-11.230000	23.689097	0.001053	20.797104
445.124768	-2.988600	3.740600	-11.177000	23.733799	0.001055	20.776962
446.127566	-3.004300	3.739900	-11.235000	23.771485	0.001053	20.764959
447.130816	-2.997600	3.738900	-11.207000	23.772756	0.001055	20.774769
448.131436	-3.005600	3.738000	-11.234000	23.792239	0.001054	20.777708
449.130650	-3.012400	3.737700	-11.257000	23.755529	0.001054	20.775040
450.129909	-3.015000	3.736800	-11.265000	23.773923	0.001055	20.762189
451.128518	-3.030500	3.736600	-11.324000	23.792042	0.001055	20.756173
452.130149	-3.005800	3.738000	-11.235000	23.826986	0.001052	20.782202
453.131125	-2.991500	3.738100	-11.181000	23.820814	0.001056	20.769375
454.128227	-3.015300	3.736700	-11.266000	23.859812	0.001057	20.760588
455.135662	-3.002000	3.736100	-11.215000	23.848010	0.001056	20.782420
456.131272	-3.015600	3.736200	-11.265000	23.877806	0.001055	20.768674
457.131586	-2.985100	3.737400	-11.155000	23.902025	0.001054	20.772571
458.131504	-3.013900	3.734800	-11.256000	23.912048	0.001055	20.761285
459.135590	-3.010800	3.734000	-11.240000	23.927603	0.001055	20.770244
460.132912	-3.012600	3.734400	-11.249000	23.938232	0.001055	20.787541
461.133980	-2.999000	3.734600	-11.199000	23.935050	0.001054	20.762065
462.135104	-2.992700	3.734400	-11.176000	23.890228	0.001056	20.763586
463.131569	-2.993000	3.733000	-11.171000	23.892986	0.001057	20.774413
464.134007	-2.992400	3.733400	-11.171000	23.887686	0.001058	20.757719
465.132708	-3.001700	3.733300	-11.206000	23.872432	0.001057	20.769449
466.137141	-2.969300	3.734200	-11.087000	23.909812	0.001055	20.764732
467.130962	-3.000400	3.732600	-11.199000	23.889780	0.001057	20.745118
468.137443	-3.005200	3.732200	-11.215000	23.879599	0.001056	20.762411
469.139071	-3.010500	3.732600	-11.235000	23.888484	0.001057	20.767054
470.134849	-3.013000	3.730700	-11.239000	23.851803	0.001058	20.738806
471.134150	-2.983800	3.730800	-11.131000	23.857625	0.001056	20.763611
472.139077	-3.000900	3.730000	-11.191000	23.869939	0.001058	20.763631
473.139224	-3.009200	3.730900	-11.226000	23.868821	0.001058	20.744491
474.137063	-2.990900	3.731200	-11.160000	23.863122	0.001058	20.765804
475.139623	-2.992400	3.729100	-11.158000	23.858935	0.001057	20.771089
476.132086	-3.011100	3.728900	-11.226000	23.850995	0.001057	20.759808
477.136951	-3.012200	3.727800	-11.228000	23.840370	0.001058	20.768121
478.134302	-2.995400	3.728600	-11.167000	23.816972	0.001059	20.745133
479.134602	-2.985800	3.730400	-11.138000	23.823863	0.001057	20.747776
480.139966	-2.991800	3.728600	-11.155000	23.846187	0.001055	20.774428
481.141997	-2.989800	3.729700	-11.150000	23.806312	0.001058	20.759576
482.138895	-2.997700	3.727500	-11.173000	23.828814	0.001058	20.733773
483.137917	-2.993200	3.727900	-11.157000	23.786894	0.001057	20.746269
484.143310	-3.021300	3.726900	-11.258000	23.811588	0.001059	20.775297
485.135548	-3.014400	3.727600	-11.234000	23.838858	0.001057	20.767078
486.139585	-3.002800	3.726700	-11.189000	23.850212	0.001057	20.758548
487.138254	-3.006500	3.726200	-11.203000	23.847350	0.001057	20.742402
488.139798	-2.994900	3.727000	-11.161000	23.861708	0.001056	20.749213
489.142254	-2.997300	3.725100	-11.165000	23.890474	0.001058	20.748186
490.142258	-2.989900	3.725600	-11.139000	23.897493	0.001057	20.755698
491.138483	-2.992600	3.726100	-11.150000	23.941094	0.001056	20.774290
492.140133	-3.019700	3.722700	-11.241000	23.917949	0.001059	20.727846
493.146339	-2.978300	3.724600	-11.092000	23.940572	0.001058	20.745790
494.137865	-2.999400	3.723300	-11.167000	23.920658	0.001058	20.759961
495.140178	-2.999600	3.723600	-11.167000	23.918821	0.001057	20.758593
496.139483	-3.004200	3.722600	-11.182000	23.934070	0.001057	20.758237
497.140838	-2.989600	3.724300	-11.133000	23.957786	0.001056	20.726067
498.137095	-2.999200	3.721400	-11.160000	23.954796	0.001058	20.741562
499.146267	-3.006900	3.722900	-11.194000	23.949196	0.001057	20.747326
500.142843	-3.020900	3.721600	-11.242000	23.971345	0.001058	20.737769
501.141420	-2.996900	3.722600	-11.155000	24.002846	0.001057	20.753239
502.148141	-3.017800	3.720700	-11.228000	24.002773	0.001059	20.752216
503.138525	-3.004300	3.720300	-11.176000	24.021532	0.001058	20.740209
504.140838	-3.016600	3.719900	-11.220000	24.011327	0.001056	20.734716
505.146161	-3.023500	3.719800	-11.246000	24.016799	0.001057	20.731195
506.146325	-3.014100	3.719900	-11.212000	24.010948	0.001059	20.754251
507.139429	-3.031500	3.718600	-11.271000	24.017922	0.001058	20.763616
508.147343	-2.992700	3.718900	-11.128000	24.020931	0.001058	20.731545
509.143195	-3.016800	3.719100	-11.220000	24.044616	0.001057	20.739177
510.142847	-2.975100	3.720500	-11.068000	24.049614	0.001059	20.729016
511.145448	-2.987800	3.718200	-11.108000	24.090323	0.001057	20.754671
512.146516	-2.994000	3.719400	-11.135000	24.109278	0.001056	20.741913
513.143686	-2.987000	3.719200	-11.109000	24.104501	0.001059	20.735225
514.145795	-3.007300	3.718200	-11.181000	24.093982	0.001058	20.742219
515.143857	-3.014300	3.715500	-11.199000	24.149191	0.001057	20.753022
516.142066	-2.995300	3.718100	-11.135000	24.124780	0.001059	20.728537
517.148702	-2.981800	3.718000	-11.084000	24.126568	0.001056	20.737917
518.144926	-2.999200	3.715600	-11.143000	24.132241	0.001058	20.719424
519.146640	-2.994400	3.716900	-11.128000	24.116837	0.001057	20.743805
520.149817	-2.992600	3.715900	-11.119000	24.087348	0.001056	20.734144
521.146575	-2.980600	3.716000	-11.075000	24.081256	0.001058	20.740836
522.143878	-3.002700	3.715300	-11.155000	24.046620	0.001058	20.733126
523.148149	-2.984900	3.714600	-11.087000	24.029600	0.001059	20.713685
524.145884	-3.007200	3.713200	-11.166000	24.020217	0.001058	20.746477
525.143054	-2.998600	3.714600	-11.137000	24.016834	0.001059	20.733126
526.144636	-3.000800	3.713700	-11.143000	24.025339	0.001056	20.737389
527.144974	-2.974100	3.713900	-11.045000	24.026935	0.001056	20.727135
528.145583	-2.990400	3.712600	-11.101000	24.043079	0.001057	20.725781
529.149274	-3.008000	3.712300	-11.166000	24.028329	0.001058	20.747500
530.148879	-2.993500	3.711800	-11.110000	24.039770	0.001056	20.750439
531.146859	-3.007200	3.712100	-11.162000	24.041961	0.001058	20.733195
532.150181	-2.989700	3.711400	-11.093000	24.076893	0.001058	20.755427
533.148617	-2.988400	3.712100	-11.093000	24.093125	0.001057	20.731402
534.145367	-3.005600	3.712300	-11.156000	24.105663	0.001057	20.721217
535.147082	-2.979800	3.712700	-11.062000	24.108869	0.001056	20.725855
536.147064	-2.977600	3.710900	-11.048000	24.104413	0.001058	20.719014
537.151798	-2.996800	3.709400	-11.114000	24.111583	0.001056	20.734741
538.151119	-2.996200	3.709900	-11.115000	24.122102	0.001056	20.735334
539.152473	-3.019100	3.708900	-11.196000	24.147310	0.001056	20.751135
540.149267	-2.978600	3.709900	-11.049000	24.180771	0.001057	20.718787
541.147686	-2.981000	3.709000	-11.055000	24.180796	0.001055	20.727821
542.149864	-2.985700	3.710200	-11.077000	24.220131	0.001055	20.725549
543.149961	-2.985100	3.708600	-11.069000	24.210056	0.001055	20.725875
544.148794	-2.984100	3.709800	-11.070000	24.170770	0.001057	20.712074
545.148047	-2.994900	3.709000	-11.107000	24.140012	0.001055	20.704458
546.148611	-2.994200	3.708000	-11.102000	24.122319	0.001056	20.699513
547.149502	-3.002200	3.707200	-11.128000	24.158967	0.001057	20.732954
548.153243	-3.015100	3.706100	-11.172000	24.147197	0.001057	20.722097
549.149989	-3.004700	3.707700	-11.140000	24.163738	0.001057	20.715453
550.148914	-3.014200	3.706400	-11.170000	24.165787	0.001057	20.720353
551.150122	-2.978400	3.707600	-11.040000	24.178994	0.001055	20.720798
552.148881	-2.999500	3.706300	-11.115000	24.203871	0.001057	20.735794
553.150137	-2.994400	3.704900	-11.092000	24.197450	0.001056	20.718447
554.148735	-2.998900	3.704800	-11.109000	24.232111	0.001055	20.722393
555.155827	-3.002700	3.703400	-11.118000	24.250296	0.001056	20.721193
556.151439	-2.992600	3.704300	-11.085000	24.251015	0.001055	20.717646
557.152022	-2.977900	3.704500	-11.030000	24.270863	0.001054	20.713848
558.150832	-3.016100	3.702900	-11.166000	24.251684	0.001054	20.718792
559.150109	-2.988300	3.703300	-11.067000	24.246337	0.001056	20.707264
560.153953	-2.976900	3.703400	-11.024000	24.236287	0.001056	20.724685
561.151773	-3.014000	3.701000	-11.153000	24.242304	0.001055	20.709383
562.152963	-3.023900	3.701100	-11.191000	24.253802	0.001055	20.722339
563.151505	-3.006100	3.701900	-11.126000	24.242457	0.001053	20.716649
564.151255	-3.014600	3.701300	-11.157000	24.241039	0.001055	20.691042
565.156270	-2.989600	3.701300	-11.064000	24.233948	0.001055	20.703846
566.152514	-2.999900	3.700200	-11.099000	24.248100	0.001055	20.712826
567.152196	-2.985800	3.701300	-11.050000	24.266368	0.001054	20.732099
568.152629	-3.013100	3.699200	-11.145000	24.279101	0.001054	20.706938
569.157707	-2.995800	3.699800	-11.083000	24.288111	0.001055	20.716451
570.152136	-2.994500	3.700900	-11.082000	24.292636	0.001053	20.691591
571.154526	-3.003300	3.701200	-11.114000	24.292016	0.001055	20.700926
572.150149	-3.004700	3.699100	-11.113000	24.285625	0.001052	20.703050
573.157818	-3.024100	3.697600	-11.181000	24.272961	0.001053	20.728281
574.153170	-3.012200	3.698800	-11.141000	24.265974	0.001052	20.706572
575.153904	-3.051400	3.695600	-11.276000	24.271868	0.001055	20.696362
576.152200	-2.987300	3.697600	-11.045000	24.304133	0.001052	20.696012
577.155618	-3.012300	3.696500	-11.133000	24.331770	0.001056	20.691966
578.157015	-2.993300	3.697300	-11.065000	24.333735	0.001053	20.674495
579.158393	-3.012700	3.696900	-11.136000	24.358264	0.001053	20.690568
580.157968	-3.003100	3.696900	-11.100000	24.323912	0.001054	20.704947
581.154006	-3.000000	3.695500	-11.086000	24.316324	0.001053	20.695913
582.157336	-2.984000	3.696600	-11.029000	24.342346	0.001053	20.706370
583.155550	-2.988300	3.695900	-11.044000	24.338712	0.001053	20.689921
584.158813	-3.024600	3.693700	-11.171000	24.355054	0.001052	20.710109
585.157149	-3.001100	3.695500	-11.089000	24.334055	0.001053	20.708010
586.162284	-3.008900	3.694200	-11.114000	24.359032	0.001052	20.697978
587.167677	-2.996200	3.694700	-11.069000	24.379829	0.001052	20.702719
588.160326	-2.995800	3.693500	-11.062000	24.332814	0.001051	20.701075
589.158535	-3.007400	3.693100	-11.105000	24.333484	0.001052	20.688469
590.161407	-2.988600	3.692500	-11.033000	24.352991	0.001052	20.683855
591.161708	-3.015400	3.692700	-11.134000	24.313533	0.001052	20.682206
592.157133	-3.001000	3.691400	-11.076000	24.351917	0.001051	20.691314
593.160769	-2.996500	3.693000	-11.065000	24.319082	0.001052	20.696308
594.157286	-3.003400	3.691900	-11.086000	24.315148	0.001051	20.688094
595.160993	-2.998300	3.690800	-11.065000	24.300042	0.001051	20.696649
596.161467	-3.011400	3.691300	-11.115000	24.303607	0.001051	20.694060
597.164661	-3.006100	3.690900	-11.094000	24.303951	0.001052	20.686345
598.160861	-3.013600	3.689600	-11.118000	24.333651	0.001051	20.685792
599.166277	-3.000600	3.690300	-11.071000	24.342686	0.001051	20.672568
600.164036	-2.994700	3.689600	-11.048000	24.331608	0.001053	20.698442
601.162798	-3.017800	3.689700	-11.133000	24.328151	0.001053	20.697345
602.164873	-2.983800	3.689600	-11.008000	24.348451	0.001050	20.690682
603.166967	-3.002900	3.688700	-11.076000	24.351711	0.001051	20.683520
604.162909	-2.986200	3.689200	-11.016000	24.362006	0.001052	20.676303
605.164433	-2.972600	3.689700	-10.967000	24.377052	0.001052	20.680966
606.165189	-2.999600	3.688700	-11.064000	24.363345	0.001050	20.683337
607.162357	-2.976000	3.688600	-10.976000	24.368618	0.001051	20.696689
608.169912	-2.988000	3.687900	-11.018000	24.380779	0.001051	20.686128
609.170922	-2.998100	3.686700	-11.053000	24.397322	0.001053	20.702251
610.167708	-3.003300	3.687700	-11.074000	24.393063	0.001049	20.691814
611.167958	-3.006500	3.686500	-11.082000	24.394929	0.001050	20.678985
612.171332	-2.984800	3.687800	-11.006000	24.416912	0.001049	20.683970
613.171115	-3.017500	3.685600	-11.120000	24.448130	0.001048	20.684943
614.173195	-3.005000	3.685800	-11.075000	24.433252	0.001050	20.698467
615.177039	-2.996600	3.684700	-11.039000	24.444142	0.001049	20.691374
616.170451	-3.027400	3.683500	-11.150000	24.467940	0.001051	20.668307
617.173928	-2.998900	3.683900	-11.046000	24.468836	0.001051	20.676319
618.175941	-2.994000	3.683800	-11.029000	24.491093	0.001048	20.696754
619.174053	-2.991700	3.683200	-11.018000	24.514521	0.001049	20.697500
620.174241	-2.981600	3.685700	-10.988000	24.508373	0.001047	20.688011
621.175252	-3.008400	3.683500	-11.080000	24.521157	0.001047	20.694674
622.177391	-2.997000	3.682600	-11.036000	24.488416	0.001047	20.695490
623.182590	-2.994400	3.683200	-11.028000	24.471796	0.001048	20.712008
624.176754	-3.021600	3.681500	-11.122000	24.460970	0.001045	20.698301
625.177406	-3.007800	3.682200	-11.075000	24.434080	0.001048	20.681753
626.182150	-3.020800	3.681100	-11.119000	24.429699	0.001048	20.702964
627.177271	-2.999000	3.681600	-11.038000	24.399992	0.001046	20.677901
628.179201	-2.999700	3.680800	-11.040000	24.403468	0.001046	20.703201
629.178910	-3.006200	3.680700	-11.063000	24.389786	0.001045	20.698010
630.181591	-3.019000	3.679900	-11.107000	24.402489	0.001047	20.703167
631.183182	-2.996600	3.680400	-11.026000	24.438951	0.001046	20.712246
632.180760	-3.011600	3.679300	-11.080000	24.410514	0.001047	20.694148
633.181232	-3.000000	3.679200	-11.036000	24.420583	0.001045	20.694291
634.180359	-3.003800	3.679000	-11.049000	24.378592	0.001045	20.700530
635.179140	-3.017000	3.678800	-11.098000	24.367691	0.001045	20.700501
636.178582	-3.010800	3.679400	-11.077000	24.385623	0.001045	20.710903
637.184301	-3.009500	3.678500	-11.068000	24.390871	0.001046	20.701943
638.185663	-3.020900	3.676300	-11.104000	24.412706	0.001046	20.695873
639.179612	-3.002200	3.677800	-11.040000	24.457399	0.001045	20.706572
640.181014	-3.029000	3.674800	-11.130000	24.466280	0.001043	20.714534
641.184275	-2.988200	3.677300	-10.987000	24.437569	0.001046	20.700902
642.182323	-3.003600	3.676700	-11.043000	24.446623	0.001044	20.700502
643.183025	-2.998900	3.676000	-11.023000	24.443605	0.001047	20.705061
644.180750	-3.005500	3.675200	-11.044000	24.466862	0.001043	20.687141
645.182405	-2.985900	3.675500	-10.973000	24.479667	0.001043	20.691927
646.179978	-3.014100	3.675300	-11.077000	24.478746	0.001044	20.713291
647.184069	-3.000400	3.674700	-11.023000	24.505704	0.001044	20.715208
648.184354	-3.000700	3.674300	-11.024000	24.521920	0.001042	20.726736
649.183954	-2.987700	3.673700	-10.975000	24.500078	0.001044	20.710510
650.188807	-3.000800	3.674600	-11.025000	24.507171	0.001042	20.697712
651.182037	-2.965100	3.675800	-10.898000	24.498507	0.001042	20.732644
652.183318	-2.987300	3.674900	-10.975000	24.477664	0.001043	20.707463
653.183104	-2.993200	3.672900	-10.993000	24.470398	0.001042	20.709656
654.187110	-2.991800	3.671600	-10.984000	24.457612	0.001043	20.710580
655.182512	-3.006100	3.672300	-11.038000	24.493132	0.001041	20.700222
656.186325	-2.997500	3.670800	-11.002000	24.508477	0.001043	20.706135
657.187699	-3.031500	3.670900	-11.128000	24.501087	0.001041	20.715791
658.183583	-3.005100	3.671000	-11.030000	24.483203	0.001042	20.721081
659.183753	-3.009600	3.670600	-11.046000	24.471383	0.001041	20.722499
660.191091	-3.018200	3.670200	-11.075000	24.445369	0.001040	20.720108
661.191814	-2.984100	3.671300	-10.955000	24.449396	0.001040	20.702811
662.188920	-3.003800	3.671000	-11.026000	24.431929	0.001040	20.720376
663.191568	-2.988100	3.670500	-10.967000	24.452675	0.001039	20.713688
664.191098	-3.004800	3.669900	-11.026000	24.455639	0.001040	20.712393
665.190811	-2.990900	3.668900	-10.972000	24.439491	0.001039	20.721324
666.186578	-3.024400	3.668000	-11.091000	24.477404	0.001039	20.729014
667.187455	-3.010000	3.669100	-11.042000	24.421507	0.001040	20.708970
668.194229	-2.997500	3.667800	-10.992000	24.462329	0.001039	20.704880
669.194888	-2.998100	3.667700	-10.994000	24.441313	0.001038	20.707503
670.195135	-2.984300	3.667600	-10.944000	24.446531	0.001039	20.714636
671.193510	-3.006500	3.667900	-11.026000	24.467951	0.001039	20.717160
672.191282	-2.988600	3.668300	-10.962000	24.496756	0.001037	20.703858
673.193773	-2.977600	3.669100	-10.924000	24.495087	0.001038	20.711193
674.193358	-3.013600	3.666100	-11.046000	24.526110	0.001038	20.726199
675.195045	-2.998000	3.667300	-10.993000	24.544265	0.001038	20.712171
676.196904	-2.996200	3.666100	-10.983000	24.551777	0.001035	20.714492
677.192094	-3.012600	3.666000	-11.042000	24.568218	0.001037	20.726722
678.195857	-3.009000	3.665300	-11.027000	24.560682	0.001037	20.719160
679.192572	-2.993700	3.666100	-10.975000	24.540962	0.001038	20.709330
680.194951	-3.015400	3.664400	-11.049000	24.545215	0.001037	20.701269
681.197319	-2.995600	3.665500	-10.979000	24.560534	0.001037	20.722805
682.205110	-3.002600	3.663900	-11.000000	24.590089	0.001037	20.736813
683.196863	-3.004000	3.663400	-11.003000	24.609336	0.001037	20.717243
684.197171	-2.992300	3.664300	-10.963000	24.635005	0.001035	20.721190
685.195922	-2.999000	3.664900	-10.990000	24.649728	0.001035	20.736912
686.193882	-3.018300	3.662300	-11.053000	24.683208	0.001037	20.716452
687.196515	-2.992200	3.662700	-10.957000	24.669554	0.001036	20.716502
688.196294	-2.978100	3.665100	-10.914000	24.671247	0.001037	20.726736
689.198575	-3.002700	3.661600	-10.994000	24.639543	0.001034	20.731908
690.202192	-2.978200	3.664100	-10.911000	24.636408	0.001036	20.727813
691.202459	-2.990100	3.661100	-10.945000	24.616733	0.001034	20.708544
692.196334	-3.012900	3.660000	-11.027000	24.607267	0.001035	20.733661
693.199442	-2.998500	3.660500	-10.974000	24.616841	0.001034	20.726672
694.201931	-3.010400	3.659900	-11.015000	24.644918	0.001034	20.732085
695.196792	-2.994500	3.661200	-10.963000	24.659891	0.001033	20.713444
696.202133	-3.006500	3.660500	-11.003000	24.673245	0.001032	20.702661
697.196606	-2.990400	3.660100	-10.943000	24.687873	0.001032	20.703589
698.197712	-3.014900	3.660600	-11.035000	24.677079	0.001032	20.744917
699.197764	-3.031600	3.657600	-11.088000	24.709264	0.001032	20.722685
700.200222	-2.982500	3.659900	-10.915000	24.693375	0.001032	20.712431
701.197723	-2.981700	3.659000	-10.908000	24.675498	0.001033	20.720571
702.203155	-3.006100	3.657700	-10.994000	24.675474	0.001033	20.723865
703.202301	-3.003000	3.659000	-10.987000	24.682389	0.001033	20.743134
704.197435	-2.989600	3.658100	-10.934000	24.669877	0.001032	20.728207
705.200176	-2.990300	3.657700	-10.936000	24.685421	0.001033	20.723890
706.201541	-2.988200	3.656800	-10.926000	24.695944	0.001030	20.720225
707.200674	-2.989500	3.657000	-10.932000	24.717182	0.001027	20.710716
708.195976	-2.989500	3.655400	-10.927000	24.754283	0.001029	20.717128
709.201062	-2.976300	3.657400	-10.883000	24.723502	0.001030	20.741716
710.195133	-2.996100	3.656600	-10.955000	24.729965	0.001029	20.715957
711.199509	-3.026400	3.654600	-11.058000	24.744189	0.001028	20.737345
712.199953	-3.015400	3.654800	-11.019000	24.751748	0.001031	20.711739
713.198471	-2.997500	3.655000	-10.955000	24.729709	0.001029	20.733245
714.199603	-2.999500	3.655700	-10.965000	24.746226	0.001029	20.721845
715.196982	-2.996300	3.653700	-10.947000	24.723719	0.001026	20.739088
716.196517	-3.003000	3.653600	-10.971000	24.742097	0.001028	20.735246
717.198773	-2.974800	3.655900	-10.874000	24.746300	0.001027	20.739464
718.200202	-2.964700	3.654400	-10.834000	24.709194	0.001029	20.744902
719.207836	-2.983400	3.653200	-10.898000	24.661647	0.001026	20.737493
720.206431	-2.994100	3.652600	-10.935000	24.645380	0.001027	20.733971
721.204455	-3.004600	3.652600	-10.973000	24.662666	0.001027	20.722867
722.203434	-2.989100	3.653000	-10.918000	24.656046	0.001027	20.748943
723.206475	-2.984900	3.653800	-10.905000	24.682434	0.001027	20.762145
724.206852	-3.010000	3.652600	-10.994000	24.687513	0.001026	20.741637
725.199207	-3.011500	3.651600	-10.995000	24.723394	0.001025	20.731176
726.201893	-3.015200	3.649500	-11.003000	24.763059	0.001026	20.741109
727.201642	-3.005800	3.651900	-10.975000	24.788351	0.001026	20.734722
728.199928	-2.994800	3.650200	-10.931000	24.803371	0.001024	20.746952
729.203299	-3.015700	3.649900	-11.006000	24.831546	0.001026	20.749150
730.203363	-2.999600	3.651000	-10.950000	24.845444	0.001024	20.744131
731.204603	-3.022000	3.649100	-11.027000	24.817073	0.001024	20.758806
732.205198	-3.021200	3.649400	-11.025000	24.782907	0.001025	20.722146
733.207019	-2.999500	3.649500	-10.944000	24.758713	0.001023	20.742437
734.200713	-3.007200	3.648900	-10.973000	24.751453	0.001022	20.742264
735.205593	-3.001100	3.649100	-10.951000	24.715416	0.001023	20.762999
736.202936	-3.002800	3.650000	-10.958000	24.751025	0.001023	20.737093
737.207938	-3.002600	3.647900	-10.952000	24.762891	0.001022	20.750898
738.206754	-3.016900	3.647900	-11.004000	24.800738	0.001022	20.727239
739.202625	-2.997600	3.646900	-10.930000	24.814912	0.001021	20.741938
740.206807	-3.004500	3.646200	-10.953000	24.836123	0.001021	20.762278
741.206333	-3.015800	3.646600	-10.996000	24.855892	0.001020	20.763626
742.207239	-2.980500	3.647100	-10.869000	24.837417	0.001020	20.739868
743.214435	-3.008100	3.646100	-10.967000	24.865813	0.001020	20.734702
744.203870	-2.998800	3.646300	-10.934000	24.874469	0.001020	20.748606
745.209898	-3.013100	3.645100	-10.982000	24.894114	0.001023	20.757892
746.204640	-2.984200	3.645600	-10.878000	24.937675	0.001021	20.775061
747.205582	-2.998000	3.645600	-10.928000	24.945258	0.001018	20.750429
748.205421	-3.012500	3.644700	-10.979000	24.952073	0.001020	20.753476
749.206022	-3.005500	3.645400	-10.955000	24.946105	0.001018	20.764555
750.204918	-3.021900	3.643700	-11.010000	24.924349	0.001019	20.752676
751.205494	-3.005600	3.644400	-10.952000	24.916018	0.001018	20.740046
752.207167	-2.995900	3.644100	-10.916000	24.912322	0.001018	20.760519
753.205655	-2.993900	3.643000	-10.905000	24.916648	0.001018	20.750636
754.210262	-2.995800	3.642600	-10.910000	24.884769	0.001016	20.750883
755.213237	-2.999900	3.643700	-10.929000	24.871767	0.001016	20.750162
756.205110	-2.989900	3.643400	-10.892000	24.841605	0.001018	20.755452
757.212883	-2.981800	3.642400	-10.860000	24.839287	0.001018	20.769247
758.210220	-2.969800	3.644000	-10.820000	24.884223	0.001016	20.771672
759.205450	-2.982700	3.643400	-10.866000	24.859258	0.001015	20.763211
760.212471	-3.004500	3.640400	-10.936000	24.846157	0.001015	20.767607
761.210560	-2.995600	3.640600	-10.904000	24.824897	0.001015	20.769978
762.208486	-3.017000	3.640800	-10.982000	24.826737	0.001015	20.782731
763.210909	-3.018600	3.640400	-10.988000	24.805649	0.001017	20.771998
764.210706	-2.979700	3.639500	-10.843000	24.797844	0.001015	20.760845
765.205817	-2.984900	3.641000	-10.867000	24.803764	0.001013	20.757304
766.213141	-2.986000	3.640300	-10.868000	24.841934	0.001013	20.776645
767.214960	-2.991900	3.638600	-10.885000	24.865084	0.001014	20.761472
768.211625	-2.997100	3.639000	-10.906000	24.879429	0.001015	20.765913
769.214186	-3.010400	3.637900	-10.950000	24.901510	0.001011	20.770531
770.210736	-3.013100	3.637200	-10.959000	24.879055	0.001011	20.763166
771.208893	-2.996900	3.638700	-10.904000	24.879828	0.001014	20.787176
772.212046	-3.011200	3.638100	-10.954000	24.865360	0.001013	20.769335
773.213844	-3.009700	3.637000	-10.945000	24.900615	0.001012	20.776270
774.209517	-3.029500	3.636300	-11.014000	24.927222	0.001012	20.765043
775.216645	-3.014400	3.637800	-10.965000	24.972416	0.001011	20.765834
776.210632	-3.005100	3.637900	-10.930000	24.980746	0.001011	20.764238
777.212836	-3.032400	3.635500	-11.024000	24.968764	0.001011	20.787773
778.215954	-3.015000	3.634300	-10.955000	24.989569	0.001010	20.770250
779.212100	-2.992800	3.635700	-10.880000	25.013459	0.001010	20.781427
780.213807	-3.000000	3.635800	-10.905000	25.023507	0.001009	20.759270
781.212987	-3.025300	3.634300	-10.994000	25.000479	0.001008	20.784519
782.219926	-3.002400	3.634700	-10.911000	25.024122	0.001008	20.769845
783.216011	-3.010300	3.635000	-10.942000	25.012190	0.001008	20.778730
784.217062	-2.981500	3.635600	-10.837000	25.063525	0.001009	20.783319
785.214613	-3.011500	3.633300	-10.940000	25.070831	0.001009	20.772161
786.217890	-2.981500	3.634200	-10.834000	25.082492	0.001010	20.775807
787.219002	-2.986500	3.633700	-10.850000	25.090390	0.001008	20.791795
788.214743	-3.003700	3.632400	-10.908000	25.093302	0.001008	20.788555
789.216621	-2.992200	3.632800	-10.869000	25.052080	0.001007	20.786056
790.214270	-2.996300	3.632700	-10.884000	25.065277	0.001006	20.797880
791.215810	-2.977400	3.632800	-10.814000	25.079373	0.001006	20.780262
792.220195	-3.003000	3.631300	-10.904000	25.088373	0.001007	20.783132
793.218476	-2.996700	3.632200	-10.884000	25.086582	0.001006	20.794610
794.216846	-3.000600	3.630400	-10.892000	25.051406	0.001005	20.783957
795.215945	-2.999800	3.631800	-10.893000	25.025796	0.001005	20.792862
796.215208	-3.005000	3.629800	-10.906000	25.022386	0.001004	20.807457
797.216723	-3.015700	3.630300	-10.946000	25.034791	0.001006	20.805210
798.219783	-2.987500	3.631000	-10.845000	25.050732	0.001005	20.808884
799.221794	-2.982100	3.632100	-10.830000	25.033703	0.001004	20.801273
800.218683	-2.987300	3.629500	-10.841000	24.999811	0.001005	20.800444
801.215653	-3.038200	3.628100	-11.022000	24.992754	0.001002	20.807111
802.219702	-3.000500	3.628200	-10.886000	25.003496	0.001004	20.788496
803.219479	-3.000600	3.627900	-10.884000	24.996932	0.001004	20.796606
804.220637	-3.014800	3.627900	-10.937000	25.013268	0.001003	20.793563
805.216687	-3.009800	3.628600	-10.920000	25.051456	0.001001	20.812455
806.219267	-3.027700	3.627900	-10.983000	25.042609	0.001001	20.803575
807.218512	-3.000300	3.626500	-10.878000	25.040744	0.001001	20.802651
808.219891	-3.014900	3.626700	-10.933000	25.035400	0.001000	20.796339
809.220519	-2.989800	3.626900	-10.842000	25.023069	0.001000	20.811462
810.223166	-2.987300	3.626700	-10.832000	24.986072	0.001001	20.825534
811.221410	-2.978100	3.627100	-10.800000	25.022129	0.001000	20.800562
812.218334	-3.010800	3.625900	-10.916000	25.050097	0.001000	20.813937
813.223537	-2.983100	3.625700	-10.815000	25.096638	0.000999	20.773885
814.219904	-3.001700	3.626200	-10.883000	25.077449	0.000999	20.793977
815.226375	-2.970700	3.626500	-10.772000	25.117322	0.000999	20.816934
816.220644	-2.984500	3.626500	-10.822000	25.127369	0.000999	20.794303
817.223711	-2.993500	3.625000	-10.851000	25.122296	0.000998	20.810074
818.222136	-2.978600	3.625200	-10.797000	25.119339	0.000999	20.808054
819.225251	-3.017300	3.624800	-10.936000	25.148972	0.000999	20.793706
820.227295	-2.983300	3.623500	-10.808000	25.154719	0.000996	20.783827
821.223150	-3.003300	3.621500	-10.874000	25.168888	0.000997	20.814173
822.227234	-2.997900	3.623600	-10.862000	25.173989	0.000998	20.797484
823.224303	-3.005500	3.623900	-10.890000	25.182289	0.000996	20.804394
824.227614	-3.010300	3.621400	-10.901000	25.170856	0.000996	20.822312
825.222537	-3.018600	3.621500	-10.931000	25.162580	0.000996	20.814005
826.225707	-3.004000	3.622200	-10.880000	25.130763	0.000994	20.806720
827.229099	-2.991800	3.621600	-10.834000	25.178442	0.000995	20.814281
828.233511	-3.030800	3.619100	-10.966000	25.185698	0.000994	20.807342
829.229505	-2.976900	3.622500	-10.783000	25.181900	0.000995	20.829607
830.227386	-2.999700	3.621500	-10.862000	25.149931	0.000995	20.811738
831.227849	-2.988800	3.620700	-10.820000	25.161714	0.000994	20.813135
832.224710	-2.993500	3.620500	-10.837000	25.158211	0.000993	20.831903
833.229023	-2.977700	3.621300	-10.782000	25.171834	0.000992	20.816657
834.225458	-3.003000	3.618500	-10.865000	25.175962	0.000991	20.801835
835.228682	-3.023200	3.618900	-10.938000	25.151702	0.000993	20.805455
836.225549	-2.963100	3.620700	-10.727000	25.125478	0.000992	20.827967
837.230933	-2.987200	3.619600	-10.812000	25.127417	0.000991	20.823749
838.232858	-3.008700	3.616700	-10.880000	25.144174	0.000993	20.816390
839.229611	-2.999000	3.618100	-10.849000	25.144199	0.000990	20.811199
840.229633	-2.982200	3.616500	-10.784000	25.155185	0.000988	20.817486
841.229429	-3.000500	3.617000	-10.852000	25.194809	0.000990	20.833558
842.230824	-2.989100	3.617600	-10.812000	25.239779	0.000988	20.810902
843.226095	-3.020500	3.616100	-10.920000	25.250022	0.000990	20.821659
844.230357	-2.988800	3.616600	-10.808000	25.257027	0.000988	20.813994
845.233624	-3.009400	3.615600	-10.880000	25.274796	0.000989	20.808601
846.229917	-2.995200	3.615400	-10.826000	25.265179	0.000989	20.797048
847.231795	-3.000400	3.615800	-10.847000	25.283626	0.000990	20.822682
848.232558	-3.018100	3.614200	-10.906000	25.297887	0.000988	20.843638
849.232762	-2.987500	3.614500	-10.797000	25.299924	0.000988	20.812967
850.231324	-2.983200	3.616100	-10.786000	25.287749	0.000987	20.847209
851.234435	-2.989700	3.615300	-10.807000	25.294508	0.000987	20.836452
852.229287	-3.013200	3.614500	-10.889000	25.244448	0.000984	20.831236
853.233407	-3.036600	3.613000	-10.970000	25.231471	0.000986	20.814414
854.235405	-3.003600	3.613100	-10.851000	25.240070	0.000985	20.825418
855.230114	-2.988600	3.614000	-10.799000	25.205318	0.000985	20.838418
856.236693	-3.012100	3.612100	-10.879000	25.194928	0.000984	20.840789
857.233771	-2.991300	3.613800	-10.808000	25.185531	0.000986	20.811915
858.233865	-2.989300	3.612300	-10.796000	25.177625	0.000985	20.839539
859.232212	-3.005700	3.612100	-10.856000	25.175313	0.000982	20.837692
860.239077	-2.965900	3.612100	-10.712000	25.157016	0.000982	20.836867
861.232492	-2.985700	3.612700	-10.785000	25.157660	0.000982	20.815704
862.235435	-3.005900	3.610600	-10.852000	25.150054	0.000982	20.833198
863.231931	-2.990300	3.611400	-10.798000	25.174388	0.000982	20.823488
864.235277	-2.999700	3.610700	-10.828000	25.192684	0.000981	20.840433
865.238517	-3.003000	3.610700	-10.842000	25.187317	0.000981	20.844053
866.236800	-2.989100	3.609700	-10.788000	25.187765	0.000981	20.830279
867.235343	-2.999100	3.608100	-10.820000	25.222040	0.000980	20.815378
868.233795	-2.999900	3.609900	-10.828000	25.232932	0.000980	20.832476
869.241900	-2.999600	3.609500	-10.826000	25.249009	0.000978	20.824436
870.236968	-3.014700	3.607700	-10.875000	25.253958	0.000979	20.826560
871.238573	-3.003800	3.607500	-10.834000	25.293348	0.000977	20.817270
872.235646	-3.010800	3.607900	-10.862000	25.280301	0.000980	20.826930
873.240239	-2.986000	3.609200	-10.775000	25.268898	0.000979	20.807421
874.243730	-3.013800	3.606900	-10.869000	25.262680	0.000976	20.827730
875.240436	-2.994500	3.609000	-10.805000	25.209859	0.000977	20.805520
876.240319	-3.042500	3.605500	-10.968000	25.208167	0.000976	20.828476
877.237843	-3.007000	3.606000	-10.842000	25.189000	0.000977	20.798328
878.237186	-3.002100	3.605300	-10.823000	25.254425	0.000975	20.821813
879.238446	-2.991600	3.606900	-10.788000	25.261859	0.000974	20.800353
880.242311	-2.981400	3.606300	-10.751000	25.285816	0.000975	20.808760
881.239400	-2.997200	3.606300	-10.808000	25.293943	0.000974	20.811703
882.245359	-2.993100	3.605000	-10.789000	25.306098	0.000975	20.812054
883.244110	-3.002300	3.604500	-10.820000	25.307564	0.000973	20.789344
884.244183	-2.990800	3.604700	-10.781000	25.344345	0.000971	20.810627
885.243115	-3.007900	3.604300	-10.840000	25.343080	0.000972	20.811728
886.241009	-2.998200	3.602800	-10.801000	25.375388	0.000973	20.811452
887.242910	-2.996600	3.604300	-10.798000	25.381252	0.000973	20.805960
888.245655	-2.999300	3.603900	-10.808000	25.352850	0.000971	20.798304
889.244698	-2.996100	3.604200	-10.798000	25.359928	0.000971	20.821532
890.246091	-3.001700	3.603200	-10.814000	25.341536	0.000968	20.801169
891.246256	-2.957200	3.603600	-10.654000	25.345063	0.000970	20.799969
892.245581	-2.977600	3.603500	-10.729000	25.337906	0.000970	20.814593
893.243040	-2.997500	3.601700	-10.794000	25.339721	0.000968	20.803614
894.247435	-2.988900	3.601200	-10.762000	25.348546	0.000968	20.792560
895.243055	-3.010600	3.600600	-10.839000	25.383239	0.000969	20.823602
896.247262	-2.998900	3.600800	-10.797000	25.355127	0.000965	20.778306
897.248852	-3.001800	3.600100	-10.806000	25.407921	0.000966	20.797652
898.243324	-2.988900	3.601300	-10.763000	25.394420	0.000966	20.784568
899.246904	-2.981900	3.600000	-10.734000	25.392009	0.000966	20.798270
900.249317	-3.008200	3.598900	-10.825000	25.374862	0.000966	20.795751
901.249293	-2.978800	3.599100	-10.720000	25.357164	0.000966	20.809274
902.246162	-2.986500	3.599800	-10.750000	25.335338	0.000968	20.803481
903.250588	-3.011700	3.598200	-10.836000	25.316552	0.000967	20.787463
904.246189	-2.983700	3.598700	-10.736000	25.270842	0.000965	20.780449
905.250372	-3.024900	3.597300	-10.881000	25.250682	0.000965	20.789132
906.250243	-2.991100	3.597200	-10.758000	25.262115	0.000961	20.803930
907.247964	-3.009400	3.597100	-10.824000	25.270488	0.000964	20.778197
908.251726	-2.998300	3.596300	-10.782000	25.295921	0.000963	20.765800
909.252217	-2.991400	3.597200	-10.759000	25.336711	0.000963	20.783521
910.247566	-2.994300	3.595900	-10.767000	25.324851	0.000962	20.787735
911.248352	-2.997700	3.595000	-10.775000	25.322637	0.000961	20.785512
912.251915	-2.997600	3.596200	-10.778000	25.341453	0.000960	20.783541
913.249514	-2.994000	3.596200	-10.766000	25.367371	0.000960	20.784436
914.253695	-2.998900	3.595100	-10.781000	25.376791	0.000961	20.789152
915.251861	-3.010500	3.596000	-10.825000	25.385591	0.000958	20.785186
916.252763	-2.997600	3.594700	-10.775000	25.410942	0.000959	20.776029
917.250348	-3.020100	3.593400	-10.851000	25.437709	0.000960	20.794373
918.253244	-2.990300	3.594700	-10.748000	25.438900	0.000958	20.792723
919.252091	-2.985800	3.594300	-10.730000	25.407937	0.000957	20.781546
920.254400	-2.999200	3.594100	-10.779000	25.400952	0.000959	20.787335
921.255544	-3.012900	3.592600	-10.823000	25.390214	0.000956	20.792200
922.248842	-2.991800	3.592000	-10.746000	25.397351	0.000958	20.783245
923.253065	-2.988400	3.592400	-10.734000	25.359019	0.000958	20.761824
924.251667	-3.002500	3.590600	-10.780000	25.348684	0.000956	20.778474
925.256602	-3.014600	3.591800	-10.827000	25.347616	0.000958	20.772186
926.257006	-2.989800	3.592100	-10.739000	25.333149	0.000955	20.780894
927.268002	-3.006000	3.589500	-10.789000	25.347818	0.000956	20.762905
928.253653	-3.010000	3.588800	-10.801000	25.347419	0.000954	20.779101
929.251875	-3.017300	3.589700	-10.830000	25.315332	0.000954	20.777703
930.254621	-3.008900	3.590600	-10.803000	25.301785	0.000954	20.783541
931.252002	-2.998300	3.590700	-10.765000	25.293933	0.000952	20.772339
932.254443	-2.994900	3.590300	-10.751000	25.296890	0.000953	20.771040
933.254675	-2.967100	3.590200	-10.651000	25.282275	0.000950	20.764901
934.254006	-2.982100	3.590300	-10.706000	25.252945	0.000952	20.761532
935.257348	-2.996600	3.587100	-10.747000	25.183844	0.000953	20.781299
936.252604	-2.979500	3.589200	-10.693000	25.173852	0.000953	20.786915
937.252650	-2.984200	3.587700	-10.704000	25.169154	0.000951	20.782198
938.255374	-2.991400	3.588000	-10.732000	25.199779	0.000951	20.768373
939.256734	-3.012400	3.586600	-10.801000	25.240794	0.000949	20.755970
940.257039	-2.999800	3.587600	-10.760000	25.258140	0.000950	20.789034
941.256034	-2.981000	3.586800	-10.692000	25.251430	0.000949	20.777555
942.256554	-2.995900	3.586200	-10.743000	25.282226	0.000951	20.768645
943.257427	-3.014000	3.585500	-10.805000	25.272161	0.000947	20.759013
944.255925	-3.003300	3.585200	-10.766000	25.277651	0.000946	20.739868
945.257680	-2.997000	3.584800	-10.742000	25.272559	0.000948	20.775535
946.259075	-2.992300	3.584900	-10.726000	25.257890	0.000948	20.783566
947.259998	-2.999800	3.584400	-10.751000	25.229833	0.000946	20.760613
948.259733	-2.983100	3.584500	-10.691000	25.240794	0.000947	20.768773
949.256751	-2.995700	3.583600	-10.734000	25.235471	0.000946	20.756790
950.262465	-2.978900	3.583900	-10.675000	25.228490	0.000948	20.770171
951.257297	-3.013200	3.582900	-10.795000	25.278748	0.000944	20.752824
952.260656	-3.004600	3.584000	-10.768000	25.260875	0.000945	20.764278
953.256438	-3.016000	3.582700	-10.803000	25.325352	0.000942	20.760737
954.258805	-2.995500	3.581900	-10.728000	25.315927	0.000942	20.751273
955.262354	-3.021300	3.581300	-10.820000	25.332337	0.000943	20.770121
956.267559	-2.976100	3.581400	-10.658000	25.329656	0.000942	20.777387
957.264254	-3.005900	3.581100	-10.763000	25.369122	0.000942	20.749683
958.267884	-2.991000	3.582000	-10.713000	25.375433	0.000941	20.748907
959.259370	-2.997200	3.580900	-10.730000	25.400538	0.000942	20.759418
960.265983	-3.006500	3.581300	-10.765000	25.424124	0.000939	20.776937
961.266978	-2.996400	3.579800	-10.725000	25.437345	0.000938	20.757971
962.259267	-2.996900	3.579900	-10.728000	25.433715	0.000939	20.767128
963.267674	-2.998900	3.579500	-10.733000	25.388384	0.000940	20.768076
964.264388	-2.992200	3.579400	-10.709000	25.360671	0.000938	20.746887
965.266037	-3.013700	3.578100	-10.782000	25.318539	0.000938	20.764802
966.265938	-2.995300	3.578200	-10.716000	25.292148	0.000937	20.750631
967.268257	-3.001800	3.578200	-10.739000	25.294858	0.000937	20.759042
968.266512	-2.999500	3.578400	-10.732000	25.291351	0.000936	20.769746
969.266183	-3.001500	3.576900	-10.735000	25.285039	0.000934	20.747287
970.268418	-2.999500	3.578200	-10.732000	25.283495	0.000935	20.759487
971.264854	-2.988000	3.577600	-10.689000	25.303782	0.000938	20.758045
972.267740	-3.021100	3.575800	-10.801000	25.323911	0.000933	20.767350
973.266939	-2.995600	3.576100	-10.712000	25.359800	0.000934	20.761186
974.267213	-3.013000	3.575000	-10.770000	25.402073	0.000934	20.754321
975.265558	-3.007300	3.575600	-10.752000	25.421680	0.000933	20.755990
976.264780	-3.009000	3.575200	-10.756000	25.449686	0.000933	20.762777
977.271998	-2.987900	3.574900	-10.680000	25.449243	0.000931	20.765177
978.270155	-3.001100	3.573400	-10.721000	25.453488	0.000931	20.766121
979.268956	-2.983200	3.575300	-10.665000	25.485818	0.000930	20.753067
980.270149	-2.996900	3.574700	-10.712000	25.512431	0.000931	20.746601
981.271128	-2.997300	3.573700	-10.710000	25.521948	0.000933	20.736243
982.270463	-3.006700	3.573200	-10.743000	25.495856	0.000931	20.743707
983.267310	-3.003600	3.572900	-10.731000	25.493589	0.000928	20.729101
984.268021	-3.025300	3.571900	-10.804000	25.512426	0.000929	20.738061
985.269623	-2.979700	3.573900	-10.648000	25.493560	0.000928	20.739030
986.269925	-2.995000	3.572100	-10.698000	25.485656	0.000928	20.746266
987.272200	-2.996600	3.570700	-10.699000	25.490451	0.000927	20.752978
988.267035	-2.996300	3.572000	-10.701000	25.498749	0.000927	20.755147
989.268877	-2.992200	3.571700	-10.686000	25.498174	0.000928	20.750302
990.267092	-3.004900	3.571100	-10.730000	25.489925	0.000925	20.727319
991.270917	-2.992300	3.571500	-10.686000	25.469268	0.000926	20.738818
992.270099	-2.987000	3.571000	-10.665000	25.475731	0.000924	20.746731
993.270969	-3.006400	3.570100	-10.732000	25.450303	0.000925	20.760551
994.271035	-2.989600	3.570000	-10.671000	25.480822	0.000925	20.745679
995.273467	-2.985600	3.569200	-10.656000	25.464144	0.000923	20.751216
996.274761	-2.998200	3.569400	-10.701000	25.461606	0.000922	20.724484
997.269433	-2.997700	3.569400	-10.699000	25.494062	0.000921	20.735267
998.272182	-2.983200	3.569100	-10.646000	25.511006	0.000921	20.735687
999.271800	-2.996700	3.567800	-10.691000	25.532298	0.000921	20.735257
1000.273460	-2.970700	3.567900	-10.598000	25.566690	0.000921	20.733761
1001.273169	-3.011200	3.567600	-10.742000	25.578247	0.000920	20.718814
1002.272511	-3.005600	3.567000	-10.719000	25.537963	0.000920	20.730990
1003.273360	-2.994700	3.566300	-10.679000	25.541141	0.000917	20.746509
1004.270433	-2.994200	3.566800	-10.678000	25.550608	0.000919	20.726145
1005.274749	-3.001100	3.566600	-10.703000	25.583579	0.000919	20.741714
1006.272500	-3.035200	3.565500	-10.821000	25.601746	0.000919	20.726767
1007.274670	-2.993700	3.563800	-10.668000	25.592156	0.000918	20.732309
1008.271235	-3.012700	3.565200	-10.740000	25.606811	0.000916	20.733751
1009.274282	-2.979900	3.566300	-10.626000	25.624574	0.000914	20.749222
1010.274219	-3.012100	3.564400	-10.736000	25.619332	0.000916	20.742060
1011.275244	-3.016500	3.564600	-10.752000	25.648750	0.000914	20.733199
1012.275477	-2.994800	3.564700	-10.675000	25.636549	0.000914	20.731376
1013.269866	-3.009600	3.563200	-10.722000	25.598308	0.000916	20.735644
1014.276007	-2.984400	3.563600	-10.634000	25.573955	0.000914	20.722090
1015.274127	-3.010200	3.562100	-10.722000	25.585955	0.000913	20.732246
1016.275532	-3.022000	3.562300	-10.763000	25.577658	0.000913	20.730551
1017.277831	-2.977600	3.563800	-10.610000	25.576512	0.000913	20.753583
1018.276116	-2.985800	3.562700	-10.636000	25.574329	0.000911	20.741433
1019.274730	-3.011700	3.561600	-10.725000	25.574751	0.000909	20.734270
1020.278120	-3.013900	3.561100	-10.732000	25.595697	0.000911	20.735866
1021.277657	-3.001900	3.560000	-10.686000	25.598653	0.000909	20.730299
1022.277419	-2.998800	3.561100	-10.678000	25.583147	0.000910	20.728477
1023.277462	-2.987400	3.560500	-10.635000	25.584986	0.000910	20.716573
1024.273447	-3.019600	3.559700	-10.747000	25.537330	0.000909	20.738414
1025.277979	-2.998200	3.558700	-10.667000	25.499754	0.000908	20.725335
1026.278757	-3.004100	3.559100	-10.690000	25.505597	0.000906	20.711761
1027.278255	-3.018900	3.557600	-10.738000	25.496380	0.000907	20.717679
1028.277511	-3.000300	3.559400	-10.678000	25.495333	0.000905	20.704772
1029.280639	-3.002700	3.558400	-10.683000	25.487360	0.000903	20.709094
1030.279051	-2.983800	3.558500	-10.616000	25.468591	0.000906	20.723438
1031.280460	-3.016700	3.555900	-10.726000	25.468793	0.000905	20.706570
1032.279392	-2.996100	3.556500	-10.654000	25.533709	0.000903	20.705853
1033.277838	-3.016700	3.556000	-10.727000	25.516108	0.000904	20.716153
1034.284957	-2.982400	3.557700	-10.609000	25.489170	0.000903	20.723241
1035.281065	-3.017300	3.555600	-10.727000	25.520283	0.000901	20.718449
1036.281003	-3.009500	3.557300	-10.704000	25.486386	0.000901	20.710487
1037.282288	-2.986400	3.556200	-10.620000	25.473470	0.000900	20.705577
1038.283563	-2.997800	3.554100	-10.653000	25.479328	0.000902	20.713831
1039.281245	-2.988200	3.556400	-10.626000	25.463599	0.000899	20.724589
1040.284229	-3.012800	3.554700	-10.709000	25.481837	0.000901	20.729153
1041.286979	-3.002900	3.554600	-10.673000	25.470505	0.000898	20.706392
1042.287064	-3.016700	3.551900	-10.712000	25.483106	0.000899	20.712883
1043.283733	-3.014600	3.551900	-10.706000	25.492451	0.000898	20.705197
1044.281295	-3.001900	3.552900	-10.665000	25.477813	0.000899	20.709465
1045.281475	-3.001800	3.554100	-10.666000	25.512675	0.000898	20.709386
1046.283892	-2.998800	3.553000	-10.654000	25.516998	0.000897	20.708986
1047.284437	-2.988300	3.553300	-10.617000	25.561852	0.000896	20.724634
1048.285474	-2.993800	3.552800	-10.635000	25.579645	0.000895	20.710260
1049.285226	-2.982100	3.553800	-10.596000	25.561724	0.000895	20.699848
1050.282676	-2.997000	3.552500	-10.645000	25.546267	0.000895	20.708981
1051.281765	-3.001100	3.549600	-10.652000	25.544550	0.000896	20.711051
1052.284945	-3.028500	3.550200	-10.750000	25.525418	0.000895	20.694681
1053.289351	-2.993700	3.550100	-10.627000	25.504191	0.000893	20.704659
1054.284930	-2.999100	3.550400	-10.647000	25.497778	0.000894	20.709125
1055.289021	-3.015400	3.548100	-10.698000	25.492884	0.000891	20.703261
1056.294866	-3.003200	3.550600	-10.662000	25.505406	0.000894	20.705880
1057.288868	-3.005500	3.550000	-10.669000	25.512661	0.000891	20.691827
1058.287295	-2.982700	3.550000	-10.587000	25.499987	0.000890	20.720352
1059.284595	-2.988100	3.547900	-10.599000	25.474288	0.000890	20.711615
1060.287355	-3.011700	3.549200	-10.687000	25.467432	0.000890	20.703306
1061.283773	-2.993500	3.548000	-10.619000	25.426101	0.000888	20.718229
1062.287969	-3.005000	3.548100	-10.661000	25.447025	0.000888	20.706522
1063.285568	-3.002000	3.547200	-10.648000	25.456522	0.000888	20.703257
1064.286527	-2.994600	3.546800	-10.620000	25.455898	0.000888	20.702156
1065.289452	-2.990900	3.546900	-10.607000	25.438998	0.000886	20.698461
1066.291126	-2.988000	3.545400	-10.592000	25.437704	0.000886	20.691471
1067.291623	-2.990200	3.545100	-10.600000	25.392398	0.000886	20.691022
1068.293730	-3.002900	3.545200	-10.644000	25.397892	0.000887	20.700807
1069.292569	-3.014100	3.543100	-10.679000	25.381188	0.000885	20.689723
1070.289277	-2.993900	3.544000	-10.610000	25.417051	0.000882	20.687327
1071.288305	-2.988000	3.544200	-10.589000	25.429805	0.000881	20.704877
1072.292575	-2.999600	3.541900	-10.623000	25.415359	0.000882	20.705544
1073.293864	-2.973800	3.543500	-10.537000	25.418467	0.000884	20.689698
1074.294425	-3.008700	3.543300	-10.660000	25.442352	0.000881	20.692820
1075.292338	-2.998500	3.542000	-10.618000	25.460237	0.000882	20.693710
1076.294247	-2.981200	3.542200	-10.558000	25.480599	0.000881	20.682862
1077.295128	-3.001000	3.541500	-10.627000	25.512676	0.000879	20.687574
1078.295848	-3.012000	3.542300	-10.668000	25.562601	0.000878	20.691244
1079.294740	-3.022100	3.542000	-10.703000	25.583296	0.000881	20.691640
1080.295438	-3.000100	3.541500	-10.624000	25.576691	0.000876	20.689748
1081.293032	-3.011100	3.540900	-10.661000	25.567347	0.000878	20.711185
1082.293403	-3.012700	3.540100	-10.664000	25.590333	0.000878	20.693492
1083.295832	-3.003100	3.538200	-10.624000	25.572569	0.000875	20.703153
1084.298123	-2.995900	3.539200	-10.603000	25.552292	0.000877	20.691323
1085.294267	-3.003300	3.539400	-10.628000	25.548839	0.000875	20.695443
1086.296795	-2.990800	3.538900	-10.583000	25.551073	0.000873	20.679192
1087.297703	-3.003100	3.538700	-10.626000	25.601442	0.000873	20.698960
1088.300910	-3.004700	3.539700	-10.635000	25.588223	0.000874	20.695640
1089.297990	-3.012300	3.537400	-10.655000	25.599751	0.000874	20.691570
1090.296577	-2.992700	3.537000	-10.584000	25.605568	0.000872	20.686033
1091.294952	-3.025900	3.535700	-10.697000	25.631161	0.000871	20.697512
1092.296589	-2.978300	3.537400	-10.534000	25.640008	0.000871	20.690750
1093.310308	-2.984300	3.537000	-10.554000	25.653580	0.000870	20.693951
1094.301363	-2.990300	3.536900	-10.575000	25.623985	0.000873	20.687460
1095.300027	-2.998000	3.536300	-10.601000	25.582198	0.000870	20.700969
1096.305370	-3.016400	3.535500	-10.663000	25.595914	0.000868	20.696726
1097.299347	-3.010400	3.533800	-10.637000	25.584977	0.000870	20.702812
1098.299802	-2.998900	3.534100	-10.597000	25.635989	0.000870	20.691930
1099.302665	-3.031800	3.533600	-10.712000	25.661413	0.000868	20.679532
1100.297434	-3.000300	3.534800	-10.605000	25.665338	0.000867	20.701493
1101.295609	-3.002600	3.533600	-10.609000	25.643724	0.000867	20.689742
1102.298576	-3.015800	3.532200	-10.651000	25.647054	0.000870	20.694508
1103.295918	-2.987100	3.533100	-10.552000	25.670860	0.000865	20.707988
1104.297721	-3.023100	3.531300	-10.674000	25.676648	0.000866	20.690566
1105.300351	-3.002900	3.532500	-10.606000	25.705695	0.000866	20.682283
1106.298891	-2.983800	3.531600	-10.536000	25.734270	0.000865	20.705770
1107.297232	-2.995700	3.533100	-10.583000	25.722336	0.000865	20.707534
1108.301160	-2.985300	3.531400	-10.541000	25.735784	0.000864	20.692117
1109.301651	-3.004700	3.531800	-10.611000	25.719139	0.000862	20.719971
1110.300851	-2.990100	3.530400	-10.555000	25.725896	0.000861	20.686452
1111.297767	-2.984400	3.532900	-10.542000	25.688081	0.000862	20.701576
1112.298553	-2.964200	3.532100	-10.469000	25.725851	0.000861	20.696839
1113.298487	-2.989700	3.531400	-10.557000	25.697104	0.000860	20.686456
1114.302309	-3.011600	3.530200	-10.630000	25.733104	0.000860	20.689425
1115.301704	-3.016100	3.528800	-10.642000	25.765557	0.000858	20.696893
1116.303122	-3.017900	3.528200	-10.647000	25.763915	0.000860	20.699511
1117.303511	-3.009800	3.528400	-10.618000	25.817854	0.000858	20.693001
1118.305723	-3.000000	3.529100	-10.587000	25.842173	0.000857	20.697516
1119.302482	-2.994500	3.528300	-10.565000	25.841976	0.000857	20.717234
1120.300520	-3.000200	3.526100	-10.577000	25.860213	0.000859	20.712793
1121.302989	-2.965900	3.527400	-10.461000	25.816463	0.000855	20.702035
1122.302794	-2.983500	3.527100	-10.522000	25.803797	0.000856	20.695949
1123.300076	-2.988400	3.525500	-10.533000	25.747698	0.000855	20.696024
1124.303203	-2.997100	3.525400	-10.565000	25.757336	0.000853	20.716137
1125.302856	-3.013900	3.523700	-10.619000	25.759996	0.000854	20.703635
1126.304787	-3.023200	3.523900	-10.652000	25.780992	0.000853	20.686317
1127.301430	-2.994400	3.523900	-10.552000	25.836420	0.000853	20.716394
1128.304912	-3.008000	3.524400	-10.600000	25.778651	0.000854	20.709099
1129.300560	-3.019800	3.523400	-10.638000	25.772893	0.000850	20.690037
1130.301983	-3.014300	3.522800	-10.618000	25.786882	0.000851	20.702193
1131.307038	-2.999600	3.523200	-10.567000	25.760271	0.000850	20.687789
1132.304940	-2.994500	3.522700	-10.547000	25.774634	0.000850	20.707908
1133.304502	-3.007800	3.521300	-10.589000	25.782678	0.000849	20.710773
1134.302195	-2.968500	3.523200	-10.458000	25.780397	0.000849	20.713223
1135.312204	-3.013000	3.521200	-10.609000	25.794685	0.000850	20.724257
1136.306638	-3.019500	3.520300	-10.628000	25.779699	0.000846	20.705409
1137.304280	-2.994900	3.520700	-10.543000	25.764770	0.000847	20.709854
1138.307246	-2.973700	3.521500	-10.470000	25.760202	0.000847	20.700997
1139.302301	-3.004300	3.520500	-10.575000	25.745268	0.000844	20.702119
1140.306574	-2.992900	3.520700	-10.536000	25.721567	0.000846	20.701071
1141.313401	-2.995200	3.519100	-10.539000	25.726337	0.000845	20.690214
1142.310047	-3.004700	3.518800	-10.572000	25.759951	0.000844	20.705962
1143.305562	-2.990800	3.519100	-10.523000	25.773916	0.000841	20.709083
1144.311731	-2.984200	3.518200	-10.497000	25.796524	0.000842	20.705240
1145.312866	-2.985900	3.517800	-10.501000	25.763781	0.000843	20.709809
1146.311646	-2.999600	3.516500	-10.547000	25.793294	0.000841	20.710530
1147.312539	-3.020200	3.516800	-10.621000	25.772770	0.000842	20.703191
1148.311634	-2.989400	3.516400	-10.509000	25.784350	0.000840	20.708658
1149.309464	-3.003900	3.517000	-10.564000	25.773665	0.000840	20.712625
1150.316330	-3.008200	3.515900	-10.576000	25.764032	0.000841	20.720019
1151.315074	-3.014000	3.514500	-10.591000	25.775189	0.000839	20.716052
1152.312396	-2.978700	3.517500	-10.476000	25.792178	0.000840	20.694235
1153.318871	-3.007300	3.514500	-10.567000	25.806092	0.000839	20.704420
1154.312234	-2.992300	3.514700	-10.516000	25.815282	0.000837	20.706539
1155.314193	-2.993500	3.515500	-10.523000	25.833646	0.000837	20.703649
1156.318941	-2.982600	3.513900	-10.480000	25.859882	0.000837	20.717203
1157.315393	-3.002500	3.512100	-10.545000	25.818045	0.000836	20.701254
1158.319857	-2.996500	3.512500	-10.523000	25.816983	0.000836	20.710619
1159.318304	-2.996500	3.512800	-10.525000	25.835519	0.000836	20.703634
1160.323111	-3.002000	3.513300	-10.546000	25.853898	0.000834	20.705027
1161.316826	-2.986100	3.512700	-10.488000	25.903910	0.000834	20.731087
1162.321207	-2.983000	3.512500	-10.477000	25.896132	0.000835	20.701935
1163.315746	-2.976500	3.511900	-10.452000	25.886721	0.000831	20.697697
1164.319536	-3.019300	3.509400	-10.594000	25.836114	0.000833	20.705180
1165.317720	-3.017600	3.510400	-10.592000	25.809661	0.000832	20.720334
1166.315670	-2.976500	3.510700	-10.449000	25.760220	0.000833	20.726148
1167.315399	-2.997300	3.510100	-10.519000	25.712818	0.000830	20.711250
1168.323857	-3.023400	3.507500	-10.603000	25.695376	0.000831	20.711749
1169.319685	-3.003800	3.510000	-10.542000	25.705290	0.000827	20.715543
1170.319964	-2.991400	3.508600	-10.495000	25.702486	0.000830	20.717469
1171.322322	-3.006100	3.508500	-10.546000	25.715803	0.000828	20.730371
1172.320334	-2.981300	3.507000	-10.454000	25.743531	0.000827	20.724083
1173.316863	-2.995500	3.508400	-10.508000	25.772154	0.000826	20.694984
1174.321283	-2.996600	3.507100	-10.508000	25.770340	0.000828	20.720191
1175.321781	-3.015900	3.506600	-10.575000	25.802035	0.000826	20.721683
1176.323232	-3.005200	3.505800	-10.534000	25.845539	0.000824	20.741203
1177.322680	-2.990500	3.505900	-10.483000	25.854060	0.000824	20.727950
1178.318258	-2.993400	3.506900	-10.496000	25.846980	0.000824	20.705664
1179.324062	-2.999700	3.504600	-10.512000	25.862384	0.000824	20.723510
1180.321202	-2.983900	3.505600	-10.459000	25.874853	0.000825	20.705688
1181.323042	-2.975400	3.504000	-10.425000	25.893186	0.000823	20.730272
1182.322687	-2.979700	3.504700	-10.442000	25.892144	0.000824	20.725431
1183.321775	-2.991500	3.504300	-10.481000	25.907518	0.000822	20.735661
1184.321981	-2.995100	3.503800	-10.493000	25.901481	0.000824	20.752356
1185.318447	-2.999400	3.504500	-10.509000	25.888118	0.000820	20.725180
1186.322185	-2.994000	3.502000	-10.483000	25.874479	0.000822	20.729497
1187.317235	-3.005100	3.502100	-10.522000	25.843302	0.000821	20.731843
1188.318791	-2.990100	3.503500	-10.475000	25.826625	0.000820	20.715563
1189.321150	-2.993400	3.501000	-10.479000	25.800294	0.000821	20.740798
1190.321965	-3.043300	3.500400	-10.651000	25.772543	0.000819	20.743742
1191.322671	-2.999300	3.502000	-10.501000	25.816240	0.000819	20.725995
1192.326897	-2.989300	3.499300	-10.459000	25.828139	0.000818	20.736052
1193.320664	-2.979600	3.500100	-10.428000	25.869823	0.000818	20.749477
1194.318278	-3.012000	3.498100	-10.534000	25.856062	0.000817	20.737548
1195.322260	-2.983800	3.499500	-10.440000	25.825578	0.000816	20.745333
1196.322022	-2.945700	3.499800	-10.309000	25.807665	0.000813	20.715484
1197.319503	-2.993200	3.500400	-10.477000	25.766545	0.000816	20.745303
1198.322483	-2.993300	3.498500	-10.471000	25.765128	0.000816	20.755735
1199.323684	-3.000400	3.498400	-10.496000	25.746822	0.000814	20.756313
1200.320611	-2.994900	3.496700	-10.471000	25.737474	0.000814	20.742656
1201.321321	-2.980400	3.496500	-10.420000	25.787983	0.000813	20.736492
1202.324751	-3.003500	3.497000	-10.503000	25.791838	0.000813	20.738941
1203.337866	-3.004000	3.495500	-10.499000	25.829374	0.000812	20.726860
1204.330842	-3.007100	3.496100	-10.512000	25.859410	0.000813	20.743283
1205.324574	-3.005200	3.497100	-10.508000	25.833347	0.000810	20.745076
1206.322103	-2.991600	3.496000	-10.457000	25.778862	0.000812	20.737287
1207.323702	-3.017100	3.494000	-10.540000	25.743882	0.000809	20.735815
1208.321806	-3.017700	3.494000	-10.543000	25.765001	0.000809	20.742330
1209.325583	-3.009900	3.494300	-10.516000	25.761048	0.000809	20.761593
1210.323545	-3.006500	3.493000	-10.500000	25.786911	0.000809	20.751063
1211.321449	-2.993600	3.492700	-10.455000	25.810188	0.000809	20.736512
1212.325174	-3.000200	3.492900	-10.478000	25.800723	0.000808	20.753083
1213.325593	-3.013000	3.492000	-10.520000	25.802144	0.000807	20.744078
1214.322673	-3.020300	3.490500	-10.541000	25.817519	0.000809	20.780387
1215.321799	-2.987500	3.491800	-10.432000	25.845889	0.000805	20.747719
1216.324744	-3.012500	3.490700	-10.514000	25.846234	0.000803	20.743797
1217.323432	-2.978600	3.491300	-10.398000	25.887794	0.000805	20.752357
1218.330193	-3.014600	3.490000	-10.520000	25.921650	0.000803	20.756022
1219.330947	-3.009700	3.489200	-10.500000	25.896093	0.000804	20.754056
1220.326882	-3.006300	3.489300	-10.489000	25.862110	0.000803	20.757850
1221.327872	-3.011400	3.489300	-10.507000	25.874008	0.000802	20.756052
1222.332715	-3.008000	3.488200	-10.490000	25.910651	0.000801	20.742602
1223.325818	-2.988600	3.489200	-10.426000	25.881157	0.000800	20.756595
1224.325160	-2.988000	3.489100	-10.424000	25.886904	0.000801	20.765214
1225.330100	-3.008500	3.487800	-10.491000	25.874234	0.000799	20.770030
1226.327921	-2.985400	3.488800	-10.413000	25.844945	0.000800	20.765263
1227.329718	-2.993400	3.486800	-10.434000	25.780922	0.000798	20.765436
1228.333975	-2.999900	3.487400	-10.461000	25.791253	0.000801	20.753528
1229.329151	-3.011700	3.485400	-10.495000	25.805940	0.000800	20.748366
1230.329209	-3.007500	3.486100	-10.483000	25.845988	0.000798	20.747818
1231.333030	-2.990500	3.485300	-10.421000	25.855428	0.000799	20.756353
1232.328260	-3.017600	3.485100	-10.515000	25.872400	0.000798	20.754436
1233.324717	-3.001900	3.486200	-10.463000	25.870257	0.000797	20.748490
1234.330409	-3.002500	3.485200	-10.463000	25.900022	0.000796	20.739036
1235.325644	-3.007000	3.483100	-10.473000	25.920297	0.000795	20.768888
1236.328148	-3.013100	3.483200	-10.494000	25.932839	0.000795	20.777695
1237.336421	-2.986100	3.483500	-10.402000	25.951894	0.000793	20.758906
1238.331317	-2.997600	3.482500	-10.438000	25.946103	0.000793	20.764942
1239.329242	-3.004000	3.482200	-10.459000	25.893718	0.000794	20.763050
1240.331653	-2.971200	3.483200	-10.348000	25.898340	0.000793	20.760580
1241.326882	-3.000100	3.480400	-10.440000	25.915183	0.000794	20.761380
1242.329587	-2.992100	3.481500	-10.416000	25.931481	0.000791	20.753097
1243.331542	-2.980400	3.481900	-10.375000	25.958157	0.000793	20.768518
1244.329615	-3.006700	3.479800	-10.462000	25.981932	0.000792	20.753522
1245.329606	-2.999100	3.480000	-10.436000	25.986356	0.000790	20.762235
1246.326876	-2.995700	3.478900	-10.421000	25.961220	0.000791	20.758318
1247.329092	-2.998500	3.480400	-10.435000	25.985584	0.000790	20.771891
1248.327142	-2.979900	3.480500	-10.370000	25.973043	0.000790	20.773516
1249.329207	-3.023800	3.479600	-10.520000	25.974135	0.000789	20.771767
1250.327986	-3.024400	3.477500	-10.516000	25.972866	0.000788	20.784244
1251.330572	-2.984300	3.477600	-10.376000	26.010897	0.000790	20.791633
1252.332498	-2.964800	3.478400	-10.312000	26.014250	0.000787	20.786466
1253.329162	-2.999400	3.477300	-10.428000	26.048056	0.000789	20.781552
1254.333346	-3.011900	3.473700	-10.461000	26.044330	0.000786	20.765954
1255.332666	-2.997400	3.475300	-10.415000	26.034066	0.000785	20.775556
1256.333668	-2.999400	3.474900	-10.422000	26.044621	0.000785	20.773358
1257.329478	-2.981500	3.475700	-10.362000	26.034686	0.000785	20.781868
1258.334320	-3.005600	3.473500	-10.438000	25.969455	0.000785	20.784136
1259.329499	-3.012700	3.474200	-10.465000	25.937957	0.000783	20.778095
1260.330983	-2.978000	3.475500	-10.349000	25.950248	0.000782	20.788072
1261.334654	-3.006400	3.472400	-10.438000	25.964702	0.000782	20.790740
1262.330951	-3.004100	3.474100	-10.435000	25.962140	0.000782	20.785796
1263.328610	-2.999400	3.472500	-10.414000	25.961791	0.000782	20.793506
1264.333325	-2.959800	3.474500	-10.282000	25.992916	0.000781	20.782101
1265.330204	-2.993700	3.471500	-10.392000	26.022471	0.000782	20.798993
1266.329462	-2.993600	3.470700	-10.389000	26.039111	0.000779	20.796272
1267.334956	-2.999200	3.471400	-10.410000	26.029496	0.000778	20.800362
1268.331803	-3.003600	3.470100	-10.421000	26.023135	0.000781	20.794445
1269.334223	-3.004200	3.470100	-10.423000	26.003314	0.000778	20.791600
1270.336839	-2.987900	3.471500	-10.372000	26.000128	0.000778	20.800728
1271.333903	-3.020400	3.468400	-10.475000	26.009415	0.000776	20.798678
1272.343268	-3.006200	3.467900	-10.424000	26.034029	0.000777	20.794011
1273.337242	-3.003500	3.468800	-10.416000	26.056312	0.000776	20.786528
1274.332770	-2.989100	3.469900	-10.371000	26.097659	0.000775	20.785397
1275.332543	-2.976900	3.468400	-10.323000	26.141692	0.000777	20.821581
1276.339593	-3.000800	3.467600	-10.405000	26.135631	0.000773	20.786094
1277.336226	-3.018200	3.465900	-10.460000	26.163447	0.000775	20.794130
1278.334514	-3.005500	3.465800	-10.415000	26.150132	0.000776	20.804932
1279.342445	-3.005400	3.468000	-10.422000	26.157284	0.000772	20.811644
1280.337893	-2.991700	3.466400	-10.369000	26.145659	0.000775	20.819877
1281.335910	-3.007700	3.465000	-10.421000	26.092783	0.000772	20.791878
1282.340038	-2.988400	3.465500	-10.355000	26.069901	0.000771	20.799707
1283.336655	-2.995700	3.465600	-10.380000	26.050734	0.000773	20.810320
1284.334898	-3.040500	3.462700	-10.527000	26.062626	0.000771	20.797138
1285.338918	-3.005600	3.462700	-10.406000	26.022488	0.000771	20.795691
1286.338680	-2.995400	3.464000	-10.375000	25.998390	0.000769	20.800877
1287.337969	-3.003800	3.462800	-10.399000	25.998340	0.000770	20.798457
1288.342738	-3.010000	3.462600	-10.422000	26.013885	0.000769	20.800799
1289.342305	-2.997300	3.461500	-10.374000	26.025064	0.000769	20.807763
1290.339365	-2.982300	3.463100	-10.327000	26.015178	0.000769	20.796408
1291.347286	-3.006000	3.461300	-10.404000	25.997716	0.000767	20.800201
1292.345485	-2.997400	3.460600	-10.372000	25.962443	0.000768	20.801747
1293.342051	-3.001800	3.460300	-10.385000	26.007947	0.000768	20.803841
1294.342139	-3.011800	3.460400	-10.421000	26.040284	0.000767	20.807882
1295.342591	-3.021800	3.459000	-10.452000	26.047564	0.000763	20.838429
1296.344663	-2.986100	3.459900	-10.330000	26.058989	0.000763	20.808657
1297.350792	-3.000800	3.459100	-10.379000	26.081537	0.000763	20.827045
1298.344841	-3.011100	3.458500	-10.414000	26.067754	0.000763	20.811300
1299.345585	-2.982400	3.457400	-10.311000	26.045225	0.000764	20.843665
1300.348982	-3.008500	3.457100	-10.399000	26.049915	0.000763	20.827041
1301.348703	-3.022300	3.455700	-10.443000	26.056000	0.000762	20.807077
1302.345554	-2.980300	3.457100	-10.302000	26.050563	0.000759	20.812520
1303.345459	-2.980100	3.457000	-10.302000	26.047629	0.000760	20.814313
1304.344219	-2.965700	3.457100	-10.252000	26.037940	0.000760	20.822122
1305.344923	-2.974800	3.456700	-10.282000	26.044920	0.000760	20.827238
1306.351196	-2.993500	3.454800	-10.339000	26.046459	0.000759	20.833051
1307.349392	-3.012100	3.453300	-10.401000	26.078151	0.000757	20.839764
1308.349004	-2.991800	3.454300	-10.333000	26.111926	0.000759	20.820596
1309.346915	-3.002900	3.454200	-10.371000	26.104951	0.000757	20.815484
1310.351859	-2.991000	3.453800	-10.330000	26.108997	0.000757	20.832350
1311.346480	-3.003900	3.453000	-10.371000	26.138151	0.000756	20.835092
1312.351771	-3.019000	3.453100	-10.423000	26.133264	0.000756	20.815484
1313.346240	-3.001400	3.451500	-10.359000	26.121516	0.000755	20.832128
1314.344183	-3.012900	3.452400	-10.401000	26.118562	0.000755	20.820151
1315.349012	-2.978600	3.453200	-10.285000	26.141960	0.000755	20.829436
1316.346648	-3.013600	3.450000	-10.396000	26.141488	0.000754	20.839393
1317.344306	-2.992500	3.451000	-10.326000	26.151299	0.000753	20.831708
1318.350295	-2.969300	3.450000	-10.242000	26.139399	0.000753	20.849622
1319.348967	-3.005500	3.450200	-10.368000	26.152616	0.000753	20.835876
1320.344697	-3.004500	3.448100	-10.359000	26.163818	0.000754	20.825796
1321.350416	-2.984500	3.449600	-10.294000	26.165804	0.000752	20.853394
1322.349878	-2.997700	3.448200	-10.335000	26.164417	0.000751	20.836355
1323.348538	-3.000300	3.449300	-10.348000	26.160446	0.000751	20.841373
1324.349394	-3.003400	3.446900	-10.352000	26.125777	0.000752	20.835935
1325.348861	-3.017300	3.446100	-10.397000	26.100718	0.000750	20.840627
1326.347862	-3.001500	3.446600	-10.345000	26.107870	0.000750	20.849235
1327.353882	-3.018800	3.444700	-10.398000	26.104124	0.000748	20.834092
1328.351591	-3.006600	3.445000	-10.356000	26.095109	0.000748	20.831198
1329.348504	-3.010400	3.445700	-10.372000	26.111999	0.000749	20.847220
1330.349806	-3.005200	3.445600	-10.354000	26.111458	0.000749	20.851418
1331.349888	-2.997100	3.444500	-10.322000	26.124100	0.000747	20.838043
1332.348927	-3.012900	3.443500	-10.374000	26.121618	0.000747	20.843609
1333.350440	-3.003600	3.443400	-10.341000	26.059926	0.000745	20.834255
1334.351746	-2.973300	3.445100	-10.241000	26.044348	0.000747	20.841362
1335.350951	-2.987600	3.442800	-10.285000	26.062183	0.000746	20.846953
1336.352088	-3.021000	3.441400	-10.395000	26.077711	0.000744	20.869666
1337.354668	-3.001400	3.442000	-10.330000	26.108980	0.000743	20.849402
1338.354527	-2.987700	3.442500	-10.284000	26.136747	0.000745	20.831785
1339.352563	-2.996000	3.441000	-10.307000	26.150584	0.000743	20.838576
1340.353174	-3.002200	3.440200	-10.328000	26.145462	0.000745	20.851921
1341.351082	-2.983900	3.442400	-10.270000	26.147252	0.000741	20.836650
1342.353348	-3.001400	3.439900	-10.324000	26.145590	0.000742	20.863902
1343.353574	-3.013700	3.439700	-10.365000	26.154629	0.000741	20.849279
1344.353843	-2.990000	3.441400	-10.289000	26.147826	0.000740	20.837228
1345.357245	-2.982300	3.440900	-10.261000	26.160395	0.000740	20.828046
1346.356812	-2.983600	3.438700	-10.258000	26.190073	0.000740	20.848384
1347.356747	-2.979300	3.439600	-10.245000	26.190992	0.000738	20.845041
1348.357798	-3.021300	3.437500	-10.384000	26.153268	0.000738	20.832264
1349.353944	-2.999000	3.437700	-10.309000	26.138762	0.000737	20.839974
1350.354586	-2.997400	3.437100	-10.302000	26.149645	0.000738	20.831468
1351.354412	-3.017500	3.437500	-10.371000	26.168893	0.000736	20.840852
1352.353888	-2.993200	3.436900	-10.286000	26.166760	0.000736	20.833493
1353.354529	-2.994700	3.435500	-10.288000	26.174413	0.000735	20.840235
1354.354105	-2.989800	3.436100	-10.272000	26.153375	0.000734	20.842329
1355.352295	-3.006400	3.435300	-10.327000	26.187104	0.000734	20.837814
1356.354437	-2.998000	3.434400	-10.294000	26.175233	0.000734	20.830154
1357.353715	-3.005100	3.434000	-10.318000	26.157774	0.000734	20.837740
1358.357059	-3.003900	3.433500	-10.313000	26.114115	0.000733	20.809519
1359.355858	-2.994000	3.434700	-10.283000	26.081107	0.000733	20.840837
1360.360782	-3.000000	3.434000	-10.300000	26.096778	0.000731	20.822444
1361.357584	-3.012100	3.433100	-10.339000	26.107238	0.000730	20.815411
1362.352166	-3.011600	3.431600	-10.332000	26.147471	0.000729	20.844931
1363.358276	-2.982900	3.432700	-10.237000	26.156864	0.000728	20.828766
1364.355587	-3.000600	3.432100	-10.298000	26.155744	0.000729	20.827640
1365.353209	-2.993300	3.432000	-10.272000	26.161337	0.000729	20.825200
1366.361391	-2.993600	3.432300	-10.273000	26.121847	0.000728	20.824874
1367.356835	-3.026300	3.429800	-10.378000	26.125578	0.000727	20.828148
1368.357486	-3.002000	3.429000	-10.293000	26.089011	0.000729	20.795674
1369.361013	-3.007700	3.428500	-10.311000	26.111794	0.000726	20.810506
1370.358666	-2.969600	3.430400	-10.184000	26.164871	0.000725	20.807414
1371.355126	-2.983100	3.429500	-10.228000	26.192293	0.000725	20.789450
1372.360406	-2.983600	3.430700	-10.234000	26.186778	0.000726	20.811409
1373.358576	-3.000600	3.428300	-10.286000	26.189609	0.000725	20.800504
1374.356851	-2.983800	3.428600	-10.230000	26.146768	0.000723	20.810560
1375.369927	-3.012200	3.426700	-10.321000	26.122932	0.000724	20.809843
1376.361772	-2.997200	3.427200	-10.271000	26.095484	0.000724	20.805971
1377.362141	-2.984200	3.427600	-10.228000	26.103240	0.000724	20.797170
1378.364594	-2.992700	3.427500	-10.256000	26.102970	0.000723	20.811122
1379.363862	-2.990200	3.425500	-10.242000	26.138136	0.000721	20.799041
1380.359922	-3.009400	3.425400	-10.308000	26.178869	0.000722	20.797772
1381.362399	-2.999700	3.424100	-10.270000	26.158952	0.000720	20.793880
1382.362054	-2.994900	3.424300	-10.255000	26.157492	0.000720	20.792887
1383.363970	-3.009200	3.423500	-10.301000	26.195816	0.000720	20.793465
1384.368805	-3.013900	3.423400	-10.317000	26.196740	0.000719	20.807195
1385.368197	-2.993300	3.422600	-10.244000	26.177290	0.000719	20.800453
1386.364734	-2.985300	3.423400	-10.219000	26.197954	0.000716	20.793242
1387.365345	-2.990400	3.422900	-10.235000	26.194709	0.000716	20.783344
1388.366367	-3.000300	3.423400	-10.270000	26.197865	0.000716	20.801687
1389.365413	-3.002900	3.421400	-10.273000	26.225040	0.000715	20.792011
1390.367570	-2.998000	3.421400	-10.256000	26.241304	0.000715	20.790337
1391.366056	-3.007100	3.420300	-10.282000	26.198892	0.000714	20.801771
1392.366743	-3.019600	3.418600	-10.321000	26.207385	0.000712	20.797504
1393.365971	-2.976800	3.421400	-10.184000	26.189804	0.000713	20.786000
1394.370006	-3.000800	3.420100	-10.261000	26.169641	0.000714	20.786129
1395.369283	-2.988700	3.419800	-10.219000	26.166613	0.000716	20.802052
1396.371625	-2.997100	3.419400	-10.247000	26.139918	0.000713	20.805100
1397.371334	-3.009700	3.417900	-10.286000	26.149955	0.000713	20.800012
1398.366996	-3.001900	3.418400	-10.261000	26.148170	0.000710	20.775460
1399.374629	-3.022800	3.416700	-10.327000	26.148416	0.000711	20.791828
1400.373300	-3.015700	3.417400	-10.305000	26.140748	0.000709	20.789813
1401.373235	-3.010900	3.416000	-10.284000	26.110002	0.000710	20.794954
1402.371509	-3.003300	3.416000	-10.257000	26.082287	0.000710	20.794134
1403.369223	-2.999600	3.417800	-10.250000	26.088324	0.000709	20.785975
1404.370859	-2.998100	3.415600	-10.239000	26.121754	0.000707	20.775943
1405.368473	-2.960300	3.418200	-10.118000	26.166514	0.000707	20.799582
1406.373517	-3.000300	3.413100	-10.240000	26.167979	0.000710	20.787303
1407.371133	-3.003700	3.416100	-10.260000	26.141657	0.000709	20.807795
1408.373905	-3.011900	3.413500	-10.279000	26.114641	0.000709	20.777331
1409.369965	-3.000900	3.414800	-10.246000	26.120702	0.000709	20.784843
1410.372296	-3.000200	3.414000	-10.241000	26.135606	0.000710	20.781326
1411.370990	-3.012100	3.413600	-10.281000	26.132770	0.000707	20.791279
1412.373978	-2.986800	3.414400	-10.197000	26.089139	0.000705	20.774940
1413.375682	-2.975700	3.413700	-10.157000	26.117379	0.000706	20.776288
1414.374778	-2.978700	3.412200	-10.163000	26.155773	0.000706	20.770771
1415.375800	-2.997900	3.411400	-10.226000	26.168022	0.000705	20.786399
1416.374477	-2.987100	3.412000	-10.190000	26.176393	0.000707	20.780585
1417.375418	-2.978900	3.412300	-10.164000	26.198595	0.000705	20.773497
1418.372663	-3.004800	3.410300	-10.247000	26.211782	0.000706	20.770628
1419.375701	-3.010300	3.408600	-10.260000	26.210116	0.000703	20.783178
1420.375558	-3.003400	3.410100	-10.241000	26.241483	0.000702	20.790518
1421.376157	-2.973400	3.410600	-10.140000	26.278881	0.000704	20.763614
1422.379951	-3.013600	3.409900	-10.275000	26.292927	0.000703	20.791007
1423.382187	-3.015400	3.408800	-10.278000	26.269567	0.000703	20.768479
1424.377697	-3.012700	3.408200	-10.267000	26.244556	0.000702	20.748559
1425.376712	-2.993700	3.405800	-10.194000	26.184105	0.000701	20.776955
1426.377494	-3.006800	3.407000	-10.243000	26.165285	0.000701	20.770371
1427.377839	-2.983900	3.407100	-10.165000	26.133119	0.000701	20.790681
1428.382630	-2.981300	3.407700	-10.158000	26.138403	0.000700	20.778447
1429.375701	-2.982200	3.406100	-10.157000	26.129688	0.000699	20.765422
1430.379803	-2.987000	3.406500	-10.174000	26.107529	0.000697	20.770184
1431.381162	-2.986300	3.404900	-10.167000	26.138953	0.000696	20.764301
1432.379324	-2.990500	3.404600	-10.180000	26.181697	0.000694	20.771690
1433.380511	-2.992300	3.404500	-10.186000	26.195125	0.000695	20.779494
1434.383164	-2.984500	3.404100	-10.159000	26.225201	0.000692	20.762775
1435.384173	-3.014600	3.402700	-10.257000	26.249761	0.000694	20.776550
1436.379086	-2.996700	3.403600	-10.198000	26.278046	0.000694	20.773681
1437.383384	-3.010300	3.403600	-10.246000	26.301012	0.000694	20.776847
1438.380490	-3.004600	3.403000	-10.224000	26.324676	0.000691	20.765541
1439.384763	-2.986400	3.403800	-10.163000	26.355043	0.000692	20.785155
1440.386839	-3.013800	3.402200	-10.253000	26.362420	0.000693	20.771231
1441.388572	-2.988100	3.402400	-10.166000	26.368749	0.000692	20.772851
1442.387013	-3.011000	3.401500	-10.241000	26.336840	0.000690	20.753583
1443.387254	-3.007900	3.400700	-10.228000	26.318735	0.000690	20.780433
1444.387810	-3.017900	3.399900	-10.258000	26.323753	0.000690	20.786424
1445.385758	-3.013800	3.398900	-10.243000	26.296039	0.000691	20.758572
1446.386609	-2.988100	3.400900	-10.160000	26.315236	0.000688	20.766485
1447.389742	-3.016600	3.398300	-10.251000	26.320479	0.000689	20.760849
1448.386537	-3.016100	3.397500	-10.246000	26.339523	0.000687	20.761496
1449.386410	-2.990000	3.398800	-10.161000	26.368573	0.000688	20.763190
1450.384819	-3.000200	3.396600	-10.189000	26.405494	0.000686	20.777064
1451.389938	-2.998600	3.398200	-10.189000	26.409165	0.000688	20.769848
1452.384682	-3.013700	3.398100	-10.239000	26.423843	0.000686	20.754255
1453.390141	-2.991800	3.396300	-10.159000	26.461858	0.000685	20.766860
1454.385666	-2.983500	3.396900	-10.134000	26.462399	0.000685	20.758394
1455.392193	-2.986500	3.396000	-10.140000	26.431141	0.000684	20.759693
1456.388146	-2.982400	3.395900	-10.128000	26.383267	0.000683	20.749034
1457.389080	-2.997800	3.395000	-10.176000	26.344232	0.000683	20.741097
1458.385769	-3.008600	3.393700	-10.210000	26.278577	0.000684	20.751455
1459.387626	-3.017400	3.393400	-10.238000	26.267927	0.000683	20.749760
1460.389743	-2.987700	3.396000	-10.145000	26.262707	0.000682	20.771543
1461.385858	-3.037600	3.391500	-10.302000	26.246862	0.000681	20.774585
1462.389122	-2.989400	3.394000	-10.145000	26.259105	0.000680	20.774561
1463.387363	-2.995900	3.393300	-10.165000	26.307997	0.000680	20.761106
1464.388223	-3.021200	3.392600	-10.248000	26.289218	0.000679	20.763571
1465.389301	-3.023000	3.392200	-10.252000	26.303874	0.000679	20.758385
1466.387449	-2.999600	3.392100	-10.173000	26.325744	0.000677	20.747647
1467.390107	-3.014900	3.391800	-10.224000	26.313949	0.000677	20.752863
1468.386317	-2.992600	3.390000	-10.143000	26.302011	0.000678	20.758884
1469.390696	-3.012900	3.390300	-10.214000	26.273172	0.000677	20.753135
1470.387627	-2.980900	3.389900	-10.104000	26.290830	0.000676	20.761872
1471.390065	-2.990600	3.388400	-10.132000	26.325370	0.000676	20.761497
1472.391159	-2.968700	3.389900	-10.063000	26.361000	0.000675	20.751786
1473.390663	-3.000400	3.388400	-10.165000	26.407455	0.000677	20.773346
1474.391103	-3.001900	3.388000	-10.169000	26.394177	0.000674	20.746249
1475.387667	-3.011300	3.387500	-10.200000	26.430527	0.000674	20.748171
1476.389938	-2.994900	3.389000	-10.148000	26.420542	0.000674	20.762791
1477.385289	-3.003400	3.388000	-10.175000	26.410630	0.000673	20.762786
1478.392693	-3.015100	3.386900	-10.211000	26.369320	0.000671	20.755881
1479.387474	-2.991400	3.386400	-10.129000	26.348484	0.000673	20.738258
1480.389342	-3.001400	3.386600	-10.164000	26.278008	0.000669	20.739028
1481.392476	-2.988300	3.386600	-10.119000	26.260275	0.000670	20.742071
1482.387942	-3.004500	3.385100	-10.169000	26.278057	0.000670	20.757571
1483.389230	-2.994100	3.386700	-10.139000	26.296974	0.000669	20.749080
1484.394882	-3.011100	3.385300	-10.192000	26.311006	0.000668	20.740896
1485.392403	-2.981100	3.383600	-10.085000	26.350460	0.000670	20.750676
1486.391171	-2.980800	3.384500	-10.088000	26.376059	0.000669	20.759808
1487.396226	-3.001500	3.384000	-10.156000	26.351452	0.000665	20.768743
1488.388278	-2.987600	3.383300	-10.106000	26.350258	0.000668	20.760905
1489.389639	-3.012200	3.383000	-10.189000	26.338729	0.000666	20.755956
1490.403981	-3.005100	3.383000	-10.165000	26.334385	0.000666	20.734045
1491.389390	-3.001900	3.382500	-10.152000	26.360136	0.000667	20.744280
1492.394270	-2.973600	3.382300	-10.057000	26.411781	0.000665	20.765840
1493.393075	-3.002800	3.382400	-10.156000	26.410341	0.000664	20.748745
1494.392685	-2.991600	3.381300	-10.114000	26.446789	0.000666	20.734643
1495.396405	-2.988000	3.380900	-10.100000	26.454460	0.000663	20.736663
1496.396296	-3.007800	3.379900	-10.165000	26.437924	0.000661	20.742803
1497.394511	-3.006100	3.379400	-10.157000	26.443988	0.000662	20.736569
1498.395619	-2.982300	3.379500	-10.078000	26.462135	0.000662	20.748172
1499.397674	-2.987200	3.379900	-10.096000	26.454789	0.000660	20.737468
1500.394492	-3.002600	3.378800	-10.144000	26.485972	0.000661	20.755536
1501.398622	-2.989900	3.378700	-10.100000	26.494930	0.000660	20.758377
1502.401144	-2.977400	3.378900	-10.059000	26.510674	0.000660	20.748122
1503.399676	-2.988900	3.378900	-10.098000	26.499328	0.000658	20.728656
1504.396435	-3.023900	3.376200	-10.209000	26.475216	0.000659	20.733344
1505.402930	-3.007300	3.378400	-10.159000	26.447314	0.000657	20.723317
1506.401130	-2.978700	3.376500	-10.057000	26.449103	0.000656	20.733176
1507.399783	-2.975700	3.377400	-10.049000	26.449546	0.000656	20.749268
1508.399764	-2.997000	3.375900	-10.116000	26.439447	0.000655	20.731057
1509.400326	-2.988600	3.375600	-10.087000	26.431943	0.000655	20.718773
1510.402938	-3.017300	3.374700	-10.181000	26.378988	0.000655	20.727189
1511.402627	-2.988600	3.375900	-10.088000	26.340547	0.000655	20.726014
1512.403920	-3.010400	3.374500	-10.157000	26.280476	0.000654	20.739138
1513.401541	-2.998400	3.375000	-10.119000	26.254054	0.000652	20.729180
1514.405980	-2.992600	3.373300	-10.094000	26.252220	0.000655	20.715957
1515.401462	-3.013800	3.372000	-10.162000	26.276883	0.000654	20.730311
1516.405182	-3.022000	3.370600	-10.185000	26.276107	0.000651	20.731902
1517.408907	-2.988300	3.372100	-10.076000	26.274273	0.000652	20.735749
1518.409049	-3.002100	3.371000	-10.119000	26.263298	0.000651	20.737048
1519.405314	-3.005200	3.370700	-10.128000	26.283365	0.000650	20.719281
1520.411373	-3.005000	3.371800	-10.132000	26.271825	0.000648	20.726176
1521.405505	-3.027600	3.369300	-10.200000	26.283169	0.000650	20.737576
1522.404770	-3.015300	3.369500	-10.159000	26.251684	0.000649	20.731540
1523.405933	-3.013500	3.369400	-10.153000	26.262983	0.000648	20.739103
1524.406677	-2.985300	3.369200	-10.057000	26.229508	0.000648	20.711625
1525.404325	-2.986200	3.369300	-10.061000	26.265151	0.000647	20.727055
1526.410987	-2.995700	3.368300	-10.090000	26.306252	0.000645	20.729006
1527.407118	-2.998500	3.368100	-10.098000	26.354798	0.000644	20.726111
1528.405016	-2.984400	3.368600	-10.051000	26.376874	0.000644	20.733600
1529.408835	-2.977800	3.367600	-10.027000	26.369772	0.000645	20.718401
1530.412669	-2.987000	3.367600	-10.057000	26.374544	0.000644	20.731258
1531.411867	-3.006900	3.366700	-10.122000	26.393292	0.000643	20.715012
1532.407008	-3.007500	3.366500	-10.123000	26.385326	0.000645	20.713170
1533.406084	-3.016800	3.365300	-10.152000	26.389645	0.000643	20.720357
1534.408678	-2.996800	3.365500	-10.085000	26.384289	0.000643	20.703592
1535.412244	-3.033800	3.363600	-10.202000	26.400004	0.000643	20.717492
1536.408939	-2.991700	3.365700	-10.068000	26.413936	0.000641	20.725330
1537.406820	-3.001500	3.364700	-10.098000	26.427573	0.000641	20.706792
1538.410289	-3.018500	3.363900	-10.152000	26.469784	0.000641	20.700381
1539.410739	-3.009900	3.364100	-10.124000	26.465189	0.000641	20.715204
1540.408797	-2.992700	3.364700	-10.068000	26.449253	0.000637	20.711514
1541.426765	-3.002300	3.362600	-10.094000	26.439371	0.000639	20.719126
1542.410641	-3.006000	3.362400	-10.105000	26.419661	0.000638	20.718281
1543.407397	-2.994000	3.363100	-10.067000	26.407621	0.000636	20.710921
1544.411096	-2.970200	3.362900	-9.987800	26.376833	0.000638	20.726920
1545.410526	-3.000600	3.362600	-10.089000	26.409911	0.000635	20.705162
1546.408819	-2.996500	3.362100	-10.074000	26.414456	0.000638	20.715895
1547.410206	-3.008800	3.360100	-10.109000	26.400628	0.000638	20.696305
1548.407325	-3.015500	3.361100	-10.134000	26.431882	0.000636	20.713021
1549.409499	-2.972500	3.361600	-9.991600	26.408372	0.000635	20.731118
1550.413301	-2.986200	3.360700	-10.034000	26.383639	0.000633	20.713371
1551.409895	-3.035300	3.357700	-10.191000	26.378405	0.000635	20.728500
1552.411296	-2.995900	3.358100	-10.060000	26.351769	0.000631	20.703625
1553.417304	-3.001100	3.358300	-10.078000	26.371210	0.000632	20.714630
1554.412415	-2.989100	3.357900	-10.036000	26.371132	0.000632	20.701274
1555.410630	-2.997100	3.357900	-10.063000	26.369053	0.000632	20.701081
1556.414779	-3.017800	3.357600	-10.131000	26.345017	0.000634	20.712487
1557.412207	-2.996600	3.356700	-10.057000	26.331482	0.000631	20.723541
1558.413445	-2.994800	3.358100	-10.056000	26.357981	0.000631	20.715085
1559.415901	-3.014900	3.354500	-10.113000	26.372626	0.000630	20.703250
1560.411149	-2.994000	3.356400	-10.048000	26.419758	0.000629	20.712689
1561.408998	-2.987600	3.356500	-10.026000	26.418343	0.000627	20.697989
1562.413353	-3.011100	3.353700	-10.098000	26.464181	0.000628	20.706129
1563.413664	-2.999500	3.354600	-10.061000	26.489507	0.000627	20.705507
1564.412083	-2.982800	3.354400	-10.005000	26.547257	0.000626	20.714719
1565.417531	-3.015000	3.354100	-10.111000	26.545847	0.000624	20.695756
1566.417428	-3.021700	3.353700	-10.133000	26.555202	0.000626	20.723654
1567.415399	-2.999900	3.354000	-10.060000	26.575637	0.000625	20.721911
1568.422454	-2.999200	3.352900	-10.055000	26.518316	0.000624	20.715025
1569.413215	-2.997000	3.353100	-10.048000	26.488725	0.000624	20.708989
1570.418278	-3.009700	3.352000	-10.088000	26.452033	0.000623	20.722844
1571.417475	-3.017100	3.350200	-10.106000	26.459035	0.000623	20.726089
1572.417854	-3.013100	3.350200	-10.093000	26.474229	0.000623	20.699633
1573.416670	-2.989900	3.351900	-10.021000	26.466612	0.000623	20.705728
1574.423378	-3.002200	3.351400	-10.061000	26.458323	0.000618	20.705457
1575.419564	-2.989900	3.350100	-10.015000	26.501869	0.000622	20.701811
1576.418960	-3.005200	3.350700	-10.068000	26.532761	0.000621	20.711053
1577.418828	-2.988300	3.349700	-10.008000	26.491280	0.000620	20.718195
1578.416978	-3.009500	3.349600	-10.079000	26.497756	0.000617	20.707635
1579.416556	-2.993200	3.349100	-10.023000	26.505087	0.000618	20.709788
1580.417573	-2.992100	3.348400	-10.018000	26.546377	0.000617	20.729482
1581.417655	-3.013800	3.348800	-10.091000	26.585203	0.000617	20.698334
1582.419309	-3.000300	3.348100	-10.046000	26.615120	0.000617	20.690949
1583.422662	-3.014100	3.345900	-10.083000	26.615297	0.000617	20.716259
1584.421117	-2.976800	3.347700	-9.964300	26.577321	0.000617	20.722655
1585.419619	-3.014400	3.346500	-10.087000	26.520570	0.000616	20.708756
1586.423452	-3.001000	3.346200	-10.040000	26.485196	0.000613	20.706864
1587.427575	-2.990200	3.346400	-10.006000	26.436784	0.000615	20.719844
1588.422050	-3.014100	3.345100	-10.081000	26.401033	0.000613	20.722793
1589.425579	-3.016600	3.344500	-10.087000	26.436961	0.000612	20.711961
1590.422037	-3.001700	3.345000	-10.039000	26.420110	0.000613	20.741019
1591.422407	-2.987600	3.346200	-9.995900	26.404743	0.000611	20.704236
1592.422844	-3.024500	3.343300	-10.110000	26.422940	0.000611	20.711146
1593.423666	-2.981400	3.344600	-9.970000	26.470768	0.000612	20.744995
1594.422473	-3.005300	3.342800	-10.046000	26.476631	0.000611	20.702521
1595.428662	-3.010300	3.342800	-10.062000	26.518815	0.000609	20.717898
1596.421764	-3.021300	3.342800	-10.098000	26.548135	0.000609	20.733620
1597.426452	-2.991000	3.341800	-9.994300	26.577286	0.000608	20.699859
1598.426028	-3.006300	3.340200	-10.039000	26.559962	0.000608	20.720852
1599.422720	-3.004200	3.340900	-10.035000	26.543010	0.000607	20.717562
1600.425690	-3.009900	3.340200	-10.053000	26.560713	0.000607	20.728246
1601.432659	-2.987500	3.342000	-9.983200	26.607582	0.000606	20.709926
1602.430265	-3.006900	3.339800	-10.042000	26.579163	0.000606	20.724032
1603.424435	-3.009600	3.339700	-10.050000	26.578696	0.000604	20.715028
1604.430648	-3.007600	3.339800	-10.043000	26.582494	0.000604	20.697982
1605.423706	-3.014100	3.339300	-10.065000	26.597392	0.000603	20.720545
1606.427063	-3.000800	3.338500	-10.017000	26.586794	0.000604	20.717478
1607.430886	-3.006900	3.338300	-10.037000	26.568422	0.000602	20.720348
1608.427262	-3.003200	3.338600	-10.025000	26.546626	0.000601	20.707446
1609.428506	-3.017300	3.337800	-10.070000	26.518004	0.000601	20.714237
1610.430169	-3.008700	3.336200	-10.036000	26.486679	0.000600	20.724477
1611.425730	-3.003800	3.337300	-10.024000	26.541521	0.000600	20.732661
1612.428643	-2.989100	3.336700	-9.972800	26.541649	0.000600	20.719039
1613.432626	-2.996500	3.336700	-9.997600	26.595574	0.000600	20.731046
1614.430389	-2.993800	3.336400	-9.986500	26.578868	0.000598	20.737961
1615.433455	-3.003100	3.335400	-10.016000	26.546002	0.000598	20.728157
1616.428682	-3.004200	3.336500	-10.022000	26.535772	0.000598	20.729253
1617.430441	-2.992600	3.334700	-9.978700	26.563676	0.000597	20.715576
1618.431795	-3.016700	3.334000	-10.056000	26.572147	0.000596	20.724092
1619.432971	-2.996800	3.334300	-9.992000	26.576795	0.000596	20.728764
1620.432451	-3.015600	3.333500	-10.051000	26.610304	0.000596	20.708394
1621.433430	-3.016600	3.331700	-10.049000	26.656954	0.000595	20.714988
1622.432549	-2.988900	3.333400	-9.961400	26.676989	0.000596	20.724699
1623.431547	-2.997000	3.331300	-9.983200	26.715418	0.000594	20.718288
1624.432238	-2.984400	3.332300	-9.943200	26.685307	0.000593	20.733061
1625.433967	-2.984300	3.331700	-9.940900	26.684589	0.000594	20.735660
1626.432942	-2.989600	3.330500	-9.955700	26.715889	0.000592	20.722555
1627.436867	-3.000200	3.330500	-9.991100	26.714450	0.000592	20.742446
1628.434104	-3.005000	3.331200	-10.009000	26.672179	0.000591	20.720812
1629.431467	-2.988700	3.330900	-9.953900	26.615015	0.000592	20.731624
1630.432614	-3.000500	3.330000	-9.990700	26.578519	0.000591	20.719118
1631.433439	-2.991900	3.328800	-9.958900	26.530111	0.000590	20.731150
1632.434265	-3.008900	3.329300	-10.015000	26.538676	0.000591	20.724585
1633.433933	-3.005900	3.327700	-10.002000	26.539600	0.000587	20.731678
1634.434045	-3.014900	3.326800	-10.029000	26.524628	0.000587	20.731802
1635.433408	-2.993400	3.327800	-9.960000	26.562148	0.000588	20.739646
1636.431037	-2.996200	3.327000	-9.966700	26.592979	0.000585	20.729387
1637.436830	-3.007300	3.326700	-10.003000	26.624459	0.000585	20.750127
1638.436210	-2.992100	3.326400	-9.952200	26.663262	0.000586	20.722753
1639.441743	-3.010400	3.326300	-10.012000	26.677711	0.000586	20.742021
1640.437922	-3.007600	3.326900	-10.005000	26.700601	0.000587	20.737057
1641.437623	-2.996900	3.325800	-9.966300	26.678114	0.000586	20.725830
1642.437789	-2.994400	3.324400	-9.953800	26.697083	0.000585	20.722615
1643.438663	-3.025600	3.324000	-10.056000	26.689787	0.000581	20.738040
1644.435238	-3.002300	3.324800	-9.980200	26.702099	0.000582	20.743780
1645.434218	-3.028500	3.323600	-10.064000	26.747832	0.000582	20.708202
1646.439301	-3.006100	3.322700	-9.986100	26.773269	0.000581	20.739468
1647.437917	-3.019900	3.322600	-10.033000	26.772105	0.000580	20.724072
1648.437764	-2.995400	3.323800	-9.955600	26.779975	0.000582	20.729614
1649.438215	-3.002300	3.322900	-9.975300	26.789136	0.000580	20.730765
1650.440094	-2.975300	3.324700	-9.889500	26.811203	0.000578	20.741572
1651.437941	-3.032500	3.320100	-10.068000	26.820664	0.000578	20.729747
1652.438735	-2.994000	3.321600	-9.943400	26.823818	0.000578	20.746195
1653.440726	-2.999900	3.320600	-9.959400	26.807961	0.000577	20.749218
1654.436949	-3.033800	3.318900	-10.068000	26.809773	0.000576	20.763369
1655.443819	-2.977100	3.320500	-9.884700	26.826505	0.000577	20.754587
1656.443400	-2.977500	3.320800	-9.886700	26.816179	0.000579	20.753688
1657.439929	-2.984000	3.319800	-9.905000	26.816326	0.000576	20.761423
1658.439488	-2.991200	3.319500	-9.928300	26.799900	0.000573	20.733052
1659.443148	-3.004200	3.317700	-9.966100	26.758718	0.000575	20.755185
1660.436893	-3.046000	3.317700	-10.105000	26.755795	0.000574	20.755565
1661.442457	-2.997900	3.318700	-9.948100	26.735933	0.000573	20.750769
1662.444185	-2.990600	3.318100	-9.921600	26.732411	0.000572	20.753392
1663.438685	-2.984900	3.318500	-9.904000	26.724148	0.000571	20.748878
1664.450396	-2.998500	3.317100	-9.944700	26.742909	0.000572	20.743084
1665.441642	-3.005700	3.317600	-9.970500	26.778108	0.000569	20.750498
1666.443546	-3.001600	3.315900	-9.952000	26.820949	0.000571	20.754217
1667.442648	-3.008000	3.317300	-9.977300	26.805637	0.000570	20.758736
1668.443330	-3.033300	3.314600	-10.053000	26.796874	0.000568	20.750873
1669.439719	-3.019000	3.315700	-10.009000	26.770661	0.000566	20.759606
1670.441703	-3.005300	3.314900	-9.961100	26.768131	0.000568	20.750424
1671.440416	-2.992400	3.315700	-9.920500	26.780392	0.000567	20.749949
1672.438211	-2.997400	3.314000	-9.932600	26.808791	0.000566	20.746260
1673.439159	-3.005900	3.313300	-9.959000	26.787196	0.000564	20.752049
1674.444911	-2.978000	3.315300	-9.871700	26.831324	0.000565	20.756588
1675.443341	-3.012100	3.313000	-9.978000	26.859844	0.000564	20.762505
1676.442605	-3.034900	3.313000	-10.053000	26.869231	0.000565	20.769573
1677.443047	-2.994000	3.312500	-9.915500	26.882533	0.000565	20.775362
1678.441270	-2.996500	3.313400	-9.926600	26.937079	0.000565	20.773786
1679.447203	-2.996600	3.311900	-9.923300	26.864834	0.000562	20.752824
1680.442670	-2.988900	3.311900	-9.897300	26.841458	0.000563	20.761562
1681.439416	-2.988200	3.310800	-9.892800	26.849548	0.000561	20.749307
1682.442343	-2.985200	3.309700	-9.877400	26.818522	0.000561	20.766476
1683.443951	-3.005000	3.309600	-9.944100	26.776846	0.000561	20.770092
1684.445610	-2.973400	3.311500	-9.845900	26.768411	0.000559	20.769198
1685.439373	-3.003000	3.309700	-9.938300	26.728496	0.000558	20.746136
1686.443554	-2.999100	3.309700	-9.924300	26.708810	0.000561	20.772339
1687.442151	-3.007700	3.309600	-9.952500	26.711738	0.000559	20.754420
1688.448748	-2.990000	3.308700	-9.891700	26.736788	0.000557	20.776760
1689.450176	-2.995700	3.308400	-9.910100	26.759720	0.000556	20.766150
1690.446970	-3.015300	3.306500	-9.968700	26.803952	0.000558	20.766526
1691.449625	-2.994900	3.306900	-9.903000	26.819687	0.000557	20.773811
1692.451188	-3.000500	3.306600	-9.920300	26.857515	0.000555	20.756845
1693.448782	-2.993000	3.307200	-9.897200	26.832670	0.000554	20.769795
1694.445693	-3.001100	3.304700	-9.917100	26.843216	0.000556	20.778503
1695.451837	-3.015800	3.306100	-9.969700	26.816410	0.000554	20.766723
1696.445907	-3.016200	3.304600	-9.966800	26.802709	0.000553	20.766224
1697.444876	-3.015200	3.304000	-9.960800	26.833416	0.000551	20.763908
1698.448801	-3.025900	3.303500	-9.994500	26.835259	0.000552	20.781408
1699.449834	-2.998300	3.305600	-9.910600	26.835376	0.000553	20.772043
1700.448795	-3.002700	3.305000	-9.922600	26.831879	0.000550	20.776587
1701.449841	-3.012700	3.301800	-9.945900	26.787078	0.000550	20.781803
1702.445802	-3.013800	3.303300	-9.954700	26.826642	0.000548	20.793133
1703.447982	-3.011200	3.301500	-9.939600	26.791671	0.000549	20.760342
1704.457349	-2.999200	3.302000	-9.901800	26.790011	0.000549	20.784277
1705.450207	-2.992900	3.303400	-9.885200	26.779739	0.000547	20.790071
1706.449941	-3.005000	3.300900	-9.918500	26.796569	0.000547	20.773801
1707.452431	-3.012500	3.301300	-9.943800	26.789196	0.000545	20.782035
1708.449771	-3.009800	3.300600	-9.933200	26.788375	0.000547	20.788797
1709.451489	-3.023400	3.300600	-9.978200	26.826333	0.000545	20.773382
1710.455081	-3.013700	3.299700	-9.943600	26.854151	0.000546	20.781911
1711.448972	-3.005100	3.299300	-9.913500	26.863165	0.000547	20.791923
1712.448989	-3.011100	3.298700	-9.931000	26.825488	0.000543	20.771109
1713.455160	-2.990200	3.300000	-9.867000	26.771752	0.000544	20.761651
1714.450618	-2.993900	3.299400	-9.876700	26.738592	0.000543	20.789478
1715.457026	-3.003300	3.299000	-9.905300	26.779675	0.000543	20.787162
1716.456947	-3.010800	3.296700	-9.924400	26.759151	0.000542	20.802088
1717.452847	-3.004600	3.296400	-9.903400	26.755599	0.000539	20.788086
1718.451286	-3.022800	3.297200	-9.965600	26.780447	0.000541	20.770393
1719.456012	-3.004500	3.295300	-9.899800	26.777151	0.000540	20.776563
1720.454828	-2.982900	3.296700	-9.832300	26.781189	0.000540	20.789631
1721.448967	-3.006500	3.295000	-9.904800	26.780403	0.000540	20.788367
1722.454422	-2.998700	3.296000	-9.882300	26.786858	0.000538	20.787271
1723.451816	-3.000800	3.296800	-9.891300	26.777676	0.000537	20.774246
1724.453909	-3.009700	3.293700	-9.911100	26.761367	0.000538	20.785824
1725.452642	-3.011900	3.293500	-9.918600	26.811533	0.000537	20.795485
1726.453849	-2.966000	3.294400	-9.769800	26.837892	0.000535	20.792116
1727.458689	-2.989000	3.293000	-9.840500	26.856087	0.000536	20.787651
1728.459432	-3.001800	3.293300	-9.885200	26.885898	0.000534	20.788703
1729.456016	-2.976400	3.293500	-9.802200	26.870238	0.000534	20.790027
1730.454891	-2.994200	3.293400	-9.858900	26.868922	0.000534	20.801505
1731.453145	-2.994800	3.290600	-9.852900	26.906602	0.000533	20.775857
1732.451818	-3.003900	3.291100	-9.885700	26.890520	0.000532	20.788135
1733.455873	-2.994000	3.292200	-9.856600	26.894641	0.000530	20.793228
1734.451094	-3.030700	3.289800	-9.969600	26.858956	0.000534	20.798122
1735.462209	-2.994900	3.289500	-9.850900	26.862060	0.000530	20.791761
1736.457240	-3.011000	3.290600	-9.906800	26.864148	0.000531	20.801447
1737.452706	-3.007500	3.288800	-9.890500	26.892564	0.000529	20.792561
1738.454860	-2.986700	3.290600	-9.826800	26.888020	0.000530	20.832088
1739.452024	-3.008500	3.288300	-9.892200	26.920630	0.000528	20.804662
1740.455302	-2.974800	3.290300	-9.786900	26.931879	0.000527	20.812179
1741.458015	-2.989500	3.287700	-9.827900	26.984138	0.000528	20.804514
1742.455949	-3.005400	3.287200	-9.877800	27.011785	0.000526	20.805763
1743.453595	-2.979300	3.289000	-9.797100	27.012930	0.000527	20.791741
1744.456788	-2.997300	3.287200	-9.852000	27.043056	0.000525	20.812080
1745.459265	-2.999400	3.286600	-9.856400	27.064591	0.000523	20.806237
1746.458902	-3.006000	3.286500	-9.878200	27.091494	0.000525	20.811483
1747.458610	-3.010900	3.285700	-9.890700	27.101272	0.000522	20.818946
1748.455894	-3.011200	3.285800	-9.893000	27.066708	0.000524	20.821642
1749.456158	-2.966000	3.288400	-9.752400	27.037079	0.000523	20.802751
1750.457509	-3.015900	3.284700	-9.905600	27.044996	0.000523	20.797436
1751.457213	-3.007200	3.283900	-9.874500	27.074203	0.000521	20.807369
1752.456130	-3.015700	3.284700	-9.904800	27.092241	0.000521	20.807966
1753.460374	-2.998800	3.284200	-9.847300	27.079291	0.000521	20.825762
1754.457126	-2.985400	3.284000	-9.802700	27.099588	0.000519	20.805872
1755.460961	-3.001600	3.284200	-9.857400	27.116585	0.000520	20.811587
1756.460667	-2.988000	3.283000	-9.808000	27.099888	0.000517	20.813760
1757.455473	-2.970500	3.283400	-9.750400	27.103365	0.000519	20.817257
1758.460607	-2.995600	3.282400	-9.831500	27.106572	0.000516	20.836603
1759.464097	-2.969400	3.282300	-9.745500	27.142451	0.000517	20.825747
1760.459797	-3.012000	3.279500	-9.876500	27.168355	0.000515	20.826671
1761.456126	-2.990400	3.280800	-9.809900	27.187830	0.000514	20.836302
1762.463699	-3.008100	3.279800	-9.864500	27.204310	0.000513	20.820635
1763.462749	-3.011900	3.280500	-9.878800	27.199032	0.000515	20.814378
1764.460275	-2.972100	3.280100	-9.747800	27.221060	0.000513	20.813301
1765.464256	-3.022600	3.280300	-9.914200	27.222131	0.000511	20.834766
1766.460621	-2.986600	3.278000	-9.789300	27.225681	0.000513	20.814630
1767.464402	-2.996500	3.278300	-9.822200	27.285321	0.000511	20.837635
1768.457510	-3.017200	3.278200	-9.888400	27.224395	0.000512	20.829457
1769.463269	-3.020200	3.278100	-9.899700	27.198001	0.000511	20.827091
1770.461390	-3.000600	3.276600	-9.830400	27.197259	0.000510	20.854793
1771.472125	-3.009100	3.276100	-9.857900	27.216410	0.000510	20.835650
1772.460797	-2.992700	3.275700	-9.801900	27.222244	0.000511	20.830613
1773.465110	-2.997400	3.275400	-9.816100	27.170742	0.000508	20.830494
1774.468393	-3.019100	3.273900	-9.883200	27.190940	0.000508	20.822834
1775.461002	-2.974900	3.275500	-9.743000	27.158687	0.000508	20.830697
1776.460931	-2.981100	3.275000	-9.762300	27.170050	0.000507	20.846867
1777.466714	-2.987300	3.273800	-9.778500	27.192781	0.000507	20.837014
1778.462326	-2.979200	3.274600	-9.755500	27.171970	0.000505	20.813238
1779.467626	-2.994300	3.273800	-9.800600	27.143905	0.000506	20.842383
1780.466607	-2.994300	3.273900	-9.800300	27.157277	0.000503	20.839236
1781.462402	-2.987300	3.272600	-9.775100	27.164329	0.000503	20.831631
1782.461653	-3.006900	3.272200	-9.838100	27.166991	0.000503	20.851377
1783.467981	-3.014600	3.272800	-9.864400	27.143365	0.000502	20.838046
1784.466415	-2.992100	3.272000	-9.788000	27.134138	0.000503	20.848206
1785.464767	-3.007400	3.270300	-9.834700	27.169520	0.000502	20.840644
1786.467161	-3.008000	3.271600	-9.840000	27.158977	0.000500	20.827196
1787.467330	-2.976400	3.271600	-9.735900	27.145512	0.000501	20.836886
1788.464837	-2.982300	3.271000	-9.752800	27.129429	0.000498	20.814073
1789.466904	-2.988100	3.268200	-9.764400	27.173842	0.000498	20.833137
1790.468302	-2.983500	3.270100	-9.755800	27.193106	0.000496	20.844927
1791.464042	-2.987200	3.270600	-9.768800	27.200448	0.000496	20.824811
1792.468319	-2.982000	3.269400	-9.748500	27.244735	0.000497	20.832846
1793.469639	-3.004100	3.270400	-9.822200	27.210279	0.000495	20.840862
1794.468970	-3.008300	3.268900	-9.833200	27.154131	0.000494	20.855037
1795.469072	-2.991400	3.268500	-9.776500	27.136197	0.000495	20.843164
1796.464345	-3.003800	3.268300	-9.816100	27.142846	0.000495	20.825196
1797.468332	-2.986700	3.267500	-9.757600	27.160368	0.000491	20.796352
1798.472748	-3.009400	3.266300	-9.828400	27.187814	0.000491	20.841974
1799.464731	-2.988600	3.266700	-9.761600	27.172306	0.000492	20.831593
1800.468250	-2.988500	3.266300	-9.759300	27.195288	0.000491	20.811560
1801.488885	-3.003600	3.265400	-9.807200	27.218436	0.000492	20.820144
1802.464677	-3.001800	3.264900	-9.797600	27.240420	0.000489	20.829454
1803.466351	-2.989200	3.265300	-9.759300	27.264171	0.000490	20.828215
1804.469958	-3.009400	3.264700	-9.823400	27.273918	0.000486	20.808622
1805.469350	-2.976400	3.264800	-9.715400	27.242586	0.000488	20.838271
1806.466518	-2.988900	3.263300	-9.753300	27.235068	0.000487	20.813166
1807.473431	-3.003600	3.263800	-9.802200	27.248798	0.000485	20.828398
1808.467288	-3.004700	3.263200	-9.804500	27.174512	0.000485	20.791138
1809.469602	-2.975400	3.263500	-9.708900	27.140053	0.000484	20.809111
1810.470594	-3.019400	3.261400	-9.845400	27.115557	0.000485	20.798700
1811.472775	-3.000400	3.262100	-9.785000	27.104597	0.000483	20.830823
1812.472259	-3.002500	3.260500	-9.786900	27.127079	0.000482	20.814554
1813.477261	-2.981800	3.259600	-9.718300	27.126239	0.000483	20.811339
1814.477744	-2.986400	3.261400	-9.738700	27.167971	0.000481	20.810638
1815.473531	-3.014200	3.259100	-9.822700	27.193727	0.000481	20.807146
1816.476840	-2.991900	3.259500	-9.750800	27.167927	0.000482	20.799688
1817.472304	-2.985100	3.260200	-9.731600	27.145121	0.000479	20.794295
1818.471248	-2.982400	3.260800	-9.724300	27.178794	0.000480	20.812041
1819.473825	-3.018000	3.258300	-9.830700	27.222867	0.000479	20.806109
1820.475022	-3.009200	3.257300	-9.801300	27.202817	0.000477	20.813918
1821.474237	-3.000000	3.257600	-9.770900	27.182271	0.000478	20.804632
1822.473669	-3.004700	3.256600	-9.784400	27.172922	0.000474	20.805660
1823.473835	-3.004500	3.255800	-9.781100	27.128509	0.000475	20.793233
1824.472613	-2.983800	3.256500	-9.715900	27.076776	0.000476	20.812802
1825.473513	-2.994700	3.256600	-9.751700	27.019207	0.000473	20.793312
1826.475362	-2.996100	3.255600	-9.753300	26.995229	0.000472	20.802390
1827.472973	-2.983200	3.255700	-9.711200	27.005013	0.000474	20.790418
1828.474086	-3.011800	3.254100	-9.800100	27.037472	0.000471	20.781809
1829.477712	-2.991900	3.253900	-9.734600	27.078466	0.000472	20.797432
1830.472078	-3.017500	3.256600	-9.826000	27.110776	0.000473	20.794365
1831.479032	-3.005100	3.253500	-9.775900	27.138169	0.000471	20.800104
1832.474038	-3.002400	3.254500	-9.770400	27.119507	0.000467	20.796982
1833.475786	-3.008600	3.251800	-9.782400	27.120927	0.000468	20.782763
1834.481126	-3.029000	3.252600	-9.850600	27.119930	0.000469	20.771328
1835.473377	-2.981300	3.253000	-9.696600	27.092590	0.000467	20.779394
1836.478365	-3.018800	3.252100	-9.816700	27.128323	0.000467	20.790675
1837.480775	-2.988700	3.252000	-9.718300	27.138125	0.000466	20.780619
1838.477331	-3.008200	3.251400	-9.778500	27.124532	0.000465	20.774060
1839.478502	-3.028000	3.249400	-9.838900	27.123063	0.000464	20.781118
1840.481307	-3.001100	3.249700	-9.751200	27.146984	0.000464	20.782891
1841.475639	-3.003800	3.249000	-9.758900	27.178894	0.000464	20.771363
1842.478158	-3.000100	3.248600	-9.744800	27.186093	0.000463	20.802312
1843.475288	-3.011700	3.250000	-9.786100	27.228539	0.000464	20.775305
1844.481083	-3.002600	3.249900	-9.757300	27.262907	0.000461	20.791382
1845.478030	-2.971200	3.248700	-9.651500	27.269604	0.000462	20.778679
1846.480080	-2.983100	3.248800	-9.689300	27.284094	0.000460	20.794676
1847.476757	-2.972500	3.249000	-9.656700	27.285680	0.000460	20.791056
1848.476339	-2.994600	3.247400	-9.723500	27.284988	0.000460	20.783722
1849.487329	-3.015500	3.244600	-9.783000	27.248078	0.000458	20.786898
1850.479083	-2.991300	3.247600	-9.712400	27.247754	0.000458	20.767605
1851.476517	-2.990300	3.244700	-9.701500	27.259116	0.000456	20.777612
1852.486614	-3.015400	3.245200	-9.785400	27.287375	0.000458	20.797976
1853.482648	-3.005000	3.245300	-9.751000	27.333514	0.000457	20.791757
1854.481749	-3.006700	3.242900	-9.749500	27.353708	0.000454	20.786468
1855.484190	-2.990200	3.244700	-9.701300	27.370358	0.000454	20.776190
1856.483546	-3.013700	3.243000	-9.771700	27.393924	0.000455	20.779983
1857.481171	-2.989300	3.244100	-9.696100	27.394837	0.000452	20.776634
1858.483814	-3.005700	3.241600	-9.742200	27.349613	0.000451	20.788987
1859.485156	-2.996000	3.242100	-9.712300	27.304968	0.000450	20.764938
1860.487625	-2.994900	3.242600	-9.710900	27.330165	0.000451	20.781277
1861.487930	-3.008700	3.241800	-9.752800	27.340314	0.000452	20.766830
1862.491815	-2.999000	3.240600	-9.716300	27.323291	0.000450	20.764404
1863.489951	-3.006800	3.240800	-9.742200	27.289702	0.000448	20.777557
1864.488234	-2.995800	3.241200	-9.707700	27.308753	0.000449	20.776807
1865.488206	-3.002900	3.240300	-9.728800	27.307491	0.000449	20.764632
1866.483809	-2.975700	3.240900	-9.643200	27.314959	0.000445	20.781627
1867.491246	-2.992300	3.238800	-9.690200	27.328948	0.000448	20.780526
1868.491173	-2.972800	3.240300	-9.631800	27.351126	0.000448	20.777231
1869.489639	-3.006400	3.238100	-9.734500	27.358962	0.000445	20.775631
1870.493734	-2.988600	3.238100	-9.675800	27.383319	0.000443	20.784487
1871.489810	-2.984500	3.238600	-9.664300	27.375208	0.000442	20.779172
1872.488854	-3.035800	3.237100	-9.825000	27.367190	0.000444	20.778219
1873.494000	-3.006100	3.237500	-9.731400	27.328044	0.000442	20.776771
1874.494484	-2.998700	3.236600	-9.704700	27.256071	0.000440	20.757953
1875.485922	-2.980700	3.236600	-9.645900	27.262965	0.000440	20.769155
1876.493455	-2.982400	3.237500	-9.654400	27.289087	0.000439	20.772197
1877.490095	-2.997100	3.235200	-9.695500	27.293978	0.000441	20.766211
1878.486115	-2.999100	3.235500	-9.702700	27.266442	0.000439	20.766962
1879.490737	-3.006000	3.235400	-9.724000	27.218875	0.000440	20.773645
1880.492177	-3.013000	3.235000	-9.746500	27.160365	0.000438	20.789711
1881.491239	-2.986600	3.235600	-9.661300	27.123740	0.000436	20.760461
1882.490278	-2.993800	3.232300	-9.675300	27.085901	0.000438	20.764606
1883.491831	-3.005000	3.233200	-9.714900	27.074232	0.000434	20.767569
1884.488420	-3.008900	3.232200	-9.724500	27.126343	0.000437	20.766398
1885.495470	-2.990400	3.232000	-9.662700	27.167347	0.000435	20.782509
1886.489035	-3.007000	3.231200	-9.715400	27.177026	0.000433	20.750518
1887.490009	-2.999800	3.233000	-9.697300	27.195156	0.000430	20.765434
1888.487888	-3.007500	3.230800	-9.715500	27.233787	0.000433	20.747391
1889.493763	-2.996800	3.231600	-9.683200	27.291295	0.000430	20.776316
1890.491928	-3.005100	3.229900	-9.704300	27.354030	0.000430	20.781101
1891.495018	-2.986700	3.228800	-9.641800	27.383076	0.000431	20.782820
1892.497960	-2.996900	3.229200	-9.676900	27.446699	0.000427	20.774754
1893.488277	-3.000000	3.229500	-9.686200	27.467460	0.000427	20.757235
1894.497162	-3.001400	3.229000	-9.690900	27.423457	0.000426	20.760381
1895.495170	-3.004400	3.227400	-9.695900	27.433924	0.000426	20.758109
1896.493599	-3.008100	3.227400	-9.706400	27.445609	0.000426	20.756114
1897.496211	-2.994200	3.228100	-9.664300	27.452325	0.000426	20.770931
1898.494851	-3.013200	3.225400	-9.717500	27.422510	0.000424	20.758005
1899.491130	-2.989200	3.227200	-9.644800	27.386787	0.000423	20.769010
1900.490228	-3.003000	3.226100	-9.687300	27.334915	0.000424	20.771830
1901.494083	-2.986900	3.226100	-9.635500	27.376693	0.000419	20.761700
1902.493150	-2.985300	3.226900	-9.632800	27.397805	0.000420	20.756385
1903.492206	-2.998900	3.224900	-9.670400	27.396759	0.000421	20.744427
1904.492954	-3.009800	3.225200	-9.705200	27.383194	0.000420	20.763023
1905.495821	-3.022900	3.222600	-9.740200	27.371214	0.000419	20.760929
1906.498438	-2.979200	3.225500	-9.607500	27.426771	0.000417	20.783629
1907.499267	-2.968700	3.223400	-9.567500	27.451137	0.000415	20.760252
1908.496798	-3.022400	3.222200	-9.737500	27.448083	0.000415	20.772828
1909.502753	-3.007300	3.222600	-9.690400	27.475865	0.000415	20.773751
1910.499039	-2.984400	3.221300	-9.613400	27.494029	0.000413	20.730859
1911.493728	-3.016800	3.221300	-9.716200	27.519925	0.000414	20.755017
1912.501085	-2.999200	3.222200	-9.663300	27.550862	0.000415	20.750108
1913.500125	-2.997200	3.220700	-9.652200	27.564174	0.000410	20.756864
1914.497528	-3.007600	3.219600	-9.682200	27.595007	0.000411	20.765602
1915.501301	-3.011900	3.218400	-9.691900	27.616335	0.000410	20.766200
1916.494942	-2.994900	3.218400	-9.637600	27.597019	0.000410	20.752454
1917.499074	-2.997600	3.218700	-9.647600	27.607612	0.000408	20.744146
1918.498413	-2.992700	3.218900	-9.632000	27.619761	0.000409	20.737404
1919.499255	-3.011400	3.218600	-9.691400	27.637226	0.000408	20.747391
1920.499025	-3.005700	3.218200	-9.672200	27.649159	0.000408	20.751338
1921.505812	-3.016400	3.217300	-9.703100	27.674157	0.000407	20.770804
1922.500262	-3.008600	3.216800	-9.677400	27.671635	0.000404	20.759256
1923.499076	-3.015900	3.215900	-9.698500	27.710273	0.000404	20.761153
1924.498562	-2.990200	3.216100	-9.615500	27.688922	0.000405	20.744883
1925.496805	-2.991000	3.215600	-9.616200	27.693241	0.000403	20.742117
1926.499027	-2.997000	3.215200	-9.635400	27.696068	0.000402	20.749230
1927.503811	-2.988600	3.216500	-9.611500	27.701772	0.000403	20.763504
1928.502399	-3.004800	3.214900	-9.658800	27.703686	0.000401	20.751205
1929.499301	-2.995500	3.214700	-9.628300	27.674497	0.000398	20.749333
1930.505112	-3.018600	3.211400	-9.692600	27.631401	0.000399	20.753858
1931.501898	-2.979000	3.213000	-9.570700	27.590507	0.000397	20.748746
1932.497917	-2.979000	3.212900	-9.571000	27.618084	0.000398	20.765589
1933.499421	-3.003700	3.212200	-9.647700	27.626743	0.000396	20.729730
1934.505515	-2.980300	3.212000	-9.571500	27.576247	0.000395	20.747200
1935.501424	-3.009500	3.211900	-9.665500	27.581058	0.000396	20.739238
1936.506935	-3.003000	3.209800	-9.638700	27.595946	0.000394	20.738572
1937.500654	-2.990600	3.211400	-9.603100	27.586791	0.000395	20.748801
1938.501352	-3.010500	3.211500	-9.667700	27.543412	0.000393	20.747354
1939.503519	-2.996800	3.210000	-9.618400	27.543491	0.000394	20.746485
1940.503355	-2.987300	3.210000	-9.587800	27.571987	0.000391	20.737223
1941.502389	-3.016400	3.208500	-9.676800	27.596467	0.000392	20.726766
1942.504718	-2.995400	3.207900	-9.608100	27.605494	0.000389	20.738695
1943.507499	-2.998100	3.209700	-9.620900	27.659934	0.000390	20.725196
1944.506677	-2.988000	3.209200	-9.585300	27.666507	0.000390	20.742242
1945.509238	-2.985900	3.207400	-9.576000	27.690013	0.000389	20.726065
1946.507513	-2.993300	3.206600	-9.597200	27.729372	0.000387	20.732007
1947.509132	-2.988600	3.207800	-9.586100	27.762721	0.000387	20.730955
1948.511986	-2.966300	3.205500	-9.506800	27.760493	0.000386	20.747680
1949.511250	-2.997700	3.203700	-9.602700	27.793896	0.000385	20.720602
1950.507743	-3.015600	3.203200	-9.659200	27.782235	0.000386	20.733997
1951.509667	-2.975500	3.205300	-9.535600	27.776562	0.000384	20.729710
1952.506879	-3.003200	3.202600	-9.616500	27.787001	0.000381	20.740690
1953.508938	-3.012500	3.202000	-9.644400	27.763546	0.000383	20.737001
1954.512888	-2.987200	3.202300	-9.564300	27.715904	0.000383	20.724144
1955.513885	-3.006300	3.202800	-9.626900	27.634705	0.000380	20.717352
1956.508019	-3.011900	3.201300	-9.640800	27.591676	0.000380	20.728110
1957.513277	-3.021300	3.200600	-9.668000	27.525430	0.000380	20.710768
1958.512742	-3.019700	3.199900	-9.661400	27.508140	0.000378	20.729883
1959.513119	-2.977700	3.199800	-9.527500	27.511641	0.000376	20.734353
1960.510266	-2.978800	3.199500	-9.529300	27.535646	0.000376	20.704924
1961.509519	-2.988700	3.199900	-9.562800	27.549936	0.000376	20.727838
1962.518193	-3.016600	3.198200	-9.645800	27.510075	0.000373	20.722820
1963.515282	-2.988300	3.197900	-9.555100	27.541282	0.000377	20.717708
1964.508960	-2.999500	3.199500	-9.595200	27.579581	0.000373	20.728268
1965.510559	-3.014800	3.198500	-9.641600	27.637096	0.000373	20.734457
1966.514841	-2.995900	3.196700	-9.575900	27.662065	0.000371	20.728762
1967.513155	-2.988200	3.197300	-9.553700	27.719904	0.000372	20.705883
1968.511285	-3.003900	3.197400	-9.603500	27.682106	0.000372	20.737549
1969.515697	-2.988600	3.195700	-9.549700	27.652872	0.000370	20.722830
1970.511067	-2.978200	3.195800	-9.516800	27.617530	0.000369	20.731365
1971.513852	-3.005300	3.194700	-9.599300	27.612940	0.000368	20.721531
1972.515754	-3.012100	3.194700	-9.621000	27.620132	0.000367	20.708851
1973.531872	-3.007300	3.193700	-9.603800	27.651635	0.000367	20.724431
1974.513443	-2.994700	3.195100	-9.567100	27.610486	0.000367	20.717165
1975.515330	-3.017800	3.193900	-9.637100	27.626189	0.000364	20.725853
1976.520334	-3.004000	3.192600	-9.588600	27.657137	0.000366	20.732813
1977.516429	-3.015100	3.192300	-9.623500	27.689797	0.000364	20.716839
1978.521302	-2.983200	3.193600	-9.526100	27.715290	0.000363	20.744865
1979.524763	-2.987400	3.192100	-9.534600	27.743586	0.000362	20.697471
1980.518807	-2.985300	3.191400	-9.526100	27.779345	0.000361	20.704534
1981.516336	-3.002000	3.191800	-9.580000	27.766221	0.000360	20.718355
1982.518120	-2.979500	3.190900	-9.506600	27.701724	0.000358	20.705132
1983.514538	-3.008900	3.191600	-9.601300	27.666929	0.000360	20.708999
1984.524264	-2.990200	3.188300	-9.532400	27.631662	0.000357	20.699590
1985.526825	-3.005000	3.189100	-9.582800	27.639623	0.000355	20.702860
1986.518702	-2.990500	3.188700	-9.534800	27.614368	0.000355	20.720597
1987.523909	-2.978500	3.188500	-9.495900	27.587862	0.000356	20.706727
1988.522350	-3.000900	3.186600	-9.561600	27.574465	0.000355	20.721699
1989.516815	-3.013500	3.186700	-9.602000	27.618487	0.000353	20.714783
1990.517478	-2.987500	3.186300	-9.518700	27.660180	0.000352	20.716433
1991.523902	-3.010000	3.185600	-9.587500	27.709901	0.000354	20.713361
1992.522402	-3.006700	3.184500	-9.574100	27.737926	0.000350	20.703156
1993.525974	-2.992600	3.183300	-9.525400	27.748267	0.000351	20.712141
1994.518999	-2.996100	3.183800	-9.538400	27.779517	0.000351	20.711346
1995.521654	-3.011300	3.184600	-9.588100	27.789332	0.000348	20.708421
1996.523729	-2.982700	3.184400	-9.497100	27.760640	0.000348	20.715584
1997.524440	-2.989200	3.183000	-9.513700	27.727163	0.000349	20.712240
1998.523527	-2.988900	3.183400	-9.513600	27.703604	0.000347	20.705601
1999.524897	-3.015300	3.183800	-9.599400	27.644630	0.000348	20.702682
2000.523644	-3.001300	3.181800	-9.548400	27.604826	0.000344	20.690130
2001.521819	-3.020400	3.179900	-9.603400	27.616754	0.000346	20.697392
2002.529269	-3.017400	3.180100	-9.595000	27.666158	0.000343	20.693998
2003.531720	-3.015700	3.179900	-9.588900	27.736783	0.000343	20.709592
2004.524448	-3.011500	3.181100	-9.579400	27.711344	0.000342	20.701536
2005.528784	-2.983800	3.181100	-9.489700	27.697925	0.000342	20.695618
2006.530782	-3.020600	3.178000	-9.598700	27.696065	0.000339	20.715559
2007.521800	-3.023600	3.177800	-9.607100	27.663429	0.000340	20.701684
2008.533185	-2.982400	3.177400	-9.475100	27.692020	0.000341	20.718127
2009.524013	-2.987400	3.177200	-9.490700	27.637611	0.000339	20.698938
2010.523593	-2.994200	3.176400	-9.509800	27.670301	0.000338	20.706703
2011.530838	-3.036400	3.174500	-9.638600	27.703462	0.000337	20.709252
2012.531379	-3.016200	3.175200	-9.576100	27.741946	0.000337	20.716211
2013.529233	-3.009800	3.173800	-9.551700	27.756435	0.000336	20.710877
2014.535062	-3.009600	3.175200	-9.554700	27.780955	0.000333	20.703783
2015.534657	-2.972700	3.175600	-9.439300	27.827009	0.000332	20.700820
2016.533172	-3.007100	3.174200	-9.544900	27.845860	0.000332	20.713628
2017.535886	-3.003700	3.174200	-9.534200	27.875981	0.000333	20.705063
2018.535380	-2.982300	3.174300	-9.465200	27.886768	0.000331	20.693159
2019.526667	-3.001100	3.173200	-9.522000	27.881169	0.000333	20.721191
2020.543258	-3.014300	3.172000	-9.559900	27.869715	0.000329	20.714404
2021.543117	-2.985100	3.171600	-9.466900	27.900038	0.000329	20.718370
2022.530223	-2.996800	3.169500	-9.496100	27.948339	0.000329	20.717200
2023.531741	-3.022900	3.171300	-9.584100	27.971898	0.000328	20.711515
2024.532581	-2.990400	3.169500	-9.477300	28.026413	0.000328	20.709015
2025.525640	-2.976200	3.169100	-9.430800	27.971923	0.000325	20.710591
2026.533484	-2.996200	3.170900	-9.499900	27.936524	0.000327	20.708625
2027.529769	-2.978300	3.171300	-9.444500	27.894822	0.000324	20.715966
2028.530192	-2.988400	3.168200	-9.465100	27.862664	0.000324	20.711100
2029.534592	-2.984100	3.169100	-9.454900	27.820886	0.000325	20.709831
2030.528806	-3.002400	3.166300	-9.505300	27.846474	0.000323	20.682476
2031.527342	-2.990000	3.167900	-9.471700	27.866291	0.000323	20.713328
2032.538725	-3.005800	3.167200	-9.517300	27.860338	0.000320	20.700698
2033.531477	-2.994300	3.166400	-9.479500	27.809755	0.000321	20.699103
2034.533292	-2.997200	3.165100	-9.484800	27.798399	0.000319	20.711382
2035.536395	-2.996800	3.166800	-9.489000	27.809932	0.000320	20.726309
2036.532187	-2.991100	3.165200	-9.465700	27.850082	0.000319	20.694169
2037.529928	-2.990500	3.163200	-9.458500	27.816632	0.000317	20.706498
2038.532719	-3.017000	3.163200	-9.542400	27.780236	0.000316	20.707802
2039.531379	-2.982300	3.162600	-9.431100	27.783382	0.000315	20.702433
2040.534031	-3.007000	3.161600	-9.506200	27.770214	0.000315	20.708622
2041.534633	-3.017700	3.159900	-9.534900	27.747971	0.000314	20.706152
2042.532587	-2.997700	3.160700	-9.474200	27.759902	0.000312	20.712944
2043.536660	-2.975800	3.163200	-9.412000	27.779024	0.000313	20.715592
2044.540811	-2.983700	3.161800	-9.432600	27.818826	0.000313	20.703964
2045.539670	-2.995400	3.159500	-9.463500	27.815003	0.000310	20.712445
2046.541981	-3.011100	3.157100	-9.504900	27.801767	0.000310	20.711927
2047.538815	-3.013800	3.156400	-9.511700	27.822693	0.000310	20.685570
2048.536971	-3.003600	3.157400	-9.482100	27.891035	0.000308	20.706938
2049.537361	-2.985100	3.157900	-9.425900	27.882163	0.000307	20.713656
2050.538823	-3.010100	3.156500	-9.500800	27.875990	0.000309	20.704123
2051.536147	-2.973300	3.157000	-9.385200	27.855909	0.000308	20.709517
2052.542573	-3.014600	3.154700	-9.508700	27.903020	0.000305	20.730381
2053.539145	-2.982600	3.154600	-9.407400	27.888465	0.000306	20.721421
2054.543966	-2.996800	3.152400	-9.445000	27.938254	0.000306	20.694244
2055.547187	-3.036200	3.151800	-9.568700	27.956704	0.000305	20.693849
2056.549966	-3.014600	3.152600	-9.502600	27.938063	0.000303	20.710649
2057.543203	-2.995900	3.154200	-9.447900	27.973167	0.000304	20.732708
2058.543430	-3.029000	3.151300	-9.543700	27.930373	0.000302	20.725669
2059.545609	-3.027400	3.149100	-9.532100	27.949167	0.000301	20.692427
2060.539748	-3.015500	3.149800	-9.496800	27.906922	0.000299	20.690683
2061.540854	-3.002500	3.149800	-9.456600	27.937390	0.000299	20.712343
2062.542428	-3.011300	3.149700	-9.483600	27.932135	0.000299	20.722701
2063.543332	-2.982500	3.149500	-9.392300	27.964173	0.000297	20.723180
2064.545182	-2.955600	3.150800	-9.310300	28.008404	0.000297	20.717441
2065.548370	-3.009700	3.149600	-9.476700	28.009646	0.000298	20.714897
2066.542839	-2.990700	3.146600	-9.409800	28.034361	0.000294	20.726500
2067.545973	-2.996500	3.147800	-9.430700	28.056745	0.000296	20.722005
2068.548035	-2.975600	3.146300	-9.361000	28.075272	0.000295	20.710783
2069.546830	-3.012900	3.144800	-9.473600	28.069541	0.000294	20.703591
2070.544127	-3.025800	3.142900	-9.507900	28.062182	0.000292	20.718468
2071.546897	-3.019200	3.144300	-9.490500	28.026928	0.000292	20.714749
2072.551349	-3.004600	3.143300	-9.442900	28.010441	0.000293	20.723284
2073.545641	-2.985900	3.144000	-9.386200	28.004837	0.000292	20.720014
2074.550099	-2.976000	3.143800	-9.354800	28.025471	0.000292	20.721818
2075.551201	-2.998000	3.142900	-9.421100	28.038164	0.000291	20.728906
2076.549207	-2.980200	3.143900	-9.367400	28.081897	0.000289	20.716977
2077.551771	-2.996300	3.141500	-9.411300	28.100786	0.000288	20.713233
2078.555244	-2.993700	3.139500	-9.396900	28.155771	0.000288	20.706945
2079.549317	-3.003100	3.139200	-9.426200	28.165789	0.000288	20.740267
2080.553033	-2.980200	3.139600	-9.354700	28.191050	0.000287	20.722075
2081.558840	-3.025600	3.137500	-9.490800	28.259437	0.000284	20.696568
2082.548822	-2.977100	3.139000	-9.344200	28.255498	0.000286	20.713940
2083.549075	-2.963000	3.137200	-9.293700	28.294934	0.000285	20.724723
2084.554893	-3.018300	3.137600	-9.469100	28.291711	0.000283	20.706304
2085.553516	-3.007000	3.136900	-9.432000	28.226299	0.000283	20.728165
2086.547622	-3.016200	3.136100	-9.457700	28.169916	0.000282	20.728774
2087.556568	-2.996800	3.135400	-9.393700	28.098202	0.000281	20.723908
2088.552103	-2.977200	3.133600	-9.328500	28.102838	0.000282	20.743276
2089.553553	-2.996500	3.134000	-9.389200	28.116620	0.000280	20.743873
2090.552558	-2.964800	3.134700	-9.292300	28.143492	0.000280	20.742950
2091.550989	-2.980100	3.132200	-9.332100	28.138708	0.000279	20.722012
2092.550496	-3.013400	3.132600	-9.438500	28.120712	0.000277	20.740880
2093.553109	-2.995300	3.131300	-9.377500	28.085215	0.000277	20.713679
2094.553764	-3.013300	3.130500	-9.432200	28.078400	0.000277	20.727682
2095.555685	-2.987100	3.129700	-9.347300	28.102520	0.000275	20.731575
2096.558277	-2.999400	3.128900	-9.383700	28.159388	0.000275	20.735719
2097.555463	-2.988400	3.128600	-9.349100	28.177830	0.000274	20.753812
2098.556894	-2.988700	3.128000	-9.347100	28.152843	0.000274	20.731026
2099.556658	-2.996000	3.125700	-9.363300	28.195575	0.000273	20.740855
2100.555494	-2.979400	3.126800	-9.314000	28.191483	0.000272	20.739107
2101.553727	-2.999000	3.126100	-9.374700	28.196889	0.000273	20.735541
2102.560262	-3.006500	3.125600	-9.395500	28.148172	0.000270	20.735333
2103.556046	-3.003100	3.124400	-9.381600	28.111164	0.000271	20.731742
2104.556930	-3.004900	3.125200	-9.390500	28.085533	0.000269	20.736286
2105.558747	-3.008400	3.124700	-9.398400	28.080445	0.000270	20.729267
2106.559075	-3.010700	3.123400	-9.402100	28.078414	0.000269	20.727697
2107.557637	-2.983300	3.121900	-9.311800	28.135902	0.000267	20.757594
2108.556874	-3.016600	3.121300	-9.413400	28.110242	0.000268	20.741719
2109.563451	-2.998300	3.120200	-9.354200	28.118047	0.000267	20.735826
2110.556494	-3.000900	3.119900	-9.361600	28.143078	0.000267	20.732102
2111.565361	-3.003700	3.119600	-9.369900	28.157753	0.000266	20.744504
2112.559783	-2.991700	3.119700	-9.332800	28.211890	0.000264	20.754911
2113.555307	-3.001300	3.117500	-9.354100	28.181444	0.000264	20.748915
2114.562395	-2.983900	3.117600	-9.301400	28.182268	0.000264	20.751167
2115.568839	-3.006200	3.115400	-9.364100	28.211689	0.000265	20.745699
2116.560712	-2.984100	3.117200	-9.300700	28.264033	0.000264	20.738181
2117.564301	-3.002700	3.113200	-9.347100	28.294644	0.000261	20.745768
2118.568006	-2.992900	3.113500	-9.316000	28.331724	0.000261	20.748016
2119.562651	-2.991600	3.114100	-9.314400	28.314447	0.000259	20.750060
2120.569710	-2.997400	3.111800	-9.326500	28.296949	0.000261	20.757099
2121.567154	-3.009900	3.111200	-9.363400	28.334372	0.000259	20.736457
2122.565137	-3.015800	3.110800	-9.380200	28.356548	0.000258	20.764003
2123.566679	-3.020600	3.109000	-9.390500	28.365648	0.000259	20.754199
2124.561090	-2.981700	3.109800	-9.270300	28.348695	0.000257	20.742819
2125.564735	-2.975400	3.110500	-9.253200	28.332753	0.000258	20.759958
2126.569897	-2.991200	3.109000	-9.298200	28.235324	0.000257	20.757168
2127.569213	-3.036900	3.106500	-9.432600	28.171641	0.000256	20.749003
2128.565528	-2.995700	3.106500	-9.304300	28.123570	0.000255	20.742334
2129.569878	-2.987700	3.107100	-9.281700	28.063805	0.000256	20.763253
2130.566883	-2.974100	3.106600	-9.238100	28.097860	0.000255	20.752964
2131.570735	-3.002400	3.103700	-9.317400	28.135271	0.000255	20.767866
2132.570223	-3.009400	3.103900	-9.339800	28.220739	0.000253	20.751018
2133.567177	-3.001700	3.102500	-9.311600	28.222446	0.000252	20.778341
2134.566180	-3.016700	3.103600	-9.360900	28.267112	0.000253	20.770206
2135.579010	-2.984500	3.103000	-9.259700	28.264140	0.000252	20.752988
2136.565625	-3.001300	3.101500	-9.307600	28.323000	0.000252	20.761044
2137.570578	-3.000000	3.100800	-9.301500	28.371871	0.000251	20.770897
2138.579111	-3.033700	3.099400	-9.400600	28.400467	0.000250	20.772191
2139.565897	-3.021800	3.097500	-9.358200	28.424433	0.000249	20.763133
2140.568514	-3.019700	3.097900	-9.353900	28.363861	0.000248	20.778953
2141.572172	-3.002800	3.097500	-9.301000	28.380905	0.000249	20.747751
2142.570702	-3.022800	3.097400	-9.361900	28.387748	0.000249	20.789730
2143.569663	-2.984400	3.097300	-9.242200	28.421004	0.000247	20.755412
2144.569961	-3.006100	3.096100	-9.306200	28.423976	0.000248	20.779269
2145.569592	-2.995300	3.093800	-9.266300	28.359209	0.000248	20.766209
2146.568323	-2.982300	3.095700	-9.230200	28.337058	0.000247	20.777569
2147.564600	-2.999200	3.093700	-9.277500	28.367068	0.000245	20.773647
2148.567195	-2.976100	3.093300	-9.205400	28.397376	0.000243	20.762914
2149.567701	-2.984900	3.091800	-9.228200	28.394992	0.000242	20.766678
2150.566596	-2.997800	3.090300	-9.262800	28.353107	0.000245	20.763857
2151.566048	-2.990500	3.089400	-9.237700	28.304206	0.000243	20.762035
2152.567605	-2.981200	3.089800	-9.210200	28.266306	0.000243	20.774136
2153.569778	-2.976100	3.088900	-9.191800	28.202648	0.000241	20.754616
2154.568879	-3.001800	3.088700	-9.270300	28.218391	0.000244	20.771414
2155.567983	-3.007200	3.085900	-9.279200	28.214442	0.000243	20.766015
2156.568210	-3.005000	3.086200	-9.273500	28.229047	0.000241	20.776926
2157.570475	-2.999800	3.086000	-9.256800	28.275052	0.000242	20.764924
2158.570994	-2.997300	3.084100	-9.243300	28.293639	0.000238	20.779845
2159.568938	-2.994300	3.084800	-9.235300	28.285358	0.000240	20.776249
2160.568903	-2.983200	3.082300	-9.193800	28.308733	0.000239	20.768964
2161.568038	-2.978800	3.083900	-9.184600	28.322610	0.000239	20.783411
2162.568515	-2.987000	3.083000	-9.208300	28.336885	0.000237	20.785456
2163.571338	-3.013300	3.078900	-9.276900	28.345660	0.000238	20.785283
2164.569005	-3.001800	3.079000	-9.240800	28.337704	0.000236	20.775849
2165.570239	-3.003700	3.077500	-9.242900	28.351311	0.000236	20.791921
2166.569348	-3.017200	3.077200	-9.283100	28.405262	0.000234	20.771330
2167.574007	-3.025600	3.076300	-9.306700	28.440082	0.000235	20.787426
2168.569654	-3.007100	3.076600	-9.250700	28.475695	0.000235	20.781090
2169.570861	-3.006900	3.076300	-9.249100	28.496407	0.000235	20.787248
2170.578615	-3.008400	3.074600	-9.248500	28.496039	0.000233	20.785930
2171.574119	-3.003200	3.072900	-9.228000	28.513730	0.000234	20.792840
2172.575068	-2.995800	3.072900	-9.205700	28.527860	0.000235	20.776723
2173.570573	-2.976600	3.073700	-9.148300	28.547212	0.000235	20.770135
2174.580302	-3.024800	3.070600	-9.287100	28.545256	0.000234	20.775750
2175.572368	-2.986400	3.071900	-9.173500	28.546962	0.000233	20.802599
2176.576352	-2.997300	3.069100	-9.197500	28.577045	0.000232	20.778842
2177.577814	-2.986600	3.069600	-9.166200	28.584877	0.000231	20.807593
2178.582912	-3.008600	3.067900	-9.228400	28.623874	0.000230	20.787125
2179.575233	-2.994700	3.066700	-9.182600	28.626581	0.000232	20.778472
2180.578910	-3.000600	3.065300	-9.196700	28.560719	0.000231	20.799858
2181.576412	-2.974500	3.066100	-9.118200	28.542333	0.000229	20.800308
2182.577029	-2.999400	3.063700	-9.188300	28.550788	0.000230	20.814513
2183.576855	-2.990600	3.063600	-9.160100	28.587835	0.000230	20.812468
2184.575919	-2.985600	3.062800	-9.143500	28.628200	0.000228	20.799543
2185.577808	-3.017500	3.060700	-9.235100	28.620118	0.000226	20.797567
2186.575983	-2.977000	3.061300	-9.112400	28.649458	0.000228	20.803410
2187.583544	-2.986800	3.058900	-9.135600	28.696264	0.000228	20.798397
2188.575922	-3.002600	3.057100	-9.178500	28.719429	0.000228	20.794228
2189.579383	-3.010200	3.057500	-9.203200	28.743368	0.000226	20.806962
2190.576835	-3.005900	3.056300	-9.186000	28.780231	0.000228	20.808532
2191.579255	-3.001400	3.054400	-9.166400	28.806443	0.000226	20.824505
2192.581471	-2.998000	3.054800	-9.156800	28.781403	0.000228	20.808291
2193.579465	-3.012200	3.052900	-9.195200	28.769556	0.000226	20.808686
2194.581857	-3.045500	3.050500	-9.288500	28.717855	0.000228	20.803075
2195.579908	-2.989100	3.051200	-9.119500	28.704675	0.000226	20.819670
2196.585321	-2.979900	3.050600	-9.088200	28.652200	0.000227	20.815181
2197.579431	-3.011500	3.048300	-9.178800	28.617687	0.000225	20.784687
2198.581633	-2.996500	3.047200	-9.130400	28.601606	0.000226	20.802631
2199.577531	-3.003100	3.046800	-9.148000	28.584884	0.000225	20.806651
2200.581627	-3.004000	3.046800	-9.151600	28.549823	0.000226	20.817809
2201.581630	-2.998700	3.044600	-9.129700	28.536390	0.000223	20.815186
2202.580009	-2.993200	3.044300	-9.110700	28.554281	0.000225	20.803806
2203.581120	-2.995800	3.043400	-9.116500	28.620198	0.000225	20.816614
2204.582908	-2.994000	3.042500	-9.108300	28.613651	0.000224	20.816184
2205.586689	-2.969200	3.042000	-9.031400	28.569053	0.000223	20.816786
2206.579659	-2.996100	3.040700	-9.109400	28.511584	0.000223	20.805851
2207.582826	-2.989400	3.038300	-9.081500	28.501427	0.000224	20.793252
2208.582350	-3.021500	3.036800	-9.174700	28.529505	0.000224	20.803510
2209.585145	-3.002400	3.037600	-9.118800	28.598561	0.000223	20.821849
2210.585272	-2.999100	3.035700	-9.103300	28.626141	0.000221	20.810272
2211.585135	-3.017800	3.034900	-9.157700	28.649234	0.000222	20.811719
2212.581928	-3.011500	3.034100	-9.135700	28.696133	0.000221	20.809644
2213.585001	-3.010500	3.032000	-9.126300	28.729732	0.000223	20.817409
2214.587731	-3.008900	3.030700	-9.118300	28.748880	0.000219	20.812514
2215.581948	-3.008200	3.029600	-9.112500	28.829787	0.000220	20.811037
2216.585505	-2.990400	3.028500	-9.055500	28.824217	0.000222	20.815383
2217.582597	-3.006400	3.027000	-9.099500	28.772410	0.000221	20.828155
2218.582984	-3.001600	3.028200	-9.087200	28.771920	0.000219	20.809170
2219.590182	-3.012000	3.025600	-9.112000	28.744094	0.000219	20.838987
2220.585831	-2.998700	3.024000	-9.066600	28.734478	0.000220	20.851586
2221.591490	-2.985000	3.024000	-9.026100	28.698977	0.000220	20.829578
2222.586817	-3.037300	3.020400	-9.172600	28.682103	0.000220	20.816376
2223.589672	-3.023800	3.019300	-9.127900	28.676974	0.000219	20.820218
2224.586563	-2.991500	3.021100	-9.035800	28.645898	0.000219	20.832541
2225.590827	-2.979900	3.018900	-8.993900	28.687178	0.000219	20.827651
2226.585763	-3.012700	3.017700	-9.090700	28.690566	0.000219	20.843866
2227.589435	-3.001800	3.017100	-9.054300	28.675154	0.000218	20.829765
2228.594630	-3.019300	3.014100	-9.099300	28.680857	0.000215	20.835983
2229.593246	-3.001100	3.012400	-9.039100	28.671089	0.000216	20.851748
2230.593713	-2.988600	3.012600	-9.002100	28.626983	0.000219	20.835301
2231.592888	-2.993300	3.013100	-9.018400	28.635139	0.000219	20.821230
2232.592447	-2.984000	3.010400	-8.981600	28.685211	0.000217	20.838472
2233.593219	-3.002900	3.008500	-9.033700	28.707013	0.000216	20.855215
2234.592642	-2.993300	3.007200	-9.000600	28.716697	0.000217	20.826090
2235.592011	-2.996100	3.006000	-9.005700	28.677159	0.000217	20.834630
2236.594214	-2.995200	3.005400	-9.000800	28.636301	0.000215	20.812444
2237.595398	-2.998500	3.003000	-9.004100	28.595166	0.000216	20.837395
2238.593359	-2.965100	3.003700	-8.905300	28.569473	0.000217	20.853244
2239.596982	-2.989400	3.001100	-8.970700	28.540553	0.000215	20.837869
2240.597671	-2.983000	3.002100	-8.953400	28.557423	0.000215	20.830204
2241.593442	-3.038200	2.998800	-9.110200	28.642794	0.000216	20.861181
2242.592629	-3.009200	2.997400	-9.019300	28.682161	0.000215	20.847727
2243.594214	-3.028500	2.996600	-9.074200	28.734835	0.000215	20.844833
2244.590305	-3.018900	2.996100	-9.044000	28.778441	0.000215	20.833755
2245.597138	-3.010200	2.993600	-9.010500	28.827119	0.000213	20.835849
2246.592254	-3.013000	2.993100	-9.016700	28.838298	0.000215	20.853748
2247.595879	-3.010900	2.991100	-9.004500	28.868862	0.000215	20.859408
2248.595617	-3.018600	2.988600	-9.020200	28.902456	0.000214	20.847258
2249.597445	-2.966900	2.989300	-8.867300	28.870432	0.000212	20.861463
2250.593834	-2.977700	2.988100	-8.896500	28.810625	0.000214	20.851950
2251.599220	-2.993800	2.987100	-8.941400	28.789022	0.000215	20.845836
2252.596344	-2.968000	2.985700	-8.860600	28.802098	0.000213	20.850948
2253.598103	-3.025200	2.983100	-9.023200	28.781466	0.000213	20.852449
2254.596622	-2.982400	2.981300	-8.890900	28.776519	0.000214	20.859794
2255.596385	-2.997700	2.980700	-8.933500	28.764452	0.000214	20.841001
2256.603423	-3.008900	2.978700	-8.961300	28.773921	0.000213	20.813556
2257.599789	-3.014800	2.977300	-8.974700	28.785335	0.000213	20.855872
2258.603136	-3.014300	2.976000	-8.970300	28.821231	0.000213	20.857892
2259.599811	-2.991600	2.975100	-8.899600	28.864911	0.000212	20.850212
2260.600125	-2.998400	2.974100	-8.916700	28.855027	0.000214	20.859221
2261.602651	-3.019600	2.972100	-8.972700	28.828027	0.000214	20.832497
2262.604811	-2.990700	2.970600	-8.883400	28.804546	0.000214	20.861948
2263.600218	-2.986900	2.969300	-8.868200	28.733561	0.000214	20.821265
2264.596186	-3.007900	2.967500	-8.924800	28.696275	0.000214	20.849615
2265.601533	-2.985400	2.966200	-8.854500	28.686261	0.000212	20.830521
2266.597210	-2.999800	2.964300	-8.890800	28.713839	0.000213	20.811832
2267.605968	-3.001800	2.963700	-8.895400	28.715447	0.000212	20.832417
2268.600916	-3.013600	2.961600	-8.923700	28.692754	0.000213	20.836112
2269.602842	-2.971500	2.961000	-8.797400	28.636954	0.000212	20.850558
2270.601238	-3.005600	2.959000	-8.892800	28.600287	0.000212	20.827380
2271.603948	-2.995700	2.956500	-8.855400	28.630888	0.000213	20.807940
2272.608001	-2.972700	2.955900	-8.785000	28.678832	0.000211	20.835366
2273.604383	-2.982500	2.955000	-8.811200	28.671746	0.000209	20.814479
2274.606491	-2.974100	2.954000	-8.784100	28.679450	0.000211	20.811807
2275.602641	-2.989000	2.950800	-8.819000	28.693077	0.000211	20.813205
2276.606322	-3.005300	2.949000	-8.861600	28.739161	0.000210	20.826432
2277.606434	-2.977000	2.949200	-8.778800	28.780530	0.000211	20.820213
2278.609145	-2.977400	2.946500	-8.772000	28.866245	0.000209	20.807935
2279.607226	-2.997800	2.946300	-8.830800	28.889925	0.000213	20.822781
2280.606985	-3.009000	2.942200	-8.851900	28.955565	0.000212	20.802141
2281.607249	-3.011400	2.941500	-8.857300	28.941917	0.000210	20.817314
2282.603277	-3.022200	2.939100	-8.881400	28.959978	0.000210	20.806112
2283.611547	-3.048700	2.938100	-8.956100	28.977660	0.000210	20.802116
2284.608355	-2.991000	2.938500	-8.788700	28.972410	0.000210	20.811051
2285.607892	-3.015200	2.936000	-8.850400	28.978180	0.000211	20.807855
2286.607014	-3.010900	2.933700	-8.831500	28.972709	0.000211	20.826999
2287.610639	-2.994600	2.932300	-8.779500	28.934117	0.000211	20.817042
2288.607546	-3.002600	2.930900	-8.799400	28.945182	0.000211	20.821077
2289.611357	-3.007000	2.929300	-8.806600	28.959831	0.000212	20.808335
2290.609372	-3.022700	2.927400	-8.847300	29.042849	0.000211	20.789561
2291.622759	-3.014800	2.924800	-8.816800	29.065168	0.000212	20.818687
2292.614149	-3.007800	2.923400	-8.792200	29.038790	0.000211	20.826723
2293.613299	-2.993900	2.922700	-8.749500	29.052560	0.000211	20.809303
2294.612134	-3.000800	2.920800	-8.763500	29.027001	0.000211	20.805835
2295.609147	-2.997900	2.919800	-8.750900	29.020462	0.000211	20.791660
2296.610488	-3.002100	2.918600	-8.760000	29.002328	0.000209	20.811323
2297.608693	-2.996600	2.915800	-8.736600	28.994083	0.000208	20.798748
2298.609521	-3.013600	2.914100	-8.781000	29.030070	0.000209	20.806556
2299.611220	-3.024500	2.911000	-8.803300	29.033859	0.000209	20.808952
2300.610417	-3.019600	2.910300	-8.786600	29.087432	0.000210	20.804610
2301.610855	-2.965000	2.910300	-8.628300	29.066653	0.000210	20.792683
2302.611369	-2.967600	2.908700	-8.630100	29.113955	0.000208	20.801938
2303.612230	-3.018900	2.905800	-8.771500	29.158059	0.000209	20.816982
2304.614323	-3.021500	2.902900	-8.770300	29.170538	0.000210	20.781194
2305.612482	-2.984200	2.902200	-8.659000	29.176092	0.000210	20.807653
2306.616195	-2.972000	2.900100	-8.616800	29.218660	0.000209	20.791280
2307.616879	-2.981900	2.898400	-8.641800	29.251002	0.000210	20.806803
2308.617162	-3.016000	2.895600	-8.731600	29.249414	0.000209	20.781495
2309.619985	-3.008200	2.894800	-8.706500	29.234633	0.000209	20.807376
2310.616859	-3.010300	2.893000	-8.707900	29.256619	0.000208	20.812463
2311.627112	-2.983100	2.891600	-8.625100	29.256771	0.000208	20.789857
2312.617306	-2.991500	2.890400	-8.645400	29.253967	0.000210	20.792721
2313.616233	-2.979400	2.887500	-8.602400	29.243371	0.000210	20.792001
2314.619208	-2.988900	2.886400	-8.625200	29.229182	0.000210	20.815634
2315.616881	-2.998000	2.882100	-8.639900	29.224502	0.000210	20.797167
2316.619158	-3.015000	2.881400	-8.685400	29.230447	0.000208	20.787037
2317.617294	-2.997200	2.881000	-8.633900	29.174974	0.000208	20.812690
2318.620900	-2.966800	2.879800	-8.542300	29.146320	0.000208	20.779549
2319.617931	-3.019900	2.875200	-8.682600	29.068006	0.000211	20.772234
2320.622262	-3.004100	2.872700	-8.629500	29.033079	0.000210	20.776397
2321.621024	-2.998900	2.871600	-8.610000	29.046878	0.000208	20.798362
2322.621931	-3.020400	2.869700	-8.665900	29.025211	0.000209	20.801187
2323.622259	-2.962300	2.868000	-8.493900	29.073701	0.000209	20.771335
2324.620455	-3.026200	2.863700	-8.663800	29.115612	0.000209	20.778003
2325.628003	-3.015600	2.862900	-8.632200	29.194859	0.000207	20.768243
2326.620996	-3.000000	2.863100	-8.588500	29.237230	0.000208	20.781070
2327.628420	-2.992200	2.860000	-8.556500	29.241587	0.000208	20.805850
2328.624480	-3.013300	2.857600	-8.609700	29.244160	0.000209	20.792321
2329.622649	-2.991500	2.855900	-8.540800	29.286205	0.000206	20.771157
2330.623788	-3.008700	2.853400	-8.583800	29.266896	0.000208	20.794371
2331.628883	-3.021400	2.851200	-8.614100	29.255256	0.000211	20.791176
2332.625555	-2.995600	2.850300	-8.537200	29.266004	0.000210	20.781144
2333.623549	-2.990800	2.848200	-8.517200	29.276276	0.000212	20.791971
2334.628626	-2.990400	2.846700	-8.512200	29.264715	0.000209	20.782216
2335.628449	-3.047900	2.841400	-8.658900	29.178391	0.000207	20.774881
2336.632387	-3.002800	2.841600	-8.530400	29.169921	0.000209	20.796693
2337.626210	-3.011700	2.840300	-8.553800	29.116023	0.000208	20.777943
2338.633965	-3.025300	2.836900	-8.581400	29.072687	0.000210	20.775054
2339.628605	-2.992000	2.836100	-8.484100	29.030304	0.000209	20.786404
2340.628599	-2.994600	2.834600	-8.487800	28.999092	0.000209	20.776768
2341.630850	-3.004600	2.829400	-8.500600	29.024485	0.000209	20.793344
2342.629456	-3.000500	2.828600	-8.486000	29.091529	0.000209	20.789773
2343.628615	-3.012600	2.826300	-8.513400	29.151589	0.000207	20.772530
2344.626039	-3.017300	2.822900	-8.515300	29.157383	0.000208	20.777894
2345.626332	-3.014000	2.821600	-8.503400	29.176626	0.000209	20.781638
2346.628818	-3.002700	2.819300	-8.464900	29.191036	0.000207	20.775296
2347.629913	-3.018400	2.816800	-8.501700	29.236877	0.000207	20.767438
2348.626146	-2.999700	2.814600	-8.442300	29.229099	0.000207	20.767186
2349.628315	-3.013600	2.812600	-8.475100	29.196505	0.000209	20.778437
2350.633074	-2.985300	2.810300	-8.388500	29.196260	0.000208	20.759224
2351.626435	-3.003900	2.808700	-8.435600	29.167435	0.000209	20.752936
2352.635507	-3.009000	2.806000	-8.442400	29.164661	0.000208	20.762469
2353.627848	-3.021600	2.803200	-8.469000	29.184021	0.000207	20.785771
2354.630134	-2.979900	2.800400	-8.342800	29.217831	0.000208	20.779064
2355.633278	-3.008800	2.796400	-8.411900	29.300981	0.000207	20.791738
2356.637261	-2.985600	2.795400	-8.344600	29.295311	0.000207	20.769902
2357.631708	-2.995000	2.791500	-8.359100	29.298702	0.000207	20.772846
2358.633276	-2.981800	2.791100	-8.319800	29.234911	0.000208	20.773043
2359.632879	-2.999300	2.789000	-8.363900	29.249540	0.000208	20.765975
2360.633013	-3.028600	2.783300	-8.427700	29.221467	0.000210	20.763763
2361.632493	-3.005200	2.782400	-8.360800	29.277305	0.000207	20.776886
2362.630660	-2.982600	2.780000	-8.290800	29.274452	0.000208	20.777330
2363.635219	-3.013700	2.775700	-8.363000	29.287362	0.000207	20.773745
2364.632172	-2.990800	2.773500	-8.293800	29.292061	0.000207	20.759514
2365.638639	-2.975500	2.770800	-8.242800	29.298349	0.000206	20.752575
2366.640724	-3.007200	2.767100	-8.320400	29.310753	0.000207	20.758438
2367.631698	-2.982300	2.766200	-8.248800	29.278515	0.000208	20.775261
2368.633362	-3.008500	2.760900	-8.305000	29.240356	0.000207	20.760038
2369.636994	-3.011600	2.759900	-8.308900	29.265263	0.000208	20.752421
2370.633799	-2.989300	2.757000	-8.240500	29.269943	0.000206	20.769467
2371.632432	-3.003700	2.754500	-8.272400	29.323901	0.000208	20.761258
2372.632604	-2.980300	2.751300	-8.198800	29.334350	0.000208	20.749502
2373.641911	-2.950400	2.749000	-8.109200	29.378126	0.000207	20.762804
2374.640291	-2.997200	2.744600	-8.225000	29.416330	0.000209	20.759583
2375.634330	-2.986400	2.742100	-8.187900	29.414869	0.000207	20.785613
2376.634275	-3.020800	2.737400	-8.268000	29.406701	0.000206	20.772164
2377.630967	-2.984300	2.735700	-8.162000	29.422421	0.000208	20.759084
2378.641407	-2.977000	2.731000	-8.129200	29.392588	0.000209	20.757464
2379.633499	-2.981400	2.728500	-8.133500	29.410934	0.000208	20.762206
2380.636461	-2.991200	2.724900	-8.150000	29.412542	0.000207	20.766197
2381.638084	-2.984500	2.720600	-8.117500	29.436974	0.000209	20.751942
2382.634506	-3.020400	2.717200	-8.205400	29.470231	0.000208	20.755118
2383.636669	-3.031200	2.714200	-8.226400	29.508431	0.000207	20.761381
2384.638764	-3.006300	2.711500	-8.149800	29.488180	0.000208	20.754244
2385.637397	-2.994400	2.708200	-8.107600	29.525169	0.000208	20.762606
2386.638716	-3.024700	2.704300	-8.178200	29.542921	0.000207	20.743990
2387.636394	-3.007200	2.699500	-8.117000	29.521382	0.000208	20.768746
2388.634119	-2.981100	2.698100	-8.042700	29.518388	0.000208	20.758141
2389.639660	-3.004900	2.692900	-8.091300	29.535370	0.000208	20.734956
2390.633291	-3.002300	2.690200	-8.075400	29.548119	0.000208	20.737376
2391.650939	-3.013600	2.685100	-8.090500	29.512102	0.000208	20.748011
2392.637270	-3.001600	2.681500	-8.047500	29.510171	0.000210	20.754600
2393.637912	-3.006600	2.677700	-8.048900	29.467811	0.000207	20.755049
2394.645301	-2.988800	2.675500	-7.995100	29.420128	0.000208	20.760093
2395.640819	-3.008000	2.670400	-8.031400	29.374398	0.000207	20.730595
2396.643493	-3.021100	2.666400	-8.054100	29.424288	0.000207	20.757648
2397.640126	-2.983000	2.663300	-7.943400	29.440851	0.000206	20.752056
2398.640622	-3.046500	2.657500	-8.095200	29.464396	0.000207	20.753029
2399.640101	-2.982100	2.655100	-7.916400	29.454772	0.000207	20.733845
2400.644518	-2.994600	2.651100	-7.938400	29.416139	0.000205	20.738527
2401.639347	-2.993000	2.645200	-7.916400	29.388937	0.000208	20.727706
2402.641201	-2.970500	2.641500	-7.846200	29.397724	0.000205	20.752684
2403.641258	-2.979600	2.637600	-7.858300	29.417506	0.000207	20.740380
2404.643901	-2.985500	2.632200	-7.857700	29.449299	0.000205	20.747769
2405.645503	-3.013600	2.629000	-7.921500	29.460986	0.000204	20.751489
2406.641586	-2.996400	2.622400	-7.857100	29.492875	0.000203	20.733371
2407.642495	-3.002600	2.619100	-7.862900	29.461236	0.000207	20.751741
2408.639051	-3.021300	2.613600	-7.894600	29.451675	0.000208	20.749691
2409.639537	-2.963800	2.609900	-7.733100	29.448461	0.000205	20.739812
2410.649780	-2.979300	2.603600	-7.756600	29.478043	0.000204	20.752086
2411.642897	-3.011900	2.597800	-7.823400	29.497853	0.000207	20.736493
2412.640180	-3.052200	2.590700	-7.906700	29.515258	0.000207	20.735071
2413.640842	-3.010500	2.587700	-7.788500	29.500034	0.000206	20.726363
2414.641343	-3.005400	2.582900	-7.761700	29.476607	0.000206	20.752536
2415.641650	-2.968400	2.578600	-7.653300	29.493198	0.000209	20.735594
2416.648732	-2.985500	2.573400	-7.681300	29.541123	0.000208	20.742178
2417.647592	-2.968600	2.566900	-7.618400	29.577714	0.000207	20.722164
2418.645611	-3.004300	2.560900	-7.692900	29.536993	0.000208	20.755559
2419.644248	-2.991600	2.554700	-7.641000	29.501293	0.000208	20.736167
2420.651955	-3.024900	2.546600	-7.702500	29.441503	0.000208	20.727582
2421.652771	-2.996000	2.541900	-7.614700	29.425710	0.000207	20.722095
2422.647534	-3.001300	2.537200	-7.613900	29.427861	0.000208	20.722841
2423.648390	-3.005000	2.531100	-7.604900	29.442468	0.000207	20.743729
2424.647258	-3.018500	2.524300	-7.617600	29.400845	0.000207	20.719793
2425.652224	-3.004500	2.518400	-7.565200	29.435045	0.000209	20.720598
2426.651279	-3.033200	2.510200	-7.612800	29.462696	0.000208	20.742781
2427.651098	-2.999300	2.504200	-7.510200	29.531202	0.000209	20.726012
2428.652478	-2.983200	2.498800	-7.452800	29.525405	0.000209	20.731074
