LabVIEW Measurement	
Writer_Version	2
Reader_Version	2
Separator	Tab
Decimal_Separator	.
Multi_Headings	No
X_Columns	One
Time_Pref	Absolute
Operator	admin
Description	Clolumns are: time, Current, Voltage, Power, Battery Temp, and Chamber Temp
Date	2024/08/16
Time	13:06:06.104549407958984375
***End_of_Header***	
	
Channels	6						
Samples	1	1	1	1	1	1	
Date	2024/09/19	2024/09/19	2024/09/19	2024/09/19	2024/09/19	2024/09/19	
Time	01:16:18.2939634323120117188	01:16:18.3019838333129882812	01:16:18.3107233047485351562	01:16:18.27852630615234375	01:16:18.27852630615234375	01:16:18.27852630615234375	
X_Dimension	Time	Time	Time	Time	Time	Time	
X0	0.0000000000000000E+0	0.0000000000000000E+0	0.0000000000000000E+0	0.0000000000000000E+0	0.0000000000000000E+0	0.0000000000000000E+0	
Delta_X	1.000000	1.000000	1.000000	1.000000	1.000000	1.000000	
***End_of_Header***							
X_Value	Untitled	Untitled 1	Untitled 2	Untitled 3	Untitled 4	Untitled 5	Comment
0.000000	0.013940	4.093400	0.056974	20.979997	0.001001	20.716853
1.000985	-3.012200	3.905200	-11.762000	20.976254	0.000999	20.724016
2.002973	-2.980900	3.900900	-11.627000	20.985286	0.001002	20.734947
3.011377	-3.024500	3.894300	-11.776000	20.979997	0.000999	20.722543
4.001985	-2.994300	3.889700	-11.646000	20.974133	0.000997	20.733275
5.008941	-2.997700	3.885600	-11.646000	20.981269	0.000997	20.734722
6.001185	-3.021100	3.883100	-11.731000	20.985635	0.000996	20.737667
7.003068	-3.011100	3.880300	-11.683000	20.978200	0.000994	20.732601
8.003881	-2.998600	3.878500	-11.629000	21.014080	0.000994	20.735770
9.003267	-2.995200	3.876700	-11.609000	20.998535	0.000993	20.728757
10.004315	-3.022700	3.872200	-11.702000	21.006819	0.000992	20.745104
11.006499	-2.992300	3.872200	-11.587000	21.003301	0.000991	20.736369
12.006920	-2.980800	3.870200	-11.534000	21.027303	0.000990	20.732875
13.005229	-2.996000	3.869600	-11.592000	21.007542	0.000990	20.730654
14.007894	-3.005900	3.868600	-11.625000	21.034439	0.000991	20.733848
15.006304	-2.997300	3.865600	-11.586000	21.022114	0.000989	20.737168
16.007223	-2.988300	3.865100	-11.547000	21.029823	0.000989	20.747250
17.005958	-3.000900	3.862900	-11.590000	21.041600	0.000989	20.726785
18.006958	-3.005900	3.861500	-11.607000	21.064329	0.000988	20.736718
19.006414	-3.010500	3.860500	-11.620000	21.056520	0.000985	20.749296
20.007799	-2.985900	3.861100	-11.528000	21.048286	0.000986	20.748173
21.006312	-3.024200	3.857900	-11.665000	21.077852	0.000986	20.735545
22.006142	-2.990000	3.859100	-11.538000	21.065302	0.000984	20.739588
23.005488	-3.003500	3.858200	-11.587000	21.084613	0.000983	20.730454
24.006251	-3.006100	3.857100	-11.593000	21.083316	0.000984	20.753813
25.008903	-2.997600	3.857100	-11.561000	21.065926	0.000983	20.743531
26.006685	-3.001300	3.854200	-11.566000	21.082043	0.000986	20.741635
27.008388	-2.978600	3.854900	-11.481000	21.086734	0.000982	20.761500
28.008677	-3.011800	3.853100	-11.604000	21.092921	0.000981	20.736394
29.009233	-2.997300	3.851800	-11.544000	21.085212	0.000982	20.743382
30.009413	-2.978000	3.852500	-11.472000	21.109961	0.000983	20.757232
31.008720	-2.999900	3.852200	-11.555000	21.123334	0.000983	20.750694
32.010036	-2.980300	3.851000	-11.477000	21.134885	0.000983	20.759404
33.009111	-2.985400	3.850600	-11.493000	21.134910	0.000981	20.753265
34.009549	-2.989300	3.850900	-11.510000	21.141671	0.000982	20.738216
35.009815	-2.999400	3.850100	-11.546000	21.151276	0.000979	20.769636
36.010761	-2.993000	3.849400	-11.520000	21.161455	0.000981	20.754213
37.014717	-2.982500	3.848400	-11.477000	21.167741	0.000983	20.734897
38.010038	-3.008100	3.847200	-11.572000	21.171708	0.000982	20.746926
39.011844	-2.982900	3.847400	-11.475000	21.191815	0.000982	20.766566
40.011302	-2.986400	3.846800	-11.486000	21.188223	0.000981	20.737368
41.011786	-2.986300	3.847600	-11.489000	21.201744	0.000981	20.771283
42.015706	-2.996500	3.846200	-11.524000	21.217735	0.000981	20.745553
43.011808	-2.994200	3.845500	-11.514000	21.225668	0.000979	20.753490
44.012393	-2.993400	3.846300	-11.512000	21.248743	0.000981	20.773255
45.014368	-3.005700	3.844100	-11.552000	21.246398	0.000980	20.752416
46.013535	-3.001200	3.843000	-11.533000	21.264185	0.000981	20.760253
47.014109	-2.986800	3.843400	-11.478000	21.258248	0.000981	20.771383
48.013909	-3.006500	3.841400	-11.548000	21.271793	0.000980	20.748424
49.015192	-3.000500	3.842100	-11.527000	21.271269	0.000980	20.768289
50.014325	-3.001000	3.841900	-11.529000	21.281098	0.000983	20.763897
51.013559	-2.986700	3.843300	-11.478000	21.307290	0.000982	20.747425
52.017505	-2.995900	3.841500	-11.508000	21.306417	0.000983	20.759355
53.014779	-3.006100	3.839000	-11.540000	21.325524	0.000980	20.770410
54.014348	-2.987000	3.840700	-11.472000	21.354509	0.000980	20.788977
55.017769	-2.975100	3.841400	-11.428000	21.332658	0.000983	20.762848
56.014606	-2.995600	3.840200	-11.503000	21.351964	0.000979	20.777897
57.015810	-3.005100	3.838800	-11.534000	21.337448	0.000980	20.770960
58.015656	-3.004100	3.839000	-11.531000	21.346452	0.000980	20.762899
59.019065	-2.983400	3.838000	-11.449000	21.367629	0.000979	20.767016
60.015118	-3.017000	3.836100	-11.573000	21.369625	0.000976	20.795092
61.015574	-2.990800	3.837400	-11.476000	21.370498	0.000981	20.770835
62.015045	-3.020700	3.835800	-11.586000	21.405767	0.000980	20.769612
63.015181	-2.980700	3.838000	-11.438000	21.390252	0.000976	20.769737
64.014872	-2.996000	3.835600	-11.490000	21.404844	0.000982	20.745454
65.016283	-2.982500	3.836500	-11.441000	21.421979	0.000981	20.776350
66.016404	-3.004000	3.836200	-11.522000	21.452034	0.000980	20.777498
67.018893	-3.007800	3.835000	-11.533000	21.428614	0.000981	20.773031
68.018652	-3.015100	3.833700	-11.558000	21.425970	0.000979	20.790301
69.018169	-3.001300	3.834100	-11.505000	21.465852	0.000980	20.786108
70.019376	-3.037900	3.834400	-11.648000	21.479594	0.000981	20.771883
71.017532	-3.001500	3.834200	-11.506000	21.471962	0.000978	20.796016
72.018174	-3.027900	3.833200	-11.605000	21.459392	0.000979	20.778222
73.017416	-3.004100	3.833900	-11.516000	21.473982	0.000981	20.787131
74.018100	-2.992500	3.832800	-11.468000	21.485754	0.000982	20.792272
75.018002	-2.985100	3.832900	-11.440000	21.485480	0.000981	20.783463
76.018821	-2.996500	3.832200	-11.482000	21.501367	0.000980	20.801256
77.018260	-2.988100	3.833100	-11.453000	21.491341	0.000981	20.795018
78.017433	-3.007700	3.831300	-11.523000	21.536109	0.000980	20.793820
79.018513	-3.001400	3.831900	-11.500000	21.511144	0.000981	20.785909
80.018632	-2.981800	3.832500	-11.427000	21.539052	0.000981	20.784911
81.017793	-3.009000	3.830700	-11.526000	21.563766	0.000983	20.780244
82.017820	-2.994900	3.831100	-11.472000	21.543989	0.000982	20.787007
83.018462	-3.012400	3.831300	-11.539000	21.548204	0.000981	20.781741
84.018616	-2.972900	3.831500	-11.389000	21.567407	0.000980	20.806173
85.019176	-3.005600	3.830100	-11.510000	21.597732	0.000981	20.785310
86.017343	-3.006000	3.830300	-11.513000	21.584715	0.000982	20.797888
87.019389	-3.010800	3.830700	-11.533000	21.605812	0.000983	20.792921
88.019448	-2.991200	3.829600	-11.454000	21.592022	0.000984	20.801881
89.024827	-2.994200	3.828800	-11.463000	21.602346	0.000982	20.789453
90.019602	-2.991900	3.828900	-11.454000	21.622147	0.000979	20.790301
91.020741	-3.010600	3.828300	-11.525000	21.620775	0.000983	20.790351
92.021183	-2.992300	3.828000	-11.452000	21.628681	0.000982	20.804426
93.021615	-3.009800	3.827700	-11.520000	21.662645	0.000981	20.796690
94.021428	-2.991700	3.827100	-11.449000	21.645838	0.000981	20.804052
95.024525	-3.004800	3.826600	-11.496000	21.658755	0.000983	20.788529
96.021615	-2.989400	3.826300	-11.436000	21.662470	0.000980	20.819748
97.022505	-2.997900	3.826400	-11.470000	21.669602	0.000982	20.794170
98.023818	-2.995100	3.826000	-11.458000	21.691696	0.000984	20.795417
99.023636	-3.011500	3.827500	-11.525000	21.689477	0.000986	20.805999
100.027027	-3.006000	3.825600	-11.498000	21.693566	0.000984	20.787806
101.025528	-2.997000	3.825500	-11.464000	21.717280	0.000983	20.808220
102.025203	-3.028400	3.824500	-11.580000	21.712044	0.000984	20.799186
103.026897	-2.968500	3.825500	-11.355000	21.727604	0.000985	20.820922
104.026398	-2.994700	3.825500	-11.456000	21.713515	0.000985	20.821995
105.027919	-3.000000	3.823300	-11.468000	21.726955	0.000984	20.795143
106.026883	-3.002700	3.824400	-11.483000	21.720946	0.000987	20.792448
107.025286	-3.002200	3.825300	-11.483000	21.740345	0.000986	20.813760
108.027862	-2.987900	3.824200	-11.425000	21.738924	0.000985	20.800484
109.026755	-2.999100	3.822400	-11.462000	21.732391	0.000983	20.811015
110.026699	-3.008200	3.822300	-11.497000	21.762637	0.000985	20.805250
111.030282	-2.996400	3.822600	-11.453000	21.762837	0.000990	20.801656
112.027043	-2.990700	3.823700	-11.435000	21.770691	0.000988	20.826113
113.031244	-2.988400	3.822900	-11.424000	21.781662	0.000988	20.838041
114.027584	-2.988700	3.822500	-11.423000	21.800861	0.000989	20.809842
115.027410	-2.974200	3.822000	-11.366000	21.794528	0.000987	20.813935
116.027730	-3.005400	3.822600	-11.487000	21.793980	0.000988	20.820498
117.029593	-3.011400	3.821700	-11.508000	21.843946	0.000989	20.813136
118.027730	-3.017400	3.821000	-11.528000	21.848409	0.000987	20.839413
119.030689	-3.004100	3.821600	-11.478000	21.850728	0.000989	20.828933
120.027283	-2.988100	3.822500	-11.420000	21.868754	0.000989	20.824690
121.027956	-3.012200	3.820000	-11.506000	21.879051	0.000988	20.819824
122.029253	-2.995400	3.820700	-11.442000	21.887553	0.000990	20.820273
123.030808	-3.002800	3.818900	-11.467000	21.886855	0.000991	20.825264
124.031557	-3.007300	3.820200	-11.488000	21.912983	0.000990	20.836245
125.030160	-3.002500	3.819300	-11.466000	21.915377	0.000989	20.834373
126.031149	-2.993200	3.818800	-11.429000	21.935970	0.000991	20.830805
127.029013	-3.014700	3.819000	-11.511000	21.963667	0.000992	20.844779
128.031743	-3.017100	3.820300	-11.525000	21.947114	0.000993	20.846700
129.033272	-2.989600	3.818200	-11.414000	21.951003	0.000991	20.833050
130.033847	-3.024300	3.816800	-11.542000	21.965986	0.000990	20.854686
131.034606	-3.002600	3.818000	-11.462000	21.954219	0.000991	20.841959
132.032089	-3.006300	3.816200	-11.471000	21.944372	0.000992	20.832102
133.030205	-3.011100	3.818400	-11.495000	21.952349	0.000995	20.843881
134.031772	-3.009200	3.818400	-11.489000	21.976856	0.000996	20.827161
135.031743	-2.989600	3.818100	-11.413000	21.999990	0.000995	20.817129
136.032998	-2.993600	3.816900	-11.424000	22.000464	0.000996	20.836095
137.033906	-2.999800	3.816400	-11.447000	22.020233	0.000995	20.818901
138.035269	-2.982300	3.816900	-11.383000	22.019659	0.000996	20.838715
139.033890	-2.976600	3.816900	-11.360000	22.042968	0.000996	20.837867
140.033928	-2.995900	3.815300	-11.428000	22.030030	0.000998	20.852415
141.035746	-3.006900	3.816200	-11.474000	22.045835	0.000997	20.848797
142.034685	-2.992200	3.814900	-11.413000	22.059071	0.000995	20.840237
143.037250	-3.004400	3.817100	-11.466000	22.067622	0.000998	20.857331
144.034838	-2.996400	3.814700	-11.430000	22.093646	0.000998	20.846401
145.037058	-2.990900	3.815200	-11.409000	22.093696	0.000998	20.841236
146.036172	-2.992200	3.814500	-11.413000	22.106434	0.000998	20.855884
147.038311	-3.007500	3.814800	-11.471000	22.090655	0.000999	20.818752
148.038834	-3.007600	3.813900	-11.469000	22.111095	0.000999	20.851542
149.037180	-3.020200	3.812400	-11.513000	22.106833	0.001002	20.839214
150.036852	-3.035700	3.812200	-11.571000	22.104963	0.001000	20.844929
151.037349	-2.998500	3.813700	-11.434000	22.125279	0.000999	20.867638
152.038589	-2.989900	3.814500	-11.403000	22.132408	0.001001	20.850120
153.037511	-3.000800	3.812500	-11.439000	22.142005	0.001000	20.842184
154.037509	-2.999600	3.812600	-11.436000	22.146168	0.001000	20.869584
155.037191	-3.012000	3.812200	-11.482000	22.152574	0.001002	20.870782
156.038461	-3.007500	3.811500	-11.462000	22.157709	0.001003	20.862647
157.038376	-2.991000	3.811800	-11.399000	22.148461	0.001003	20.890845
158.043534	-2.968400	3.813500	-11.319000	22.155889	0.001002	20.864619
159.037806	-2.994100	3.812500	-11.413000	22.201802	0.001004	20.866490
160.043645	-2.998600	3.811900	-11.430000	22.179619	0.001005	20.876048
161.045784	-2.990100	3.811100	-11.394000	22.184105	0.001004	20.873902
162.040733	-3.012900	3.811400	-11.481000	22.197017	0.001006	20.874027
163.039897	-3.006200	3.810000	-11.453000	22.223287	0.001005	20.890846
164.041409	-2.998700	3.810100	-11.424000	22.211498	0.001007	20.869086
165.040626	-2.995900	3.810700	-11.415000	22.218253	0.001007	20.880116
166.040881	-3.022000	3.808700	-11.507000	22.233108	0.001006	20.870808
167.041185	-3.008000	3.810000	-11.459000	22.226029	0.001005	20.872255
168.040109	-3.006000	3.810000	-11.451000	22.239040	0.001008	20.860153
169.040932	-3.018100	3.807300	-11.489000	22.266282	0.001008	20.896436
170.041452	-3.008800	3.808900	-11.460000	22.290457	0.001008	20.871332
171.041453	-3.012400	3.809000	-11.473000	22.277124	0.001007	20.871732
172.041390	-2.993000	3.809600	-11.400000	22.302670	0.001010	20.877870
173.041262	-3.007600	3.808700	-11.453000	22.313960	0.001010	20.881114
174.042276	-3.014400	3.808300	-11.479000	22.304738	0.001009	20.872830
175.041306	-3.006400	3.807600	-11.447000	22.296589	0.001010	20.888376
176.041872	-2.990200	3.809000	-11.389000	22.337736	0.001010	20.890223
177.041525	-3.003000	3.807300	-11.432000	22.335218	0.001010	20.874901
178.041481	-2.992700	3.807900	-11.395000	22.346832	0.001012	20.867091
179.042173	-3.002900	3.806600	-11.430000	22.351991	0.001013	20.883160
180.045032	-3.006000	3.806600	-11.442000	22.364751	0.001014	20.899256
181.051522	-2.997900	3.805900	-11.409000	22.371430	0.001013	20.889350
182.044124	-3.010200	3.806100	-11.456000	22.404650	0.001015	20.901277
183.044743	-3.006800	3.805300	-11.441000	22.397522	0.001013	20.906468
184.045139	-2.998500	3.805300	-11.409000	22.405621	0.001014	20.897983
185.044940	-2.988600	3.806300	-11.375000	22.433308	0.001017	20.895363
186.043302	-2.996500	3.805500	-11.401000	22.446366	0.001016	20.877621
187.044292	-3.007200	3.804900	-11.440000	22.452546	0.001018	20.901826
188.048336	-2.994200	3.804800	-11.391000	22.437220	0.001018	20.892644
189.043926	-3.004300	3.805600	-11.432000	22.450403	0.001018	20.882612
190.043963	-2.995900	3.805400	-11.399000	22.449331	0.001018	20.900978
191.045005	-2.969500	3.804900	-11.298000	22.484293	0.001020	20.885732
192.045758	-3.001800	3.803700	-11.417000	22.467049	0.001018	20.895489
193.050417	-3.007500	3.803100	-11.437000	22.505100	0.001021	20.892344
194.049440	-2.998200	3.802800	-11.401000	22.494834	0.001018	20.877797
195.047186	-3.004300	3.804000	-11.427000	22.517634	0.001021	20.900629
196.046146	-2.989600	3.803200	-11.369000	22.503705	0.001023	20.902800
197.044063	-2.992100	3.803700	-11.380000	22.517659	0.001021	20.882638
198.045499	-3.004600	3.803300	-11.427000	22.521820	0.001021	20.865469
199.046037	-2.996500	3.800900	-11.388000	22.538939	0.001022	20.881664
200.044538	-2.978500	3.802700	-11.325000	22.537070	0.001022	20.892120
201.046872	-3.006500	3.800800	-11.425000	22.541879	0.001025	20.874178
202.046417	-3.006400	3.800800	-11.425000	22.561389	0.001024	20.896562
203.047576	-2.994000	3.801400	-11.380000	22.541705	0.001024	20.879219
204.047204	-3.010400	3.800800	-11.440000	22.545816	0.001023	20.882862
205.048190	-2.989500	3.801400	-11.363000	22.544097	0.001026	20.889675
206.049758	-2.986100	3.801000	-11.349000	22.548706	0.001027	20.868689
207.051076	-2.998500	3.801100	-11.397000	22.550276	0.001028	20.864097
208.050471	-3.005500	3.800400	-11.420000	22.563981	0.001027	20.866443
209.049942	-3.035900	3.798500	-11.531000	22.566423	0.001029	20.869363
210.051316	-3.017000	3.797700	-11.457000	22.581846	0.001028	20.858732
211.049939	-3.009000	3.799100	-11.431000	22.597070	0.001028	20.880143
212.049831	-3.013100	3.797700	-11.441000	22.586880	0.001026	20.857610
213.050956	-3.012100	3.798300	-11.439000	22.603923	0.001030	20.862825
214.050755	-3.003300	3.799600	-11.410000	22.603872	0.001030	20.855663
215.052392	-2.992500	3.799200	-11.368000	22.632725	0.001029	20.845682
216.051021	-2.996800	3.798400	-11.381000	22.647799	0.001033	20.862676
217.050583	-2.993400	3.797200	-11.365000	22.632600	0.001030	20.872582
218.052118	-3.004100	3.797700	-11.408000	22.647699	0.001032	20.853567
219.056849	-3.009700	3.797500	-11.428000	22.622012	0.001033	20.866244
220.054270	-3.004700	3.796900	-11.408000	22.655199	0.001032	20.871035
221.051388	-2.990100	3.797800	-11.354000	22.644810	0.001033	20.866794
222.052146	-2.986100	3.797300	-11.337000	22.638755	0.001035	20.841764
223.052299	-2.995600	3.796500	-11.371000	22.642218	0.001035	20.847129
224.053570	-3.015700	3.795100	-11.443000	22.636638	0.001036	20.847704
225.052437	-2.982400	3.796900	-11.322000	22.626746	0.001036	20.843012
226.052000	-3.008500	3.795200	-11.417000	22.628416	0.001037	20.854167
227.053641	-2.996100	3.795000	-11.368000	22.612445	0.001036	20.845284
228.051996	-2.997100	3.795300	-11.374000	22.665664	0.001036	20.854492
229.053032	-3.003700	3.794700	-11.397000	22.661603	0.001036	20.858484
230.052988	-2.982900	3.795900	-11.322000	22.665963	0.001038	20.876601
231.053651	-3.005800	3.795800	-11.408000	22.647800	0.001039	20.828539
232.053181	-2.996300	3.794100	-11.367000	22.684250	0.001038	20.847979
233.054213	-2.995900	3.793400	-11.363000	22.694764	0.001040	20.855665
234.054047	-2.988300	3.793600	-11.336000	22.700993	0.001038	20.832507
235.063877	-3.001800	3.792100	-11.382000	22.696434	0.001042	20.830311
236.054797	-3.003800	3.792700	-11.391000	22.726156	0.001040	20.846806
237.054270	-2.995000	3.793800	-11.361000	22.725682	0.001041	20.841590
238.053936	-2.999700	3.791900	-11.373000	22.721098	0.001042	20.835102
239.053251	-3.014300	3.791900	-11.429000	22.708043	0.001041	20.862327
240.053925	-3.005600	3.792600	-11.397000	22.725857	0.001040	20.833231
241.057781	-2.995700	3.792300	-11.360000	22.721222	0.001042	20.820528
242.055034	-2.997500	3.792300	-11.366000	22.689681	0.001041	20.841091
243.054548	-2.998200	3.791500	-11.366000	22.698999	0.001044	20.852795
244.057447	-3.006600	3.792100	-11.400000	22.684724	0.001044	20.852720
245.055127	-2.995700	3.792100	-11.359000	22.696832	0.001044	20.831184
246.055554	-3.003300	3.791800	-11.387000	22.711631	0.001046	20.826568
247.055584	-2.992200	3.791600	-11.345000	22.721821	0.001046	20.815912
248.056363	-2.999400	3.791100	-11.369000	22.742921	0.001047	20.838471
249.053976	-2.989200	3.790300	-11.329000	22.753036	0.001046	20.839120
250.056168	-2.984100	3.792100	-11.314000	22.761158	0.001049	20.833505
251.056296	-2.995300	3.788800	-11.348000	22.771646	0.001046	20.855864
252.055625	-2.969700	3.790000	-11.254000	22.780166	0.001050	20.822674
253.056664	-3.008100	3.787600	-11.393000	22.807021	0.001049	20.829188
254.058410	-3.002800	3.788200	-11.374000	22.783330	0.001050	20.822999
255.062107	-3.011600	3.788500	-11.408000	22.809039	0.001048	20.828364
256.057367	-3.014300	3.787400	-11.415000	22.810583	0.001049	20.819480
257.056328	-3.006400	3.788400	-11.388000	22.843341	0.001051	20.825270
258.064870	-3.011400	3.788100	-11.405000	22.821120	0.001051	20.836674
259.060054	-3.002400	3.787300	-11.370000	22.832381	0.001052	20.802910
260.064981	-3.018500	3.786100	-11.426000	22.808939	0.001053	20.822575
261.064095	-2.996100	3.787400	-11.346000	22.824259	0.001051	20.813266
262.062269	-2.999500	3.787800	-11.360000	22.851785	0.001054	20.825194
263.060806	-3.003700	3.786300	-11.371000	22.863917	0.001052	20.800838
264.068145	-3.012500	3.785000	-11.401000	22.869845	0.001054	20.823847
265.061689	-3.021400	3.786500	-11.440000	22.895652	0.001055	20.832631
266.061375	-2.998600	3.784900	-11.348000	22.904918	0.001055	20.822474
267.066925	-3.017700	3.784500	-11.419000	22.924323	0.001054	20.821526
268.062511	-3.020300	3.784400	-11.428000	22.930276	0.001054	20.816111
269.064766	-2.988300	3.785300	-11.310000	22.915255	0.001056	20.804856
270.065312	-3.003100	3.785500	-11.367000	22.926888	0.001055	20.815087
271.065018	-3.003000	3.783900	-11.362000	22.951298	0.001057	20.809198
272.065249	-3.013400	3.782900	-11.397000	22.957899	0.001055	20.794474
273.066669	-2.996700	3.785000	-11.341000	22.967065	0.001058	20.825942
274.065436	-2.982400	3.784600	-11.286000	22.951572	0.001055	20.802360
275.065711	-3.004400	3.783200	-11.365000	22.991374	0.001058	20.816160
276.065972	-3.015400	3.783500	-11.408000	22.990926	0.001058	20.809073
277.065130	-3.002500	3.782600	-11.356000	23.003505	0.001059	20.816933
278.064913	-2.990800	3.783000	-11.314000	22.975060	0.001059	20.812616
279.064652	-2.995800	3.782400	-11.329000	22.988634	0.001061	20.809621
280.065920	-3.002600	3.783200	-11.358000	22.978796	0.001063	20.821100
281.067592	-2.996700	3.782100	-11.333000	22.944099	0.001060	20.823796
282.065075	-3.005100	3.781200	-11.362000	22.965968	0.001064	20.811093
283.066231	-2.983000	3.782600	-11.283000	22.991025	0.001063	20.805378
284.069177	-3.031300	3.779900	-11.455000	23.027464	0.001062	20.815335
285.071066	-2.998200	3.781300	-11.336000	23.040640	0.001063	20.796295
286.068517	-3.007900	3.779800	-11.368000	23.033865	0.001064	20.807524
287.070740	-2.993600	3.779800	-11.314000	23.031872	0.001066	20.789881
288.068584	-2.988400	3.780800	-11.298000	23.055633	0.001065	20.799938
289.066619	-3.013500	3.780300	-11.390000	23.027912	0.001064	20.805353
290.067190	-3.004900	3.779800	-11.357000	23.038373	0.001066	20.809196
291.068043	-3.006000	3.778300	-11.357000	23.047239	0.001068	20.804804
292.067866	-2.996900	3.779400	-11.326000	23.044002	0.001068	20.777378
293.068161	-2.996700	3.778000	-11.320000	23.065545	0.001067	20.799912
294.069244	-2.998700	3.778400	-11.329000	23.084200	0.001068	20.810543
295.069812	-2.987200	3.777800	-11.284000	23.076503	0.001069	20.811841
296.069348	-2.993200	3.778300	-11.308000	23.067463	0.001070	20.799463
297.075721	-3.027500	3.776100	-11.431000	23.087312	0.001070	20.785687
298.075752	-3.005200	3.778200	-11.353000	23.104024	0.001072	20.807174
299.071492	-2.978000	3.778800	-11.252000	23.106763	0.001069	20.817031
300.078182	-3.013300	3.776800	-11.380000	23.122951	0.001069	20.799588
301.077809	-2.985200	3.777700	-11.277000	23.130298	0.001072	20.807424
302.073273	-2.990300	3.776000	-11.289000	23.136823	0.001072	20.801634
303.075305	-3.016800	3.775900	-11.389000	23.152587	0.001068	20.794671
304.076169	-2.993700	3.776200	-11.303000	23.122304	0.001072	20.781395
305.076025	-3.008000	3.773700	-11.350000	23.141430	0.001071	20.801983
306.078236	-3.023500	3.772600	-11.405000	23.132340	0.001072	20.798090
307.082453	-3.000500	3.773900	-11.322000	23.130398	0.001073	20.773858
308.074856	-2.988200	3.776000	-11.281000	23.124495	0.001073	20.786436
309.080308	-2.994600	3.772800	-11.297000	23.092443	0.001073	20.795570
310.083086	-3.010900	3.772200	-11.357000	23.133461	0.001076	20.774083
311.079419	-3.014700	3.773000	-11.373000	23.135403	0.001074	20.797841
312.081735	-3.002300	3.772700	-11.326000	23.160581	0.001077	20.793199
313.081266	-3.030000	3.772000	-11.428000	23.183318	0.001076	20.789431
314.078839	-2.992500	3.773100	-11.290000	23.173207	0.001076	20.803955
315.082910	-3.009500	3.771300	-11.348000	23.150047	0.001077	20.769366
316.084244	-2.990600	3.771300	-11.277000	23.169721	0.001077	20.793349
317.080096	-2.972100	3.772500	-11.211000	23.184713	0.001080	20.793199
318.086876	-3.016100	3.769900	-11.368000	23.198410	0.001077	20.784640
319.085943	-2.981800	3.770700	-11.241000	23.171788	0.001080	20.791627
320.082829	-2.987600	3.770400	-11.263000	23.197189	0.001076	20.793374
321.102136	-3.029400	3.768500	-11.415000	23.224508	0.001078	20.784241
322.085712	-3.006400	3.768900	-11.330000	23.203465	0.001079	20.762204
323.086175	-3.013500	3.769500	-11.359000	23.207798	0.001080	20.776978
324.086574	-3.016300	3.769700	-11.370000	23.237407	0.001081	20.772985
325.082704	-3.016100	3.767800	-11.363000	23.241715	0.001081	20.802433
326.082219	-3.014500	3.767800	-11.356000	23.220897	0.001080	20.790579
327.087848	-2.998700	3.769700	-11.303000	23.219527	0.001081	20.783043
328.084846	-3.023300	3.766600	-11.387000	23.222440	0.001083	20.804454
329.082694	-3.004700	3.766400	-11.316000	23.219328	0.001083	20.792800
330.089030	-3.029100	3.766400	-11.407000	23.213725	0.001083	20.790030
331.083372	-3.012800	3.767800	-11.350000	23.198235	0.001085	20.772137
332.090773	-3.008600	3.768300	-11.336000	23.200502	0.001085	20.788159
333.095405	-3.014700	3.767200	-11.357000	23.188424	0.001084	20.799763
334.086941	-2.991500	3.766800	-11.267000	23.217436	0.001084	20.790430
335.091303	-3.005300	3.766900	-11.319000	23.225703	0.001085	20.791603
336.085835	-3.016100	3.765600	-11.356000	23.234817	0.001086	20.770390
337.090060	-2.980800	3.766100	-11.225000	23.276577	0.001085	20.785214
338.089102	-3.006400	3.766000	-11.321000	23.269331	0.001085	20.772737
339.086267	-2.966200	3.766100	-11.171000	23.286961	0.001087	20.761007
340.087025	-3.008400	3.764500	-11.324000	23.338356	0.001088	20.785489
341.086679	-2.997500	3.764600	-11.284000	23.324710	0.001087	20.784141
342.089091	-3.002800	3.764800	-11.305000	23.330587	0.001087	20.770591
343.089957	-2.991800	3.764200	-11.260000	23.310692	0.001088	20.792377
344.087209	-3.008800	3.762900	-11.321000	23.324312	0.001089	20.787062
345.093140	-2.996900	3.763900	-11.279000	23.341319	0.001087	20.778502
346.091280	-3.008600	3.762500	-11.318000	23.326155	0.001089	20.781796
347.096892	-2.988000	3.762900	-11.242000	23.375431	0.001090	20.774758
348.095737	-3.014600	3.762100	-11.340000	23.376302	0.001089	20.772313
349.091479	-2.992100	3.762400	-11.255000	23.379863	0.001089	20.765450
350.089706	-3.007900	3.760200	-11.310000	23.403691	0.001089	20.749977
351.091643	-2.988700	3.761600	-11.241000	23.398711	0.001089	20.781496
352.090456	-2.986100	3.761600	-11.231000	23.409666	0.001089	20.754070
353.093049	-3.008000	3.759800	-11.307000	23.395972	0.001089	20.781596
354.098394	-3.017100	3.760500	-11.344000	23.404637	0.001092	20.758038
355.090122	-2.998000	3.760100	-11.272000	23.413999	0.001090	20.765999
356.091125	-2.994900	3.760000	-11.260000	23.447063	0.001093	20.789183
357.094380	-2.984600	3.759500	-11.220000	23.413052	0.001093	20.755093
358.094569	-3.008100	3.760200	-11.309000	23.434913	0.001092	20.761357
359.091055	-2.995800	3.759000	-11.260000	23.427792	0.001093	20.767496
360.097621	-3.008800	3.759100	-11.310000	23.398661	0.001093	20.769118
361.095475	-2.988400	3.759900	-11.235000	23.428962	0.001093	20.774359
362.095900	-2.962300	3.759700	-11.135000	23.433219	0.001094	20.774359
363.095640	-2.987800	3.757400	-11.225000	23.436182	0.001095	20.769742
364.096338	-3.002600	3.757700	-11.282000	23.430406	0.001091	20.772013
365.096698	-2.972700	3.758300	-11.171000	23.412903	0.001093	20.750675
366.096553	-3.024600	3.754500	-11.355000	23.402396	0.001095	20.779500
367.098408	-2.986300	3.757200	-11.219000	23.417385	0.001096	20.776505
368.099865	-2.979700	3.757100	-11.194000	23.417783	0.001095	20.757938
369.103888	-2.999700	3.755300	-11.264000	23.458092	0.001096	20.764202
370.097017	-2.995400	3.755900	-11.250000	23.437477	0.001097	20.799015
371.100229	-2.994400	3.754800	-11.242000	23.434688	0.001097	20.772986
372.098702	-3.011900	3.754100	-11.306000	23.440564	0.001095	20.755642
373.099030	-3.005100	3.753800	-11.279000	23.441361	0.001098	20.763079
374.099806	-2.992100	3.755100	-11.234000	23.427493	0.001096	20.765774
375.102621	-2.988600	3.753800	-11.216000	23.432722	0.001096	20.767696
376.101188	-2.998500	3.754700	-11.258000	23.450847	0.001098	20.752672
377.099048	-3.006400	3.753200	-11.282000	23.450050	0.001099	20.764676
378.101217	-3.004900	3.753900	-11.279000	23.430954	0.001099	20.744112
379.100451	-3.005200	3.752800	-11.277000	23.443727	0.001099	20.773037
380.101248	-2.993100	3.753200	-11.232000	23.463694	0.001096	20.755118
381.099735	-3.008400	3.752800	-11.288000	23.473230	0.001097	20.747606
382.103831	-3.000900	3.752600	-11.260000	23.464316	0.001097	20.758113
383.103649	-3.010600	3.750800	-11.291000	23.489064	0.001100	20.765375
384.101248	-3.013200	3.752000	-11.305000	23.498375	0.001099	20.760483
385.104002	-3.022600	3.751300	-11.338000	23.499719	0.001098	20.760883
386.106426	-3.007700	3.750500	-11.280000	23.502906	0.001099	20.747007
387.102512	-3.005200	3.751700	-11.274000	23.538557	0.001101	20.737699
388.104719	-2.985000	3.751300	-11.197000	23.549112	0.001101	20.760134
389.106422	-2.987800	3.750800	-11.206000	23.526806	0.001101	20.747257
390.100105	-2.996700	3.751100	-11.239000	23.560638	0.001100	20.755567
391.105737	-2.991900	3.750300	-11.220000	23.585309	0.001102	20.767971
392.108814	-2.991500	3.750600	-11.220000	23.601614	0.001102	20.752547
393.101810	-2.990700	3.748800	-11.210000	23.595963	0.001102	20.758737
394.116905	-3.024100	3.748500	-11.335000	23.607116	0.001101	20.753795
395.105786	-3.011700	3.749400	-11.290000	23.596586	0.001101	20.754145
396.102133	-3.002700	3.747500	-11.251000	23.571418	0.001103	20.730336
397.105216	-3.020800	3.747900	-11.321000	23.557601	0.001104	20.757264
398.105346	-3.003500	3.748200	-11.255000	23.540050	0.001104	20.764801
399.101770	-2.993200	3.748200	-11.218000	23.548639	0.001103	20.735951
400.106570	-3.002200	3.746100	-11.246000	23.561410	0.001103	20.760134
401.103695	-2.984400	3.747100	-11.182000	23.580728	0.001105	20.766697
402.101681	-2.991100	3.744600	-11.199000	23.587325	0.001105	20.752447
403.103930	-2.978100	3.746500	-11.157000	23.609779	0.001106	20.743189
404.104227	-2.977700	3.745000	-11.151000	23.639053	0.001105	20.763054
405.104179	-2.983900	3.745900	-11.177000	23.626283	0.001106	20.771115
406.108576	-2.996400	3.745100	-11.221000	23.650653	0.001105	20.738646
407.107724	-3.001300	3.744900	-11.238000	23.638779	0.001105	20.743338
408.112241	-2.997000	3.744500	-11.222000	23.629544	0.001104	20.737873
409.106758	-2.998200	3.744200	-11.225000	23.654935	0.001105	20.745784
410.103629	-3.013000	3.743100	-11.276000	23.649210	0.001108	20.743363
411.103166	-3.014500	3.740900	-11.277000	23.627503	0.001108	20.730136
412.105082	-3.007000	3.743300	-11.255000	23.608435	0.001107	20.737573
413.105982	-3.006800	3.742400	-11.251000	23.607364	0.001107	20.736499
414.104281	-3.010100	3.741800	-11.260000	23.578064	0.001106	20.753595
415.106826	-2.981600	3.741800	-11.156000	23.590337	0.001106	20.741716
416.106757	-3.011300	3.739900	-11.261000	23.581898	0.001108	20.743688
417.106508	-2.976000	3.741400	-11.133000	23.609380	0.001107	20.739944
418.108224	-3.010300	3.739500	-11.257000	23.650106	0.001108	20.742839
419.107556	-2.998400	3.741700	-11.217000	23.656503	0.001106	20.735502
420.106919	-3.012900	3.740000	-11.267000	23.665340	0.001108	20.741516
421.109448	-2.981700	3.740400	-11.151000	23.664444	0.001107	20.725919
422.111074	-2.976000	3.741600	-11.134000	23.666635	0.001107	20.739021
423.106662	-3.017100	3.738500	-11.278000	23.675247	0.001108	20.727266
424.112580	-3.008000	3.738300	-11.244000	23.655159	0.001106	20.736525
425.108669	-2.998500	3.738800	-11.210000	23.650380	0.001109	20.730311
426.109977	-3.021400	3.737900	-11.292000	23.669473	0.001109	20.760833
427.115489	-2.996900	3.736700	-11.196000	23.681172	0.001111	20.756915
428.111852	-2.994000	3.739000	-11.193000	23.707284	0.001107	20.741842
429.112650	-2.982600	3.737000	-11.145000	23.721596	0.001107	20.731534
430.116782	-2.972100	3.739800	-11.113000	23.740737	0.001111	20.745984
431.116789	-2.986800	3.737300	-11.161000	23.793131	0.001111	20.742565
432.112940	-2.983700	3.736900	-11.149000	23.790194	0.001110	20.745310
433.116074	-2.992000	3.734400	-11.171000	23.783249	0.001110	20.756840
434.117665	-3.022500	3.734600	-11.287000	23.776330	0.001110	20.730935
435.118241	-2.993800	3.734700	-11.180000	23.771526	0.001110	20.736551
436.118411	-2.980500	3.736300	-11.135000	23.757041	0.001111	20.744786
437.119410	-2.989600	3.735200	-11.165000	23.764358	0.001110	20.743589
438.116573	-3.000800	3.734200	-11.204000	23.796864	0.001111	20.769543
439.120791	-2.978300	3.735300	-11.123000	23.816999	0.001110	20.747057
440.118960	-3.002800	3.733500	-11.209000	23.844103	0.001112	20.741991
441.116696	-3.013300	3.733200	-11.248000	23.858986	0.001109	20.750751
442.119550	-3.006100	3.733000	-11.221000	23.886786	0.001112	20.744013
443.122717	-3.002900	3.732100	-11.206000	23.873421	0.001111	20.755742
444.115964	-3.007600	3.732800	-11.226000	23.855229	0.001113	20.754095
445.122180	-3.002800	3.730900	-11.203000	23.864786	0.001112	20.759885
446.122732	-3.010100	3.732000	-11.233000	23.866552	0.001111	20.741742
447.117870	-3.028400	3.731500	-11.300000	23.888926	0.001113	20.761333
448.120929	-3.001100	3.732300	-11.200000	23.887682	0.001111	20.751076
449.122477	-3.006300	3.731200	-11.216000	23.886737	0.001114	20.733057
450.116817	-2.980000	3.731300	-11.118000	23.917845	0.001112	20.732009
451.123745	-2.998200	3.729700	-11.181000	23.886214	0.001115	20.756716
452.124193	-3.001300	3.730500	-11.195000	23.872874	0.001112	20.753771
453.118578	-2.971200	3.729600	-11.080000	23.829245	0.001113	20.736102
454.121621	-2.990400	3.728600	-11.149000	23.803610	0.001114	20.731260
455.130903	-2.986800	3.728400	-11.134000	23.775186	0.001115	20.735004
456.118504	-3.015300	3.728400	-11.241000	23.806546	0.001115	20.750801
457.122198	-3.011100	3.728600	-11.226000	23.810479	0.001114	20.749055
458.124278	-3.002800	3.727900	-11.194000	23.835492	0.001113	20.757540
459.119332	-3.009500	3.727500	-11.217000	23.794525	0.001114	20.743963
460.124538	-2.996100	3.727900	-11.168000	23.813317	0.001114	20.732459
461.122811	-3.002000	3.726000	-11.185000	23.792858	0.001114	20.740870
462.118438	-3.011600	3.725300	-11.218000	23.826060	0.001112	20.752823
463.125273	-3.002600	3.726700	-11.189000	23.804979	0.001113	20.742117
464.130662	-3.026000	3.724300	-11.268000	23.798184	0.001115	20.740046
465.119559	-3.021500	3.725000	-11.253000	23.782628	0.001115	20.740570
466.128000	-3.028200	3.723800	-11.275000	23.811774	0.001118	20.744188
467.125496	-3.003400	3.726100	-11.188000	23.811077	0.001114	20.749180
468.124009	-2.988300	3.726400	-11.134000	23.830142	0.001113	20.763555
469.127873	-2.997900	3.724000	-11.164000	23.826956	0.001115	20.763206
470.124247	-2.995600	3.723600	-11.152000	23.838057	0.001114	20.771491
471.135604	-3.018600	3.723300	-11.238000	23.874717	0.001115	20.762258
472.123475	-3.032100	3.723200	-11.288000	23.902914	0.001114	20.732684
473.123784	-2.999000	3.723300	-11.164000	23.928946	0.001115	20.764479
474.124141	-3.005500	3.722400	-11.186000	23.920808	0.001116	20.775759
475.124295	-3.005100	3.722800	-11.187000	23.948880	0.001114	20.754596
476.126996	-2.995100	3.722500	-11.149000	23.966150	0.001115	20.757690
477.125163	-2.993100	3.722400	-11.140000	23.973865	0.001115	20.767798
478.124433	-2.999400	3.720400	-11.158000	23.966225	0.001116	20.760611
479.132472	-3.004400	3.721200	-11.179000	23.922924	0.001117	20.757491
480.123590	-3.006100	3.720800	-11.183000	23.941414	0.001118	20.746635
481.132701	-2.978200	3.721000	-11.081000	23.950125	0.001116	20.776234
482.130216	-2.972800	3.720800	-11.060000	23.982750	0.001115	20.755370
483.125838	-2.968200	3.720700	-11.042000	23.991036	0.001116	20.773164
484.132937	-2.997500	3.718600	-11.146000	24.023810	0.001116	20.754821
485.130183	-3.000900	3.718600	-11.158000	24.051008	0.001117	20.770244
486.134539	-3.013400	3.717500	-11.200000	24.074647	0.001119	20.768822
487.131771	-2.978800	3.720100	-11.080000	24.093035	0.001116	20.750279
488.131010	-3.006800	3.718800	-11.180000	24.101122	0.001116	20.780676
489.126162	-3.004400	3.718000	-11.170000	24.114161	0.001117	20.758665
490.129434	-3.021900	3.717400	-11.232000	24.139914	0.001116	20.759364
491.129985	-2.990300	3.717100	-11.115000	24.139764	0.001117	20.757317
492.125482	-3.013800	3.716100	-11.199000	24.109384	0.001117	20.783272
493.128975	-3.011800	3.717100	-11.194000	24.112494	0.001119	20.773115
494.134900	-2.997800	3.716700	-11.140000	24.070542	0.001117	20.772765
495.130632	-3.012600	3.715700	-11.193000	24.099804	0.001117	20.753749
496.132648	-2.995100	3.715700	-11.128000	24.073154	0.001114	20.770170
497.142338	-2.997000	3.716200	-11.136000	24.071612	0.001116	20.758666
498.132629	-3.007900	3.715800	-11.174000	24.066611	0.001117	20.775935
499.131429	-3.022100	3.713000	-11.220000	24.058922	0.001118	20.768698
500.133571	-3.009500	3.714200	-11.176000	24.082610	0.001116	20.790085
501.134217	-3.008600	3.714700	-11.174000	24.084601	0.001117	20.772642
502.140634	-3.004200	3.713200	-11.154000	24.143821	0.001116	20.765180
503.138763	-3.009200	3.712900	-11.172000	24.128171	0.001117	20.756121
504.134822	-3.013000	3.712300	-11.184000	24.145837	0.001117	20.770995
505.146256	-3.001800	3.711700	-11.141000	24.135909	0.001118	20.772417
506.134366	-3.029500	3.711200	-11.242000	24.143673	0.001118	20.774988
507.135502	-3.015800	3.711100	-11.191000	24.147231	0.001117	20.782824
508.134361	-3.004800	3.711300	-11.151000	24.176044	0.001116	20.773791
509.140924	-2.986100	3.712900	-11.085000	24.174277	0.001119	20.788140
510.137734	-3.001700	3.712300	-11.142000	24.203089	0.001117	20.769149
511.141448	-3.004200	3.709700	-11.143000	24.219187	0.001118	20.813271
512.137899	-2.991500	3.710900	-11.100000	24.199556	0.001117	20.776038
513.136702	-3.006300	3.709700	-11.151000	24.213117	0.001117	20.784898
514.138091	-3.015900	3.708100	-11.182000	24.241530	0.001116	20.774516
515.138877	-2.991100	3.708500	-11.091000	24.238022	0.001119	20.788541
516.138069	-3.001200	3.707800	-11.127000	24.211401	0.001116	20.796927
517.139462	-2.999000	3.709100	-11.122000	24.220208	0.001116	20.791537
518.145211	-2.996000	3.707900	-11.107000	24.221253	0.001120	20.785947
519.140330	-2.992000	3.708400	-11.093000	24.206202	0.001119	20.783177
520.141215	-3.010400	3.708300	-11.162000	24.206251	0.001118	20.792236
521.140590	-3.015400	3.706400	-11.174000	24.214561	0.001116	20.807684
522.139695	-2.986300	3.708100	-11.072000	24.235909	0.001117	20.782629
523.146491	-3.006100	3.706100	-11.139000	24.240188	0.001118	20.778861
524.144551	-3.013600	3.706200	-11.168000	24.268078	0.001118	20.794508
525.140803	-2.993800	3.706700	-11.096000	24.266063	0.001118	20.799125
526.142922	-3.001700	3.705900	-11.122000	24.272133	0.001117	20.805688
527.142076	-2.999500	3.706400	-11.116000	24.316516	0.001116	20.798527
528.141627	-3.016800	3.705700	-11.178000	24.307087	0.001118	20.801870
529.141366	-3.007700	3.703300	-11.136000	24.296341	0.001118	20.814323
530.140753	-3.009000	3.705400	-11.148000	24.315596	0.001113	20.804241
531.141299	-2.987800	3.705200	-11.069000	24.322960	0.001118	20.814947
532.142533	-2.996000	3.704300	-11.097000	24.330871	0.001118	20.800124
533.141309	-3.004700	3.704900	-11.131000	24.331443	0.001115	20.795482
534.143377	-3.009700	3.702900	-11.144000	24.348384	0.001117	20.808209
535.142779	-2.995300	3.704300	-11.095000	24.332463	0.001116	20.794135
536.144907	-3.000600	3.703600	-11.111000	24.352489	0.001118	20.786723
537.145960	-2.990100	3.704500	-11.076000	24.325522	0.001118	20.815147
538.142538	-2.992400	3.700800	-11.074000	24.321990	0.001118	20.804966
539.150784	-2.982400	3.702600	-11.041000	24.312636	0.001119	20.808858
540.143462	-3.024700	3.699900	-11.190000	24.334030	0.001118	20.811828
541.148007	-2.992000	3.700500	-11.072000	24.304650	0.001116	20.812702
542.142833	-3.010800	3.700300	-11.140000	24.288902	0.001117	20.810181
543.144973	-3.018900	3.700300	-11.168000	24.271513	0.001119	20.823557
544.153614	-3.013600	3.699300	-11.148000	24.252107	0.001116	20.809782
545.146163	-3.022000	3.699100	-11.178000	24.227651	0.001118	20.821761
546.147976	-2.996300	3.698700	-11.081000	24.257804	0.001116	20.834463
547.145611	-3.011500	3.697500	-11.133000	24.254222	0.001114	20.814749
548.153384	-3.011000	3.698200	-11.133000	24.275593	0.001116	20.808210
549.143704	-2.983000	3.698300	-11.031000	24.286962	0.001116	20.792588
550.147045	-2.995400	3.696300	-11.071000	24.295968	0.001116	20.825803
551.146090	-3.007300	3.698000	-11.119000	24.303606	0.001116	20.812603
552.145060	-3.003100	3.696200	-11.098000	24.291042	0.001116	20.810431
553.145532	-2.996000	3.696600	-11.074000	24.318582	0.001116	20.835212
554.146303	-3.010700	3.695000	-11.123000	24.332040	0.001116	20.815047
555.145664	-3.020600	3.696400	-11.164000	24.328632	0.001119	20.824905
556.148118	-3.002500	3.697200	-11.099000	24.329776	0.001117	20.829846
557.151233	-3.008700	3.694300	-11.114000	24.339578	0.001116	20.837307
558.150422	-2.999500	3.695100	-11.082000	24.321070	0.001117	20.809258
559.148227	-3.008100	3.693100	-11.108000	24.333185	0.001114	20.820463
560.147848	-2.978100	3.696000	-11.006000	24.319776	0.001114	20.828348
561.150833	-2.993100	3.694000	-11.055000	24.319751	0.001114	20.822160
562.151041	-2.995000	3.693300	-11.060000	24.324826	0.001113	20.831992
563.149581	-3.013000	3.694200	-11.131000	24.345001	0.001113	20.828523
564.146901	-3.008400	3.692300	-11.106000	24.349429	0.001113	20.827275
565.149145	-3.003900	3.693200	-11.091000	24.379330	0.001112	20.821710
566.152730	-2.999400	3.693400	-11.076000	24.378833	0.001114	20.815995
567.150220	-3.014400	3.692600	-11.130000	24.382117	0.001115	20.833988
568.151571	-2.982800	3.693900	-11.016000	24.392017	0.001114	20.824954
569.154318	-3.009500	3.692600	-11.112000	24.397937	0.001113	20.841798
570.152928	-2.994100	3.692100	-11.053000	24.414280	0.001114	20.829271
571.160594	-3.013400	3.690300	-11.119000	24.437140	0.001115	20.804315
572.153429	-2.988100	3.693200	-11.034000	24.441667	0.001116	20.836832
573.150277	-3.001100	3.689600	-11.071000	24.471741	0.001113	20.839976
574.151687	-2.989800	3.689900	-11.030000	24.470099	0.001116	20.837855
575.154606	-2.966600	3.690800	-10.948000	24.469950	0.001113	20.850507
576.154168	-3.006100	3.688800	-11.088000	24.482785	0.001114	20.837306
577.152845	-2.999600	3.688400	-11.063000	24.488879	0.001113	20.817816
578.154368	-2.996000	3.687600	-11.047000	24.474551	0.001115	20.857968
579.153693	-2.995400	3.689300	-11.050000	24.471616	0.001113	20.834161
580.154065	-3.001500	3.688600	-11.070000	24.444976	0.001113	20.842047
581.152462	-3.004300	3.687000	-11.076000	24.430523	0.001114	20.852677
582.151443	-3.000000	3.686400	-11.058000	24.399876	0.001113	20.839476
583.159180	-3.010000	3.686400	-11.094000	24.367463	0.001112	20.847262
584.156094	-2.978500	3.686000	-10.978000	24.368831	0.001114	20.855272
585.158460	-3.031300	3.686000	-11.173000	24.342412	0.001112	20.851529
586.156677	-3.002200	3.685800	-11.065000	24.368508	0.001111	20.844043
587.162890	-2.973000	3.686100	-10.957000	24.411418	0.001111	20.838253
588.155542	-3.007800	3.684800	-11.082000	24.427488	0.001112	20.842046
589.153835	-3.012500	3.684600	-11.098000	24.446816	0.001111	20.838677
590.155810	-3.022100	3.684000	-11.132000	24.469949	0.001112	20.854299
591.152721	-3.008200	3.684400	-11.082000	24.466068	0.001112	20.843768
592.158394	-2.995300	3.684700	-11.035000	24.463307	0.001113	20.850955
593.154527	-3.014300	3.684200	-11.104000	24.445050	0.001114	20.854923
594.153210	-3.002000	3.683300	-11.056000	24.436841	0.001110	20.862808
595.153524	-2.983000	3.682500	-10.985000	24.425423	0.001111	20.847087
596.153792	-2.993500	3.682700	-11.024000	24.446318	0.001113	20.854773
597.154822	-2.980400	3.681700	-10.972000	24.421966	0.001110	20.864480
598.154159	-2.998700	3.682500	-11.041000	24.424204	0.001109	20.862459
599.161587	-3.003000	3.680900	-11.052000	24.446119	0.001109	20.840824
600.159182	-3.013400	3.680700	-11.090000	24.468580	0.001110	20.854822
601.157091	-2.995500	3.681400	-11.026000	24.459104	0.001110	20.871866
602.154618	-3.003500	3.680800	-11.054000	24.453059	0.001111	20.850630
603.155382	-2.996400	3.681900	-11.031000	24.441542	0.001111	20.860887
604.155215	-3.000200	3.680100	-11.040000	24.447437	0.001110	20.867275
605.157434	-2.999300	3.680500	-11.038000	24.433682	0.001111	20.861062
606.158813	-3.001200	3.680500	-11.045000	24.448457	0.001109	20.865927
607.159737	-3.004800	3.678800	-11.053000	24.456740	0.001108	20.852427
608.158227	-2.993800	3.679600	-11.013000	24.468481	0.001109	20.872266
609.161164	-3.001800	3.678700	-11.041000	24.444577	0.001110	20.862982
610.161801	-2.994800	3.678900	-11.016000	24.455497	0.001109	20.876308
611.164256	-3.002700	3.678300	-11.044000	24.465173	0.001110	20.857094
612.160779	-3.000300	3.677200	-11.032000	24.484351	0.001108	20.869695
613.159241	-2.991700	3.677700	-11.002000	24.488405	0.001109	20.866176
614.163300	-3.003400	3.677300	-11.043000	24.525913	0.001109	20.863980
615.160091	-2.998800	3.677300	-11.025000	24.541609	0.001107	20.865977
616.160670	-2.996600	3.675800	-11.013000	24.532629	0.001109	20.875933
617.161755	-2.994900	3.674800	-11.003000	24.535191	0.001106	20.857642
618.163029	-2.991000	3.675900	-10.994000	24.520541	0.001108	20.863332
619.166045	-2.994800	3.676100	-11.008000	24.538623	0.001107	20.883843
620.164861	-2.992400	3.675300	-10.996000	24.562551	0.001108	20.868971
621.162954	-3.008800	3.674400	-11.055000	24.588815	0.001106	20.882047
622.162592	-2.982800	3.675200	-10.961000	24.588940	0.001106	20.879327
623.163176	-3.012700	3.674200	-11.069000	24.603017	0.001106	20.902933
624.165311	-2.988500	3.674000	-10.979000	24.582050	0.001107	20.870044
625.169754	-3.001700	3.672000	-11.022000	24.576827	0.001106	20.890406
626.165077	-3.012700	3.671500	-11.059000	24.574266	0.001109	20.869820
627.166049	-3.002900	3.672300	-11.025000	24.549542	0.001106	20.878204
628.163654	-3.017900	3.671800	-11.079000	24.547255	0.001108	20.873064
629.164530	-3.020200	3.670700	-11.085000	24.583394	0.001106	20.891305
630.167802	-3.012300	3.671000	-11.057000	24.607295	0.001105	20.893002
631.165896	-3.008100	3.671400	-11.043000	24.631644	0.001106	20.886614
632.164649	-2.978100	3.671300	-10.932000	24.610802	0.001104	20.883246
633.164421	-3.006700	3.671700	-11.037000	24.585633	0.001106	20.890233
634.164922	-2.990300	3.669300	-10.971000	24.607321	0.001106	20.890183
635.165867	-2.992300	3.670400	-10.982000	24.588170	0.001107	20.891830
636.166745	-2.987200	3.671000	-10.965000	24.573595	0.001106	20.890957
637.171874	-3.009900	3.670100	-11.044000	24.570536	0.001107	20.894051
638.165365	-2.995900	3.668400	-10.990000	24.546161	0.001105	20.857743
639.167365	-3.000700	3.669500	-11.008000	24.547953	0.001104	20.895574
640.169268	-3.010600	3.666800	-11.038000	24.533900	0.001105	20.893802
641.166687	-3.004800	3.668300	-11.021000	24.530044	0.001106	20.891357
642.166467	-3.009000	3.667800	-11.036000	24.537731	0.001103	20.907128
643.168282	-3.018800	3.667000	-11.069000	24.593095	0.001101	20.891556
644.167264	-3.001400	3.667400	-11.007000	24.609038	0.001103	20.896647
645.167953	-2.996400	3.667900	-10.989000	24.633462	0.001105	20.913092
646.171955	-3.006100	3.667400	-11.023000	24.642987	0.001104	20.900840
647.168619	-2.992500	3.666600	-10.971000	24.670543	0.001104	20.902412
648.170798	-2.992100	3.666900	-10.971000	24.671364	0.001103	20.907503
649.167380	-3.006900	3.665900	-11.022000	24.705161	0.001102	20.913915
650.167728	-3.014200	3.664700	-11.045000	24.709961	0.001101	20.902138
651.167191	-3.011000	3.664600	-11.033000	24.728314	0.001104	20.907752
652.170000	-3.014700	3.663400	-11.043000	24.712149	0.001101	20.892481
653.169545	-3.003900	3.664900	-11.007000	24.740549	0.001101	20.904858
654.170312	-3.030000	3.663000	-11.097000	24.724783	0.001100	20.915114
655.170494	-2.996600	3.665700	-10.983000	24.712100	0.001101	20.920878
656.172283	-3.008600	3.663600	-11.021000	24.718541	0.001103	20.879931
657.173621	-2.986000	3.664500	-10.941000	24.699492	0.001103	20.894478
658.175999	-3.020800	3.661900	-11.061000	24.707599	0.001102	20.910199
659.175317	-2.999000	3.663200	-10.986000	24.732343	0.001100	20.930286
660.177084	-3.014100	3.662800	-11.039000	24.759524	0.001100	20.908253
661.174984	-2.996000	3.661400	-10.968000	24.750373	0.001100	20.901915
662.174474	-3.016900	3.661000	-11.044000	24.768477	0.001100	20.911073
663.175273	-2.991600	3.661400	-10.953000	24.771635	0.001100	20.918035
664.171489	-2.986400	3.661100	-10.933000	24.735900	0.001098	20.888341
665.179518	-3.026700	3.660300	-11.077000	24.741023	0.001100	20.871672
666.178764	-2.999900	3.661800	-10.983000	24.724187	0.001100	20.914517
667.175750	-3.006400	3.660500	-11.004000	24.707152	0.001098	20.899794
668.176942	-3.000000	3.659500	-10.977000	24.690391	0.001099	20.887717
669.180465	-2.999000	3.658700	-10.971000	24.718518	0.001102	20.888441
670.176312	-2.990300	3.660700	-10.945000	24.742665	0.001098	20.888491
671.177172	-3.029200	3.658300	-11.080000	24.748334	0.001098	20.894180
672.180316	-2.988000	3.658400	-10.930000	24.778226	0.001099	20.880556
673.189343	-3.014400	3.658600	-11.027000	24.790137	0.001101	20.882078
674.178309	-3.007400	3.659000	-11.003000	24.811946	0.001098	20.885473
675.181896	-3.007500	3.657200	-10.997000	24.825298	0.001097	20.877063
676.180194	-2.994600	3.658200	-10.954000	24.809210	0.001099	20.880357
677.181838	-2.998900	3.657600	-10.968000	24.790486	0.001097	20.880057
678.180944	-2.979800	3.659200	-10.903000	24.765320	0.001095	20.901742
679.182232	-3.002900	3.655900	-10.977000	24.763803	0.001097	20.871773
680.180544	-3.010700	3.656400	-11.007000	24.797946	0.001094	20.898923
681.184451	-2.997800	3.655100	-10.956000	24.835817	0.001095	20.885248
682.179486	-3.026100	3.654600	-11.057000	24.817715	0.001094	20.877987
683.185171	-3.006900	3.654900	-10.989000	24.827885	0.001094	20.883926
684.184337	-3.010400	3.654500	-11.000000	24.830323	0.001095	20.866933
685.183296	-2.980600	3.655300	-10.893000	24.801229	0.001094	20.873296
686.184889	-3.016200	3.654700	-11.021000	24.805158	0.001095	20.870601
687.189778	-2.995800	3.654800	-10.948000	24.782778	0.001095	20.886072
688.182714	-2.980600	3.654700	-10.892000	24.801950	0.001095	20.869278
689.181604	-2.998500	3.654300	-10.956000	24.833456	0.001093	20.874344
690.183443	-3.003900	3.652600	-10.970000	24.850115	0.001093	20.861667
691.182241	-2.993800	3.652100	-10.931000	24.886369	0.001093	20.869129
692.186859	-3.018900	3.653000	-11.027000	24.903128	0.001093	20.880732
693.183257	-2.987100	3.652800	-10.909000	24.915485	0.001091	20.884126
694.184824	-2.976800	3.653000	-10.872000	24.881420	0.001092	20.858473
695.185034	-3.008300	3.650600	-10.981000	24.866526	0.001092	20.873869
696.189759	-2.985800	3.651300	-10.900000	24.833430	0.001092	20.873370
697.191699	-2.989600	3.651300	-10.915000	24.840318	0.001092	20.851361
698.186587	-3.008000	3.651700	-10.983000	24.857127	0.001092	20.884350
699.189826	-2.998600	3.650100	-10.943000	24.880550	0.001091	20.863763
700.186130	-2.992100	3.650800	-10.923000	24.900740	0.001091	20.852259
701.187985	-3.014400	3.648900	-10.997000	24.949821	0.001091	20.865959
702.187341	-2.988300	3.649300	-10.904000	24.948030	0.001089	20.870326
703.186752	-2.998700	3.648900	-10.941000	24.968543	0.001090	20.857724
704.190425	-2.972700	3.650600	-10.851000	24.958821	0.001089	20.874518
705.191535	-2.999500	3.649800	-10.946000	24.915882	0.001088	20.848491
706.186094	-3.003900	3.647300	-10.956000	24.942685	0.001087	20.845047
707.189167	-3.003000	3.647700	-10.952000	24.916628	0.001088	20.846394
708.186829	-3.001200	3.647500	-10.945000	24.900764	0.001089	20.844224
709.185603	-2.986600	3.649100	-10.897000	24.885224	0.001088	20.877936
710.190910	-3.011800	3.646900	-10.983000	24.909640	0.001090	20.837011
711.186353	-2.998700	3.647300	-10.935000	24.912798	0.001089	20.841128
712.188669	-2.980900	3.647300	-10.872000	24.890967	0.001088	20.844347
713.188837	-3.012800	3.645100	-10.982000	24.849791	0.001089	20.854703
714.192049	-2.992000	3.645200	-10.905000	24.812964	0.001090	20.855677
715.187312	-2.995900	3.645500	-10.920000	24.867370	0.001085	20.845320
716.189175	-2.998900	3.644000	-10.926000	24.867146	0.001085	20.846518
717.189740	-2.986500	3.646100	-10.888000	24.884850	0.001088	20.846743
718.190470	-3.016000	3.643300	-10.987000	24.871050	0.001089	20.854703
719.190968	-2.991200	3.645500	-10.903000	24.854465	0.001087	20.839481
720.195670	-3.007700	3.644300	-10.959000	24.852923	0.001083	20.853580
721.190584	-2.996400	3.644200	-10.918000	24.874357	0.001087	20.854229
722.192780	-2.993600	3.643800	-10.906000	24.876794	0.001086	20.855726
723.192018	-3.006400	3.643300	-10.951000	24.899818	0.001087	20.853231
724.190154	-3.008900	3.641900	-10.957000	24.927516	0.001083	20.841677
725.194393	-2.996100	3.644300	-10.917000	24.965359	0.001086	20.854529
726.193731	-2.997400	3.641300	-10.913000	24.992284	0.001084	20.837933
727.194059	-2.992900	3.642700	-10.901000	25.022119	0.001082	20.844173
728.197116	-2.998800	3.641200	-10.917000	25.039373	0.001080	20.837784
729.195942	-2.981900	3.641800	-10.857000	25.052773	0.001083	20.832743
730.194153	-3.032700	3.640800	-11.040000	25.050634	0.001081	20.837234
731.194858	-2.998000	3.640600	-10.913000	25.049516	0.001080	20.832793
732.195769	-2.988700	3.641200	-10.881000	25.057173	0.001080	20.833841
733.194237	-2.989900	3.639900	-10.881000	25.054115	0.001082	20.821763
734.196705	-3.024400	3.639600	-11.006000	25.076042	0.001082	20.848988
735.197172	-2.970200	3.640400	-10.812000	25.034897	0.001080	20.852257
736.196647	-2.994900	3.639800	-10.901000	25.010185	0.001082	20.824607
737.195806	-2.986300	3.640000	-10.869000	24.999171	0.001079	20.824932
738.192378	-2.998300	3.638900	-10.909000	24.965060	0.001081	20.850435
739.203231	-2.978200	3.639100	-10.836000	24.939898	0.001080	20.843673
740.194873	-2.977800	3.639200	-10.835000	24.913592	0.001080	20.826279
741.195290	-3.006300	3.635900	-10.930000	24.917048	0.001077	20.843023
742.196891	-2.986100	3.639000	-10.865000	24.943776	0.001078	20.813427
743.197163	-3.008600	3.636000	-10.939000	24.957003	0.001078	20.839504
744.199318	-2.976800	3.638100	-10.827000	24.946362	0.001079	20.824082
745.199549	-2.988400	3.636700	-10.866000	24.975476	0.001077	20.852355
746.198253	-3.000900	3.636100	-10.910000	25.003769	0.001078	20.830496
747.199121	-2.985300	3.637300	-10.857000	25.016300	0.001077	20.829797
748.197618	-3.005100	3.634500	-10.920000	25.033304	0.001076	20.839279
749.203918	-3.010900	3.635700	-10.945000	25.051080	0.001077	20.842423
750.206265	-3.010000	3.634200	-10.939000	25.064753	0.001076	20.834337
751.197661	-3.005400	3.634900	-10.923000	25.101819	0.001078	20.821760
752.203317	-2.997200	3.635400	-10.895000	25.101919	0.001077	20.834188
753.203884	-3.024100	3.633500	-10.987000	25.134534	0.001078	20.842747
754.201230	-3.006700	3.633800	-10.925000	25.139605	0.001076	20.835985
755.203399	-3.006600	3.633700	-10.924000	25.146416	0.001073	20.838080
756.205378	-3.001800	3.634300	-10.908000	25.144278	0.001076	20.829770
757.201308	-3.005600	3.633300	-10.919000	25.118202	0.001076	20.847689
758.201649	-3.001300	3.634200	-10.906000	25.083423	0.001074	20.822733
759.209917	-2.998200	3.632800	-10.891000	25.045784	0.001076	20.835685
760.202062	-3.009700	3.631800	-10.929000	25.058239	0.001076	20.839653
761.202776	-2.994300	3.630200	-10.868000	25.088195	0.001075	20.823257
762.202081	-3.015200	3.630300	-10.945000	25.063261	0.001076	20.820512
763.201331	-2.988400	3.631100	-10.850000	25.060227	0.001072	20.834062
764.203380	-3.021200	3.629400	-10.964000	25.063882	0.001072	20.830144
765.203014	-3.019700	3.631400	-10.964000	25.052620	0.001071	20.839228
766.204384	-2.989800	3.631100	-10.855000	25.051227	0.001073	20.816493
767.205441	-2.996300	3.630500	-10.877000	25.040786	0.001071	20.822134
768.201416	-2.984000	3.629300	-10.828000	25.067163	0.001072	20.807834
769.201991	-3.013200	3.628000	-10.929000	25.059158	0.001069	20.821609
770.207377	-3.034000	3.628000	-11.006000	25.016372	0.001069	20.803317
771.202399	-3.002800	3.629200	-10.896000	24.983479	0.001068	20.825302
772.206229	-3.006100	3.629700	-10.909000	24.988128	0.001071	20.804839
773.206569	-3.029800	3.626600	-10.987000	25.001404	0.001070	20.823380
774.210670	-3.012500	3.630200	-10.935000	25.040015	0.001071	20.809032
775.207645	-3.005300	3.625800	-10.896000	25.079891	0.001070	20.808757
776.210381	-2.966700	3.628600	-10.764000	25.119269	0.001067	20.829794
777.204220	-3.010500	3.627400	-10.920000	25.154792	0.001069	20.811876
778.207808	-3.009200	3.627600	-10.915000	25.139429	0.001071	20.803092
779.213696	-2.965700	3.626500	-10.753000	25.113874	0.001066	20.819637
780.207872	-2.977700	3.626000	-10.796000	25.128690	0.001066	20.808432
781.209811	-3.000300	3.625500	-10.875000	25.129808	0.001069	20.841322
782.210311	-2.969100	3.626700	-10.766000	25.126452	0.001065	20.824677
783.210726	-2.983700	3.625900	-10.818000	25.122549	0.001064	20.806061
784.211613	-2.990500	3.625100	-10.839000	25.137962	0.001068	20.815369
785.212614	-2.989500	3.624600	-10.835000	25.169881	0.001067	20.802368
786.216913	-2.969700	3.625400	-10.765000	25.184472	0.001067	20.800421
787.214039	-3.015100	3.623100	-10.923000	25.210920	0.001067	20.827922
788.217959	-3.006100	3.624500	-10.893000	25.229190	0.001061	20.787943
789.213139	-2.998600	3.623500	-10.864000	25.227077	0.001063	20.811426
790.213093	-2.988700	3.623900	-10.829000	25.241047	0.001064	20.819761
791.217521	-2.998100	3.621900	-10.857000	25.236796	0.001064	20.815493
792.216498	-2.999300	3.623000	-10.866000	25.215518	0.001066	20.822581
793.215041	-2.995500	3.623600	-10.853000	25.224940	0.001063	20.797426
794.216112	-2.985700	3.623200	-10.817000	25.206495	0.001065	20.793608
795.219176	-3.010100	3.622600	-10.903000	25.160906	0.001064	20.805686
796.214498	-2.993500	3.621700	-10.840000	25.134133	0.001062	20.801568
797.216350	-2.986300	3.621300	-10.814000	25.108354	0.001062	20.794655
798.214763	-2.996000	3.621900	-10.850000	25.074942	0.001060	20.787194
799.214327	-3.006100	3.619900	-10.880000	25.023107	0.001063	20.794430
800.215370	-2.978400	3.620700	-10.783000	25.069100	0.001064	20.785597
801.222796	-2.991200	3.620000	-10.827000	25.052393	0.001061	20.801543
802.215671	-2.997200	3.619800	-10.848000	25.025991	0.001061	20.797325
803.216654	-3.009000	3.618300	-10.887000	25.049459	0.001057	20.794804
804.215625	-2.996900	3.620200	-10.848000	25.052443	0.001058	20.791161
805.217024	-2.989300	3.618800	-10.816000	25.072331	0.001060	20.793582
806.219486	-3.009600	3.619400	-10.892000	25.120833	0.001057	20.794380
807.214875	-3.035600	3.617200	-10.979000	25.081902	0.001059	20.813146
808.222702	-3.009300	3.618500	-10.888000	25.089534	0.001057	20.804687
809.217699	-3.020600	3.616400	-10.922000	25.056570	0.001058	20.774915
810.217941	-3.017700	3.616100	-10.911000	25.063331	0.001058	20.785496
811.222659	-3.011300	3.616800	-10.890000	25.047520	0.001057	20.804238
812.218454	-3.010300	3.616200	-10.885000	25.030838	0.001057	20.802191
813.219784	-3.019600	3.615400	-10.915000	25.072977	0.001056	20.780006
814.219414	-2.991200	3.616500	-10.817000	25.098409	0.001056	20.803164
815.219795	-2.999700	3.614900	-10.842000	25.109869	0.001058	20.795228
816.219289	-2.999900	3.616000	-10.847000	25.170873	0.001055	20.783924
817.219676	-2.987600	3.616500	-10.803000	25.177734	0.001055	20.787019
818.219798	-2.989500	3.614800	-10.805000	25.216039	0.001054	20.784223
819.223582	-3.017300	3.613100	-10.902000	25.245444	0.001055	20.796676
820.222687	-3.004400	3.614800	-10.860000	25.220886	0.001054	20.783399
821.221418	-3.000700	3.615700	-10.849000	25.233215	0.001053	20.784872
822.223211	-2.997300	3.614500	-10.832000	25.205872	0.001055	20.796301
823.224619	-3.002300	3.612200	-10.844000	25.250690	0.001053	20.810476
824.224543	-3.011200	3.613900	-10.881000	25.264609	0.001052	20.784149
825.225610	-2.999500	3.612200	-10.834000	25.251336	0.001053	20.797375
826.237278	-3.000300	3.611600	-10.835000	25.253995	0.001050	20.778234
827.226438	-3.005100	3.612200	-10.854000	25.197098	0.001050	20.778957
828.226954	-3.016800	3.611000	-10.892000	25.196675	0.001051	20.808879
829.223990	-3.005900	3.612300	-10.857000	25.205450	0.001051	20.799671
830.224865	-3.002500	3.611300	-10.842000	25.236745	0.001050	20.796476
831.226615	-3.007200	3.609500	-10.852000	25.238833	0.001051	20.781977
832.239782	-3.013000	3.607900	-10.869000	25.238087	0.001047	20.773168
833.228066	-2.985900	3.611400	-10.782000	25.262620	0.001052	20.786893
834.226854	-3.014400	3.608000	-10.875000	25.285910	0.001048	20.782302
835.226859	-3.000500	3.610000	-10.831000	25.252181	0.001046	20.782576
836.228193	-3.005700	3.609500	-10.848000	25.299009	0.001047	20.770797
837.227858	-3.006300	3.608900	-10.849000	25.316482	0.001047	20.794031
838.226703	-2.998900	3.608600	-10.819000	25.330102	0.001049	20.773567
839.230643	-3.005600	3.607900	-10.843000	25.313947	0.001048	20.763035
840.229198	-3.001700	3.606900	-10.825000	25.286557	0.001047	20.774416
841.229081	-2.984000	3.608900	-10.769000	25.289763	0.001046	20.791860
842.230154	-2.990900	3.607300	-10.788000	25.279448	0.001045	20.779606
843.228943	-2.981000	3.609100	-10.758000	25.276291	0.001046	20.767902
844.230621	-2.980300	3.606400	-10.748000	25.258395	0.001045	20.780754
845.231393	-2.977600	3.607800	-10.742000	25.237565	0.001043	20.780230
846.231159	-3.004900	3.605500	-10.832000	25.245519	0.001043	20.782052
847.229554	-2.993700	3.605000	-10.792000	25.244127	0.001043	20.772119
848.231496	-2.998400	3.606100	-10.811000	25.240548	0.001042	20.774215
849.230412	-2.993400	3.605600	-10.792000	25.230879	0.001043	20.776836
850.230505	-3.021700	3.603700	-10.887000	25.280616	0.001042	20.772718
851.232248	-2.979300	3.605700	-10.741000	25.279944	0.001040	20.760664
852.233826	-2.994000	3.604000	-10.789000	25.319638	0.001043	20.768750
853.234470	-2.995500	3.604600	-10.796000	25.317600	0.001039	20.774765
854.233831	-2.995600	3.604300	-10.795000	25.363432	0.001040	20.761039
855.232916	-3.008300	3.602800	-10.838000	25.363009	0.001043	20.768676
856.237225	-2.978900	3.604800	-10.736000	25.371633	0.001040	20.778283
857.232301	-2.996900	3.603100	-10.797000	25.333507	0.001039	20.761812
858.233072	-3.014400	3.603200	-10.860000	25.314817	0.001039	20.770073
859.230724	-3.007200	3.603000	-10.834000	25.304651	0.001038	20.748960
860.239184	-2.985400	3.603500	-10.756000	25.316035	0.001039	20.743320
861.243072	-3.022800	3.599200	-10.878000	25.322373	0.001039	20.763435
862.234501	-3.015100	3.600900	-10.856000	25.323417	0.001038	20.754526
863.235150	-3.008000	3.600200	-10.828000	25.337285	0.001037	20.759916
864.240873	-3.010300	3.601300	-10.840000	25.335695	0.001037	20.778708
865.232306	-3.017000	3.599400	-10.858000	25.354236	0.001036	20.769824
866.238140	-3.015400	3.598500	-10.849000	25.395120	0.001036	20.770099
867.230313	-2.998600	3.600100	-10.794000	25.394599	0.001037	20.751557
868.235677	-2.996500	3.599300	-10.783000	25.368701	0.001035	20.767753
869.231926	-3.004900	3.598800	-10.812000	25.340094	0.001034	20.732864
870.231394	-3.010100	3.598300	-10.830000	25.332340	0.001034	20.774865
871.231310	-3.001600	3.599400	-10.802000	25.337708	0.001033	20.767928
872.232990	-3.006000	3.596600	-10.811000	25.294635	0.001034	20.764509
873.233481	-3.018700	3.597700	-10.858000	25.379761	0.001033	20.757996
874.233430	-2.998600	3.597600	-10.787000	25.380830	0.001033	20.762388
875.232318	-3.019400	3.596900	-10.860000	25.378618	0.001032	20.741200
876.233554	-2.991300	3.597700	-10.761000	25.397780	0.001033	20.758545
877.234737	-2.988000	3.596300	-10.745000	25.413512	0.001031	20.755849
878.234672	-2.996400	3.596500	-10.775000	25.421987	0.001032	20.761989
879.235962	-2.997700	3.595200	-10.776000	25.466695	0.001031	20.759468
880.240755	-2.998700	3.595400	-10.780000	25.458196	0.001032	20.770374
881.234992	-3.000500	3.594700	-10.785000	25.422509	0.001028	20.750659
882.235205	-2.984800	3.595100	-10.729000	25.408666	0.001030	20.745767
883.234674	-2.999000	3.594700	-10.779000	25.355952	0.001027	20.750684
884.244956	-2.983500	3.596200	-10.728000	25.290983	0.001027	20.747090
885.238103	-2.999100	3.593100	-10.775000	25.308580	0.001029	20.742948
886.241928	-2.993200	3.593800	-10.756000	25.325730	0.001026	20.761590
887.241754	-2.984200	3.593300	-10.723000	25.349441	0.001027	20.746043
888.237741	-2.991300	3.593500	-10.748000	25.357544	0.001026	20.753704
889.237970	-2.978800	3.593700	-10.703000	25.355009	0.001027	20.761117
890.237968	-2.998900	3.590800	-10.767000	25.372207	0.001026	20.737607
891.241057	-3.004400	3.592100	-10.791000	25.386846	0.001026	20.756100
892.236168	-3.013000	3.590700	-10.818000	25.356252	0.001025	20.745769
893.243273	-2.969900	3.594000	-10.673000	25.377924	0.001024	20.754254
894.243278	-2.977400	3.591900	-10.694000	25.385057	0.001023	20.759994
895.237318	-2.999000	3.590500	-10.767000	25.381106	0.001024	20.744646
896.237338	-2.987800	3.591700	-10.730000	25.347627	0.001024	20.754653
897.241834	-2.998800	3.590500	-10.766000	25.310545	0.001023	20.726427
898.240033	-2.986400	3.589200	-10.718000	25.329832	0.001021	20.753380
899.237842	-3.005700	3.589200	-10.788000	25.323743	0.001024	20.744896
900.242406	-2.990100	3.589000	-10.731000	25.355755	0.001021	20.751908
901.238814	-2.984900	3.589600	-10.714000	25.360055	0.001021	20.752907
902.240660	-3.002300	3.587600	-10.770000	25.380310	0.001020	20.765659
903.240991	-2.994500	3.589500	-10.748000	25.388960	0.001021	20.742575
904.244529	-2.987500	3.588100	-10.719000	25.432526	0.001019	20.732742
905.239986	-2.999300	3.588600	-10.763000	25.433023	0.001020	20.747466
906.247322	-3.010600	3.587200	-10.798000	25.470201	0.001019	20.731220
907.245762	-3.010800	3.586700	-10.798000	25.499848	0.001018	20.744871
908.248496	-2.999700	3.585500	-10.755000	25.498979	0.001017	20.781931
909.251846	-3.007900	3.584700	-10.781000	25.451141	0.001016	20.743374
910.243515	-3.002500	3.585700	-10.765000	25.445798	0.001017	20.759346
911.249467	-2.998000	3.585100	-10.747000	25.461380	0.001018	20.759346
912.244781	-2.980200	3.585900	-10.685000	25.422138	0.001016	20.739855
913.242123	-3.001800	3.584000	-10.757000	25.433172	0.001015	20.727700
914.244595	-2.987900	3.584500	-10.709000	25.455664	0.001014	20.744597
915.248362	-3.019000	3.583700	-10.819000	25.459192	0.001016	20.752882
916.243698	-2.989000	3.584900	-10.715000	25.477011	0.001015	20.749912
917.245530	-3.002000	3.583500	-10.756000	25.495351	0.001013	20.747941
918.249330	-3.002800	3.584200	-10.762000	25.516995	0.001013	20.740753
919.245172	-3.016000	3.582900	-10.805000	25.539833	0.001015	20.752783
920.248196	-3.026200	3.580700	-10.834000	25.521842	0.001010	20.739456
921.247067	-2.994500	3.584400	-10.731000	25.547710	0.001011	20.725131
922.246421	-3.017000	3.581900	-10.806000	25.543510	0.001011	20.755528
923.244776	-2.998100	3.582500	-10.740000	25.561104	0.001011	20.738108
924.255106	-2.985800	3.582200	-10.695000	25.576038	0.001009	20.742201
925.247753	-3.015500	3.581000	-10.798000	25.593631	0.001011	20.754654
926.253590	-2.999200	3.581000	-10.739000	25.592065	0.001009	20.740754
927.248889	-2.999100	3.579200	-10.733000	25.586897	0.001009	20.731769
928.250489	-2.981100	3.581700	-10.676000	25.586673	0.001010	20.759521
929.248776	-3.011600	3.580400	-10.782000	25.595644	0.001008	20.757624
930.251043	-2.995900	3.580300	-10.725000	25.601409	0.001007	20.747767
931.254803	-3.005500	3.579100	-10.756000	25.618603	0.001007	20.730422
932.248729	-3.022900	3.577100	-10.812000	25.573206	0.001008	20.757375
933.254385	-3.023200	3.577900	-10.816000	25.570174	0.001005	20.752908
934.251641	-2.999900	3.579100	-10.735000	25.583568	0.001006	20.746445
935.253905	-2.992200	3.578400	-10.707000	25.615771	0.001005	20.743699
936.255057	-2.986700	3.578900	-10.689000	25.620940	0.001007	20.743200
937.260845	-2.994500	3.577600	-10.712000	25.627574	0.001005	20.759821
938.253300	-3.005900	3.576100	-10.748000	25.661118	0.001007	20.746095
939.257084	-3.014700	3.577700	-10.783000	25.623202	0.001004	20.748317
940.255214	-3.003100	3.575100	-10.735000	25.630979	0.001003	20.748542
941.256790	-3.014300	3.575200	-10.776000	25.648844	0.001003	20.744674
942.258193	-3.005800	3.576400	-10.748000	25.635726	0.001003	20.753783
943.257754	-3.015700	3.575300	-10.781000	25.663729	0.001003	20.743027
944.253246	-3.007000	3.574600	-10.747000	25.663530	0.001002	20.758001
945.256671	-2.977000	3.576100	-10.644000	25.635602	0.001000	20.757927
946.256673	-3.002900	3.574900	-10.734000	25.628049	0.001002	20.756030
947.257025	-3.009400	3.575200	-10.758000	25.601511	0.000998	20.759250
948.258211	-3.020400	3.572800	-10.790000	25.627180	0.000999	20.767012
949.257772	-3.010700	3.572900	-10.755000	25.633789	0.000999	20.771279
950.255641	-3.017500	3.573000	-10.780000	25.613042	0.000997	20.750915
951.265579	-3.012400	3.572700	-10.760000	25.594182	0.000997	20.733396
952.264142	-3.001300	3.572900	-10.722000	25.566476	0.000996	20.788076
953.261124	-3.000500	3.571400	-10.715000	25.575471	0.000997	20.765814
954.261058	-2.994800	3.572700	-10.698000	25.565308	0.000997	20.759875
955.259358	-3.006600	3.572600	-10.740000	25.592518	0.000996	20.748795
956.260815	-2.991200	3.571400	-10.682000	25.602556	0.000997	20.737065
957.259051	-3.007700	3.571600	-10.741000	25.621268	0.000995	20.762970
958.264635	-2.991300	3.570500	-10.680000	25.636474	0.000997	20.758328
959.260863	-2.996500	3.570900	-10.699000	25.687137	0.000994	20.775548
960.257067	-2.992100	3.569600	-10.679000	25.659582	0.000994	20.766839
961.258893	-2.999500	3.568700	-10.703000	25.651457	0.000994	20.761049
962.261990	-2.995500	3.568800	-10.688000	25.631355	0.000992	20.764093
963.257895	-3.005500	3.569000	-10.725000	25.655557	0.000993	20.764218
964.262521	-2.998700	3.568200	-10.698000	25.690814	0.000991	20.761224
965.261599	-2.995600	3.569600	-10.691000	25.704082	0.000991	20.760799
966.263405	-2.995600	3.566700	-10.684000	25.735188	0.000989	20.774974
967.264477	-2.992200	3.567400	-10.673000	25.756630	0.000991	20.785132
968.270762	-2.975900	3.568500	-10.619000	25.753698	0.000990	20.773652
969.264194	-2.991800	3.568500	-10.675000	25.744008	0.000988	20.768660
970.274590	-3.001900	3.567400	-10.708000	25.731884	0.000988	20.768336
971.264204	-2.976300	3.567700	-10.618000	25.681497	0.000990	20.784582
972.265305	-2.988300	3.565900	-10.654000	25.678266	0.000989	20.771380
973.264463	-2.994700	3.566500	-10.679000	25.680851	0.000985	20.776347
974.263098	-2.998000	3.564900	-10.687000	25.700256	0.000988	20.768810
975.266013	-2.985300	3.567200	-10.648000	25.734319	0.000988	20.789748
976.266222	-2.990600	3.565800	-10.662000	25.743661	0.000986	20.773527
977.268984	-2.992900	3.564600	-10.666000	25.759710	0.000986	20.781114
978.269582	-3.018600	3.565700	-10.761000	25.799511	0.000985	20.775574
979.266976	-3.009000	3.562600	-10.718000	25.793747	0.000985	20.790173
980.267394	-3.000000	3.561900	-10.684000	25.773276	0.000984	20.761074
981.268593	-2.999800	3.563800	-10.689000	25.770096	0.000983	20.781588
982.266013	-3.010400	3.562800	-10.724000	25.790642	0.000981	20.779941
983.279842	-2.988900	3.563600	-10.650000	25.798965	0.000982	20.772180
984.268069	-3.001900	3.562500	-10.694000	25.802641	0.000984	20.778244
985.268963	-2.994400	3.561900	-10.665000	25.800952	0.000982	20.799781
986.271227	-3.002000	3.561700	-10.691000	25.788307	0.000981	20.803675
987.267175	-3.004200	3.560400	-10.695000	25.801698	0.000980	20.763071
988.271689	-2.989500	3.560000	-10.642000	25.822616	0.000980	20.781714
989.272405	-3.013200	3.558300	-10.720000	25.829672	0.000981	20.780740
990.272768	-2.986300	3.559600	-10.628000	25.846441	0.000976	20.795215
991.270660	-3.006100	3.559800	-10.700000	25.799463	0.000978	20.782163
992.269269	-2.991700	3.559400	-10.647000	25.809971	0.000975	20.778020
993.272579	-2.984700	3.559400	-10.623000	25.798394	0.000980	20.792944
994.268363	-2.994400	3.559500	-10.657000	25.758172	0.000976	20.790948
995.271326	-2.990700	3.557600	-10.639000	25.789177	0.000975	20.798385
996.267612	-2.988400	3.558000	-10.632000	25.760408	0.000976	20.772805
997.270767	-2.983700	3.558800	-10.617000	25.737625	0.000977	20.793069
998.268818	-3.014400	3.556900	-10.721000	25.733824	0.000974	20.780242
999.272435	-3.010600	3.557800	-10.710000	25.677697	0.000972	20.772705
1000.269476	-3.018800	3.558100	-10.739000	25.661870	0.000975	20.788577
1001.269654	-3.014900	3.555500	-10.719000	25.651484	0.000972	20.798534
1002.268723	-3.009900	3.556200	-10.703000	25.635979	0.000974	20.796712
1003.268850	-3.011900	3.556100	-10.709000	25.608150	0.000972	20.788203
1004.271504	-2.996100	3.553900	-10.646000	25.639980	0.000971	20.804524
1005.272000	-3.010800	3.555400	-10.703000	25.653471	0.000970	20.791522
1006.270481	-2.981900	3.554900	-10.598000	25.674144	0.000971	20.794741
1007.271131	-2.985400	3.554600	-10.610000	25.678741	0.000970	20.795091
1008.282242	-2.984900	3.554700	-10.609000	25.690170	0.000968	20.786182
1009.271380	-2.973100	3.555700	-10.570000	25.690046	0.000968	20.792221
1010.278690	-3.000500	3.553200	-10.661000	25.692159	0.000967	20.798136
1011.275343	-2.997000	3.553800	-10.650000	25.704308	0.000969	20.801330
1012.273525	-2.989300	3.553900	-10.622000	25.706569	0.000965	20.785583
1013.272143	-3.019200	3.550600	-10.718000	25.676778	0.000965	20.792171
1014.276347	-2.986500	3.553700	-10.611000	25.683636	0.000965	20.821344
1015.275060	-3.018500	3.551900	-10.720000	25.697848	0.000965	20.810015
1016.274392	-2.986200	3.553600	-10.610000	25.681673	0.000964	20.794243
1017.274878	-3.017400	3.550500	-10.713000	25.682518	0.000962	20.803152
1018.277011	-2.991400	3.551600	-10.623000	25.697898	0.000963	20.804849
1019.276629	-3.020700	3.550500	-10.723000	25.719315	0.000961	20.805972
1020.281074	-3.009400	3.549900	-10.681000	25.719961	0.000964	20.799508
1021.274801	-3.024600	3.549200	-10.733000	25.761477	0.000961	20.816079
1022.276869	-3.009900	3.550300	-10.684000	25.775539	0.000961	20.814082
1023.281317	-3.001600	3.549400	-10.653000	25.782122	0.000960	20.817850
1024.277376	-3.003100	3.550100	-10.661000	25.782520	0.000959	20.796913
1025.279105	-3.001300	3.550100	-10.654000	25.770867	0.000960	20.813183
1026.279433	-2.991800	3.548600	-10.616000	25.784259	0.000958	20.792495
1027.277769	-3.005100	3.548400	-10.662000	25.773129	0.000958	20.821618
1028.275623	-3.007000	3.548300	-10.669000	25.719911	0.000959	20.797087
1029.285974	-2.993300	3.549300	-10.623000	25.728060	0.000958	20.841782
1030.280824	-3.016400	3.546700	-10.697000	25.711761	0.000957	20.813083
1031.287019	-2.995500	3.546200	-10.620000	25.684928	0.000957	20.816477
1032.289476	-2.998700	3.546300	-10.633000	25.673796	0.000955	20.823789
1033.280642	-3.005200	3.544400	-10.650000	25.694121	0.000955	20.800107
1034.283608	-2.999300	3.545300	-10.632000	25.715239	0.000955	20.818947
1035.280869	-3.012000	3.545100	-10.677000	25.711264	0.000956	20.814955
1036.280992	-3.009800	3.545000	-10.669000	25.759464	0.000954	20.820220
1037.277424	-3.008300	3.544500	-10.662000	25.717351	0.000953	20.816327
1038.286474	-2.980400	3.545200	-10.565000	25.694046	0.000953	20.794342
1039.280369	-2.990400	3.543500	-10.595000	25.699438	0.000951	20.818249
1040.282694	-3.010700	3.542500	-10.665000	25.712929	0.000952	20.825636
1041.279134	-3.006600	3.542500	-10.650000	25.713276	0.000950	20.818398
1042.279826	-3.021500	3.542300	-10.702000	25.681151	0.000952	20.811736
1043.280491	-3.037100	3.540800	-10.752000	25.663311	0.000950	20.817525
1044.283822	-2.996000	3.541200	-10.609000	25.691512	0.000950	20.818349
1045.284257	-2.997100	3.541400	-10.613000	25.703313	0.000949	20.834469
1046.283841	-2.997300	3.541200	-10.613000	25.748333	0.000946	20.832747
1047.285694	-2.996400	3.540900	-10.609000	25.786991	0.000948	20.820370
1048.289782	-3.011000	3.539100	-10.655000	25.772730	0.000950	20.867209
1049.284496	-2.983300	3.541200	-10.564000	25.811611	0.000948	20.809065
1050.284612	-3.001100	3.539600	-10.622000	25.815436	0.000948	20.834244
1051.282703	-2.990700	3.539700	-10.584000	25.843410	0.000945	20.831524
1052.287754	-3.004600	3.539500	-10.634000	25.883405	0.000946	20.834718
1053.283643	-2.980300	3.540000	-10.549000	25.863606	0.000948	20.828105
1054.284092	-3.000800	3.537300	-10.614000	25.875257	0.000943	20.832697
1055.281769	-3.001400	3.538300	-10.618000	25.877766	0.000944	20.837114
1056.295103	-3.015800	3.537500	-10.667000	25.867457	0.000943	20.834344
1057.289242	-3.017100	3.536400	-10.669000	25.885889	0.000942	20.829153
1058.302293	-3.011700	3.537000	-10.651000	25.837025	0.000941	20.842654
1059.288103	-2.993400	3.536900	-10.587000	25.847608	0.000942	20.836216
1060.291924	-3.002600	3.536500	-10.617000	25.871233	0.000941	20.838137
1061.300922	-2.983500	3.536600	-10.550000	25.888349	0.000941	20.850115
1062.297484	-2.986200	3.534400	-10.553000	25.900099	0.000941	20.825410
1063.289397	-3.013300	3.534200	-10.649000	25.912519	0.000938	20.827456
1064.291080	-2.996200	3.535100	-10.591000	25.955592	0.000937	20.830900
1065.308712	-2.989100	3.535900	-10.567000	25.946104	0.000937	20.832747
1066.286450	-2.996900	3.534300	-10.591000	25.915699	0.000939	20.859099
1067.301788	-2.971700	3.533800	-10.500000	25.877269	0.000938	20.854632
1068.289069	-3.011800	3.532900	-10.639000	25.851160	0.000937	20.844051
1069.302979	-2.988000	3.534100	-10.559000	25.840850	0.000936	20.836540
1070.288884	-3.008900	3.532500	-10.628000	25.806244	0.000935	20.833545
1071.295105	-2.984600	3.533200	-10.544000	25.758369	0.000935	20.852311
1072.291835	-2.994100	3.532500	-10.575000	25.744679	0.000932	20.827655
1073.292275	-3.010500	3.530400	-10.627000	25.759115	0.000932	20.846896
1074.292136	-3.005700	3.531500	-10.614000	25.780108	0.000933	20.850439
1075.290105	-2.983800	3.531300	-10.536000	25.812703	0.000935	20.840507
1076.290961	-2.998700	3.530600	-10.585000	25.792505	0.000931	20.856253
1077.293239	-3.012800	3.531300	-10.638000	25.816106	0.000930	20.833495
1078.290539	-3.011500	3.529400	-10.628000	25.815237	0.000932	20.850165
1079.290251	-3.026200	3.529600	-10.679000	25.812231	0.000932	20.848094
1080.298438	-2.991700	3.529800	-10.558000	25.817423	0.000929	20.859473
1081.291293	-2.998400	3.528400	-10.578000	25.854389	0.000930	20.857251
1082.295745	-2.987800	3.529500	-10.544000	25.883603	0.000927	20.854831
1083.301384	-3.014000	3.526800	-10.628000	25.908197	0.000929	20.868631
1084.295482	-3.004700	3.527200	-10.596000	25.893888	0.000927	20.866111
1085.303584	-2.997300	3.528600	-10.575000	25.856650	0.000927	20.853359
1086.292310	-2.995000	3.527800	-10.566000	25.822218	0.000925	20.853384
1087.298582	-3.011000	3.526100	-10.615000	25.815734	0.000926	20.853509
1088.301737	-2.994000	3.527400	-10.560000	25.840254	0.000924	20.869130
1089.295509	-2.985400	3.528000	-10.531000	25.870164	0.000925	20.865986
1090.301920	-3.011700	3.524900	-10.614000	25.882387	0.000925	20.872100
1091.308949	-2.981900	3.526400	-10.514000	25.879008	0.000923	20.855904
1092.319592	-2.984700	3.525900	-10.521000	25.921562	0.000923	20.883005
1093.298447	-3.000200	3.526100	-10.577000	25.951916	0.000921	20.858500
1094.295068	-3.029200	3.522600	-10.669000	25.981451	0.000923	20.848343
1095.297993	-2.988100	3.525800	-10.534000	25.982842	0.000920	20.887197
1096.309744	-3.016500	3.523900	-10.629000	25.979290	0.000922	20.862293
1097.293964	-2.996400	3.524700	-10.561000	26.013245	0.000920	20.868432
1098.294635	-2.991600	3.522400	-10.537000	26.003831	0.000919	20.868457
1099.295144	-3.019400	3.521900	-10.633000	26.000900	0.000920	20.865986
1100.302125	-3.012000	3.521000	-10.603000	25.946700	0.000917	20.859897
1101.296170	-3.018900	3.522900	-10.634000	25.891852	0.000917	20.885874
1102.313045	-3.021700	3.520500	-10.637000	25.881095	0.000918	20.878862
1103.297466	-2.974800	3.522600	-10.478000	25.890659	0.000916	20.874720
1104.296414	-3.009100	3.521400	-10.596000	25.897441	0.000915	20.876317
1105.316741	-2.992000	3.520000	-10.531000	25.881269	0.000916	20.871925
1106.294404	-2.989800	3.519500	-10.522000	25.882785	0.000914	20.898576
1107.295909	-2.988500	3.520800	-10.521000	25.862837	0.000915	20.880909
1108.307905	-2.973700	3.521100	-10.470000	25.877046	0.000915	20.871950
1109.299282	-2.990600	3.520900	-10.529000	25.848031	0.000913	20.865088
1110.294920	-2.974700	3.519700	-10.468000	25.823610	0.000914	20.875643
1111.297118	-3.009800	3.518100	-10.587000	25.818393	0.000912	20.868507
1112.297923	-3.015600	3.518200	-10.608000	25.809325	0.000915	20.879312
1113.296147	-3.002200	3.517000	-10.557000	25.793326	0.000912	20.896430
1114.297112	-3.007100	3.516500	-10.573000	25.813077	0.000911	20.869805
1115.297805	-2.988000	3.515800	-10.503000	25.845447	0.000909	20.872450
1116.297658	-3.000700	3.516100	-10.550000	25.872426	0.000910	20.888171
1117.298125	-3.009200	3.515700	-10.579000	25.902361	0.000910	20.882681
1118.297309	-3.004200	3.514700	-10.558000	25.942255	0.000909	20.877242
1119.303005	-2.998000	3.514500	-10.535000	26.004180	0.000909	20.889668
1120.297502	-2.979500	3.517100	-10.479000	26.007111	0.000909	20.888346
1121.295794	-2.983300	3.514100	-10.483000	25.990345	0.000908	20.895682
1122.299332	-3.001800	3.515100	-10.550000	25.962500	0.000907	20.880037
1123.298659	-3.029900	3.513500	-10.644000	26.000802	0.000908	20.891016
1124.296744	-3.005400	3.513800	-10.559000	26.012055	0.000904	20.896157
1125.301148	-2.994600	3.513300	-10.520000	26.050430	0.000904	20.908160
1126.299122	-3.014000	3.511300	-10.581000	26.072188	0.000905	20.900624
1127.299077	-3.001300	3.512900	-10.541000	26.108574	0.000903	20.879339
1128.299910	-3.007100	3.511800	-10.559000	26.140539	0.000902	20.906239
1129.309474	-3.000000	3.512500	-10.537000	26.161550	0.000902	20.905066
1130.299179	-2.996800	3.512000	-10.524000	26.146052	0.000901	20.907037
1131.314841	-2.992900	3.512200	-10.510000	26.172155	0.000901	20.888697
1132.311825	-2.982700	3.511300	-10.471000	26.188868	0.000902	20.885104
1133.305416	-2.981600	3.510200	-10.464000	26.170740	0.000903	20.914774
1134.307945	-2.990000	3.511400	-10.498000	26.176973	0.000901	20.895435
1135.308091	-3.022700	3.509200	-10.606000	26.179854	0.000898	20.896433
1136.311301	-2.998800	3.509200	-10.522000	26.191600	0.000899	20.910606
1137.302572	-2.997300	3.508800	-10.515000	26.197785	0.000896	20.906390
1138.317806	-2.987400	3.507400	-10.477000	26.232603	0.000898	20.901549
1139.314663	-2.990700	3.508300	-10.491000	26.232006	0.000897	20.920389
1140.307304	-3.021300	3.504400	-10.585000	26.212536	0.000898	20.910308
1141.298567	-2.995800	3.506900	-10.505000	26.197736	0.000896	20.907763
1142.301266	-2.997200	3.506900	-10.509000	26.144092	0.000895	20.923084
1143.310878	-2.997200	3.505500	-10.506000	26.104851	0.000894	20.908312
1144.303454	-2.975200	3.506800	-10.431000	26.119728	0.000896	20.907613
1145.310040	-2.978500	3.507000	-10.445000	26.089005	0.000893	20.902822
1146.303124	-2.997700	3.505700	-10.508000	26.138331	0.000893	20.906865
1147.323295	-2.996700	3.504200	-10.500000	26.160732	0.000892	20.897607
1148.305624	-3.018500	3.503200	-10.574000	26.139399	0.000892	20.897982
1149.312552	-2.994400	3.503700	-10.490000	26.160931	0.000890	20.904445
1150.305499	-3.007600	3.502200	-10.533000	26.191155	0.000889	20.900203
1151.320709	-3.018100	3.503100	-10.571000	26.183084	0.000890	20.909161
1152.305244	-3.001700	3.501900	-10.511000	26.208267	0.000890	20.895113
1153.313273	-2.998900	3.501700	-10.500000	26.216511	0.000890	20.902923
1154.318758	-2.970300	3.501900	-10.400000	26.203300	0.000889	20.908138
1155.311862	-2.990600	3.501900	-10.470000	26.203970	0.000888	20.899804
1156.312979	-3.006000	3.499800	-10.519000	26.178093	0.000888	20.890871
1157.308915	-2.975100	3.501800	-10.417000	26.199078	0.000886	20.884458
1158.309016	-2.986400	3.501500	-10.456000	26.183134	0.000888	20.893091
1159.312150	-3.019600	3.499200	-10.564000	26.185345	0.000885	20.872081
1160.315288	-2.983200	3.500600	-10.442000	26.203052	0.000886	20.873279
1161.311575	-2.989900	3.499100	-10.461000	26.228756	0.000886	20.875400
1162.314951	-2.996900	3.499600	-10.485000	26.228705	0.000885	20.863971
1163.313316	-2.987700	3.499400	-10.455000	26.263770	0.000884	20.886404
1164.314580	-2.994400	3.497600	-10.473000	26.286567	0.000884	20.886081
1165.329030	-2.984000	3.498500	-10.438000	26.270128	0.000882	20.871932
1166.311933	-3.005400	3.497700	-10.510000	26.236752	0.000883	20.882013
1167.316508	-2.966800	3.498700	-10.379000	26.195925	0.000882	20.868962
1168.309598	-3.005200	3.497000	-10.508000	26.162398	0.000880	20.872256
1169.332175	-2.989300	3.496100	-10.450000	26.142952	0.000880	20.872156
1170.319465	-2.994600	3.494900	-10.464000	26.124473	0.000878	20.876822
1171.330550	-3.015300	3.494900	-10.537000	26.117743	0.000880	20.875749
1172.314121	-2.985200	3.495200	-10.432000	26.111682	0.000877	20.885780
1173.329239	-2.975600	3.495900	-10.401000	26.079668	0.000876	20.849348
1174.319345	-2.995400	3.493200	-10.462000	26.069807	0.000876	20.871208
1175.320048	-2.989700	3.493700	-10.443000	26.061735	0.000876	20.876847
1176.331367	-2.990700	3.493800	-10.448000	26.074625	0.000876	20.882686
1177.317367	-3.006500	3.492700	-10.499000	26.103511	0.000873	20.869036
1178.319986	-3.002500	3.491800	-10.483000	26.115780	0.000875	20.861924
1179.324887	-3.004700	3.492600	-10.492000	26.101126	0.000874	20.867588
1180.320846	-2.992200	3.492700	-10.450000	26.105696	0.000873	20.850844
1181.318582	-3.009500	3.490000	-10.502000	26.113793	0.000873	20.852816
1182.323585	-3.000000	3.492300	-10.476000	26.156884	0.000872	20.848225
1183.319190	-3.013200	3.489900	-10.514000	26.163514	0.000872	20.856309
1184.318639	-2.998900	3.491600	-10.469000	26.149905	0.000871	20.848799
1185.336677	-3.004100	3.489900	-10.483000	26.103411	0.000868	20.866565
1186.321525	-3.015800	3.487800	-10.518000	26.107360	0.000870	20.867688
1187.324110	-3.005900	3.489500	-10.488000	26.109844	0.000869	20.858331
1188.321581	-3.012300	3.489000	-10.509000	26.093725	0.000867	20.858730
1189.333094	-3.023800	3.487300	-10.544000	26.142255	0.000868	20.853439
1190.328249	-3.001400	3.488200	-10.469000	26.157777	0.000867	20.859553
1191.324131	-3.031000	3.485000	-10.562000	26.143993	0.000866	20.849022
1192.327576	-3.001000	3.487200	-10.463000	26.154723	0.000868	20.850795
1193.321312	-3.018500	3.485200	-10.518000	26.143198	0.000867	20.824991
1194.322322	-3.005400	3.486700	-10.478000	26.181718	0.000866	20.847575
1195.329113	-2.993200	3.485500	-10.432000	26.204441	0.000867	20.824417
1196.327660	-3.006600	3.485300	-10.478000	26.202355	0.000864	20.827536
1197.322717	-3.004700	3.484200	-10.468000	26.184499	0.000865	20.854637
1198.326621	-3.017000	3.483900	-10.511000	26.167735	0.000863	20.839214
1199.324769	-2.995700	3.485600	-10.440000	26.180079	0.000862	20.866315
1200.321850	-2.999600	3.483300	-10.448000	26.191179	0.000861	20.852815
1201.326392	-2.993300	3.485500	-10.431000	26.205160	0.000863	20.830355
1202.329048	-3.009200	3.483500	-10.482000	26.231957	0.000861	20.844006
1203.323568	-3.001500	3.483500	-10.454000	26.227710	0.000860	20.836894
1204.325310	-3.027000	3.479800	-10.531000	26.219316	0.000860	20.821347
1205.329081	-3.010500	3.481800	-10.481000	26.192470	0.000859	20.825664
1206.325883	-2.989900	3.482000	-10.409000	26.201833	0.000862	20.808045
1207.327601	-3.012400	3.480600	-10.484000	26.168976	0.000858	20.838091
1208.325993	-2.998900	3.480900	-10.438000	26.139198	0.000858	20.857954
1209.329077	-3.002000	3.481100	-10.449000	26.105024	0.000856	20.843531
1210.325452	-3.001000	3.479900	-10.442000	26.109221	0.000859	20.830205
1211.329950	-3.014200	3.479700	-10.488000	26.131673	0.000857	20.846126
1212.327287	-3.017200	3.478700	-10.495000	26.118485	0.000854	20.830504
1213.325399	-2.986700	3.479000	-10.388000	26.039602	0.000854	20.817153
1214.329245	-3.022700	3.477800	-10.511000	26.026363	0.000855	20.830879
1215.327137	-3.000600	3.478400	-10.435000	25.992955	0.000854	20.834771
1216.328596	-3.005600	3.477100	-10.450000	26.014615	0.000852	20.822868
1217.334049	-2.997100	3.477500	-10.421000	26.025246	0.000853	20.835446
1218.334501	-3.000900	3.476000	-10.430000	26.088606	0.000851	20.835096
1219.329370	-3.020000	3.474000	-10.490000	26.120273	0.000851	20.837517
1220.331966	-3.009200	3.474800	-10.456000	26.146450	0.000850	20.832999
1221.333562	-3.006600	3.474600	-10.446000	26.144090	0.000849	20.817827
1222.330401	-2.994100	3.476300	-10.406000	26.146350	0.000850	20.813460
1223.333257	-3.004700	3.473700	-10.436000	26.130556	0.000851	20.827934
1224.331572	-3.005900	3.472500	-10.436000	26.143842	0.000847	20.834173
1225.331942	-3.002700	3.473700	-10.429000	26.100628	0.000848	20.841010
1226.330436	-3.010700	3.472300	-10.453000	26.083987	0.000851	20.825239
1227.334188	-2.994100	3.473000	-10.397000	26.104005	0.000847	20.817852
1228.334142	-3.003400	3.472100	-10.427000	26.101645	0.000848	20.814533
1229.331344	-2.997500	3.471200	-10.404000	26.159017	0.000846	20.825713
1230.338407	-2.993700	3.472400	-10.394000	26.184795	0.000848	20.831228
1231.340872	-3.001100	3.470500	-10.415000	26.183951	0.000845	20.828957
1232.344313	-3.004700	3.468900	-10.421000	26.203744	0.000845	20.837940
1233.351445	-2.993900	3.470600	-10.390000	26.179828	0.000843	20.813435
1234.336556	-3.015100	3.469900	-10.461000	26.161500	0.000842	20.822993
1235.340222	-3.004700	3.468100	-10.419000	26.189663	0.000843	20.822843
1236.335674	-2.991400	3.469500	-10.377000	26.203744	0.000843	20.837940
1237.334868	-3.008900	3.467500	-10.433000	26.210250	0.000841	20.821245
1238.333165	-3.006300	3.468700	-10.427000	26.230763	0.000842	20.832375
1239.337465	-3.002300	3.469100	-10.414000	26.245861	0.000840	20.838539
1240.333310	-3.006700	3.467600	-10.424000	26.264437	0.000839	20.827334
1241.340082	-3.015100	3.465200	-10.447000	26.300916	0.000840	20.826062
1242.342340	-3.036900	3.465600	-10.523000	26.328752	0.000837	20.838863
1243.334246	-3.013400	3.464300	-10.438000	26.307917	0.000841	20.819348
1244.336397	-3.004400	3.466900	-10.413000	26.287134	0.000838	20.826910
1245.333781	-3.012700	3.465500	-10.439000	26.277548	0.000836	20.814906
1246.338848	-3.017300	3.464100	-10.451000	26.263592	0.000837	20.808942
1247.347439	-3.012500	3.463200	-10.432000	26.249933	0.000836	20.829355
1248.334960	-2.994100	3.465000	-10.373000	26.271961	0.000836	20.802179
1249.336983	-2.995800	3.462600	-10.373000	26.292944	0.000834	20.813309
1250.334900	-3.008000	3.464300	-10.419000	26.282366	0.000834	20.813583
1251.345757	-3.013900	3.462100	-10.433000	26.273053	0.000833	20.821294
1252.347073	-3.002600	3.462400	-10.395000	26.280180	0.000834	20.812335
1253.350203	-2.993700	3.463100	-10.366000	26.230191	0.000834	20.801455
1254.336606	-3.000600	3.462500	-10.388000	26.164653	0.000832	20.808143
1255.336190	-2.997100	3.462100	-10.376000	26.160331	0.000836	20.807120
1256.340796	-2.987500	3.462500	-10.343000	26.146846	0.000833	20.804475
1257.345080	-3.004600	3.461200	-10.398000	26.170216	0.000832	20.811363
1258.338306	-3.016200	3.459000	-10.432000	26.196392	0.000829	20.813958
1259.349655	-3.007200	3.459100	-10.402000	26.234612	0.000831	20.817751
1260.341571	-3.000600	3.459500	-10.379000	26.282093	0.000832	20.813783
1261.350744	-2.992400	3.459900	-10.353000	26.239578	0.000828	20.808044
1262.347630	-2.979500	3.458900	-10.304000	26.204885	0.000828	20.826760
1263.348795	-3.015800	3.457300	-10.425000	26.157749	0.000828	20.807844
1264.338870	-2.997900	3.457800	-10.365000	26.152310	0.000830	20.809965
1265.344946	-3.000600	3.458200	-10.375000	26.150720	0.000826	20.788928
1266.345015	-3.002200	3.456000	-10.374000	26.196665	0.000827	20.804750
1267.347413	-2.996800	3.457300	-10.360000	26.206649	0.000825	20.804824
1268.350143	-2.984000	3.457200	-10.316000	26.199720	0.000826	20.797862
1269.348928	-3.011100	3.456500	-10.407000	26.225150	0.000824	20.793071
1270.346509	-2.985700	3.457300	-10.321000	26.238635	0.000823	20.799509
1271.347580	-3.015900	3.454500	-10.417000	26.268857	0.000825	20.813285
1272.347403	-3.009400	3.454100	-10.394000	26.263890	0.000822	20.818251
1273.347769	-3.004900	3.453700	-10.376000	26.249438	0.000823	20.818425
1274.347974	-2.985400	3.454600	-10.312000	26.293913	0.000822	20.796739
1275.356669	-3.002600	3.452900	-10.366000	26.293168	0.000820	20.782714
1276.353473	-2.991300	3.454100	-10.331000	26.306752	0.000821	20.804426
1277.356901	-2.983100	3.452600	-10.298000	26.295553	0.000820	20.789378
1278.362000	-2.994300	3.452800	-10.338000	26.307472	0.000820	20.818900
1279.349712	-2.992500	3.450400	-10.324000	26.344868	0.000819	20.786782
1280.356635	-2.987900	3.452200	-10.314000	26.347723	0.000818	20.806722
1281.354622	-2.999100	3.450600	-10.348000	26.357457	0.000816	20.792323
1282.356770	-2.985600	3.451800	-10.305000	26.361107	0.000818	20.800258
1283.363256	-3.015500	3.450100	-10.402000	26.352863	0.000814	20.813784
1284.359718	-3.014100	3.448500	-10.393000	26.370196	0.000815	20.788529
1285.354149	-2.994800	3.450100	-10.331000	26.362771	0.000814	20.814732
1286.359784	-3.015800	3.449300	-10.402000	26.357507	0.000814	20.788579
1287.358949	-2.992300	3.449300	-10.320000	26.335681	0.000814	20.778023
1288.355691	-3.003600	3.446300	-10.349000	26.327039	0.000814	20.792098
1289.351181	-2.987900	3.447000	-10.298000	26.312662	0.000812	20.809891
1290.351471	-2.975400	3.447300	-10.255000	26.250605	0.000813	20.801107
1291.355308	-3.002300	3.446100	-10.345000	26.245092	0.000810	20.794619
1292.362449	-3.001300	3.446500	-10.343000	26.222966	0.000812	20.780444
1293.351379	-2.993400	3.446300	-10.316000	26.194456	0.000812	20.786408
1294.352953	-2.989000	3.446400	-10.299000	26.181244	0.000811	20.791150
1295.354873	-2.997000	3.445000	-10.323000	26.177991	0.000809	20.787407
1296.357733	-3.009500	3.444500	-10.366000	26.192246	0.000809	20.789877
1297.352525	-2.991500	3.445700	-10.307000	26.215863	0.000810	20.780419
1298.354741	-2.988800	3.444100	-10.293000	26.234067	0.000808	20.777375
1299.356214	-2.998900	3.442900	-10.324000	26.166666	0.000807	20.778872
1300.353227	-3.007000	3.442800	-10.350000	26.141881	0.000808	20.802805
1301.354228	-3.014200	3.442600	-10.375000	26.137534	0.000806	20.790377
1302.353860	-3.020700	3.441500	-10.394000	26.191899	0.000805	20.774829
1303.356844	-3.021100	3.442400	-10.398000	26.200020	0.000807	20.769714
1304.354614	-3.001900	3.442000	-10.330000	26.240251	0.000805	20.783115
1305.356611	-3.017300	3.441700	-10.382000	26.267493	0.000804	20.782042
1306.355356	-3.017000	3.438500	-10.373000	26.286812	0.000805	20.790552
1307.355038	-2.988200	3.440000	-10.278000	26.322074	0.000803	20.799910
1308.354580	-2.999600	3.439400	-10.316000	26.296124	0.000802	20.782840
1309.354990	-2.995000	3.438600	-10.297000	26.259695	0.000801	20.764722
1310.358251	-2.977300	3.439000	-10.238000	26.249812	0.000801	20.778498
1311.355474	-3.018800	3.436700	-10.373000	26.253711	0.000802	20.782891
1312.357163	-2.998700	3.438500	-10.310000	26.296025	0.000800	20.768516
1313.367768	-2.988300	3.438200	-10.272000	26.309186	0.000801	20.786010
1314.355705	-3.026200	3.436700	-10.397000	26.334664	0.000800	20.767518
1315.356848	-2.990400	3.437200	-10.277000	26.318101	0.000798	20.781693
1316.355948	-3.008600	3.436200	-10.337000	26.322248	0.000797	20.763575
1317.355835	-2.980600	3.437300	-10.244000	26.355820	0.000797	20.786884
1318.366621	-3.000600	3.434500	-10.305000	26.363071	0.000797	20.792274
1319.357571	-3.031200	3.434200	-10.408000	26.381544	0.000797	20.780969
1320.358743	-3.001700	3.435600	-10.312000	26.363095	0.000796	20.775229
1321.363072	-2.993700	3.433300	-10.278000	26.348644	0.000795	20.785361
1322.365320	-2.985900	3.434200	-10.253000	26.332131	0.000795	20.783939
1323.361701	-3.006400	3.434700	-10.325000	26.339531	0.000794	20.768142
1324.358313	-3.013200	3.431900	-10.340000	26.345913	0.000793	20.775978
1325.357428	-3.002600	3.432800	-10.306000	26.331212	0.000794	20.781593
1326.363013	-2.981200	3.432300	-10.230000	26.326370	0.000793	20.783365
1327.367441	-2.998100	3.431000	-10.286000	26.330815	0.000793	20.775978
1328.361503	-3.008500	3.432100	-10.324000	26.331585	0.000792	20.772010
1329.360670	-2.998100	3.432400	-10.290000	26.352542	0.000791	20.769839
1330.360130	-2.983900	3.431100	-10.237000	26.353610	0.000789	20.763325
1331.371636	-2.969600	3.431200	-10.189000	26.327711	0.000791	20.758633
1332.366837	-2.994900	3.430200	-10.272000	26.320435	0.000790	20.782142
1333.360464	-2.993800	3.430700	-10.270000	26.327935	0.000788	20.770238
1334.361496	-2.994900	3.429900	-10.270000	26.345689	0.000788	20.784762
1335.359909	-3.000100	3.429700	-10.289000	26.328456	0.000787	20.782616
1336.366394	-2.984700	3.429700	-10.236000	26.353560	0.000787	20.795518
1337.366889	-3.000500	3.428500	-10.287000	26.337668	0.000786	20.794245
1338.362144	-3.004700	3.428400	-10.301000	26.338164	0.000785	20.770088
1339.365883	-2.999000	3.427300	-10.277000	26.335408	0.000786	20.764947
1340.385543	-2.988100	3.426200	-10.237000	26.332230	0.000785	20.756537
1341.364143	-3.011400	3.426600	-10.318000	26.354950	0.000785	20.768940
1342.367731	-3.014700	3.424700	-10.323000	26.366496	0.000782	20.751146
1343.364726	-2.991700	3.425200	-10.247000	26.397112	0.000783	20.755838
1344.367013	-3.011200	3.425100	-10.314000	26.413475	0.000783	20.756162
1345.364514	-3.003400	3.425300	-10.285000	26.386335	0.000782	20.764921
1346.365951	-3.004800	3.424200	-10.286000	26.362275	0.000782	20.756386
1347.366889	-3.024000	3.422300	-10.347000	26.383703	0.000781	20.763224
1348.369216	-2.990400	3.423100	-10.236000	26.372728	0.000781	20.763099
1349.367664	-3.001600	3.423900	-10.276000	26.394206	0.000780	20.752443
1350.375814	-2.993500	3.422800	-10.245000	26.406348	0.000778	20.760853
1351.379746	-3.002500	3.423000	-10.276000	26.380748	0.000781	20.759780
1352.366670	-2.998600	3.421500	-10.258000	26.383901	0.000778	20.739715
1353.369042	-3.001000	3.421300	-10.267000	26.364161	0.000777	20.763972
1354.368015	-3.007600	3.422200	-10.291000	26.374888	0.000778	20.742036
1355.371046	-2.989900	3.421600	-10.229000	26.382088	0.000776	20.737418
1356.367928	-2.992200	3.420100	-10.232000	26.395199	0.000777	20.744906
1357.367457	-2.983700	3.419600	-10.202000	26.411388	0.000775	20.765444
1358.374533	-2.996600	3.418900	-10.245000	26.442821	0.000775	20.725913
1359.368257	-3.011700	3.417100	-10.291000	26.411089	0.000776	20.756135
1360.368109	-2.996800	3.418600	-10.244000	26.405924	0.000776	20.764221
1361.368879	-3.010400	3.418200	-10.289000	26.382361	0.000774	20.758556
1362.370385	-2.993500	3.418600	-10.232000	26.380474	0.000773	20.741012
1363.373041	-3.028600	3.418900	-10.354000	26.399419	0.000773	20.740612
1364.371305	-3.000600	3.417600	-10.253000	26.411958	0.000773	20.730455
1365.371786	-3.022700	3.415200	-10.322000	26.424001	0.000772	20.750146
1366.371423	-2.996300	3.416000	-10.234000	26.433957	0.000770	20.734074
1367.372862	-2.986500	3.416000	-10.201000	26.439444	0.000771	20.733425
1368.381989	-3.007300	3.414500	-10.267000	26.444907	0.000769	20.740338
1369.373110	-3.017900	3.414700	-10.304000	26.452926	0.000771	20.732277
1370.375393	-3.022400	3.415200	-10.320000	26.479666	0.000770	20.732127
1371.371526	-2.998400	3.413700	-10.235000	26.480833	0.000767	20.738042
1372.374165	-3.008400	3.413700	-10.269000	26.514822	0.000768	20.755612
1373.376555	-2.994500	3.413800	-10.222000	26.521104	0.000767	20.754813
1374.379066	-2.983100	3.412800	-10.179000	26.522022	0.000767	20.747676
1375.377595	-2.996100	3.412200	-10.222000	26.504072	0.000768	20.744332
1376.376696	-3.015100	3.411200	-10.284000	26.529719	0.000763	20.745929
1377.381162	-3.012500	3.410400	-10.272000	26.483888	0.000764	20.745380
1378.378106	-2.996400	3.410200	-10.217000	26.512539	0.000763	20.752368
1379.382837	-2.990400	3.411200	-10.200000	26.504545	0.000764	20.717779
1380.379946	-3.007900	3.410400	-10.257000	26.508889	0.000763	20.747277
1381.381402	-2.983000	3.411100	-10.174000	26.527137	0.000762	20.738592
1382.381173	-2.995500	3.409300	-10.210000	26.545882	0.000764	20.748425
1383.381721	-2.960200	3.410700	-10.096000	26.549978	0.000761	20.728361
1384.382961	-2.987700	3.407800	-10.180000	26.560157	0.000763	20.761353
1385.382070	-2.987600	3.408500	-10.183000	26.565197	0.000760	20.745556
1386.380857	-3.012700	3.407700	-10.265000	26.550252	0.000760	20.758983
1387.382202	-3.021200	3.406500	-10.290000	26.536697	0.000758	20.726389
1388.382413	-2.991000	3.407100	-10.189000	26.545064	0.000760	20.738120
1389.381026	-3.018300	3.405500	-10.278000	26.509661	0.000758	20.760855
1390.383514	-2.993900	3.406300	-10.196000	26.462165	0.000757	20.742986
1391.381119	-3.003100	3.406000	-10.228000	26.411191	0.000761	20.737271
1392.386324	-3.019800	3.403700	-10.277000	26.349191	0.000759	20.744184
1393.388467	-3.001800	3.403600	-10.216000	26.315321	0.000756	20.737646
1394.384114	-2.996800	3.403200	-10.197000	26.300397	0.000756	20.760107
1395.388877	-3.012300	3.403500	-10.252000	26.288701	0.000755	20.763526
1396.384078	-3.017500	3.401900	-10.264000	26.293643	0.000754	20.735300
1397.384618	-3.013100	3.401800	-10.249000	26.256369	0.000754	20.740042
1398.384573	-3.018100	3.402500	-10.268000	26.232505	0.000754	20.734552
1399.386045	-3.040000	3.399800	-10.335000	26.254805	0.000752	20.739893
1400.393484	-3.022000	3.401100	-10.277000	26.257363	0.000754	20.755740
1401.388940	-2.988000	3.402900	-10.167000	26.251800	0.000751	20.752047
1402.386469	-3.021800	3.400000	-10.272000	26.246660	0.000753	20.739769
1403.386401	-3.002100	3.400100	-10.206000	26.269208	0.000751	20.750574
1404.387083	-3.025200	3.399100	-10.282000	26.300895	0.000749	20.747805
1405.386247	-2.974500	3.399300	-10.110000	26.351527	0.000749	20.758386
1406.389122	-2.993000	3.400000	-10.175000	26.382044	0.000749	20.746383
1407.385634	-2.975800	3.399900	-10.115000	26.369827	0.000747	20.739320
1408.386973	-3.010500	3.397700	-10.229000	26.360367	0.000749	20.758736
1409.385772	-2.996500	3.398100	-10.181000	26.380827	0.000747	20.742315
1410.386712	-3.007300	3.397300	-10.215000	26.414819	0.000746	20.740443
1411.387936	-3.004900	3.396600	-10.205000	26.433466	0.000747	20.742589
1412.386030	-3.000900	3.397500	-10.194000	26.462615	0.000747	20.745335
1413.385049	-3.008600	3.397700	-10.222000	26.504872	0.000746	20.752248
1414.386899	-3.033100	3.395800	-10.299000	26.519917	0.000745	20.770690
1415.386148	-2.985200	3.395500	-10.136000	26.532529	0.000745	20.752073
1416.387986	-3.002600	3.395300	-10.194000	26.559267	0.000741	20.742914
1417.389101	-3.015800	3.395300	-10.238000	26.556288	0.000743	20.760783
1418.387753	-3.010300	3.394400	-10.218000	26.531784	0.000743	20.749428
1419.388032	-2.998400	3.394200	-10.176000	26.505419	0.000744	20.749004
1420.387623	-3.001000	3.393100	-10.181000	26.495860	0.000743	20.757888
1421.388175	-3.011400	3.392900	-10.216000	26.539605	0.000741	20.748755
1422.391442	-2.999400	3.394100	-10.180000	26.536676	0.000740	20.755293
1423.388150	-2.978000	3.394200	-10.107000	26.516715	0.000740	20.765576
1424.388130	-3.014400	3.392200	-10.225000	26.482578	0.000741	20.779152
1425.388037	-2.995100	3.392500	-10.159000	26.456756	0.000741	20.753197
1426.387625	-3.009800	3.392100	-10.207000	26.504600	0.000738	20.741543
1427.392543	-2.999500	3.391200	-10.171000	26.543677	0.000740	20.765651
1428.387276	-2.983400	3.391200	-10.115000	26.559095	0.000739	20.730887
1429.389679	-3.016000	3.388300	-10.218000	26.526696	0.000737	20.762331
1430.388172	-3.011600	3.389400	-10.205000	26.497971	0.000735	20.744837
1431.387557	-2.989100	3.390300	-10.133000	26.420805	0.000734	20.757840
1432.390091	-3.018200	3.388000	-10.225000	26.446726	0.000737	20.778204
1433.388873	-2.990500	3.389900	-10.136000	26.473193	0.000735	20.764503
1434.390769	-3.005400	3.387900	-10.181000	26.494148	0.000735	20.771341
1435.391644	-3.002500	3.388200	-10.172000	26.505742	0.000732	20.758812
1436.393823	-2.983800	3.388000	-10.108000	26.521855	0.000733	20.754146
1437.396555	-3.004600	3.388600	-10.180000	26.492310	0.000732	20.798892
1438.393846	-3.013000	3.386900	-10.204000	26.499064	0.000732	20.742142
1439.396815	-2.999400	3.386600	-10.155000	26.492509	0.000731	20.749779
1440.395338	-3.020600	3.384300	-10.222000	26.485706	0.000732	20.768071
1441.394327	-3.006600	3.384400	-10.175000	26.485880	0.000729	20.753073
1442.394873	-3.003700	3.385500	-10.168000	26.486252	0.000731	20.753921
1443.397723	-3.004300	3.385700	-10.170000	26.540449	0.000728	20.765251
1444.396646	-2.997800	3.385700	-10.148000	26.539282	0.000730	20.758862
1445.397161	-3.012200	3.384600	-10.194000	26.521333	0.000726	20.771166
1446.396457	-2.994900	3.383500	-10.132000	26.528955	0.000726	20.765551
1447.395998	-2.987700	3.383300	-10.107000	26.516665	0.000726	20.767422
1448.398921	-2.983600	3.383100	-10.092000	26.532504	0.000726	20.778128
1449.397289	-2.990700	3.382900	-10.116000	26.584590	0.000725	20.754619
1450.402503	-2.982400	3.383300	-10.089000	26.611873	0.000724	20.773037
1451.398358	-2.988400	3.382400	-10.107000	26.629622	0.000722	20.801311
1452.398388	-2.979800	3.381800	-10.076000	26.633743	0.000723	20.773212
1453.407206	-2.995700	3.380500	-10.126000	26.606237	0.000724	20.788708
1454.399174	-3.014700	3.380600	-10.191000	26.581188	0.000722	20.769218
1455.400171	-3.011100	3.380800	-10.179000	26.593426	0.000722	20.765399
1456.399668	-2.986400	3.380600	-10.095000	26.562394	0.000721	20.798690
1457.406905	-3.005100	3.378400	-10.152000	26.563462	0.000721	20.756615
1458.400577	-2.984800	3.380300	-10.089000	26.589355	0.000723	20.789282
1459.403996	-2.975900	3.379800	-10.057000	26.548715	0.000720	20.765973
1460.400881	-3.000400	3.377500	-10.133000	26.499558	0.000720	20.784365
1461.400321	-2.995900	3.375900	-10.112000	26.497224	0.000719	20.782967
1462.400722	-2.988100	3.377000	-10.090000	26.501867	0.000717	20.779100
1463.398505	-3.006400	3.377700	-10.153000	26.521356	0.000719	20.776404
1464.403736	-2.985600	3.376600	-10.079000	26.551867	0.000716	20.770089
1465.400551	-2.986500	3.377100	-10.085000	26.601568	0.000717	20.787808
1466.403281	-2.984500	3.376100	-10.075000	26.613508	0.000715	20.787958
1467.400848	-2.998100	3.375000	-10.118000	26.629098	0.000716	20.780870
1468.401042	-3.014600	3.374100	-10.170000	26.637662	0.000715	20.782367
1469.400443	-3.014200	3.374300	-10.170000	26.662238	0.000714	20.780046
1470.403317	-3.006600	3.373000	-10.140000	26.676437	0.000715	20.783890
1471.402157	-2.980900	3.374800	-10.058000	26.691753	0.000713	20.793123
1472.401319	-2.995500	3.372300	-10.101000	26.722632	0.000712	20.784813
1473.402787	-2.975800	3.374600	-10.040000	26.718511	0.000712	20.807697
1474.402676	-2.976500	3.373900	-10.041000	26.698033	0.000710	20.775729
1475.403840	-2.992500	3.372600	-10.091000	26.692969	0.000711	20.792923
1476.403702	-2.994500	3.372100	-10.096000	26.654766	0.000712	20.804777
1477.407101	-2.983600	3.371800	-10.059000	26.651116	0.000709	20.784512
1478.404764	-3.023800	3.369700	-10.188000	26.588782	0.000712	20.785861
1479.403923	-3.018600	3.369200	-10.169000	26.535704	0.000708	20.800309
1480.405815	-2.989100	3.369900	-10.072000	26.517704	0.000708	20.777949
1481.404344	-2.987900	3.369600	-10.067000	26.523811	0.000708	20.810641
1482.404597	-3.009300	3.368800	-10.136000	26.544815	0.000710	20.789080
1483.404337	-3.013600	3.368800	-10.151000	26.591835	0.000708	20.796042
1484.406424	-2.995400	3.369900	-10.093000	26.629048	0.000705	20.795993
1485.406040	-2.985300	3.369300	-10.057000	26.648410	0.000707	20.803129
1486.408972	-3.010000	3.368600	-10.138000	26.709476	0.000704	20.792449
1487.406543	-2.989700	3.367700	-10.067000	26.739114	0.000705	20.801857
1488.406829	-2.989100	3.368900	-10.069000	26.717469	0.000703	20.802855
1489.406027	-2.989300	3.367600	-10.065000	26.698678	0.000702	20.798189
1490.409512	-2.985000	3.367500	-10.051000	26.737525	0.000703	20.792673
1491.408419	-3.001200	3.367100	-10.104000	26.712132	0.000702	20.801757
1492.407586	-3.029400	3.365100	-10.193000	26.737525	0.000702	20.787932
1493.408554	-3.008600	3.364700	-10.122000	26.737822	0.000700	20.807671
1494.411575	-3.008700	3.365300	-10.124000	26.752567	0.000701	20.809218
1495.407670	-2.989200	3.365200	-10.059000	26.721813	0.000700	20.791575
1496.408973	-3.002900	3.364400	-10.102000	26.704412	0.000700	20.802531
1497.409965	-2.972800	3.364700	-10.001000	26.689742	0.000699	20.820024
1498.413943	-3.011500	3.362800	-10.126000	26.700267	0.000701	20.811166
1499.409660	-3.003800	3.363200	-10.101000	26.694806	0.000698	20.801882
1500.409579	-3.021200	3.360800	-10.153000	26.680086	0.000696	20.811740
1501.413852	-3.018100	3.361000	-10.143000	26.677132	0.000696	20.826787
1502.409293	-3.016400	3.360300	-10.135000	26.700143	0.000695	20.814360
1503.409455	-3.023400	3.361200	-10.161000	26.698207	0.000695	20.803879
1504.408750	-3.024600	3.360700	-10.164000	26.684232	0.000698	20.823020
1505.408475	-2.994800	3.360400	-10.063000	26.693069	0.000696	20.813886
1506.408476	-3.006400	3.360600	-10.103000	26.700341	0.000694	20.809344
1507.412758	-3.025000	3.360500	-10.164000	26.732040	0.000693	20.818927
1508.409168	-3.007600	3.359700	-10.104000	26.730973	0.000692	20.798414
1509.410145	-2.993100	3.360500	-10.057000	26.727746	0.000692	20.824567
1510.408691	-3.009300	3.358900	-10.106000	26.668941	0.000692	20.816657
1511.411473	-3.005400	3.359100	-10.094000	26.653699	0.000692	20.811765
1512.413115	-3.001700	3.358400	-10.079000	26.683512	0.000689	20.829883
1513.411640	-2.982000	3.358300	-10.013000	26.699275	0.000690	20.796892
1514.413956	-2.990800	3.357000	-10.039000	26.711562	0.000689	20.819202
1515.413389	-3.001700	3.355700	-10.072000	26.700640	0.000688	20.827662
1516.413577	-2.988900	3.356400	-10.031000	26.664125	0.000688	20.827936
1517.413631	-2.983600	3.356400	-10.013000	26.647419	0.000689	20.822995
1518.415122	-2.987300	3.355500	-10.022000	26.669487	0.000689	20.808197
1519.414243	-3.016800	3.355100	-10.121000	26.692698	0.000688	20.832479
1520.415889	-2.999900	3.356000	-10.067000	26.725289	0.000688	20.825890
1521.414854	-2.987200	3.355500	-10.023000	26.759593	0.000687	20.824343
1522.415304	-3.005300	3.354800	-10.081000	26.804544	0.000685	20.833502
1523.416942	-3.009500	3.351800	-10.086000	26.797842	0.000685	20.829135
1524.418357	-3.018900	3.353500	-10.123000	26.840806	0.000686	20.824443
1525.418787	-3.016600	3.351900	-10.109000	26.869770	0.000684	20.829384
1526.417241	-2.984200	3.354000	-10.007000	26.858179	0.000683	20.829584
1527.417942	-3.004700	3.350500	-10.066000	26.799655	0.000682	20.837595
1528.419352	-3.002000	3.352200	-10.063000	26.788883	0.000682	20.828661
1529.418639	-2.993800	3.350900	-10.031000	26.746364	0.000683	20.842336
1530.424014	-2.983200	3.350800	-9.995000	26.736907	0.000681	20.850846
1531.419965	-2.975000	3.351700	-9.969700	26.693096	0.000680	20.825293
1532.419414	-3.000800	3.351200	-10.055000	26.643076	0.000679	20.824319
1533.418435	-3.003200	3.351600	-10.064000	26.597473	0.000680	20.839641
1534.421224	-3.025400	3.348300	-10.129000	26.601818	0.000680	20.830259
1535.421041	-3.005500	3.348700	-10.064000	26.614876	0.000677	20.850023
1536.421181	-3.009900	3.348500	-10.077000	26.623987	0.000677	20.825044
1537.420403	-2.986900	3.348700	-10.001000	26.657102	0.000676	20.840790
1538.423903	-2.991800	3.347400	-10.013000	26.693741	0.000678	20.842537
1539.423889	-3.000600	3.347700	-10.044000	26.702033	0.000675	20.826217
1540.421241	-2.998300	3.346500	-10.033000	26.685376	0.000676	20.836498
1541.421082	-3.010600	3.346400	-10.074000	26.679395	0.000676	20.835226
1542.422429	-3.017200	3.346300	-10.094000	26.702480	0.000674	20.840416
1543.423099	-3.006000	3.345400	-10.056000	26.702877	0.000674	20.841290
1544.423219	-2.976000	3.347900	-9.962500	26.742321	0.000674	20.860081
1545.423666	-2.988200	3.344500	-9.993000	26.756369	0.000673	20.860929
1546.423720	-2.980600	3.344900	-9.967500	26.767986	0.000672	20.862651
1547.427405	-2.982700	3.345400	-9.977700	26.828995	0.000672	20.855240
1548.424753	-2.979800	3.343500	-9.962200	26.847957	0.000671	20.856288
1549.424888	-2.992500	3.343900	-10.005000	26.861757	0.000671	20.866844
1550.426682	-3.018400	3.342200	-10.087000	26.869277	0.000669	20.852595
1551.425655	-3.005300	3.343300	-10.046000	26.884764	0.000669	20.868167
1552.426559	-2.992100	3.342700	-10.000000	26.898811	0.000670	20.874705
1553.427931	-2.985200	3.341900	-9.976300	26.922835	0.000669	20.874206
1554.429171	-2.991500	3.342300	-9.997200	26.936088	0.000668	20.848653
1555.428609	-2.999700	3.341000	-10.020000	26.918021	0.000666	20.868892
1556.427105	-2.990300	3.341200	-9.990500	26.890474	0.000667	20.849253
1557.428097	-2.997800	3.340400	-10.013000	26.852476	0.000667	20.858461
1558.428724	-2.979200	3.340300	-9.950200	26.805020	0.000667	20.855790
1559.427868	-2.976000	3.341500	-9.942800	26.828327	0.000666	20.857887
1560.430494	-2.995700	3.340800	-10.005000	26.847239	0.000664	20.873109
1561.431517	-2.988600	3.339000	-9.978200	26.820360	0.000664	20.865998
1562.431478	-3.004100	3.338100	-10.027000	26.841332	0.000663	20.865274
1563.434237	-2.985500	3.338000	-9.964000	26.849002	0.000663	20.879623
1564.431157	-2.978100	3.337700	-9.939400	26.869230	0.000662	20.838798
1565.432972	-3.019300	3.337400	-10.075000	26.894470	0.000660	20.870340
1566.429200	-2.991700	3.337000	-9.982900	26.921646	0.000660	20.878700
1567.428196	-2.998100	3.337200	-10.004000	26.931524	0.000659	20.861133
1568.432215	-3.003300	3.335800	-10.017000	26.951750	0.000657	20.867247
1569.427660	-3.002700	3.336200	-10.017000	26.947805	0.000658	20.858538
1570.428265	-2.981900	3.335500	-9.945100	26.934924	0.000659	20.856966
1571.430072	-3.001400	3.334800	-10.008000	26.941699	0.000659	20.887958
1572.429718	-2.966700	3.335300	-9.893900	26.978752	0.000657	20.879226
1573.429850	-2.993200	3.334300	-9.979900	26.954407	0.000656	20.882719
1574.431787	-3.006100	3.333000	-10.019000	26.935099	0.000653	20.876107
1575.429331	-3.035700	3.330600	-10.109000	26.915493	0.000654	20.877729
1576.432506	-2.978000	3.333400	-9.926800	26.916586	0.000652	20.880724
1577.436572	-3.009100	3.331400	-10.022000	26.891420	0.000654	20.900936
1578.437166	-3.002100	3.332600	-10.004000	26.942347	0.000653	20.890980
1579.430689	-3.004200	3.331700	-10.008000	26.928102	0.000654	20.882346
1580.430210	-2.988500	3.331000	-9.953800	26.949817	0.000651	20.889009
1581.430134	-2.986700	3.332400	-9.952000	26.950462	0.000651	20.903881
1582.434709	-2.978700	3.331800	-9.923300	26.995851	0.000650	20.883619
1583.434730	-3.020600	3.329100	-10.055000	26.999872	0.000651	20.889084
1584.429378	-3.014500	3.330200	-10.038000	26.973765	0.000650	20.893176
1585.432011	-3.008800	3.329900	-10.018000	26.924702	0.000648	20.898366
1586.441188	-2.993400	3.328800	-9.963500	26.945971	0.000647	20.892728
1587.434308	-2.992300	3.328900	-9.959500	26.947386	0.000647	20.896995
1588.442888	-3.003500	3.327200	-9.992000	26.955327	0.000647	20.883645
1589.439190	-3.005600	3.328500	-10.003000	26.974510	0.000648	20.885865
1590.432898	-2.994800	3.327100	-9.963000	26.955575	0.000646	20.894325
1591.433061	-2.982200	3.326700	-9.919900	26.947956	0.000646	20.900413
1592.443314	-2.994200	3.328000	-9.963900	26.902566	0.000645	20.901711
1593.433298	-3.026500	3.325800	-10.065000	26.885912	0.000643	20.883545
1594.433811	-2.999900	3.326900	-9.977900	26.828034	0.000643	20.905479
1595.433743	-2.987600	3.325400	-9.933200	26.777947	0.000645	20.903009
1596.440272	-2.991300	3.325100	-9.945400	26.769309	0.000643	20.897170
1597.436530	-2.978600	3.325600	-9.903700	26.786560	0.000643	20.911668
1598.435304	-2.994800	3.324300	-9.954600	26.830169	0.000642	20.904307
1599.435380	-3.018800	3.323700	-10.033000	26.860771	0.000641	20.899990
1600.436060	-2.993500	3.323300	-9.947400	26.852283	0.000640	20.904731
1601.434997	-2.999900	3.322800	-9.966700	26.827464	0.000639	20.898743
1602.434944	-3.001300	3.323600	-9.974600	26.813739	0.000640	20.900116
1603.439026	-3.010000	3.321900	-9.998100	26.815775	0.000639	20.893628
1604.436082	-2.999700	3.321900	-9.964200	26.785817	0.000638	20.911869
1605.436107	-3.003500	3.322700	-9.978700	26.786064	0.000636	20.885094
1606.437099	-2.985000	3.321200	-9.912100	26.793933	0.000636	20.898694
1607.435376	-3.001900	3.321200	-9.968300	26.771098	0.000637	20.902288
1608.440914	-2.994400	3.321000	-9.943000	26.773878	0.000635	20.902237
1609.437922	-2.991800	3.319300	-9.929800	26.770105	0.000634	20.888488
1610.440834	-2.997900	3.319800	-9.950900	26.818108	0.000631	20.886018
1611.439548	-2.998100	3.319700	-9.951500	26.814807	0.000632	20.884595
1612.438518	-2.982600	3.319300	-9.899100	26.834415	0.000632	20.909998
1613.440280	-3.009800	3.317700	-9.984400	26.849406	0.000633	20.891882
1614.439378	-2.994200	3.317800	-9.933500	26.867301	0.000630	20.884745
1615.439327	-2.993000	3.318900	-9.932700	26.888570	0.000630	20.902812
1616.439364	-2.973800	3.320000	-9.871600	26.913439	0.000631	20.857172
1617.448018	-3.010600	3.315900	-9.981300	26.950342	0.000630	20.882899
1618.439771	-2.978600	3.317700	-9.880800	26.956620	0.000630	20.889212
1619.449663	-3.010600	3.316300	-9.983100	26.970369	0.000629	20.874115
1620.441075	-2.995700	3.316400	-9.934200	26.932845	0.000628	20.884745
1621.440382	-3.010900	3.316500	-9.984800	26.910137	0.000628	20.881352
1622.449461	-2.990000	3.314700	-9.909100	26.929073	0.000629	20.867677
1623.451448	-2.986700	3.315000	-9.899500	26.899689	0.000625	20.890285
1624.443054	-3.028900	3.313800	-10.036000	26.903833	0.000625	20.872642
1625.441384	-2.998200	3.315100	-9.938500	26.918947	0.000626	20.873616
1626.445314	-3.008300	3.313300	-9.966400	26.921305	0.000624	20.867452
1627.449829	-3.014500	3.312400	-9.984300	26.910385	0.000625	20.877334
1628.443433	-3.005700	3.313200	-9.956800	26.932522	0.000624	20.868300
1629.445911	-3.002400	3.312400	-9.944100	26.915151	0.000623	20.879281
1630.446262	-3.010700	3.311400	-9.968400	26.875789	0.000624	20.864832
1631.443786	-2.986300	3.312500	-9.890800	26.872264	0.000623	20.856547
1632.444795	-2.987800	3.312200	-9.895300	26.902171	0.000622	20.870023
1633.445481	-2.987600	3.310800	-9.891200	26.947587	0.000621	20.872543
1634.447934	-2.982900	3.311500	-9.877100	26.954064	0.000621	20.870996
1635.452423	-2.991200	3.309100	-9.897500	26.952203	0.000619	20.849211
1636.447079	-2.980000	3.310200	-9.863500	26.928602	0.000619	20.870996
1637.452209	-3.006900	3.308900	-9.948200	26.953469	0.000617	20.892207
1638.445606	-3.004300	3.309200	-9.940500	26.915051	0.000617	20.859268
1639.445115	-2.964100	3.309600	-9.808100	26.877799	0.000616	20.854052
1640.449512	-3.025400	3.306600	-10.002000	26.825281	0.000618	20.857196
1641.446344	-3.016600	3.306400	-9.972200	26.815503	0.000616	20.869649
1642.447845	-3.012900	3.307000	-9.963000	26.840347	0.000618	20.876136
1643.448408	-2.973000	3.308800	-9.835800	26.827019	0.000613	20.865581
1644.449119	-2.998200	3.305300	-9.907900	26.801976	0.000612	20.846093
1645.448639	-3.014200	3.306000	-9.964100	26.781299	0.000614	20.850908
1646.453193	-2.996700	3.306900	-9.909100	26.776336	0.000612	20.864408
1647.449341	-3.028100	3.303700	-10.003000	26.815479	0.000612	20.860142
1648.448235	-2.995700	3.305500	-9.900500	26.867972	0.000609	20.861240
1649.452233	-3.004900	3.303900	-9.927100	26.865043	0.000610	20.868252
1650.453166	-3.003900	3.304500	-9.924900	26.879835	0.000610	20.860367
1651.456077	-3.006000	3.304500	-9.931200	26.841539	0.000609	20.846991
1652.452411	-3.008300	3.303800	-9.937200	26.859856	0.000610	20.849761
1653.454770	-3.001700	3.301400	-9.908800	26.864448	0.000609	20.858171
1654.453434	-2.990600	3.303200	-9.876800	26.910610	0.000608	20.860491
1655.468155	-3.021700	3.302000	-9.976300	26.949723	0.000605	20.860941
1656.455446	-3.008000	3.302600	-9.933700	26.988660	0.000606	20.830397
1657.455782	-2.988900	3.302100	-9.867900	27.022459	0.000607	20.834514
1658.455705	-2.968600	3.302400	-9.802000	27.020276	0.000606	20.821888
1659.455685	-2.980500	3.301100	-9.837700	26.969427	0.000605	20.821962
1660.458619	-2.992200	3.300600	-9.874700	26.932053	0.000604	20.849812
1661.455925	-2.982300	3.301000	-9.844000	26.902991	0.000603	20.826754
1662.456885	-2.978400	3.299600	-9.826500	26.899171	0.000603	20.840455
1663.456296	-2.984800	3.299700	-9.847700	26.950716	0.000601	20.861466
1664.458076	-3.015400	3.297600	-9.941800	26.973350	0.000602	20.841553
1665.461184	-3.014900	3.297300	-9.939000	27.012510	0.000601	20.837785
1666.459369	-3.002400	3.298300	-9.901200	27.024049	0.000599	20.836588
1667.462265	-3.024400	3.297000	-9.969800	27.024347	0.000600	20.849689
1668.457396	-2.984500	3.298000	-9.841800	27.040998	0.000598	20.829925
1669.458001	-2.987400	3.296300	-9.846700	27.069214	0.000599	20.822266
1670.459528	-2.980500	3.296400	-9.822300	27.064226	0.000600	20.848542
1671.459233	-2.983400	3.295300	-9.829100	27.059388	0.000597	20.828979
1672.464993	-2.993500	3.296700	-9.866800	27.027898	0.000596	20.836191
1673.463380	-2.986000	3.295200	-9.837200	27.028319	0.000597	20.834244
1674.462996	-2.986200	3.294900	-9.837900	27.042837	0.000595	20.815653
1675.460609	-2.978200	3.294700	-9.812200	27.100803	0.000595	20.835068
1676.460853	-2.986600	3.296200	-9.843100	27.108893	0.000594	20.833248
1677.464091	-2.988300	3.294600	-9.843900	27.081821	0.000592	20.843479
1678.461882	-2.995100	3.292100	-9.858200	27.064452	0.000594	20.842132
1679.461444	-2.997000	3.294000	-9.870400	27.061475	0.000591	20.837242
1680.461835	-2.970100	3.293900	-9.781700	27.065545	0.000591	20.838490
1681.462273	-2.996000	3.291700	-9.861500	27.049689	0.000591	20.837243
1682.462475	-3.003100	3.290800	-9.881800	27.045744	0.000591	20.841336
1683.464314	-3.016600	3.290100	-9.923600	27.031996	0.000588	20.844580
1684.464028	-3.009000	3.290400	-9.900400	27.024353	0.000588	20.831678
1685.465880	-3.020900	3.289500	-9.936300	27.056539	0.000588	20.831804
1686.463105	-3.009300	3.290000	-9.898800	27.041948	0.000587	20.830880
1687.462318	-3.003100	3.289300	-9.877300	27.039368	0.000585	20.838242
1688.467573	-2.988900	3.290800	-9.835200	27.015397	0.000586	20.828835
1689.465131	-3.008400	3.289300	-9.893600	27.046217	0.000586	20.814311
1690.465900	-3.021900	3.288800	-9.937700	27.017358	0.000585	20.841712
1691.464518	-2.994300	3.288900	-9.847200	27.065722	0.000585	20.853840
1692.463953	-2.995500	3.288200	-9.849300	27.093961	0.000585	20.827714
1693.463990	-3.012500	3.287100	-9.901200	27.097062	0.000581	20.827514
1694.465733	-3.010400	3.286300	-9.892000	27.130808	0.000584	20.826840
1695.465016	-2.997800	3.286300	-9.850300	27.158698	0.000583	20.835450
1696.464570	-2.982000	3.285900	-9.797300	27.210405	0.000582	20.822498
1697.464838	-3.001400	3.287800	-9.867100	27.225367	0.000581	20.854615
1698.464995	-3.013200	3.284900	-9.896200	27.247722	0.000581	20.830635
1699.469535	-3.001100	3.285900	-9.860000	27.255214	0.000577	20.835326
1700.464978	-3.001200	3.285000	-9.858100	27.268860	0.000580	20.825819
1701.466321	-3.017300	3.284400	-9.909200	27.282952	0.000580	20.842838
1702.464989	-3.007000	3.283400	-9.872900	27.238146	0.000578	20.824322
1703.464427	-3.007300	3.283900	-9.875000	27.190906	0.000578	20.836550
1704.466555	-2.994300	3.284600	-9.834100	27.170560	0.000578	20.822725
1705.468096	-2.972000	3.285000	-9.761600	27.134161	0.000576	20.821677
1706.465292	-3.001400	3.284100	-9.855300	27.101581	0.000576	20.818782
1707.465481	-3.009000	3.282300	-9.876100	27.086669	0.000572	20.816586
1708.468303	-3.011100	3.283000	-9.884900	27.130887	0.000575	20.834980
1709.468744	-3.015100	3.281900	-9.894500	27.173265	0.000574	20.829712
1710.465781	-3.016500	3.280800	-9.894400	27.182422	0.000573	20.815690
1711.466887	-2.996700	3.280400	-9.829600	27.207233	0.000573	20.840644
1712.468869	-3.015300	3.279900	-9.886200	27.195994	0.000571	20.828392
1713.467770	-3.015900	3.277900	-9.884700	27.170141	0.000569	20.827518
1714.472048	-3.011600	3.277800	-9.869700	27.116645	0.000569	20.839622
1715.475879	-2.991300	3.279700	-9.809800	27.097911	0.000571	20.817462
1716.470688	-2.980700	3.279000	-9.772700	27.062105	0.000568	20.825548
1717.473248	-2.964800	3.280500	-9.723900	27.065951	0.000567	20.836528
1718.468268	-3.000200	3.279900	-9.838300	27.058334	0.000566	20.815117
1719.470176	-2.975400	3.278800	-9.754900	27.064935	0.000566	20.836928
1720.469184	-3.000200	3.277900	-9.833200	27.119276	0.000566	20.797224
1721.469765	-3.025900	3.275900	-9.910500	27.097788	0.000564	20.817338
1722.468666	-2.998100	3.275800	-9.818300	27.085108	0.000566	20.815966
1723.470106	-3.008800	3.276700	-9.858400	27.074562	0.000563	20.828592
1724.470798	-3.004600	3.275800	-9.841300	27.068334	0.000561	20.803838
1725.470505	-3.001200	3.274700	-9.826300	27.108284	0.000563	20.827894
1726.470937	-2.984200	3.275200	-9.773300	27.141980	0.000563	20.821480
1727.473644	-3.000400	3.274500	-9.824200	27.167338	0.000562	20.825174
1728.470197	-3.016500	3.274400	-9.875000	27.160440	0.000560	20.814443
1729.471030	-3.004900	3.274000	-9.836400	27.200511	0.000561	20.828193
1730.475563	-2.998800	3.273900	-9.816600	27.213462	0.000559	20.819409
1731.474742	-3.013200	3.273300	-9.861700	27.257748	0.000558	20.817013
1732.470462	-3.022600	3.271800	-9.888400	27.292655	0.000557	20.812297
1733.470210	-2.991400	3.272900	-9.789300	27.292680	0.000559	20.811373
1734.470304	-3.007600	3.271800	-9.839800	27.290770	0.000558	20.805184
1735.469546	-2.973300	3.271700	-9.727400	27.302430	0.000558	20.805059
1736.473148	-3.029600	3.269100	-9.903100	27.310864	0.000556	20.804535
1737.470826	-2.983300	3.271400	-9.757400	27.281020	0.000556	20.824774
1738.473107	-2.996300	3.271100	-9.799800	27.258666	0.000556	20.826471
1739.472257	-2.990800	3.269600	-9.777700	27.200758	0.000554	20.811847
1740.472640	-3.024000	3.268000	-9.880500	27.188502	0.000553	20.807106
1741.475208	-3.013800	3.268500	-9.849500	27.220533	0.000553	20.809926
1742.472633	-3.014400	3.269300	-9.852700	27.246062	0.000551	20.812845
1743.475458	-3.020300	3.268400	-9.870000	27.286328	0.000552	20.779854
1744.476162	-2.986700	3.266200	-9.754000	27.329322	0.000551	20.819309
1745.475976	-2.968500	3.267400	-9.698700	27.364325	0.000548	20.800467
1746.475738	-2.994700	3.266600	-9.782200	27.333639	0.000549	20.822229
1747.475800	-2.986200	3.265800	-9.751200	27.336416	0.000546	20.817911
1748.477243	-2.991400	3.265700	-9.766400	27.280399	0.000548	20.805658
1749.475785	-2.994600	3.265300	-9.777600	27.258492	0.000548	20.820132
1750.476394	-3.004600	3.265400	-9.810200	27.166047	0.000545	20.826720
1751.476897	-3.006000	3.265500	-9.814900	27.178677	0.000546	20.801965
1752.476836	-2.992400	3.264700	-9.767700	27.207606	0.000544	20.803562
1753.477558	-2.989500	3.264300	-9.757100	27.254299	0.000543	20.798371
1754.478065	-2.991100	3.264100	-9.762100	27.273403	0.000543	20.810000
1755.481565	-2.995800	3.263100	-9.774700	27.314883	0.000541	20.803362
1756.477448	-3.006300	3.262200	-9.806000	27.324931	0.000541	20.795451
1757.480534	-3.007900	3.261700	-9.809500	27.330439	0.000540	20.823277
1758.489363	-3.004700	3.262900	-9.802800	27.334532	0.000540	20.805109
1759.478885	-2.973100	3.264000	-9.703000	27.376754	0.000540	20.816763
1760.480324	-2.996300	3.261200	-9.770600	27.391266	0.000538	20.811447
1761.480532	-2.994500	3.260500	-9.761900	27.370676	0.000538	20.798795
1762.484282	-2.967000	3.262600	-9.678400	27.387445	0.000537	20.794328
1763.480102	-2.964900	3.261400	-9.669100	27.396152	0.000538	20.796449
1764.481859	-2.987300	3.261200	-9.741800	27.417660	0.000539	20.795800
1765.483117	-2.988100	3.260300	-9.741100	27.415824	0.000536	20.795850
1766.482810	-2.971000	3.259900	-9.684300	27.388016	0.000535	20.798695
1767.482324	-2.996100	3.259700	-9.765000	27.379557	0.000535	20.786867
1768.482290	-2.974600	3.259200	-9.693800	27.396301	0.000532	20.798495
1769.482938	-2.988700	3.257400	-9.734400	27.374421	0.000532	20.788812
1770.481950	-2.989200	3.256900	-9.734400	27.367376	0.000534	20.784570
1771.484591	-2.972400	3.259400	-9.686100	27.358073	0.000532	20.791333
1772.484856	-2.990200	3.257400	-9.739000	27.353036	0.000532	20.800965
1773.484665	-3.001200	3.256600	-9.772300	27.395755	0.000532	20.803635
1774.486015	-2.981800	3.255500	-9.705000	27.417907	0.000532	20.780402
1775.484738	-3.000300	3.256500	-9.769200	27.415401	0.000529	20.802063
1776.483481	-3.005300	3.254900	-9.779700	27.450427	0.000527	20.786092
1777.484177	-2.998600	3.255100	-9.759500	27.465905	0.000526	20.790284
1778.487905	-2.997900	3.255300	-9.757900	27.476199	0.000527	20.785467
1779.485125	-2.996800	3.253600	-9.749800	27.475728	0.000524	20.796847
1780.488704	-2.989700	3.254500	-9.728100	27.477613	0.000527	20.780726
1781.485951	-3.020700	3.252100	-9.822200	27.510032	0.000525	20.785842
1782.485225	-3.016200	3.252400	-9.807400	27.521565	0.000523	20.792704
1783.490080	-3.009900	3.252400	-9.788200	27.526922	0.000522	20.787662
1784.487247	-2.999100	3.251600	-9.750500	27.463250	0.000523	20.797096
1785.490268	-3.011900	3.251300	-9.789300	27.424677	0.000521	20.779627
1786.486326	-3.008500	3.251400	-9.781600	27.394017	0.000522	20.770593
1787.486014	-2.995800	3.252500	-9.743000	27.375858	0.000521	20.790732
1788.486470	-3.013200	3.250400	-9.793500	27.368366	0.000520	20.777031
1789.486501	-3.007200	3.249800	-9.772200	27.348793	0.000518	20.786738
1790.487690	-3.015000	3.248600	-9.793500	27.343756	0.000517	20.784517
1791.486127	-3.000100	3.249000	-9.746500	27.313739	0.000518	20.796996
1792.487191	-2.991100	3.249800	-9.719600	27.317931	0.000517	20.774185
1793.487087	-2.994400	3.246600	-9.720700	27.291733	0.000518	20.788610
1794.489038	-2.999500	3.249200	-9.744300	27.333089	0.000518	20.771889
1795.488072	-3.003600	3.248500	-9.756100	27.342069	0.000515	20.790881
1796.489587	-3.001400	3.247200	-9.745100	27.278832	0.000513	20.753820
1797.487390	-3.005100	3.247400	-9.757600	27.264517	0.000513	20.764078
1798.488102	-3.018700	3.246100	-9.797400	27.292154	0.000512	20.772912
1799.492270	-2.987500	3.247400	-9.701300	27.292948	0.000512	20.784616
1800.490546	-2.990400	3.247300	-9.710100	27.276822	0.000512	20.786413
1801.490787	-2.988500	3.245600	-9.697900	27.308454	0.000513	20.769394
1802.491181	-3.005400	3.245100	-9.752000	27.311704	0.000512	20.773611
1803.489768	-2.995800	3.244300	-9.717600	27.340158	0.000510	20.765724
1804.492602	-3.016900	3.244600	-9.786700	27.299571	0.000510	20.768519
1805.493910	-2.990100	3.243600	-9.698000	27.265708	0.000508	20.791829
1806.491299	-3.004400	3.243100	-9.742200	27.224522	0.000509	20.748030
1807.493178	-3.011400	3.242400	-9.762600	27.213779	0.000506	20.769468
1808.492378	-3.021400	3.241800	-9.794000	27.201622	0.000505	20.767671
1809.492254	-2.986700	3.242600	-9.682900	27.195718	0.000505	20.772164
1810.492184	-3.002500	3.241000	-9.730400	27.194800	0.000505	20.761757
1811.491093	-2.977300	3.242500	-9.652100	27.164480	0.000503	20.764927
1812.496820	-2.994800	3.241000	-9.705200	27.168326	0.000502	20.763579
1813.493359	-2.992000	3.241700	-9.698000	27.196115	0.000503	20.784892
1814.493477	-3.016700	3.240300	-9.773800	27.216162	0.000502	20.759062
1815.501927	-3.017500	3.239700	-9.772700	27.238070	0.000501	20.792952
1816.493406	-3.009200	3.240400	-9.750800	27.220505	0.000503	20.771491
1817.494589	-2.997300	3.238800	-9.706900	27.196066	0.000501	20.750703
1818.494649	-3.001300	3.238000	-9.716800	27.232191	0.000501	20.762382
1819.495554	-2.987300	3.238000	-9.670800	27.259879	0.000500	20.759887
1820.494860	-3.002100	3.238400	-9.720800	27.280769	0.000498	20.765727
1821.497217	-3.038200	3.236000	-9.830900	27.315451	0.000499	20.777380
1822.498329	-3.008200	3.237700	-9.738600	27.323837	0.000498	20.762582
1823.497149	-2.954400	3.238900	-9.567800	27.364298	0.000496	20.751127
1824.497717	-2.979900	3.236100	-9.641700	27.379158	0.000495	20.767024
1825.497260	-2.992500	3.234500	-9.678900	27.374990	0.000495	20.749081
1826.500516	-3.005200	3.235100	-9.721200	27.379630	0.000493	20.759438
1827.504844	-2.983700	3.234400	-9.649600	27.355864	0.000492	20.757342
1828.499037	-3.008100	3.233300	-9.726000	27.304760	0.000492	20.756668
1829.499201	-2.981900	3.234500	-9.643200	27.272681	0.000490	20.743366
1830.499457	-3.011500	3.232500	-9.734200	27.251842	0.000490	20.740896
1831.502785	-2.995400	3.234500	-9.686400	27.291041	0.000490	20.746661
1832.499771	-2.984500	3.232100	-9.645700	27.284095	0.000489	20.735881
1833.498470	-2.995400	3.232600	-9.681900	27.302875	0.000490	20.743392
1834.499563	-2.995900	3.231500	-9.680100	27.331677	0.000487	20.754348
1835.501692	-3.009700	3.230900	-9.722500	27.383846	0.000486	20.769844
1836.500712	-3.015600	3.230700	-9.741700	27.403023	0.000485	20.770644
1837.500302	-2.992500	3.232100	-9.671400	27.380350	0.000486	20.761585
1838.502387	-3.014500	3.231600	-9.740000	27.415030	0.000486	20.765653
1839.501750	-2.998300	3.230900	-9.685900	27.404289	0.000484	20.747261
1840.500223	-3.004500	3.229000	-9.700600	27.414013	0.000483	20.768898
1841.501285	-2.998200	3.230200	-9.683700	27.461217	0.000484	20.745737
1842.503253	-3.019200	3.228700	-9.746800	27.491404	0.000481	20.753823
1843.500997	-2.958000	3.229500	-9.551500	27.541682	0.000479	20.726646
1844.501061	-3.009400	3.228900	-9.715400	27.574124	0.000480	20.770195
1845.500552	-3.007300	3.226800	-9.702800	27.604308	0.000478	20.747460
1846.500760	-3.002400	3.228000	-9.690100	27.623158	0.000477	20.783022
1847.501421	-3.002600	3.228100	-9.691300	27.629655	0.000478	20.748783
1848.505323	-3.007800	3.227300	-9.706500	27.662393	0.000476	20.772242
1849.503325	-3.016700	3.225700	-9.730000	27.644115	0.000478	20.762384
1850.503872	-3.010500	3.227700	-9.715600	27.653713	0.000476	20.747386
1851.502678	-3.012900	3.225800	-9.718300	27.670676	0.000474	20.760663
1852.504113	-3.009000	3.225900	-9.704900	27.636476	0.000475	20.753749
1853.503560	-2.986200	3.224800	-9.629300	27.618025	0.000473	20.752252
1854.502997	-3.019900	3.222600	-9.729900	27.604062	0.000473	20.753376
1855.505020	-2.978000	3.224900	-9.602800	27.628590	0.000473	20.744392
1856.505653	-2.992300	3.222300	-9.641500	27.658302	0.000472	20.767651
1857.504866	-2.990000	3.222900	-9.635200	27.625589	0.000471	20.744691
1858.508311	-2.993900	3.223300	-9.649600	27.651580	0.000471	20.742869
1859.506644	-2.972500	3.222700	-9.578400	27.680374	0.000471	20.775163
1860.508887	-2.982200	3.221200	-9.605400	27.714845	0.000470	20.760064
1861.506611	-3.001600	3.220400	-9.665300	27.759458	0.000468	20.753277
1862.508288	-3.025400	3.219600	-9.739800	27.773617	0.000467	20.745240
1863.511375	-2.987200	3.220500	-9.619400	27.775181	0.000467	20.749658
1864.507410	-2.986600	3.219100	-9.613700	27.755366	0.000466	20.742520
1865.510548	-2.996400	3.218000	-9.641600	27.755442	0.000465	20.752079
1866.508045	-3.011300	3.218600	-9.691400	27.778726	0.000463	20.747537
1867.507688	-2.980400	3.217200	-9.587900	27.772825	0.000461	20.743020
1868.512260	-2.992800	3.217900	-9.629400	27.766229	0.000461	20.758193
1869.512315	-2.993500	3.218600	-9.634300	27.792266	0.000461	20.747886
1870.509224	-3.035600	3.216200	-9.761800	27.770221	0.000460	20.771220
1871.510841	-3.000400	3.216200	-9.649100	27.725163	0.000460	20.756222
1872.510842	-2.991400	3.216800	-9.621400	27.706067	0.000459	20.771620
1873.508701	-3.006000	3.215900	-9.665900	27.703587	0.000459	20.758692
1874.513998	-3.012300	3.214500	-9.682100	27.721839	0.000459	20.735333
1875.509925	-2.985700	3.213500	-9.593400	27.766824	0.000458	20.782027
1876.511765	-3.010300	3.216400	-9.681400	27.805879	0.000455	20.759690
1877.510644	-2.997800	3.214000	-9.633700	27.834421	0.000455	20.755223
1878.511079	-2.984800	3.214600	-9.593900	27.838611	0.000454	20.757070
1879.512299	-3.008700	3.213000	-9.665500	27.799953	0.000454	20.769373
1880.511674	-2.987900	3.211400	-9.594300	27.740016	0.000453	20.755997
1881.511743	-3.001300	3.213000	-9.641900	27.752341	0.000452	20.741846
1882.513209	-3.022600	3.211500	-9.704600	27.724742	0.000453	20.761962
1883.513770	-2.986200	3.212700	-9.592400	27.694758	0.000449	20.775887
1884.517431	-3.008400	3.210200	-9.656800	27.667354	0.000451	20.757319
1885.514871	-2.982200	3.212700	-9.579600	27.708844	0.000450	20.782001
1886.518472	-2.993800	3.210700	-9.610500	27.723426	0.000451	20.780079
1887.515493	-2.969100	3.209300	-9.526500	27.715292	0.000447	20.779954
1888.516895	-2.980500	3.210000	-9.566400	27.713432	0.000448	20.781876
1889.518876	-3.012100	3.208800	-9.664300	27.739049	0.000446	20.774938
1890.518576	-2.990500	3.208500	-9.594200	27.778899	0.000445	20.784221
1891.517832	-3.012200	3.207900	-9.661900	27.796382	0.000445	20.761986
1892.518880	-3.019100	3.206500	-9.680100	27.804292	0.000445	20.770421
1893.517984	-3.018700	3.207300	-9.680600	27.730642	0.000443	20.766003
1894.517418	-2.987500	3.205900	-9.576300	27.717003	0.000442	20.775512
1895.517898	-3.013400	3.206300	-9.661600	27.699221	0.000442	20.772318
1896.518501	-3.010600	3.206400	-9.652400	27.692948	0.000439	20.784971
1897.522477	-2.993700	3.204700	-9.594000	27.685954	0.000441	20.756596
1898.518903	-2.988100	3.204900	-9.576200	27.742223	0.000438	20.754898
1899.519199	-2.977100	3.206200	-9.543900	27.771536	0.000439	20.766379
1900.519267	-2.993000	3.204100	-9.588700	27.802433	0.000438	20.744367
1901.519624	-2.989200	3.204300	-9.576900	27.817013	0.000438	20.770896
1902.519031	-2.986300	3.203000	-9.563600	27.878582	0.000436	20.774539
1903.519016	-3.014500	3.203400	-9.655700	27.895963	0.000434	20.769748
1904.519276	-2.974300	3.203700	-9.527900	27.951428	0.000434	20.767252
1905.520781	-3.023300	3.200700	-9.675100	27.982916	0.000435	20.777609
1906.523157	-3.001200	3.200700	-9.604400	27.972799	0.000433	20.793031
1907.523614	-2.988200	3.201200	-9.565700	28.001362	0.000431	20.779581
1908.523653	-3.012600	3.199400	-9.637400	27.983585	0.000431	20.769748
1909.523464	-2.996500	3.198600	-9.583900	27.947487	0.000429	20.778932
1910.523066	-2.969800	3.200000	-9.501700	27.939131	0.000429	20.765306
1911.527948	-3.008100	3.199700	-9.624600	27.951850	0.000429	20.795178
1912.524726	-3.006000	3.198000	-9.612200	27.938363	0.000428	20.785396
1913.529068	-2.991600	3.200100	-9.572000	27.894228	0.000427	20.783175
1914.527430	-3.018200	3.196700	-9.647100	27.874467	0.000424	20.780355
1915.526589	-2.996800	3.197400	-9.581300	27.900204	0.000427	20.783973
1916.528368	-2.992200	3.197700	-9.567100	27.922718	0.000426	20.799995
1917.528661	-2.999900	3.195800	-9.586300	27.889915	0.000425	20.770772
1918.526504	-2.986000	3.197200	-9.546400	27.911337	0.000424	20.791860
1919.527221	-3.005200	3.197700	-9.608400	27.927776	0.000422	20.788966
1920.527181	-2.995000	3.195100	-9.567300	27.957554	0.000420	20.796178
1921.529602	-3.012600	3.194300	-9.622100	27.941289	0.000419	20.788341
1922.528499	-2.998400	3.195300	-9.579000	27.977686	0.000420	20.791785
1923.527503	-3.003200	3.193200	-9.588600	28.003074	0.000418	20.786995
1924.527400	-2.986800	3.192500	-9.535000	27.998413	0.000417	20.791786
1925.528125	-2.990200	3.193300	-9.548100	28.007016	0.000417	20.804713
1926.529360	-2.994200	3.194300	-9.562800	27.995735	0.000417	20.799048
1927.530430	-3.009000	3.192400	-9.604700	27.986836	0.000415	20.789616
1928.528472	-3.006800	3.190900	-9.592500	27.929587	0.000413	20.798849
1929.530423	-2.992800	3.191000	-9.548900	27.908017	0.000414	20.795156
1930.529769	-3.008900	3.190900	-9.600100	27.911537	0.000413	20.815769
1931.528107	-2.993400	3.192100	-9.554500	27.947538	0.000412	20.788467
1932.533379	-3.007700	3.190400	-9.593100	27.922249	0.000411	20.790989
1933.528694	-3.001700	3.189500	-9.571800	27.891453	0.000410	20.807408
1934.529020	-3.001400	3.190200	-9.574000	27.876552	0.000410	20.819912
1935.529114	-3.006700	3.189800	-9.589600	27.851608	0.000409	20.805713
1936.528344	-3.009100	3.186900	-9.588900	27.818033	0.000409	20.816967
1937.531794	-3.007500	3.188100	-9.587900	27.827729	0.000408	20.806336
1938.529839	-3.012700	3.187900	-9.603400	27.847368	0.000405	20.798600
1939.532122	-3.006400	3.188000	-9.583200	27.885875	0.000407	20.819812
1940.530865	-3.011300	3.186300	-9.593600	27.896215	0.000404	20.816942
1941.530153	-2.987700	3.187500	-9.522200	27.896314	0.000403	20.800921
1942.531094	-3.008400	3.185600	-9.582100	27.912232	0.000402	20.816942
1943.529850	-3.008300	3.184600	-9.579000	27.956564	0.000400	20.809880
1944.529570	-3.029100	3.183200	-9.641400	27.995465	0.000402	20.825802
1945.529777	-2.987100	3.185500	-9.514000	27.991349	0.000401	20.803168
1946.533082	-3.007500	3.182400	-9.569400	27.955895	0.000399	20.810155
1947.529725	-2.999200	3.183200	-9.545900	27.940325	0.000400	20.820088
1948.533705	-3.008500	3.182700	-9.574100	27.903135	0.000397	20.825329
1949.533932	-3.002600	3.182500	-9.555100	27.868123	0.000397	20.820911
1950.531624	-3.007000	3.181900	-9.567400	27.868867	0.000395	20.842048
1951.534868	-3.027000	3.180100	-9.625100	27.937872	0.000396	20.798179
1952.531655	-2.996300	3.180600	-9.528700	27.911614	0.000395	20.804466
1953.534729	-3.016000	3.179100	-9.587200	27.947294	0.000391	20.838481
1954.532269	-2.993000	3.180200	-9.517500	27.954385	0.000392	20.829023
1955.534919	-3.010700	3.180300	-9.574400	27.998392	0.000391	20.806937
1956.531755	-3.002700	3.178300	-9.541900	28.038407	0.000392	20.827302
1957.533486	-2.998500	3.178900	-9.530100	28.052092	0.000390	20.824482
1958.536324	-2.979600	3.178800	-9.471300	28.062902	0.000391	20.814026
1959.536649	-2.987500	3.177500	-9.491000	28.060100	0.000387	20.819740
1960.536024	-2.993600	3.176000	-9.507000	28.068480	0.000389	20.821064
1961.534768	-2.990100	3.176400	-9.496800	28.057596	0.000387	20.832867
1962.538760	-3.010700	3.176900	-9.563300	28.069595	0.000386	20.834040
1963.544339	-3.002800	3.176300	-9.536800	28.129587	0.000385	20.828051
1964.538141	-3.003300	3.176500	-9.538100	28.130604	0.000385	20.817221
1965.538808	-3.011900	3.174900	-9.560700	28.144908	0.000385	20.823560
1966.542505	-2.974200	3.177600	-9.450000	28.193319	0.000382	20.837209
1967.539790	-3.018600	3.173200	-9.577200	28.227378	0.000382	20.843524
1968.538409	-2.998500	3.173100	-9.513800	28.202542	0.000382	20.829899
1969.541837	-2.988700	3.173100	-9.482300	28.188983	0.000380	20.826206
1970.538136	-3.006900	3.172900	-9.539700	28.174681	0.000380	20.830299
1971.537472	-2.998500	3.172400	-9.510100	28.213945	0.000380	20.843276
1972.537113	-2.996300	3.170300	-9.497400	28.245400	0.000376	20.857874
1973.538573	-3.010800	3.174600	-9.556700	28.290089	0.000376	20.838384
1974.539803	-3.010800	3.171400	-9.548300	28.340478	0.000375	20.830799
1975.542984	-3.036900	3.168300	-9.621200	28.342734	0.000374	20.839708
1976.540442	-2.992200	3.170400	-9.485300	28.331456	0.000375	20.823138
1977.540568	-2.975500	3.171000	-9.433400	28.283695	0.000373	20.842852
1978.539378	-3.002900	3.166900	-9.508100	28.233998	0.000372	20.858249
1979.539857	-2.982700	3.168500	-9.449000	28.226314	0.000371	20.846720
1980.544009	-3.009300	3.168800	-9.534200	28.238089	0.000373	20.843876
1981.543232	-3.006200	3.167800	-9.521900	28.232016	0.000371	20.841555
1982.542964	-2.999300	3.166700	-9.496500	28.184424	0.000369	20.822564
1983.542221	-2.991500	3.167400	-9.474200	28.175847	0.000369	20.862766
1984.542879	-3.005300	3.165500	-9.511800	28.135194	0.000367	20.848393
1985.543195	-3.005700	3.166400	-9.516200	28.136358	0.000367	20.843876
1986.543934	-3.025300	3.165000	-9.573900	28.113403	0.000365	20.836414
1987.545228	-2.998700	3.164400	-9.488200	28.094539	0.000364	20.847770
1988.543676	-3.012300	3.163500	-9.528200	28.130360	0.000363	20.858225
1989.545656	-3.029500	3.164000	-9.583900	28.081722	0.000364	20.833446
1990.546950	-3.008600	3.163100	-9.515200	28.098257	0.000362	20.861944
1991.548769	-2.997200	3.162500	-9.477500	28.106661	0.000360	20.849067
1992.547718	-3.005000	3.161600	-9.499900	28.153043	0.000359	20.851663
1993.548797	-3.027200	3.160100	-9.565200	28.162983	0.000361	20.853135
1994.548134	-3.010700	3.159800	-9.512900	28.173220	0.000360	20.856803
1995.546839	-3.016200	3.159700	-9.529200	28.184524	0.000357	20.840683
1996.551305	-3.005700	3.159700	-9.496500	28.190820	0.000357	20.848444
1997.547844	-3.017600	3.157300	-9.525400	28.176815	0.000358	20.876542
1998.548230	-2.980700	3.160800	-9.421100	28.179517	0.000358	20.851289
1999.548363	-2.998600	3.157500	-9.467700	28.215459	0.000354	20.866610
2000.548235	-2.993800	3.160900	-9.461200	28.187920	0.000353	20.875394
2001.550728	-3.002800	3.156900	-9.478200	28.212559	0.000352	20.851364
2002.548697	-3.013700	3.156200	-9.510900	28.192679	0.000353	20.854108
2003.550710	-3.014300	3.154600	-9.507600	28.140698	0.000352	20.849192
2004.549577	-2.976400	3.155900	-9.391200	28.098258	0.000352	20.862419
2005.553056	-2.988000	3.155900	-9.428600	28.118090	0.000353	20.856778
2006.551574	-3.011800	3.154900	-9.501200	28.130980	0.000349	20.877340
2007.553809	-2.998900	3.153800	-9.456300	28.154356	0.000350	20.871476
2008.551174	-2.981400	3.153900	-9.401400	28.151084	0.000349	20.865812
2009.551133	-2.988500	3.152300	-9.419400	28.128130	0.000346	20.879686
2010.550933	-2.998500	3.152800	-9.452700	28.125651	0.000346	20.873398
2011.551157	-2.982000	3.151300	-9.396000	28.158298	0.000345	20.883504
2012.553325	-3.005600	3.150300	-9.466900	28.196622	0.000347	20.877042
2013.551670	-3.000400	3.152700	-9.457600	28.253459	0.000344	20.869780
2014.553845	-3.010400	3.149500	-9.480600	28.261093	0.000343	20.886000
2015.551908	-3.002700	3.150500	-9.459600	28.325239	0.000343	20.874247
2016.551744	-2.996900	3.148700	-9.435500	28.347817	0.000343	20.874222
2017.555816	-2.991700	3.149500	-9.421700	28.324247	0.000341	20.874197
2018.553104	-3.010300	3.148000	-9.475600	28.286301	0.000339	20.872027
2019.556264	-3.007600	3.147600	-9.466300	28.229490	0.000340	20.873149
2020.553194	-2.990600	3.148000	-9.413300	28.231053	0.000340	20.877093
2021.553759	-3.006200	3.146200	-9.457000	28.218089	0.000338	20.873051
2022.554738	-3.034300	3.143500	-9.537400	28.209438	0.000337	20.884729
2023.558045	-3.039400	3.143200	-9.551700	28.195582	0.000337	20.882158
2024.556772	-2.996400	3.144600	-9.420800	28.197640	0.000336	20.889446
2025.559176	-3.001000	3.144100	-9.434100	28.211769	0.000334	20.905566
2026.555105	-2.992500	3.144000	-9.406800	28.268928	0.000335	20.895785
2027.554760	-2.983700	3.144900	-9.382900	28.300134	0.000333	20.876471
2028.559797	-3.023700	3.141300	-9.498100	28.334288	0.000331	20.863919
2029.555653	-2.991000	3.142300	-9.397800	28.346061	0.000330	20.887151
2030.557547	-2.988800	3.142700	-9.392100	28.336196	0.000331	20.884332
2031.555978	-3.016600	3.139500	-9.470100	28.310520	0.000328	20.899255
2032.555808	-3.000100	3.140600	-9.421500	28.263527	0.000327	20.892243
2033.557558	-3.015700	3.139800	-9.468000	28.234055	0.000327	20.893865
2034.556584	-3.004100	3.137600	-9.423800	28.220968	0.000329	20.914352
2035.556390	-3.009000	3.138400	-9.441400	28.246474	0.000326	20.888351
2036.555661	-2.990100	3.138600	-9.382800	28.281894	0.000325	20.899356
2037.557031	-2.994600	3.136900	-9.392100	28.328045	0.000326	20.907890
2038.556077	-3.003200	3.137100	-9.420500	28.369409	0.000323	20.902600
2039.557843	-3.023800	3.134300	-9.476500	28.445395	0.000325	20.896138
2040.556287	-2.975200	3.135800	-9.329000	28.444677	0.000322	20.889726
2041.555942	-2.994400	3.136400	-9.390800	28.403537	0.000321	20.925582
2042.556795	-3.002700	3.135000	-9.412500	28.374393	0.000321	20.910937
2043.556277	-3.008900	3.133000	-9.426200	28.388546	0.000319	20.898162
2044.559704	-3.000800	3.132700	-9.400300	28.344307	0.000318	20.910039
2045.557918	-3.023500	3.131300	-9.466100	28.345372	0.000319	20.924386
2046.559012	-2.977800	3.133500	-9.329900	28.348792	0.000320	20.883264
2047.555200	-3.045300	3.130200	-9.530400	28.383986	0.000317	20.917276
2048.572237	-3.065700	3.128400	-9.589300	28.442350	0.000317	20.885486
2049.557200	-3.006900	3.129100	-9.408000	28.496523	0.000316	20.913484
2050.562199	-3.010700	3.128500	-9.417300	28.544547	0.000316	20.917277
2051.559042	-2.996600	3.129600	-9.376200	28.560753	0.000314	20.914632
2052.559733	-3.004700	3.128100	-9.398300	28.551287	0.000315	20.905100
2053.559281	-3.013700	3.127600	-9.424300	28.532133	0.000311	20.913784
2054.559425	-2.997200	3.128300	-9.374300	28.525863	0.000310	20.927857
2055.562622	-3.001000	3.126300	-9.380900	28.551461	0.000311	20.916654
2056.558723	-2.996100	3.126100	-9.364400	28.556789	0.000310	20.913011
2057.563572	-3.002000	3.124800	-9.379700	28.579486	0.000309	20.917851
2058.560624	-3.020300	3.123900	-9.433900	28.597997	0.000309	20.921321
2059.560047	-2.999600	3.122700	-9.365300	28.597353	0.000305	20.929680
2060.562113	-3.015200	3.121400	-9.410800	28.594552	0.000306	20.935394
2061.561197	-3.006000	3.121800	-9.383400	28.546135	0.000305	20.937366
2062.561971	-3.026600	3.120400	-9.442700	28.500639	0.000304	20.932326
2063.560809	-3.004200	3.121000	-9.374500	28.500688	0.000304	20.920048
2064.561074	-3.017600	3.120500	-9.414900	28.495087	0.000304	20.945700
2065.565099	-2.998200	3.119000	-9.350000	28.482573	0.000303	20.924565
2066.562907	-2.972300	3.119700	-9.272200	28.473578	0.000302	20.922620
2067.561092	-2.987600	3.117800	-9.314400	28.466367	0.000303	20.936693
2068.560926	-2.980600	3.117300	-9.290500	28.524081	0.000299	20.902831
2069.561296	-3.009800	3.115600	-9.376000	28.533101	0.000299	20.912863
2070.561736	-2.985600	3.118100	-9.307500	28.524528	0.000299	20.904704
2071.564781	-2.968100	3.116500	-9.249100	28.507925	0.000297	20.917854
2072.561828	-3.023500	3.113900	-9.413800	28.528616	0.000298	20.927785
2073.565673	-2.997800	3.113900	-9.334000	28.547152	0.000297	20.916581
2074.563897	-3.013500	3.114100	-9.382400	28.558403	0.000297	20.915584
2075.564698	-3.005600	3.112400	-9.354000	28.566852	0.000296	20.912714
2076.567180	-2.983100	3.112400	-9.284600	28.581793	0.000294	20.907847
2077.568078	-2.991500	3.113000	-9.310800	28.622926	0.000295	20.916556
2078.566196	-3.011700	3.110800	-9.367400	28.626296	0.000294	20.909994
2079.567378	-3.010900	3.109300	-9.359500	28.663734	0.000293	20.898390
2080.567722	-2.980100	3.111300	-9.271200	28.689625	0.000293	20.898864
2081.568726	-3.011500	3.109500	-9.362400	28.684869	0.000292	20.895497
2082.570466	-2.970500	3.109500	-9.235600	28.715889	0.000292	20.903981
2083.567794	-3.006400	3.107700	-9.341100	28.703945	0.000290	20.886262
2084.571111	-2.989200	3.106900	-9.286200	28.688833	0.000289	20.901385
2085.567641	-2.990400	3.105600	-9.286300	28.632688	0.000288	20.896519
2086.568185	-2.992200	3.105900	-9.292100	28.590838	0.000288	20.903681
2087.570624	-2.995900	3.105500	-9.302200	28.562863	0.000287	20.901111
2088.568148	-2.994900	3.103500	-9.293800	28.598692	0.000287	20.888359
2089.568159	-3.011400	3.104100	-9.346600	28.623966	0.000285	20.890106
2090.567070	-3.007400	3.103600	-9.330900	28.666533	0.000286	20.910218
2091.568078	-2.970300	3.103600	-9.217700	28.701245	0.000281	20.878327
2092.567893	-3.022500	3.102000	-9.374000	28.685339	0.000283	20.904504
2093.570764	-2.995000	3.102500	-9.290500	28.726318	0.000282	20.870392
2094.569104	-2.999400	3.100600	-9.299200	28.758775	0.000282	20.897393
2095.568703	-2.989300	3.100700	-9.267400	28.767248	0.000280	20.901660
2096.569125	-3.023800	3.099000	-9.369500	28.728077	0.000279	20.902981
2097.569568	-2.985300	3.099200	-9.250900	28.749334	0.000280	20.870816
2098.571037	-2.980600	3.097900	-9.233700	28.700056	0.000278	20.893250
2099.569247	-2.991800	3.095900	-9.261200	28.670300	0.000276	20.864704
2100.571445	-2.992300	3.096800	-9.266000	28.625032	0.000276	20.880749
2101.569686	-2.990900	3.096300	-9.260000	28.612420	0.000277	20.862358
2102.570848	-2.996300	3.095000	-9.271800	28.619011	0.000276	20.872789
2103.570714	-3.002700	3.094400	-9.291300	28.615616	0.000275	20.866998
2104.572723	-3.003100	3.091400	-9.282400	28.613435	0.000273	20.873811
2105.571969	-3.009900	3.092600	-9.307100	28.610463	0.000272	20.861335
2106.571297	-3.020500	3.092200	-9.338000	28.628550	0.000272	20.885240
2107.571648	-2.989300	3.090900	-9.238300	28.645771	0.000272	20.859438
2108.572716	-3.010600	3.090700	-9.304200	28.688808	0.000272	20.864853
2109.575617	-2.986200	3.090600	-9.228500	28.736006	0.000270	20.875883
2110.573844	-3.001900	3.088400	-9.270600	28.797421	0.000271	20.873261
2111.577418	-2.965200	3.088600	-9.157200	28.822915	0.000271	20.873812
2112.573301	-3.010700	3.086800	-9.292400	28.786075	0.000269	20.871316
2113.574209	-2.989900	3.087600	-9.230500	28.731274	0.000269	20.878702
2114.579269	-3.001200	3.086600	-9.262400	28.660389	0.000268	20.877953
2115.573966	-2.988200	3.086900	-9.223400	28.661330	0.000267	20.869419
2116.574052	-2.975500	3.086800	-9.183100	28.704640	0.000266	20.876057
2117.573274	-2.991300	3.083800	-9.223200	28.734148	0.000266	20.877804
2118.574862	-3.006900	3.081300	-9.264000	28.738731	0.000265	20.856818
2119.574616	-2.999900	3.081000	-9.241300	28.728177	0.000264	20.857093
2120.578001	-2.985700	3.082000	-9.200900	28.761747	0.000265	20.865776
2121.575172	-3.002900	3.081600	-9.252200	28.810528	0.000265	20.868921
2122.576558	-2.999700	3.078600	-9.232300	28.839983	0.000264	20.861609
2123.576085	-2.988700	3.079500	-9.202900	28.801114	0.000264	20.862283
2124.575807	-2.979700	3.079000	-9.172900	28.816746	0.000263	20.877081
2125.578349	-3.006300	3.077100	-9.248700	28.801486	0.000263	20.871667
2126.575242	-3.004700	3.078300	-9.247600	28.746313	0.000259	20.868248
2127.579459	-3.001000	3.076000	-9.230700	28.679964	0.000261	20.868747
2128.576072	-3.012200	3.074500	-9.259800	28.629790	0.000259	20.859938
2129.576810	-2.993200	3.073900	-9.200300	28.571263	0.000259	20.859313
2130.578585	-3.007400	3.074500	-9.245300	28.552184	0.000258	20.851953
2131.576432	-3.010000	3.071700	-9.244800	28.596166	0.000258	20.857842
2132.579800	-2.997500	3.072300	-9.208000	28.670474	0.000260	20.870094
2133.576828	-3.010700	3.070700	-9.243700	28.701643	0.000259	20.872091
2134.576382	-2.996500	3.070900	-9.200200	28.726940	0.000257	20.858217
2135.580914	-2.993700	3.069600	-9.189200	28.810454	0.000254	20.841347
2136.575196	-2.985600	3.068200	-9.158600	28.827547	0.000255	20.847660
2137.577185	-2.998500	3.066400	-9.194400	28.849323	0.000255	20.862483
2138.576261	-2.981000	3.067400	-9.142900	28.799900	0.000253	20.849682
2139.582958	-2.999700	3.066400	-9.197800	28.804483	0.000254	20.845764
2140.582924	-3.011400	3.064600	-9.227500	28.823534	0.000250	20.844092
2141.580666	-3.014900	3.063300	-9.235100	28.845433	0.000254	20.867099
2142.581519	-3.021200	3.063700	-9.254600	28.792641	0.000252	20.860861
2143.579884	-3.009800	3.061300	-9.211900	28.773813	0.000249	20.854223
2144.579840	-2.987100	3.061900	-9.145200	28.766454	0.000252	20.852501
2145.581346	-2.986900	3.061800	-9.144400	28.786645	0.000250	20.866200
2146.581410	-2.996300	3.059500	-9.165500	28.800296	0.000249	20.859562
2147.579922	-3.000500	3.060200	-9.181300	28.869411	0.000249	20.855693
2148.579941	-3.009900	3.056200	-9.197100	28.819445	0.000247	20.831913
2149.581671	-3.007400	3.057400	-9.193400	28.794794	0.000248	20.832211
2150.583426	-2.977500	3.057500	-9.103400	28.775868	0.000247	20.849181
2151.582098	-2.987400	3.055200	-9.126300	28.770316	0.000247	20.853546
2152.581991	-3.007600	3.053500	-9.182300	28.753322	0.000245	20.833109
2153.581902	-3.016500	3.052400	-9.206200	28.737986	0.000248	20.827619
2154.583752	-3.001800	3.052800	-9.162500	28.741232	0.000247	20.829940
2155.584356	-3.010100	3.052000	-9.186600	28.756815	0.000243	20.847532
2156.582661	-3.009800	3.050700	-9.180100	28.788798	0.000244	20.840869
2157.583654	-2.987800	3.050800	-9.114200	28.830095	0.000244	20.838374
2158.582622	-3.010300	3.048400	-9.175600	28.864108	0.000243	20.832808
2159.584185	-2.996100	3.048700	-9.132400	28.893240	0.000243	20.841294
2160.587621	-2.984700	3.047300	-9.094900	28.915212	0.000243	20.847781
2161.584004	-2.963400	3.045300	-9.022500	28.919943	0.000242	20.841169
2162.586451	-3.014700	3.045000	-9.177800	28.942906	0.000242	20.842965
2163.583590	-3.015900	3.043400	-9.177900	28.954671	0.000243	20.860982
2164.585016	-3.005800	3.043700	-9.148200	28.967627	0.000243	20.836577
2165.585516	-3.001000	3.041900	-9.127400	28.985956	0.000240	20.846509
2166.585119	-2.996400	3.040100	-9.107800	28.949643	0.000241	20.845486
2167.583986	-3.013400	3.040000	-9.159200	28.903397	0.000242	20.840146
2168.586401	-2.976900	3.039400	-9.047300	28.872012	0.000242	20.833658
2169.586621	-3.007000	3.037800	-9.134400	28.840550	0.000240	20.845586
2170.586049	-2.976300	3.037600	-9.039300	28.851995	0.000239	20.838624
2171.590157	-2.995300	3.036600	-9.093300	28.896536	0.000239	20.838924
2172.587306	-2.990500	3.034800	-9.074600	28.878602	0.000239	20.845038
2173.586868	-2.983000	3.033900	-9.048900	28.884571	0.000239	20.839672
2174.587701	-2.990600	3.032900	-9.069300	28.895049	0.000237	20.836478
2175.588019	-2.993400	3.031700	-9.074000	28.958042	0.000238	20.838301
2176.590117	-2.976300	3.031300	-9.021700	28.994725	0.000236	20.830214
2177.593348	-2.994500	3.029400	-9.069500	29.034405	0.000234	20.843640
2178.590015	-3.011900	3.028200	-9.118000	29.056127	0.000236	20.833758
2179.589957	-3.005400	3.026800	-9.095500	29.050876	0.000235	20.828942
2180.589066	-2.978100	3.026300	-9.010600	29.044436	0.000234	20.825299
2181.592813	-2.991200	3.025100	-9.047700	29.048746	0.000236	20.811149
2182.591752	-2.999200	3.024200	-9.070000	29.082033	0.000235	20.834257
2183.589878	-3.006400	3.022100	-9.084600	29.096869	0.000233	20.821706
2184.590659	-2.998000	3.021600	-9.057600	29.106826	0.000234	20.837901
2185.591928	-3.003800	3.019900	-9.069600	29.107419	0.000232	20.820956
2186.596438	-3.016500	3.018800	-9.104900	29.088919	0.000232	20.832187
2187.593129	-3.004100	3.017900	-9.065400	29.048300	0.000231	20.832985
2188.591577	-2.988400	3.017100	-9.014500	29.043793	0.000234	20.842194
2189.593271	-3.010700	3.016300	-9.079900	29.002975	0.000231	20.848482
2190.591947	-2.991200	3.014200	-9.015100	28.999259	0.000232	20.824351
2191.591953	-2.996700	3.013400	-9.029400	28.968719	0.000232	20.841945
2192.596957	-2.987700	3.012800	-8.999000	28.939663	0.000232	20.830215
2193.592665	-2.985200	3.010700	-8.986500	28.895323	0.000230	20.833909
2194.592503	-2.990300	3.009700	-8.998800	28.828958	0.000234	20.847185
2195.593340	-2.992900	3.007700	-9.000800	28.814665	0.000230	20.847959
2196.593112	-2.992900	3.007100	-8.998800	28.758204	0.000231	20.827121
2197.594869	-3.029600	3.005700	-9.104900	28.730184	0.000230	20.822605
2198.599561	-3.011600	3.005100	-9.049500	28.720100	0.000232	20.846113
2199.594994	-3.020400	3.003700	-9.071500	28.763927	0.000231	20.821032
2200.594606	-2.988700	3.002400	-8.972100	28.808892	0.000231	20.816541
2201.594310	-2.979700	3.002000	-8.944300	28.870527	0.000230	20.823628
2202.595490	-2.982100	3.001800	-8.951000	28.950314	0.000228	20.821507
2203.599027	-3.017400	2.997800	-9.044500	28.994974	0.000228	20.830465
2204.595897	-2.995300	2.998400	-8.980100	29.048697	0.000227	20.822954
2205.598309	-2.988500	2.997300	-8.956600	29.090208	0.000228	20.813571
2206.595386	-3.000500	2.996300	-8.988200	29.105267	0.000228	20.825900
2207.596144	-2.990900	2.995200	-8.957700	29.078443	0.000227	20.823054
2208.598557	-3.005700	2.993200	-8.996400	29.064252	0.000229	20.825825
2209.599171	-2.981800	2.992400	-8.922500	29.096674	0.000228	20.825776
2210.600740	-2.982100	2.989900	-8.915100	29.110295	0.000227	20.815794
2211.600051	-3.018200	2.989300	-9.021400	29.124783	0.000226	20.832763
2212.600003	-2.981200	2.987600	-8.905400	29.168817	0.000226	20.835883
2213.599947	-3.001700	2.987200	-8.965400	29.175702	0.000227	20.821959
2214.601912	-3.009200	2.986700	-8.986900	29.211314	0.000226	20.798102
2215.599787	-3.010400	2.983300	-8.980600	29.217133	0.000224	20.821509
2216.601074	-2.994200	2.983300	-8.931500	29.220403	0.000225	20.821011
2217.599699	-3.027500	2.979100	-9.018400	29.204084	0.000226	20.823532
2218.600692	-3.027400	2.980000	-9.020200	29.127807	0.000226	20.813051
2219.604104	-2.982300	2.979000	-8.882900	29.062794	0.000225	20.822933
2220.601945	-2.995200	2.978000	-8.918600	29.003821	0.000223	20.838905
2221.605205	-2.989100	2.974800	-8.890600	28.978458	0.000223	20.819041
2222.603669	-3.005900	2.973400	-8.935800	29.001965	0.000227	20.832767
2223.603308	-2.967800	2.973000	-8.822100	29.001197	0.000223	20.811131
2224.605731	-2.984900	2.972400	-8.871500	29.008800	0.000224	20.805041
2225.604866	-2.983300	2.970600	-8.860700	29.076740	0.000222	20.819441
2226.603876	-2.971900	2.969700	-8.824700	29.088009	0.000225	20.796657
2227.603651	-2.992200	2.967200	-8.876400	29.124713	0.000225	20.810881
2228.602641	-3.015800	2.965300	-8.940600	29.181748	0.000227	20.818093
2229.608575	-2.960900	2.965300	-8.778600	29.188509	0.000223	20.818743
2230.606300	-2.984900	2.963200	-8.843700	29.128478	0.000225	20.821787
2231.604755	-2.996700	2.961500	-8.874200	29.080926	0.000226	20.821762
2232.610449	-2.981700	2.960500	-8.825200	29.044593	0.000222	20.816448
2233.605987	-2.986200	2.959200	-8.835800	29.027502	0.000224	20.807763
2234.605182	-3.030800	2.956200	-8.958300	29.033522	0.000223	20.799604
2235.608887	-2.984600	2.957200	-8.825200	28.997583	0.000224	20.833568
2236.607272	-2.933200	2.955300	-8.667600	29.021485	0.000223	20.805019
2237.607526	-2.981200	2.952500	-8.801100	29.036693	0.000223	20.817497
2238.607542	-2.993600	2.950900	-8.832800	28.986834	0.000221	20.820368
2239.607605	-3.013300	2.948000	-8.881600	29.008731	0.000223	20.827256
2240.606098	-3.013000	2.947800	-8.881200	29.040954	0.000224	20.829377
2241.610308	-2.980800	2.947900	-8.785500	29.078330	0.000223	20.804448
2242.606417	-3.003900	2.945200	-8.846300	29.076151	0.000221	20.808890
2243.607950	-3.008200	2.943300	-8.853800	29.049501	0.000218	20.820445
2244.607948	-3.013700	2.941000	-8.862100	29.033922	0.000220	20.800955
2245.609080	-2.990700	2.940300	-8.792700	29.033996	0.000224	20.819048
2246.610617	-3.023700	2.936300	-8.877500	29.097501	0.000221	20.807170
2247.609463	-2.976800	2.937500	-8.743800	29.119865	0.000221	20.835868
2248.612282	-2.980300	2.937200	-8.752900	29.106195	0.000221	20.818300
2249.610218	-2.959900	2.935200	-8.685600	29.101910	0.000221	20.827259
2250.610675	-2.969000	2.932300	-8.705600	29.136534	0.000221	20.797663
2251.612001	-3.015600	2.929100	-8.832200	29.167988	0.000221	20.804702
2252.611464	-3.006800	2.928700	-8.805500	29.146664	0.000220	20.820672
2253.610546	-3.008200	2.927100	-8.804100	29.134454	0.000220	20.794619
2254.609266	-3.012600	2.926400	-8.815200	29.064167	0.000217	20.822420
2255.609518	-2.996200	2.924400	-8.761200	29.032019	0.000220	20.827486
2256.610259	-3.020500	2.923300	-8.827800	29.050843	0.000221	20.790503
2257.613424	-3.001500	2.921700	-8.767300	29.053245	0.000221	20.813786
2258.612903	-3.044700	2.918000	-8.882800	29.092749	0.000220	20.809020
2259.609771	-3.004800	2.918500	-8.768800	29.119325	0.000220	20.800711
2260.612658	-3.007200	2.915400	-8.764800	29.122717	0.000220	20.797017
2261.609897	-2.995400	2.914800	-8.729600	29.081258	0.000219	20.809295
2262.611601	-3.013100	2.910900	-8.770300	29.048936	0.000219	20.803755
2263.609766	-3.006100	2.910500	-8.748700	29.030336	0.000219	20.805877
2264.609597	-3.007100	2.907500	-8.741000	29.091562	0.000220	20.803082
2265.618007	-2.972200	2.909300	-8.645800	29.139261	0.000220	20.802307
2266.610931	-3.026600	2.903900	-8.787300	29.209619	0.000218	20.784066
2267.613483	-2.993100	2.905300	-8.695400	29.257463	0.000220	20.800986
2268.615763	-2.998700	2.902100	-8.701600	29.299931	0.000217	20.782145
2269.614547	-2.977500	2.902900	-8.643000	29.329346	0.000217	20.780022
2270.611305	-2.994900	2.897600	-8.676400	29.330907	0.000217	20.787759
2271.611933	-2.976900	2.896700	-8.622200	29.367776	0.000220	20.789830
2272.613701	-2.988700	2.894400	-8.649500	29.388426	0.000217	20.783142
2273.614612	-3.010900	2.891500	-8.704400	29.420490	0.000218	20.785588
2274.612217	-3.008100	2.889500	-8.689800	29.411874	0.000218	20.811043
2275.612350	-2.970500	2.889000	-8.580200	29.413161	0.000217	20.795271
2276.623022	-3.004500	2.885800	-8.669600	29.376319	0.000216	20.819304
2277.612055	-2.976000	2.886300	-8.588300	29.376568	0.000218	20.802485
2278.615713	-3.039000	2.881100	-8.754200	29.342645	0.000219	20.792952
2279.612876	-2.987700	2.881500	-8.608000	29.343065	0.000219	20.788633
2280.616306	-3.004200	2.879000	-8.647000	29.349281	0.000216	20.784467
2281.612630	-3.010000	2.876400	-8.657400	29.300254	0.000217	20.785315
2282.613768	-2.985500	2.875800	-8.584100	29.270663	0.000216	20.784417
2283.618309	-3.027000	2.873800	-8.698400	29.228170	0.000218	20.791854
2284.614884	-3.006900	2.873500	-8.638800	29.158061	0.000219	20.770991
2285.614085	-3.026300	2.870000	-8.684600	29.160661	0.000217	20.776456
2286.614830	-3.013400	2.868700	-8.644300	29.193326	0.000217	20.807950
2287.622715	-3.030700	2.864800	-8.680900	29.245083	0.000219	20.787562
2288.613825	-3.018900	2.864600	-8.646200	29.264918	0.000217	20.779576
2289.617184	-3.020800	2.860200	-8.639000	29.284555	0.000217	20.784193
2290.614762	-2.996500	2.861200	-8.570800	29.312784	0.000218	20.793202
2291.616163	-2.999600	2.857500	-8.571000	29.361142	0.000216	20.764652
2292.615432	-3.013600	2.855700	-8.605000	29.350817	0.000218	20.769893
2293.615891	-2.982400	2.854000	-8.510800	29.281385	0.000215	20.762505
2294.617337	-2.989600	2.852000	-8.525800	29.280568	0.000215	20.801985
2295.615714	-2.999600	2.849200	-8.545900	29.281805	0.000218	20.780473
2296.615099	-2.993700	2.847800	-8.523900	29.353564	0.000215	20.783093
2297.624520	-2.984600	2.846200	-8.493000	29.372779	0.000218	20.764527
2298.616086	-3.017100	2.842200	-8.573600	29.361316	0.000217	20.779526
2299.621870	-2.981800	2.841300	-8.469100	29.352203	0.000219	20.797843
2300.618193	-3.014700	2.838400	-8.555100	29.355199	0.000214	20.781422
2301.615144	-2.969800	2.838300	-8.427900	29.385803	0.000216	20.770541
2302.616176	-3.023200	2.834300	-8.567600	29.408706	0.000216	20.788884
2303.616917	-3.016900	2.833500	-8.547000	29.454981	0.000215	20.784792
2304.615780	-2.996600	2.831900	-8.484800	29.500040	0.000216	20.769993
2305.616449	-3.003200	2.828600	-8.493900	29.548910	0.000218	20.792228
2306.616374	-3.007600	2.827100	-8.501300	29.564927	0.000218	20.781822
2307.622370	-3.021400	2.824100	-8.531400	29.602185	0.000218	20.778130
2308.618769	-3.016400	2.821500	-8.509500	29.573642	0.000216	20.771166
2309.616015	-3.006700	2.819900	-8.477300	29.534577	0.000216	20.776831
2310.619693	-2.984300	2.817900	-8.407700	29.552179	0.000215	20.771341
2311.617856	-3.027800	2.812900	-8.515800	29.554555	0.000215	20.772315
2312.618260	-2.989000	2.813700	-8.409100	29.532522	0.000216	20.771916
2313.619777	-3.009400	2.811000	-8.458300	29.477338	0.000217	20.768446
2314.620253	-3.000700	2.809000	-8.427900	29.433714	0.000215	20.782796
2315.622886	-2.992200	2.805400	-8.393900	29.464960	0.000214	20.781574
2316.625992	-2.985000	2.803200	-8.366900	29.482613	0.000216	20.763332
2317.622563	-3.000400	2.800000	-8.399800	29.531508	0.000215	20.784644
2318.622344	-3.010700	2.797600	-8.421100	29.579734	0.000215	20.780152
2319.622960	-2.980800	2.795700	-8.332000	29.591641	0.000217	20.788837
2320.624599	-2.969100	2.793900	-8.293700	29.599388	0.000216	20.772939
2321.632878	-2.987900	2.790900	-8.337600	29.638279	0.000216	20.804559
2322.623198	-3.014000	2.786200	-8.396500	29.662266	0.000216	20.794602
2323.628767	-3.006400	2.785800	-8.374300	29.684024	0.000217	20.767700
2324.625602	-3.013500	2.781600	-8.380900	29.651176	0.000215	20.780103
2325.625334	-2.987800	2.780600	-8.307500	29.646349	0.000214	20.785668
2326.627916	-2.988900	2.777400	-8.299000	29.603895	0.000217	20.763732
2327.626144	-2.990900	2.775000	-8.298600	29.601569	0.000214	20.757594
2328.630639	-2.989300	2.771000	-8.282500	29.582260	0.000216	20.753775
2329.625196	-2.996000	2.768100	-8.291100	29.559014	0.000216	20.778232
2330.627112	-2.985600	2.766700	-8.258700	29.500414	0.000216	20.774638
2331.635414	-3.024700	2.762200	-8.353600	29.443843	0.000214	20.771194
2332.628718	-2.995800	2.760300	-8.268400	29.433246	0.000214	20.774263
2333.628138	-3.010100	2.757100	-8.298100	29.412844	0.000214	20.798745
2334.631141	-3.002300	2.754600	-8.269100	29.406927	0.000214	20.776659
2335.629282	-2.997400	2.751900	-8.247300	29.418291	0.000215	20.772940
2336.628669	-3.027100	2.747500	-8.316300	29.408363	0.000214	20.774788
2337.632241	-2.991300	2.745600	-8.211300	29.397964	0.000216	20.781850
2338.630292	-2.992400	2.741200	-8.201700	29.377314	0.000215	20.782848
2339.632101	-2.982700	2.739200	-8.169700	29.419331	0.000214	20.776833
2340.634107	-3.025800	2.734400	-8.273200	29.451393	0.000214	20.757941
2341.633405	-3.001800	2.731900	-8.199400	29.498904	0.000217	20.763158
2342.636844	-2.993000	2.728900	-8.166600	29.562850	0.000212	20.783522
2343.639564	-3.030200	2.725500	-8.257600	29.612807	0.000213	20.775561
2344.636120	-2.956800	2.724000	-8.053600	29.661299	0.000216	20.811646
2345.635532	-3.002400	2.718900	-8.162800	29.681770	0.000213	20.783920
2346.636141	-2.995000	2.716200	-8.134500	29.692042	0.000214	20.789534
2347.638496	-3.011900	2.712800	-8.168100	29.683700	0.000214	20.793927
2348.636727	-2.989800	2.709100	-8.098000	29.734963	0.000214	20.759787
2349.640306	-2.983300	2.707300	-8.076200	29.748873	0.000214	20.779028
2350.637495	-3.000200	2.702800	-8.107700	29.748402	0.000214	20.788436
2351.638804	-3.005200	2.698800	-8.108700	29.728775	0.000216	20.780575
2352.637689	-2.978700	2.696000	-8.029400	29.708775	0.000214	20.771317
2353.643248	-2.998600	2.692400	-8.071300	29.660433	0.000213	20.794651
2354.639582	-3.032200	2.686300	-8.144900	29.668625	0.000216	20.780624
2355.640457	-2.985000	2.685200	-8.014800	29.692784	0.000213	20.782222
2356.646614	-3.015600	2.679500	-8.079200	29.687981	0.000214	20.791130
2357.639624	-3.009800	2.676000	-8.053500	29.748426	0.000213	20.780474
2358.641519	-3.018100	2.670300	-8.058000	29.807457	0.000214	20.777880
2359.640656	-3.013900	2.668100	-8.040000	29.855175	0.000216	20.786640
2360.644096	-2.997400	2.663700	-7.983400	29.863193	0.000216	20.797569
2361.640271	-3.002400	2.660400	-7.986400	29.901949	0.000213	20.807252
2362.640773	-3.015600	2.656600	-8.010500	29.916526	0.000214	20.775010
2363.642421	-2.983900	2.651300	-7.910400	29.864827	0.000214	20.784992
2364.643091	-2.990600	2.648200	-7.918900	29.854407	0.000213	20.784443
2365.639501	-3.003400	2.642900	-7.937000	29.763748	0.000215	20.775060
2366.640123	-2.997700	2.639100	-7.909500	29.745210	0.000213	20.782447
2367.639594	-2.982900	2.634600	-7.858000	29.773772	0.000215	20.780425
2368.640297	-2.972300	2.631500	-7.820900	29.819759	0.000214	20.786965
2369.644567	-3.007600	2.625400	-7.896100	29.873465	0.000212	20.774737
2370.642405	-2.992400	2.621600	-7.844000	29.934617	0.000214	20.800366
2371.645534	-3.012800	2.615200	-7.878200	29.991882	0.000212	20.787465
2372.641694	-2.973500	2.612200	-7.765600	30.038354	0.000215	20.792607
2373.642324	-2.986300	2.605700	-7.779900	30.036003	0.000214	20.795926
2374.646884	-3.021700	2.600400	-7.855600	30.034644	0.000213	20.798822
2375.645113	-2.996700	2.595000	-7.774300	30.055379	0.000211	20.794129
2376.643637	-2.989400	2.589100	-7.739100	30.077723	0.000214	20.809552
2377.643373	-2.977900	2.586000	-7.699400	30.130772	0.000214	20.794778
2378.644969	-3.001700	2.578700	-7.739600	30.179836	0.000214	20.794005
2379.646330	-3.008100	2.573500	-7.739600	30.206581	0.000214	20.805809
2380.646348	-3.007800	2.568400	-7.722600	30.227116	0.000215	20.804712
2381.644565	-2.984500	2.565100	-7.654300	30.225039	0.000216	20.806883
2382.644070	-2.989000	2.557300	-7.642600	30.206286	0.000214	20.813097
2383.653792	-2.985500	2.552200	-7.617700	30.177833	0.000213	20.817589
2384.645658	-2.979600	2.545600	-7.584200	30.189907	0.000215	20.780930
2385.647369	-2.964700	2.538700	-7.525600	30.148811	0.000213	20.800644
2386.650799	-2.992100	2.531900	-7.574900	30.054663	0.000214	20.800045
2387.645682	-2.994600	2.527100	-7.566300	29.978225	0.000214	20.800719
2388.644349	-3.001800	2.520300	-7.564000	29.893467	0.000213	20.808656
2389.645985	-3.043000	2.511800	-7.642600	29.861393	0.000216	20.809978
2390.647185	-2.966900	2.508500	-7.441600	29.845307	0.000213	20.812724
2391.646114	-2.993800	2.499600	-7.482000	29.876391	0.000213	20.766307
