LabVIEW Measurement	
Writer_Version	2
Reader_Version	2
Separator	Tab
Decimal_Separator	.
Multi_Headings	No
X_Columns	One
Time_Pref	Absolute
Operator	admin
Description	Clolumns are: time, Current, Voltage, Power, Battery Temp, and Chamber Temp
Date	2024/08/16
Time	13:06:06.104549407958984375
***End_of_Header***	
	
Channels	6						
Samples	1	1	1	1	1	1	
Date	2024/09/14	2024/09/14	2024/09/14	2024/09/14	2024/09/14	2024/09/14	
Time	20:13:02.950084686279296875	20:13:02.9572672843933105469	20:13:02.9632630348205566406	20:13:02.934284210205078125	20:13:02.934284210205078125	20:13:02.934284210205078125	
X_Dimension	Time	Time	Time	Time	Time	Time	
X0	0.0000000000000000E+0	0.0000000000000000E+0	0.0000000000000000E+0	0.0000000000000000E+0	0.0000000000000000E+0	0.0000000000000000E+0	
Delta_X	1.000000	1.000000	1.000000	1.000000	1.000000	1.000000	
***End_of_Header***							
X_Value	Untitled	Untitled 1	Untitled 2	Untitled 3	Untitled 4	Untitled 5	Comment
0.000000	0.018227	4.097200	0.074677	21.000832	0.000938	20.752393
1.000390	-2.986400	3.916600	-11.695000	20.996710	0.000937	20.786678
2.003022	-3.010500	3.908200	-11.764000	21.011909	0.000934	20.791922
3.007893	-2.999000	3.903100	-11.705000	21.012132	0.000931	20.755634
4.004861	-3.025400	3.898600	-11.794000	21.006068	0.000933	20.785605
5.005371	-2.995500	3.896200	-11.670000	21.012132	0.000932	20.789774
6.005235	-3.004500	3.893400	-11.695000	21.015953	0.000931	20.772732
7.004762	-3.001500	3.890300	-11.674000	21.017923	0.000930	20.752418
8.009527	-2.999600	3.888000	-11.661000	21.028406	0.000928	20.751997
9.005496	-2.981400	3.885400	-11.582000	21.009323	0.000929	20.778904
10.007531	-2.995200	3.883400	-11.631000	21.023846	0.000929	20.775886
11.012731	-3.009900	3.881700	-11.682000	21.010791	0.000928	20.773260
12.007862	-3.004800	3.879900	-11.657000	21.025293	0.000928	20.755047
13.003928	-2.986200	3.879300	-11.583000	21.016487	0.000926	20.752878
14.011025	-2.985700	3.878500	-11.579000	21.033603	0.000927	20.761937
15.010295	-2.974000	3.878100	-11.530000	21.037148	0.000924	20.771647
16.025158	-3.003700	3.875600	-11.641000	21.035050	0.000926	20.765281
17.012347	-2.990600	3.874200	-11.585000	21.040491	0.000924	20.734212
18.009882	-2.984400	3.874500	-11.562000	21.056085	0.000924	20.754078
19.012631	-2.989500	3.872100	-11.574000	21.055484	0.000922	20.757743
20.008650	-2.987700	3.871100	-11.564000	21.057734	0.000924	20.771848
21.012882	-2.996300	3.869900	-11.595000	21.063847	0.000924	20.762316
22.007258	-2.993300	3.869400	-11.581000	21.066136	0.000923	20.752750
23.023496	-2.999200	3.868900	-11.601000	21.054642	0.000923	20.737935
24.011834	-3.004400	3.867800	-11.620000	21.076696	0.000921	20.756675
25.007970	-2.996300	3.867800	-11.588000	21.093411	0.000921	20.730719
26.012214	-3.010000	3.866700	-11.636000	21.099672	0.000920	20.731292
27.008936	-2.988100	3.867200	-11.553000	21.103415	0.000920	20.765858
28.013761	-3.008900	3.864500	-11.628000	21.111272	0.000919	20.765656
29.015292	-3.018300	3.863700	-11.661000	21.121279	0.000920	20.763338
30.013310	-3.006300	3.863300	-11.612000	21.114420	0.000920	20.739881
31.014682	-3.023600	3.863000	-11.679000	21.137247	0.000919	20.766035
32.013487	-3.010200	3.862400	-11.626000	21.148372	0.000920	20.753455
33.014782	-3.023700	3.861600	-11.674000	21.158528	0.000917	20.728525
34.014328	-3.010000	3.861300	-11.621000	21.157382	0.000919	20.734492
35.019720	-3.010900	3.862100	-11.628000	21.162374	0.000918	20.733320
36.011776	-3.016200	3.860400	-11.642000	21.140194	0.000916	20.742903
37.038856	-3.008300	3.858900	-11.607000	21.162172	0.000918	20.754456
38.014137	-3.009000	3.858900	-11.611000	21.167538	0.000918	20.753186
39.013621	-3.016400	3.858200	-11.635000	21.186749	0.000916	20.746799
40.017730	-3.011000	3.857600	-11.615000	21.189989	0.000917	20.741505
41.023135	-2.999400	3.858400	-11.573000	21.207654	0.000916	20.728356
42.013562	-3.016600	3.856500	-11.632000	21.216083	0.000919	20.756703
43.017932	-2.983700	3.857200	-11.508000	21.226515	0.000917	20.750543
44.016873	-3.007200	3.856000	-11.594000	21.223246	0.000917	20.731151
45.017954	-2.988400	3.856000	-11.523000	21.235573	0.000916	20.747277
46.017466	-3.000600	3.855800	-11.569000	21.238764	0.000917	20.727234
47.020238	-2.998700	3.855200	-11.558000	21.237770	0.000918	20.751371
48.017203	-3.006100	3.853000	-11.582000	21.270548	0.000915	20.736272
49.016620	-2.996500	3.855300	-11.551000	21.273763	0.000917	20.739014
50.022269	-2.991300	3.854900	-11.529000	21.265334	0.000917	20.736272
51.024106	-2.977800	3.854600	-11.478000	21.268178	0.000917	20.729159
52.023610	-2.995100	3.854000	-11.542000	21.282797	0.000916	20.733827
53.022051	-3.022000	3.851800	-11.639000	21.299905	0.000916	20.749994
54.025490	-2.988200	3.852600	-11.511000	21.309334	0.000917	20.719598
55.025170	-3.009800	3.850800	-11.589000	21.315668	0.000919	20.740635
56.019727	-2.997600	3.852500	-11.547000	21.295487	0.000916	20.719021
57.022254	-2.983400	3.851600	-11.489000	21.320256	0.000918	20.750440
58.021024	-2.982000	3.851300	-11.484000	21.313369	0.000918	20.749715
59.032403	-3.013800	3.850200	-11.602000	21.328086	0.000916	20.728876
60.025095	-2.982100	3.850100	-11.480000	21.324118	0.000917	20.732018
61.022307	-3.001800	3.851300	-11.560000	21.351355	0.000917	20.719912
62.023418	-3.013400	3.848200	-11.595000	21.346612	0.000917	20.741246
63.026592	-3.004200	3.850100	-11.566000	21.364271	0.000917	20.728567
64.022797	-2.995900	3.849200	-11.531000	21.402605	0.000917	20.718556
65.024424	-2.995000	3.849000	-11.526000	21.382898	0.000917	20.741515
66.028047	-3.001000	3.848700	-11.550000	21.385169	0.000917	20.744261
67.024814	-3.006600	3.847000	-11.565000	21.376334	0.000918	20.728783
68.025191	-2.993500	3.847800	-11.516000	21.401501	0.000917	20.742584
69.029048	-3.007600	3.847800	-11.571000	21.433599	0.000916	20.737714
70.024274	-2.996300	3.847700	-11.528000	21.429157	0.000918	20.732796
71.026219	-3.001000	3.847200	-11.545000	21.446139	0.000919	20.720863
72.028419	-3.024100	3.845200	-11.627000	21.451076	0.000917	20.720113
73.027010	-2.990700	3.845600	-11.499000	21.436778	0.000917	20.736154
74.026556	-3.006200	3.844200	-11.555000	21.451617	0.000916	20.735828
75.031780	-2.983100	3.844600	-11.468000	21.441241	0.000917	20.726394
76.028260	-2.989900	3.844200	-11.493000	21.442959	0.000916	20.748503
77.027166	-3.013900	3.843000	-11.581000	21.439362	0.000917	20.740163
78.033400	-2.998000	3.844500	-11.522000	21.461508	0.000917	20.737664
79.033579	-2.980000	3.844600	-11.455000	21.469337	0.000916	20.723212
80.035055	-3.008800	3.843200	-11.563000	21.483476	0.000915	20.746369
81.032166	-2.998400	3.842300	-11.519000	21.481927	0.000915	20.747190
82.030135	-3.017000	3.841900	-11.590000	21.511059	0.000916	20.731769
83.029682	-2.979500	3.842100	-11.446000	21.493922	0.000917	20.735484
84.033851	-2.985400	3.843900	-11.475000	21.517488	0.000917	20.734883
85.030551	-2.992900	3.842300	-11.498000	21.515840	0.000917	20.719956
86.032820	-2.989200	3.842900	-11.487000	21.532351	0.000919	20.729366
87.035238	-2.987900	3.841500	-11.477000	21.551997	0.000916	20.724369
88.031523	-3.002100	3.841900	-11.533000	21.567864	0.000916	20.740721
89.033343	-2.994800	3.841800	-11.505000	21.580106	0.000918	20.746333
90.033591	-2.998500	3.841900	-11.519000	21.570081	0.000916	20.736302
91.031336	-2.988900	3.842400	-11.484000	21.565520	0.000918	20.740272
92.032978	-3.012300	3.840200	-11.566000	21.564098	0.000919	20.714666
93.038321	-2.997900	3.841300	-11.514000	21.580233	0.000917	20.720855
94.029621	-2.996500	3.839700	-11.505000	21.607790	0.000918	20.734207
95.031818	-2.980000	3.841000	-11.444000	21.581779	0.000918	20.743740
96.036635	-3.001800	3.840600	-11.528000	21.614225	0.000918	20.755821
97.032306	-3.006300	3.838700	-11.538000	21.630656	0.000920	20.747607
98.036048	-3.004600	3.838700	-11.533000	21.624822	0.000920	20.741295
99.034117	-3.001800	3.839200	-11.523000	21.615845	0.000920	20.728042
100.032368	-3.001800	3.838600	-11.520000	21.612903	0.000919	20.758290
101.031017	-3.010700	3.838100	-11.554000	21.626817	0.000920	20.727642
102.036881	-2.991700	3.837500	-11.479000	21.645967	0.000919	20.735902
103.035485	-3.002200	3.838200	-11.522000	21.649588	0.000921	20.710600
104.033385	-3.002300	3.837800	-11.522000	21.656366	0.000922	20.728290
105.033795	-2.986100	3.837000	-11.456000	21.676043	0.000920	20.735180
106.036955	-2.999700	3.837600	-11.511000	21.655390	0.000921	20.754815
107.038479	-3.010200	3.835300	-11.544000	21.684415	0.000922	20.757310
108.038043	-2.990200	3.835800	-11.469000	21.680646	0.000923	20.754486
109.041304	-3.000800	3.836200	-11.511000	21.697002	0.000922	20.759950
110.034339	-2.993200	3.835200	-11.478000	21.721066	0.000922	20.738513
111.047082	-2.984100	3.835700	-11.445000	21.683931	0.000923	20.744497
112.039233	-2.984300	3.836000	-11.446000	21.691433	0.000923	20.743470
113.038061	-2.988500	3.836000	-11.462000	21.716770	0.000925	20.711927
114.038272	-2.983600	3.835000	-11.441000	21.728059	0.000923	20.761634
115.039616	-2.983700	3.835600	-11.443000	21.747286	0.000922	20.761436
116.047410	-3.005700	3.833500	-11.521000	21.723891	0.000924	20.758885
117.043503	-2.971100	3.835700	-11.396000	21.759098	0.000923	20.741963
118.039786	-3.001100	3.834400	-11.506000	21.751196	0.000925	20.757763
119.036745	-2.981400	3.834900	-11.432000	21.755279	0.000925	20.741935
120.039901	-2.992300	3.834900	-11.473000	21.777818	0.000926	20.751691
121.041336	-2.991300	3.833600	-11.466000	21.790631	0.000924	20.749341
122.041109	-3.009200	3.833000	-11.534000	21.795718	0.000925	20.744475
123.041707	-2.998500	3.832700	-11.490000	21.808378	0.000927	20.750034
124.044166	-2.992600	3.832500	-11.467000	21.815159	0.000927	20.761563
125.037414	-2.977300	3.833800	-11.413000	21.859587	0.000926	20.755296
126.047961	-3.000000	3.832000	-11.495000	21.856790	0.000926	20.749178
127.043405	-3.006200	3.830500	-11.513000	21.861506	0.000927	20.753899
128.041793	-3.026100	3.831000	-11.592000	21.842724	0.000926	20.762600
129.050564	-2.972400	3.832900	-11.392000	21.893160	0.000926	20.744330
130.041818	-2.993200	3.830700	-11.465000	21.881840	0.000926	20.740112
131.044685	-3.031400	3.829500	-11.608000	21.894903	0.000926	20.737065
132.050697	-2.995400	3.830300	-11.472000	21.904179	0.000929	20.735919
133.047222	-3.011200	3.830700	-11.533000	21.885404	0.000928	20.774974
134.041005	-2.995900	3.829500	-11.472000	21.888391	0.000930	20.768007
135.046561	-3.004800	3.828800	-11.503000	21.874353	0.000930	20.743523
136.044111	-3.007200	3.829100	-11.515000	21.901750	0.000931	20.766206
137.044715	-3.007200	3.829900	-11.515000	21.913243	0.000932	20.765381
138.047119	-3.008700	3.828700	-11.518000	21.922763	0.000932	20.783445
139.046947	-3.008200	3.827500	-11.512000	21.931964	0.000931	20.766577
140.044867	-3.009400	3.829000	-11.521000	21.957062	0.000931	20.758509
141.048034	-3.013600	3.828600	-11.536000	21.956910	0.000932	20.758831
142.047824	-3.001600	3.828800	-11.493000	21.956564	0.000931	20.757536
143.044581	-2.978000	3.829000	-11.402000	21.979494	0.000930	20.770059
144.056619	-2.992900	3.827700	-11.455000	21.982906	0.000930	20.762568
145.043296	-3.019400	3.827700	-11.557000	21.984578	0.000933	20.774674
146.045450	-2.990500	3.828100	-11.447000	22.001400	0.000931	20.745045
147.046761	-2.988400	3.826400	-11.434000	21.997639	0.000933	20.770204
148.046841	-3.005400	3.826600	-11.499000	22.005341	0.000932	20.761793
149.046790	-3.006900	3.827000	-11.506000	22.027401	0.000931	20.772023
150.046259	-3.002000	3.826100	-11.484000	22.036725	0.000933	20.760495
151.047769	-3.017900	3.825800	-11.546000	22.046969	0.000931	20.775491
152.045549	-3.001300	3.826800	-11.484000	22.044127	0.000933	20.763637
153.044868	-3.004500	3.826400	-11.495000	22.051953	0.000934	20.762462
154.045329	-3.013500	3.824800	-11.524000	22.088097	0.000935	20.758818
155.046384	-3.032900	3.825200	-11.600000	22.090667	0.000931	20.776089
156.048310	-3.005900	3.824800	-11.496000	22.106918	0.000934	20.766754
157.051915	-2.990000	3.826300	-11.439000	22.102083	0.000935	20.769975
158.043957	-3.005200	3.824500	-11.493000	22.080077	0.000935	20.767858
159.046171	-3.002100	3.824700	-11.481000	22.096279	0.000934	20.786924
160.056924	-2.976600	3.826200	-11.387000	22.099418	0.000937	20.771100
161.047119	-2.978700	3.825700	-11.395000	22.094261	0.000937	20.791068
162.051563	-2.994700	3.823600	-11.450000	22.097771	0.000937	20.766606
163.055408	-2.981400	3.824900	-11.403000	22.094060	0.000936	20.772848
164.048839	-3.004100	3.822700	-11.483000	22.104253	0.000938	20.771673
165.044386	-3.004100	3.823100	-11.484000	22.106225	0.000939	20.765587
166.048303	-3.005700	3.823500	-11.492000	22.129305	0.000939	20.762140
167.049594	-3.007200	3.822700	-11.495000	22.120430	0.000940	20.766057
168.045495	-2.984800	3.823000	-11.409000	22.141442	0.000941	20.773343
169.048536	-2.989400	3.821600	-11.424000	22.129626	0.000943	20.793757
170.050188	-2.990900	3.822600	-11.431000	22.144905	0.000945	20.782975
171.048360	-3.018200	3.821800	-11.533000	22.140442	0.000944	20.775661
172.049420	-3.013000	3.820900	-11.511000	22.141714	0.000944	20.775038
173.048706	-3.028200	3.820300	-11.567000	22.156516	0.000942	20.773262
174.046088	-2.986000	3.822900	-11.414000	22.179644	0.000945	20.766546
175.051741	-2.984400	3.821200	-11.401000	22.183284	0.000945	20.774932
176.046098	-2.975500	3.823500	-11.375000	22.183853	0.000946	20.790201
177.046210	-2.995000	3.819100	-11.436000	22.196463	0.000945	20.781963
178.050161	-2.990400	3.820200	-11.423000	22.235091	0.000946	20.784603
179.059941	-3.013900	3.819200	-11.510000	22.242742	0.000946	20.754805
180.052728	-2.992800	3.818400	-11.426000	22.251764	0.000946	20.807462
181.050752	-2.995600	3.819100	-11.439000	22.257394	0.000946	20.781330
182.050735	-3.005200	3.818500	-11.475000	22.254326	0.000947	20.797225
183.052306	-3.010800	3.818500	-11.495000	22.270349	0.000948	20.785293
184.049041	-3.018400	3.818600	-11.525000	22.285874	0.000949	20.796096
185.048612	-3.015700	3.818500	-11.515000	22.315056	0.000948	20.788807
186.053198	-3.007400	3.816700	-11.476000	22.285595	0.000948	20.788705
187.054651	-3.004300	3.817400	-11.468000	22.302515	0.000949	20.811811
188.049939	-2.988900	3.817700	-11.410000	22.277665	0.000947	20.781713
189.053000	-2.986600	3.818000	-11.402000	22.277612	0.000949	20.785927
190.058253	-2.983000	3.818400	-11.389000	22.297720	0.000950	20.798949
191.062286	-2.995500	3.816300	-11.430000	22.308290	0.000951	20.791040
192.059583	-3.022400	3.816000	-11.531000	22.305448	0.000950	20.785351
193.057391	-2.990500	3.815900	-11.410000	22.334482	0.000950	20.794034
194.048822	-2.989900	3.817900	-11.413000	22.321796	0.000952	20.810254
195.057232	-2.999800	3.815000	-11.444000	22.319453	0.000954	20.801270
196.049067	-2.995700	3.816300	-11.431000	22.335825	0.000953	20.803914
197.049298	-3.003700	3.814700	-11.455000	22.356857	0.000955	20.793206
198.058440	-3.009600	3.815300	-11.481000	22.339560	0.000953	20.786317
199.050982	-2.991900	3.815900	-11.416000	22.380904	0.000952	20.811121
200.060343	-2.983400	3.816500	-11.385000	22.363112	0.000957	20.790935
201.053297	-2.994200	3.815200	-11.422000	22.346815	0.000953	20.800219
202.057207	-2.994000	3.814400	-11.418000	22.370462	0.000956	20.793553
203.054411	-2.999100	3.814300	-11.439000	22.358550	0.000957	20.812919
204.055958	-2.965400	3.815300	-11.312000	22.387006	0.000957	20.813439
205.057634	-2.987700	3.815000	-11.396000	22.412603	0.000956	20.802562
206.058647	-2.990500	3.813800	-11.405000	22.414048	0.000957	20.804009
207.064166	-2.978800	3.814100	-11.358000	22.428602	0.000957	20.818584
208.053943	-3.005100	3.811700	-11.454000	22.441284	0.000957	20.808998
209.062312	-3.011100	3.811900	-11.477000	22.466254	0.000959	20.802711
210.068814	-2.999800	3.813100	-11.438000	22.458258	0.000958	20.807979
211.065357	-2.990600	3.813500	-11.404000	22.451930	0.000958	20.807806
212.059896	-3.008500	3.810900	-11.464000	22.450357	0.000959	20.805283
213.058883	-3.007100	3.812100	-11.462000	22.455569	0.000957	20.822830
214.059360	-2.995000	3.812000	-11.415000	22.451159	0.000959	20.815569
215.062853	-2.984800	3.812200	-11.378000	22.450661	0.000959	20.818863
216.067705	-3.000500	3.810700	-11.433000	22.426217	0.000961	20.815247
217.059794	-2.994600	3.810500	-11.410000	22.420486	0.000962	20.781533
218.063914	-3.001400	3.809500	-11.432000	22.449170	0.000962	20.818792
219.067187	-2.984100	3.811700	-11.373000	22.437181	0.000964	20.806312
220.067931	-3.001700	3.810100	-11.435000	22.443640	0.000960	20.809936
221.067125	-3.003400	3.810300	-11.441000	22.468158	0.000963	20.812678
222.057290	-2.996100	3.809800	-11.414000	22.497169	0.000963	20.819921
223.063594	-2.988800	3.809000	-11.383000	22.523654	0.000962	20.830324
224.063300	-3.005700	3.809300	-11.448000	22.535766	0.000964	20.804522
225.059379	-3.019900	3.808400	-11.499000	22.547054	0.000963	20.828629
226.059317	-2.986900	3.809900	-11.379000	22.515386	0.000965	20.808768
227.061392	-2.983500	3.808800	-11.363000	22.534946	0.000967	20.821718
228.078915	-3.001600	3.808100	-11.430000	22.549672	0.000965	20.842630
229.069335	-3.000900	3.809300	-11.430000	22.556773	0.000967	20.830777
230.067675	-2.992900	3.808700	-11.398000	22.552268	0.000966	20.830532
231.062701	-3.006900	3.807700	-11.449000	22.573194	0.000968	20.816878
232.064900	-2.999400	3.808300	-11.422000	22.592308	0.000967	20.828908
233.065302	-3.009300	3.807100	-11.455000	22.597095	0.000968	20.813315
234.059667	-3.009400	3.806800	-11.455000	22.608008	0.000971	20.793425
235.071734	-3.004400	3.807200	-11.437000	22.596473	0.000969	20.823123
236.062057	-2.999400	3.805600	-11.413000	22.615338	0.000972	20.840121
237.071886	-3.003400	3.807000	-11.433000	22.617656	0.000971	20.832011
238.064411	-2.976600	3.805500	-11.326000	22.623587	0.000970	20.832736
239.069548	-2.983200	3.805100	-11.351000	22.649002	0.000972	20.834959
240.064235	-3.003300	3.806200	-11.430000	22.626654	0.000973	20.829170
241.069127	-2.989600	3.806400	-11.378000	22.635252	0.000974	20.838730
242.065632	-2.977300	3.806000	-11.330000	22.667891	0.000974	20.817369
243.066362	-3.020500	3.806300	-11.494000	22.661840	0.000975	20.838334
244.066103	-3.004100	3.804500	-11.428000	22.683315	0.000973	20.830921
245.069981	-3.017400	3.803300	-11.475000	22.683195	0.000976	20.812783
246.066680	-2.983900	3.804900	-11.353000	22.707410	0.000976	20.845099
247.067624	-2.995500	3.803900	-11.393000	22.693333	0.000977	20.803499
248.065669	-2.993400	3.805200	-11.388000	22.726147	0.000978	20.810763
249.068666	-2.992900	3.802500	-11.378000	22.743936	0.000979	20.814358
250.071354	-2.987000	3.802800	-11.358000	22.718103	0.000979	20.820723
251.067166	-2.994800	3.804200	-11.391000	22.735370	0.000979	20.832803
252.066015	-3.005000	3.802500	-11.426000	22.738185	0.000980	20.826141
253.071411	-3.003900	3.801900	-11.419000	22.754233	0.000980	20.837948
254.067292	-2.994300	3.802100	-11.383000	22.766268	0.000982	20.833882
255.066386	-2.997700	3.801500	-11.394000	22.769981	0.000979	20.820058
256.069360	-3.008800	3.802000	-11.439000	22.767091	0.000982	20.844664
257.065559	-2.989700	3.802500	-11.367000	22.759970	0.000983	20.823306
258.070580	-3.003500	3.801700	-11.417000	22.757158	0.000981	20.847515
259.082771	-2.982800	3.802000	-11.340000	22.781655	0.000983	20.827011
260.069839	-2.976100	3.800600	-11.310000	22.797748	0.000983	20.842657
261.071450	-2.981600	3.801100	-11.332000	22.808811	0.000984	20.838093
262.074215	-3.016200	3.798900	-11.457000	22.810630	0.000984	20.838018
263.071578	-3.025300	3.798100	-11.489000	22.835567	0.000987	20.831706
264.068800	-2.965500	3.801000	-11.271000	22.831639	0.000987	20.835358
265.073511	-3.001900	3.798600	-11.402000	22.844719	0.000985	20.840400
266.071781	-3.008600	3.799300	-11.429000	22.832413	0.000987	20.831391
267.071589	-3.014000	3.798700	-11.448000	22.837051	0.000988	20.838882
268.075191	-2.986000	3.799000	-11.343000	22.830103	0.000988	20.826706
269.075109	-3.004200	3.797600	-11.408000	22.843211	0.000985	20.855009
270.070116	-3.010500	3.798700	-11.435000	22.856912	0.000986	20.847398
271.074013	-3.003800	3.796400	-11.402000	22.871736	0.000988	20.851344
272.075046	-2.996600	3.797800	-11.379000	22.871291	0.000989	20.852794
273.071888	-2.980000	3.797800	-11.317000	22.872813	0.000989	20.851000
274.075131	-3.006000	3.796600	-11.412000	22.899250	0.000992	20.853778
275.070674	-2.994700	3.795100	-11.364000	22.876907	0.000990	20.846093
276.070990	-2.980100	3.796800	-11.314000	22.884755	0.000989	20.838783
277.076548	-3.022800	3.795400	-11.472000	22.861019	0.000994	20.855781
278.075758	-3.003100	3.795500	-11.395000	22.871358	0.000992	20.843853
279.074089	-3.026000	3.794400	-11.481000	22.878535	0.000991	20.861474
280.078690	-3.006000	3.795300	-11.406000	22.869722	0.000993	20.867818
281.075146	-3.000800	3.794500	-11.385000	22.892543	0.000993	20.839947
282.076585	-2.986100	3.795600	-11.334000	22.889311	0.000992	20.858045
283.077564	-3.010700	3.795900	-11.425000	22.894369	0.000994	20.835613
284.081656	-3.016800	3.793600	-11.443000	22.914674	0.000993	20.838886
285.077381	-3.017300	3.794200	-11.447000	22.912435	0.000993	20.850392
286.080843	-2.999900	3.795100	-11.384000	22.930900	0.000995	20.857511
287.081452	-3.009000	3.793700	-11.414000	22.967291	0.000997	20.849402
288.077634	-3.011900	3.793500	-11.425000	22.952521	0.000995	20.840768
289.080416	-2.985900	3.794700	-11.329000	22.974916	0.000997	20.861782
290.080688	-3.013800	3.791900	-11.426000	22.989043	0.000997	20.861237
291.079119	-2.985500	3.793300	-11.324000	22.994351	0.000997	20.854228
292.082394	-3.008600	3.792100	-11.408000	23.006737	0.000997	20.856680
293.080445	-2.990400	3.793000	-11.341000	23.027810	0.000998	20.863095
294.081354	-2.997400	3.792000	-11.365000	23.017953	0.000999	20.847531
295.088748	-3.002000	3.791500	-11.381000	23.035166	0.000996	20.861931
296.080042	-3.016100	3.789800	-11.429000	23.037013	0.000998	20.872316
297.088006	-3.003400	3.790800	-11.384000	23.047300	0.000999	20.861762
298.084199	-2.981700	3.791200	-11.303000	23.056246	0.000999	20.857449
299.084421	-3.019400	3.789600	-11.441000	23.060907	0.000998	20.865438
300.082116	-2.997100	3.789900	-11.358000	23.065446	0.001001	20.855761
301.086820	-2.988300	3.790600	-11.325000	23.084501	0.001001	20.863475
302.082121	-2.976100	3.791100	-11.282000	23.102712	0.001001	20.853748
303.082285	-3.002100	3.788700	-11.374000	23.124380	0.001000	20.863606
304.091183	-2.993000	3.788900	-11.339000	23.130436	0.001000	20.866829
305.084215	-3.003400	3.789000	-11.378000	23.159205	0.001001	20.875268
306.083094	-3.013100	3.788500	-11.414000	23.133756	0.001003	20.864940
307.084633	-3.007000	3.788800	-11.391000	23.140981	0.001005	20.854163
308.086770	-3.017400	3.788600	-11.430000	23.149802	0.001003	20.861579
309.085694	-3.026000	3.786300	-11.456000	23.162182	0.001005	20.860235
310.096995	-2.999700	3.787900	-11.362000	23.160565	0.001005	20.876157
311.084870	-2.983200	3.789000	-11.302000	23.163811	0.001006	20.868978
312.085579	-2.987200	3.786600	-11.309000	23.152059	0.001006	20.888969
313.089612	-3.009600	3.786500	-11.395000	23.158857	0.001007	20.878238
314.086045	-2.999300	3.787800	-11.360000	23.124816	0.001009	20.876844
315.085979	-2.978900	3.786500	-11.279000	23.140982	0.001008	20.861276
316.087774	-2.997100	3.787000	-11.348000	23.150972	0.001008	20.860855
317.088631	-2.985200	3.787200	-11.304000	23.193553	0.001009	20.852317
318.092031	-3.020700	3.784500	-11.431000	23.194556	0.001009	20.880348
319.091802	-3.005200	3.785700	-11.376000	23.182357	0.001008	20.872390
320.086591	-2.982700	3.786800	-11.294000	23.212342	0.001010	20.874464
321.088374	-3.016300	3.784300	-11.413000	23.200665	0.001011	20.885047
322.091270	-3.011800	3.785500	-11.400000	23.223302	0.001012	20.876912
323.086881	-3.001900	3.783800	-11.358000	23.216308	0.001013	20.886498
324.086955	-2.979800	3.785200	-11.279000	23.239043	0.001010	20.860446
325.089205	-2.998000	3.783700	-11.342000	23.187449	0.001014	20.865166
326.088338	-2.994300	3.784800	-11.333000	23.188424	0.001011	20.858082
327.086320	-2.999800	3.784200	-11.351000	23.228473	0.001013	20.876404
328.090618	-2.993800	3.783500	-11.326000	23.240149	0.001014	20.876252
329.087202	-2.986100	3.783400	-11.296000	23.237964	0.001013	20.849881
330.091237	-2.996900	3.783000	-11.337000	23.268721	0.001013	20.881651
331.092118	-3.014300	3.781600	-11.398000	23.275769	0.001015	20.868327
332.089714	-3.001600	3.782000	-11.351000	23.260534	0.001015	20.851637
333.090495	-3.004400	3.782100	-11.361000	23.245941	0.001015	20.870202
334.094204	-2.983200	3.782100	-11.281000	23.232499	0.001015	20.845827
335.093956	-3.003200	3.780000	-11.350000	23.231931	0.001016	20.862801
336.090805	-2.997600	3.779800	-11.329000	23.241521	0.001016	20.855342
337.095476	-2.997200	3.781600	-11.334000	23.241221	0.001018	20.846033
338.090196	-3.005100	3.781900	-11.362000	23.225537	0.001018	20.835057
339.094664	-2.998400	3.779500	-11.331000	23.216847	0.001017	20.857642
340.095182	-2.990200	3.781000	-11.304000	23.215975	0.001017	20.838751
341.092465	-3.006700	3.780500	-11.365000	23.234781	0.001018	20.842425
342.090719	-3.004000	3.779200	-11.352000	23.240632	0.001020	20.853503
343.095383	-3.008400	3.777300	-11.361000	23.268550	0.001018	20.871049
344.092323	-3.011700	3.777800	-11.377000	23.276494	0.001019	20.836813
345.092116	-2.969400	3.779300	-11.221000	23.287726	0.001020	20.840482
346.094306	-3.025600	3.776100	-11.423000	23.299335	0.001020	20.851168
347.092084	-3.009900	3.777200	-11.368000	23.290399	0.001021	20.838420
348.093075	-3.011500	3.776400	-11.371000	23.287634	0.001021	20.826641
349.095023	-3.021100	3.777000	-11.410000	23.306859	0.001021	20.836425
350.094308	-2.980500	3.777400	-11.258000	23.320205	0.001022	20.830834
351.092639	-2.976900	3.776900	-11.243000	23.328149	0.001024	20.825993
352.099026	-2.999700	3.775900	-11.325000	23.344608	0.001023	20.829688
353.097441	-2.991800	3.776600	-11.298000	23.364005	0.001023	20.837748
354.097354	-3.004300	3.775100	-11.340000	23.352277	0.001025	20.838795
355.097947	-3.009000	3.774800	-11.357000	23.345085	0.001024	20.850553
356.096019	-3.001400	3.776000	-11.333000	23.363306	0.001023	20.844633
357.096685	-3.039000	3.774200	-11.469000	23.347221	0.001026	20.836573
358.100335	-3.019000	3.773600	-11.391000	23.376305	0.001025	20.824946
359.100543	-3.008000	3.774500	-11.353000	23.377223	0.001026	20.832978
360.100127	-3.001100	3.773600	-11.324000	23.391789	0.001029	20.839517
361.107179	-2.987800	3.774500	-11.276000	23.393900	0.001028	20.832150
362.100571	-3.025300	3.772800	-11.412000	23.374635	0.001026	20.817109
363.106782	-3.008400	3.772400	-11.348000	23.353392	0.001028	20.850344
364.104386	-2.984100	3.773600	-11.260000	23.377095	0.001030	20.846126
365.102450	-2.969700	3.774500	-11.207000	23.376848	0.001028	20.824068
366.099480	-2.998100	3.772500	-11.309000	23.386433	0.001028	20.818502
367.106647	-2.976900	3.773500	-11.232000	23.405677	0.001030	20.825936
368.103607	-3.013700	3.770600	-11.362000	23.423378	0.001027	20.821393
369.103975	-3.009700	3.771200	-11.349000	23.442321	0.001029	20.820466
370.109180	-3.002500	3.770700	-11.319000	23.446829	0.001030	20.812656
371.104655	-2.995200	3.770000	-11.291000	23.450815	0.001029	20.822815
372.102431	-2.988700	3.769900	-11.266000	23.480789	0.001031	20.834842
373.106748	-2.989400	3.771300	-11.271000	23.482007	0.001031	20.826580
374.101968	-3.024400	3.768800	-11.396000	23.482057	0.001031	20.808612
375.104784	-2.969500	3.770200	-11.194000	23.488527	0.001031	20.819365
376.106912	-3.002900	3.769000	-11.317000	23.500953	0.001032	20.815225
377.107581	-2.999900	3.769700	-11.307000	23.523531	0.001032	20.820787
378.105327	-3.024400	3.767600	-11.393000	23.509591	0.001031	20.830047
379.109471	-2.975700	3.769200	-11.215000	23.516513	0.001031	20.818021
380.104480	-3.032400	3.766700	-11.422000	23.536578	0.001032	20.833865
381.105313	-2.985300	3.768600	-11.250000	23.561647	0.001034	20.809684
382.112794	-3.010000	3.766700	-11.337000	23.528211	0.001033	20.806039
383.106506	-3.002500	3.768100	-11.313000	23.552910	0.001032	20.803771
384.109329	-3.020400	3.766700	-11.376000	23.539493	0.001035	20.813081
385.108415	-3.022800	3.766800	-11.385000	23.515945	0.001035	20.807968
386.105798	-3.005000	3.766100	-11.317000	23.503018	0.001034	20.807338
387.109160	-2.982000	3.767500	-11.232000	23.521893	0.001036	20.822465
388.116959	-2.991400	3.766300	-11.266000	23.507530	0.001034	20.791472
389.105943	-2.990900	3.765900	-11.263000	23.532123	0.001037	20.799055
390.107230	-3.002900	3.764800	-11.304000	23.534817	0.001038	20.828781
391.113386	-2.983600	3.766500	-11.236000	23.532896	0.001038	20.802675
392.106478	-2.983000	3.765000	-11.229000	23.522165	0.001036	20.816573
393.107409	-2.987300	3.766200	-11.249000	23.499661	0.001035	20.820094
394.110043	-3.005700	3.763500	-11.311000	23.504663	0.001036	20.812780
395.108450	-2.997500	3.764700	-11.284000	23.505087	0.001035	20.819843
396.106143	-3.029700	3.763100	-11.399000	23.511289	0.001036	20.805672
397.116477	-2.991600	3.763300	-11.257000	23.500385	0.001036	20.800431
398.108230	-2.995100	3.762100	-11.267000	23.485947	0.001037	20.799236
399.106328	-2.987700	3.762300	-11.238000	23.503425	0.001035	20.807746
400.110178	-2.997200	3.761900	-11.273000	23.519758	0.001037	20.808471
401.109852	-3.013000	3.760800	-11.329000	23.507830	0.001039	20.802678
402.108261	-3.005200	3.761500	-11.302000	23.485404	0.001038	20.820502
403.110965	-3.017300	3.761100	-11.347000	23.463916	0.001039	20.818878
404.112875	-3.007000	3.761900	-11.311000	23.487444	0.001038	20.797891
405.106547	-3.005700	3.761300	-11.304000	23.514312	0.001037	20.809176
406.110181	-3.005300	3.760100	-11.299000	23.561489	0.001037	20.817112
407.109639	-2.970000	3.761600	-11.171000	23.549615	0.001038	20.804735
408.108965	-2.992900	3.759100	-11.249000	23.570677	0.001039	20.788865
409.114796	-3.000600	3.760100	-11.282000	23.576855	0.001039	20.797429
410.110367	-2.981500	3.759800	-11.209000	23.582531	0.001039	20.785575
411.112125	-3.010000	3.759900	-11.316000	23.599509	0.001039	20.809233
412.116992	-3.005500	3.757900	-11.294000	23.574815	0.001040	20.798228
413.110394	-3.025100	3.757700	-11.367000	23.591916	0.001040	20.781233
414.112983	-3.005400	3.757900	-11.293000	23.599439	0.001041	20.782610
415.113805	-3.018500	3.757200	-11.339000	23.598270	0.001040	20.790448
416.111116	-3.003300	3.756600	-11.280000	23.616001	0.001041	20.797316
417.110998	-2.998800	3.757100	-11.266000	23.631633	0.001040	20.800186
418.113037	-2.989000	3.758100	-11.232000	23.604053	0.001039	20.807624
419.114424	-3.001000	3.756000	-11.270000	23.596061	0.001041	20.775431
420.112834	-2.991300	3.756200	-11.235000	23.572292	0.001041	20.803760
421.117921	-2.980300	3.756400	-11.194000	23.605052	0.001040	20.777805
422.113605	-2.998700	3.754100	-11.256000	23.582805	0.001043	20.767357
423.115828	-3.006100	3.755200	-11.288000	23.589550	0.001043	20.772222
424.114613	-2.987500	3.754500	-11.216000	23.613228	0.001042	20.798804
425.118181	-3.004200	3.755500	-11.281000	23.603500	0.001042	20.778621
426.113957	-2.985500	3.754200	-11.208000	23.633873	0.001044	20.778250
427.118439	-3.019500	3.753800	-11.332000	23.630266	0.001044	20.790755
428.116895	-3.001100	3.754500	-11.267000	23.620535	0.001044	20.779103
429.115578	-2.996100	3.752600	-11.242000	23.664973	0.001042	20.789039
430.117671	-2.983100	3.753500	-11.196000	23.622131	0.001042	20.784970
431.113668	-2.990300	3.754300	-11.224000	23.631837	0.001042	20.769570
432.116442	-3.006200	3.751700	-11.278000	23.657911	0.001046	20.772476
433.116220	-2.991000	3.752200	-11.221000	23.667621	0.001043	20.770831
434.116004	-2.999100	3.751900	-11.252000	23.681489	0.001045	20.795640
435.114938	-2.982100	3.751700	-11.186000	23.684380	0.001044	20.767718
436.116644	-2.995300	3.751400	-11.236000	23.712012	0.001044	20.783567
437.119997	-2.973100	3.751400	-11.152000	23.698646	0.001045	20.770641
438.118477	-2.996100	3.751600	-11.239000	23.677495	0.001045	20.788316
439.127118	-3.003800	3.749600	-11.261000	23.710847	0.001043	20.778606
440.117747	-2.997100	3.750200	-11.239000	23.710173	0.001044	20.796897
441.119121	-3.020200	3.748800	-11.320000	23.720211	0.001044	20.769502
442.119349	-2.986200	3.750700	-11.199000	23.705303	0.001046	20.771151
443.123285	-2.999400	3.748800	-11.243000	23.691642	0.001045	20.773576
444.119251	-3.000000	3.750000	-11.247000	23.693809	0.001043	20.776697
445.120430	-3.012400	3.747200	-11.286000	23.702223	0.001046	20.753364
446.120704	-3.004900	3.748300	-11.262000	23.710061	0.001046	20.757429
447.120371	-3.003400	3.748300	-11.257000	23.729904	0.001048	20.763573
448.127854	-3.005200	3.747600	-11.262000	23.707334	0.001047	20.757540
449.120094	-2.991100	3.747300	-11.208000	23.679081	0.001049	20.769044
450.120820	-2.977300	3.747700	-11.157000	23.659369	0.001046	20.772990
451.123125	-2.992600	3.746200	-11.210000	23.670227	0.001048	20.773443
452.124531	-2.974200	3.746700	-11.142000	23.683021	0.001047	20.760665
453.125230	-2.996700	3.745700	-11.224000	23.670399	0.001048	20.775987
454.127472	-2.988200	3.744600	-11.187000	23.687031	0.001048	20.755202
455.124791	-2.986300	3.746600	-11.187000	23.678966	0.001048	20.764661
456.122900	-2.986100	3.745400	-11.183000	23.706322	0.001047	20.774070
457.131541	-3.008100	3.744200	-11.262000	23.732235	0.001049	20.755004
458.126129	-3.008100	3.743900	-11.261000	23.741595	0.001050	20.787622
459.123600	-2.984100	3.745100	-11.175000	23.749137	0.001049	20.750613
460.133200	-3.008000	3.743600	-11.259000	23.762551	0.001048	20.756476
461.127134	-3.016600	3.743700	-11.292000	23.754339	0.001050	20.780485
462.122851	-2.994200	3.743000	-11.206000	23.748339	0.001047	20.770676
463.127011	-3.024300	3.742300	-11.316000	23.735048	0.001048	20.749763
464.128151	-2.998100	3.742200	-11.218000	23.708218	0.001050	20.763642
465.123021	-3.001900	3.742700	-11.234000	23.719042	0.001051	20.749363
466.127812	-2.969000	3.742200	-11.110000	23.709115	0.001048	20.754583
467.126446	-3.007200	3.739900	-11.246000	23.711681	0.001049	20.777071
468.127396	-2.997500	3.741600	-11.214000	23.714592	0.001050	20.763394
469.130014	-3.009800	3.741100	-11.259000	23.734077	0.001049	20.753058
470.128183	-2.990300	3.740300	-11.184000	23.763727	0.001049	20.760974
471.124816	-2.984500	3.740100	-11.161000	23.772860	0.001051	20.763968
472.132037	-3.001200	3.739700	-11.223000	23.798545	0.001050	20.767909
473.126865	-3.008200	3.739200	-11.246000	23.815327	0.001050	20.768140
474.128219	-3.000200	3.740600	-11.221000	23.830459	0.001049	20.745854
475.129192	-3.011100	3.737900	-11.254000	23.847758	0.001051	20.752295
476.129422	-2.996800	3.739300	-11.205000	23.884716	0.001049	20.750946
477.125982	-3.002700	3.738300	-11.223000	23.876533	0.001048	20.754121
478.129516	-2.997000	3.737300	-11.199000	23.862421	0.001048	20.748031
479.129611	-3.020800	3.737400	-11.287000	23.836466	0.001050	20.745239
480.128487	-2.996100	3.737100	-11.194000	23.821605	0.001049	20.750253
481.130104	-2.996300	3.737300	-11.198000	23.834723	0.001049	20.759613
482.128786	-2.994900	3.736500	-11.189000	23.827235	0.001049	20.737879
483.129041	-2.994200	3.736300	-11.186000	23.807052	0.001048	20.728548
484.132537	-2.988400	3.737300	-11.167000	23.796624	0.001048	20.756026
485.131506	-3.011300	3.734200	-11.244000	23.830080	0.001049	20.763018
486.127977	-3.001800	3.735500	-11.212000	23.823636	0.001050	20.737590
487.135612	-2.999500	3.734400	-11.200000	23.862865	0.001050	20.750847
488.130806	-3.009100	3.734000	-11.235000	23.865722	0.001049	20.730478
489.127710	-3.006600	3.734800	-11.228000	23.894028	0.001051	20.747956
490.133432	-3.004900	3.733600	-11.218000	23.920927	0.001052	20.752644
491.129939	-3.022900	3.732500	-11.282000	23.911199	0.001050	20.733405
492.129170	-2.998200	3.734000	-11.195000	23.893728	0.001049	20.741965
493.130980	-2.993300	3.733300	-11.173000	23.894283	0.001050	20.735883
494.129884	-2.992100	3.733400	-11.170000	23.886244	0.001050	20.724028
495.131217	-2.975300	3.733600	-11.107000	23.903292	0.001050	20.745865
496.132677	-2.999700	3.730900	-11.190000	23.921387	0.001051	20.741726
497.129362	-2.994700	3.731100	-11.172000	23.941872	0.001048	20.752310
498.127402	-2.982300	3.732600	-11.131000	23.959416	0.001050	20.738608
499.132830	-2.998700	3.731200	-11.188000	23.978382	0.001050	20.735817
500.128073	-2.997200	3.730400	-11.180000	24.002968	0.001051	20.723488
501.128119	-3.001000	3.731000	-11.195000	23.963605	0.001051	20.738542
502.132040	-2.993900	3.731000	-11.169000	23.984331	0.001049	20.726609
503.130349	-3.031200	3.728800	-11.301000	23.995634	0.001049	20.754066
504.127332	-3.007800	3.728800	-11.215000	24.000016	0.001050	20.755142
505.133579	-3.028900	3.727600	-11.290000	24.010521	0.001050	20.723001
506.131958	-3.009800	3.729500	-11.223000	24.032997	0.001050	20.723731
507.127504	-2.989000	3.729900	-11.147000	24.015952	0.001049	20.713748
508.135120	-3.006600	3.728600	-11.209000	24.026029	0.001050	20.740451
509.127912	-3.007000	3.728900	-11.212000	24.065875	0.001051	20.710235
510.130395	-3.006000	3.727500	-11.204000	24.039847	0.001049	20.714004
511.138219	-3.011200	3.726600	-11.220000	24.038284	0.001050	20.729982
512.131707	-2.988600	3.727700	-11.140000	24.051202	0.001049	20.718754
513.131440	-2.999000	3.727100	-11.177000	24.059860	0.001050	20.715109
514.131870	-2.985600	3.727100	-11.127000	24.059568	0.001051	20.738999
515.136342	-3.019700	3.726100	-11.250000	24.053524	0.001048	20.708755
516.133006	-2.985900	3.726600	-11.126000	24.026698	0.001050	20.715517
517.137807	-3.021600	3.725700	-11.256000	23.991616	0.001049	20.717319
518.134757	-2.984200	3.726700	-11.120000	23.987764	0.001050	20.726732
519.134929	-2.993900	3.726600	-11.156000	24.013045	0.001048	20.722213
520.143686	-2.981700	3.726400	-11.109000	24.013867	0.001046	20.723512
521.140537	-3.010400	3.725200	-11.212000	24.044829	0.001051	20.721846
522.138182	-3.007000	3.724300	-11.198000	24.076929	0.001049	20.692397
523.141834	-3.014200	3.722900	-11.220000	24.085266	0.001050	20.715933
524.139302	-3.008900	3.722900	-11.201000	24.119606	0.001049	20.708173
525.141016	-2.991500	3.723500	-11.137000	24.126524	0.001053	20.732657
526.143147	-2.998700	3.722900	-11.163000	24.167061	0.001050	20.689861
527.137678	-3.006700	3.723300	-11.194000	24.175098	0.001051	20.709777
528.135627	-2.999900	3.723200	-11.168000	24.178707	0.001050	20.726674
529.140950	-3.000800	3.723300	-11.172000	24.152982	0.001051	20.711303
530.141909	-3.002500	3.722200	-11.175000	24.167834	0.001051	20.725252
531.137774	-2.995700	3.721000	-11.147000	24.159304	0.001053	20.702470
532.144645	-3.027000	3.718800	-11.256000	24.140066	0.001051	20.721582
533.137820	-3.007200	3.721000	-11.189000	24.120958	0.001049	20.710004
534.138193	-2.984700	3.721200	-11.106000	24.106475	0.001053	20.718238
535.139868	-3.023800	3.718900	-11.244000	24.094903	0.001051	20.707579
536.140190	-3.009200	3.719200	-11.190000	24.069003	0.001053	20.702466
537.155862	-2.978700	3.719600	-11.079000	24.061812	0.001051	20.717067
538.140141	-3.007600	3.719000	-11.184000	24.070816	0.001052	20.694801
539.141450	-2.990300	3.718900	-11.120000	24.090224	0.001051	20.683445
540.140764	-2.983200	3.718800	-11.093000	24.082853	0.001053	20.716832
541.139546	-2.988100	3.718300	-11.109000	24.094076	0.001054	20.721450
542.139569	-2.978600	3.718200	-11.074000	24.110890	0.001052	20.731676
543.137296	-2.992000	3.717100	-11.120000	24.134380	0.001053	20.693593
544.137629	-2.991000	3.715900	-11.114000	24.094590	0.001053	20.695411
545.140038	-2.985300	3.716400	-11.093000	24.093990	0.001052	20.702396
546.138139	-2.987100	3.717400	-11.103000	24.068880	0.001053	20.714672
547.143469	-2.973800	3.716500	-11.051000	24.055588	0.001052	20.722205
548.137901	-2.983600	3.717200	-11.088000	24.054116	0.001050	20.699390
549.143589	-2.990000	3.714800	-11.106000	24.053911	0.001050	20.722420
550.140474	-2.975700	3.715300	-11.055000	24.089267	0.001053	20.703823
551.148803	-2.994000	3.715000	-11.123000	24.107080	0.001051	20.701774
552.142026	-3.015400	3.713200	-11.195000	24.117727	0.001051	20.713402
553.138173	-2.992500	3.714800	-11.115000	24.120609	0.001053	20.712973
554.141685	-3.010000	3.712600	-11.173000	24.126698	0.001051	20.723822
555.138851	-3.001700	3.712500	-11.142000	24.134957	0.001052	20.711241
556.140874	-2.993400	3.713600	-11.115000	24.162767	0.001051	20.714953
557.141287	-2.984000	3.713700	-11.080000	24.177767	0.001052	20.720515
558.137680	-2.979800	3.714600	-11.067000	24.155840	0.001053	20.716540
559.137813	-2.993100	3.711900	-11.109000	24.130632	0.001052	20.701214
560.138594	-2.976500	3.711900	-11.048000	24.159589	0.001052	20.715559
561.137788	-3.016300	3.709800	-11.188000	24.145432	0.001052	20.717955
562.141023	-3.015800	3.708900	-11.184000	24.164284	0.001052	20.708888
563.142600	-3.020200	3.711700	-11.208000	24.140442	0.001052	20.709630
564.142572	-2.996900	3.710800	-11.120000	24.162011	0.001055	20.727472
565.138453	-2.980400	3.710000	-11.056000	24.167602	0.001052	20.706526
566.142978	-3.024800	3.708900	-11.217000	24.131472	0.001050	20.706324
567.143835	-3.004800	3.710700	-11.149000	24.136122	0.001049	20.720945
568.140346	-3.016400	3.709100	-11.187000	24.139448	0.001050	20.700098
569.152637	-3.035700	3.707200	-11.253000	24.133598	0.001051	20.728846
570.143422	-2.981100	3.710700	-11.059000	24.139518	0.001051	20.735258
571.147466	-2.989400	3.709700	-11.089000	24.146453	0.001051	20.723721
572.144688	-3.017900	3.707300	-11.188000	24.163948	0.001050	20.718509
573.139278	-3.002500	3.708100	-11.132000	24.185140	0.001049	20.724117
574.143441	-2.992000	3.707800	-11.091000	24.218678	0.001050	20.717454
575.143084	-2.983700	3.707900	-11.063000	24.208299	0.001049	20.733597
576.140715	-3.000700	3.707900	-11.125000	24.223422	0.001049	20.732645
577.143327	-2.994900	3.706800	-11.101000	24.247231	0.001050	20.732818
578.145177	-3.004500	3.706300	-11.134000	24.229066	0.001048	20.735935
579.144447	-2.986400	3.707500	-11.070000	24.209434	0.001048	20.729994
580.151418	-2.998600	3.705700	-11.111000	24.199285	0.001048	20.728348
581.145082	-2.994300	3.705200	-11.093000	24.192240	0.001049	20.724126
582.145213	-2.987500	3.707800	-11.076000	24.210725	0.001048	20.709002
583.148338	-3.009300	3.705100	-11.148000	24.233366	0.001048	20.719384
584.146023	-2.995900	3.705300	-11.100000	24.242097	0.001049	20.740945
585.144907	-2.993700	3.705300	-11.092000	24.273690	0.001049	20.724271
586.146886	-3.003700	3.704600	-11.126000	24.264614	0.001050	20.721331
587.148735	-2.995000	3.703300	-11.090000	24.289638	0.001048	20.728415
588.145091	-2.999100	3.702300	-11.102000	24.314439	0.001049	20.726741
589.148532	-2.990100	3.703500	-11.073000	24.315734	0.001049	20.740368
590.145961	-3.017800	3.702200	-11.171000	24.350330	0.001047	20.726708
591.146002	-3.003700	3.703200	-11.123000	24.345578	0.001048	20.729528
592.152553	-3.009200	3.701900	-11.138000	24.341247	0.001049	20.738934
593.146204	-3.005300	3.702100	-11.124000	24.352114	0.001049	20.719963
594.146833	-3.011600	3.701200	-11.144000	24.367412	0.001050	20.728197
595.145874	-3.018200	3.700300	-11.165000	24.386120	0.001047	20.726102
596.146115	-2.992400	3.700000	-11.069000	24.403004	0.001048	20.714116
597.164693	-2.985200	3.701100	-11.047000	24.404891	0.001049	20.715535
598.147219	-2.990400	3.699400	-11.062000	24.415367	0.001050	20.726993
599.158479	-3.003200	3.699600	-11.110000	24.422703	0.001049	20.734354
600.149207	-2.998600	3.700100	-11.094000	24.432945	0.001050	20.731826
601.152436	-3.010400	3.698100	-11.132000	24.447514	0.001049	20.727951
602.155379	-3.015000	3.696800	-11.144000	24.462987	0.001050	20.737311
603.153879	-2.976200	3.700200	-11.010000	24.476463	0.001049	20.739451
604.152780	-3.002600	3.696700	-11.098000	24.478276	0.001049	20.747908
605.150756	-2.997600	3.697800	-11.082000	24.485069	0.001047	20.732912
606.152327	-2.990600	3.697100	-11.056000	24.444889	0.001048	20.748078
607.150652	-2.996500	3.697200	-11.078000	24.412352	0.001047	20.734401
608.151120	-3.000900	3.697700	-11.095000	24.396056	0.001047	20.728958
609.153827	-2.996500	3.697200	-11.077000	24.362869	0.001047	20.735494
610.157307	-3.004500	3.697000	-11.106000	24.404581	0.001047	20.734191
611.153346	-3.016800	3.695900	-11.149000	24.411296	0.001045	20.753257
612.153937	-3.005300	3.695700	-11.106000	24.433802	0.001045	20.742644
613.155869	-3.006100	3.694800	-11.106000	24.411494	0.001046	20.732117
614.151598	-3.007400	3.695900	-11.114000	24.383251	0.001046	20.752149
615.152261	-3.001000	3.695100	-11.088000	24.413923	0.001045	20.742142
616.153568	-3.005100	3.692900	-11.097000	24.417528	0.001046	20.748603
617.153512	-3.008100	3.694300	-11.112000	24.431160	0.001045	20.762754
618.155771	-2.970600	3.695700	-10.977000	24.457553	0.001044	20.723797
619.155326	-3.003300	3.693500	-11.091000	24.484586	0.001043	20.753766
620.156747	-3.000600	3.693300	-11.080000	24.478097	0.001045	20.740142
621.152831	-3.001700	3.693000	-11.085000	24.495929	0.001043	20.742860
622.152425	-2.992600	3.693200	-11.050000	24.502471	0.001044	20.742785
623.160346	-3.013400	3.692400	-11.125000	24.509235	0.001043	20.762375
624.162867	-2.999100	3.692000	-11.071000	24.479934	0.001045	20.738192
625.154349	-3.002700	3.692100	-11.085000	24.513139	0.001043	20.745428
626.154661	-3.020600	3.690700	-11.147000	24.504287	0.001043	20.747453
627.166840	-3.000400	3.691000	-11.073000	24.543635	0.001042	20.751844
628.162893	-3.015700	3.690400	-11.128000	24.511746	0.001042	20.747824
629.163971	-2.996600	3.690500	-11.058000	24.511553	0.001041	20.731982
630.154744	-2.990100	3.690600	-11.034000	24.498990	0.001042	20.767269
631.165826	-2.998300	3.691300	-11.066000	24.501127	0.001041	20.762301
632.157276	-3.002800	3.689600	-11.078000	24.493467	0.001041	20.764098
633.159211	-3.015200	3.688400	-11.120000	24.494137	0.001043	20.733475
634.161579	-3.000300	3.688500	-11.065000	24.455059	0.001042	20.758755
635.162815	-2.986900	3.689500	-11.018000	24.443716	0.001042	20.740736
636.166797	-2.994100	3.688600	-11.043000	24.460924	0.001041	20.761320
637.155746	-3.027900	3.687300	-11.163000	24.480674	0.001041	20.730874
638.158707	-2.984300	3.688600	-11.007000	24.452942	0.001040	20.737665
639.161453	-2.992600	3.688500	-11.036000	24.454706	0.001040	20.749391
640.158319	-2.996100	3.687800	-11.049000	24.449232	0.001038	20.752434
641.162780	-2.998000	3.686300	-11.051000	24.448907	0.001041	20.747367
642.162514	-2.991400	3.688100	-11.032000	24.432288	0.001040	20.773842
643.161370	-2.985700	3.687400	-11.007000	24.440548	0.001042	20.774069
644.163299	-3.017600	3.684900	-11.117000	24.488105	0.001039	20.758719
645.161106	-2.995100	3.687400	-11.042000	24.506614	0.001039	20.764961
646.166010	-3.006100	3.685400	-11.077000	24.503154	0.001041	20.751058
647.164649	-3.002100	3.684600	-11.059000	24.536457	0.001038	20.767876
648.161628	-2.993000	3.684900	-11.028000	24.528021	0.001039	20.766524
649.169420	-2.969200	3.685700	-10.941000	24.525683	0.001038	20.771765
650.164971	-2.996500	3.684100	-11.038000	24.512447	0.001039	20.758959
651.165963	-3.001100	3.684900	-11.057000	24.528141	0.001041	20.749100
652.166976	-3.002400	3.682900	-11.056000	24.531572	0.001039	20.775303
653.165706	-3.019400	3.683100	-11.119000	24.549925	0.001039	20.782812
654.165775	-3.011500	3.683200	-11.091000	24.593274	0.001039	20.748070
655.165690	-3.015400	3.681300	-11.099000	24.583597	0.001038	20.789570
656.163621	-3.003400	3.681800	-11.056000	24.555165	0.001040	20.784276
657.162895	-3.001500	3.681400	-11.049000	24.561477	0.001038	20.776859
658.166820	-2.985700	3.681600	-10.991000	24.533649	0.001036	20.766481
659.165265	-2.985700	3.680600	-10.987000	24.552449	0.001040	20.757369
660.170254	-3.009700	3.680000	-11.074000	24.554237	0.001040	20.754421
661.169251	-2.989900	3.681700	-11.006000	24.557192	0.001038	20.774930
662.173678	-3.023100	3.678800	-11.120000	24.560369	0.001036	20.773376
663.173069	-3.007800	3.678600	-11.063000	24.526943	0.001038	20.764020
664.168678	-3.001600	3.679700	-11.044000	24.536289	0.001036	20.788570
665.172392	-3.015800	3.680700	-11.098000	24.552032	0.001039	20.794409
666.169870	-3.014300	3.679000	-11.089000	24.565038	0.001038	20.776164
667.165635	-2.997700	3.678600	-11.025000	24.570903	0.001038	20.773513
668.165900	-2.991400	3.678300	-11.003000	24.562992	0.001037	20.782646
669.168011	-3.003300	3.678000	-11.045000	24.544361	0.001038	20.789083
670.168450	-2.978100	3.678500	-10.952000	24.508765	0.001035	20.772335
671.171868	-3.002800	3.677700	-11.042000	24.470082	0.001036	20.766241
672.168416	-2.969000	3.677900	-10.918000	24.459533	0.001034	20.793116
673.180514	-2.996100	3.678300	-11.019000	24.460944	0.001034	20.788841
674.170115	-3.011400	3.676900	-11.073000	24.472413	0.001033	20.791340
675.172928	-3.003500	3.676700	-11.041000	24.498480	0.001035	20.790466
676.175709	-3.007300	3.675900	-11.052000	24.502779	0.001033	20.792882
677.170866	-3.013800	3.674700	-11.073000	24.529368	0.001033	20.787316
678.169290	-3.038400	3.675200	-11.165000	24.561799	0.001034	20.773388
679.170513	-3.001800	3.677000	-11.036000	24.569582	0.001035	20.790207
680.174351	-2.999900	3.675600	-11.025000	24.591070	0.001033	20.799439
681.175671	-3.016900	3.673300	-11.081000	24.577288	0.001036	20.790826
682.175611	-3.025300	3.673400	-11.111000	24.582659	0.001034	20.784361
683.171791	-2.994300	3.674200	-11.001000	24.603673	0.001034	20.791222
684.173894	-3.005600	3.673900	-11.041000	24.634610	0.001033	20.785755
685.174294	-2.996200	3.674300	-11.008000	24.599240	0.001034	20.792464
686.176879	-3.016900	3.671700	-11.076000	24.608416	0.001033	20.791714
687.175824	-3.007500	3.671500	-11.040000	24.561580	0.001033	20.791660
688.173700	-3.013300	3.672200	-11.064000	24.553119	0.001033	20.788387
689.177878	-2.974500	3.672300	-10.922000	24.543540	0.001034	20.798691
690.174045	-2.992800	3.671700	-10.986000	24.557097	0.001033	20.792853
691.174410	-2.974600	3.673000	-10.925000	24.555252	0.001033	20.781519
692.176233	-3.004300	3.670400	-11.027000	24.581885	0.001033	20.799706
693.175039	-3.014300	3.670600	-11.063000	24.604018	0.001035	20.784455
694.179890	-3.000900	3.670800	-11.014000	24.610157	0.001034	20.780184
695.176454	-3.005300	3.670000	-11.028000	24.617044	0.001031	20.803216
696.175587	-3.002400	3.668700	-11.014000	24.642283	0.001032	20.799617
697.178407	-2.996100	3.669800	-10.995000	24.653623	0.001031	20.800092
698.176629	-2.974100	3.670500	-10.914000	24.675081	0.001032	20.798389
699.174842	-2.996700	3.669000	-10.994000	24.713178	0.001031	20.793945
700.180955	-3.030500	3.668000	-11.115000	24.724362	0.001032	20.814652
701.179615	-2.988700	3.669300	-10.965000	24.725381	0.001032	20.824683
702.177699	-3.019300	3.668200	-11.073000	24.704309	0.001030	20.812072
703.183710	-2.984900	3.668200	-10.948000	24.703784	0.001032	20.821976
704.179551	-2.984800	3.668400	-10.949000	24.716439	0.001029	20.822347
705.182859	-2.987800	3.668800	-10.960000	24.733001	0.001028	20.792027
706.181247	-2.996600	3.667500	-10.989000	24.720589	0.001030	20.831728
707.179528	-3.000900	3.667400	-11.004000	24.768356	0.001027	20.817075
708.183642	-3.000500	3.667100	-11.002000	24.765000	0.001028	20.824138
709.186018	-2.967500	3.667600	-10.882000	24.773645	0.001026	20.811951
710.178719	-3.007100	3.665200	-11.020000	24.752609	0.001028	20.833988
711.186453	-3.012100	3.664500	-11.036000	24.771159	0.001026	20.825578
712.182811	-2.972400	3.666300	-10.896000	24.761086	0.001026	20.830167
713.181740	-2.976500	3.665400	-10.908000	24.777820	0.001026	20.816141
714.184354	-3.001500	3.663700	-10.996000	24.771977	0.001027	20.833037
715.182033	-3.017700	3.662400	-11.050000	24.795273	0.001028	20.834130
716.185909	-3.004800	3.664600	-11.011000	24.824964	0.001027	20.828840
717.183987	-3.015900	3.663200	-11.046000	24.844754	0.001026	20.824520
718.183125	-2.987400	3.665100	-10.948000	24.865492	0.001024	20.826841
719.187592	-3.008300	3.663600	-11.020000	24.878942	0.001026	20.830383
720.187121	-2.990900	3.662400	-10.953000	24.908677	0.001025	20.841260
721.186014	-3.003500	3.662400	-10.999000	24.906766	0.001025	20.832230
722.186214	-3.009600	3.661900	-11.019000	24.900198	0.001025	20.831327
723.186018	-3.003800	3.662900	-11.002000	24.899401	0.001023	20.841433
724.189306	-3.016700	3.661000	-11.042000	24.899623	0.001023	20.832647
725.188086	-2.996600	3.662900	-10.976000	24.903128	0.001024	20.830001
726.190709	-3.011400	3.660900	-11.023000	24.872769	0.001023	20.815652
727.184767	-3.013500	3.661200	-11.032000	24.868566	0.001023	20.846047
728.188935	-3.048600	3.658900	-11.153000	24.855786	0.001023	20.842703
729.192310	-3.033300	3.658900	-11.097000	24.872670	0.001022	20.847795
730.188131	-3.007000	3.659100	-11.002000	24.857150	0.001024	20.815624
731.190924	-3.011200	3.659200	-11.018000	24.900692	0.001023	20.852211
732.188018	-2.986900	3.660200	-10.931000	24.866377	0.001023	20.859022
733.188885	-2.971600	3.659000	-10.872000	24.828553	0.001021	20.841451
734.189528	-3.012000	3.658200	-11.018000	24.834995	0.001023	20.829424
735.195770	-2.978400	3.658500	-10.894000	24.834247	0.001023	20.846217
736.193483	-2.991500	3.657700	-10.941000	24.861004	0.001021	20.840354
737.197247	-2.997000	3.657600	-10.961000	24.862791	0.001020	20.838355
738.191855	-2.993400	3.656800	-10.945000	24.872787	0.001021	20.841274
739.194448	-2.982700	3.657600	-10.908000	24.882186	0.001024	20.853077
740.201056	-3.011300	3.656300	-11.010000	24.886311	0.001022	20.839674
741.191566	-3.017100	3.656400	-11.031000	24.889417	0.001021	20.848481
742.199136	-2.991800	3.656900	-10.940000	24.907619	0.001022	20.835457
743.193205	-3.018300	3.656200	-11.034000	24.922063	0.001019	20.848057
744.190379	-2.993400	3.655800	-10.942000	24.899408	0.001019	20.853767
745.194178	-3.010300	3.655300	-11.003000	24.873203	0.001021	20.839320
746.198855	-2.988500	3.655900	-10.925000	24.898537	0.001019	20.856686
747.192307	-3.002100	3.655400	-10.973000	24.886649	0.001020	20.852816
748.195915	-2.981000	3.655500	-10.896000	24.862305	0.001020	20.867736
749.211238	-2.992700	3.654300	-10.934000	24.860292	0.001018	20.863820
750.194191	-2.984100	3.655400	-10.907000	24.831004	0.001016	20.858134
751.199873	-3.003900	3.655100	-10.977000	24.835153	0.001019	20.844755
752.193593	-2.974400	3.654600	-10.870000	24.807032	0.001017	20.852094
753.201232	-3.005300	3.654600	-10.982000	24.807257	0.001016	20.852794
754.197289	-3.013600	3.652500	-11.006000	24.778141	0.001016	20.839221
755.198680	-2.982600	3.653100	-10.894000	24.779082	0.001015	20.856287
756.197365	-3.011400	3.652800	-10.999000	24.749887	0.001014	20.848325
757.196279	-3.015800	3.652000	-11.013000	24.778884	0.001014	20.856563
758.195277	-3.011100	3.651400	-10.992000	24.791271	0.001015	20.870415
759.197888	-2.997000	3.652400	-10.945000	24.819442	0.001015	20.850799
760.205865	-2.997900	3.651200	-10.943000	24.850973	0.001014	20.868692
761.200406	-2.995100	3.651200	-10.935000	24.852267	0.001013	20.850077
762.205646	-2.999300	3.650900	-10.950000	24.828225	0.001015	20.853449
763.199659	-3.003100	3.649500	-10.959000	24.841179	0.001014	20.865500
764.207330	-2.988100	3.649700	-10.905000	24.805843	0.001014	20.849005
765.201018	-2.991300	3.650800	-10.919000	24.810071	0.001013	20.855618
766.205764	-3.015600	3.649800	-11.005000	24.809475	0.001014	20.862606
767.202037	-3.002000	3.649500	-10.955000	24.849633	0.001014	20.856442
768.207210	-3.013600	3.648400	-10.994000	24.879594	0.001013	20.870390
769.205703	-3.005600	3.647400	-10.962000	24.906223	0.001012	20.866771
770.204323	-3.001000	3.649200	-10.949000	24.930514	0.001011	20.861753
771.204879	-2.973500	3.648300	-10.847000	24.964029	0.001012	20.876426
772.203072	-2.981100	3.647900	-10.873000	24.951349	0.001012	20.875552
773.211315	-3.014000	3.647900	-10.992000	24.933327	0.001012	20.868844
774.206450	-3.019500	3.645900	-11.008000	24.943293	0.001012	20.866993
775.209161	-2.981000	3.647100	-10.871000	24.935953	0.001012	20.876695
776.207797	-2.992800	3.646600	-10.913000	24.941996	0.001012	20.867588
777.206670	-3.014600	3.645700	-10.989000	24.948257	0.001012	20.886199
778.210961	-3.006800	3.646500	-10.963000	24.970932	0.001012	20.888569
779.208528	-3.014300	3.646100	-10.989000	24.970061	0.001012	20.886273
780.210761	-2.994800	3.645700	-10.917000	25.000364	0.001011	20.875439
781.207943	-3.000800	3.645600	-10.939000	25.004143	0.001010	20.874491
782.208383	-3.006700	3.645500	-10.959000	25.011081	0.001011	20.879558
783.210007	-3.012000	3.644700	-10.978000	25.046600	0.001009	20.874434
784.211390	-2.989800	3.644100	-10.893000	25.072604	0.001011	20.890579
785.211565	-2.983000	3.643700	-10.868000	25.053932	0.001010	20.894595
786.213142	-3.003300	3.642800	-10.939000	25.028668	0.001009	20.909063
787.212926	-3.006800	3.643600	-10.955000	25.004799	0.001010	20.889847
788.215352	-3.005400	3.643500	-10.949000	24.988164	0.001007	20.886425
789.217299	-3.008200	3.642300	-10.955000	24.986295	0.001010	20.892136
790.216791	-3.008200	3.641900	-10.954000	24.966381	0.001006	20.882579
791.216922	-2.992400	3.641900	-10.897000	24.990744	0.001007	20.899920
792.214447	-3.004400	3.643000	-10.943000	24.998993	0.001006	20.887338
793.220813	-2.988000	3.642100	-10.880000	25.040611	0.001007	20.899241
794.225267	-3.004500	3.640500	-10.936000	25.041105	0.001006	20.898314
795.217619	-3.038200	3.639500	-11.056000	25.064448	0.001004	20.897564
796.217921	-2.992200	3.641000	-10.893000	25.079436	0.001005	20.895066
797.225489	-2.996600	3.640100	-10.907000	25.077222	0.001002	20.898533
798.222204	-3.000200	3.639100	-10.916000	25.086694	0.001003	20.898084
799.220412	-2.992000	3.640500	-10.890000	25.064938	0.001003	20.900900
800.219573	-3.002900	3.639300	-10.927000	25.105855	0.001004	20.913525
801.220581	-3.015900	3.639000	-10.974000	25.134322	0.001003	20.912230
802.221317	-3.002100	3.638900	-10.923000	25.160969	0.001002	20.902946
803.216624	-2.993900	3.639100	-10.894000	25.174218	0.001004	20.894436
804.222113	-2.994000	3.638900	-10.892000	25.162488	0.001004	20.909212
805.220117	-3.010200	3.637800	-10.950000	25.178419	0.001001	20.895809
806.222317	-3.003100	3.637900	-10.924000	25.181200	0.001001	20.900971
807.219558	-3.008700	3.636500	-10.939000	25.189155	0.001002	20.900423
808.221625	-3.000600	3.637700	-10.913000	25.165117	0.001000	20.916118
809.227435	-2.999000	3.635800	-10.903000	25.164867	0.001003	20.929142
810.228922	-2.979200	3.636900	-10.834000	25.185899	0.001000	20.911377
811.224177	-2.990200	3.637300	-10.875000	25.194174	0.001002	20.931063
812.223441	-3.013000	3.635800	-10.953000	25.218980	0.001002	20.892908
813.225368	-2.994700	3.636000	-10.888000	25.195789	0.001001	20.915616
814.221426	-2.992400	3.636400	-10.880000	25.211371	0.001001	20.894751
815.221798	-2.988100	3.635400	-10.861000	25.185641	0.001000	20.908274
816.223773	-3.009600	3.634700	-10.938000	25.182015	0.001003	20.903211
817.223896	-3.004200	3.634200	-10.917000	25.154765	0.001001	20.899089
818.223415	-3.002400	3.634200	-10.909000	25.147727	0.001000	20.923315
819.224295	-2.983000	3.634900	-10.841000	25.102384	0.001000	20.896291
820.224442	-2.985100	3.634900	-10.849000	25.062206	0.000999	20.917123
821.226677	-3.004200	3.633400	-10.915000	25.062132	0.000999	20.892395
822.226725	-3.002800	3.633000	-10.908000	25.069662	0.000998	20.914650
823.227300	-2.991800	3.634600	-10.872000	25.048332	0.000999	20.903197
824.227153	-2.994800	3.632800	-10.878000	25.035871	0.000999	20.896379
825.226668	-2.991400	3.633600	-10.868000	25.042509	0.000997	20.908257
826.228971	-2.994600	3.632800	-10.878000	25.021376	0.000997	20.891313
827.229799	-3.005300	3.632300	-10.915000	25.033753	0.000996	20.900891
828.224730	-2.989100	3.632300	-10.856000	25.075292	0.000996	20.889010
829.226410	-2.998400	3.631100	-10.886000	25.083819	0.000995	20.916059
830.232353	-2.990700	3.631400	-10.859000	25.080385	0.000996	20.895545
831.228021	-2.998700	3.631900	-10.890000	25.122448	0.000994	20.882769
832.231759	-2.999200	3.629600	-10.885000	25.121722	0.000994	20.903375
833.225181	-2.996600	3.630900	-10.879000	25.143745	0.000993	20.903672
834.227351	-2.991700	3.629100	-10.856000	25.154682	0.000993	20.892842
835.229153	-2.985500	3.630200	-10.837000	25.152144	0.000994	20.889346
836.229552	-2.999100	3.629300	-10.883000	25.145032	0.000993	20.922980
837.227416	-2.997300	3.628000	-10.874000	25.148190	0.000993	20.915720
838.229012	-2.984900	3.629500	-10.833000	25.154675	0.000993	20.897102
839.227234	-2.993800	3.628300	-10.861000	25.181417	0.000992	20.902137
840.233307	-3.018000	3.627700	-10.947000	25.200929	0.000991	20.882847
841.233027	-2.990500	3.629000	-10.851000	25.215295	0.000993	20.915759
842.230621	-3.002700	3.627000	-10.890000	25.243308	0.000990	20.903107
843.236300	-2.999300	3.627800	-10.879000	25.258121	0.000992	20.896643
844.232987	-3.001200	3.627300	-10.884000	25.276289	0.000988	20.875530
845.233359	-2.998400	3.626000	-10.871000	25.259358	0.000988	20.887929
846.233770	-2.983200	3.627200	-10.819000	25.288092	0.000989	20.899233
847.235448	-3.003900	3.625100	-10.888000	25.297534	0.000988	20.903971
848.237171	-3.008400	3.625700	-10.906000	25.309516	0.000987	20.891346
849.234724	-2.974400	3.626000	-10.783000	25.297386	0.000988	20.881539
850.234672	-3.008000	3.624800	-10.903000	25.302802	0.000989	20.897407
851.234706	-2.973100	3.625200	-10.777000	25.289703	0.000990	20.889945
852.234130	-3.000600	3.625400	-10.877000	25.272254	0.000985	20.897556
853.240795	-2.993400	3.624100	-10.847000	25.254654	0.000987	20.877042
854.235850	-2.992000	3.623400	-10.840000	25.230892	0.000985	20.893013
855.234487	-2.987000	3.624700	-10.824000	25.241748	0.000986	20.900118
856.237315	-3.000700	3.623900	-10.873000	25.245353	0.000986	20.875291
857.232360	-3.003700	3.623500	-10.883000	25.244631	0.000983	20.892108
858.236753	-2.999600	3.623200	-10.867000	25.200162	0.000986	20.897723
859.241450	-3.002700	3.623100	-10.878000	25.239806	0.000986	20.866877
860.238302	-2.999800	3.621400	-10.863000	25.209354	0.000985	20.900787
861.235309	-2.995000	3.623400	-10.852000	25.174253	0.000984	20.871240
862.239678	-3.002200	3.622400	-10.874000	25.174799	0.000984	20.884115
863.239055	-3.019100	3.621500	-10.932000	25.139274	0.000985	20.862677
864.242610	-2.999100	3.620600	-10.856000	25.155033	0.000986	20.868540
865.237043	-3.009600	3.621100	-10.897000	25.100040	0.000984	20.863594
866.238194	-2.991300	3.620600	-10.828000	25.072172	0.000984	20.867387
867.240570	-3.007100	3.619200	-10.881000	25.045266	0.000984	20.873095
868.244228	-3.002900	3.619100	-10.867000	25.036139	0.000987	20.861090
869.245546	-3.000100	3.619800	-10.859000	25.012518	0.000982	20.882422
870.240418	-3.002900	3.620500	-10.870000	25.016515	0.000982	20.866996
871.243831	-3.007600	3.617700	-10.880000	24.991402	0.000984	20.856961
872.246148	-3.010100	3.618700	-10.891000	25.016534	0.000983	20.858006
873.243632	-2.995200	3.619200	-10.838000	25.052303	0.000982	20.882055
874.251201	-2.991800	3.618800	-10.825000	25.081737	0.000983	20.869877
875.248488	-2.976400	3.618900	-10.770000	25.103980	0.000980	20.868023
876.242404	-3.012700	3.616900	-10.894000	25.097392	0.000982	20.860936
877.247797	-3.022700	3.616500	-10.930000	25.100794	0.000981	20.861506
878.245948	-3.024100	3.616300	-10.935000	25.102556	0.000980	20.867069
879.244516	-3.017800	3.614600	-10.907000	25.061008	0.000981	20.877043
880.248114	-3.016500	3.614700	-10.903000	25.109931	0.000980	20.862618
881.244631	-2.981500	3.617600	-10.784000	25.064781	0.000981	20.879882
882.249372	-2.996000	3.617400	-10.837000	25.084863	0.000980	20.853575
883.246029	-3.007000	3.615800	-10.871000	25.105692	0.000977	20.888707
884.247842	-3.020600	3.614400	-10.917000	25.143573	0.000977	20.860829
885.252231	-3.012300	3.615400	-10.889000	25.155004	0.000976	20.875623
886.247285	-3.004400	3.614000	-10.857000	25.179413	0.000976	20.895858
887.247061	-3.006600	3.614200	-10.865000	25.179558	0.000978	20.858548
888.252542	-3.017800	3.615200	-10.908000	25.190016	0.000976	20.862409
889.249149	-3.022300	3.613100	-10.918000	25.200477	0.000979	20.864851
890.248682	-2.998400	3.613000	-10.833000	25.226005	0.000976	20.871039
891.250950	-2.999500	3.611700	-10.832000	25.268630	0.000975	20.878746
892.251270	-3.009600	3.613600	-10.875000	25.309861	0.000975	20.867513
893.248229	-2.976600	3.612700	-10.752000	25.324645	0.000975	20.877615
894.250099	-3.010100	3.611400	-10.868000	25.354340	0.000975	20.853853
895.251316	-3.009500	3.611600	-10.868000	25.352297	0.000974	20.868396
896.256670	-2.996000	3.611900	-10.820000	25.327117	0.000972	20.877726
897.247154	-2.981600	3.612000	-10.769000	25.302357	0.000973	20.865194
898.254519	-3.005400	3.610600	-10.849000	25.302727	0.000973	20.860825
899.255600	-2.991700	3.610600	-10.801000	25.300289	0.000970	20.859325
900.254162	-2.983200	3.611500	-10.772000	25.335278	0.000971	20.850834
901.257616	-2.981500	3.610700	-10.764000	25.341438	0.000974	20.863183
902.256710	-3.019900	3.609500	-10.898000	25.352275	0.000971	20.865529
903.259364	-3.021600	3.607400	-10.899000	25.353093	0.000971	20.861135
904.257005	-3.006200	3.608400	-10.846000	25.346102	0.000969	20.847952
905.254930	-2.990900	3.610300	-10.796000	25.308694	0.000970	20.856858
906.256229	-3.004100	3.607600	-10.837000	25.312095	0.000968	20.863118
907.253981	-2.993000	3.607900	-10.798000	25.287066	0.000967	20.869281
908.253254	-3.011800	3.608200	-10.866000	25.298394	0.000968	20.880654
909.259943	-2.985600	3.607500	-10.768000	25.322080	0.000966	20.867453
910.253510	-2.991800	3.607800	-10.793000	25.340173	0.000966	20.867128
911.257519	-2.989700	3.606500	-10.782000	25.349118	0.000966	20.852402
912.260013	-3.003100	3.607000	-10.830000	25.347500	0.000963	20.858364
913.254875	-3.048600	3.605500	-10.991000	25.360519	0.000966	20.865272
914.258137	-3.018500	3.606000	-10.883000	25.370263	0.000965	20.864624
915.261997	-3.000400	3.605900	-10.816000	25.341327	0.000962	20.879666
916.258263	-2.976900	3.606200	-10.734000	25.337151	0.000963	20.861249
917.262868	-3.004200	3.604000	-10.826000	25.362127	0.000963	20.834171
918.267107	-2.992800	3.605200	-10.789000	25.348905	0.000962	20.866886
919.257285	-3.010100	3.605400	-10.852000	25.350469	0.000960	20.860397
920.260807	-2.999600	3.604000	-10.809000	25.363664	0.000963	20.850413
921.261726	-3.005200	3.604600	-10.831000	25.321108	0.000961	20.860314
922.258409	-2.983300	3.603300	-10.748000	25.350362	0.000963	20.839901
923.263654	-2.994900	3.603100	-10.790000	25.361571	0.000963	20.845467
924.260471	-3.013200	3.603300	-10.856000	25.373618	0.000961	20.860407
925.264069	-3.010200	3.602500	-10.844000	25.396136	0.000960	20.843189
926.257810	-3.007900	3.601900	-10.833000	25.398420	0.000961	20.860180
927.256680	-2.988700	3.603400	-10.768000	25.423767	0.000960	20.863348
928.260165	-3.000300	3.601500	-10.803000	25.429329	0.000961	20.851863
929.261535	-2.991300	3.602200	-10.774000	25.437229	0.000958	20.875917
930.258550	-2.977100	3.603000	-10.725000	25.429949	0.000958	20.861969
931.261798	-3.009700	3.601100	-10.836000	25.403799	0.000957	20.844720
932.258440	-3.004200	3.600800	-10.816000	25.426138	0.000959	20.845340
933.261652	-3.020300	3.598900	-10.869000	25.423971	0.000959	20.829415
934.262675	-2.976100	3.600700	-10.715000	25.409756	0.000957	20.852124
935.258270	-3.003000	3.598400	-10.804000	25.361359	0.000955	20.834823
936.263759	-3.011800	3.597500	-10.834000	25.396874	0.000957	20.858155
937.265657	-2.979200	3.599100	-10.721000	25.391726	0.000956	20.854408
938.263116	-2.988000	3.598400	-10.752000	25.431663	0.000957	20.851362
939.265670	-3.001500	3.599300	-10.803000	25.405239	0.000954	20.851855
940.263907	-3.011600	3.599200	-10.837000	25.424000	0.000954	20.821857
941.267432	-2.999700	3.599100	-10.796000	25.418183	0.000955	20.858214
942.262650	-2.990800	3.598000	-10.760000	25.443928	0.000954	20.851350
943.262692	-2.980700	3.597300	-10.721000	25.477647	0.000952	20.836373
944.264677	-2.998900	3.596700	-10.785000	25.481844	0.000952	20.864295
945.264060	-3.005000	3.595800	-10.804000	25.492355	0.000952	20.840238
946.265890	-2.998800	3.596500	-10.784000	25.503928	0.000951	20.861342
947.268634	-3.010700	3.594000	-10.819000	25.507261	0.000950	20.847146
948.266954	-2.999800	3.594200	-10.781000	25.503928	0.000951	20.856600
949.263739	-3.002000	3.594500	-10.789000	25.490112	0.000949	20.840830
950.265624	-3.007600	3.593600	-10.807000	25.481314	0.000947	20.841004
951.268819	-3.009100	3.594000	-10.813000	25.477333	0.000946	20.853601
952.273317	-2.989300	3.595800	-10.747000	25.487971	0.000948	20.847214
953.265461	-3.027900	3.593400	-10.880000	25.450518	0.000948	20.836631
954.269811	-2.980000	3.594200	-10.710000	25.441618	0.000948	20.839074
955.272035	-2.983200	3.593600	-10.719000	25.442834	0.000946	20.837450
956.268327	-2.985500	3.593200	-10.726000	25.459632	0.000945	20.864748
957.265244	-2.983600	3.592100	-10.716000	25.473050	0.000947	20.839818
958.268840	-3.019600	3.591900	-10.844000	25.443253	0.000944	20.836449
959.271871	-3.024200	3.590600	-10.858000	25.398219	0.000944	20.850971
960.268447	-2.993200	3.592500	-10.751000	25.369634	0.000942	20.844079
961.273375	-3.016600	3.590500	-10.830000	25.322661	0.000945	20.835795
962.273578	-2.993800	3.591200	-10.750000	25.300787	0.000943	20.838014
963.269156	-2.978300	3.591900	-10.697000	25.304864	0.000942	20.843530
964.270343	-3.017800	3.589000	-10.828000	25.360088	0.000941	20.843029
965.272415	-3.024200	3.588900	-10.853000	25.389041	0.000942	20.852660
966.276835	-3.017100	3.590000	-10.829000	25.397963	0.000941	20.837438
967.273119	-2.984600	3.590500	-10.715000	25.444631	0.000942	20.854427
968.276150	-3.010200	3.589400	-10.802000	25.455941	0.000938	20.852034
969.270365	-2.993500	3.589200	-10.743000	25.439736	0.000939	20.828650
970.273506	-3.017600	3.587000	-10.823000	25.416376	0.000940	20.849289
971.270920	-3.006800	3.587200	-10.784000	25.395226	0.000939	20.831371
972.275652	-2.978400	3.589100	-10.689000	25.381705	0.000937	20.825380
973.269138	-2.995400	3.587600	-10.744000	25.352474	0.000938	20.834436
974.276124	-3.003600	3.586800	-10.772000	25.348573	0.000936	20.818665
975.271503	-2.967900	3.587100	-10.645000	25.365523	0.000936	20.840426
976.276126	-3.002200	3.587600	-10.770000	25.368804	0.000937	20.841349
977.279060	-3.001900	3.586300	-10.764000	25.375761	0.000935	20.832688
978.273498	-3.019800	3.584600	-10.824000	25.425938	0.000936	20.832812
979.276453	-3.026300	3.585500	-10.850000	25.416099	0.000934	20.846165
980.272365	-3.004500	3.584400	-10.768000	25.392986	0.000934	20.821061
981.274983	-2.997900	3.584200	-10.744000	25.358465	0.000933	20.824330
982.275218	-2.990500	3.584800	-10.720000	25.310143	0.000934	20.828917
983.279368	-3.034200	3.584200	-10.874000	25.303455	0.000932	20.832633
984.273346	-2.999900	3.584000	-10.750000	25.307233	0.000931	20.824572
985.275609	-2.991900	3.583900	-10.722000	25.298263	0.000930	20.821730
986.272655	-3.006000	3.584000	-10.773000	25.306390	0.000932	20.845062
987.276187	-3.021700	3.582800	-10.825000	25.325823	0.000930	20.833281
988.279482	-3.005200	3.582400	-10.764000	25.329227	0.000932	20.830061
989.279418	-2.995900	3.584900	-10.739000	25.391212	0.000931	20.794150
990.277460	-2.985500	3.585200	-10.701000	25.396255	0.000930	20.817705
991.278879	-3.008400	3.581300	-10.773000	25.430827	0.000932	20.813066
992.273355	-2.975700	3.583500	-10.661000	25.420112	0.000929	20.810841
993.277931	-2.993200	3.581800	-10.719000	25.426174	0.000929	20.834945
994.276068	-2.994700	3.581100	-10.722000	25.381410	0.000928	20.815128
995.277895	-2.984000	3.580900	-10.684000	25.371197	0.000930	20.814830
996.275772	-2.981900	3.580700	-10.674000	25.351534	0.000929	20.815001
997.276911	-3.016600	3.578700	-10.795000	25.333040	0.000929	20.832941
998.275613	-2.983000	3.579100	-10.676000	25.333587	0.000929	20.827800
999.279979	-2.999500	3.579900	-10.737000	25.321676	0.000928	20.816315
1000.276786	-2.997500	3.580000	-10.731000	25.294459	0.000926	20.806532
1001.277071	-2.989900	3.579100	-10.700000	25.271214	0.000926	20.830134
1002.277143	-2.997400	3.578900	-10.725000	25.269303	0.000927	20.807828
1003.276613	-2.987800	3.578300	-10.689000	25.230720	0.000926	20.803229
1004.279017	-3.003400	3.577700	-10.744000	25.196191	0.000925	20.805548
1005.276716	-2.983500	3.578900	-10.676000	25.177546	0.000925	20.814330
1006.279795	-2.994900	3.578000	-10.714000	25.194274	0.000922	20.820218
1007.276378	-3.003900	3.577100	-10.744000	25.168168	0.000924	20.801597
1008.278811	-2.987000	3.576800	-10.682000	25.184622	0.000923	20.820012
1009.280069	-2.973600	3.577000	-10.635000	25.226381	0.000922	20.796977
1010.281043	-3.001700	3.575200	-10.731000	25.250838	0.000923	20.806358
1011.279175	-2.984300	3.575900	-10.670000	25.301940	0.000921	20.824475
1012.282620	-2.986700	3.575300	-10.677000	25.324034	0.000920	20.797820
1013.279697	-3.001700	3.575400	-10.730000	25.382288	0.000920	20.817431
1014.286429	-2.996400	3.573700	-10.706000	25.402596	0.000920	20.804158
1015.278260	-3.009000	3.573200	-10.751000	25.439671	0.000918	20.812464
1016.279326	-2.998100	3.574200	-10.715000	25.452442	0.000920	20.807744
1017.277588	-2.967200	3.574200	-10.604000	25.475156	0.000918	20.801156
1018.283421	-3.002400	3.572300	-10.724000	25.529377	0.000918	20.799182
1019.281709	-3.000900	3.573000	-10.720000	25.545801	0.000917	20.810934
1020.283203	-3.001600	3.573700	-10.726000	25.557431	0.000917	20.800803
1021.283939	-3.015200	3.571800	-10.768000	25.545798	0.000917	20.807612
1022.289169	-2.979400	3.572300	-10.642000	25.509242	0.000915	20.796031
1023.281130	-2.999800	3.572700	-10.716000	25.501811	0.000918	20.807061
1024.281480	-3.001500	3.571500	-10.718000	25.456310	0.000916	20.785076
1025.284635	-3.015300	3.570100	-10.764000	25.452752	0.000917	20.782451
1026.284626	-2.994100	3.572700	-10.696000	25.495149	0.000915	20.814120
1027.285030	-3.027900	3.570500	-10.809000	25.529440	0.000914	20.792133
1028.285198	-3.012300	3.569600	-10.752000	25.545441	0.000913	20.806305
1029.285597	-2.987500	3.568400	-10.659000	25.567406	0.000913	20.791380
1030.286902	-2.999200	3.568800	-10.701000	25.600156	0.000912	20.794399
1031.285312	-2.984700	3.570100	-10.654000	25.570607	0.000914	20.803604
1032.289975	-2.984100	3.569800	-10.651000	25.603378	0.000912	20.800954
1033.285376	-2.971700	3.569300	-10.605000	25.632350	0.000910	20.811085
1034.288344	-2.996900	3.567700	-10.692000	25.606406	0.000910	20.800202
1035.289994	-2.990300	3.568900	-10.670000	25.648495	0.000908	20.796955
1036.289449	-2.965900	3.569900	-10.587000	25.652392	0.000911	20.810352
1037.289814	-3.013300	3.566000	-10.744000	25.631024	0.000909	20.800271
1038.287432	-2.973900	3.568300	-10.610000	25.624912	0.000908	20.807882
1039.294796	-2.949400	3.568000	-10.522000	25.633454	0.000907	20.798443
1040.288138	-3.003800	3.564700	-10.706000	25.652088	0.000906	20.789658
1041.296900	-3.008000	3.566100	-10.726000	25.675440	0.000904	20.790827
1042.289443	-3.007300	3.565200	-10.721000	25.676804	0.000905	20.801206
1043.288797	-3.005000	3.564000	-10.709000	25.661000	0.000905	20.794342
1044.290167	-3.010100	3.565200	-10.731000	25.649867	0.000904	20.797385
1045.293169	-2.970200	3.565800	-10.589000	25.619700	0.000904	20.804070
1046.294641	-3.006200	3.564500	-10.713000	25.639352	0.000903	20.806264
1047.292348	-2.998900	3.563600	-10.686000	25.616639	0.000903	20.814273
1048.291523	-2.971600	3.564500	-10.591000	25.603991	0.000898	20.781181
1049.292297	-2.997600	3.563600	-10.680000	25.588905	0.000902	20.800644
1050.294902	-2.964500	3.563700	-10.564000	25.567706	0.000901	20.781250
1051.295452	-2.986200	3.562300	-10.637000	25.566414	0.000899	20.787538
1052.294300	-3.003800	3.562500	-10.701000	25.529411	0.000897	20.802061
1053.296091	-3.010400	3.561900	-10.722000	25.541635	0.000899	20.797267
1054.296893	-2.997700	3.561600	-10.676000	25.550257	0.000898	20.785537
1055.296227	-2.994300	3.562000	-10.665000	25.540814	0.000897	20.799762
1056.297410	-2.996900	3.560200	-10.668000	25.535821	0.000896	20.790480
1057.303183	-3.000800	3.561300	-10.685000	25.575626	0.000895	20.795842
1058.294707	-2.977100	3.561000	-10.600000	25.590015	0.000895	20.792749
1059.298676	-3.009000	3.560400	-10.712000	25.625470	0.000895	20.780942
1060.298814	-2.988600	3.560000	-10.639000	25.645696	0.000893	20.801256
1061.297035	-2.989900	3.558100	-10.636000	25.688903	0.000891	20.798185
1062.305205	-2.980900	3.559200	-10.608000	25.673821	0.000891	20.781140
1063.302379	-2.986800	3.559900	-10.632000	25.659980	0.000891	20.783834
1064.303176	-2.987000	3.559200	-10.630000	25.626510	0.000891	20.800005
1065.300646	-2.985300	3.558600	-10.622000	25.603028	0.000888	20.800129
1066.300790	-2.989800	3.557100	-10.634000	25.572365	0.000886	20.816749
1067.299466	-2.971000	3.557600	-10.569000	25.542868	0.000890	20.806566
1068.302769	-3.014600	3.555800	-10.717000	25.531635	0.000888	20.807139
1069.302086	-2.985600	3.556200	-10.616000	25.500273	0.000887	20.811205
1070.299150	-3.021700	3.555100	-10.741000	25.516724	0.000887	20.802122
1071.301919	-3.000300	3.557300	-10.671000	25.507753	0.000888	20.823459
1072.301733	-2.986500	3.555800	-10.619000	25.500446	0.000885	20.785301
1073.304433	-2.995400	3.554500	-10.646000	25.526041	0.000886	20.805789
1074.300672	-3.021600	3.554100	-10.737000	25.546568	0.000884	20.788945
1075.306271	-3.023200	3.553900	-10.742000	25.570743	0.000883	20.794257
1076.297801	-3.002100	3.554300	-10.669000	25.543112	0.000884	20.791164
1077.296069	-2.992900	3.553500	-10.634000	25.531259	0.000884	20.796804
1078.306190	-3.007000	3.553400	-10.685000	25.529596	0.000883	20.795134
1079.304378	-3.013900	3.553000	-10.708000	25.546966	0.000881	20.814001
1080.300866	-3.003100	3.552000	-10.665000	25.572212	0.000881	20.811379
1081.301941	-3.003200	3.552300	-10.668000	25.549947	0.000881	20.796606
1082.301455	-3.014300	3.551900	-10.704000	25.530021	0.000879	20.799828
1083.299026	-3.014200	3.552400	-10.707000	25.526963	0.000880	20.797706
1084.323781	-3.016400	3.551800	-10.713000	25.534273	0.000879	20.814056
1085.318370	-3.007600	3.552000	-10.682000	25.572316	0.000880	20.808165
1086.303299	-2.996300	3.550600	-10.637000	25.560790	0.000878	20.798486
1087.302458	-3.012800	3.550800	-10.696000	25.587800	0.000880	20.826085
1088.304093	-3.006000	3.548900	-10.667000	25.595277	0.000879	20.786654
1089.306636	-3.022700	3.549400	-10.727000	25.601368	0.000876	20.809840
1090.303827	-3.017300	3.550500	-10.712000	25.574756	0.000880	20.794968
1091.304746	-3.006700	3.549700	-10.672000	25.562305	0.000876	20.802378
1092.302299	-3.016300	3.548700	-10.704000	25.558577	0.000876	20.814281
1093.302867	-2.993900	3.549600	-10.626000	25.586010	0.000876	20.811960
1094.305675	-2.996700	3.548300	-10.633000	25.555275	0.000877	20.803853
1095.305851	-2.980800	3.548400	-10.575000	25.578903	0.000876	20.817151
1096.303153	-2.999700	3.547900	-10.641000	25.584893	0.000875	20.805623
1097.305378	-3.013900	3.547600	-10.691000	25.576444	0.000877	20.803776
1098.301802	-3.013200	3.546800	-10.687000	25.586309	0.000875	20.800881
1099.308674	-2.989800	3.546800	-10.603000	25.642241	0.000876	20.803949
1100.303191	-3.021800	3.545600	-10.713000	25.656826	0.000875	20.800581
1101.306975	-3.012700	3.546500	-10.683000	25.674392	0.000876	20.800680
1102.308432	-2.990700	3.546300	-10.604000	25.675361	0.000873	20.821567
1103.306665	-3.011600	3.546500	-10.681000	25.685025	0.000872	20.797135
1104.306269	-3.001800	3.545300	-10.641000	25.679061	0.000872	20.808214
1105.305259	-2.991800	3.545400	-10.605000	25.692801	0.000872	20.833868
1106.303582	-3.023000	3.543100	-10.710000	25.711211	0.000872	20.813005
1107.303114	-3.024700	3.542400	-10.714000	25.693023	0.000872	20.796633
1108.305466	-3.010200	3.542700	-10.663000	25.721968	0.000871	20.799627
1109.303288	-3.030800	3.542100	-10.734000	25.743408	0.000870	20.789869
1110.302080	-2.994300	3.543500	-10.608000	25.725346	0.000870	20.805866
1111.305951	-3.001000	3.543100	-10.632000	25.700351	0.000867	20.803520
1112.300980	-3.009500	3.541200	-10.656000	25.737768	0.000869	20.813127
1113.303315	-3.003800	3.541000	-10.634000	25.742810	0.000867	20.819139
1114.302756	-3.003300	3.542600	-10.638000	25.771827	0.000868	20.807509
1115.301711	-2.990700	3.542000	-10.591000	25.750409	0.000868	20.823453
1116.307486	-2.992000	3.540300	-10.591000	25.733215	0.000866	20.805235
1117.304081	-3.015900	3.539800	-10.675000	25.709664	0.000866	20.822356
1118.304636	-2.991600	3.541200	-10.593000	25.714009	0.000863	20.803013
1119.303480	-3.001200	3.540700	-10.625000	25.680889	0.000865	20.807680
1120.310860	-3.017700	3.538300	-10.676000	25.666178	0.000864	20.822775
1121.307475	-3.009500	3.538300	-10.647000	25.652537	0.000862	20.816661
1122.306604	-3.013500	3.539000	-10.663000	25.646674	0.000865	20.806980
1123.305664	-3.020400	3.537000	-10.682000	25.634943	0.000862	20.823647
1124.312584	-2.997500	3.537500	-10.602000	25.629849	0.000862	20.824694
1125.306006	-3.010700	3.536700	-10.647000	25.599532	0.000861	20.824118
1126.307190	-2.998500	3.538100	-10.608000	25.603606	0.000860	20.825838
1127.308143	-2.983600	3.537500	-10.552000	25.595805	0.000862	20.808995
1128.305646	-2.999000	3.536400	-10.605000	25.628477	0.000859	20.808618
1129.307786	-2.969700	3.538400	-10.507000	25.642837	0.000859	20.842480
1130.307981	-2.994500	3.536900	-10.590000	25.660453	0.000858	20.826983
1131.311768	-3.005800	3.534900	-10.624000	25.681672	0.000861	20.839760
1132.315351	-3.008200	3.537400	-10.640000	25.685471	0.000857	20.828877
1133.311096	-3.018500	3.535500	-10.672000	25.724203	0.000860	20.827951
1134.311646	-3.001700	3.534100	-10.607000	25.732179	0.000859	20.826479
1135.314757	-3.003700	3.533800	-10.614000	25.703158	0.000858	20.826253
1136.311559	-3.017500	3.533700	-10.661000	25.700770	0.000855	20.811527
1137.310285	-3.019600	3.534400	-10.671000	25.760746	0.000857	20.845690
1138.313065	-3.005500	3.534200	-10.620000	25.788443	0.000855	20.826096
1139.313489	-3.000800	3.534200	-10.603000	25.789733	0.000854	20.825021
1140.309976	-2.969300	3.534800	-10.495000	25.769782	0.000853	20.823472
1141.311832	-3.004200	3.532300	-10.611000	25.770031	0.000852	20.819930
1142.315994	-3.007300	3.532900	-10.623000	25.820113	0.000853	20.857433
1143.313634	-2.997200	3.532700	-10.587000	25.819540	0.000851	20.831728
1144.314468	-2.999900	3.531800	-10.594000	25.803293	0.000851	20.833426
1145.313824	-3.021000	3.529000	-10.659000	25.802100	0.000850	20.824641
1146.314562	-2.995200	3.531400	-10.576000	25.812034	0.000849	20.839836
1147.314557	-2.990600	3.530300	-10.557000	25.811538	0.000851	20.840285
1148.317935	-3.009900	3.530300	-10.624000	25.810443	0.000849	20.854358
1149.317480	-2.993900	3.530500	-10.569000	25.819584	0.000849	20.837937
1150.317538	-3.014500	3.529800	-10.639000	25.837022	0.000849	20.844073
1151.318641	-3.003200	3.528100	-10.595000	25.841023	0.000848	20.858523
1152.317263	-2.995600	3.528600	-10.569000	25.881412	0.000848	20.837932
1153.319110	-3.013400	3.527400	-10.627000	25.897608	0.000846	20.852779
1154.317392	-3.007800	3.528600	-10.612000	25.866503	0.000848	20.842395
1155.316512	-3.024600	3.525800	-10.664000	25.845906	0.000845	20.829764
1156.315790	-2.988300	3.526200	-10.536000	25.811770	0.000846	20.852845
1157.317290	-3.028400	3.526800	-10.679000	25.785909	0.000846	20.849154
1158.319810	-2.972600	3.527200	-10.484000	25.779175	0.000844	20.863251
1159.320919	-2.992400	3.526600	-10.552000	25.718305	0.000845	20.830087
1160.319828	-2.989000	3.527500	-10.541000	25.747768	0.000844	20.858731
1161.320057	-3.011200	3.525700	-10.614000	25.757132	0.000845	20.834947
1162.318734	-3.001300	3.524500	-10.577000	25.770072	0.000844	20.836566
1163.319835	-2.994900	3.524700	-10.555000	25.798170	0.000843	20.880434
1164.325763	-2.993000	3.525300	-10.550000	25.779017	0.000842	20.839860
1165.316772	-2.993700	3.525000	-10.552000	25.783013	0.000841	20.858098
1166.318411	-3.010900	3.523300	-10.607000	25.795333	0.000839	20.837283
1167.320587	-3.017800	3.523100	-10.631000	25.811629	0.000841	20.861238
1168.319349	-3.002900	3.522400	-10.576000	25.812795	0.000840	20.837755
1169.323664	-3.004300	3.521400	-10.578000	25.775949	0.000839	20.855271
1170.317645	-2.997600	3.522400	-10.558000	25.760248	0.000838	20.852776
1171.318508	-2.993200	3.522800	-10.544000	25.787600	0.000837	20.865550
1172.320933	-2.988700	3.521000	-10.521000	25.801410	0.000839	20.878473
1173.321313	-3.010200	3.519700	-10.594000	25.817159	0.000838	20.862526
1174.319483	-2.977800	3.522300	-10.488000	25.879042	0.000836	20.850723
1175.321048	-3.014500	3.520700	-10.611000	25.867412	0.000835	20.876497
1176.323352	-3.007600	3.518400	-10.581000	25.816534	0.000836	20.850045
1177.321982	-3.007800	3.520200	-10.586000	25.799067	0.000836	20.869956
1178.325989	-2.994900	3.519500	-10.540000	25.787488	0.000835	20.856430
1179.325610	-2.993000	3.517900	-10.527000	25.829074	0.000835	20.885873
1180.324631	-3.011400	3.518500	-10.595000	25.843681	0.000832	20.842702
1181.321677	-2.993600	3.518900	-10.534000	25.849936	0.000834	20.863209
1182.322114	-3.007600	3.515900	-10.574000	25.877559	0.000832	20.870569
1183.320157	-3.011200	3.516500	-10.588000	25.885608	0.000832	20.863482
1184.320907	-3.002900	3.517000	-10.561000	25.919786	0.000831	20.875532
1185.324121	-3.009600	3.515400	-10.578000	25.959730	0.000832	20.860186
1186.321253	-3.008200	3.516400	-10.577000	25.990427	0.000832	20.864947
1187.327806	-3.011900	3.514900	-10.585000	25.996837	0.000830	20.887980
1188.322572	-2.998100	3.517400	-10.545000	26.014817	0.000829	20.874752
1189.323007	-3.009100	3.514800	-10.575000	26.023631	0.000831	20.891193
1190.326711	-2.993900	3.516400	-10.527000	25.979145	0.000827	20.880164
1191.327345	-2.992700	3.514600	-10.518000	25.975019	0.000828	20.862743
1192.326947	-2.962500	3.515300	-10.412000	25.958475	0.000829	20.875519
1193.326978	-3.017700	3.513000	-10.600000	25.925635	0.000827	20.871925
1194.328994	-2.981000	3.514100	-10.474000	25.905014	0.000825	20.873494
1195.331352	-2.974700	3.513700	-10.451000	25.897712	0.000825	20.854780
1196.328722	-2.978200	3.514700	-10.467000	25.860793	0.000825	20.891183
1197.328709	-2.974900	3.513800	-10.452000	25.886056	0.000825	20.867725
1198.329472	-3.010600	3.513100	-10.575000	25.898476	0.000825	20.880676
1199.328234	-3.010600	3.510300	-10.567000	25.888290	0.000824	20.886089
1200.333508	-2.986700	3.513200	-10.491000	25.899166	0.000825	20.876153
1201.328320	-3.005900	3.510800	-10.552000	25.899166	0.000824	20.872834
1202.330421	-3.002600	3.511800	-10.543000	25.895859	0.000826	20.877099
1203.326190	-3.012600	3.509800	-10.572000	25.844434	0.000821	20.880440
1204.327908	-3.017200	3.509600	-10.588000	25.809154	0.000822	20.873924
1205.329585	-3.005500	3.510200	-10.548000	25.730473	0.000822	20.884980
1206.331743	-2.980400	3.509700	-10.460000	25.752658	0.000822	20.909158
1207.333183	-2.996100	3.509300	-10.513000	25.727016	0.000821	20.888620
1208.331954	-3.014400	3.508000	-10.573000	25.787458	0.000821	20.870623
1209.333218	-3.009000	3.506700	-10.549000	25.798290	0.000818	20.899520
1210.329316	-3.001600	3.507300	-10.526000	25.829464	0.000818	20.895747
1211.335771	-2.996500	3.506800	-10.507000	25.839799	0.000820	20.917980
1212.331655	-3.009400	3.505700	-10.549000	25.846305	0.000818	20.892277
1213.332594	-3.022800	3.505700	-10.596000	25.847769	0.000819	20.899910
1214.333820	-3.012000	3.505700	-10.558000	25.897501	0.000819	20.878748
1215.331562	-3.003400	3.504800	-10.525000	25.883614	0.000817	20.891823
1216.335483	-3.006800	3.505700	-10.540000	25.884602	0.000816	20.885230
1217.332172	-3.029400	3.504600	-10.616000	25.865152	0.000816	20.886079
1218.333705	-2.982400	3.505100	-10.451000	25.828306	0.000815	20.891265
1219.335662	-2.990200	3.504400	-10.477000	25.847209	0.000814	20.900770
1220.332841	-2.989100	3.504900	-10.475000	25.859950	0.000815	20.919732
1221.331834	-2.995900	3.503800	-10.496000	25.856718	0.000813	20.904158
1222.338661	-2.995200	3.503200	-10.492000	25.875027	0.000813	20.891258
1223.334108	-3.022600	3.501600	-10.582000	25.897332	0.000813	20.884742
1224.336349	-3.009500	3.502900	-10.541000	25.925301	0.000810	20.900036
1225.334836	-3.001100	3.502400	-10.510000	25.932800	0.000808	20.899510
1226.333051	-3.016100	3.500600	-10.557000	25.909125	0.000810	20.899433
1227.336360	-3.010700	3.500600	-10.539000	25.866046	0.000810	20.914476
1228.333826	-3.001700	3.501000	-10.508000	25.835242	0.000809	20.924782
1229.345895	-2.999300	3.498900	-10.493000	25.831365	0.000807	20.934636
1230.332058	-2.995600	3.500200	-10.485000	25.854864	0.000808	20.908933
1231.332435	-2.979300	3.500900	-10.429000	25.888176	0.000806	20.927696
1232.334029	-2.969900	3.502000	-10.399000	25.921509	0.000806	20.933681
1233.340703	-2.984000	3.499200	-10.441000	25.970121	0.000804	20.915665
1234.337259	-3.007000	3.499200	-10.521000	25.990937	0.000806	20.897225
1235.337323	-2.984000	3.499800	-10.443000	25.965995	0.000804	20.900142
1236.338333	-3.006800	3.497800	-10.517000	25.972973	0.000803	20.926590
1237.339892	-2.975500	3.498400	-10.408000	25.944058	0.000803	20.915085
1238.343801	-3.003400	3.496700	-10.500000	25.947560	0.000802	20.916706
1239.336285	-3.005000	3.496600	-10.506000	25.942489	0.000801	20.932474
1240.341627	-3.003600	3.496800	-10.502000	25.975823	0.000801	20.928031
1241.339680	-3.004800	3.495700	-10.503000	25.978581	0.000803	20.913259
1242.341040	-2.972400	3.497100	-10.394000	25.978277	0.000801	20.951356
1243.343916	-2.990400	3.495000	-10.449000	25.978875	0.000801	20.932045
1244.340985	-2.988900	3.496800	-10.449000	26.002198	0.000799	20.939355
1245.341684	-3.017200	3.493200	-10.538000	26.010543	0.000798	20.934463
1246.339445	-2.970400	3.494800	-10.380000	26.005945	0.000797	20.943592
1247.344960	-2.974600	3.493600	-10.390000	26.005522	0.000798	20.950279
1248.341688	-2.998300	3.494200	-10.476000	26.009940	0.000797	20.924376
1249.343151	-2.990600	3.494100	-10.448000	26.021069	0.000798	20.924651
1250.342441	-3.002100	3.492800	-10.485000	26.005244	0.000797	20.930562
1251.338588	-2.992800	3.491200	-10.448000	25.989741	0.000795	20.932530
1252.341459	-3.001800	3.492200	-10.480000	26.029807	0.000796	20.938644
1253.340279	-2.996900	3.492100	-10.464000	25.985467	0.000794	20.939615
1254.342595	-3.009300	3.489300	-10.500000	25.997837	0.000794	20.930232
1255.344868	-2.994500	3.491400	-10.454000	25.996045	0.000793	20.930329
1256.342726	-2.992100	3.490600	-10.444000	26.009954	0.000794	20.954732
1257.342319	-3.004700	3.489200	-10.483000	26.006698	0.000795	20.933919
1258.347342	-2.987500	3.490600	-10.427000	26.027090	0.000793	20.939234
1259.342086	-2.987800	3.490300	-10.427000	26.019164	0.000789	20.956872
1260.344854	-2.994800	3.489400	-10.448000	25.977408	0.000790	20.948587
1261.345992	-2.995600	3.488800	-10.450000	25.943104	0.000791	20.939728
1262.346519	-3.005600	3.488300	-10.484000	25.891582	0.000790	20.937281
1263.348268	-3.007500	3.488700	-10.491000	25.868800	0.000788	20.944740
1264.351166	-3.013900	3.487500	-10.510000	25.869270	0.000790	20.945212
1265.349978	-3.038500	3.484900	-10.587000	25.928887	0.000791	20.939196
1266.342448	-2.993300	3.487400	-10.437000	25.956809	0.000788	20.922679
1267.345856	-3.010000	3.486500	-10.493000	25.967561	0.000787	20.951495
1268.343786	-3.015200	3.486100	-10.510000	25.982962	0.000786	20.932358
1269.345613	-2.993100	3.485600	-10.431000	26.012443	0.000787	20.937794
1270.349243	-2.994600	3.485400	-10.437000	26.033952	0.000787	20.919103
1271.346699	-2.992700	3.485800	-10.431000	26.038024	0.000786	20.933150
1272.349945	-3.007800	3.483000	-10.476000	26.028458	0.000786	20.937289
1273.347023	-2.990100	3.484200	-10.417000	25.998701	0.000785	20.911662
1274.345487	-3.007800	3.483200	-10.476000	25.962559	0.000785	20.918499
1275.344607	-2.981100	3.484200	-10.385000	25.947031	0.000784	20.929451
1276.345794	-3.029200	3.480900	-10.541000	25.922215	0.000783	20.922064
1277.350111	-2.978300	3.483000	-10.373000	25.875736	0.000783	20.931320
1278.345985	-3.006100	3.481100	-10.464000	25.881000	0.000782	20.921910
1279.346232	-3.024400	3.479500	-10.522000	25.880899	0.000783	20.923705
1280.349454	-3.008700	3.482000	-10.473000	25.901044	0.000782	20.919761
1281.345653	-3.002200	3.480400	-10.447000	25.917563	0.000782	20.918813
1282.344795	-2.985400	3.481500	-10.391000	25.949405	0.000782	20.925198
1283.345894	-2.980600	3.480000	-10.371000	26.015301	0.000782	20.916486
1284.346085	-2.981400	3.479100	-10.372000	26.038001	0.000781	20.907526
1285.344631	-3.000500	3.478200	-10.435000	26.078411	0.000779	20.920151
1286.346751	-3.014500	3.478600	-10.485000	26.100166	0.000779	20.923043
1287.346485	-3.009000	3.476900	-10.461000	26.092937	0.000777	20.917202
1288.346190	-2.986700	3.480300	-10.394000	26.128675	0.000778	20.911387
1289.347326	-2.996000	3.477700	-10.418000	26.103166	0.000779	20.896189
1290.351637	-2.996500	3.476600	-10.415000	26.105795	0.000777	20.922062
1291.359565	-2.982300	3.478400	-10.373000	26.087863	0.000777	20.917795
1292.349330	-3.009900	3.476300	-10.462000	26.088306	0.000776	20.910180
1293.351207	-3.000400	3.475400	-10.427000	26.052142	0.000776	20.905139
1294.352422	-3.009600	3.476300	-10.461000	26.061232	0.000775	20.902418
1295.350206	-2.999400	3.475400	-10.423000	26.038951	0.000777	20.899946
1296.352542	-3.018000	3.474400	-10.485000	26.031223	0.000773	20.899768
1297.348634	-3.025700	3.473400	-10.508000	26.013364	0.000773	20.912170
1298.357073	-2.998700	3.474300	-10.416000	26.032462	0.000773	20.922348
1299.352429	-2.999000	3.474100	-10.417000	26.025979	0.000772	20.888336
1300.353516	-3.003300	3.474800	-10.434000	26.034993	0.000772	20.905926
1301.360995	-3.011200	3.473000	-10.455000	26.026173	0.000772	20.897539
1302.353514	-2.988100	3.472200	-10.374000	26.038838	0.000773	20.915004
1303.354117	-3.004100	3.471900	-10.429000	26.021874	0.000771	20.904599
1304.351278	-3.002200	3.471400	-10.420000	25.961885	0.000770	20.901703
1305.353765	-3.005800	3.471500	-10.433000	25.934658	0.000771	20.911332
1306.351023	-3.022500	3.470600	-10.489000	25.949462	0.000770	20.893015
1307.360719	-2.982700	3.470400	-10.350000	25.962252	0.000772	20.896382
1308.361654	-2.977100	3.470200	-10.330000	26.003535	0.000769	20.905140
1309.358675	-2.984000	3.470800	-10.356000	26.042905	0.000766	20.910556
1310.358541	-3.017800	3.468000	-10.465000	26.031500	0.000765	20.884875
1311.359394	-3.002500	3.469200	-10.414000	26.075263	0.000769	20.909403
1312.361396	-3.008300	3.467300	-10.430000	26.114532	0.000766	20.894807
1313.362074	-2.997000	3.468000	-10.391000	26.132585	0.000764	20.904885
1314.358652	-3.002600	3.466100	-10.406000	26.126972	0.000763	20.885496
1315.353419	-2.982900	3.468100	-10.344000	26.140358	0.000765	20.903212
1316.356860	-2.998200	3.466000	-10.391000	26.133525	0.000763	20.866004
1317.355141	-2.995100	3.466400	-10.381000	26.120462	0.000762	20.875163
1318.358806	-2.997500	3.466100	-10.388000	26.077666	0.000764	20.879103
1319.357869	-2.975300	3.467000	-10.314000	26.058343	0.000761	20.884343
1320.356948	-3.032200	3.463000	-10.499000	26.057994	0.000760	20.888735
1321.358737	-3.021600	3.464100	-10.466000	26.085687	0.000761	20.890006
1322.356340	-3.012100	3.464200	-10.433000	26.094084	0.000759	20.893701
1323.357975	-2.981500	3.463800	-10.326000	26.103370	0.000759	20.890230
1324.357819	-3.008700	3.464000	-10.419000	26.092615	0.000758	20.900285
1325.363127	-3.017400	3.463000	-10.447000	26.077042	0.000759	20.876105
1326.355850	-2.981300	3.462500	-10.321000	26.046042	0.000758	20.874830
1327.360147	-3.006000	3.463200	-10.409000	25.975946	0.000758	20.885959
1328.364190	-2.983600	3.462800	-10.330000	25.945220	0.000758	20.885435
1329.361670	-3.013000	3.461700	-10.429000	25.929171	0.000756	20.890648
1330.364070	-3.018200	3.461400	-10.446000	25.904477	0.000756	20.861576
1331.360274	-3.005300	3.461400	-10.401000	25.912851	0.000756	20.877100
1332.363345	-3.011300	3.462100	-10.423000	25.897672	0.000754	20.861851
1333.359563	-2.983200	3.461100	-10.324000	25.936869	0.000757	20.878942
1334.366923	-2.999400	3.459500	-10.375000	25.962678	0.000756	20.880216
1335.359224	-3.002600	3.458500	-10.383000	25.995317	0.000754	20.885980
1336.360971	-3.012100	3.459500	-10.419000	26.003115	0.000752	20.876746
1337.358298	-2.972000	3.460700	-10.284000	25.998868	0.000753	20.881961
1338.362421	-2.989900	3.459400	-10.342000	25.998345	0.000751	20.869582
1339.361560	-2.999200	3.458500	-10.372000	25.959620	0.000753	20.879988
1340.362008	-2.987000	3.457900	-10.327000	25.993576	0.000751	20.853886
1341.364783	-3.007600	3.457300	-10.396000	25.998963	0.000753	20.878264
1342.359587	-3.005000	3.456600	-10.386000	26.016722	0.000752	20.861968
1343.362520	-2.995100	3.457400	-10.354000	25.973476	0.000751	20.878736
1344.360937	-3.002400	3.455900	-10.376000	25.956286	0.000751	20.866208
1345.361863	-2.967200	3.456100	-10.253000	25.931296	0.000749	20.877138
1346.363945	-2.973800	3.456400	-10.277000	25.902207	0.000749	20.887742
1347.365127	-2.974800	3.456800	-10.282000	25.947490	0.000749	20.868751
1348.365072	-2.998200	3.454800	-10.358000	25.964852	0.000749	20.863434
1349.365748	-3.002800	3.453400	-10.369000	25.990337	0.000748	20.860589
1350.365538	-2.993100	3.453300	-10.335000	25.992497	0.000746	20.864182
1351.363746	-2.985400	3.454000	-10.310000	25.948603	0.000746	20.858016
1352.364563	-3.009900	3.452900	-10.392000	25.904261	0.000747	20.864677
1353.362039	-2.999900	3.453300	-10.358000	25.865631	0.000747	20.848631
1354.363719	-3.002200	3.451900	-10.362000	25.842924	0.000745	20.860907
1355.365102	-3.000800	3.452000	-10.358000	25.838426	0.000745	20.841217
1356.368529	-2.999200	3.450200	-10.347000	25.844985	0.000743	20.859658
1357.368384	-3.015400	3.450400	-10.403000	25.899411	0.000744	20.857435
1358.367072	-2.995800	3.449700	-10.334000	25.901347	0.000742	20.841362
1359.367974	-2.986400	3.450900	-10.305000	25.885796	0.000742	20.853715
1360.373718	-2.982400	3.449500	-10.287000	25.914958	0.000743	20.869734
1361.372332	-2.996500	3.448100	-10.331000	25.936395	0.000740	20.860924
1362.372664	-2.978500	3.450300	-10.276000	25.930109	0.000743	20.852713
1363.369077	-3.002000	3.447500	-10.348000	25.942304	0.000741	20.856904
1364.364656	-3.000800	3.447800	-10.345000	25.949656	0.000741	20.856229
1365.369535	-3.001300	3.448900	-10.349000	25.956587	0.000742	20.856080
1366.366307	-2.982900	3.447800	-10.282000	26.004351	0.000739	20.839583
1367.365150	-2.994800	3.446900	-10.320000	26.004423	0.000736	20.856250
1368.366398	-2.995300	3.446700	-10.323000	26.028170	0.000740	20.857349
1369.369190	-3.015200	3.445700	-10.389000	26.046499	0.000738	20.860592
1370.370135	-3.021400	3.446100	-10.410000	26.069374	0.000738	20.860816
1371.368687	-3.024400	3.443800	-10.414000	26.092945	0.000737	20.858420
1372.369020	-2.997900	3.445700	-10.329000	26.140849	0.000736	20.855820
1373.367499	-2.995400	3.445200	-10.319000	26.147208	0.000735	20.845141
1374.367667	-2.983000	3.444700	-10.273000	26.164045	0.000735	20.844041
1375.367953	-2.988800	3.443600	-10.290000	26.186470	0.000735	20.860885
1376.373254	-3.005600	3.442800	-10.345000	26.192255	0.000734	20.836826
1377.367774	-3.003500	3.442100	-10.338000	26.221235	0.000732	20.850301
1378.374851	-3.027200	3.441400	-10.416000	26.215996	0.000732	20.857363
1379.374776	-3.014900	3.440200	-10.371000	26.231489	0.000732	20.859656
1380.368287	-2.994900	3.441200	-10.305000	26.236901	0.000732	20.859405
1381.377561	-2.998000	3.440400	-10.313000	26.224807	0.000729	20.851519
1382.372401	-3.000200	3.440000	-10.320000	26.230669	0.000730	20.847453
1383.372923	-2.990500	3.439500	-10.284000	26.231487	0.000730	20.833102
1384.369901	-2.984300	3.439400	-10.263000	26.237870	0.000729	20.848525
1385.374678	-2.987700	3.440700	-10.278000	26.259996	0.000728	20.853691
1386.376252	-2.997100	3.439500	-10.307000	26.270972	0.000730	20.859505
1387.373442	-3.031000	3.437700	-10.418000	26.243679	0.000728	20.836819
1388.376206	-3.022400	3.437300	-10.387000	26.228060	0.000727	20.844357
1389.381232	-2.997900	3.438200	-10.306000	26.218547	0.000723	20.848074
1390.374485	-3.010100	3.436500	-10.343000	26.251625	0.000726	20.834374
1391.376606	-3.014500	3.437000	-10.360000	26.254932	0.000725	20.835326
1392.373796	-2.998100	3.435700	-10.300000	26.299357	0.000723	20.848202
1393.373240	-2.968300	3.437500	-10.202000	26.302810	0.000721	20.838870
1394.375739	-2.986400	3.435000	-10.257000	26.334693	0.000722	20.841514
1395.372805	-2.985900	3.436400	-10.259000	26.330547	0.000721	20.828340
1396.374149	-3.002800	3.435400	-10.315000	26.328114	0.000720	20.820679
1397.377313	-3.005600	3.434800	-10.323000	26.258586	0.000719	20.839472
1398.374941	-3.009000	3.434500	-10.333000	26.212221	0.000719	20.845036
1399.373518	-2.996600	3.434000	-10.289000	26.170575	0.000719	20.836853
1400.377483	-2.998400	3.434600	-10.297000	26.165708	0.000717	20.842868
1401.372076	-2.974400	3.434400	-10.214000	26.209766	0.000719	20.835931
1402.373550	-3.000400	3.432800	-10.298000	26.169957	0.000717	20.836706
1403.375453	-3.031800	3.430900	-10.401000	26.152102	0.000717	20.833463
1404.378301	-3.006700	3.432900	-10.321000	26.151358	0.000716	20.829871
1405.378417	-3.026200	3.430700	-10.382000	26.156748	0.000717	20.827701
1406.376428	-3.010400	3.433000	-10.333000	26.104942	0.000716	20.827802
1407.376427	-2.994900	3.432400	-10.277000	26.086241	0.000716	20.817073
1408.379597	-3.020200	3.429600	-10.356000	26.084553	0.000716	20.854256
1409.381333	-3.007200	3.429600	-10.313000	26.090216	0.000717	20.799730
1410.378576	-3.030000	3.429300	-10.389000	26.094786	0.000715	20.823288
1411.375683	-3.006200	3.429600	-10.309000	26.083263	0.000713	20.815977
1412.378292	-2.981100	3.429200	-10.222000	26.069530	0.000712	20.831102
1413.381109	-3.013200	3.426600	-10.323000	26.046231	0.000714	20.824288
1414.374674	-2.976000	3.429500	-10.205000	26.049734	0.000714	20.800307
1415.376467	-2.994100	3.429000	-10.266000	26.031927	0.000713	20.827459
1416.377998	-3.005800	3.428000	-10.303000	25.973954	0.000713	20.819950
1417.376757	-3.010200	3.426100	-10.311000	25.990994	0.000713	20.797714
1418.374800	-3.002800	3.426100	-10.287000	26.000707	0.000713	20.807473
1419.378951	-2.981500	3.425400	-10.212000	26.028079	0.000709	20.793248
1420.379987	-2.996900	3.424800	-10.263000	26.026688	0.000712	20.799437
1421.380226	-2.993400	3.425600	-10.252000	26.046585	0.000710	20.807574
1422.376774	-2.990700	3.423600	-10.238000	26.112353	0.000710	20.801110
1423.379349	-2.986000	3.425700	-10.228000	26.141362	0.000711	20.794697
1424.382598	-3.020100	3.423400	-10.339000	26.158251	0.000711	20.813090
1425.385987	-2.998900	3.423000	-10.264000	26.192697	0.000711	20.808348
1426.380694	-2.982300	3.422800	-10.206000	26.208392	0.000710	20.805628
1427.379507	-2.983200	3.422300	-10.208000	26.200346	0.000709	20.825517
1428.384206	-3.001300	3.423000	-10.273000	26.197515	0.000707	20.817456
1429.379292	-2.986200	3.421400	-10.215000	26.167662	0.000705	20.787933
1430.388058	-2.996100	3.422900	-10.254000	26.182761	0.000706	20.815908
1431.380750	-2.980900	3.421100	-10.196000	26.255724	0.000707	20.802458
1432.384429	-2.991800	3.421100	-10.234000	26.280877	0.000705	20.828683
1433.381612	-3.007500	3.420700	-10.287000	26.279761	0.000705	20.807647
1434.384887	-3.006000	3.419100	-10.276000	26.252022	0.000704	20.800160
1435.384513	-2.993300	3.420500	-10.237000	26.226767	0.000703	20.805127
1436.382832	-3.004600	3.419100	-10.271000	26.190633	0.000702	20.798688
1437.384083	-3.005100	3.417900	-10.269000	26.145731	0.000702	20.804303
1438.382956	-3.017800	3.417700	-10.312000	26.102961	0.000703	20.798311
1439.391317	-3.006000	3.417300	-10.271000	26.101448	0.000702	20.810541
1440.389507	-3.007800	3.416700	-10.276000	26.101819	0.000699	20.806647
1441.388672	-2.986900	3.417800	-10.208000	26.073455	0.000700	20.809442
1442.388196	-2.971900	3.417200	-10.154000	26.082422	0.000699	20.802330
1443.391444	-3.017300	3.415600	-10.305000	26.126308	0.000700	20.798537
1444.389487	-3.026900	3.414400	-10.334000	26.156086	0.000698	20.796215
1445.386647	-3.009900	3.414600	-10.276000	26.189316	0.000698	20.786933
1446.393859	-3.013000	3.415000	-10.289000	26.207543	0.000697	20.783912
1447.389566	-3.015200	3.413300	-10.290000	26.251748	0.000696	20.797039
1448.392029	-2.986500	3.415200	-10.199000	26.262202	0.000697	20.807545
1449.391138	-2.998900	3.413000	-10.233000	26.250234	0.000697	20.797888
1450.392591	-3.010500	3.413200	-10.274000	26.202926	0.000696	20.782591
1451.393658	-3.020500	3.413000	-10.308000	26.164903	0.000696	20.804127
1452.395426	-3.012400	3.413500	-10.282000	26.112425	0.000693	20.781742
1453.392570	-3.003400	3.411700	-10.245000	26.125265	0.000692	20.790851
1454.390426	-2.992000	3.412600	-10.209000	26.152139	0.000692	20.790353
1455.400698	-3.004500	3.410900	-10.247000	26.187703	0.000693	20.791476
1456.397446	-2.990800	3.411700	-10.202000	26.198158	0.000691	20.789654
1457.395442	-3.008600	3.409600	-10.257000	26.171138	0.000691	20.801383
1458.391423	-2.994900	3.409000	-10.208000	26.138084	0.000692	20.810843
1459.395184	-3.004600	3.410700	-10.247000	26.117047	0.000691	20.786860
1460.395252	-3.002500	3.408700	-10.234000	26.128869	0.000691	20.797317
1461.399718	-3.020600	3.408100	-10.294000	26.149683	0.000691	20.812541
1462.398096	-3.005200	3.409300	-10.245000	26.193268	0.000691	20.786637
1463.398589	-3.002800	3.407400	-10.231000	26.213782	0.000689	20.774534
1464.393301	-3.005000	3.407300	-10.238000	26.243755	0.000690	20.779050
1465.398187	-2.999500	3.407400	-10.220000	26.231712	0.000690	20.804880
1466.399870	-2.990200	3.406300	-10.185000	26.212665	0.000689	20.795697
1467.395120	-2.978000	3.406700	-10.144000	26.244999	0.000688	20.789309
1468.400046	-3.002200	3.407600	-10.230000	26.211274	0.000686	20.795248
1469.398878	-3.019200	3.406000	-10.283000	26.158924	0.000689	20.791007
1470.398486	-3.012100	3.405400	-10.257000	26.137614	0.000687	20.801362
1471.403824	-2.987300	3.406100	-10.174000	26.127605	0.000686	20.778029
1472.400976	-2.982200	3.405900	-10.156000	26.064519	0.000683	20.785291
1473.399398	-2.990500	3.404400	-10.180000	26.060124	0.000685	20.778977
1474.404219	-3.014300	3.404000	-10.260000	26.075647	0.000683	20.781298
1475.400880	-2.984900	3.404800	-10.162000	26.117395	0.000684	20.795271
1476.404176	-2.983700	3.404600	-10.157000	26.155819	0.000683	20.778404
1477.406386	-3.011700	3.400900	-10.240000	26.169998	0.000682	20.779375
1478.404012	-2.991300	3.401700	-10.174000	26.179337	0.000684	20.790655
1479.410470	-2.999200	3.403500	-10.205000	26.203723	0.000683	20.799513
1480.407250	-3.017500	3.402300	-10.265000	26.222669	0.000683	20.788206
1481.404800	-2.980000	3.401500	-10.136000	26.236276	0.000680	20.786708
1482.407503	-3.012100	3.400000	-10.240000	26.242138	0.000681	20.779796
1483.408759	-2.992900	3.400600	-10.177000	26.239431	0.000681	20.791300
1484.408495	-2.994500	3.400500	-10.182000	26.265876	0.000679	20.812186
1485.413741	-3.016500	3.398300	-10.250000	26.238658	0.000679	20.798584
1486.409513	-3.012300	3.399500	-10.240000	26.233915	0.000679	20.790025
1487.415600	-3.017500	3.398800	-10.255000	26.232896	0.000678	20.799906
1488.418872	-2.989000	3.399200	-10.159000	26.260559	0.000678	20.792617
1489.410502	-2.992400	3.399400	-10.170000	26.292370	0.000677	20.809413
1490.408022	-2.980700	3.398900	-10.130000	26.303369	0.000675	20.778741
1491.413225	-2.994900	3.398100	-10.176000	26.266839	0.000677	20.783282
1492.420481	-3.024100	3.397100	-10.272000	26.269495	0.000676	20.799701
1493.416901	-2.995900	3.397400	-10.177000	26.268677	0.000676	20.785603
1494.414849	-3.012100	3.397200	-10.232000	26.315236	0.000674	20.809633
1495.413424	-2.998700	3.396300	-10.182000	26.331475	0.000673	20.797504
1496.410465	-3.018300	3.394900	-10.245000	26.349725	0.000674	20.785025
1497.412930	-2.999900	3.394800	-10.183000	26.379346	0.000674	20.808632
1498.416214	-2.990300	3.395000	-10.151000	26.404795	0.000673	20.812398
1499.412482	-2.999300	3.394200	-10.180000	26.390741	0.000673	20.792583
1500.415855	-3.028000	3.393500	-10.274000	26.376116	0.000673	20.807756
1501.417538	-2.997200	3.392700	-10.168000	26.416738	0.000671	20.803539
1502.416208	-3.004600	3.392800	-10.192000	26.414676	0.000671	20.801466
1503.419879	-3.010600	3.392200	-10.212000	26.442829	0.000672	20.814590
1504.424018	-3.021500	3.391400	-10.245000	26.412117	0.000671	20.783248
1505.418375	-3.003300	3.392700	-10.188000	26.384106	0.000670	20.805355
1506.418688	-3.013600	3.391300	-10.219000	26.362355	0.000669	20.798193
1507.423291	-2.993800	3.391000	-10.151000	26.398183	0.000667	20.827564
1508.417341	-3.019800	3.390600	-10.238000	26.384776	0.000669	20.790381
1509.424191	-2.984000	3.391400	-10.119000	26.361062	0.000667	20.819178
1510.421206	-2.988300	3.390000	-10.129000	26.356319	0.000666	20.809671
1511.426082	-2.997500	3.388800	-10.155000	26.370994	0.000668	20.813513
1512.418360	-2.985100	3.391000	-10.121000	26.377125	0.000664	20.801184
1513.419528	-2.999300	3.389200	-10.165000	26.362996	0.000666	20.821123
1514.422903	-2.994300	3.389500	-10.148000	26.350182	0.000664	20.822469
1515.423266	-2.989200	3.388500	-10.128000	26.327386	0.000663	20.815206
1516.421496	-3.002000	3.388100	-10.170000	26.290361	0.000663	20.812135
1517.421779	-2.990400	3.388300	-10.131000	26.295625	0.000662	20.826434
1518.426594	-2.983600	3.387800	-10.107000	26.306846	0.000663	20.795986
1519.421069	-2.993900	3.387800	-10.141000	26.341660	0.000662	20.812007
1520.424471	-2.992600	3.387500	-10.136000	26.399190	0.000663	20.815300
1521.425703	-2.989600	3.386700	-10.124000	26.394026	0.000661	20.817695
1522.425461	-3.004100	3.386000	-10.170000	26.397996	0.000661	20.836858
1523.424207	-3.017100	3.385700	-10.214000	26.414631	0.000661	20.845517
1524.424137	-2.978500	3.386200	-10.085000	26.404201	0.000657	20.810379
1525.426880	-2.999200	3.383800	-10.148000	26.415720	0.000659	20.827645
1526.422267	-2.997700	3.385100	-10.147000	26.445589	0.000658	20.820208
1527.425345	-2.984900	3.385800	-10.105000	26.423664	0.000657	20.808129
1528.423491	-3.000200	3.383900	-10.151000	26.410205	0.000657	20.818310
1529.428832	-3.004600	3.383400	-10.165000	26.351182	0.000656	20.830112
1530.427443	-2.991900	3.381600	-10.116000	26.345843	0.000654	20.820478
1531.433521	-2.995400	3.382900	-10.132000	26.333028	0.000656	20.842687
1532.424982	-2.981900	3.383000	-10.086000	26.329079	0.000655	20.826864
1533.427843	-2.994800	3.380600	-10.124000	26.360541	0.000656	20.841413
1534.423110	-2.997300	3.381400	-10.135000	26.328607	0.000653	20.822123
1535.429906	-3.011500	3.380100	-10.178000	26.342339	0.000654	20.802258
1536.426993	-2.974200	3.380600	-10.053000	26.331910	0.000654	20.829709
1537.425776	-2.990900	3.380300	-10.108000	26.334067	0.000653	20.830455
1538.425956	-3.018500	3.378600	-10.198000	26.308118	0.000651	20.827610
1539.429915	-3.001100	3.379400	-10.140000	26.332926	0.000652	20.829308
1540.427656	-3.049000	3.377100	-10.296000	26.371860	0.000650	20.837617
1541.430649	-3.007300	3.377600	-10.157000	26.378959	0.000652	20.812985
1542.429120	-3.019400	3.377900	-10.197000	26.381368	0.000649	20.841957
1543.433944	-3.010900	3.377700	-10.168000	26.367213	0.000650	20.817300
1544.431036	-2.985400	3.378700	-10.085000	26.359217	0.000651	20.848144
1545.429164	-3.001600	3.376800	-10.135000	26.400412	0.000649	20.845924
1546.436353	-3.001500	3.377300	-10.135000	26.378534	0.000649	20.831048
1547.429218	-3.021900	3.376300	-10.202000	26.395666	0.000649	20.831197
1548.430010	-3.001200	3.375600	-10.128000	26.409100	0.000651	20.843751
1549.432962	-2.991600	3.376100	-10.098000	26.420173	0.000648	20.830698
1550.433382	-2.997900	3.375700	-10.119000	26.415553	0.000647	20.849762
1551.437162	-2.984900	3.376300	-10.077000	26.420692	0.000645	20.828376
1552.448672	-2.978900	3.375700	-10.054000	26.433428	0.000646	20.860141
1553.435592	-2.995000	3.373800	-10.103000	26.432956	0.000644	20.863460
1554.432951	-2.974300	3.374500	-10.036000	26.481816	0.000641	20.856620
1555.435744	-3.010700	3.373900	-10.157000	26.495371	0.000641	20.830891
1556.434500	-3.002600	3.372600	-10.126000	26.487079	0.000643	20.839626
1557.443308	-3.030800	3.371500	-10.217000	26.452841	0.000643	20.827023
1558.435904	-2.991500	3.371400	-10.085000	26.434319	0.000641	20.838278
1559.437087	-2.979100	3.371700	-10.043000	26.409014	0.000641	20.841293
1560.435547	-2.991900	3.371900	-10.086000	26.400672	0.000640	20.877952
1561.441106	-2.984900	3.370900	-10.060000	26.383563	0.000642	20.855542
1562.437592	-3.001700	3.369600	-10.113000	26.363872	0.000639	20.868942
1563.441342	-2.956700	3.372900	-9.971200	26.321485	0.000640	20.860008
1564.437448	-3.021200	3.368300	-10.174000	26.311229	0.000642	20.847331
1565.444542	-3.031000	3.368100	-10.207000	26.327046	0.000638	20.852321
1566.434100	-3.045900	3.368200	-10.256000	26.327096	0.000637	20.850474
1567.442832	-2.991400	3.368700	-10.076000	26.350436	0.000638	20.857810
1568.439267	-2.963000	3.368100	-9.979000	26.387161	0.000638	20.839244
1569.437939	-2.993600	3.369500	-10.086000	26.395082	0.000636	20.851472
1570.436991	-2.989500	3.367600	-10.067000	26.392674	0.000636	20.844785
1571.438482	-3.000800	3.368900	-10.108000	26.396596	0.000636	20.854417
1572.442320	-2.998200	3.367000	-10.094000	26.415269	0.000634	20.853269
1573.442048	-3.013200	3.365800	-10.140000	26.457652	0.000635	20.859359
1574.449427	-3.009800	3.366500	-10.131000	26.501473	0.000633	20.856938
1575.437173	-3.029200	3.365300	-10.193000	26.514211	0.000631	20.855517
1576.441962	-2.995300	3.366400	-10.082000	26.540677	0.000631	20.853671
1577.443297	-2.984900	3.367200	-10.050000	26.510240	0.000630	20.852948
1578.438581	-3.013900	3.364700	-10.140000	26.531244	0.000631	20.864577
1579.441303	-2.991900	3.366700	-10.072000	26.488641	0.000631	20.871066
1580.443433	-2.995900	3.363700	-10.076000	26.478661	0.000627	20.881896
1581.442182	-2.989800	3.363900	-10.057000	26.467464	0.000630	20.863057
1582.439920	-2.984400	3.363500	-10.037000	26.452842	0.000629	20.856895
1583.443336	-3.000800	3.363900	-10.093000	26.410634	0.000629	20.857145
1584.441527	-2.984600	3.363500	-10.037000	26.406462	0.000627	20.856746
1585.445341	-3.027600	3.361200	-10.176000	26.405197	0.000628	20.857845
1586.444316	-3.008000	3.362100	-10.113000	26.427670	0.000626	20.851509
1587.447211	-3.027000	3.360800	-10.171000	26.461164	0.000626	20.866681
1588.446576	-2.993600	3.361100	-10.060000	26.470773	0.000625	20.857848
1589.447708	-2.990600	3.360700	-10.050000	26.471295	0.000626	20.855053
1590.449647	-3.011200	3.359300	-10.115000	26.502084	0.000626	20.849492
1591.446530	-3.002800	3.360800	-10.092000	26.511992	0.000625	20.861821
1592.449911	-3.000400	3.360300	-10.081000	26.543423	0.000624	20.871603
1593.446314	-2.996300	3.360800	-10.068000	26.569319	0.000622	20.864917
1594.449696	-3.010400	3.360000	-10.113000	26.584686	0.000623	20.877520
1595.448394	-2.996700	3.360100	-10.068000	26.553532	0.000621	20.870859
1596.446102	-2.990400	3.358900	-10.043000	26.537992	0.000621	20.869937
1597.446149	-2.995500	3.360200	-10.064000	26.520117	0.000622	20.860030
1598.450482	-2.976600	3.358200	-9.994700	26.502493	0.000618	20.868868
1599.452705	-2.998800	3.356800	-10.066000	26.478808	0.000619	20.868295
1600.450380	-2.973700	3.358400	-9.986400	26.448147	0.000619	20.870667
1601.455662	-2.985100	3.358400	-10.024000	26.443081	0.000618	20.854197
1602.447627	-2.968700	3.356600	-9.963700	26.432010	0.000620	20.867251
1603.452177	-2.967200	3.356700	-9.959000	26.460589	0.000618	20.853776
1604.454379	-3.021400	3.355200	-10.137000	26.517668	0.000617	20.860888
1605.452784	-2.991400	3.354900	-10.035000	26.547857	0.000618	20.861836
1606.453800	-2.993600	3.355200	-10.043000	26.583979	0.000615	20.869223
1607.457313	-2.982000	3.354900	-10.003000	26.603444	0.000615	20.893055
1608.453626	-3.004900	3.353600	-10.076000	26.585545	0.000614	20.863211
1609.451661	-3.001300	3.353700	-10.064000	26.616453	0.000615	20.853979
1610.456167	-2.991800	3.353600	-10.032000	26.612158	0.000613	20.880480
1611.456818	-2.992400	3.354800	-10.038000	26.589097	0.000614	20.871997
1612.455450	-2.992900	3.354700	-10.039000	26.557342	0.000613	20.869000
1613.455835	-3.026900	3.352500	-10.147000	26.518465	0.000612	20.881602
1614.459789	-2.988400	3.352800	-10.018000	26.505779	0.000612	20.877861
1615.457089	-2.996500	3.352600	-10.044000	26.485520	0.000614	20.873618
1616.456605	-3.022900	3.351600	-10.130000	26.482045	0.000611	20.890038
1617.457417	-2.999800	3.350000	-10.047000	26.500741	0.000611	20.878960
1618.456086	-3.000800	3.349700	-10.051000	26.527505	0.000610	20.881206
1619.456235	-3.003400	3.350900	-10.063000	26.543170	0.000609	20.878461
1620.456094	-3.025200	3.350200	-10.134000	26.543370	0.000610	20.878187
1621.456618	-3.003200	3.349700	-10.059000	26.543543	0.000610	20.875991
1622.466257	-3.006000	3.348900	-10.066000	26.547168	0.000608	20.905711
1623.459419	-2.992200	3.349600	-10.022000	26.517452	0.000608	20.885326
1624.458654	-3.010800	3.349300	-10.083000	26.519638	0.000607	20.877092
1625.459137	-3.021900	3.346200	-10.111000	26.525000	0.000609	20.888645
1626.459543	-3.013400	3.347400	-10.086000	26.552608	0.000607	20.894110
1627.458548	-3.014900	3.346400	-10.088000	26.556406	0.000604	20.899350
1628.457912	-3.015900	3.346900	-10.092000	26.554865	0.000605	20.891638
1629.458506	-3.001300	3.347400	-10.045000	26.560750	0.000606	20.909406
1630.459478	-3.021600	3.345600	-10.107000	26.567677	0.000605	20.888396
1631.466043	-3.004700	3.344600	-10.049000	26.566138	0.000603	20.875945
1632.464534	-3.012100	3.345000	-10.074000	26.598858	0.000605	20.887497
1633.462259	-2.986500	3.345300	-9.988800	26.605908	0.000603	20.900274
1634.462214	-2.993500	3.345200	-10.012000	26.568919	0.000604	20.885851
1635.462353	-3.007400	3.344600	-10.058000	26.576091	0.000600	20.898276
1636.466002	-2.998200	3.342900	-10.021000	26.594240	0.000602	20.895657
1637.459952	-2.997100	3.344700	-10.024000	26.615863	0.000600	20.879936
1638.457603	-3.011000	3.343900	-10.067000	26.644090	0.000600	20.904992
1639.463534	-3.026000	3.341700	-10.111000	26.661391	0.000600	20.893462
1640.462514	-3.005500	3.342400	-10.044000	26.674249	0.000598	20.884578
1641.464855	-2.981000	3.342700	-9.964300	26.698430	0.000598	20.895611
1642.464745	-3.002600	3.341900	-10.034000	26.703295	0.000597	20.919939
1643.467821	-2.986700	3.340600	-9.975800	26.688104	0.000596	20.887126
1644.466718	-2.991500	3.341600	-9.995500	26.740207	0.000598	20.897782
1645.463026	-2.971600	3.342500	-9.931500	26.726208	0.000595	20.905045
1646.467983	-2.996200	3.340600	-10.008000	26.704938	0.000594	20.904523
1647.463082	-2.996900	3.340100	-10.009000	26.714072	0.000594	20.902326
1648.470442	-3.009100	3.339900	-10.049000	26.730729	0.000592	20.890150
1649.467968	-2.995800	3.339000	-10.001000	26.743363	0.000594	20.912808
1650.468676	-3.002400	3.339900	-10.027000	26.723654	0.000592	20.901055
1651.472199	-3.003900	3.339100	-10.029000	26.729886	0.000594	20.910164
1652.469990	-3.008200	3.338100	-10.041000	26.767369	0.000590	20.900910
1653.469134	-3.006700	3.336800	-10.032000	26.790056	0.000590	20.918975
1654.471452	-2.994900	3.337200	-9.992800	26.805941	0.000591	20.915507
1655.469368	-2.995700	3.337600	-9.996900	26.801252	0.000589	20.897992
1656.472694	-3.028600	3.334900	-10.099000	26.796760	0.000589	20.900114
1657.470499	-2.998800	3.336600	-10.005000	26.789614	0.000590	20.917583
1658.469591	-3.003000	3.335600	-10.015000	26.734263	0.000588	20.909350
1659.465053	-3.004500	3.335900	-10.022000	26.681542	0.000587	20.921303
1660.468395	-3.016600	3.334200	-10.056000	26.654114	0.000584	20.916964
1661.471475	-3.006300	3.335200	-10.026000	26.601114	0.000586	20.913945
1662.466470	-2.988000	3.333700	-9.959900	26.581231	0.000586	20.915769
1663.465979	-3.019000	3.333500	-10.062000	26.566312	0.000585	20.917841
1664.465306	-3.003500	3.332500	-10.008000	26.531011	0.000585	20.921710
1665.471065	-2.990000	3.333500	-9.965800	26.500771	0.000584	20.921661
1666.469194	-3.006100	3.331700	-10.014000	26.511798	0.000583	20.917097
1667.474720	-2.983200	3.333500	-9.943200	26.512817	0.000583	20.915277
1668.471102	-2.986900	3.332100	-9.951300	26.481313	0.000581	20.909215
1669.475367	-2.995600	3.331800	-9.980600	26.464482	0.000581	20.908894
1670.470003	-3.020200	3.330200	-10.056000	26.430442	0.000581	20.929206
1671.467690	-2.990200	3.331800	-9.960700	26.471387	0.000579	20.921997
1672.469489	-3.010500	3.330200	-10.024000	26.501258	0.000579	20.917883
1673.473604	-2.995100	3.330000	-9.972400	26.545201	0.000580	20.913690
1674.474005	-2.978200	3.330600	-9.918300	26.595948	0.000581	20.920131
1675.473528	-3.002200	3.331000	-9.999500	26.623406	0.000578	20.923551
1676.471007	-3.004600	3.330000	-10.004000	26.685270	0.000578	20.913199
1677.470102	-3.002500	3.329400	-9.995700	26.668244	0.000577	20.918840
1678.475213	-2.996300	3.327900	-9.971400	26.652432	0.000577	20.933763
1679.468825	-3.009100	3.328600	-10.014000	26.636744	0.000578	20.936958
1680.468411	-3.004700	3.328100	-9.998900	26.656928	0.000576	20.920741
1681.468775	-3.002600	3.326700	-9.987500	26.678055	0.000576	20.940555
1682.469680	-2.999800	3.328500	-9.983900	26.717897	0.000576	20.932721
1683.471515	-2.969800	3.327600	-9.881800	26.742274	0.000574	20.928781
1684.470042	-3.008800	3.326000	-10.006000	26.746770	0.000575	20.916707
1685.473683	-3.013500	3.325700	-10.021000	26.784200	0.000575	20.925889
1686.471496	-2.981300	3.326800	-9.917400	26.775713	0.000573	20.914513
1687.472301	-2.990100	3.326400	-9.945500	26.789093	0.000573	20.923696
1688.473773	-3.002900	3.325200	-9.984900	26.795026	0.000573	20.931557
1689.473282	-3.015300	3.323800	-10.021000	26.762759	0.000574	20.918558
1690.471014	-2.994700	3.323800	-9.953500	26.789393	0.000572	20.925421
1691.473955	-3.027700	3.322300	-10.057000	26.749259	0.000571	20.925373
1692.477374	-3.012200	3.323900	-10.010000	26.741837	0.000571	20.945409
1693.474391	-3.021100	3.321600	-10.033000	26.732009	0.000571	20.926996
1694.474338	-3.002400	3.322400	-9.973900	26.751222	0.000570	20.936828
1695.474469	-3.005300	3.321200	-9.979700	26.780659	0.000569	20.916640
1696.471664	-3.014300	3.322600	-10.015000	26.811463	0.000570	20.918688
1697.475221	-3.013800	3.321400	-10.009000	26.831146	0.000570	20.907659
1698.472428	-3.021600	3.318900	-10.027000	26.870584	0.000568	20.927872
1699.475651	-2.970100	3.321800	-9.865100	26.828415	0.000567	20.930990
1700.477798	-3.003900	3.319400	-9.970500	26.868029	0.000568	20.923880
1701.477112	-2.980300	3.320400	-9.894500	26.864157	0.000568	20.911928
1702.482463	-2.993600	3.319700	-9.936900	26.875870	0.000567	20.918963
1703.475206	-2.990700	3.318600	-9.922300	26.884037	0.000568	20.918640
1704.474362	-2.993500	3.319700	-9.936300	26.874929	0.000566	20.906638
1705.477950	-2.970600	3.319600	-9.859600	26.885748	0.000566	20.904715
1706.475816	-3.015500	3.317600	-10.004000	26.882002	0.000565	20.912328
1707.476145	-3.013600	3.317600	-9.996600	26.874157	0.000565	20.909655
1708.474406	-2.999200	3.317300	-9.948700	26.853956	0.000564	20.913999
1709.478212	-3.001800	3.317500	-9.958100	26.850356	0.000563	20.886674
1710.477861	-3.007500	3.317300	-9.975700	26.859042	0.000563	20.884028
1711.475943	-2.998700	3.316700	-9.943900	26.879344	0.000563	20.905388
1712.483960	-2.987000	3.316500	-9.905900	26.892397	0.000562	20.918512
1713.482193	-3.018400	3.316300	-10.008000	26.918207	0.000561	20.899421
1714.481608	-2.987700	3.315200	-9.904100	26.915303	0.000559	20.898399
1715.482586	-3.007600	3.315900	-9.972100	26.911183	0.000560	20.903738
1716.484674	-2.983700	3.316500	-9.893100	26.881002	0.000558	20.901366
1717.480634	-3.014700	3.314500	-9.991300	26.831984	0.000558	20.913243
1718.477580	-3.007300	3.314500	-9.966900	26.823321	0.000558	20.890310
1719.480722	-3.009200	3.314800	-9.973400	26.789342	0.000558	20.905457
1720.482029	-2.998100	3.312000	-9.928200	26.794132	0.000555	20.902213
1721.485753	-2.992800	3.312600	-9.912800	26.789663	0.000554	20.885867
1722.481712	-2.998400	3.312700	-9.930800	26.821706	0.000555	20.894850
1723.481295	-3.001600	3.311100	-9.937200	26.807608	0.000555	20.893004
1724.485453	-2.995600	3.312000	-9.919300	26.876309	0.000553	20.895699
1725.483955	-2.992200	3.311700	-9.907700	26.862162	0.000554	20.872942
1726.482912	-2.991500	3.312000	-9.905600	26.873949	0.000551	20.889534
1727.482095	-2.993700	3.309700	-9.907300	26.837962	0.000551	20.902660
1728.483247	-2.998300	3.311100	-9.926700	26.820588	0.000551	20.903208
1729.483350	-3.022700	3.308500	-9.999400	26.776458	0.000549	20.898194
1730.482841	-3.013100	3.309000	-9.968800	26.760374	0.000550	20.888662
1731.487083	-2.992600	3.307400	-9.896400	26.796463	0.000549	20.890807
1732.490899	-2.993500	3.309900	-9.907300	26.823146	0.000549	20.878281
1733.485648	-3.022000	3.306700	-9.991200	26.829649	0.000549	20.891457
1734.487995	-2.994800	3.308200	-9.905000	26.840942	0.000546	20.883846
1735.498307	-3.011900	3.308400	-9.962600	26.875440	0.000548	20.909523
1736.487052	-3.017500	3.306400	-9.975700	26.898672	0.000549	20.890211
1737.485730	-2.982700	3.308000	-9.865500	26.906538	0.000547	20.903335
1738.487478	-3.005200	3.307100	-9.937200	26.939395	0.000547	20.880426
1739.489974	-3.000100	3.307000	-9.920100	26.933566	0.000545	20.868875
1740.490398	-3.025500	3.305000	-9.998400	26.942696	0.000545	20.876159
1741.485340	-2.985100	3.306100	-9.867000	26.932522	0.000545	20.883946
1742.497913	-2.984400	3.307200	-9.869400	26.902170	0.000544	20.891832
1743.490384	-3.040800	3.301900	-10.039000	26.944981	0.000543	20.880828
1744.491925	-2.997400	3.304800	-9.905400	26.960492	0.000543	20.870821
1745.488087	-2.991300	3.303300	-9.880400	26.946618	0.000543	20.886741
1746.492961	-2.994500	3.304300	-9.894200	26.911428	0.000541	20.863211
1747.499312	-3.001500	3.302400	-9.911300	26.893061	0.000541	20.896422
1748.494135	-2.992500	3.302600	-9.882000	26.857447	0.000540	20.871519
1749.491907	-3.022800	3.301400	-9.978600	26.826298	0.000540	20.871020
1750.490592	-2.991900	3.302600	-9.878800	26.807310	0.000540	20.866627
1751.492614	-2.986000	3.302600	-9.859100	26.796663	0.000539	20.858293
1752.491478	-2.982500	3.302300	-9.848200	26.842581	0.000537	20.863211
1753.496732	-3.020300	3.301000	-9.969100	26.852233	0.000538	20.862010
1754.493484	-2.979300	3.301200	-9.833500	26.856553	0.000537	20.870621
1755.490713	-2.991900	3.299600	-9.871700	26.850870	0.000538	20.889086
1756.490585	-3.013300	3.299700	-9.942200	26.880751	0.000535	20.870770
1757.492782	-3.001000	3.299700	-9.901900	26.863081	0.000536	20.869598
1758.492671	-2.998200	3.299000	-9.890100	26.833051	0.000536	20.882076
1759.496427	-3.003500	3.297800	-9.903900	26.830938	0.000535	20.883271
1760.495413	-2.972300	3.298900	-9.804300	26.829078	0.000535	20.887565
1761.492930	-2.986200	3.299000	-9.851100	26.830147	0.000531	20.882001
1762.496337	-2.995100	3.296900	-9.873500	26.833669	0.000532	20.881275
1763.495994	-3.002200	3.297800	-9.900000	26.857445	0.000532	20.863457
1764.497011	-2.984800	3.297600	-9.840900	26.883409	0.000529	20.870598
1765.496737	-2.984500	3.296600	-9.837900	26.864967	0.000529	20.877658
1766.497245	-2.977400	3.296300	-9.813200	26.875294	0.000528	20.877136
1767.496804	-2.986800	3.296400	-9.844400	26.914655	0.000527	20.870248
1768.497282	-2.982000	3.295700	-9.826400	26.950170	0.000526	20.870873
1769.496735	-2.995400	3.294900	-9.869000	26.961138	0.000527	20.879531
1770.498506	-3.001200	3.296100	-9.891200	26.970147	0.000524	20.864409
1771.495627	-3.010100	3.293800	-9.913700	26.990868	0.000525	20.868177
1772.502048	-3.015900	3.294200	-9.934200	26.996454	0.000525	20.853407
1773.505982	-2.995400	3.294900	-9.868100	26.981267	0.000526	20.883651
1774.501987	-2.991500	3.294400	-9.852500	26.971987	0.000524	20.857252
1775.493981	-2.985300	3.294500	-9.833600	26.961986	0.000522	20.876117
1776.498820	-2.981500	3.292900	-9.817000	27.005837	0.000523	20.846247
1777.495299	-3.004200	3.291100	-9.886100	26.982735	0.000523	20.872326
1778.500257	-3.008300	3.291800	-9.901400	26.982414	0.000524	20.853986
1779.498314	-2.995100	3.292400	-9.860200	26.958688	0.000521	20.848620
1780.502299	-3.022000	3.291100	-9.944400	26.912752	0.000523	20.860274
1781.506021	-3.007400	3.290100	-9.894000	26.916102	0.000521	20.869332
1782.497925	-3.016600	3.290700	-9.925600	26.919553	0.000521	20.848148
1783.500170	-3.016400	3.289500	-9.921600	26.945065	0.000519	20.850094
1784.504639	-3.014100	3.289500	-9.914100	26.946951	0.000519	20.866214
1785.500695	-3.022100	3.288800	-9.937700	26.929107	0.000517	20.854436
1786.498296	-3.006600	3.288100	-9.885500	26.887241	0.000517	20.846477
1787.506607	-2.990200	3.289500	-9.835700	26.848622	0.000516	20.881612
1788.503488	-3.013500	3.288800	-9.909400	26.865696	0.000517	20.867486
1789.503655	-3.024700	3.288200	-9.944600	26.839240	0.000516	20.838516
1790.506990	-2.997100	3.288900	-9.855400	26.856863	0.000519	20.858605
1791.507573	-3.001700	3.287400	-9.866800	26.873541	0.000514	20.859728
1792.505877	-2.997400	3.287100	-9.851700	26.881012	0.000516	20.844481
1793.506161	-3.003000	3.285200	-9.864400	26.906700	0.000514	20.873628
1794.503446	-3.029500	3.284500	-9.948800	26.948889	0.000513	20.857732
1795.506690	-2.997000	3.285500	-9.845400	26.974948	0.000511	20.851694
1796.506955	-2.996900	3.284200	-9.841300	27.020461	0.000512	20.843410
1797.507200	-3.005800	3.285600	-9.875200	27.023613	0.000511	20.849899
1798.509968	-2.983500	3.285500	-9.801000	26.987977	0.000511	20.867166
1799.510899	-2.993500	3.285100	-9.832200	26.982940	0.000511	20.847878
1800.509273	-2.963400	3.284600	-9.732500	26.974999	0.000509	20.849849
1801.510498	-2.979400	3.284100	-9.783400	26.986266	0.000509	20.848377
1802.510603	-2.996100	3.284400	-9.839500	27.000186	0.000508	20.864272
1803.511810	-3.045700	3.283000	-9.997600	26.998599	0.000507	20.852719
1804.508745	-3.000900	3.282900	-9.850600	27.031653	0.000508	20.851346
1805.509424	-2.991300	3.282200	-9.817300	27.048602	0.000509	20.863175
1806.510403	-3.003100	3.281400	-9.852800	27.076320	0.000506	20.842214
1807.510070	-3.003400	3.279500	-9.849300	27.082797	0.000505	20.863899
1808.512655	-2.991800	3.281400	-9.816500	27.099495	0.000504	20.866943
1809.512141	-2.989500	3.280100	-9.805000	27.079445	0.000503	20.873804
1810.508301	-2.995700	3.279600	-9.823900	27.022299	0.000501	20.834828
1811.520370	-2.999300	3.279400	-9.833300	26.980608	0.000503	20.842214
1812.513958	-2.988400	3.279700	-9.798700	26.914296	0.000503	20.836698
1813.517522	-2.973600	3.279500	-9.751200	26.890869	0.000500	20.829737
1814.512361	-2.987800	3.278200	-9.792400	26.903378	0.000500	20.867918
1815.510715	-2.999600	3.277400	-9.829300	26.941150	0.000498	20.829563
1816.513634	-2.974200	3.278200	-9.749100	26.989047	0.000497	20.855442
1817.518037	-2.994200	3.278200	-9.814400	26.990141	0.000498	20.841369
1818.510038	-2.985000	3.277500	-9.782000	26.997983	0.000497	20.821755
1819.514569	-3.032300	3.274200	-9.926800	26.991903	0.000498	20.847882
1820.518696	-3.009700	3.276300	-9.859000	26.974360	0.000497	20.878603
1821.513863	-3.010200	3.275200	-9.858800	26.967685	0.000498	20.844391
1822.522659	-3.001400	3.275900	-9.831400	26.929269	0.000496	20.829944
1823.518274	-2.997700	3.275000	-9.816700	26.882364	0.000496	20.829246
1824.519465	-3.008800	3.275900	-9.855700	26.870575	0.000493	20.829246
1825.516297	-3.010300	3.273700	-9.852900	26.879613	0.000493	20.842600
1826.516390	-3.011800	3.273800	-9.859700	26.915451	0.000494	20.839281
1827.522766	-2.964600	3.276000	-9.711400	26.910735	0.000493	20.844971
1828.521583	-2.987000	3.273600	-9.776700	26.917164	0.000491	20.839107
1829.522174	-3.010600	3.273300	-9.852600	26.936200	0.000491	20.836439
1830.519080	-2.991100	3.273300	-9.789800	26.911110	0.000490	20.824960
1831.522211	-3.012600	3.270500	-9.852300	26.934141	0.000490	20.828678
1832.521240	-3.011500	3.271400	-9.850500	26.939278	0.000488	20.831474
1833.520818	-3.017800	3.270100	-9.867000	26.995687	0.000488	20.833196
1834.523499	-3.002100	3.271300	-9.819100	26.998839	0.000490	20.829254
1835.521806	-2.976700	3.271000	-9.735900	27.028296	0.000487	20.832324
1836.524431	-2.992000	3.269700	-9.782000	27.005167	0.000487	20.831823
1837.525920	-2.992900	3.269600	-9.784900	26.989658	0.000487	20.816228
1838.526341	-2.995700	3.268200	-9.788800	26.976160	0.000488	20.824465
1839.525645	-3.010400	3.269500	-9.840800	26.962560	0.000485	20.832126
1840.521049	-3.031600	3.268000	-9.906500	26.902229	0.000484	20.846849
1841.522807	-2.998600	3.268400	-9.800100	26.900540	0.000484	20.838987
1842.529730	-2.991200	3.268200	-9.775000	26.919999	0.000485	20.825363
1843.528569	-3.008700	3.268100	-9.830900	26.952808	0.000484	20.828484
1844.528147	-3.002400	3.267300	-9.808700	26.930945	0.000483	20.824517
1845.535139	-3.006600	3.267500	-9.823000	26.961073	0.000481	20.849122
1846.529027	-3.000500	3.267500	-9.802700	26.988122	0.000481	20.823693
1847.532027	-3.035900	3.265300	-9.912200	27.028523	0.000482	20.830656
1848.530316	-3.016400	3.264800	-9.846800	27.061078	0.000481	20.836368
1849.527583	-2.987900	3.266600	-9.759200	27.103559	0.000479	20.814607
1850.528798	-3.028800	3.263900	-9.884600	27.150034	0.000478	20.813460
1851.531472	-2.998900	3.265200	-9.790700	27.134874	0.000480	20.815756
1852.529063	-3.007700	3.264500	-9.817200	27.158172	0.000477	20.810265
1853.535030	-3.011800	3.263500	-9.827600	27.155467	0.000477	20.821769
1854.534962	-3.021800	3.263300	-9.859700	27.169908	0.000477	20.841983
1855.532803	-2.999700	3.262600	-9.785800	27.158518	0.000477	20.828157
1856.533085	-2.988500	3.263200	-9.750100	27.206082	0.000476	20.832374
1857.535149	-2.981400	3.264000	-9.729900	27.219331	0.000475	20.833372
1858.532138	-2.985900	3.262300	-9.740000	27.209952	0.000473	20.840060
1859.533540	-3.015200	3.259700	-9.828100	27.190501	0.000474	20.825711
1860.536117	-3.003200	3.261700	-9.794800	27.192162	0.000474	20.824063
1861.531783	-2.997700	3.260500	-9.772300	27.188765	0.000471	20.799310
1862.533191	-2.996100	3.261700	-9.770400	27.215708	0.000470	20.807917
1863.536935	-2.997000	3.259700	-9.768400	27.228979	0.000469	20.829326
1864.533029	-2.989300	3.260500	-9.745300	27.217791	0.000469	20.811909
1865.533630	-3.011400	3.259700	-9.814500	27.213275	0.000468	20.814479
1866.530272	-3.003000	3.258600	-9.784600	27.206700	0.000468	20.810236
1867.533263	-3.001400	3.258600	-9.778800	27.238135	0.000468	20.798234
1868.534412	-2.995900	3.259500	-9.764100	27.249473	0.000467	20.805371
1869.534213	-3.021600	3.257200	-9.841300	27.288248	0.000467	20.797907
1870.534047	-2.999300	3.256800	-9.767700	27.306432	0.000468	20.801499
1871.533719	-3.006000	3.258300	-9.793500	27.357264	0.000466	20.797631
1872.530554	-2.976900	3.256700	-9.694400	27.329603	0.000463	20.803470
1873.533282	-3.012800	3.257500	-9.812500	27.365847	0.000465	20.802472
1874.531446	-3.013300	3.255000	-9.807200	27.389663	0.000462	20.820740
1875.531235	-3.002700	3.255100	-9.773400	27.396632	0.000463	20.803095
1876.532048	-3.013300	3.253900	-9.804500	27.370287	0.000464	20.795559
1877.540393	-2.990300	3.255400	-9.734000	27.415065	0.000463	20.797931
1878.533484	-3.009700	3.254200	-9.793700	27.445945	0.000460	20.790591
1879.534786	-3.004600	3.253800	-9.776200	27.427142	0.000461	20.795383
1880.532876	-3.003000	3.254000	-9.771500	27.413573	0.000459	20.804491
1881.537179	-3.028700	3.251000	-9.844200	27.433516	0.000458	20.809381
1882.537657	-2.989700	3.253200	-9.725400	27.442796	0.000459	20.811131
1883.534617	-3.000700	3.253200	-9.760500	27.434012	0.000455	20.790440
1884.538425	-3.022200	3.249800	-9.819700	27.437881	0.000455	20.810928
1885.536194	-3.001800	3.252700	-9.763300	27.411735	0.000457	20.804064
1886.537366	-3.030800	3.250600	-9.850700	27.406700	0.000455	20.802319
1887.537366	-2.997500	3.251700	-9.745500	27.401886	0.000455	20.807907
1888.539254	-2.996000	3.249900	-9.736000	27.406155	0.000453	20.799399
1889.540049	-3.000300	3.249400	-9.746900	27.383233	0.000453	20.794832
1890.544141	-3.007600	3.249000	-9.771000	27.321833	0.000451	20.815568
1891.539397	-2.987500	3.249000	-9.704900	27.280276	0.000449	20.802216
1892.537556	-2.981000	3.249400	-9.685400	27.304195	0.000450	20.808731
1893.540354	-2.998300	3.250400	-9.744800	27.309279	0.000449	20.802940
1894.538539	-3.004800	3.248100	-9.758400	27.302558	0.000448	20.807085
1895.539210	-3.000400	3.247300	-9.741700	27.291641	0.000450	20.809379
1896.541800	-2.994200	3.246900	-9.721500	27.305135	0.000449	20.795927
1897.542467	-2.979500	3.248300	-9.677400	27.284173	0.000447	20.804713
1898.541081	-2.998600	3.246900	-9.735000	27.286283	0.000448	20.815844
1899.539826	-3.010300	3.244900	-9.766700	27.287549	0.000444	20.794358
1900.542136	-3.006600	3.245700	-9.757900	27.279508	0.000445	20.800969
1901.537540	-2.987700	3.246200	-9.697100	27.323817	0.000446	20.787219
1902.546826	-2.992100	3.243500	-9.704000	27.342745	0.000445	20.788241
1903.538640	-3.011900	3.244600	-9.771400	27.361823	0.000446	20.809804
1904.544109	-3.011200	3.244000	-9.765600	27.404093	0.000443	20.792109
1905.544303	-3.002200	3.242400	-9.732400	27.415007	0.000442	20.807831
1906.545751	-2.980400	3.244300	-9.668000	27.427908	0.000442	20.794256
1907.548046	-3.021600	3.243200	-9.798100	27.417638	0.000440	20.782028
1908.543990	-3.001300	3.242500	-9.729900	27.402778	0.000440	20.790786
1909.541522	-3.013400	3.242300	-9.769500	27.380825	0.000440	20.779133
1910.543175	-3.015800	3.241000	-9.772800	27.384396	0.000438	20.801218
1911.544714	-3.009900	3.240800	-9.753100	27.366063	0.000438	20.790362
1912.542793	-3.003000	3.239900	-9.728500	27.345125	0.000439	20.793954
1913.543161	-2.980200	3.240400	-9.655600	27.350112	0.000437	20.811299
1914.544411	-2.989200	3.241000	-9.686800	27.301587	0.000436	20.798522
1915.546243	-2.986800	3.239600	-9.673900	27.270526	0.000437	20.796675
1916.549219	-2.993100	3.240900	-9.698500	27.231227	0.000434	20.786069
1917.550805	-3.011500	3.237800	-9.748700	27.187261	0.000435	20.803961
1918.554762	-3.003900	3.238500	-9.727200	27.165106	0.000434	20.784523
1919.548155	-3.028700	3.235600	-9.798500	27.138654	0.000432	20.793954
1920.551086	-2.984800	3.237100	-9.661000	27.170590	0.000433	20.786720
1921.551463	-2.981800	3.236800	-9.650800	27.160688	0.000431	20.774864
1922.549932	-2.976500	3.237000	-9.632200	27.172824	0.000428	20.798449
1923.549176	-3.010900	3.234400	-9.737300	27.181882	0.000428	20.795232
1924.546554	-2.996900	3.236000	-9.697400	27.234307	0.000428	20.795331
1925.544843	-3.021200	3.235500	-9.772600	27.243214	0.000427	20.808557
1926.550640	-3.021700	3.234500	-9.772500	27.261822	0.000428	20.787920
1927.548644	-3.000500	3.233700	-9.702500	27.253387	0.000426	20.778013
1928.546127	-3.015500	3.233300	-9.749200	27.250437	0.000426	20.799702
1929.547780	-2.988700	3.233400	-9.661800	27.282913	0.000426	20.779263
1930.547731	-2.999800	3.233600	-9.699400	27.275992	0.000425	20.787475
1931.547493	-2.997700	3.233100	-9.691100	27.293929	0.000425	20.794138
1932.550723	-3.001100	3.234700	-9.706600	27.309610	0.000423	20.782885
1933.547543	-2.983900	3.232300	-9.643400	27.339851	0.000423	20.789123
1934.552778	-3.002300	3.231400	-9.700700	27.361434	0.000421	20.794240
1935.553725	-3.015500	3.231800	-9.743100	27.359847	0.000422	20.794540
1936.551832	-3.002600	3.229900	-9.697700	27.346602	0.000418	20.792121
1937.558307	-2.995300	3.230400	-9.674800	27.337743	0.000418	20.786529
1938.556703	-3.000400	3.230900	-9.692900	27.356673	0.000418	20.787080
1939.554348	-2.998100	3.228700	-9.679100	27.366720	0.000416	20.809514
1940.558162	-2.997600	3.230100	-9.681400	27.353302	0.000418	20.796964
1941.557468	-2.997500	3.229800	-9.680800	27.324004	0.000418	20.804002
1942.557324	-3.003000	3.229200	-9.695000	27.374835	0.000418	20.801083
1943.556773	-2.997600	3.226500	-9.670900	27.335168	0.000415	20.801956
1944.561864	-2.995800	3.227700	-9.668600	27.360722	0.000413	20.800161
1945.554658	-3.006800	3.227100	-9.701800	27.366726	0.000414	20.769217
1946.556683	-2.997300	3.226700	-9.670600	27.400091	0.000414	20.802308
1947.555547	-2.995700	3.227500	-9.667800	27.451886	0.000413	20.794198
1948.557160	-3.011100	3.225000	-9.709800	27.466424	0.000412	20.790806
1949.559379	-2.985100	3.226000	-9.628900	27.468161	0.000410	20.766949
1950.558860	-3.016400	3.224500	-9.724900	27.483492	0.000411	20.783321
1951.556934	-2.988800	3.225000	-9.637800	27.535455	0.000411	20.773014
1952.561710	-3.012400	3.222900	-9.706900	27.584145	0.000409	20.785019
1953.556909	-3.001400	3.223600	-9.673900	27.590493	0.000406	20.782398
1954.561842	-3.001600	3.222200	-9.671000	27.588758	0.000407	20.792032
1955.562064	-3.021600	3.222700	-9.736900	27.561352	0.000406	20.774888
1956.559506	-3.008300	3.223000	-9.695000	27.573901	0.000405	20.792256
1957.563828	-3.024700	3.220700	-9.741000	27.573506	0.000405	20.776211
1958.563075	-3.009500	3.221900	-9.692800	27.594142	0.000405	20.773267
1959.563146	-3.012800	3.223500	-9.709500	27.610213	0.000402	20.800817
1960.573907	-2.999100	3.221900	-9.660700	27.635486	0.000403	20.771720
1961.565783	-2.992700	3.220700	-9.637000	27.649104	0.000403	20.796803
1962.559685	-3.004800	3.220100	-9.675000	27.656940	0.000402	20.779557
1963.564987	-2.988900	3.219400	-9.621200	27.663140	0.000399	20.782951
1964.562345	-2.994400	3.219900	-9.640700	27.653518	0.000399	20.805037
1965.567616	-2.987000	3.218600	-9.613300	27.639383	0.000398	20.802669
1966.563365	-3.003800	3.218700	-9.667200	27.646575	0.000397	20.799948
1967.563872	-3.012700	3.217500	-9.693000	27.611978	0.000398	20.776041
1968.566027	-2.989300	3.217600	-9.616600	27.608980	0.000395	20.787723
1969.563202	-3.016200	3.216400	-9.699700	27.552777	0.000395	20.799925
1970.564116	-2.997800	3.216100	-9.639500	27.480300	0.000395	20.784377
1971.565741	-3.018500	3.214300	-9.701600	27.452296	0.000393	20.781808
1972.565746	-3.008000	3.214900	-9.669500	27.482584	0.000394	20.798055
1973.567389	-2.986100	3.215700	-9.600100	27.503421	0.000391	20.804795
1974.569322	-3.015000	3.215100	-9.690200	27.545613	0.000390	20.793192
1975.574139	-2.973800	3.214600	-9.557600	27.553972	0.000392	20.783584
1976.568951	-3.014400	3.215300	-9.691500	27.521480	0.000388	20.795463
1977.565831	-2.985300	3.213300	-9.591300	27.535075	0.000387	20.803451
1978.575284	-3.029800	3.212300	-9.731100	27.557177	0.000388	20.794869
1979.570422	-3.005100	3.211800	-9.651000	27.553804	0.000387	20.800010
1980.571687	-3.006800	3.211500	-9.655200	27.504397	0.000385	20.806725
1981.572439	-3.018800	3.211200	-9.692100	27.440155	0.000387	20.805630
1982.572181	-2.986900	3.210200	-9.587400	27.458785	0.000384	20.791181
1983.573507	-3.008000	3.210800	-9.657500	27.403417	0.000385	20.800439
1984.573106	-2.982700	3.210200	-9.573800	27.401411	0.000382	20.795575
1985.572975	-3.001600	3.210000	-9.634300	27.411136	0.000381	20.780702
1986.571780	-2.994800	3.211500	-9.616300	27.397694	0.000382	20.808431
1987.574648	-3.008400	3.208700	-9.652100	27.381247	0.000382	20.799946
1988.574278	-2.989300	3.209700	-9.593900	27.384176	0.000380	20.814272
1989.573479	-2.988600	3.207600	-9.584000	27.404443	0.000381	20.803841
1990.574233	-2.980400	3.207900	-9.559200	27.420021	0.000378	20.779684
1991.574631	-2.983700	3.207500	-9.568500	27.400997	0.000377	20.793262
1992.574253	-2.987900	3.207600	-9.582900	27.424662	0.000377	20.809009
1993.570503	-2.995000	3.207000	-9.604500	27.468545	0.000377	20.807164
1994.573645	-2.989400	3.205500	-9.581800	27.474499	0.000376	20.796085
1995.573765	-2.978500	3.207000	-9.551000	27.462543	0.000375	20.806816
1996.575115	-3.007300	3.205600	-9.639300	27.443716	0.000374	20.815850
1997.579563	-3.017000	3.205300	-9.670000	27.454210	0.000373	20.818347
1998.570778	-2.985700	3.204800	-9.567500	27.533186	0.000371	20.798706
1999.573989	-2.999000	3.205000	-9.610900	27.589465	0.000373	20.813131
2000.579495	-2.993600	3.204700	-9.592900	27.622848	0.000372	20.802626
2001.570036	-2.989300	3.202900	-9.573700	27.641697	0.000372	20.821117
2002.575825	-2.997200	3.203000	-9.598700	27.660323	0.000371	20.772530
2003.573953	-3.023400	3.201500	-9.678000	27.642343	0.000369	20.804224
2004.572728	-2.987500	3.202700	-9.567600	27.598073	0.000368	20.805197
2005.577182	-2.997800	3.201600	-9.596900	27.595790	0.000368	20.804323
2006.575567	-3.000400	3.200600	-9.601800	27.625083	0.000367	20.818150
2007.575288	-2.974400	3.201600	-9.521000	27.667070	0.000366	20.814407
2008.575538	-2.970400	3.203000	-9.513300	27.659037	0.000364	20.829083
2009.574498	-3.010500	3.199300	-9.630100	27.651698	0.000364	20.802257
2010.580428	-3.023100	3.197900	-9.666100	27.595052	0.000363	20.805477
2011.582994	-3.016800	3.200200	-9.653500	27.590986	0.000362	20.804705
2012.579626	-3.009100	3.198000	-9.622300	27.655568	0.000362	20.808049
2013.575544	-3.006300	3.198100	-9.614200	27.681163	0.000360	20.816260
2014.578085	-3.012200	3.196200	-9.625500	27.724614	0.000359	20.830112
2015.577103	-3.005500	3.196000	-9.604900	27.714968	0.000361	20.809974
2016.579613	-3.000300	3.196500	-9.588500	27.687935	0.000359	20.802686
2017.579494	-3.003100	3.196600	-9.598800	27.712812	0.000357	20.815865
2018.579727	-3.001400	3.196700	-9.593000	27.754028	0.000356	20.815617
2019.580164	-3.009400	3.195800	-9.616400	27.767050	0.000356	20.827298
2020.577003	-3.007300	3.195300	-9.608600	27.813349	0.000355	20.828373
2021.583802	-2.997100	3.195500	-9.576500	27.834276	0.000354	20.838529
2022.580034	-3.011200	3.194100	-9.617500	27.855827	0.000352	20.826079
2023.577578	-3.024400	3.193100	-9.656500	27.886254	0.000352	20.839633
2024.579628	-3.000600	3.192000	-9.576600	27.882041	0.000351	20.824487
2025.577592	-2.969100	3.193700	-9.481400	27.882909	0.000351	20.814930
2026.579635	-2.995400	3.193500	-9.564800	27.892780	0.000350	20.820123
2027.577495	-3.005100	3.193000	-9.594400	27.904187	0.000350	20.823543
2028.578660	-2.988200	3.192100	-9.536400	27.910289	0.000347	20.806451
2029.577922	-2.972200	3.190700	-9.482200	27.940142	0.000346	20.821326
2030.578569	-2.965000	3.191200	-9.461100	27.959237	0.000346	20.831536
2031.585716	-2.981800	3.191500	-9.515600	27.924724	0.000348	20.826196
2032.586270	-3.013700	3.189500	-9.612100	27.888972	0.000345	20.814394
2033.583975	-2.965200	3.190800	-9.458500	27.828249	0.000345	20.833412
2034.582802	-2.983900	3.186900	-9.507000	27.817537	0.000344	20.834485
2035.581686	-3.000400	3.189400	-9.567000	27.774516	0.000346	20.822484
2036.589069	-2.990800	3.188100	-9.534600	27.723137	0.000342	20.822936
2037.584528	-2.993200	3.187300	-9.539500	27.725838	0.000342	20.833240
2038.582586	-3.009900	3.186700	-9.590600	27.744638	0.000342	20.841728
2039.584014	-2.999900	3.186700	-9.558400	27.752623	0.000341	20.849289
2040.580379	-2.981300	3.186600	-9.499000	27.788483	0.000340	20.822315
2041.585034	-2.984100	3.185200	-9.504200	27.827141	0.000339	20.836090
2042.589842	-2.992600	3.186500	-9.535000	27.878022	0.000339	20.821391
2043.588758	-3.002400	3.183600	-9.556700	27.913259	0.000338	20.834570
2044.583102	-2.997500	3.183600	-9.542200	27.947251	0.000336	20.833222
2045.586328	-3.008900	3.182800	-9.575000	27.925285	0.000338	20.841933
2046.589430	-2.985400	3.183000	-9.501200	27.906964	0.000337	20.835821
2047.584160	-2.976400	3.183500	-9.474400	27.901037	0.000336	20.819425
2048.585923	-3.012400	3.181400	-9.583100	27.917575	0.000336	20.849819
2049.589441	-2.991000	3.182600	-9.518000	27.911971	0.000334	20.838016
2050.588891	-3.015200	3.180600	-9.588300	27.920727	0.000334	20.827862
2051.583764	-3.023900	3.178100	-9.609500	27.946387	0.000332	20.842784
2052.589017	-2.992100	3.178900	-9.511100	27.913214	0.000335	20.829310
2053.584388	-3.007600	3.180300	-9.562700	27.922315	0.000331	20.832306
2054.588734	-3.019300	3.179700	-9.599300	27.927299	0.000330	20.835426
2055.584951	-2.985100	3.180200	-9.492500	27.959925	0.000329	20.830332
2056.583892	-3.021700	3.178200	-9.600700	27.939074	0.000328	20.855337
2057.590920	-3.001900	3.176900	-9.536100	27.933172	0.000327	20.834225
2058.586981	-3.006300	3.178400	-9.554400	27.963546	0.000328	20.848201
2059.588585	-2.996500	3.177400	-9.520300	27.952166	0.000329	20.834850
2060.583654	-2.982900	3.175600	-9.470900	27.956702	0.000327	20.854114
2061.588195	-3.000200	3.176000	-9.527000	27.983331	0.000327	20.833502
2062.584782	-3.004600	3.177500	-9.546800	27.977382	0.000324	20.853592
2063.591316	-2.989100	3.175400	-9.490300	27.932605	0.000326	20.840292
2064.584777	-3.011000	3.173100	-9.553600	27.885841	0.000323	20.840165
2065.589761	-3.018000	3.172600	-9.574200	27.861989	0.000321	20.839393
2066.593826	-3.008700	3.171100	-9.539900	27.829604	0.000321	20.851845
2067.589790	-2.990200	3.171100	-9.480800	27.817952	0.000319	20.834428
2068.595710	-3.006000	3.171800	-9.533300	27.842004	0.000320	20.847729
2069.593519	-3.006800	3.171300	-9.534200	27.860006	0.000319	20.870112
2070.595714	-2.994900	3.171000	-9.496100	27.881825	0.000318	20.853667
2071.587966	-3.008100	3.170500	-9.536000	27.897768	0.000317	20.859756
2072.593459	-3.018800	3.169500	-9.567300	27.938036	0.000318	20.857611
2073.590760	-2.979500	3.169700	-9.442500	27.967191	0.000316	20.867990
2074.591464	-2.993800	3.169500	-9.487600	27.962160	0.000315	20.843960
2075.600483	-3.041400	3.165900	-9.627300	27.982864	0.000314	20.864800
2076.593291	-2.985100	3.169200	-9.459300	28.018389	0.000314	20.862625
2077.594339	-2.983600	3.167600	-9.450400	28.019259	0.000315	20.856864
2078.590122	-2.991700	3.165700	-9.470400	28.018341	0.000316	20.873483
2079.594369	-3.011700	3.164300	-9.529000	28.046579	0.000312	20.865398
2080.590433	-2.984400	3.166300	-9.448400	28.030936	0.000313	20.844911
2081.614532	-3.008000	3.164400	-9.517500	28.019037	0.000312	20.863278
2082.595498	-2.991500	3.165100	-9.468000	28.042266	0.000313	20.863427
2083.592174	-3.006400	3.164100	-9.511500	28.063833	0.000309	20.878971
2084.592201	-2.999900	3.164300	-9.491400	28.061208	0.000311	20.854046
2085.594532	-2.986800	3.162000	-9.443000	28.061805	0.000308	20.872189
2086.596455	-3.026700	3.161000	-9.565900	28.072488	0.000308	20.884365
2087.597966	-2.997400	3.161600	-9.475500	28.130051	0.000307	20.867870
2088.596976	-3.004700	3.162300	-9.500800	28.125764	0.000306	20.861185
2089.596867	-2.999300	3.160800	-9.479300	28.090759	0.000308	20.877154
2090.598552	-3.012100	3.159100	-9.514900	28.110618	0.000304	20.879601
2091.596056	-3.004100	3.157500	-9.484500	28.099462	0.000305	20.888284
2092.595652	-2.998200	3.158800	-9.469400	28.098471	0.000304	20.886338
2093.595268	-2.998400	3.157900	-9.467900	28.087541	0.000302	20.868225
2094.599325	-2.999100	3.157300	-9.468500	28.113195	0.000304	20.881721
2095.597594	-2.983400	3.159000	-9.422700	28.120216	0.000301	20.878832
2096.599848	-3.000900	3.155700	-9.468700	28.156902	0.000300	20.871668
2097.596866	-3.015500	3.155700	-9.515200	28.120808	0.000301	20.876109
2098.600290	-3.021000	3.153700	-9.525800	28.120317	0.000298	20.884148
2099.600389	-2.992500	3.155400	-9.441500	28.121407	0.000299	20.883823
2100.601951	-3.000600	3.154900	-9.465600	28.157424	0.000298	20.875513
2101.601584	-2.999900	3.153300	-9.458600	28.141734	0.000297	20.889587
2102.609562	-3.034400	3.153400	-9.567000	28.144486	0.000296	20.857747
2103.613058	-2.982800	3.154000	-9.406100	28.088584	0.000295	20.865482
2104.602031	-2.996100	3.151700	-9.442600	28.094362	0.000296	20.883151
2105.602745	-2.989300	3.152800	-9.423700	28.068036	0.000295	20.895530
2106.606503	-2.991600	3.151700	-9.427600	28.041804	0.000293	20.873393
2107.602629	-3.001200	3.148700	-9.448700	28.055711	0.000296	20.874115
2108.610607	-2.982200	3.150400	-9.393300	28.073536	0.000293	20.892531
2109.599589	-2.998700	3.150700	-9.446900	28.079881	0.000293	20.883272
2110.604835	-3.009200	3.149300	-9.476300	28.082880	0.000290	20.888662
2111.609314	-3.011400	3.147400	-9.477700	28.055114	0.000293	20.896272
2112.599368	-3.018300	3.146600	-9.495900	28.037387	0.000291	20.888860
2113.601602	-2.981600	3.147700	-9.384600	28.016314	0.000290	20.881398
2114.599649	-2.980100	3.145400	-9.372200	27.996998	0.000287	20.888508
2115.600929	-2.989800	3.145000	-9.400800	28.025658	0.000289	20.914984
2116.600852	-3.012400	3.146000	-9.475500	27.971238	0.000289	20.907147
2117.602073	-2.989200	3.145500	-9.400900	28.022238	0.000287	20.902533
2118.621140	-3.006600	3.143600	-9.450700	28.046779	0.000285	20.893572
2119.605544	-3.006300	3.145100	-9.453500	28.102582	0.000285	20.886210
2120.606509	-2.999200	3.143400	-9.425300	28.098738	0.000284	20.917424
2121.614026	-3.002800	3.141500	-9.431900	28.129057	0.000285	20.906696
2122.606808	-3.004700	3.140500	-9.434000	28.172386	0.000283	20.875876
2123.606730	-2.994500	3.141300	-9.405700	28.208949	0.000283	20.886607
2124.606268	-3.007300	3.139900	-9.441700	28.225827	0.000283	20.908339
2125.607889	-2.996100	3.142300	-9.413800	28.240698	0.000282	20.915724
2126.611076	-2.998000	3.139800	-9.411400	28.308636	0.000279	20.928175
2127.611134	-3.004700	3.138400	-9.428300	28.307667	0.000279	20.917244
2128.609301	-2.995700	3.138500	-9.401300	28.314778	0.000280	20.910179
2129.608743	-2.987000	3.138100	-9.372200	28.298372	0.000280	20.900300
2130.609396	-3.013300	3.136200	-9.449300	28.325486	0.000277	20.912426
2131.607512	-3.008100	3.135800	-9.431600	28.331655	0.000277	20.900620
2132.609046	-2.985400	3.136500	-9.362300	28.273927	0.000276	20.917885
2133.608546	-2.992600	3.133800	-9.377900	28.251546	0.000278	20.905310
2134.606339	-3.003200	3.133600	-9.409600	28.242073	0.000276	20.931805
2135.609592	-2.980600	3.133700	-9.339400	28.286812	0.000273	20.909048
2136.609427	-3.002500	3.132300	-9.402400	28.333705	0.000274	20.938716
2137.613226	-3.001800	3.132800	-9.401300	28.365603	0.000273	20.929110
2138.612123	-3.016600	3.130200	-9.441300	28.399309	0.000271	20.930807
2139.616119	-2.975700	3.131400	-9.316800	28.391006	0.000270	20.928611
2140.611979	-2.993000	3.130900	-9.369600	28.390683	0.000271	20.932553
2141.614630	-3.021700	3.129000	-9.453600	28.363048	0.000272	20.917056
2142.616339	-2.996400	3.129000	-9.375100	28.345899	0.000272	20.923021
2143.612930	-3.017300	3.128000	-9.437000	28.362999	0.000267	20.924118
2144.616439	-3.016800	3.126400	-9.430900	28.379877	0.000268	20.949171
2145.609902	-3.003500	3.127200	-9.391600	28.426792	0.000269	20.935722
2146.612344	-3.007300	3.126100	-9.399100	28.451376	0.000267	20.926814
2147.612762	-2.979800	3.125300	-9.312000	28.502799	0.000268	20.935923
2148.617657	-2.968500	3.126200	-9.278600	28.510655	0.000264	20.937196
2149.612324	-2.990000	3.124800	-9.342900	28.533898	0.000264	20.923147
2150.616802	-2.984600	3.124400	-9.324300	28.561506	0.000263	20.943362
2151.615407	-3.003700	3.124100	-9.382400	28.579197	0.000263	20.939842
2152.618022	-3.023500	3.122800	-9.440500	28.604425	0.000263	20.927319
2153.620146	-3.022200	3.121300	-9.431800	28.643351	0.000261	20.929541
2154.616114	-2.989500	3.121900	-9.332200	28.628065	0.000262	20.925525
2155.622439	-2.976200	3.120900	-9.286900	28.658788	0.000262	20.936079
2156.616750	-3.011600	3.120000	-9.395900	28.661888	0.000264	20.939675
2157.617285	-3.013100	3.120000	-9.398800	28.628737	0.000260	20.936632
2158.617103	-2.987600	3.117600	-9.312100	28.623112	0.000260	20.925278
2159.614075	-3.030100	3.118200	-9.446900	28.581239	0.000261	20.910608
2160.617436	-2.988000	3.118200	-9.316200	28.562779	0.000259	20.914776
2161.615726	-2.982700	3.117300	-9.296500	28.584463	0.000258	20.913855
2162.615840	-3.006900	3.114900	-9.365900	28.589393	0.000258	20.907915
2163.625111	-2.995100	3.115600	-9.330400	28.594251	0.000258	20.918022
2164.622634	-2.994200	3.113800	-9.322500	28.589666	0.000258	20.910561
2165.620937	-2.998600	3.113000	-9.333600	28.551334	0.000256	20.919370
2166.626757	-3.025200	3.112100	-9.413300	28.505862	0.000256	20.938059
2167.621692	-3.051700	3.110100	-9.490000	28.509184	0.000257	20.903950
2168.618170	-2.992800	3.111500	-9.311400	28.526851	0.000254	20.917000
2169.625318	-2.997000	3.111000	-9.322200	28.579235	0.000254	20.928976
2170.619430	-2.995700	3.110800	-9.314900	28.611323	0.000252	20.920991
2171.622209	-3.004500	3.107800	-9.336000	28.625000	0.000252	20.891621
2172.621939	-3.020300	3.107600	-9.385200	28.627083	0.000252	20.899882
2173.621836	-2.986400	3.107100	-9.277300	28.637911	0.000252	20.916002
2174.623051	-3.022000	3.105900	-9.384600	28.655925	0.000251	20.925136
2175.629484	-2.998400	3.105800	-9.311600	28.653520	0.000250	20.896164
2176.624760	-2.990000	3.105600	-9.284700	28.665139	0.000250	20.900754
2177.621118	-3.020100	3.104300	-9.374500	28.659815	0.000249	20.897762
2178.626226	-3.017900	3.103800	-9.366000	28.609144	0.000248	20.898884
2179.624341	-2.991000	3.102700	-9.279200	28.616279	0.000249	20.899907
2180.628967	-2.995700	3.102200	-9.292300	28.666802	0.000247	20.926608
2181.624736	-2.991900	3.101000	-9.277000	28.643809	0.000247	20.907719
2182.630107	-3.000300	3.100200	-9.300700	28.633277	0.000245	20.894741
2183.624588	-2.989600	3.099100	-9.264100	28.582087	0.000246	20.893920
2184.623470	-3.003700	3.100300	-9.310100	28.574901	0.000246	20.912286
2185.626092	-2.987400	3.098600	-9.255200	28.586351	0.000246	20.890154
2186.622538	-2.990900	3.097800	-9.263600	28.569326	0.000246	20.892922
2187.625154	-2.977300	3.097100	-9.219700	28.593413	0.000248	20.897740
2188.626364	-2.980000	3.097900	-9.229900	28.550569	0.000243	20.895369
2189.628800	-2.996100	3.095200	-9.272400	28.540857	0.000244	20.900760
2190.626998	-3.000600	3.093900	-9.282000	28.503539	0.000243	20.869344
2191.628429	-3.007600	3.092100	-9.299300	28.519325	0.000243	20.882396
2192.626274	-3.001200	3.092200	-9.279900	28.517614	0.000243	20.892053
2193.633211	-2.997500	3.092700	-9.269400	28.489066	0.000243	20.885589
2194.627343	-2.996600	3.091400	-9.262900	28.509709	0.000242	20.872713
2195.625826	-2.996500	3.090200	-9.258600	28.514144	0.000242	20.873860
2196.634100	-3.020100	3.089400	-9.329100	28.505696	0.000242	20.897593
2197.624878	-3.004600	3.089100	-9.279900	28.482847	0.000242	20.891653
2198.625601	-2.992200	3.089500	-9.243700	28.492113	0.000239	20.891502
2199.628534	-3.006300	3.086600	-9.278200	28.505346	0.000240	20.895344
2200.629040	-3.011000	3.086100	-9.291400	28.521724	0.000240	20.892872
2201.629118	-3.006200	3.086400	-9.276500	28.518973	0.000240	20.882042
2202.633892	-2.976600	3.085900	-9.184700	28.430232	0.000240	20.860957
2203.629354	-3.014700	3.084100	-9.297000	28.408076	0.000238	20.878001
2204.625893	-3.006800	3.082000	-9.264600	28.417965	0.000238	20.883690
2205.629763	-2.996300	3.081800	-9.232300	28.470327	0.000237	20.877624
2206.627700	-2.982900	3.081200	-9.188600	28.487795	0.000236	20.888576
2207.632520	-3.013700	3.079000	-9.278200	28.515081	0.000236	20.895665
2208.631062	-3.005600	3.079500	-9.254300	28.583544	0.000235	20.865992
2209.630164	-3.011700	3.078900	-9.270900	28.598365	0.000234	20.878073
2210.630672	-3.000000	3.078500	-9.234800	28.637213	0.000234	20.877371
2211.630162	-3.007100	3.076300	-9.249300	28.647173	0.000235	20.885031
2212.631935	-3.002600	3.075700	-9.233700	28.623211	0.000233	20.893613
2213.632635	-3.006200	3.075400	-9.243800	28.555961	0.000233	20.897954
2214.630854	-3.023800	3.073200	-9.291500	28.564510	0.000232	20.866737
2215.628369	-3.004200	3.074500	-9.235700	28.544489	0.000233	20.893513
2216.628961	-3.018100	3.071700	-9.269900	28.585768	0.000231	20.876291
2217.629175	-2.977000	3.072800	-9.146700	28.581111	0.000232	20.882981
2218.630109	-3.012400	3.070300	-9.248700	28.602891	0.000231	20.870304
2219.629361	-3.007300	3.068600	-9.228000	28.640578	0.000232	20.872699
2220.630910	-2.987900	3.069600	-9.170400	28.675168	0.000230	20.889045
2221.629969	-2.986200	3.070000	-9.166300	28.656508	0.000232	20.879734
2222.632901	-3.006200	3.065700	-9.215200	28.654827	0.000232	20.881834
2223.632720	-2.996300	3.065900	-9.184700	28.682649	0.000231	20.869554
2224.631059	-2.975500	3.066500	-9.123000	28.696747	0.000230	20.878538
2225.634889	-3.011700	3.063400	-9.224400	28.741740	0.000230	20.860322
2226.631872	-3.000500	3.064200	-9.192800	28.759132	0.000226	20.882107
2227.633275	-3.007000	3.062800	-9.209200	28.785615	0.000229	20.849043
2228.633300	-2.976300	3.063300	-9.116400	28.831248	0.000227	20.863716
2229.640159	-2.998300	3.061600	-9.178500	28.820102	0.000227	20.878091
2230.633576	-3.014000	3.060500	-9.222400	28.859516	0.000227	20.847623
2231.633623	-3.012100	3.057900	-9.209500	28.879654	0.000228	20.866486
2232.634902	-3.005400	3.056200	-9.184500	28.878392	0.000229	20.866637
2233.634651	-2.993200	3.056500	-9.147000	28.855975	0.000226	20.884830
2234.638068	-3.004100	3.055000	-9.176600	28.811334	0.000226	20.874948
2235.640503	-2.998100	3.054400	-9.156300	28.776082	0.000227	20.865992
2236.635692	-2.997500	3.054200	-9.153900	28.719075	0.000227	20.857882
2237.639278	-2.990200	3.052300	-9.126200	28.678392	0.000226	20.865267
2238.645395	-3.001700	3.052000	-9.160000	28.597347	0.000226	20.851919
2239.644870	-2.998200	3.050000	-9.142600	28.561988	0.000224	20.858507
2240.639277	-3.026800	3.049700	-9.229500	28.541720	0.000225	20.868441
2241.644454	-2.992900	3.049100	-9.124000	28.517038	0.000225	20.847853
2242.639007	-3.032600	3.048100	-9.242300	28.501871	0.000225	20.857234
2243.647336	-2.978600	3.048300	-9.078300	28.509135	0.000225	20.870239
2244.645590	-3.015100	3.043800	-9.177000	28.503732	0.000224	20.869539
2245.641378	-2.982700	3.045400	-9.082600	28.489012	0.000223	20.859932
2246.646467	-2.972200	3.043900	-9.045600	28.458481	0.000224	20.852894
2247.641521	-2.994100	3.041600	-9.105800	28.503263	0.000222	20.866696
2248.654736	-3.024700	3.040000	-9.194000	28.539936	0.000222	20.860006
2249.642113	-2.984400	3.040200	-9.072700	28.584638	0.000223	20.850499
2250.650463	-2.998300	3.038700	-9.109800	28.627778	0.000222	20.851748
2251.650455	-2.974100	3.038500	-9.035500	28.592964	0.000223	20.866470
2252.644498	-2.961300	3.038300	-8.994900	28.575170	0.000223	20.865145
2253.644914	-2.980500	3.036500	-9.049400	28.538449	0.000223	20.849027
2254.645047	-2.980300	3.035300	-9.045500	28.523405	0.000223	20.838619
2255.645646	-2.972600	3.034000	-9.016800	28.528883	0.000223	20.848876
2256.644524	-2.989200	3.033200	-9.065400	28.538597	0.000221	20.847279
2257.644305	-3.006600	3.031100	-9.112300	28.509160	0.000220	20.846083
2258.643175	-2.988100	3.030400	-9.054100	28.512677	0.000223	20.859582
2259.649142	-2.997200	3.030200	-9.080900	28.538969	0.000220	20.840542
2260.650334	-3.009600	3.027400	-9.110200	28.525118	0.000219	20.858361
2261.647427	-2.992600	3.028600	-9.062300	28.534459	0.000219	20.856861
2262.646866	-3.042700	3.025100	-9.203100	28.568258	0.000220	20.856288
2263.653542	-2.999500	3.025300	-9.073800	28.577379	0.000221	20.850300
2264.646846	-2.995900	3.024700	-9.059900	28.560629	0.000220	20.844812
2265.648208	-3.011300	3.023400	-9.102600	28.542142	0.000218	20.848952
2266.646581	-3.014500	3.020700	-9.104600	28.533593	0.000219	20.836076
2267.648244	-2.989200	3.020400	-9.027200	28.513942	0.000220	20.833356
2268.651261	-2.987100	3.019200	-9.017400	28.521551	0.000219	20.839596
2269.649641	-2.971600	3.018500	-8.969200	28.507700	0.000221	20.839872
2270.650533	-3.009500	3.016200	-9.075000	28.520410	0.000218	20.842240
2271.651965	-2.992800	3.016200	-9.025300	28.515729	0.000219	20.853646
2272.650531	-2.983400	3.014800	-8.993600	28.573141	0.000219	20.849352
2273.651674	-2.985200	3.013500	-8.994500	28.611598	0.000219	20.834031
2274.653104	-3.019700	3.012300	-9.095300	28.648568	0.000220	20.852298
2275.650189	-3.020500	3.010900	-9.093600	28.658649	0.000218	20.832107
2276.656379	-3.009700	3.007300	-9.050800	28.638581	0.000218	20.838921
2277.647698	-3.000100	3.009000	-9.026100	28.668685	0.000219	20.850275
2278.650595	-3.013600	3.006900	-9.060300	28.701958	0.000218	20.844435
2279.651349	-2.965700	3.006700	-8.916200	28.728221	0.000218	20.843861
2280.648427	-3.011900	3.004800	-9.048900	28.725200	0.000216	20.846507
2281.649220	-3.013000	3.002800	-9.047100	28.773731	0.000219	20.847503
2282.649386	-2.987700	3.001400	-8.966100	28.780792	0.000220	20.856986
2283.652599	-2.996400	3.001100	-8.991800	28.811363	0.000218	20.845582
2284.658467	-2.979600	3.000400	-8.938400	28.833584	0.000219	20.846155
2285.652047	-2.982300	2.999600	-8.944100	28.887017	0.000219	20.835024
2286.653043	-3.023200	2.995600	-9.055000	28.909483	0.000216	20.822096
2287.654162	-2.989200	2.996100	-8.955100	28.924198	0.000216	20.834076
2288.648355	-2.955200	2.996500	-8.853700	28.931258	0.000218	20.846403
2289.651753	-3.005200	2.993000	-8.993800	28.937699	0.000217	20.843410
2290.649952	-3.000900	2.990700	-8.974200	28.930640	0.000216	20.836772
2291.650998	-3.031300	2.989000	-9.059500	28.961675	0.000218	20.822520
2292.657275	-2.992500	2.989400	-8.944700	28.947852	0.000218	20.839413
2293.655187	-3.025500	2.984700	-9.028800	28.931108	0.000217	20.849571
2294.657508	-3.027200	2.985800	-9.037800	28.948150	0.000216	20.831653
2295.656428	-3.005400	2.983900	-8.966600	28.961574	0.000218	20.829057
2296.655581	-2.994700	2.982800	-8.931700	28.989363	0.000217	20.830028
2297.656175	-3.000200	2.982600	-8.948300	28.987283	0.000216	20.853062
2298.655574	-2.974400	2.982200	-8.869600	29.000212	0.000216	20.819621
2299.655201	-3.000200	2.979000	-8.936100	29.005980	0.000214	20.833019
2300.652414	-3.023800	2.978600	-9.005200	28.982575	0.000217	20.831249
2301.654786	-2.959800	2.978200	-8.813000	29.017423	0.000216	20.826056
2302.657321	-2.973300	2.977000	-8.850400	29.007217	0.000216	20.826205
2303.669074	-2.989400	2.974700	-8.892200	29.029905	0.000214	20.820141
2304.660585	-2.982100	2.973200	-8.865200	29.013853	0.000213	20.835261
2305.658322	-3.028700	2.969100	-8.991400	28.971098	0.000214	20.833437
2306.657971	-2.976800	2.970400	-8.841600	28.980735	0.000214	20.812800
2307.655360	-2.977500	2.968700	-8.838200	28.975036	0.000215	20.838352
2308.657684	-2.982200	2.967200	-8.846600	28.916059	0.000214	20.821134
2309.654114	-2.956900	2.967400	-8.773000	28.853014	0.000214	20.825900
2310.654261	-2.989600	2.964800	-8.861900	28.818874	0.000215	20.831337
2311.653820	-2.997000	2.960500	-8.870300	28.876248	0.000216	20.821805
2312.658111	-3.022700	2.961000	-8.948800	28.872209	0.000213	20.832909
2313.659486	-2.939600	2.961300	-8.704100	28.863167	0.000216	20.805783
2314.657766	-3.028300	2.958400	-8.957900	28.826701	0.000214	20.815989
2315.658000	-3.013300	2.956400	-8.907900	28.760258	0.000213	20.808328
2316.658144	-3.008500	2.955800	-8.890800	28.716504	0.000214	20.810723
2317.657975	-3.021200	2.953000	-8.920200	28.648664	0.000211	20.829163
2318.658699	-3.047100	2.949400	-8.985100	28.667000	0.000215	20.827242
2319.658881	-3.006200	2.950200	-8.868500	28.704364	0.000213	20.832633
2320.655955	-2.996800	2.948200	-8.833000	28.763355	0.000213	20.787740
2321.656412	-2.998400	2.946100	-8.832600	28.839161	0.000214	20.825221
2322.660158	-2.979500	2.946600	-8.777200	28.874437	0.000214	20.811446
2323.659960	-2.983700	2.944500	-8.784400	28.917316	0.000213	20.800116
2324.662021	-3.037300	2.941500	-8.932200	28.918307	0.000214	20.809174
2325.663858	-3.029900	2.939200	-8.904000	28.927148	0.000213	20.813814
2326.660150	-3.001300	2.940400	-8.823100	28.912883	0.000210	20.814142
2327.663010	-2.993600	2.937100	-8.791700	28.897474	0.000212	20.809050
2328.662735	-3.008100	2.934000	-8.825900	28.888135	0.000212	20.817185
2329.658683	-2.978200	2.934000	-8.737200	28.865519	0.000214	20.817635
2330.662413	-3.002200	2.932200	-8.802200	28.883951	0.000211	20.814866
2331.662480	-3.017100	2.931000	-8.842100	28.902085	0.000212	20.810376
2332.664968	-3.007700	2.928100	-8.805900	28.937681	0.000211	20.788391
2333.665407	-3.009800	2.926700	-8.808300	28.983577	0.000211	20.811870
2334.675469	-3.026600	2.924800	-8.851000	29.011468	0.000213	20.812945
2335.670437	-3.002300	2.922700	-8.773400	29.048274	0.000211	20.817312
2336.665634	-3.005000	2.923300	-8.783700	29.062170	0.000212	20.811872
2337.663469	-2.991800	2.921300	-8.739100	29.069600	0.000211	20.812247
2338.664910	-3.015800	2.918800	-8.800500	29.038071	0.000212	20.794230
2339.663156	-2.988900	2.917900	-8.720300	28.993164	0.000211	20.807305
2340.664214	-2.972500	2.915200	-8.664300	28.951946	0.000212	20.818409
2341.666218	-3.005400	2.913900	-8.756000	28.945483	0.000211	20.819484
2342.664352	-2.988700	2.912400	-8.703100	28.948504	0.000210	20.819208
2343.664458	-2.979600	2.909600	-8.666500	28.878029	0.000209	20.796099
2344.664622	-3.052900	2.907800	-8.876200	28.814214	0.000210	20.810522
2345.664962	-3.019000	2.906100	-8.772700	28.778389	0.000211	20.808100
2346.667701	-2.990600	2.906300	-8.690000	28.792237	0.000210	20.783168
2347.665544	-2.972000	2.904100	-8.629300	28.789908	0.000211	20.820177
2348.664636	-3.000600	2.901800	-8.705300	28.834721	0.000211	20.793722
2349.664367	-2.996200	2.900900	-8.690900	28.885161	0.000211	20.776257
2350.664635	-3.008800	2.898300	-8.719600	28.928112	0.000210	20.806251
2351.668109	-3.020200	2.893000	-8.735500	28.969380	0.000211	20.789980
2352.664821	-3.005200	2.893900	-8.695800	29.027487	0.000212	20.784514
2353.670341	-3.021500	2.892500	-8.738500	29.071203	0.000212	20.812439
2354.674787	-2.968200	2.892100	-8.583200	29.105727	0.000212	20.790328
2355.667539	-3.009800	2.888600	-8.692300	29.152758	0.000211	20.795045
2356.674983	-3.023700	2.887100	-8.727800	29.170242	0.000210	20.804602
2357.673067	-2.990800	2.885400	-8.628400	29.173311	0.000210	20.789678
2358.673620	-2.996600	2.883600	-8.639600	29.161055	0.000210	20.804828
2359.672926	-3.012800	2.882200	-8.681500	29.154369	0.000209	20.815634
2360.671007	-3.028000	2.878900	-8.716300	29.191416	0.000210	20.796542
2361.674044	-3.015300	2.876500	-8.672000	29.202959	0.000210	20.788734
2362.676679	-2.999100	2.875800	-8.623200	29.265859	0.000209	20.796646
2363.674792	-2.990600	2.873200	-8.591600	29.269722	0.000210	20.791529
2364.673262	-3.000200	2.872600	-8.617600	29.235102	0.000212	20.798840
2365.674184	-2.989300	2.870600	-8.579100	29.221755	0.000210	20.789657
2366.678577	-2.999800	2.867200	-8.600600	29.174183	0.000212	20.791504
2367.682646	-3.005200	2.865600	-8.610300	29.171534	0.000211	20.794525
2368.681988	-2.999400	2.862800	-8.585200	29.166433	0.000212	20.785591
2369.675459	-3.008500	2.862000	-8.609300	29.184783	0.000211	20.777530
2370.679028	-3.028600	2.858700	-8.656700	29.150286	0.000209	20.796822
2371.678650	-3.004200	2.857900	-8.583900	29.176959	0.000210	20.793354
2372.675467	-3.013500	2.855000	-8.602400	29.175375	0.000210	20.794602
2373.681512	-2.986200	2.853100	-8.518700	29.170074	0.000210	20.798269
2374.680768	-2.999700	2.851400	-8.552200	29.140358	0.000210	20.787765
2375.681605	-2.979100	2.848300	-8.483700	29.084607	0.000209	20.794652
2376.680607	-3.009700	2.847000	-8.566200	29.035864	0.000209	20.773988
2377.683726	-3.050800	2.844000	-8.675600	29.051593	0.000211	20.793629
2378.680780	-3.018000	2.843000	-8.579200	29.040966	0.000212	20.785767
2379.677690	-2.974600	2.842000	-8.452400	29.038983	0.000209	20.811744
2380.685227	-3.011600	2.837500	-8.544800	29.004678	0.000209	20.791405
2381.677515	-2.994100	2.836500	-8.491200	29.045970	0.000210	20.790335
2382.683659	-2.989900	2.834500	-8.473600	29.066427	0.000212	20.782023
2383.681722	-3.018600	2.831700	-8.547000	29.102930	0.000213	20.789881
2384.681423	-3.012600	2.828900	-8.521800	29.156352	0.000209	20.801511
2385.682655	-2.984700	2.828300	-8.440800	29.167374	0.000211	20.791281
2386.681736	-2.972400	2.826900	-8.401900	29.194709	0.000212	20.778998
2387.685056	-3.010300	2.825000	-8.501100	29.185523	0.000211	20.788233
2388.679649	-2.999300	2.820900	-8.460000	29.131982	0.000210	20.783119
2389.685126	-2.996000	2.819300	-8.445000	29.096439	0.000210	20.803254
2390.680666	-2.972500	2.817500	-8.374600	29.107484	0.000209	20.791150
2391.680454	-2.974600	2.815000	-8.372900	29.068180	0.000212	20.794221
2392.683129	-3.005300	2.812100	-8.450400	29.062629	0.000209	20.796214
2393.683329	-2.995700	2.810700	-8.418800	29.120462	0.000209	20.790003
2394.684680	-3.005700	2.807300	-8.436700	29.154537	0.000209	20.805372
2395.686579	-2.989800	2.804200	-8.382200	29.107927	0.000209	20.796813
2396.683595	-3.008100	2.803000	-8.429900	29.036921	0.000211	20.772208
2397.682227	-3.024200	2.798800	-8.463300	29.038208	0.000209	20.798161
2398.686332	-2.994300	2.796200	-8.371700	29.085461	0.000211	20.780339
2399.684491	-2.990100	2.796000	-8.358500	29.131256	0.000209	20.810836
2400.688060	-2.988700	2.792700	-8.346100	29.122439	0.000209	20.794839
2401.684598	-2.997400	2.789600	-8.359400	29.087220	0.000207	20.809613
2402.686008	-2.992100	2.786600	-8.336900	29.058537	0.000209	20.793040
2403.686800	-2.957400	2.784700	-8.234600	29.069607	0.000208	20.809884
2404.686089	-2.993200	2.780600	-8.322100	29.091106	0.000211	20.795984
2405.685173	-2.991700	2.777700	-8.308700	29.085289	0.000210	20.792968
2406.683954	-3.017800	2.775800	-8.375900	29.076496	0.000209	20.795962
2407.696837	-2.996900	2.772800	-8.308700	29.074165	0.000207	20.794088
2408.692544	-3.001000	2.770800	-8.313900	29.109111	0.000209	20.800850
2409.687182	-3.019200	2.767700	-8.355100	29.156637	0.000207	20.775720
2410.692299	-2.999600	2.764200	-8.289900	29.171620	0.000208	20.786077
2411.685152	-3.010500	2.761100	-8.311500	29.193710	0.000208	20.784629
2412.684613	-3.021200	2.757300	-8.329400	29.214760	0.000208	20.794462
2413.687791	-3.018600	2.753700	-8.310300	29.256956	0.000208	20.822286
2414.685884	-3.017100	2.750600	-8.297200	29.281867	0.000209	20.797131
2415.688982	-3.008300	2.749000	-8.267200	29.290435	0.000209	20.802446
2416.688111	-3.009900	2.745500	-8.262200	29.322107	0.000208	20.805917
2417.689227	-2.964000	2.744100	-8.132300	29.328967	0.000206	20.801925
2418.690597	-3.004400	2.739200	-8.229300	29.292565	0.000209	20.792266
2419.694260	-2.996000	2.736000	-8.195000	29.300640	0.000208	20.807041
2420.690126	-2.999000	2.733200	-8.195500	29.307327	0.000209	20.804772
2421.692277	-3.001000	2.730600	-8.192300	29.350063	0.000207	20.798057
2422.688121	-3.009500	2.727100	-8.206300	29.331863	0.000207	20.802948
2423.686635	-2.982100	2.724500	-8.123700	29.265304	0.000207	20.804621
2424.693368	-2.977500	2.721800	-8.103500	29.232172	0.000206	20.798732
2425.690552	-2.991100	2.717100	-8.125900	29.160526	0.000207	20.806666
2426.688014	-2.968900	2.714000	-8.055300	29.123604	0.000206	20.801703
2427.691102	-2.987400	2.710600	-8.096400	29.085311	0.000207	20.802473
2428.691861	-2.990300	2.708100	-8.097300	29.075801	0.000206	20.795736
2429.693514	-3.000900	2.704400	-8.114000	29.132271	0.000208	20.812333
2430.694912	-2.985200	2.700100	-8.059500	29.183114	0.000207	20.810936
2431.688584	-3.003000	2.695900	-8.094700	29.244752	0.000207	20.795763
2432.694000	-2.995600	2.691500	-8.060200	29.235642	0.000207	20.798910
2433.693503	-3.016600	2.690100	-8.113100	29.211299	0.000206	20.805673
2434.689030	-3.029200	2.683500	-8.128000	29.215457	0.000207	20.808915
2435.692911	-3.035500	2.680900	-8.136300	29.262584	0.000207	20.808043
2436.693042	-3.009900	2.676700	-8.055000	29.270284	0.000206	20.802053
2437.696175	-3.001700	2.674600	-8.027400	29.317185	0.000208	20.799059
2438.688763	-3.020700	2.668800	-8.059800	29.347915	0.000210	20.790676
2439.693944	-3.011300	2.664600	-8.022700	29.354427	0.000207	20.793446
2440.691979	-2.997500	2.661300	-7.976300	29.348432	0.000207	20.818698
2441.691851	-3.014300	2.657300	-8.008000	29.350242	0.000208	20.825264
2442.693807	-2.979400	2.653000	-7.902300	29.390822	0.000208	20.812110
2443.692127	-3.006600	2.650000	-7.966800	29.401297	0.000209	20.829305
2444.695327	-3.025500	2.643300	-7.996000	29.392580	0.000208	20.820994
2445.690823	-2.982900	2.640600	-7.876300	29.383544	0.000208	20.812360
2446.693348	-3.017900	2.635700	-7.953100	29.395378	0.000208	20.810538
2447.694167	-2.991000	2.631600	-7.869900	29.406346	0.000210	20.804049
2448.696768	-3.000800	2.627900	-7.884900	29.366482	0.000208	20.816501
2449.689215	-3.009000	2.621500	-7.887100	29.318271	0.000207	20.815327
2450.694237	-3.011900	2.616500	-7.879200	29.293733	0.000207	20.819046
2451.693398	-2.986300	2.612600	-7.800600	29.317850	0.000209	20.818222
2452.695174	-3.029400	2.606300	-7.895200	29.382524	0.000209	20.809437
2453.701190	-3.004600	2.602900	-7.820100	29.432291	0.000209	20.827355
2454.693147	-2.971100	2.598500	-7.719400	29.464824	0.000209	20.824584
2455.700618	-3.002000	2.591200	-7.777500	29.519190	0.000209	20.809685
2456.697771	-3.007100	2.584500	-7.770900	29.547538	0.000210	20.831148
2457.700396	-2.984800	2.580200	-7.699800	29.562144	0.000209	20.816474
2458.695778	-2.987500	2.575700	-7.694200	29.573157	0.000209	20.812403
2459.699079	-2.972400	2.569600	-7.636500	29.563526	0.000211	20.814548
2460.709311	-2.967400	2.565300	-7.611500	29.574519	0.000210	20.807138
2461.700167	-3.001900	2.557200	-7.675600	29.552856	0.000209	20.824655
2462.704636	-2.999900	2.551700	-7.653500	29.547186	0.000209	20.834113
2463.700706	-3.020300	2.545800	-7.688000	29.553821	0.000209	20.814248
2464.704118	-3.012000	2.540100	-7.649700	29.574539	0.000211	20.829918
2465.704257	-3.022200	2.534800	-7.658700	29.598404	0.000211	20.827423
2466.698898	-3.012500	2.528200	-7.614300	29.659001	0.000209	20.821656
2467.700760	-3.024000	2.522200	-7.624800	29.730661	0.000209	20.814720
2468.698874	-3.006700	2.515700	-7.562800	29.705487	0.000210	20.829642
2469.698753	-3.009000	2.508600	-7.547200	29.722937	0.000211	20.839649
2470.698539	-2.987900	2.502200	-7.475200	29.778849	0.000210	20.829640
2471.697595	-3.013400	2.496600	-7.522800	29.844510	0.000209	20.825671
