LabVIEW Measurement	
Writer_Version	2
Reader_Version	2
Separator	Tab
Decimal_Separator	.
Multi_Headings	No
X_Columns	One
Time_Pref	Absolute
Operator	admin
Description	Clolumns are: time, Current, Voltage, Power, Battery Temp, and Chamber Temp
Date	2024/08/16
Time	13:06:06.104549407958984375
***End_of_Header***	
	
Channels	6						
Samples	1	1	1	1	1	1	
Date	2024/08/27	2024/08/27	2024/08/27	2024/08/27	2024/08/27	2024/08/27	
Time	07:44:19.8623862266540527344	07:44:19.8679056167602539062	07:44:19.8767609596252441406	07:44:19.8471288681030273437	07:44:19.8471288681030273437	07:44:19.8471288681030273437	
X_Dimension	Time	Time	Time	Time	Time	Time	
X0	0.0000000000000000E+0	0.0000000000000000E+0	0.0000000000000000E+0	0.0000000000000000E+0	0.0000000000000000E+0	0.0000000000000000E+0	
Delta_X	1.000000	1.000000	1.000000	1.000000	1.000000	1.000000	
***End_of_Header***							
X_Value	Untitled	Untitled 1	Untitled 2	Untitled 3	Untitled 4	Untitled 5	Comment
0.000000	3.400000E+38	4.108900	0.266350	21.084408	0.000961	20.864435
1.007342	-3.007100	3.948200	-11.872000	21.077597	0.000963	20.851932
2.004620	-3.013800	3.941100	-11.875000	21.081664	0.000963	20.859319
3.008090	-3.015100	3.936900	-11.869000	21.081290	0.000960	20.858471
4.003086	-3.005200	3.932100	-11.815000	21.070687	0.000962	20.877736
4.999322	-2.980900	3.929000	-11.711000	21.056242	0.000958	20.886520
6.005690	-3.029700	3.924400	-11.889000	21.071960	0.000958	20.877587
7.003478	-3.017100	3.922400	-11.833000	21.091271	0.000956	20.884100
8.003481	-2.996400	3.921200	-11.749000	21.070663	0.000957	20.861118
9.002170	-2.999100	3.917500	-11.747000	21.104020	0.000956	20.871249
10.004116	-3.010300	3.915500	-11.786000	21.078847	0.000954	20.859820
11.000361	-3.009100	3.914900	-11.779000	21.104944	0.000954	20.866483
12.009684	-3.000500	3.912600	-11.739000	21.102972	0.000956	20.874942
13.003522	-3.009400	3.911600	-11.770000	21.105991	0.000954	20.879383
14.006443	-2.989400	3.910900	-11.690000	21.120238	0.000953	20.892685
15.009465	-2.969800	3.910100	-11.611000	21.095563	0.000954	20.865635
16.002026	-3.016100	3.906300	-11.779000	21.114748	0.000954	20.872971
17.003520	-2.999500	3.906500	-11.716000	21.139373	0.000952	20.882903
18.003903	-3.017100	3.904700	-11.780000	21.122781	0.000950	20.891436
19.004213	-2.997100	3.904800	-11.702000	21.130891	0.000950	20.884376
20.003333	-3.016200	3.903500	-11.772000	21.133809	0.000951	20.883976
21.013275	-2.981300	3.903200	-11.636000	21.134708	0.000949	20.894357
22.002512	-3.028900	3.901200	-11.815000	21.161352	0.000948	20.894457
23.004078	-3.001400	3.900400	-11.706000	21.149902	0.000948	20.897227
24.006143	-2.992700	3.900300	-11.671000	21.159007	0.000950	20.906335
25.005181	-2.997300	3.900200	-11.689000	21.174200	0.000949	20.886446
26.005878	-2.981900	3.899800	-11.627000	21.169161	0.000948	20.885674
27.005339	-2.999900	3.898700	-11.694000	21.190965	0.000947	20.882829
28.005583	-3.006500	3.898900	-11.721000	21.166616	0.000947	20.883602
29.006035	-3.021700	3.896000	-11.772000	21.173728	0.000945	20.887871
30.006082	-3.006100	3.897500	-11.715000	21.181561	0.000944	20.901395
31.013587	-3.008100	3.895400	-11.716000	21.183906	0.000944	20.901844
32.010496	-2.990200	3.895600	-11.648000	21.216462	0.000942	20.903118
33.008845	-2.995600	3.895000	-11.666000	21.191763	0.000942	20.887894
34.011634	-2.990600	3.893500	-11.643000	21.201668	0.000943	20.892586
35.012149	-2.995500	3.893500	-11.663000	21.227913	0.000943	20.904615
36.017337	-2.997700	3.892300	-11.667000	21.231580	0.000942	20.896904
37.014631	-3.012200	3.892800	-11.724000	21.236942	0.000941	20.904165
38.020002	-3.012300	3.890800	-11.719000	21.243104	0.000940	20.902743
39.009790	-3.009600	3.892100	-11.713000	21.257323	0.000939	20.887097
40.012557	-3.008600	3.890300	-11.704000	21.253706	0.000938	20.899599
41.012148	-3.002300	3.889700	-11.676000	21.241482	0.000939	20.933834
42.010458	-2.997900	3.889100	-11.658000	21.280696	0.000939	20.914270
43.012356	-2.991400	3.889100	-11.633000	21.270468	0.000939	20.901195
44.011989	-3.007400	3.889800	-11.697000	21.277628	0.000938	20.910253
45.013034	-2.984000	3.889400	-11.604000	21.284738	0.000938	20.917365
46.009616	-2.976200	3.888000	-11.570000	21.291248	0.000938	20.898750
47.013209	-3.008500	3.886900	-11.693000	21.286459	0.000937	20.898700
48.018030	-2.997800	3.887200	-11.652000	21.301625	0.000938	20.927620
49.011810	-3.006800	3.885100	-11.681000	21.309906	0.000936	20.911725
50.017503	-3.008100	3.885100	-11.686000	21.327817	0.000936	20.929168
51.011278	-3.024800	3.885100	-11.751000	21.320009	0.000937	20.932261
52.018843	-2.998900	3.884800	-11.649000	21.339889	0.000934	20.938400
53.010591	-2.986800	3.885200	-11.603000	21.342808	0.000936	20.913347
54.013740	-2.990600	3.885200	-11.618000	21.376057	0.000936	20.913422
55.018085	-2.977000	3.885100	-11.565000	21.333354	0.000936	20.915743
56.013646	-2.993600	3.884700	-11.628000	21.355380	0.000937	20.907434
57.016115	-3.007800	3.883700	-11.680000	21.351887	0.000934	20.913896
58.013938	-2.998100	3.884700	-11.647000	21.380822	0.000935	20.925300
59.012756	-3.013300	3.883900	-11.702000	21.349344	0.000932	20.936479
60.013006	-3.040700	3.882700	-11.806000	21.364284	0.000933	20.905911
61.025360	-3.011100	3.881700	-11.688000	21.394740	0.000935	20.935905
62.015127	-3.024000	3.880500	-11.734000	21.392296	0.000934	20.911178
63.015400	-2.997500	3.882500	-11.637000	21.394790	0.000935	20.927421
64.017828	-2.985400	3.882400	-11.589000	21.395214	0.000933	20.905562
65.023847	-2.991600	3.882500	-11.614000	21.400777	0.000931	20.907335
66.017096	-2.987700	3.881200	-11.594000	21.413846	0.000932	20.916617
67.017497	-3.018300	3.879600	-11.709000	21.415643	0.000933	20.910828
68.026896	-2.986700	3.881200	-11.589000	21.409457	0.000933	20.936879
69.016691	-3.026700	3.879100	-11.740000	21.430508	0.000932	20.907685
70.019043	-2.982600	3.880200	-11.572000	21.417489	0.000933	20.906038
71.025245	-2.971900	3.880200	-11.530000	21.417563	0.000934	20.899949
72.017659	-2.994000	3.879100	-11.613000	21.419609	0.000931	20.913374
73.017838	-3.011900	3.879800	-11.684000	21.464604	0.000933	20.914298
74.020972	-3.008000	3.878300	-11.666000	21.453081	0.000933	20.907511
75.019010	-3.017300	3.877800	-11.700000	21.450163	0.000931	20.900324
76.020216	-3.005700	3.879800	-11.660000	21.481764	0.000934	20.905390
77.033652	-3.013200	3.877400	-11.682000	21.453830	0.000932	20.878390
78.018498	-3.009700	3.876500	-11.666000	21.479493	0.000930	20.910704
79.019260	-2.977900	3.879300	-11.551000	21.479618	0.000930	20.910355
80.019732	-2.998100	3.878000	-11.624000	21.470664	0.000932	20.907560
81.019951	-2.984200	3.876200	-11.565000	21.482760	0.000929	20.882681
82.025090	-2.995900	3.877600	-11.616000	21.490441	0.000932	20.905538
83.021579	-2.994800	3.876500	-11.608000	21.482311	0.000931	20.902619
84.022357	-3.004300	3.876100	-11.644000	21.488546	0.000928	20.908857
85.023228	-2.981500	3.875700	-11.554000	21.491613	0.000929	20.894858
86.021593	-2.986500	3.876300	-11.575000	21.500791	0.000931	20.887446
87.026791	-2.993600	3.874900	-11.598000	21.511267	0.000931	20.873273
88.026021	-2.977000	3.876100	-11.538000	21.526031	0.000931	20.882357
89.030457	-2.988900	3.875400	-11.582000	21.515256	0.000931	20.883903
90.022174	-3.003400	3.874800	-11.637000	21.536829	0.000927	20.892212
91.023944	-3.009100	3.874800	-11.659000	21.541194	0.000929	20.879512
92.033042	-3.039000	3.872000	-11.764000	21.564013	0.000929	20.892861
93.027120	-2.991800	3.873100	-11.587000	21.546107	0.000928	20.898177
94.027931	-2.994500	3.874300	-11.601000	21.572319	0.000929	20.883156
95.030004	-2.986200	3.873200	-11.566000	21.567954	0.000930	20.891115
96.026608	-2.990200	3.873700	-11.582000	21.594213	0.000931	20.882306
97.024531	-3.009200	3.872400	-11.652000	21.574039	0.000930	20.869705
98.030850	-2.998500	3.873300	-11.613000	21.582816	0.000929	20.858100
99.032324	-2.992200	3.874000	-11.590000	21.593341	0.000928	20.894708
100.024142	-3.005500	3.872600	-11.638000	21.609725	0.000929	20.871277
101.027643	-3.024200	3.872100	-11.710000	21.594487	0.000929	20.861719
102.024343	-2.986200	3.873900	-11.568000	21.602817	0.000931	20.881907
103.024776	-3.000500	3.872400	-11.618000	21.627929	0.000929	20.878587
104.027748	-3.004600	3.871000	-11.630000	21.623465	0.000928	20.868905
105.031607	-3.006900	3.871200	-11.639000	21.630248	0.000928	20.871425
106.026144	-2.993800	3.870000	-11.585000	21.652965	0.000930	20.860021
107.030682	-2.996600	3.871400	-11.600000	21.646706	0.000929	20.872723
108.029583	-2.980300	3.872400	-11.540000	21.636581	0.000930	20.869229
109.030711	-3.024700	3.870700	-11.707000	21.662066	0.000927	20.860119
110.030607	-2.996300	3.872100	-11.600000	21.666829	0.000929	20.876265
111.027294	-3.012500	3.870500	-11.658000	21.672115	0.000930	20.888667
112.028425	-3.002500	3.869600	-11.617000	21.663387	0.000929	20.871873
113.030931	-2.999400	3.869400	-11.605000	21.666953	0.000931	20.859794
114.039457	-3.006500	3.869100	-11.631000	21.682462	0.000929	20.839281
115.030158	-3.004900	3.868900	-11.623000	21.664034	0.000932	20.872046
116.028837	-2.996100	3.869100	-11.589000	21.692861	0.000931	20.861540
117.028689	-2.992600	3.869100	-11.578000	21.687747	0.000930	20.874914
118.030087	-3.009300	3.869100	-11.643000	21.695603	0.000928	20.851483
119.030533	-2.989800	3.867800	-11.563000	21.699866	0.000933	20.858119
120.032603	-3.006600	3.868600	-11.630000	21.693557	0.000932	20.866030
121.031460	-3.009800	3.866900	-11.638000	21.692135	0.000930	20.854176
122.033419	-3.007700	3.868800	-11.635000	21.710038	0.000932	20.846964
123.031121	-3.015200	3.866900	-11.659000	21.727718	0.000933	20.831941
124.031478	-3.005200	3.868300	-11.624000	21.728116	0.000931	20.842771
125.032172	-2.995700	3.869600	-11.590000	21.741854	0.000930	20.856046
126.031352	-3.014200	3.865900	-11.652000	21.725572	0.000932	20.847337
127.031831	-3.016500	3.866400	-11.661000	21.732803	0.000931	20.848884
128.032116	-2.970100	3.866400	-11.482000	21.726844	0.000932	20.844342
129.031877	-2.990300	3.868000	-11.565000	21.748536	0.000930	20.859888
130.033169	-2.985800	3.867200	-11.545000	21.754969	0.000932	20.845464
131.035511	-3.018500	3.867400	-11.672000	21.767885	0.000932	20.841322
132.033413	-3.007000	3.866800	-11.627000	21.772049	0.000933	20.865402
133.034755	-2.983400	3.866100	-11.533000	21.789353	0.000932	20.847160
134.033617	-3.012900	3.866200	-11.647000	21.799726	0.000932	20.831938
135.034159	-3.020200	3.864400	-11.671000	21.787657	0.000935	20.851153
136.036726	-2.983500	3.865600	-11.532000	21.791323	0.000933	20.849606
137.033973	-2.992400	3.864500	-11.563000	21.800075	0.000934	20.835607
138.039302	-2.995000	3.865000	-11.575000	21.802692	0.000936	20.848183
139.035995	-2.984300	3.864900	-11.531000	21.795911	0.000932	20.839499
140.039092	-3.014100	3.863900	-11.645000	21.791597	0.000936	20.828544
141.043107	-2.990400	3.865700	-11.559000	21.795312	0.000933	20.870667
142.036927	-3.001700	3.864500	-11.598000	21.798379	0.000936	20.843866
143.035056	-2.990400	3.864300	-11.556000	21.799850	0.000936	20.833485
144.034812	-2.984600	3.863000	-11.528000	21.815434	0.000935	20.861883
145.036410	-3.017400	3.863100	-11.656000	21.845928	0.000936	20.857792
146.047000	-2.994900	3.864000	-11.570000	21.851812	0.000935	20.841397
147.037902	-3.018000	3.861300	-11.653000	21.867869	0.000936	20.816692
148.041747	-2.998200	3.863800	-11.584000	21.869565	0.000936	20.853950
149.039284	-3.001700	3.862600	-11.592000	21.858769	0.000936	20.862110
150.036404	-2.989500	3.862400	-11.545000	21.865725	0.000936	20.835409
151.039316	-3.005500	3.862600	-11.608000	21.882729	0.000935	20.849583
152.039020	-3.001900	3.862600	-11.594000	21.896043	0.000936	20.833987
153.037320	-2.996700	3.862200	-11.574000	21.890084	0.000939	20.845565
154.043704	-3.001000	3.861400	-11.586000	21.910104	0.000938	20.840949
155.045470	-2.998700	3.861300	-11.578000	21.926584	0.000937	20.815720
156.040287	-3.008200	3.859900	-11.611000	21.942889	0.000940	20.834411
157.039911	-3.001600	3.862500	-11.593000	21.925288	0.000937	20.844293
158.052382	-3.024400	3.858600	-11.668000	21.913919	0.000940	20.843819
159.043087	-3.015700	3.860000	-11.640000	21.914568	0.000938	20.820761
160.050222	-3.000800	3.860600	-11.584000	21.912597	0.000939	20.833013
161.040012	-2.993000	3.860300	-11.553000	21.929101	0.000940	20.828671
162.047715	-2.990700	3.859000	-11.540000	21.963980	0.000938	20.838453
163.042812	-2.984700	3.859200	-11.516000	21.960016	0.000941	20.831167
164.040015	-2.992900	3.861000	-11.554000	21.959666	0.000940	20.819437
165.040926	-2.995100	3.858700	-11.556000	21.940295	0.000943	20.810004
166.040866	-3.004200	3.859300	-11.593000	21.953334	0.000941	20.817366
167.041208	-3.010200	3.859700	-11.618000	21.974026	0.000941	20.817216
168.045072	-3.006100	3.859400	-11.601000	22.001997	0.000943	20.842371
169.044004	-2.995700	3.859700	-11.562000	21.978438	0.000945	20.825900
170.046009	-2.990700	3.858900	-11.539000	21.994941	0.000942	20.821084
171.042280	-3.004400	3.858200	-11.591000	21.988136	0.000943	20.826125
172.040974	-3.001100	3.858700	-11.580000	22.021491	0.000943	20.849083
173.045935	-2.995000	3.857600	-11.552000	22.016680	0.000944	20.819138
174.056371	-2.998900	3.858500	-11.570000	22.035351	0.000942	20.834509
175.044267	-3.025900	3.856900	-11.670000	21.993495	0.000943	20.831490
176.050644	-2.998600	3.857500	-11.565000	22.009550	0.000942	20.836656
177.044901	-2.990500	3.856100	-11.531000	22.017128	0.000944	20.848983
178.044281	-2.990900	3.857900	-11.536000	22.040561	0.000946	20.822656
179.047584	-3.000100	3.857800	-11.573000	22.033307	0.000946	20.819661
180.044264	-3.002000	3.855400	-11.572000	22.048414	0.000944	20.824353
181.044600	-3.011500	3.856700	-11.611000	22.051780	0.000946	20.818714
182.044157	-3.007500	3.856200	-11.597000	22.073267	0.000946	20.840224
183.043470	-3.004700	3.856000	-11.585000	22.084061	0.000946	20.831590
184.047389	-3.015300	3.855300	-11.624000	22.093683	0.000949	20.817041
185.047328	-3.007300	3.855800	-11.594000	22.075087	0.000948	20.819761
186.048376	-2.992000	3.854700	-11.533000	22.094381	0.000947	20.846663
187.048538	-3.002900	3.855600	-11.577000	22.103704	0.000948	20.808582
188.048228	-2.999100	3.854300	-11.559000	22.100588	0.000946	20.810204
189.046490	-3.003800	3.855100	-11.579000	22.113775	0.000947	20.821035
190.049956	-2.992200	3.854600	-11.533000	22.117564	0.000950	20.796379
191.048792	-2.986400	3.855000	-11.511000	22.128707	0.000950	20.847363
192.050940	-2.998800	3.854300	-11.557000	22.135138	0.000951	20.829146
193.049658	-2.998700	3.853600	-11.555000	22.121653	0.000948	20.785300
194.048793	-2.988200	3.853700	-11.514000	22.152538	0.000950	20.801048
195.047589	-3.000900	3.854500	-11.566000	22.153609	0.000950	20.821560
196.050417	-3.011000	3.853500	-11.602000	22.169737	0.000950	20.808310
197.049381	-3.005300	3.852000	-11.575000	22.145858	0.000950	20.826602
198.049808	-3.008600	3.853000	-11.591000	22.157997	0.000951	20.806987
199.050087	-2.987900	3.852500	-11.510000	22.156601	0.000950	20.830720
200.051851	-3.005300	3.852500	-11.577000	22.171457	0.000949	20.815248
201.051543	-3.023500	3.852300	-11.645000	22.186188	0.000952	20.813401
202.050266	-2.981800	3.853300	-11.488000	22.215275	0.000955	20.824032
203.053310	-2.998000	3.853700	-11.550000	22.177415	0.000952	20.803195
204.049751	-2.994300	3.851800	-11.532000	22.234268	0.000955	20.815074
205.049275	-2.981000	3.853500	-11.487000	22.211387	0.000955	20.804493
206.054721	-2.994200	3.852900	-11.536000	22.200022	0.000952	20.797380
207.051118	-2.998900	3.850300	-11.545000	22.217394	0.000955	20.817145
208.051635	-2.992400	3.852100	-11.526000	22.205132	0.000956	20.813402
209.052905	-3.006700	3.850200	-11.575000	22.247378	0.000953	20.822510
210.054533	-2.996900	3.850900	-11.539000	22.256327	0.000956	20.798754
211.054808	-2.998700	3.850200	-11.544000	22.270109	0.000955	20.800225
212.057233	-3.011400	3.850000	-11.592000	22.253559	0.000958	20.788871
213.057700	-3.001200	3.850500	-11.555000	22.271456	0.000958	20.801574
214.056095	-3.013800	3.850400	-11.603000	22.272278	0.000957	20.804294
215.056689	-2.974200	3.851600	-11.454000	22.280179	0.000959	20.820739
216.062687	-2.979400	3.852200	-11.476000	22.276466	0.000957	20.802798
217.062556	-2.989000	3.849500	-11.504000	22.278883	0.000958	20.811856
218.058709	-2.984100	3.848900	-11.485000	22.311358	0.000959	20.803596
219.062011	-2.999500	3.849000	-11.543000	22.296852	0.000961	20.803296
220.058358	-3.014000	3.849100	-11.601000	22.299246	0.000959	20.798580
221.059277	-2.994700	3.848900	-11.525000	22.299146	0.000961	20.801799
222.059844	-3.010800	3.848400	-11.586000	22.280330	0.000962	20.801925
223.059380	-2.991800	3.849900	-11.517000	22.304331	0.000959	20.790870
224.066076	-2.995200	3.849000	-11.529000	22.306997	0.000960	20.803023
225.059968	-3.001900	3.848500	-11.552000	22.311010	0.000962	20.818420
226.059074	-3.004500	3.847600	-11.559000	22.308394	0.000962	20.810585
227.059334	-3.013500	3.847000	-11.592000	22.323995	0.000964	20.804396
228.062184	-2.992800	3.847500	-11.513000	22.323398	0.000963	20.799530
229.060115	-2.993900	3.848500	-11.520000	22.314974	0.000964	20.811010
230.060441	-2.989500	3.846700	-11.499000	22.335659	0.000965	20.786204
231.060658	-2.994700	3.847100	-11.520000	22.345578	0.000964	20.805145
232.061090	-2.998400	3.846700	-11.532000	22.347098	0.000966	20.819944
233.061362	-3.012600	3.846600	-11.586000	22.346825	0.000965	20.795488
234.059498	-2.977500	3.846500	-11.452000	22.366786	0.000964	20.795088
235.064681	-3.016300	3.844000	-11.592000	22.344108	0.000964	20.806992
236.065640	-3.027100	3.843800	-11.635000	22.350712	0.000964	20.791794
237.068819	-3.000500	3.845400	-11.537000	22.369627	0.000966	20.792717
238.061978	-2.983400	3.845200	-11.470000	22.365963	0.000966	20.786203
239.063245	-2.996300	3.845500	-11.521000	22.393924	0.000964	20.791918
240.061182	-2.988200	3.844200	-11.487000	22.391557	0.000967	20.807091
241.060215	-3.008900	3.844800	-11.566000	22.400204	0.000969	20.809586
242.068702	-3.024000	3.844500	-11.624000	22.411044	0.000969	20.799104
243.062288	-2.995400	3.844400	-11.513000	22.409549	0.000972	20.800452
244.065156	-3.012200	3.843300	-11.575000	22.408103	0.000968	20.789995
245.063457	-2.976900	3.844500	-11.444000	22.383904	0.000969	20.793264
246.071852	-3.000000	3.843200	-11.529000	22.367954	0.000967	20.786301
247.069432	-2.986600	3.844700	-11.482000	22.353450	0.000971	20.782207
248.067778	-3.009900	3.843100	-11.567000	22.386819	0.000970	20.791440
249.066707	-2.980000	3.843800	-11.452000	22.384700	0.000971	20.794535
250.066514	-2.979700	3.843600	-11.452000	22.416249	0.000973	20.796256
251.068237	-3.009000	3.843600	-11.565000	22.404137	0.000972	20.790291
252.067881	-2.982500	3.841700	-11.457000	22.376998	0.000971	20.790615
253.067503	-3.006100	3.842600	-11.550000	22.403065	0.000972	20.779260
254.068522	-3.027900	3.840600	-11.628000	22.367103	0.000971	20.783077
255.071212	-3.003100	3.841100	-11.534000	22.358580	0.000975	20.771697
256.068877	-3.031600	3.839800	-11.639000	22.389382	0.000973	20.774567
257.069893	-2.997000	3.841000	-11.510000	22.385144	0.000975	20.796402
258.069257	-2.994500	3.840100	-11.498000	22.407747	0.000974	20.788691
259.069540	-2.989600	3.841100	-11.481000	22.432492	0.000973	20.787392
260.078984	-3.023500	3.840500	-11.609000	22.435308	0.000978	20.780729
261.071748	-2.989700	3.840300	-11.480000	22.427183	0.000977	20.777808
262.072486	-2.989100	3.841100	-11.480000	22.444677	0.000978	20.771619
263.073184	-2.986500	3.840900	-11.469000	22.436852	0.000977	20.768050
264.071406	-3.007300	3.839500	-11.546000	22.451281	0.000979	20.769698
265.072166	-3.020900	3.840200	-11.599000	22.463142	0.000982	20.785843
266.076201	-2.999000	3.838900	-11.512000	22.473408	0.000979	20.777158
267.073468	-3.009900	3.839300	-11.555000	22.457734	0.000980	20.787540
268.075444	-2.999200	3.837500	-11.508000	22.452152	0.000982	20.765354
269.073918	-2.982900	3.840000	-11.452000	22.458057	0.000981	20.778381
270.072822	-2.998100	3.838500	-11.507000	22.452849	0.000982	20.759414
271.076322	-3.034100	3.837600	-11.644000	22.471439	0.000981	20.769497
272.071885	-2.987000	3.840200	-11.470000	22.491623	0.000981	20.777383
273.079960	-3.016200	3.837500	-11.573000	22.491548	0.000984	20.780152
274.071979	-2.993900	3.838800	-11.492000	22.499522	0.000984	20.785293
275.072460	-2.998600	3.837700	-11.506000	22.534582	0.000983	20.765404
276.077079	-2.997600	3.838200	-11.504000	22.555637	0.000986	20.793130
277.073996	-3.008600	3.838400	-11.547000	22.552772	0.000986	20.776983
278.075243	-2.991800	3.838900	-11.484000	22.578237	0.000985	20.787790
279.077066	-3.001000	3.836100	-11.511000	22.554790	0.000985	20.783747
280.077406	-2.997600	3.837300	-11.502000	22.588578	0.000986	20.776809
281.079754	-2.997800	3.837400	-11.502000	22.586610	0.000985	20.778157
282.084822	-3.004100	3.836400	-11.522000	22.603503	0.000988	20.781327
283.079731	-2.984900	3.836700	-11.451000	22.589500	0.000986	20.771095
284.078943	-2.997200	3.835300	-11.494000	22.603329	0.000987	20.793955
285.080269	-3.008600	3.833800	-11.533000	22.605845	0.000985	20.770870
286.080597	-3.010300	3.834900	-11.543000	22.611527	0.000988	20.781777
287.083468	-2.998600	3.835500	-11.500000	22.622963	0.000987	20.776636
288.081569	-2.997300	3.833200	-11.488000	22.615761	0.000991	20.779380
289.083957	-3.009000	3.834200	-11.535000	22.608288	0.000987	20.772368
290.082702	-3.012900	3.833800	-11.550000	22.623038	0.000991	20.769598
291.083403	-3.016000	3.834500	-11.561000	22.633727	0.000990	20.769399
292.084394	-3.001100	3.833400	-11.504000	22.611950	0.000991	20.783149
293.085875	-2.974400	3.833900	-11.403000	22.634226	0.000992	20.755199
294.084463	-2.992300	3.833800	-11.470000	22.610581	0.000995	20.769449
295.084210	-3.008300	3.832900	-11.530000	22.617582	0.000993	20.791635
296.084655	-2.996500	3.833700	-11.486000	22.656376	0.000995	20.772644
297.086021	-3.026400	3.831900	-11.596000	22.652015	0.000993	20.765906
298.089429	-2.992000	3.833900	-11.470000	22.659864	0.000995	20.768077
299.090545	-2.988800	3.834500	-11.460000	22.698332	0.000994	20.774841
300.092849	-3.002600	3.832600	-11.507000	22.657996	0.000995	20.763836
301.086191	-2.987100	3.833100	-11.448000	22.662431	0.000996	20.772545
302.086947	-3.016900	3.831100	-11.557000	22.647483	0.000997	20.774642
303.090382	-3.007900	3.831700	-11.523000	22.637964	0.000998	20.781230
304.087658	-3.004700	3.831100	-11.509000	22.617959	0.000995	20.788219
305.086135	-3.007500	3.830600	-11.520000	22.653263	0.000997	20.778062
306.087632	-3.016200	3.830000	-11.551000	22.613548	0.000999	20.769102
307.085027	-2.991900	3.830900	-11.461000	22.624810	0.000999	20.793185
308.086241	-2.998000	3.830300	-11.483000	22.641205	0.000998	20.797752
309.088457	-3.019800	3.829500	-11.564000	22.667391	0.001000	20.777039
310.088242	-2.997800	3.831500	-11.485000	22.665772	0.001000	20.797229
311.086525	-2.995900	3.832200	-11.480000	22.672972	0.001001	20.780733
312.087696	-2.991000	3.830500	-11.456000	22.687397	0.001003	20.787596
313.088506	-3.003100	3.828200	-11.494000	22.702471	0.001001	20.787047
314.091254	-3.021300	3.828500	-11.566000	22.713633	0.001002	20.784003
315.088796	-3.022000	3.828500	-11.568000	22.713808	0.001002	20.785126
316.087239	-2.999300	3.829400	-11.485000	22.734087	0.001006	20.758498
317.085990	-3.007300	3.827000	-11.508000	22.736056	0.001006	20.780860
318.086546	-2.996900	3.830200	-11.477000	22.723300	0.001006	20.794160
319.093238	-3.011500	3.829400	-11.531000	22.695024	0.001006	20.793812
320.090678	-3.026300	3.827200	-11.582000	22.704142	0.001007	20.785876
321.088250	-3.014100	3.826000	-11.531000	22.719838	0.001006	20.766985
322.093012	-3.031700	3.826600	-11.599000	22.748464	0.001006	20.799927
323.089692	-2.997800	3.828200	-11.475000	22.743930	0.001009	20.792066
324.091838	-3.000400	3.827100	-11.481000	22.745300	0.001008	20.804818
325.090511	-3.010100	3.826300	-11.516000	22.780478	0.001008	20.805918
326.089305	-2.993800	3.826000	-11.453000	22.784189	0.001009	20.794463
327.092768	-3.006500	3.826600	-11.504000	22.784739	0.001012	20.761348
328.087360	-2.974100	3.828900	-11.385000	22.783368	0.001010	20.781787
329.086029	-2.996800	3.825900	-11.464000	22.784590	0.001009	20.791545
330.087068	-3.006900	3.825500	-11.501000	22.792462	0.001011	20.795164
331.089473	-2.986400	3.827100	-11.427000	22.779483	0.001011	20.796386
332.091012	-2.993900	3.824200	-11.448000	22.764262	0.001012	20.774027
333.090215	-3.013400	3.824700	-11.524000	22.754023	0.001011	20.792694
334.087350	-2.994800	3.825200	-11.454000	22.802478	0.001013	20.799507
335.091767	-3.017700	3.823700	-11.537000	22.786634	0.001013	20.798335
336.092131	-2.995000	3.824100	-11.451000	22.783820	0.001014	20.784136
337.099713	-2.993900	3.824200	-11.448000	22.800188	0.001012	20.796739
338.094793	-2.989100	3.823600	-11.428000	22.801135	0.001016	20.805749
339.093587	-3.014500	3.822500	-11.522000	22.799217	0.001017	20.790551
340.091553	-2.990800	3.823900	-11.435000	22.827293	0.001014	20.788804
341.094654	-2.974700	3.825300	-11.377000	22.838105	0.001016	20.801532
342.091144	-2.997600	3.822900	-11.459000	22.824928	0.001015	20.801608
343.092127	-3.001400	3.822500	-11.470000	22.819123	0.001017	20.788681
344.098371	-3.016400	3.822500	-11.530000	22.808013	0.001016	20.795095
345.093244	-3.004600	3.822700	-11.484000	22.817356	0.001015	20.802083
346.097568	-2.992000	3.823100	-11.437000	22.844783	0.001020	20.799687
347.098763	-3.007000	3.821300	-11.489000	22.872833	0.001020	20.814986
348.096377	-2.983000	3.822900	-11.403000	22.873306	0.001015	20.825417
349.095856	-2.975600	3.821900	-11.371000	22.869595	0.001019	20.781396
350.096346	-2.974500	3.821800	-11.367000	22.881802	0.001018	20.819703
351.094128	-2.987700	3.820000	-11.411000	22.901854	0.001018	20.803758
352.098318	-3.019700	3.819200	-11.531000	22.889823	0.001021	20.816360
353.095283	-2.999000	3.820100	-11.454000	22.896275	0.001020	20.826617
354.099331	-2.993400	3.821400	-11.438000	22.887607	0.001019	20.801338
355.095207	-2.991800	3.820800	-11.430000	22.907460	0.001021	20.817909
356.099663	-3.000300	3.820600	-11.462000	22.876298	0.001019	20.825569
357.100733	-3.005500	3.818300	-11.474000	22.892315	0.001021	20.809847
358.099507	-2.992600	3.818200	-11.425000	22.897547	0.001021	20.815089
359.098092	-2.977400	3.819800	-11.372000	22.930602	0.001024	20.804584
360.098327	-2.986100	3.819400	-11.404000	22.910250	0.001021	20.799841
361.099091	-3.011200	3.817300	-11.494000	22.947963	0.001022	20.815813
362.099764	-3.010600	3.817500	-11.491000	22.930329	0.001025	20.808578
363.097321	-2.995900	3.816900	-11.434000	22.962360	0.001025	20.814591
364.101199	-3.019300	3.817000	-11.523000	22.966844	0.001025	20.811023
365.104804	-3.012300	3.817000	-11.497000	22.974964	0.001027	20.814417
366.098948	-2.994000	3.816500	-11.426000	23.004032	0.001026	20.816513
367.106218	-2.993100	3.816000	-11.421000	22.999549	0.001026	20.814393
368.101928	-2.985900	3.816800	-11.395000	23.002612	0.001029	20.813194
369.099315	-2.990300	3.816400	-11.411000	23.023210	0.001028	20.812496
370.105587	-3.009800	3.816300	-11.485000	23.005601	0.001028	20.822827
371.104371	-3.003000	3.816100	-11.459000	23.012999	0.001028	20.816015
372.100770	-3.013300	3.815900	-11.498000	23.017408	0.001029	20.839872
373.107719	-3.007000	3.815700	-11.473000	22.996262	0.001028	20.815367
374.106677	-3.009600	3.815000	-11.479000	22.990334	0.001029	20.813220
375.103683	-3.013800	3.814500	-11.495000	22.967046	0.001029	20.838725
376.100857	-3.015600	3.813900	-11.500000	22.964031	0.001031	20.828593
377.102937	-3.013600	3.814500	-11.494000	22.979724	0.001031	20.816340
378.118794	-3.008100	3.814800	-11.475000	23.017932	0.001029	20.838975
379.101701	-3.002100	3.814000	-11.448000	23.009140	0.001030	20.823054
380.104059	-2.988500	3.813400	-11.395000	22.999849	0.001033	20.843142
381.103242	-3.002800	3.813200	-11.449000	23.016761	0.001030	20.831163
382.103951	-2.987900	3.813500	-11.393000	22.986499	0.001034	20.836878
383.104382	-3.014400	3.814000	-11.496000	23.006002	0.001031	20.820858
384.109616	-2.998400	3.812500	-11.430000	23.000347	0.001031	20.826098
385.103748	-3.007600	3.812100	-11.464000	23.033947	0.001032	20.818986
386.103318	-2.990800	3.812700	-11.402000	23.060247	0.001035	20.830165
387.113296	-3.010900	3.811100	-11.474000	23.086000	0.001033	20.824201
388.114959	-3.009900	3.811800	-11.472000	23.115114	0.001030	20.828244
389.107556	-2.979400	3.811300	-11.355000	23.112724	0.001032	20.832013
390.110332	-3.004600	3.811300	-11.450000	23.094618	0.001032	20.843267
391.117682	-3.001700	3.810200	-11.436000	23.142410	0.001032	20.827146
392.104870	-2.993500	3.811000	-11.406000	23.151374	0.001032	20.845138
393.107844	-2.996100	3.811300	-11.417000	23.122635	0.001034	20.825349
394.112533	-3.014600	3.809000	-11.481000	23.113395	0.001035	20.829366
395.108763	-3.009200	3.810000	-11.465000	23.136158	0.001037	20.839847
396.114012	-3.003600	3.808600	-11.438000	23.133716	0.001036	20.849254
397.108603	-2.999700	3.809900	-11.428000	23.125347	0.001035	20.842291
398.106670	-3.008500	3.810300	-11.462000	23.171893	0.001037	20.831561
399.108698	-3.012000	3.808000	-11.469000	23.171145	0.001033	20.845035
400.108947	-2.986400	3.808000	-11.371000	23.188901	0.001036	20.842440
401.117695	-3.018500	3.807700	-11.493000	23.195997	0.001037	20.850499
402.112556	-3.003400	3.808100	-11.436000	23.206830	0.001037	20.846656
403.112348	-2.998600	3.807200	-11.415000	23.201998	0.001037	20.842288
404.122878	-3.009800	3.806800	-11.457000	23.201051	0.001038	20.839916
405.120179	-3.005200	3.809700	-11.448000	23.175474	0.001040	20.847477
406.110426	-3.018100	3.807600	-11.491000	23.203166	0.001039	20.832079
407.119188	-3.004500	3.807600	-11.440000	23.196367	0.001040	20.843284
408.111036	-3.023200	3.806300	-11.506000	23.204783	0.001038	20.841286
409.119866	-3.006500	3.805700	-11.441000	23.202218	0.001039	20.860526
410.114348	-2.986000	3.807100	-11.367000	23.216736	0.001041	20.832876
411.116969	-2.997800	3.806600	-11.410000	23.205752	0.001038	20.834671
412.113334	-2.983200	3.806300	-11.353000	23.217382	0.001042	20.861023
413.122694	-2.990300	3.807400	-11.383000	23.206897	0.001042	20.855732
414.121286	-2.982100	3.806300	-11.350000	23.224030	0.001043	20.865314
415.120041	-2.990000	3.805500	-11.377000	23.202015	0.001044	20.832822
416.124342	-3.019400	3.804900	-11.488000	23.226344	0.001045	20.844875
417.120426	-3.027800	3.804500	-11.519000	23.248582	0.001044	20.851988
418.116253	-3.006000	3.804700	-11.435000	23.249128	0.001044	20.845897
419.117619	-3.002500	3.804000	-11.421000	23.272362	0.001043	20.840258
420.120673	-2.982200	3.804500	-11.344000	23.257569	0.001046	20.846770
421.117503	-2.997500	3.803400	-11.398000	23.268849	0.001046	20.822988
422.121711	-2.993100	3.804000	-11.385000	23.269722	0.001048	20.859896
423.116006	-2.982400	3.803400	-11.342000	23.263918	0.001045	20.826581
424.116418	-3.000100	3.802300	-11.406000	23.260259	0.001046	20.821965
425.117736	-3.006100	3.803900	-11.434000	23.284338	0.001045	20.863638
426.118979	-2.989200	3.801700	-11.363000	23.279257	0.001047	20.839108
427.127227	-2.952300	3.803400	-11.227000	23.262848	0.001049	20.840680
428.117538	-2.997400	3.801200	-11.393000	23.261428	0.001048	20.833568
429.118544	-2.995000	3.800700	-11.381000	23.272658	0.001046	20.858571
430.118270	-2.989400	3.801500	-11.363000	23.290014	0.001047	20.832819
431.120097	-3.002500	3.799400	-11.407000	23.297236	0.001051	20.833892
432.123331	-3.014100	3.800000	-11.452000	23.293226	0.001050	20.855477
433.123436	-3.023100	3.799700	-11.486000	23.289864	0.001049	20.846893
434.128778	-3.001600	3.798400	-11.400000	23.307718	0.001051	20.868104
435.128311	-3.004900	3.798900	-11.414000	23.291557	0.001050	20.864236
436.119230	-3.002300	3.800300	-11.409000	23.330799	0.001050	20.860891
437.121025	-2.994900	3.797900	-11.373000	23.350820	0.001052	20.864361
438.127057	-2.993600	3.798900	-11.371000	23.336004	0.001050	20.852357
439.119932	-2.997800	3.798300	-11.386000	23.345814	0.001055	20.866456
440.123190	-3.008000	3.798000	-11.424000	23.359260	0.001050	20.851958
441.130126	-3.020200	3.797400	-11.468000	23.368473	0.001051	20.858346
442.130432	-2.988400	3.797900	-11.348000	23.392750	0.001053	20.835739
443.123136	-2.998300	3.798600	-11.389000	23.370091	0.001052	20.866132
444.126809	-3.000200	3.796800	-11.389000	23.399995	0.001053	20.866232
445.124359	-3.013200	3.797400	-11.442000	23.389239	0.001055	20.872047
446.122244	-3.009700	3.796800	-11.426000	23.357867	0.001055	20.872372
447.131173	-3.011100	3.797300	-11.433000	23.354978	0.001054	20.862838
448.125751	-2.992600	3.795600	-11.357000	23.357792	0.001053	20.859021
449.126406	-3.011100	3.796500	-11.431000	23.372533	0.001056	20.876165
450.127574	-2.994400	3.796700	-11.368000	23.408760	0.001055	20.875965
451.125537	-3.015100	3.795600	-11.443000	23.413839	0.001057	20.882951
452.125584	-2.992700	3.794900	-11.357000	23.423700	0.001059	20.905636
453.145261	-3.016000	3.793900	-11.440000	23.397132	0.001056	20.858622
454.131922	-2.999600	3.795200	-11.383000	23.400594	0.001056	20.894806
455.134092	-3.028100	3.794000	-11.487000	23.388543	0.001057	20.864237
456.130457	-3.014000	3.793800	-11.433000	23.429701	0.001058	20.875143
457.133349	-3.003800	3.793000	-11.391000	23.429253	0.001057	20.888443
458.134866	-3.003500	3.791900	-11.387000	23.455918	0.001059	20.857800
459.141731	-2.989500	3.792500	-11.336000	23.440755	0.001057	20.865836
460.138499	-2.971000	3.792800	-11.268000	23.465005	0.001058	20.887296
461.133085	-3.013500	3.790500	-11.421000	23.472176	0.001059	20.871251
462.132310	-3.000800	3.792800	-11.381000	23.493836	0.001058	20.883005
463.132187	-2.989300	3.792600	-11.336000	23.498342	0.001060	20.899374
464.133599	-2.995800	3.791200	-11.356000	23.491571	0.001057	20.861295
465.139226	-2.994200	3.792600	-11.355000	23.482882	0.001062	20.863491
466.136996	-3.011600	3.789400	-11.410000	23.491895	0.001061	20.895283
467.135742	-2.996700	3.789100	-11.353000	23.503646	0.001059	20.872924
468.133502	-3.002400	3.790000	-11.377000	23.500136	0.001060	20.889793
469.144040	-2.991300	3.790600	-11.338000	23.499091	0.001062	20.895857
470.136070	-2.999000	3.790200	-11.366000	23.500037	0.001062	20.874048
471.137518	-3.014900	3.788500	-11.421000	23.502751	0.001061	20.892414
472.131783	-2.986700	3.790400	-11.319000	23.484128	0.001059	20.895558
473.130862	-2.987000	3.789900	-11.320000	23.474519	0.001060	20.906787
474.133941	-2.979700	3.790000	-11.293000	23.491075	0.001061	20.892090
475.134062	-2.981800	3.789900	-11.299000	23.505514	0.001062	20.906088
476.141106	-3.011800	3.787900	-11.407000	23.464884	0.001062	20.888123
477.142520	-2.986700	3.788600	-11.314000	23.461523	0.001062	20.879539
478.129516	-3.002400	3.787300	-11.371000	23.473623	0.001062	20.913002
479.133074	-3.002900	3.787700	-11.372000	23.481591	0.001061	20.895385
480.131315	-3.001100	3.787000	-11.365000	23.484529	0.001060	20.900701
481.136804	-2.993100	3.787500	-11.335000	23.516819	0.001060	20.898929
482.143619	-2.991400	3.786600	-11.326000	23.536413	0.001066	20.898181
483.132684	-3.024800	3.785800	-11.449000	23.542040	0.001061	20.907140
484.137014	-2.995300	3.787400	-11.344000	23.534148	0.001065	20.939529
485.141920	-2.990800	3.785300	-11.321000	23.551998	0.001064	20.921388
486.134044	-2.988400	3.785800	-11.312000	23.515527	0.001066	20.883884
487.136026	-3.005700	3.785500	-11.377000	23.539626	0.001065	20.926529
488.138099	-2.986400	3.786300	-11.306000	23.575600	0.001066	20.924659
489.139590	-2.993800	3.784700	-11.330000	23.568853	0.001065	20.915526
490.147270	-2.994000	3.785700	-11.333000	23.601913	0.001064	20.926381
491.145515	-2.987700	3.783900	-11.304000	23.577616	0.001066	20.922887
492.136707	-2.999000	3.784400	-11.349000	23.584537	0.001068	20.917024
493.142082	-2.995800	3.782600	-11.331000	23.566290	0.001066	20.902053
494.142558	-2.987100	3.784500	-11.303000	23.568780	0.001068	20.896014
495.144879	-2.987100	3.783700	-11.301000	23.570548	0.001066	20.899683
496.145700	-2.990600	3.782400	-11.309000	23.575801	0.001066	20.929127
497.143225	-3.004800	3.780800	-11.359000	23.588497	0.001067	20.913407
498.149135	-2.987600	3.782600	-11.300000	23.590041	0.001068	20.914480
499.135947	-2.977300	3.782300	-11.260000	23.588000	0.001068	20.917176
500.135552	-3.003900	3.781500	-11.358000	23.585137	0.001067	20.911462
501.137929	-3.011200	3.781200	-11.385000	23.583868	0.001069	20.920620
502.136444	-3.012800	3.781200	-11.391000	23.603808	0.001067	20.933495
503.137360	-3.008100	3.780500	-11.371000	23.573363	0.001068	20.926684
504.140551	-2.986000	3.781200	-11.289000	23.592259	0.001068	20.926660
505.152684	-2.995600	3.779300	-11.320000	23.606921	0.001068	20.934245
506.147826	-3.025000	3.779700	-11.433000	23.627210	0.001067	20.926137
507.146928	-3.012100	3.778900	-11.381000	23.646925	0.001068	20.920771
508.139618	-3.003800	3.779100	-11.351000	23.631442	0.001069	20.944601
509.141396	-2.989900	3.780600	-11.302000	23.663230	0.001069	20.930479
510.140520	-2.971600	3.779600	-11.231000	23.685858	0.001070	20.929930
511.145879	-3.000400	3.778800	-11.336000	23.690114	0.001070	20.928508
512.141356	-2.977700	3.779100	-11.251000	23.667812	0.001069	20.965887
513.140706	-2.991800	3.778000	-11.302000	23.670251	0.001069	20.952688
514.144861	-3.000000	3.777900	-11.332000	23.696588	0.001070	20.949694
515.143798	-3.018500	3.777800	-11.402000	23.677172	0.001069	20.946351
516.140957	-3.011800	3.776200	-11.372000	23.708536	0.001069	20.926589
517.143947	-3.017000	3.775100	-11.388000	23.679836	0.001069	20.953288
518.141149	-2.988900	3.775200	-11.283000	23.705351	0.001069	20.948523
519.140893	-2.989400	3.776100	-11.286000	23.706944	0.001070	20.955335
520.151105	-2.999600	3.776000	-11.325000	23.728500	0.001069	20.966039
521.149919	-3.003000	3.775100	-11.336000	23.735793	0.001072	20.948224
522.144444	-3.001400	3.775000	-11.330000	23.723995	0.001071	20.959153
523.151653	-2.994200	3.774200	-11.300000	23.725340	0.001070	20.955760
524.145958	-3.010400	3.774800	-11.364000	23.684095	0.001072	20.934800
525.144866	-3.005400	3.774100	-11.341000	23.656839	0.001071	20.945406
526.139874	-3.000700	3.774500	-11.325000	23.648749	0.001071	20.933504
527.142286	-3.011700	3.773100	-11.362000	23.662441	0.001071	20.945806
528.149710	-2.996700	3.774500	-11.310000	23.673020	0.001072	20.949774
529.142088	-3.023100	3.771400	-11.401000	23.690968	0.001071	20.946431
530.142726	-3.017600	3.772200	-11.382000	23.716282	0.001071	20.930561
531.151338	-3.015400	3.771800	-11.373000	23.746624	0.001074	20.931110
532.148407	-2.984100	3.772000	-11.255000	23.716830	0.001071	20.927318
533.147696	-3.005300	3.772100	-11.335000	23.738984	0.001072	20.940518
534.140615	-3.018700	3.771300	-11.383000	23.688430	0.001070	20.921130
535.152643	-3.016300	3.770900	-11.373000	23.722084	0.001071	20.944437
536.144639	-3.000200	3.770600	-11.312000	23.717978	0.001070	20.935579
537.153276	-2.996400	3.770800	-11.298000	23.740951	0.001073	20.939172
538.145292	-2.966400	3.771700	-11.186000	23.736473	0.001072	20.917140
539.148890	-2.993800	3.769600	-11.285000	23.752975	0.001073	20.939373
540.149781	-3.003600	3.770000	-11.323000	23.755341	0.001070	20.946960
541.146104	-3.014600	3.770000	-11.364000	23.752478	0.001071	20.932238
542.151636	-3.008200	3.768800	-11.336000	23.775551	0.001071	20.910803
543.150611	-3.006200	3.768600	-11.328000	23.743369	0.001073	20.909831
544.154173	-3.000100	3.769400	-11.308000	23.741130	0.001074	20.932240
545.156126	-3.000400	3.768300	-11.306000	23.739188	0.001072	20.947361
546.149346	-3.004000	3.766200	-11.313000	23.724105	0.001072	20.933188
547.149192	-3.013300	3.767000	-11.349000	23.738317	0.001073	20.913775
548.152049	-3.006000	3.766200	-11.319000	23.729357	0.001073	20.925652
549.151241	-2.996900	3.766800	-11.288000	23.758330	0.001072	20.926725
550.146287	-2.992400	3.767500	-11.273000	23.795764	0.001071	20.898354
551.148378	-3.016800	3.766900	-11.363000	23.789741	0.001073	20.934511
552.150787	-3.016000	3.766200	-11.356000	23.819932	0.001074	20.915472
553.146035	-2.993000	3.767100	-11.274000	23.823142	0.001073	20.922484
554.152958	-2.991800	3.765600	-11.265000	23.857140	0.001073	20.923856
555.149210	-2.998600	3.765600	-11.291000	23.874188	0.001074	20.911080
556.152475	-2.992900	3.766300	-11.270000	23.862739	0.001073	20.919988
557.148262	-3.001600	3.764700	-11.299000	23.879215	0.001073	20.932240
558.157761	-3.001500	3.765000	-11.300000	23.885287	0.001071	20.915571
559.147925	-3.000100	3.764000	-11.292000	23.888174	0.001075	20.917043
560.153915	-2.987500	3.764100	-11.244000	23.883819	0.001075	20.912202
561.150999	-2.998300	3.763700	-11.284000	23.896214	0.001075	20.905666
562.149823	-3.002500	3.763200	-11.298000	23.894148	0.001074	20.904543
563.153226	-2.983200	3.763100	-11.225000	23.915178	0.001075	20.915198
564.155314	-3.016800	3.761100	-11.345000	23.907239	0.001074	20.903445
565.149798	-2.990700	3.762300	-11.250000	23.901391	0.001075	20.920339
566.158035	-3.006600	3.761500	-11.308000	23.913610	0.001075	20.912678
567.158873	-3.004000	3.760800	-11.297000	23.903306	0.001075	20.908510
568.151133	-2.992800	3.760400	-11.254000	23.875135	0.001075	20.902548
569.153579	-2.998500	3.761100	-11.276000	23.910998	0.001077	20.913852
570.149332	-2.994200	3.761700	-11.262000	23.869660	0.001077	20.916022
571.153740	-3.000300	3.761500	-11.285000	23.871973	0.001074	20.913126
572.153750	-3.004000	3.760200	-11.295000	23.861696	0.001076	20.913727
573.156831	-2.979200	3.759600	-11.200000	23.869908	0.001076	20.894462
574.151028	-3.003800	3.759900	-11.293000	23.845917	0.001076	20.912130
575.162973	-2.996500	3.758900	-11.263000	23.858461	0.001074	20.915699
576.153479	-2.998600	3.760000	-11.274000	23.879193	0.001075	20.908987
577.156230	-3.009600	3.757900	-11.308000	23.895345	0.001073	20.905743
578.155136	-3.031300	3.757800	-11.390000	23.875882	0.001074	20.899503
579.162057	-2.997800	3.757400	-11.263000	23.866997	0.001077	20.919042
580.160724	-3.012300	3.757800	-11.319000	23.853633	0.001072	20.919392
581.165838	-2.986600	3.758600	-11.224000	23.827003	0.001075	20.887003
582.159775	-2.983300	3.757400	-11.209000	23.833848	0.001076	20.891021
583.153781	-2.996700	3.757400	-11.259000	23.853286	0.001074	20.913829
584.161630	-2.991400	3.756400	-11.236000	23.852466	0.001074	20.900206
585.155866	-3.009200	3.755900	-11.301000	23.888603	0.001072	20.895190
586.160240	-3.021300	3.755800	-11.346000	23.867772	0.001071	20.919345
587.157100	-3.006300	3.755800	-11.290000	23.875214	0.001072	20.894567
588.164915	-2.997900	3.755600	-11.258000	23.895646	0.001071	20.896089
589.161768	-2.995300	3.755800	-11.249000	23.883577	0.001073	20.890625
590.166522	-3.000300	3.755400	-11.266000	23.887659	0.001073	20.912259
591.160874	-3.013000	3.755000	-11.312000	23.911226	0.001077	20.920718
592.163532	-2.994900	3.753400	-11.240000	23.944650	0.001072	20.904450
593.159991	-3.015400	3.752700	-11.315000	23.936065	0.001074	20.899635
594.156400	-2.979200	3.753800	-11.182000	23.961622	0.001070	20.893969
595.160990	-2.997000	3.752800	-11.247000	23.961821	0.001074	20.904126
596.157792	-3.009000	3.752600	-11.290000	23.965555	0.001073	20.902180
597.162774	-3.008800	3.753300	-11.292000	23.960778	0.001073	20.899287
598.166615	-3.015400	3.752400	-11.312000	23.972473	0.001074	20.884463
599.157703	-3.009500	3.751300	-11.289000	23.940718	0.001075	20.889129
600.156692	-3.004900	3.750900	-11.269000	23.911029	0.001074	20.902030
601.159148	-3.004600	3.751600	-11.270000	23.908092	0.001075	20.880595
602.162714	-3.004200	3.750700	-11.266000	23.921432	0.001075	20.905823
603.162299	-2.982000	3.751100	-11.185000	23.918372	0.001076	20.895644
604.157967	-3.006300	3.751400	-11.276000	23.890797	0.001073	20.893597
605.164452	-2.988600	3.749600	-11.204000	23.885596	0.001074	20.905450
606.158368	-3.008600	3.748700	-11.277000	23.871633	0.001072	20.891451
607.156303	-3.004200	3.748600	-11.260000	23.863246	0.001075	20.881619
608.170213	-2.967700	3.750400	-11.129000	23.888233	0.001075	20.875381
609.167587	-2.995200	3.748800	-11.227000	23.887014	0.001074	20.901183
610.165276	-3.003700	3.749300	-11.261000	23.884898	0.001073	20.893846
611.161247	-2.991300	3.749700	-11.215000	23.899656	0.001073	20.895842
612.170377	-2.989000	3.747700	-11.201000	23.911976	0.001073	20.876429
613.165792	-3.001200	3.748200	-11.247000	23.921433	0.001072	20.902505
614.166216	-3.012200	3.747400	-11.287000	23.940347	0.001074	20.905825
615.165262	-3.006100	3.746400	-11.261000	23.923846	0.001072	20.876952
616.166543	-2.992800	3.748900	-11.219000	23.926807	0.001073	20.896042
617.163682	-3.002500	3.745100	-11.243000	23.956920	0.001075	20.885936
618.163853	-3.002900	3.747000	-11.251000	23.967348	0.001072	20.892599
619.165227	-2.997800	3.745900	-11.227000	23.961176	0.001073	20.885936
620.165635	-3.020800	3.746600	-11.315000	23.988351	0.001073	20.870516
621.164234	-3.026900	3.744900	-11.335000	23.995219	0.001074	20.879299
622.164722	-2.990900	3.746500	-11.204000	24.005894	0.001074	20.877676
623.164767	-3.021700	3.744100	-11.313000	23.981184	0.001072	20.899362
624.163141	-2.993300	3.745000	-11.208000	23.996713	0.001074	20.884116
625.164747	-2.991700	3.745800	-11.205000	23.989273	0.001074	20.909843
626.169703	-2.997100	3.744200	-11.221000	24.015775	0.001072	20.895171
627.164211	-2.987700	3.743100	-11.182000	24.007141	0.001072	20.893624
628.174954	-3.005500	3.743900	-11.251000	23.990493	0.001073	20.881671
629.164021	-2.980900	3.741900	-11.152000	23.961800	0.001072	20.863805
630.172552	-3.016600	3.742100	-11.287000	23.976831	0.001071	20.860860
631.168274	-3.004900	3.742000	-11.244000	23.942739	0.001072	20.878354
632.166115	-3.009800	3.741700	-11.261000	23.960010	0.001073	20.864854
633.167284	-3.000000	3.741600	-11.224000	23.960582	0.001073	20.872539
634.164372	-3.000500	3.741700	-11.226000	23.987062	0.001072	20.882024
635.167284	-3.004400	3.740500	-11.237000	24.006023	0.001073	20.876857
636.167130	-3.022100	3.740500	-11.303000	24.014087	0.001073	20.886366
637.164567	-2.993400	3.741700	-11.200000	24.019885	0.001074	20.872267
638.169937	-3.010600	3.740300	-11.259000	24.027898	0.001072	20.876035
639.166368	-3.003500	3.740000	-11.231000	23.997490	0.001073	20.866404
640.184196	-2.974100	3.741400	-11.125000	23.971486	0.001074	20.849810
641.172947	-2.998900	3.738600	-11.210000	23.950233	0.001073	20.878283
642.175487	-2.987800	3.739700	-11.171000	23.934505	0.001075	20.873891
643.169975	-2.980500	3.739500	-11.144000	23.966459	0.001071	20.888864
644.170547	-3.006200	3.738900	-11.238000	23.965016	0.001074	20.858021
645.168212	-2.994300	3.738000	-11.191000	23.964245	0.001073	20.863885
646.174257	-3.007500	3.736900	-11.237000	23.955535	0.001073	20.871272
647.166903	-2.996600	3.737800	-11.197000	23.940579	0.001071	20.872396
648.173836	-2.996300	3.737100	-11.197000	23.950111	0.001071	20.875790
649.170958	-3.006800	3.736700	-11.234000	24.007273	0.001072	20.883801
650.169654	-2.981800	3.736300	-11.141000	24.016481	0.001072	20.880233
651.172062	-2.988600	3.736500	-11.166000	24.023001	0.001071	20.865909
652.172102	-2.989900	3.736600	-11.170000	24.014242	0.001071	20.877987
653.166430	-2.979300	3.736900	-11.132000	24.006677	0.001071	20.871350
654.166815	-2.974300	3.736800	-11.113000	24.005235	0.001070	20.877489
655.172456	-3.012100	3.734400	-11.247000	24.020464	0.001072	20.878063
656.165987	-2.981700	3.735000	-11.134000	24.028154	0.001071	20.848793
657.173497	-3.002400	3.735800	-11.216000	24.056249	0.001069	20.862270
658.180634	-2.982200	3.735800	-11.140000	24.078196	0.001069	20.883330
659.172971	-3.000500	3.734300	-11.204000	24.095788	0.001069	20.866362
660.175314	-2.988300	3.733700	-11.156000	24.099571	0.001072	20.872526
661.168526	-3.035700	3.732600	-11.330000	24.068492	0.001071	20.866961
662.171400	-3.000200	3.734600	-11.203000	24.084667	0.001070	20.861372
663.171369	-2.965500	3.733400	-11.070000	24.042390	0.001070	20.892938
664.171660	-3.027900	3.731100	-11.296000	24.015715	0.001069	20.868559
665.179229	-2.979900	3.733700	-11.126000	24.010315	0.001067	20.866938
666.172040	-3.003500	3.732000	-11.208000	24.009992	0.001068	20.879889
667.171227	-3.009100	3.731000	-11.226000	24.000437	0.001067	20.881687
668.171308	-2.989400	3.731300	-11.154000	24.014970	0.001069	20.881562
669.171410	-2.989500	3.732200	-11.157000	24.043314	0.001069	20.862573
670.175667	-3.000400	3.731100	-11.194000	24.072627	0.001069	20.882486
671.176551	-3.011300	3.730200	-11.232000	24.085491	0.001070	20.866940
672.173739	-3.004600	3.730200	-11.206000	24.090815	0.001069	20.861849
673.177765	-2.981000	3.730700	-11.120000	24.121173	0.001068	20.865269
674.173482	-3.003200	3.729900	-11.199000	24.134933	0.001068	20.854414
675.171494	-2.998300	3.729500	-11.181000	24.146578	0.001068	20.862774
676.173937	-2.982200	3.728000	-11.117000	24.159789	0.001068	20.869386
677.171214	-2.987600	3.729300	-11.141000	24.158694	0.001066	20.869236
678.170274	-2.997500	3.729300	-11.178000	24.163423	0.001069	20.881090
679.179887	-3.000800	3.728300	-11.186000	24.185941	0.001067	20.869537
680.170678	-2.998100	3.730200	-11.181000	24.193379	0.001066	20.851869
681.173292	-3.024300	3.728800	-11.276000	24.205945	0.001065	20.861153
682.173993	-3.003300	3.727900	-11.196000	24.225500	0.001068	20.859905
683.174835	-3.006300	3.726600	-11.201000	24.226247	0.001067	20.865869
684.175717	-3.019600	3.726400	-11.251000	24.226994	0.001066	20.852869
685.176408	-3.004900	3.726300	-11.197000	24.217864	0.001067	20.844660
686.177093	-3.011500	3.727500	-11.225000	24.202014	0.001068	20.870487
687.179325	-2.995000	3.726300	-11.158000	24.212291	0.001066	20.854242
688.172563	-3.018900	3.724500	-11.242000	24.239310	0.001067	20.849576
689.180050	-2.997800	3.725000	-11.165000	24.206319	0.001065	20.857735
690.178193	-3.008600	3.725400	-11.207000	24.203683	0.001065	20.854143
691.172874	-2.996600	3.725700	-11.163000	24.204156	0.001064	20.843713
692.186728	-3.013600	3.724100	-11.222000	24.202962	0.001065	20.864799
693.183054	-2.997900	3.723700	-11.162000	24.201892	0.001066	20.839545
694.177826	-2.991600	3.724300	-11.140000	24.142925	0.001065	20.833507
695.182868	-3.013900	3.723800	-11.220000	24.151136	0.001066	20.860233
696.178179	-3.006200	3.724000	-11.193000	24.152479	0.001066	20.843090
697.181450	-3.000200	3.722800	-11.168000	24.191815	0.001065	20.850775
698.175271	-3.004800	3.722400	-11.184000	24.181343	0.001064	20.843590
699.178704	-2.991300	3.722300	-11.133000	24.208786	0.001064	20.836503
700.183650	-2.991200	3.722400	-11.132000	24.234189	0.001063	20.853448
701.177696	-3.011500	3.723100	-11.211000	24.245882	0.001061	20.846685
702.183988	-2.996200	3.721000	-11.148000	24.263471	0.001063	20.841569
703.180173	-2.993000	3.722700	-11.141000	24.290738	0.001063	20.844738
704.183059	-2.992600	3.722100	-11.137000	24.276583	0.001064	20.856618
705.177593	-3.003500	3.720000	-11.173000	24.277305	0.001061	20.839799
706.184141	-3.003800	3.721100	-11.176000	24.264418	0.001063	20.863381
707.180860	-3.014500	3.719100	-11.210000	24.262403	0.001063	20.840971
708.181162	-3.001600	3.720400	-11.164000	24.254069	0.001061	20.834034
709.185535	-3.002100	3.719800	-11.166000	24.254493	0.001061	20.829718
710.180827	-3.002900	3.719200	-11.166000	24.244441	0.001062	20.840973
711.182541	-3.015500	3.719200	-11.214000	24.271883	0.001064	20.865652
712.182131	-2.985600	3.720700	-11.108000	24.249269	0.001061	20.830169
713.186286	-3.044600	3.719000	-11.321000	24.223519	0.001062	20.850333
714.187834	-3.015000	3.718500	-11.210000	24.237177	0.001061	20.840799
715.186748	-2.991800	3.719200	-11.126000	24.203865	0.001059	20.832516
716.182847	-2.973800	3.719700	-11.060000	24.222774	0.001061	20.848162
717.189980	-2.999600	3.717500	-11.150000	24.214391	0.001062	20.846392
718.182987	-2.971000	3.719000	-11.048000	24.210957	0.001061	20.836310
719.189689	-2.999300	3.716700	-11.146000	24.215486	0.001060	20.836585
720.181802	-2.993900	3.715900	-11.124000	24.222154	0.001058	20.821463
721.190944	-2.991300	3.717300	-11.118000	24.239321	0.001057	20.839156
722.191469	-3.011200	3.715600	-11.187000	24.234022	0.001057	20.841902
723.194136	-2.979900	3.716600	-11.074000	24.244869	0.001058	20.834764
724.187472	-3.017800	3.716000	-11.213000	24.219542	0.001058	20.840179
725.189354	-3.033900	3.714300	-11.267000	24.218075	0.001061	20.835863
726.184981	-2.995000	3.715400	-11.127000	24.194961	0.001060	20.832120
727.191774	-2.995500	3.715300	-11.127000	24.220016	0.001060	20.839706
728.190935	-3.002100	3.714400	-11.150000	24.235094	0.001058	20.849614
729.184792	-2.995900	3.713500	-11.123000	24.251241	0.001059	20.833569
730.187130	-2.973300	3.715400	-11.046000	24.248081	0.001059	20.816650
731.191113	-2.999800	3.714300	-11.141000	24.232805	0.001059	20.846844
732.187808	-3.013100	3.713300	-11.188000	24.218252	0.001060	20.836041
733.186528	-2.967800	3.713900	-11.021000	24.203671	0.001056	20.839433
734.189429	-3.012000	3.712200	-11.181000	24.206682	0.001058	20.831074
735.187963	-2.990700	3.714200	-11.107000	24.201334	0.001057	20.817649
736.192239	-3.005100	3.712200	-11.155000	24.192751	0.001058	20.829429
737.186535	-3.022100	3.711600	-11.216000	24.193945	0.001056	20.827781
738.190049	-2.998300	3.712300	-11.130000	24.223478	0.001056	20.809989
739.187531	-2.991400	3.711300	-11.101000	24.234873	0.001056	20.821893
740.190213	-3.012000	3.710300	-11.174000	24.236790	0.001057	20.823341
741.194596	-2.995200	3.712800	-11.119000	24.245448	0.001056	20.814957
742.185254	-2.991600	3.711900	-11.104000	24.228977	0.001055	20.831152
743.187797	-3.009600	3.711100	-11.167000	24.227833	0.001055	20.823366
744.193579	-2.971600	3.711700	-11.029000	24.241518	0.001053	20.838041
745.194252	-3.001200	3.710300	-11.134000	24.269282	0.001053	20.802828
746.191573	-2.963900	3.711300	-10.999000	24.282966	0.001055	20.831253
747.186630	-3.012500	3.709800	-11.175000	24.291003	0.001053	20.817978
748.195617	-3.010300	3.709600	-11.166000	24.288839	0.001053	20.808221
749.186253	-2.999400	3.709600	-11.125000	24.285705	0.001053	20.823095
750.193034	-2.998000	3.709100	-11.119000	24.289188	0.001054	20.821374
751.193773	-2.989300	3.708800	-11.085000	24.284959	0.001052	20.826614
752.189915	-3.002000	3.707600	-11.129000	24.265828	0.001055	20.841563
753.197654	-3.008200	3.707900	-11.154000	24.279438	0.001053	20.829610
754.190263	-2.988800	3.708000	-11.082000	24.256923	0.001053	20.822673
755.189122	-3.014300	3.706400	-11.171000	24.237542	0.001052	20.809397
756.192177	-2.986000	3.707100	-11.068000	24.260032	0.001053	20.802085
757.197731	-2.983300	3.708100	-11.062000	24.272946	0.001054	20.799391
758.190528	-2.997600	3.706500	-11.110000	24.279464	0.001053	20.815886
759.193902	-2.990200	3.706900	-11.083000	24.287153	0.001052	20.799892
760.201051	-2.988900	3.707200	-11.080000	24.262871	0.001050	20.810622
761.200459	-3.009400	3.704900	-11.149000	24.257348	0.001053	20.834953
762.197538	-2.992400	3.705100	-11.086000	24.253043	0.001051	20.815936
763.194046	-2.974300	3.706300	-11.022000	24.262797	0.001053	20.809600
764.200964	-3.022500	3.705500	-11.198000	24.290413	0.001050	20.798421
765.195659	-3.012100	3.705100	-11.159000	24.280015	0.001051	20.836353
766.192349	-3.004800	3.704700	-11.130000	24.274042	0.001050	20.813767
767.201680	-2.988300	3.703900	-11.068000	24.259763	0.001050	20.804185
768.196595	-2.992200	3.705800	-11.088000	24.230605	0.001048	20.819982
769.192878	-2.981000	3.703700	-11.040000	24.269045	0.001048	20.825824
770.207429	-3.000800	3.702900	-11.110000	24.251181	0.001049	20.800318
771.193854	-2.979800	3.703200	-11.034000	24.281335	0.001050	20.812547
772.195717	-2.978300	3.703400	-11.029000	24.309646	0.001047	20.817239
773.194787	-2.988500	3.703400	-11.067000	24.332857	0.001048	20.826298
774.197067	-3.003700	3.702100	-11.119000	24.334847	0.001047	20.829243
775.197190	-3.003000	3.702900	-11.119000	24.306613	0.001046	20.815619
776.196837	-3.010100	3.702300	-11.144000	24.302011	0.001047	20.820960
777.202139	-3.015200	3.702300	-11.161000	24.319176	0.001048	20.795979
778.203241	-2.993700	3.701900	-11.082000	24.318430	0.001048	20.815619
779.197105	-3.011600	3.701200	-11.146000	24.313679	0.001047	20.816069
780.198246	-3.012000	3.699900	-11.143000	24.293902	0.001047	20.822308
781.199358	-2.997000	3.700400	-11.089000	24.297360	0.001048	20.809182
782.198351	-2.983300	3.701600	-11.042000	24.328209	0.001046	20.813575
783.203802	-3.001200	3.701100	-11.106000	24.317114	0.001048	20.789643
784.202769	-3.008000	3.698200	-11.123000	24.329429	0.001047	20.810531
785.198069	-2.996400	3.698900	-11.082000	24.340698	0.001046	20.812352
786.199723	-2.980100	3.699200	-11.023000	24.351619	0.001044	20.809083
787.206547	-2.996500	3.697600	-11.079000	24.376199	0.001047	20.814302
788.204007	-2.992500	3.698700	-11.067000	24.406695	0.001048	20.805066
789.200636	-2.989500	3.698100	-11.054000	24.420876	0.001046	20.812654
790.204561	-3.003100	3.698200	-11.104000	24.409458	0.001043	20.808312
791.206656	-2.993000	3.698900	-11.070000	24.385005	0.001047	20.816971
792.201002	-2.999600	3.698100	-11.090000	24.357318	0.001044	20.825232
793.202281	-2.994200	3.697400	-11.069000	24.320127	0.001043	20.819218
794.208535	-3.003200	3.696900	-11.102000	24.301145	0.001044	20.801126
795.203001	-2.990000	3.697600	-11.055000	24.327966	0.001044	20.810012
796.199442	-3.001600	3.696500	-11.095000	24.328562	0.001045	20.795437
797.209955	-2.983000	3.697100	-11.028000	24.313488	0.001043	20.815403
798.207833	-3.007700	3.695300	-11.113000	24.299632	0.001044	20.838487
799.201002	-2.985200	3.695600	-11.031000	24.282266	0.001042	20.809214
800.200566	-3.013100	3.694200	-11.131000	24.278387	0.001044	20.821444
801.209340	-2.995200	3.696400	-11.070000	24.303290	0.001044	20.831725
802.205499	-2.984900	3.695300	-11.029000	24.308241	0.001044	20.844752
803.201382	-3.016900	3.693000	-11.140000	24.345981	0.001043	20.801531
804.201648	-3.005400	3.694300	-11.102000	24.365184	0.001041	20.808467
805.205925	-3.006200	3.693600	-11.102000	24.335061	0.001041	20.826612
806.203146	-3.016500	3.691600	-11.134000	24.302595	0.001041	20.816330
807.204349	-3.009600	3.693400	-11.115000	24.297197	0.001039	20.812338
808.203757	-2.997100	3.694300	-11.071000	24.337898	0.001042	20.838941
809.203248	-3.010600	3.693800	-11.119000	24.325111	0.001041	20.827537
810.203588	-3.009500	3.691700	-11.109000	24.331531	0.001041	20.803631
811.207071	-2.991200	3.691700	-11.042000	24.320857	0.001039	20.811890
812.212507	-2.989100	3.694000	-11.041000	24.337128	0.001040	20.822996
813.206388	-2.988400	3.692900	-11.035000	24.361633	0.001038	20.812491
814.207489	-3.017500	3.690700	-11.134000	24.352850	0.001039	20.814586
815.209424	-2.987200	3.691900	-11.028000	24.372951	0.001040	20.833802
816.208335	-3.007200	3.690400	-11.096000	24.396360	0.001038	20.834052
817.209200	-2.972800	3.691400	-10.973000	24.403971	0.001039	20.826989
818.212697	-2.985200	3.690600	-11.016000	24.410862	0.001039	20.812092
819.216340	-3.004800	3.689800	-11.085000	24.401956	0.001038	20.832554
820.222536	-3.007100	3.690400	-11.097000	24.410066	0.001038	20.843534
821.224102	-3.009600	3.689600	-11.104000	24.406857	0.001038	20.832729
822.207329	-3.011800	3.688800	-11.107000	24.404818	0.001036	20.815985
823.205892	-2.993300	3.689200	-11.041000	24.399766	0.001036	20.823719
824.208054	-2.992400	3.689100	-11.038000	24.407055	0.001038	20.820600
825.209270	-3.005100	3.687800	-11.081000	24.423224	0.001038	20.830183
826.211190	-3.025300	3.687600	-11.155000	24.413075	0.001036	20.821423
827.219001	-2.985600	3.687700	-11.008000	24.406458	0.001035	20.840389
828.211770	-3.000400	3.688000	-11.064000	24.401956	0.001035	20.845829
829.217222	-3.007300	3.686000	-11.084000	24.418796	0.001035	20.853714
830.223800	-2.988000	3.687900	-11.018000	24.429568	0.001035	20.811892
831.211586	-2.979200	3.688700	-10.988000	24.425737	0.001035	20.830807
832.222241	-3.010800	3.685700	-11.096000	24.422976	0.001035	20.831356
833.210462	-2.981600	3.686200	-10.990000	24.436483	0.001035	20.833527
834.222583	-2.982500	3.685900	-10.992000	24.450761	0.001033	20.831730
835.212346	-3.000500	3.686600	-11.060000	24.473049	0.001034	20.832280
836.215513	-2.996200	3.685500	-11.042000	24.462901	0.001032	20.840116
837.213709	-2.993100	3.686100	-11.032000	24.476133	0.001033	20.838692
838.218670	-3.012400	3.685100	-11.099000	24.475463	0.001033	20.838495
839.216296	-2.999800	3.684200	-11.051000	24.485586	0.001032	20.833952
840.212817	-3.017300	3.685300	-11.118000	24.483321	0.001032	20.841163
841.223860	-3.020900	3.683100	-11.125000	24.455537	0.001033	20.852168
842.213449	-2.990500	3.684700	-11.018000	24.411608	0.001031	20.835124
843.214448	-3.018800	3.682800	-11.116000	24.413597	0.001032	20.838542
844.217015	-2.984300	3.683400	-10.992000	24.386210	0.001032	20.824819
845.223017	-2.996000	3.683600	-11.036000	24.384768	0.001031	20.844233
846.215831	-3.000300	3.684000	-11.052000	24.375364	0.001031	20.839068
847.220252	-2.975200	3.684300	-10.960000	24.352950	0.001028	20.841712
848.222333	-3.004000	3.683900	-11.065000	24.353722	0.001031	20.840116
849.217897	-3.021300	3.682600	-11.124000	24.389569	0.001031	20.836722
850.215196	-3.012900	3.681900	-11.092000	24.404793	0.001029	20.842986
851.215573	-3.010100	3.681700	-11.081000	24.393773	0.001028	20.851844
852.220096	-3.022600	3.680900	-11.126000	24.399371	0.001026	20.844184
853.217422	-2.999800	3.680900	-11.040000	24.394345	0.001026	20.860953
854.223238	-2.969200	3.682600	-10.933000	24.380465	0.001026	20.843710
855.220219	-3.003600	3.680900	-11.054000	24.390016	0.001029	20.858981
856.220715	-3.002200	3.680700	-11.049000	24.426136	0.001026	20.844483
857.226771	-3.010900	3.678400	-11.074000	24.440488	0.001028	20.843235
858.218545	-3.005400	3.679300	-11.055000	24.464144	0.001026	20.856536
859.222461	-3.000700	3.678600	-11.038000	24.497699	0.001025	20.847527
860.225343	-3.014100	3.679000	-11.086000	24.517125	0.001024	20.828138
861.218765	-2.983300	3.679400	-10.976000	24.534262	0.001024	20.857184
862.221893	-3.004500	3.679100	-11.053000	24.560253	0.001025	20.858132
863.225978	-3.004500	3.678800	-11.052000	24.557865	0.001024	20.869486
864.226866	-3.014400	3.678000	-11.085000	24.571992	0.001024	20.862324
865.215523	-3.019200	3.677000	-11.101000	24.568610	0.001025	20.856559
866.221138	-2.985100	3.678300	-10.978000	24.550602	0.001025	20.856035
867.218774	-3.000000	3.676800	-11.029000	24.548762	0.001023	20.833327
868.220705	-3.007100	3.676000	-11.052000	24.543315	0.001023	20.852517
869.221308	-3.000600	3.677700	-11.034000	24.529611	0.001024	20.871008
870.224826	-3.003200	3.675700	-11.038000	24.493196	0.001025	20.831630
871.226331	-2.997400	3.676800	-11.020000	24.498395	0.001023	20.872406
872.222836	-2.994200	3.675700	-11.005000	24.480857	0.001022	20.855760
873.224776	-2.998900	3.676500	-11.023000	24.480810	0.001023	20.847652
874.221267	-3.005700	3.676100	-11.048000	24.522745	0.001022	20.836147
875.219004	-2.992500	3.675600	-10.998000	24.517272	0.001022	20.863371
876.224643	-2.986700	3.675000	-10.975000	24.550628	0.001022	20.850846
877.227071	-3.012100	3.674700	-11.068000	24.580972	0.001019	20.861377
878.220816	-3.003500	3.675400	-11.037000	24.619772	0.001020	20.866642
879.227807	-3.002600	3.673000	-11.028000	24.613031	0.001021	20.876000
880.225296	-3.003800	3.673900	-11.035000	24.585275	0.001020	20.874702
881.221340	-3.005100	3.674200	-11.040000	24.581570	0.001021	20.875252
882.224976	-2.998900	3.674000	-11.017000	24.537545	0.001021	20.856684
883.223480	-3.022100	3.672400	-11.096000	24.538541	0.001020	20.877597
884.230609	-3.012300	3.673900	-11.065000	24.501306	0.001020	20.860629
885.225652	-3.011700	3.672900	-11.060000	24.478448	0.001018	20.869938
886.228571	-3.003400	3.672900	-11.030000	24.472403	0.001017	20.858183
887.234282	-2.986800	3.672800	-10.967000	24.476956	0.001016	20.869863
888.224953	-3.022500	3.671400	-11.096000	24.505436	0.001019	20.867143
889.230407	-3.007200	3.670600	-11.038000	24.503247	0.001017	20.847403
890.227187	-2.999800	3.671000	-11.011000	24.527077	0.001019	20.858984
891.222919	-2.995600	3.672400	-10.999000	24.541801	0.001016	20.863799
892.231681	-2.982800	3.671200	-10.950000	24.553516	0.001016	20.853744
893.234815	-2.988800	3.670200	-10.969000	24.565654	0.001015	20.873033
894.225348	-2.994200	3.670400	-10.989000	24.599555	0.001016	20.875279
895.225574	-2.997000	3.671000	-11.001000	24.627932	0.001014	20.854443
896.233886	-3.012600	3.670500	-11.057000	24.641759	0.001015	20.876851
897.237707	-3.007800	3.668800	-11.034000	24.648376	0.001014	20.878748
898.232691	-2.999500	3.668600	-11.003000	24.677994	0.001015	20.889976
899.229468	-2.993300	3.668800	-10.982000	24.657130	0.001011	20.883264
900.230576	-3.011000	3.669100	-11.047000	24.660113	0.001012	20.893370
901.238797	-3.013600	3.668000	-11.053000	24.656035	0.001012	20.881218
902.238867	-2.998200	3.666900	-10.992000	24.666654	0.001013	20.888079
903.233876	-2.969300	3.667400	-10.889000	24.649020	0.001012	20.877973
904.229460	-2.971800	3.669300	-10.904000	24.659714	0.001014	20.865470
905.229136	-2.983600	3.669300	-10.946000	24.676974	0.001014	20.878996
906.239323	-2.996900	3.668100	-10.992000	24.685080	0.001011	20.882863
907.229633	-2.990200	3.667700	-10.965000	24.704925	0.001009	20.889973
908.230998	-2.997800	3.667100	-10.993000	24.722607	0.001009	20.886380
909.248595	-3.015200	3.665700	-11.052000	24.756701	0.001009	20.897834
910.238596	-3.003700	3.666700	-11.012000	24.728449	0.001010	20.867588
911.230908	-3.003600	3.666100	-11.010000	24.718253	0.001010	20.879167
912.244876	-2.990700	3.665900	-10.962000	24.741354	0.001009	20.881012
913.236933	-3.012000	3.666200	-11.042000	24.727279	0.001008	20.903396
914.230044	-2.990200	3.665400	-10.959000	24.705393	0.001008	20.874323
915.233405	-2.999000	3.665700	-10.993000	24.724042	0.001010	20.891140
916.233196	-3.008000	3.663800	-11.019000	24.704174	0.001007	20.894435
917.238501	-3.028000	3.663700	-11.092000	24.715885	0.001008	20.881058
918.231965	-2.996900	3.664300	-10.981000	24.733368	0.001007	20.867783
919.237663	-3.023400	3.663400	-11.074000	24.719514	0.001007	20.880907
920.244571	-3.005500	3.662600	-11.007000	24.720782	0.001006	20.897351
921.236627	-3.019500	3.664000	-11.061000	24.736747	0.001007	20.886820
922.236838	-2.997400	3.663000	-10.979000	24.770940	0.001004	20.881305
923.234624	-2.979900	3.663300	-10.915000	24.778747	0.001005	20.891036
924.233946	-2.969400	3.663400	-10.877000	24.806174	0.001009	20.884422
925.235352	-3.007900	3.662300	-11.015000	24.813235	0.001008	20.901938
926.238314	-2.982100	3.662900	-10.922000	24.796848	0.001006	20.884072
927.241890	-2.992200	3.662500	-10.958000	24.825568	0.001005	20.901040
928.238675	-2.985900	3.662600	-10.935000	24.840113	0.001002	20.875810
929.235027	-3.001600	3.661000	-10.988000	24.798686	0.001006	20.902035
930.237466	-2.997200	3.661100	-10.972000	24.796373	0.001003	20.896396
931.236953	-2.974600	3.661300	-10.890000	24.798461	0.001004	20.892802
932.236288	-3.018900	3.660300	-11.049000	24.812163	0.001002	20.876208
933.236924	-3.012600	3.660100	-11.025000	24.825912	0.001006	20.901859
934.239214	-3.005200	3.660400	-10.998000	24.820591	0.001004	20.896044
935.235010	-2.991900	3.659400	-10.947000	24.764765	0.001002	20.907348
936.240155	-3.026700	3.658700	-11.073000	24.764863	0.001001	20.882319
937.239151	-3.011400	3.656400	-11.009000	24.724254	0.001003	20.878551
938.237923	-3.023000	3.658800	-11.059000	24.687249	0.001002	20.877927
939.237175	-2.992300	3.658000	-10.946000	24.675088	0.001002	20.904128
940.240858	-2.997100	3.658800	-10.965000	24.681926	0.000998	20.897714
941.243278	-3.009700	3.657500	-11.007000	24.654720	0.001001	20.905974
942.239562	-2.995300	3.658100	-10.956000	24.652704	0.001000	20.914856
943.239469	-3.022100	3.657200	-11.051000	24.629849	0.001000	20.903778
944.238493	-2.997400	3.657100	-10.960000	24.620945	0.001000	20.907172
945.235049	-3.014400	3.657400	-11.024000	24.628257	0.000998	20.901706
946.237960	-2.995800	3.657700	-10.957000	24.677671	0.000996	20.903875
947.248166	-2.995700	3.656100	-10.952000	24.687893	0.001000	20.916028
948.239732	-2.994900	3.655400	-10.947000	24.677250	0.000997	20.909142
949.239430	-2.999200	3.656500	-10.965000	24.691351	0.000997	20.890102
950.237035	-2.983600	3.656400	-10.908000	24.700751	0.000998	20.887208
951.240038	-2.990900	3.655900	-10.933000	24.704131	0.000997	20.888228
952.236002	-2.997900	3.655700	-10.957000	24.719600	0.000999	20.915603
953.246439	-2.999300	3.656400	-10.965000	24.760283	0.000995	20.904747
954.257931	-2.975400	3.656400	-10.878000	24.764685	0.000995	20.928128
955.237270	-3.010500	3.654500	-11.001000	24.769708	0.000997	20.917523
956.250473	-2.999500	3.653800	-10.959000	24.791391	0.000998	20.916999
957.245576	-2.994300	3.653400	-10.939000	24.771174	0.000994	20.895289
958.241516	-3.001200	3.653100	-10.962000	24.787660	0.000995	20.914203
959.245416	-2.988100	3.652900	-10.915000	24.821205	0.000994	20.900454
960.239800	-3.005300	3.654600	-10.982000	24.814491	0.000996	20.912207
961.238394	-3.005100	3.654100	-10.980000	24.780548	0.000994	20.904222
962.239979	-2.984300	3.653100	-10.901000	24.797183	0.000996	20.900528
963.239778	-2.985700	3.651400	-10.901000	24.755730	0.000995	20.917721
964.250740	-2.994700	3.651300	-10.933000	24.738298	0.000995	20.939579
965.247088	-2.999900	3.653300	-10.959000	24.745036	0.000993	20.933540
966.243058	-3.023700	3.651000	-11.038000	24.745782	0.000992	20.900627
967.244670	-3.002800	3.652500	-10.966000	24.706739	0.000992	20.929248
968.246674	-2.972800	3.652600	-10.858000	24.715716	0.000993	20.927352
969.253683	-3.002500	3.651400	-10.963000	24.688113	0.000992	20.922886
970.245347	-2.984200	3.652600	-10.899000	24.690150	0.000993	20.919241
971.253624	-3.005800	3.651800	-10.976000	24.717009	0.000993	20.918219
972.246147	-3.011400	3.650800	-10.992000	24.728101	0.000992	20.923185
973.247145	-2.974800	3.651000	-10.859000	24.734866	0.000991	20.946092
974.255872	-2.996800	3.649300	-10.935000	24.705371	0.000991	20.925979
975.250709	-2.988400	3.650700	-10.909000	24.711415	0.000988	20.931570
976.256747	-3.007800	3.648500	-10.972000	24.700150	0.000989	20.925482
977.244224	-3.006000	3.649600	-10.969000	24.759908	0.000991	20.943247
978.250639	-2.986300	3.649400	-10.897000	24.780723	0.000990	20.919094
979.262974	-2.991900	3.648500	-10.915000	24.775825	0.000991	20.924136
980.246030	-2.989700	3.648700	-10.908000	24.799647	0.000989	20.924334
981.248352	-3.001600	3.648700	-10.950000	24.780102	0.000989	20.929376
982.245619	-3.006000	3.647300	-10.963000	24.778387	0.000988	20.955626
983.252039	-3.004200	3.647600	-10.957000	24.771523	0.000987	20.944472
984.252415	-2.997100	3.644800	-10.922000	24.798530	0.000985	20.927006
985.244868	-2.991000	3.647100	-10.908000	24.805939	0.000985	20.925908
986.243618	-3.010700	3.644600	-10.971000	24.828344	0.000987	20.953132
987.246393	-3.006800	3.645100	-10.960000	24.824987	0.000986	20.938385
988.248265	-3.033500	3.644000	-11.053000	24.863828	0.000983	20.940381
989.247907	-3.007500	3.645300	-10.961000	24.895852	0.000984	20.941228
990.248410	-2.990100	3.644800	-10.897000	24.876808	0.000982	20.942503
991.257150	-2.995600	3.645600	-10.918000	24.856244	0.000983	20.937986
992.253726	-2.990500	3.645900	-10.901000	24.896324	0.000984	20.948814
993.245187	-3.027200	3.644200	-11.029000	24.904084	0.000983	20.943800
994.263644	-3.027100	3.642400	-11.025000	24.919922	0.000987	20.949264
995.252049	-2.997600	3.644400	-10.922000	24.912486	0.000983	20.957921
996.246900	-3.003900	3.643200	-10.943000	24.941776	0.000984	20.949388
997.253027	-3.008300	3.642600	-10.957000	24.951821	0.000982	20.958521
998.252196	-3.007700	3.642600	-10.954000	24.958707	0.000982	20.944098
999.251486	-2.990100	3.643700	-10.894000	24.965644	0.000982	20.952481
1000.258372	-2.950700	3.643100	-10.748000	24.966440	0.000981	20.937161
1001.255599	-3.012500	3.641500	-10.969000	24.973825	0.000981	20.964485
1002.254428	-3.004200	3.642600	-10.941000	24.968180	0.000981	20.958345
1003.260378	-2.986400	3.640500	-10.871000	24.972407	0.000980	20.942675
1004.254449	-3.001400	3.641400	-10.928000	24.964625	0.000981	20.949563
1005.261384	-2.997300	3.640100	-10.910000	24.953065	0.000978	20.947917
1006.258817	-2.997100	3.640900	-10.912000	24.974594	0.000980	20.934915
1007.260790	-2.986000	3.639900	-10.867000	24.990507	0.000979	20.934766
1008.259674	-2.999500	3.640000	-10.917000	24.970517	0.000982	20.963535
1009.259113	-2.997800	3.640200	-10.912000	24.980189	0.000978	20.931522
1010.256228	-2.995800	3.640100	-10.905000	24.947345	0.000978	20.952606
1011.264747	-2.979400	3.639700	-10.843000	24.940458	0.000977	20.945695
1012.261066	-3.001900	3.640600	-10.928000	24.924273	0.000977	20.947468
1013.262181	-3.019700	3.638500	-10.986000	24.889861	0.000978	20.958921
1014.258521	-2.999300	3.639400	-10.915000	24.895158	0.000978	20.946220
1015.255627	-2.984300	3.640100	-10.861000	24.880313	0.000977	20.946494
1016.264346	-3.019000	3.638600	-10.983000	24.923429	0.000975	20.939509
1017.267503	-2.995600	3.639500	-10.901000	24.915646	0.000976	20.946396
1018.260821	-3.003400	3.637800	-10.925000	24.911222	0.000975	20.933422
1019.274446	-3.001600	3.638100	-10.918000	24.924673	0.000977	20.945499
1020.261339	-3.001100	3.638100	-10.917000	24.923356	0.000972	20.923316
1021.266894	-3.007700	3.637300	-10.939000	24.913335	0.000973	20.942180
1022.260642	-2.979600	3.638000	-10.839000	24.898392	0.000971	20.930029
1023.262641	-2.992100	3.636900	-10.880000	24.904883	0.000974	20.909044
1024.258784	-3.011800	3.636000	-10.950000	24.901651	0.000974	20.938040
1025.266953	-2.994000	3.636500	-10.886000	24.914903	0.000970	20.922419
1026.266128	-2.981000	3.637100	-10.841000	24.920176	0.000973	20.932926
1027.261928	-2.999900	3.634700	-10.902000	24.942627	0.000973	20.908047
1028.259527	-2.997800	3.635700	-10.898000	24.940042	0.000972	20.915409
1029.262546	-3.024400	3.633500	-10.988000	24.938624	0.000970	20.939113
1030.266302	-3.005300	3.633700	-10.919000	24.941012	0.000970	20.915434
1031.260063	-3.005700	3.634700	-10.922000	24.945960	0.000971	20.931779
1032.269594	-3.023500	3.632900	-10.983000	24.975721	0.000971	20.935097
1033.262294	-2.989000	3.634900	-10.863000	25.012168	0.000969	20.922845
1034.269610	-2.995700	3.633700	-10.884000	24.978654	0.000969	20.897742
1035.269551	-2.976700	3.632400	-10.811000	24.939994	0.000971	20.936695
1036.262256	-2.988600	3.633100	-10.856000	24.916695	0.000970	20.926113
1037.264328	-2.990000	3.631500	-10.857000	24.900061	0.000966	20.928385
1038.273679	-2.999500	3.633100	-10.897000	24.904363	0.000966	20.918953
1039.263899	-2.999400	3.632000	-10.892000	24.917317	0.000968	20.910144
1040.261457	-2.997100	3.632100	-10.884000	24.947552	0.000968	20.899241
1041.264935	-2.997600	3.632400	-10.887000	24.929774	0.000966	20.909371
1042.261389	-3.028000	3.629900	-10.991000	24.917193	0.000968	20.923769
1043.264906	-2.998800	3.630400	-10.886000	24.933157	0.000968	20.904706
1044.264818	-2.991600	3.631700	-10.863000	24.919458	0.000966	20.913241
1045.260064	-3.001300	3.631300	-10.897000	24.938578	0.000966	20.902087
1046.259773	-2.997200	3.630400	-10.880000	24.953895	0.000963	20.900866
1047.263806	-2.994900	3.628800	-10.866000	24.974729	0.000967	20.902811
1048.260567	-3.006000	3.629000	-10.908000	24.964710	0.000966	20.902238
1049.260418	-3.000200	3.629300	-10.888000	24.912298	0.000964	20.891833
1050.259571	-3.019200	3.628500	-10.954000	24.900389	0.000963	20.906431
1051.260974	-3.011100	3.628100	-10.923000	24.896287	0.000963	20.889987
1052.260415	-2.994000	3.628400	-10.862000	24.895989	0.000962	20.902490
1053.259761	-2.998900	3.627900	-10.879000	24.893379	0.000965	20.907930
1054.262712	-3.010000	3.626100	-10.913000	24.912351	0.000961	20.920332
1055.260672	-2.999500	3.628300	-10.883000	24.928215	0.000960	20.899746
1056.262570	-3.000600	3.627500	-10.883000	24.938135	0.000959	20.905910
1057.261308	-3.000900	3.627200	-10.884000	24.933487	0.000960	20.903141
1058.265409	-2.967400	3.626900	-10.760000	24.950941	0.000958	20.894108
1059.264923	-2.984900	3.626500	-10.822000	24.961980	0.000958	20.917513
1060.262550	-3.002700	3.626900	-10.888000	24.966108	0.000960	20.915967
1061.266708	-3.017400	3.625900	-10.940000	24.972994	0.000957	20.887321
1062.263644	-3.009200	3.625600	-10.910000	24.978142	0.000955	20.889168
1063.268640	-3.013400	3.624000	-10.919000	24.994899	0.000958	20.886073
1064.266445	-2.996500	3.625000	-10.860000	24.999000	0.000957	20.904414
1065.268841	-3.005900	3.624800	-10.895000	25.008672	0.000957	20.913173
1066.265814	-3.019000	3.624500	-10.942000	25.013544	0.000955	20.909055
1067.264941	-3.010200	3.624600	-10.909000	25.026521	0.000954	20.892685
1068.269063	-3.012000	3.624100	-10.915000	25.012300	0.000953	20.891212
1069.271023	-3.004200	3.624400	-10.888000	25.034874	0.000954	20.881630
1070.264936	-2.986500	3.623200	-10.819000	25.061027	0.000954	20.893657
1071.271309	-2.973100	3.624300	-10.774000	25.060257	0.000950	20.891935
1072.266315	-3.006100	3.622400	-10.887000	25.084868	0.000955	20.886295
1073.272475	-3.007600	3.621500	-10.891000	25.075471	0.000954	20.884922
1074.273371	-2.990600	3.622900	-10.834000	25.066223	0.000954	20.891286
1075.268570	-2.997300	3.622400	-10.856000	25.008048	0.000953	20.885522
1076.270516	-3.012400	3.623200	-10.913000	25.032586	0.000952	20.888815
1077.269686	-3.006300	3.622400	-10.889000	25.051580	0.000948	20.876588
1078.270104	-2.999300	3.621400	-10.861000	25.050361	0.000950	20.874417
1079.270814	-2.995900	3.621100	-10.848000	25.037857	0.000951	20.887942
1080.274078	-2.995000	3.620800	-10.844000	25.054887	0.000951	20.887019
1081.269342	-2.990000	3.621200	-10.827000	25.078927	0.000950	20.880331
1082.271099	-3.002800	3.619400	-10.868000	25.084694	0.000948	20.871423
1083.272455	-2.990800	3.620500	-10.828000	25.075173	0.000948	20.868977
1084.271971	-3.006600	3.618600	-10.879000	25.039299	0.000947	20.868054
1085.273045	-2.990800	3.619000	-10.823000	24.992659	0.000950	20.862016
1086.270816	-3.006000	3.618700	-10.876000	24.980476	0.000947	20.894356
1087.272622	-3.007400	3.618500	-10.881000	24.963247	0.000946	20.868530
1088.270636	-2.993800	3.619400	-10.834000	24.903872	0.000947	20.866308
1089.272885	-3.010300	3.617000	-10.888000	24.917996	0.000947	20.892336
1090.271631	-3.021000	3.617400	-10.926000	24.908498	0.000946	20.856252
1091.272786	-3.005300	3.616500	-10.867000	24.913147	0.000945	20.877513
1092.273182	-3.012700	3.616600	-10.894000	24.929334	0.000944	20.854406
1093.270805	-2.996600	3.617400	-10.838000	24.948356	0.000945	20.883454
1094.270638	-3.022500	3.615000	-10.925000	24.990075	0.000944	20.851362
1095.271645	-3.007600	3.616300	-10.875000	25.000591	0.000945	20.852434
1096.271122	-2.997100	3.615400	-10.835000	25.021998	0.000946	20.863491
1097.270716	-3.006300	3.616500	-10.871000	25.003899	0.000944	20.883728
1098.272275	-3.006500	3.614600	-10.866000	24.998330	0.000943	20.872449
1099.272914	-3.013200	3.614400	-10.889000	25.009519	0.000941	20.868981
1100.272602	-3.009400	3.614000	-10.875000	25.010961	0.000942	20.864265
1101.272412	-3.038900	3.611600	-10.973000	24.995547	0.000943	20.866337
1102.273364	-3.003700	3.612700	-10.850000	25.012106	0.000942	20.857355
1103.275245	-2.980600	3.614300	-10.771000	25.000122	0.000941	20.883256
1104.272516	-3.013700	3.611900	-10.884000	24.996766	0.000942	20.870405
1105.271588	-2.988900	3.613000	-10.798000	24.997512	0.000940	20.863094
1106.282483	-3.011700	3.612800	-10.880000	25.021058	0.000941	20.878192
1107.278132	-3.010600	3.612700	-10.875000	25.067076	0.000937	20.867014
1108.274656	-2.994900	3.612700	-10.818000	25.068367	0.000938	20.861198
1109.276752	-3.000200	3.611400	-10.834000	25.076027	0.000938	20.857033
1110.277474	-3.002600	3.612500	-10.846000	25.078016	0.000937	20.874202
1111.276798	-3.016400	3.610200	-10.888000	25.069961	0.000938	20.856634
1112.280446	-2.983200	3.612200	-10.775000	25.109465	0.000939	20.870210
1113.274158	-3.012300	3.612200	-10.880000	25.145214	0.000935	20.861528
1114.277101	-3.007600	3.610800	-10.859000	25.134276	0.000937	20.854341
1115.275587	-2.994500	3.611500	-10.812000	25.082942	0.000936	20.852121
1116.278342	-2.991200	3.609700	-10.795000	25.025439	0.000937	20.874530
1117.278192	-2.989500	3.609600	-10.790000	24.996426	0.000937	20.865323
1118.278714	-2.979800	3.610400	-10.756000	24.961073	0.000934	20.875356
1119.279626	-2.994300	3.609000	-10.806000	24.943446	0.000934	20.847708
1120.281690	-2.975800	3.609200	-10.739000	24.942701	0.000932	20.849804
1121.278754	-3.001300	3.609200	-10.831000	24.962990	0.000934	20.860212
1122.281418	-3.008500	3.608200	-10.853000	24.966894	0.000932	20.858914
1123.281502	-2.982900	3.609700	-10.766000	25.001455	0.000931	20.861836
1124.280143	-2.992700	3.607800	-10.795000	25.060600	0.000931	20.859565
1125.277750	-2.972200	3.608600	-10.724000	25.049165	0.000932	20.850458
1126.278350	-2.999400	3.608400	-10.820000	25.060204	0.000932	20.852530
1127.277722	-2.976400	3.607400	-10.736000	25.051229	0.000932	20.864857
1128.281916	-2.971100	3.608600	-10.720000	25.067490	0.000932	20.868852
1129.277700	-2.999600	3.605500	-10.814000	25.082133	0.000929	20.858421
1130.277841	-3.008900	3.606300	-10.850000	25.093793	0.000930	20.856850
1131.277998	-3.009800	3.605100	-10.850000	25.075919	0.000932	20.857399
1132.277399	-3.028900	3.603100	-10.912000	25.053620	0.000929	20.855404
1133.281771	-3.017300	3.605600	-10.878000	25.045914	0.000929	20.851462
1134.278148	-3.010300	3.605600	-10.853000	25.024360	0.000928	20.856852
1135.280248	-3.015200	3.604100	-10.866000	25.035126	0.000928	20.856280
1136.277459	-2.995000	3.604300	-10.794000	25.043008	0.000926	20.847596
1137.281369	-3.005200	3.604000	-10.829000	25.051685	0.000926	20.855832
1138.285467	-3.005000	3.603800	-10.828000	25.056881	0.000929	20.841608
1139.282942	-3.021100	3.602800	-10.883000	25.038881	0.000923	20.857678
1140.282158	-3.008200	3.603100	-10.838000	25.060809	0.000927	20.857879
1141.284120	-2.998600	3.603300	-10.804000	25.085323	0.000920	20.847399
1142.283485	-3.006200	3.601900	-10.826000	25.102774	0.000923	20.867287
1143.289113	-2.987900	3.603100	-10.764000	25.086168	0.000924	20.834497
1144.286406	-2.998300	3.601900	-10.799000	25.095017	0.000924	20.832476
1145.290616	-2.986200	3.602100	-10.755000	25.107398	0.000922	20.834946
1146.286856	-2.995900	3.602100	-10.790000	25.143743	0.000923	20.839664
1147.283618	-2.971100	3.602400	-10.702000	25.115080	0.000918	20.854511
1148.284488	-2.975000	3.601700	-10.714000	25.099343	0.000922	20.833025
1149.288743	-2.990400	3.600200	-10.765000	25.078089	0.000920	20.837768
1150.283264	-2.981100	3.599300	-10.728000	25.046044	0.000920	20.844955
1151.287236	-3.005200	3.599500	-10.817000	25.039430	0.000919	20.837841
1152.283119	-2.972200	3.601400	-10.703000	25.057481	0.000917	20.836520
1153.290236	-2.988500	3.600700	-10.760000	25.054671	0.000919	20.846028
1154.288652	-2.984600	3.598700	-10.739000	25.090146	0.000915	20.847973
1155.284394	-2.991600	3.598800	-10.766000	25.111898	0.000919	20.842309
1156.290629	-2.983300	3.598700	-10.735000	25.113092	0.000914	20.830231
1157.287687	-3.016800	3.597700	-10.853000	25.132210	0.000917	20.835198
1158.286776	-3.014600	3.597500	-10.844000	25.135689	0.000917	20.829208
1159.288674	-3.014300	3.598600	-10.844000	25.144091	0.000916	20.831005
1160.286351	-3.012100	3.597000	-10.833000	25.147148	0.000915	20.845927
1161.293380	-3.017600	3.597400	-10.854000	25.127460	0.000916	20.837542
1162.288110	-2.988100	3.598300	-10.751000	25.074086	0.000917	20.843232
1163.291179	-2.999800	3.597200	-10.789000	25.053725	0.000914	20.832751
1164.294267	-2.999500	3.594700	-10.780000	25.027473	0.000913	20.851917
1165.290208	-3.007900	3.595200	-10.813000	25.055217	0.000913	20.841360
1166.297134	-3.003400	3.595200	-10.797000	25.083061	0.000913	20.819051
1167.293895	-2.985300	3.596300	-10.735000	25.098649	0.000914	20.816682
1168.290382	-3.006300	3.595500	-10.808000	25.150133	0.000910	20.839914
1169.290836	-2.992400	3.594700	-10.756000	25.148815	0.000911	20.840015
1170.294254	-3.012500	3.594300	-10.826000	25.164824	0.000914	20.835697
1171.292910	-3.006700	3.593600	-10.804000	25.106108	0.000913	20.839816
1172.292186	-2.984700	3.594600	-10.729000	25.103298	0.000911	20.847426
1173.294640	-2.987600	3.594200	-10.737000	25.068818	0.000911	20.851694
1174.291669	-3.008000	3.593000	-10.805000	25.092510	0.000910	20.845131
1175.296889	-3.004400	3.593000	-10.794000	25.109366	0.000908	20.826017
1176.294899	-3.008900	3.590900	-10.803000	25.114487	0.000909	20.811244
1177.292542	-2.992300	3.593300	-10.751000	25.084357	0.000909	20.842163
1178.291635	-2.998900	3.592000	-10.772000	25.058752	0.000908	20.839694
1179.292522	-3.020300	3.589900	-10.841000	25.060119	0.000905	20.836325
1180.293839	-2.998900	3.591700	-10.770000	25.022728	0.000906	20.825818
1181.293588	-3.016200	3.590300	-10.827000	25.024047	0.000907	20.811021
1182.295856	-3.002000	3.591100	-10.780000	25.023450	0.000906	20.821801
1183.295991	-2.968600	3.591100	-10.659000	25.050599	0.000905	20.837199
1184.295421	-2.981900	3.590200	-10.703000	25.090973	0.000903	20.820355
1185.295297	-3.002700	3.590000	-10.778000	25.086597	0.000905	20.814066
1186.301569	-2.992200	3.589000	-10.736000	25.126050	0.000903	20.824274
1187.296253	-3.010900	3.588500	-10.803000	25.155259	0.000901	20.805233
1188.296018	-2.994700	3.590600	-10.751000	25.172536	0.000904	20.828267
1189.296265	-2.991800	3.589100	-10.737000	25.151084	0.000905	20.836129
1190.297304	-3.006000	3.587600	-10.784000	25.127818	0.000900	20.798547
1191.299707	-2.996700	3.588300	-10.752000	25.104996	0.000901	20.814992
1192.300006	-3.026400	3.587900	-10.857000	25.080832	0.000902	20.813969
1193.297636	-3.015200	3.586700	-10.813000	25.083518	0.000900	20.832786
1194.300231	-3.010700	3.587500	-10.800000	25.084288	0.000900	20.826921
1195.297860	-3.003300	3.585500	-10.767000	25.106141	0.000898	20.828943
1196.300140	-3.016100	3.585400	-10.812000	25.130279	0.000897	20.822829
1197.302438	-3.025400	3.584800	-10.844000	25.160484	0.000898	20.817590
1198.305949	-2.973700	3.587500	-10.666000	25.131847	0.000899	20.813498
1199.309518	-2.987300	3.585200	-10.709000	25.136993	0.000897	20.821034
1200.301517	-2.993200	3.585800	-10.732000	25.140946	0.000897	20.807933
1201.304163	-2.995400	3.585500	-10.740000	25.124390	0.000897	20.806486
1202.301816	-2.971500	3.584500	-10.649000	25.129610	0.000896	20.822158
1203.303175	-2.996100	3.585200	-10.740000	25.147808	0.000896	20.811977
1204.304546	-3.011500	3.584400	-10.792000	25.174207	0.000895	20.805289
1205.304875	-3.001200	3.584300	-10.756000	25.174605	0.000895	20.803317
1206.304421	-3.009600	3.583800	-10.785000	25.167645	0.000894	20.794433
1207.306495	-3.010800	3.583100	-10.788000	25.157776	0.000893	20.803018
1208.305837	-3.014000	3.583700	-10.800000	25.151513	0.000894	20.795782
1209.306618	-3.011600	3.582700	-10.788000	25.149770	0.000891	20.804938
1210.309700	-3.007800	3.582200	-10.773000	25.120463	0.000891	20.805389
1211.308311	-3.002200	3.581700	-10.752000	25.094832	0.000891	20.803841
1212.308589	-3.003300	3.582700	-10.758000	25.079891	0.000890	20.799748
1213.305271	-2.985100	3.581200	-10.689000	25.043767	0.000892	20.808531
1214.306333	-3.001400	3.582300	-10.750000	25.071488	0.000890	20.814072
1215.310421	-3.008800	3.580200	-10.771000	25.106790	0.000890	20.808733
1216.310278	-3.018200	3.578300	-10.799000	25.148353	0.000889	20.798774
1217.314901	-3.009000	3.580300	-10.772000	25.189494	0.000889	20.803092
1218.307916	-2.998400	3.579800	-10.733000	25.230509	0.000889	20.804915
1219.309752	-3.028500	3.578400	-10.836000	25.228743	0.000889	20.808831
1220.311172	-3.013200	3.578600	-10.782000	25.249821	0.000887	20.802492
1221.309087	-2.984700	3.580300	-10.685000	25.261453	0.000886	20.800420
1222.314075	-2.995600	3.578200	-10.718000	25.259563	0.000884	20.811799
1223.313471	-3.010600	3.579700	-10.775000	25.221979	0.000884	20.805833
1224.310742	-2.996400	3.578400	-10.721000	25.234830	0.000884	20.808778
1225.310800	-2.993900	3.576800	-10.707000	25.229013	0.000885	20.781127
1226.313078	-2.989400	3.578100	-10.696000	25.213277	0.000885	20.780976
1227.313297	-3.011800	3.576900	-10.772000	25.174525	0.000881	20.794229
1228.313497	-3.014100	3.575100	-10.775000	25.203384	0.000881	20.813243
1229.314792	-2.990500	3.576900	-10.694000	25.162093	0.000881	20.798817
1230.314175	-3.003900	3.575300	-10.739000	25.123363	0.000881	20.803559
1231.313476	-3.017700	3.576300	-10.791000	25.077918	0.000880	20.808673
1232.315040	-2.983000	3.576000	-10.666000	25.072274	0.000880	20.794947
1233.314386	-3.017900	3.574400	-10.786000	25.080326	0.000881	20.795444
1234.312141	-3.004900	3.574700	-10.740000	25.114734	0.000878	20.779723
1235.313476	-2.998600	3.575700	-10.720000	25.156544	0.000876	20.788979
1236.312218	-2.992700	3.574400	-10.696000	25.160720	0.000876	20.787956
1237.315270	-3.005300	3.574300	-10.741000	25.177249	0.000877	20.788903
1238.315548	-2.983100	3.575700	-10.665000	25.214857	0.000877	20.782088
1239.317128	-3.009000	3.572900	-10.750000	25.249034	0.000876	20.791745
1240.315223	-3.013100	3.572200	-10.763000	25.290643	0.000876	20.787053
1241.316981	-2.994000	3.572800	-10.696000	25.289945	0.000877	20.795361
1242.316804	-3.004900	3.572400	-10.733000	25.302423	0.000875	20.803622
1243.316581	-3.010000	3.573300	-10.755000	25.277018	0.000872	20.782383
1244.317628	-3.005300	3.571700	-10.733000	25.290514	0.000874	20.780760
1245.319689	-3.009200	3.571000	-10.745000	25.289270	0.000873	20.801797
1246.320076	-2.994200	3.570400	-10.688000	25.314024	0.000873	20.789192
1247.318515	-2.998400	3.570000	-10.703000	25.342854	0.000872	20.786845
1248.316117	-2.975700	3.572700	-10.630000	25.368676	0.000872	20.778634
1249.319705	-2.997900	3.571200	-10.705000	25.398275	0.000873	20.796500
1250.321610	-2.984500	3.571100	-10.657000	25.384156	0.000868	20.819781
1251.318618	-2.984900	3.570300	-10.656000	25.391364	0.000869	20.774387
1252.321308	-3.007000	3.570400	-10.735000	25.407293	0.000868	20.786115
1253.318120	-3.005600	3.568300	-10.724000	25.413355	0.000870	20.790780
1254.318074	-2.980500	3.569800	-10.637000	25.393545	0.000868	20.792225
1255.323260	-3.005600	3.570000	-10.728000	25.410742	0.000870	20.779147
1256.319283	-3.004400	3.567500	-10.717000	25.355492	0.000868	20.781991
1257.319812	-3.008400	3.567100	-10.728000	25.315424	0.000867	20.775899
1258.318637	-2.981900	3.567700	-10.636000	25.308961	0.000867	20.781264
1259.318863	-2.976900	3.568100	-10.621000	25.331875	0.000866	20.771554
1260.319566	-3.001800	3.567400	-10.707000	25.325336	0.000864	20.778739
1261.323593	-2.998900	3.566300	-10.694000	25.354414	0.000864	20.779486
1262.320621	-2.972700	3.566700	-10.601000	25.363335	0.000867	20.780383
1263.321873	-3.002700	3.565400	-10.704000	25.368851	0.000864	20.770748
1264.321950	-2.989300	3.565500	-10.658000	25.338205	0.000865	20.773642
1265.325205	-2.998800	3.564900	-10.689000	25.323513	0.000864	20.778805
1266.323620	-2.996800	3.565800	-10.685000	25.333977	0.000862	20.773664
1267.322123	-2.989100	3.565000	-10.655000	25.359623	0.000862	20.783294
1268.323609	-3.001300	3.564800	-10.698000	25.342748	0.000861	20.796221
1269.322037	-2.976400	3.563700	-10.606000	25.383258	0.000862	20.779998
1270.322610	-2.983900	3.563500	-10.632000	25.407936	0.000860	20.776329
1271.323417	-2.996600	3.563300	-10.677000	25.389045	0.000861	20.776801
1272.324372	-2.995600	3.562400	-10.671000	25.386436	0.000859	20.785561
1273.326947	-3.002600	3.562800	-10.697000	25.402390	0.000860	20.779770
1274.325139	-3.002500	3.561900	-10.693000	25.372019	0.000861	20.780568
1275.326009	-2.971500	3.562600	-10.585000	25.390807	0.000861	20.778096
1276.328707	-2.983100	3.562600	-10.626000	25.373509	0.000862	20.767365
1277.325367	-3.019400	3.560000	-10.748000	25.378628	0.000856	20.764918
1278.325907	-3.013100	3.560400	-10.727000	25.380591	0.000860	20.785856
1279.325604	-3.027800	3.559500	-10.777000	25.398087	0.000857	20.775923
1280.328700	-3.002500	3.560200	-10.688000	25.390581	0.000857	20.762696
1281.330120	-2.997200	3.560300	-10.671000	25.409097	0.000856	20.784608
1282.327568	-3.032700	3.558400	-10.790000	25.402038	0.000857	20.756181
1283.327757	-2.986400	3.560400	-10.632000	25.424156	0.000855	20.796410
1284.328087	-3.016500	3.558200	-10.732000	25.411656	0.000855	20.783858
1285.329094	-3.021300	3.559000	-10.752000	25.438024	0.000856	20.784257
1286.332250	-3.007800	3.559100	-10.705000	25.422242	0.000854	20.790695
1287.328739	-3.016100	3.557400	-10.729000	25.419858	0.000854	20.767438
1288.330443	-3.002400	3.558400	-10.682000	25.407232	0.000856	20.779416
1289.329031	-2.973800	3.558700	-10.580000	25.356582	0.000852	20.782611
1290.328927	-2.990300	3.558500	-10.640000	25.374079	0.000854	20.792119
1291.330350	-3.003800	3.556200	-10.681000	25.349523	0.000851	20.773627
1292.330593	-3.001900	3.555600	-10.673000	25.352556	0.000850	20.784258
1293.331196	-3.002900	3.556200	-10.678000	25.351686	0.000851	20.766790
1294.331560	-2.997700	3.556200	-10.659000	25.368114	0.000851	20.779492
1295.332029	-2.981000	3.556200	-10.599000	25.357378	0.000851	20.784359
1296.333641	-2.979300	3.555800	-10.593000	25.306005	0.000849	20.784934
1297.332241	-3.007600	3.555100	-10.690000	25.287837	0.000849	20.769063
1298.334859	-2.983500	3.554200	-10.603000	25.323031	0.000847	20.797287
1299.332021	-2.981700	3.554500	-10.597000	25.332974	0.000850	20.805848
1300.331462	-2.999900	3.552700	-10.656000	25.320224	0.000846	20.771235
1301.335118	-2.971800	3.554600	-10.562000	25.278914	0.000847	20.776699
1302.336527	-3.013900	3.551800	-10.703000	25.292040	0.000846	20.813586
1303.332322	-2.996000	3.554200	-10.648000	25.302231	0.000848	20.798214
1304.333693	-3.024000	3.551900	-10.740000	25.373686	0.000846	20.785087
1305.333613	-2.983000	3.553500	-10.598000	25.376670	0.000847	20.796618
1306.334329	-2.992900	3.551800	-10.629000	25.367525	0.000842	20.784116
1307.336898	-3.025900	3.550300	-10.740000	25.403067	0.000844	20.801312
1308.332979	-3.015500	3.550900	-10.707000	25.429335	0.000844	20.801611
1309.337219	-3.002800	3.551400	-10.662000	25.470168	0.000847	20.809898
1310.333308	-3.001300	3.551900	-10.660000	25.456549	0.000844	20.791005
1311.333244	-3.020200	3.549800	-10.720000	25.489254	0.000844	20.811994
1312.338967	-3.009300	3.550100	-10.683000	25.480532	0.000841	20.796598
1313.335556	-2.997300	3.550100	-10.639000	25.469772	0.000842	20.801913
1314.334999	-3.017600	3.549200	-10.709000	25.470842	0.000842	20.785444
1315.335550	-2.986600	3.550000	-10.601000	25.469924	0.000843	20.800170
1316.335159	-3.027600	3.549300	-10.745000	25.465029	0.000840	20.799522
1317.335401	-2.999100	3.548900	-10.643000	25.442615	0.000839	20.804989
1318.340063	-3.014500	3.547500	-10.691000	25.403398	0.000840	20.799274
1319.335657	-3.003700	3.547300	-10.654000	25.381753	0.000841	20.799824
1320.337081	-3.014100	3.546800	-10.690000	25.401858	0.000842	20.813375
1321.339472	-3.027700	3.547900	-10.740000	25.407972	0.000839	20.812401
1322.336886	-3.015900	3.546600	-10.696000	25.427857	0.000837	20.803445
1323.339471	-2.991800	3.547900	-10.612000	25.443216	0.000838	20.808437
1324.336924	-3.011900	3.546300	-10.680000	25.444657	0.000838	20.815574
1325.340198	-3.013700	3.545000	-10.683000	25.435587	0.000838	20.801725
1326.337337	-3.021000	3.545000	-10.708000	25.435737	0.000836	20.819893
1327.338155	-3.024500	3.545200	-10.720000	25.434869	0.000837	20.844150
1328.340027	-3.005800	3.545100	-10.655000	25.415683	0.000835	20.823463
1329.343380	-3.014900	3.545700	-10.689000	25.433553	0.000834	20.808217
1330.337784	-2.999600	3.545700	-10.635000	25.473888	0.000833	20.816003
1331.337497	-2.995200	3.545200	-10.617000	25.504181	0.000832	20.824139
1332.337950	-3.001900	3.543300	-10.636000	25.498889	0.000834	20.827833
1333.338211	-3.000900	3.543700	-10.633000	25.492603	0.000831	20.801606
1334.340400	-3.017400	3.542800	-10.689000	25.501673	0.000833	20.827784
1335.337754	-2.992100	3.542800	-10.599000	25.508061	0.000829	20.818552
1336.343325	-3.006600	3.542100	-10.648000	25.506669	0.000830	20.831379
1337.337836	-2.979700	3.542900	-10.555000	25.485323	0.000829	20.812788
1338.338764	-2.977600	3.543000	-10.549000	25.449363	0.000828	20.835946
1339.338032	-3.005500	3.542300	-10.646000	25.487385	0.000828	20.804428
1340.337279	-2.982900	3.544300	-10.570000	25.489126	0.000830	20.824667
1341.338464	-2.989400	3.541800	-10.586000	25.483410	0.000828	20.828884
1342.340404	-3.008800	3.540900	-10.653000	25.417876	0.000828	20.811441
1343.340049	-3.005500	3.541200	-10.642000	25.387432	0.000827	20.840140
1344.340325	-2.988800	3.540300	-10.580000	25.371725	0.000827	20.829109
1345.345220	-3.010400	3.539200	-10.653000	25.354700	0.000826	20.840464
1346.341181	-3.033400	3.539200	-10.734000	25.349803	0.000825	20.817056
1347.342671	-2.997900	3.539000	-10.609000	25.339091	0.000825	20.828585
1348.343020	-2.990700	3.539600	-10.585000	25.345952	0.000822	20.825517
1349.343448	-2.985100	3.538900	-10.562000	25.343988	0.000823	20.843933
1350.345797	-3.002500	3.538100	-10.622000	25.324826	0.000825	20.851719
1351.345855	-3.014900	3.539000	-10.669000	25.304991	0.000823	20.823270
1352.345899	-2.977300	3.539100	-10.536000	25.322092	0.000823	20.823845
1353.345317	-3.013400	3.536900	-10.656000	25.342472	0.000821	20.846203
1354.342603	-3.006200	3.537600	-10.634000	25.354104	0.000820	20.829435
1355.343235	-3.016200	3.536900	-10.667000	25.377491	0.000821	20.841537
1356.343132	-3.011700	3.537300	-10.652000	25.385917	0.000820	20.840989
1357.343806	-2.996700	3.535500	-10.594000	25.389173	0.000820	20.820551
1358.344347	-2.991500	3.535900	-10.576000	25.394342	0.000819	20.827638
1359.343680	-3.000600	3.536600	-10.611000	25.395710	0.000820	20.820003
1360.358853	-3.007300	3.535300	-10.631000	25.385272	0.000819	20.829910
1361.346558	-3.008100	3.533700	-10.628000	25.355821	0.000818	20.832581
1362.350450	-3.038800	3.535100	-10.741000	25.369739	0.000818	20.841814
1363.346302	-2.996700	3.534300	-10.589000	25.367925	0.000817	20.844260
1364.344318	-2.994200	3.534100	-10.581000	25.398545	0.000818	20.832807
1365.345368	-2.978600	3.533600	-10.524000	25.357885	0.000814	20.842713
1366.349540	-2.975700	3.534800	-10.518000	25.371828	0.000816	20.844860
1367.347020	-2.989300	3.532900	-10.558000	25.387090	0.000817	20.845012
1368.345995	-3.000600	3.532700	-10.598000	25.376105	0.000813	20.833033
1369.348558	-2.994500	3.532000	-10.574000	25.370513	0.000812	20.834057
1370.345845	-3.002100	3.530700	-10.599000	25.374390	0.000814	20.838424
1371.351950	-3.009800	3.531400	-10.628000	25.401108	0.000811	20.836803
1372.348292	-2.992500	3.531300	-10.566000	25.373622	0.000812	20.842868
1373.353084	-2.983600	3.531000	-10.533000	25.388532	0.000812	20.839347
1374.349164	-3.005000	3.530700	-10.609000	25.347325	0.000811	20.876679
1375.349489	-3.003900	3.529400	-10.600000	25.336763	0.000812	20.880299
1376.353084	-3.003600	3.530000	-10.602000	25.346605	0.000810	20.843716
1377.349134	-3.006700	3.530200	-10.613000	25.309249	0.000812	20.846985
1378.349528	-2.984400	3.531100	-10.537000	25.330376	0.000809	20.856344
1379.350032	-3.026700	3.528500	-10.678000	25.350087	0.000809	20.853375
1380.351410	-3.013200	3.529000	-10.633000	25.359455	0.000811	20.841919
1381.351102	-3.010300	3.529300	-10.624000	25.345438	0.000809	20.854397
1382.353590	-3.013900	3.528100	-10.632000	25.364301	0.000807	20.858164
1383.351540	-3.006800	3.527700	-10.606000	25.381177	0.000807	20.851402
1384.352870	-2.999900	3.526800	-10.579000	25.400164	0.000804	20.838225
1385.353476	-2.987800	3.529200	-10.544000	25.422259	0.000807	20.854247
1386.355169	-3.000200	3.527500	-10.582000	25.435131	0.000805	20.851052
1387.357574	-2.999800	3.526300	-10.576000	25.449719	0.000805	20.872337
1388.355537	-2.992800	3.526600	-10.553000	25.445122	0.000802	20.857290
1389.356710	-2.996700	3.526300	-10.566000	25.439853	0.000803	20.856267
1390.355349	-3.020900	3.525400	-10.648000	25.445620	0.000804	20.861110
1391.353889	-2.984300	3.527000	-10.524000	25.462170	0.000804	20.849280
1392.362393	-3.024500	3.524500	-10.659000	25.431701	0.000801	20.880796
1393.357825	-3.007000	3.525100	-10.598000	25.431104	0.000801	20.874508
1394.356060	-3.012600	3.523500	-10.613000	25.417834	0.000799	20.882519
1395.356307	-2.991200	3.523500	-10.537000	25.392956	0.000800	20.875082
1396.355320	-3.026100	3.523100	-10.659000	25.393900	0.000801	20.856591
1397.355629	-2.998800	3.523500	-10.566000	25.346878	0.000798	20.889506
1398.358720	-2.979300	3.522500	-10.493000	25.338253	0.000798	20.859985
1399.355200	-2.991600	3.523200	-10.539000	25.376454	0.000801	20.867995
1400.361092	-2.997200	3.524600	-10.562000	25.382792	0.000799	20.877204
1401.357430	-2.996600	3.522500	-10.555000	25.414877	0.000800	20.875756
1402.357822	-3.016900	3.522100	-10.625000	25.440623	0.000797	20.886436
1403.357544	-3.025700	3.521400	-10.654000	25.440748	0.000796	20.875656
1404.357877	-3.011000	3.521400	-10.602000	25.471042	0.000795	20.875731
1405.357475	-3.002700	3.522500	-10.574000	25.488363	0.000796	20.886960
1406.359371	-3.003600	3.520600	-10.573000	25.519377	0.000796	20.865476
1407.360545	-2.999000	3.518700	-10.552000	25.539879	0.000794	20.852874
1408.361083	-2.995900	3.520600	-10.546000	25.537343	0.000796	20.873561
1409.358943	-2.975500	3.519500	-10.470000	25.554414	0.000793	20.879798
1410.359109	-3.014100	3.517700	-10.601000	25.555607	0.000796	20.899013
1411.363795	-2.993700	3.518000	-10.531000	25.579289	0.000793	20.863055
1412.358376	-3.010500	3.518600	-10.592000	25.588582	0.000793	20.878077
1413.363319	-3.021600	3.519000	-10.632000	25.594420	0.000791	20.897215
1414.363850	-2.995700	3.517100	-10.534000	25.610497	0.000790	20.874009
1415.360857	-3.020700	3.518300	-10.626000	25.601527	0.000792	20.883491
1416.361105	-3.007700	3.517800	-10.580000	25.606969	0.000791	20.869518
1417.367815	-3.001300	3.517100	-10.555000	25.577176	0.000791	20.865675
1418.361860	-3.031900	3.515800	-10.658000	25.541320	0.000789	20.899837
1419.360249	-3.014800	3.514900	-10.596000	25.522507	0.000789	20.889955
1420.359545	-3.010600	3.516100	-10.585000	25.513585	0.000787	20.905175
1421.361986	-2.988500	3.514500	-10.502000	25.525887	0.000788	20.857790
1422.360290	-2.989900	3.515800	-10.511000	25.554490	0.000788	20.893150
1423.360048	-2.979500	3.516000	-10.474000	25.580904	0.000789	20.888384
1424.362887	-2.989300	3.515800	-10.509000	25.584583	0.000788	20.898241
1425.361890	-2.984500	3.515400	-10.490000	25.592782	0.000786	20.880399
1426.364586	-3.017500	3.513400	-10.600000	25.610450	0.000784	20.883918
1427.361530	-3.004500	3.513500	-10.556000	25.626153	0.000785	20.866973
1428.362685	-3.031000	3.512300	-10.644000	25.581700	0.000784	20.891080
1429.365691	-2.988100	3.511800	-10.492000	25.583489	0.000782	20.899514
1430.363553	-2.988700	3.513100	-10.499000	25.578023	0.000783	20.903033
1431.363571	-2.996000	3.512800	-10.523000	25.586049	0.000783	20.890706
1432.364979	-3.001800	3.511900	-10.540000	25.585454	0.000783	20.897219
1433.364982	-3.011700	3.508900	-10.566000	25.577353	0.000783	20.913738
1434.365254	-2.986300	3.511300	-10.485000	25.527754	0.000781	20.906127
1435.368098	-2.987700	3.511300	-10.489000	25.516670	0.000779	20.915858
1436.365098	-2.991700	3.510300	-10.500000	25.515205	0.000782	20.912965
1437.364403	-2.998700	3.509500	-10.523000	25.504221	0.000783	20.892927
1438.364721	-2.994200	3.510400	-10.510000	25.484315	0.000780	20.910394
1439.365280	-3.006700	3.510100	-10.552000	25.490703	0.000781	20.909222
1440.370447	-3.000900	3.509300	-10.531000	25.498083	0.000779	20.892927
1441.365671	-2.981300	3.509200	-10.460000	25.532028	0.000781	20.906627
1442.368095	-2.993600	3.507600	-10.499000	25.558815	0.000779	20.901760
1443.367105	-2.995600	3.508000	-10.507000	25.584111	0.000776	20.905353
1444.366457	-3.005100	3.508100	-10.541000	25.594498	0.000780	20.905827
1445.369001	-3.002200	3.506800	-10.526000	25.629657	0.000777	20.922171
1446.368004	-3.014500	3.507400	-10.571000	25.639521	0.000777	20.904579
1447.369003	-2.992900	3.507400	-10.496000	25.644664	0.000774	20.913537
1448.368003	-2.996500	3.505500	-10.503000	25.666304	0.000776	20.906823
1449.368001	-2.987200	3.506500	-10.473000	25.670058	0.000775	20.893050
1450.368004	-3.022200	3.504900	-10.592000	25.682879	0.000775	20.914934
1451.371003	-3.021000	3.504300	-10.586000	25.664044	0.000776	20.907871
1452.368004	-2.996800	3.502900	-10.497000	25.669163	0.000775	20.915383
1453.371003	-2.999700	3.505100	-10.513000	25.631246	0.000773	20.909544
1454.370003	-2.992600	3.503800	-10.485000	25.624437	0.000774	20.909817
1455.371004	-3.022400	3.502200	-10.584000	25.586643	0.000773	20.917852
1456.374002	-2.990200	3.504900	-10.479000	25.557942	0.000774	20.907521
1457.370004	-2.977700	3.504500	-10.433000	25.546833	0.000771	20.915804
1458.374005	-2.987800	3.504000	-10.468000	25.522481	0.000772	20.919797
1459.372006	-3.000100	3.502800	-10.507000	25.539206	0.000771	20.893447
1460.371005	-2.984800	3.503500	-10.457000	25.546014	0.000771	20.924937
1461.372002	-2.971000	3.503200	-10.407000	25.567881	0.000772	20.918924
1462.374003	-2.980000	3.501000	-10.432000	25.535429	0.000770	20.921420
1463.374002	-3.014100	3.502600	-10.554000	25.549591	0.000770	20.936116
1464.372006	-3.004600	3.499900	-10.515000	25.515647	0.000770	20.912935
1465.373004	-2.971100	3.502300	-10.404000	25.504440	0.000767	20.930602
1466.372003	-2.980900	3.500500	-10.434000	25.534883	0.000768	20.910916
1467.376003	-2.987500	3.499400	-10.452000	25.556302	0.000768	20.921994
1468.373003	-3.017800	3.498900	-10.558000	25.571858	0.000769	20.931451
1469.378002	-3.002500	3.498400	-10.503000	25.589079	0.000768	20.958225
1470.386005	-2.989200	3.501000	-10.464000	25.609629	0.000768	20.919600
1471.374003	-2.997700	3.499200	-10.488000	25.599914	0.000766	20.929282
1472.377003	-2.985900	3.499700	-10.448000	25.600760	0.000766	20.913538
1473.375002	-3.008500	3.497500	-10.521000	25.577428	0.000766	20.939415
1474.377003	-3.024900	3.496500	-10.576000	25.562493	0.000763	20.935796
1475.377003	-2.999300	3.498100	-10.491000	25.562320	0.000767	20.920451
1476.376003	-3.024000	3.496600	-10.572000	25.577750	0.000767	20.945902
1477.377003	-2.974400	3.498300	-10.404000	25.596836	0.000764	20.936622
1478.381004	-3.018700	3.496200	-10.553000	25.636319	0.000764	20.916534
1479.377161	-3.004000	3.495700	-10.500000	25.637836	0.000763	20.933703
1480.377162	-2.986000	3.496100	-10.438000	25.634756	0.000758	20.923972
1481.378161	-3.000300	3.495700	-10.486000	25.589433	0.000763	20.940566
1482.383162	-3.011900	3.495200	-10.527000	25.554273	0.000759	20.930386
1483.381164	-3.009000	3.494800	-10.515000	25.539064	0.000758	20.934079
1484.379159	-3.007800	3.493800	-10.508000	25.540755	0.000761	20.936250
1485.381160	-2.993100	3.493800	-10.455000	25.545327	0.000761	20.954116
1486.379159	-3.006100	3.493100	-10.499000	25.567444	0.000755	20.946457
1487.380870	-2.979200	3.495000	-10.411000	25.561256	0.000758	20.940243
1488.380796	-2.999900	3.492900	-10.478000	25.569904	0.000758	20.937075
1489.382708	-3.001700	3.492200	-10.482000	25.563519	0.000755	20.949626
1490.381491	-3.015300	3.491400	-10.527000	25.575916	0.000756	20.956386
1491.382416	-3.015000	3.491500	-10.526000	25.582552	0.000758	20.943138
1492.385257	-3.004000	3.490800	-10.485000	25.570947	0.000754	20.945233
1493.382252	-2.992500	3.491000	-10.445000	25.562920	0.000755	20.954241
1494.382960	-2.981800	3.492000	-10.412000	25.568114	0.000753	20.935277
1495.384062	-2.983100	3.491500	-10.415000	25.600814	0.000753	20.942512
1496.385865	-2.988800	3.490900	-10.433000	25.611946	0.000755	20.940417
1497.383723	-3.002400	3.490300	-10.478000	25.634854	0.000754	20.927864
1498.388222	-2.975900	3.491000	-10.388000	25.663279	0.000753	20.926068
1499.389255	-3.002400	3.489000	-10.474000	25.625809	0.000753	20.921151
1500.386753	-3.002600	3.488000	-10.471000	25.631325	0.000751	20.936647
1501.385199	-2.970100	3.490500	-10.365000	25.665314	0.000752	20.935697
1502.385089	-3.023500	3.487500	-10.544000	25.710113	0.000751	20.924270
1503.387203	-2.977400	3.488000	-10.384000	25.696051	0.000750	20.923896
1504.386332	-2.992500	3.486800	-10.434000	25.672171	0.000752	20.942583
1505.390718	-2.995000	3.487500	-10.443000	25.697963	0.000750	20.926290
1506.387703	-2.997500	3.487100	-10.451000	25.716324	0.000749	20.941885
1507.388412	-2.982500	3.487900	-10.401000	25.708224	0.000749	20.927113
1508.388169	-2.994600	3.486500	-10.439000	25.689590	0.000748	20.908399
1509.387267	-2.986200	3.486000	-10.409000	25.667625	0.000746	20.904830
1510.391009	-3.002600	3.484200	-10.461000	25.654157	0.000750	20.923544
1511.387732	-2.990500	3.484100	-10.418000	25.606598	0.000746	20.910393
1512.387547	-3.008200	3.483700	-10.479000	25.590621	0.000746	20.908572
1513.387694	-3.011400	3.482900	-10.487000	25.560653	0.000746	20.912613
1514.389906	-2.993200	3.484800	-10.429000	25.507947	0.000747	20.927486
1515.390218	-3.002800	3.482700	-10.457000	25.492986	0.000745	20.907248
1516.390468	-2.994100	3.482900	-10.427000	25.484362	0.000744	20.918027
1517.390172	-3.021000	3.480400	-10.514000	25.487915	0.000744	20.911165
1518.389866	-2.989400	3.482900	-10.411000	25.504365	0.000745	20.915355
1519.390550	-2.997700	3.482200	-10.437000	25.492611	0.000745	20.908768
1520.390515	-2.995300	3.481400	-10.427000	25.495294	0.000743	20.904825
1521.389557	-3.010600	3.479000	-10.473000	25.513956	0.000741	20.902703
1522.389458	-3.021600	3.477900	-10.508000	25.552448	0.000740	20.903900
1523.392581	-3.016700	3.480900	-10.498000	25.589050	0.000743	20.907468
1524.390215	-2.981800	3.479100	-10.374000	25.611038	0.000743	20.900155
1525.392312	-2.988600	3.479700	-10.399000	25.628308	0.000740	20.888577
1526.394060	-3.033000	3.477100	-10.544000	25.616430	0.000736	20.899879
1527.392771	-3.020000	3.477300	-10.500000	25.600079	0.000739	20.884882
1528.390460	-2.995500	3.478500	-10.418000	25.616131	0.000739	20.899579
1529.390984	-3.000200	3.478600	-10.436000	25.612253	0.000739	20.892366
1530.398715	-3.028900	3.476700	-10.529000	25.614439	0.000739	20.889346
1531.397234	-3.015800	3.477100	-10.484000	25.643012	0.000735	20.914247
1532.395180	-2.978700	3.478000	-10.359000	25.626836	0.000737	20.888994
1533.395125	-2.990200	3.477700	-10.398000	25.614733	0.000739	20.896753
1534.394709	-3.000700	3.477200	-10.433000	25.594034	0.000739	20.893509
1535.394489	-2.988200	3.476100	-10.386000	25.577136	0.000735	20.894082
1536.396911	-3.001700	3.474100	-10.428000	25.542794	0.000734	20.868129
1537.396307	-3.023200	3.475900	-10.506000	25.509346	0.000736	20.895703
1538.395819	-3.014400	3.473700	-10.470000	25.507032	0.000736	20.884372
1539.396299	-3.005700	3.475000	-10.444000	25.524527	0.000734	20.881552
1540.397982	-3.018800	3.472800	-10.482000	25.558869	0.000738	20.880953
1541.406079	-2.993200	3.474800	-10.400000	25.576437	0.000734	20.883424
1542.399158	-3.012400	3.473900	-10.463000	25.573577	0.000735	20.883396
1543.398293	-3.000000	3.473000	-10.418000	25.580163	0.000731	20.876260
1544.401858	-2.977100	3.472700	-10.337000	25.615123	0.000732	20.872017
1545.401631	-3.014900	3.470900	-10.461000	25.614900	0.000733	20.875586
1546.399366	-2.988700	3.472300	-10.377000	25.640966	0.000731	20.869049
1547.404102	-2.996800	3.472400	-10.405000	25.646655	0.000729	20.896097
1548.401464	-2.997900	3.471100	-10.405000	25.649710	0.000731	20.864555
1549.402879	-2.978000	3.471700	-10.337000	25.631348	0.000729	20.881673
1550.401927	-2.997600	3.471900	-10.406000	25.593183	0.000731	20.873690
1551.401427	-2.994800	3.471400	-10.396000	25.618975	0.000730	20.848860
1552.405889	-2.997500	3.469300	-10.398000	25.619075	0.000730	20.864132
1553.407170	-2.981800	3.471800	-10.350000	25.626504	0.000729	20.870645
1554.403087	-3.012600	3.469300	-10.451000	25.651999	0.000726	20.884396
1555.407265	-3.016000	3.469200	-10.462000	25.671205	0.000728	20.874763
1556.403990	-3.002700	3.469500	-10.417000	25.661166	0.000730	20.890758
1557.402846	-2.998800	3.469200	-10.401000	25.673168	0.000728	20.866778
1558.408091	-3.003600	3.467900	-10.415000	25.668051	0.000726	20.859268
1559.407719	-2.977100	3.468100	-10.324000	25.729618	0.000726	20.873217
1560.406343	-2.991400	3.467400	-10.371000	25.750166	0.000724	20.873467
1561.404706	-3.004400	3.466300	-10.413000	25.698091	0.000726	20.864784
1562.409401	-3.012700	3.465400	-10.439000	25.693967	0.000725	20.873443
1563.406890	-2.995600	3.465400	-10.380000	25.692575	0.000726	20.862564
1564.405436	-3.018500	3.463700	-10.454000	25.681420	0.000723	20.866532
1565.414504	-3.007000	3.464800	-10.418000	25.699086	0.000725	20.859146
1566.406003	-3.000800	3.464900	-10.396000	25.671632	0.000723	20.860494
1567.406384	-3.001600	3.464500	-10.397000	25.632225	0.000723	20.895355
1568.407394	-2.979900	3.463500	-10.320000	25.581238	0.000722	20.865013
1569.411263	-2.980000	3.463800	-10.321000	25.548412	0.000720	20.865711
1570.409225	-3.012900	3.462900	-10.432000	25.505945	0.000722	20.862893
1571.408983	-2.986700	3.465200	-10.348000	25.502814	0.000722	20.856430
1572.409358	-3.017900	3.462600	-10.449000	25.504355	0.000722	20.857978
1573.409599	-3.025100	3.462100	-10.472000	25.536611	0.000720	20.875670
1574.417696	-2.995200	3.462000	-10.368000	25.542577	0.000718	20.869808
1575.412310	-2.975700	3.462800	-10.304000	25.549013	0.000719	20.855884
1576.411713	-2.990600	3.459900	-10.346000	25.567054	0.000717	20.865940
1577.413172	-2.994200	3.460900	-10.362000	25.586562	0.000717	20.857558
1578.413816	-2.989700	3.460400	-10.344000	25.633450	0.000721	20.872880
1579.413798	-3.018400	3.459800	-10.442000	25.663890	0.000718	20.863150
1580.417004	-3.012400	3.460600	-10.424000	25.709236	0.000716	20.864124
1581.415075	-3.007800	3.458800	-10.402000	25.739970	0.000716	20.876976
1582.412277	-3.025000	3.458500	-10.461000	25.755996	0.000717	20.882167
1583.412701	-3.013100	3.457700	-10.418000	25.750654	0.000715	20.861630
1584.412304	-3.009100	3.458400	-10.406000	25.747823	0.000713	20.845985
1585.414427	-2.990900	3.458100	-10.342000	25.709239	0.000715	20.854644
1586.416147	-2.990300	3.458600	-10.340000	25.705015	0.000716	20.852773
1587.415787	-3.006200	3.457900	-10.394000	25.717413	0.000715	20.865700
1588.414740	-3.004800	3.455800	-10.382000	25.699326	0.000711	20.842793
1589.426798	-2.995500	3.456600	-10.353000	25.687972	0.000711	20.853673
1590.416041	-3.007700	3.454200	-10.387000	25.690980	0.000713	20.850056
1591.420678	-2.987100	3.456200	-10.323000	25.695179	0.000712	20.852377
1592.414907	-3.012200	3.453200	-10.401000	25.745417	0.000709	20.872964
1593.413411	-2.992200	3.455700	-10.338000	25.721541	0.000710	20.856570
1594.418087	-3.020000	3.454800	-10.433000	25.690807	0.000713	20.861736
1595.416638	-3.012900	3.452700	-10.402000	25.653115	0.000709	20.856121
1596.416140	-3.015900	3.453100	-10.414000	25.667552	0.000709	20.846914
1597.416094	-3.019600	3.452600	-10.424000	25.695504	0.000708	20.852229
1598.415012	-2.995100	3.452800	-10.341000	25.721220	0.000707	20.856722
1599.416375	-3.002500	3.451400	-10.362000	25.725991	0.000709	20.850134
1600.420235	-2.989300	3.453300	-10.322000	25.693293	0.000708	20.876560
1601.415293	-3.003900	3.451400	-10.367000	25.658633	0.000707	20.872568
1602.417810	-2.988000	3.452600	-10.314000	25.652520	0.000709	20.862635
1603.415918	-2.982800	3.452800	-10.297000	25.621886	0.000709	20.849412
1604.417689	-2.985300	3.452300	-10.305000	25.612666	0.000708	20.848688
1605.420996	-3.011700	3.451400	-10.394000	25.570747	0.000704	20.846891
1606.417671	-2.994400	3.449700	-10.328000	25.537004	0.000707	20.840505
1607.422422	-3.019500	3.448400	-10.411000	25.561579	0.000707	20.867080
1608.421630	-2.982300	3.449100	-10.285000	25.564835	0.000706	20.854230
1609.418820	-3.012500	3.446900	-10.383000	25.590257	0.000704	20.866010
1610.418533	-2.997300	3.449200	-10.337000	25.633665	0.000706	20.851285
1611.419869	-2.996000	3.447800	-10.328000	25.619676	0.000705	20.840081
1612.419277	-3.005100	3.446600	-10.357000	25.618635	0.000703	20.847570
1613.419961	-2.970700	3.447400	-10.240000	25.588543	0.000704	20.856228
1614.425529	-2.979600	3.448600	-10.274000	25.554351	0.000700	20.835642
1615.421824	-2.989600	3.447900	-10.307000	25.507933	0.000701	20.846398
1616.422489	-3.003700	3.447400	-10.355000	25.488551	0.000698	20.863917
1617.421154	-2.993100	3.446300	-10.314000	25.503486	0.000701	20.834820
1618.423322	-2.996300	3.447100	-10.328000	25.487806	0.000696	20.858428
1619.421731	-2.994600	3.444500	-10.314000	25.505151	0.000696	20.847872
1620.421453	-2.996900	3.445900	-10.325000	25.508955	0.000698	20.853114
1621.423851	-3.025600	3.443000	-10.416000	25.516360	0.000699	20.853912
1622.422301	-3.029200	3.444500	-10.432000	25.482637	0.000699	20.863194
1623.427239	-3.005300	3.443900	-10.349000	25.466708	0.000695	20.843880
1624.422178	-2.986100	3.444200	-10.284000	25.506119	0.000696	20.845999
1625.422278	-3.025400	3.443100	-10.415000	25.542774	0.000696	20.858153
1626.428387	-2.992000	3.443100	-10.301000	25.524359	0.000696	20.859573
1627.424359	-3.053000	3.441900	-10.506000	25.507239	0.000694	20.840486
1628.423004	-3.004400	3.442100	-10.340000	25.503137	0.000695	20.849168
1629.423028	-2.984300	3.442800	-10.274000	25.526123	0.000693	20.859448
1630.423382	-2.998400	3.441600	-10.317000	25.533800	0.000694	20.845348
1631.426683	-2.981800	3.441500	-10.261000	25.570030	0.000693	20.832895
1632.429977	-2.994700	3.441700	-10.306000	25.632152	0.000694	20.845498
1633.424577	-3.034000	3.439700	-10.435000	25.624123	0.000691	20.824633
1634.425788	-2.992800	3.441500	-10.299000	25.637815	0.000690	20.827480
1635.425492	-3.005900	3.439100	-10.336000	25.674288	0.000690	20.817171
1636.429065	-2.970200	3.439700	-10.215000	25.668723	0.000691	20.841926
1637.429813	-3.021100	3.438400	-10.385000	25.696401	0.000690	20.828001
1638.426641	-2.982000	3.440100	-10.257000	25.697246	0.000689	20.817470
1639.429318	-2.980300	3.438700	-10.248000	25.724774	0.000686	20.826153
1640.427739	-2.985600	3.439300	-10.268000	25.732151	0.000687	20.829296
1641.426999	-2.979500	3.438700	-10.245000	25.714336	0.000688	20.818514
1642.430165	-2.984300	3.439500	-10.264000	25.690955	0.000688	20.831066
1643.429291	-2.984400	3.436700	-10.256000	25.626551	0.000688	20.842719
1644.428704	-2.980000	3.436200	-10.239000	25.584681	0.000688	20.822006
1645.427422	-3.013800	3.436300	-10.356000	25.585872	0.000687	20.828891
1646.431609	-2.983800	3.435700	-10.251000	25.605625	0.000686	20.819806
1647.429226	-3.014600	3.434300	-10.352000	25.612532	0.000685	20.838122
1648.428277	-2.983400	3.436300	-10.251000	25.629278	0.000682	20.828388
1649.429724	-3.002100	3.435400	-10.312000	25.650745	0.000682	20.822448
1650.427714	-2.992600	3.434800	-10.278000	25.643215	0.000681	20.807299
1651.431751	-3.002000	3.433300	-10.305000	25.657003	0.000681	20.800284
1652.433102	-3.018100	3.433400	-10.361000	25.674793	0.000682	20.834272
1653.430562	-3.003400	3.434100	-10.313000	25.653871	0.000683	20.829855
1654.433847	-2.991600	3.433500	-10.271000	25.641047	0.000683	20.807018
1655.433214	-3.015200	3.432400	-10.349000	25.656826	0.000679	20.827133
1656.432064	-2.999600	3.431900	-10.294000	25.644600	0.000681	20.819595
1657.436427	-2.985200	3.433100	-10.248000	25.668501	0.000680	20.808513
1658.435359	-2.980800	3.433000	-10.231000	25.676798	0.000682	20.811631
1659.432863	-3.013100	3.432100	-10.339000	25.672300	0.000679	20.814225
1660.433359	-3.003100	3.430700	-10.301000	25.693243	0.000677	20.799699
1661.433153	-2.970500	3.432600	-10.195000	25.723058	0.000681	20.814947
1662.436108	-2.984500	3.430200	-10.236000	25.717715	0.000679	20.812899
1663.437304	-3.001200	3.430300	-10.294000	25.726483	0.000681	20.807482
1664.434595	-2.995700	3.429100	-10.271000	25.690880	0.000677	20.814869
1665.439685	-2.979100	3.428500	-10.213000	25.681610	0.000679	20.805559
1666.433919	-3.002500	3.430200	-10.298000	25.639817	0.000678	20.814792
1667.440706	-2.985500	3.430100	-10.240000	25.633456	0.000679	20.797971
1668.434306	-3.002200	3.429700	-10.296000	25.628959	0.000678	20.809576
1669.436495	-3.031900	3.427500	-10.390000	25.660986	0.000677	20.799543
1670.435127	-3.014900	3.426200	-10.329000	25.655992	0.000677	20.795476
1671.434554	-3.000200	3.428000	-10.285000	25.641828	0.000676	20.804009
1672.434772	-3.012400	3.427200	-10.324000	25.627217	0.000674	20.817784
1673.438629	-3.000200	3.427300	-10.282000	25.626197	0.000675	20.801587
1674.435859	-2.986800	3.426100	-10.233000	25.659245	0.000677	20.799217
1675.435476	-2.998500	3.425600	-10.271000	25.667668	0.000675	20.801513
1676.436415	-2.963000	3.426800	-10.152000	25.666375	0.000674	20.802585
1677.437665	-2.994400	3.426800	-10.259000	25.678874	0.000672	20.818457
1678.441812	-2.985100	3.424100	-10.220000	25.670874	0.000673	20.779129
1679.439486	-2.989600	3.425200	-10.238000	25.675818	0.000671	20.783620
1680.439168	-2.991600	3.423700	-10.241000	25.676911	0.000671	20.790882
1681.439994	-3.000600	3.423700	-10.273000	25.661480	0.000671	20.776806
1682.439066	-3.004600	3.424800	-10.289000	25.632908	0.000671	20.771342
1683.441012	-3.000400	3.423500	-10.271000	25.614793	0.000673	20.808151
1684.440310	-2.980300	3.423500	-10.202000	25.623316	0.000670	20.793478
1685.443638	-3.002000	3.422600	-10.274000	25.610644	0.000669	20.789285
1686.440676	-3.012500	3.421500	-10.306000	25.611440	0.000669	20.803361
1687.439071	-3.027700	3.421200	-10.358000	25.620036	0.000669	20.798244
1688.442374	-2.981200	3.421200	-10.199000	25.601002	0.000670	20.802361
1689.441131	-3.005600	3.420800	-10.281000	25.583534	0.000668	20.783395
1690.441314	-3.012700	3.419700	-10.302000	25.588504	0.000668	20.804508
1691.440444	-2.994900	3.420200	-10.241000	25.606345	0.000665	20.804882
1692.443708	-3.011000	3.419200	-10.293000	25.646449	0.000671	20.797745
1693.440109	-2.981100	3.419400	-10.193000	25.669432	0.000668	20.811819
1694.444412	-3.022800	3.417900	-10.330000	25.683197	0.000667	20.795299
1695.443102	-2.997800	3.419500	-10.249000	25.678327	0.000666	20.787562
1696.443819	-3.006700	3.418700	-10.278000	25.659169	0.000663	20.786813
1697.442308	-2.990000	3.417900	-10.219000	25.621576	0.000664	20.803584
1698.442749	-3.004100	3.417600	-10.266000	25.573867	0.000663	20.789334
1699.445933	-2.994500	3.418100	-10.235000	25.550881	0.000664	20.774784
1700.446678	-3.011100	3.417000	-10.288000	25.502895	0.000663	20.763578
1701.443302	-3.002000	3.416300	-10.255000	25.531970	0.000661	20.770491
1702.443318	-3.015300	3.415000	-10.295000	25.530032	0.000660	20.775657
1703.443795	-2.980700	3.416700	-10.183000	25.583283	0.000664	20.803058
1704.444704	-2.987100	3.415500	-10.202000	25.593570	0.000661	20.790156
1705.443111	-2.982700	3.416700	-10.190000	25.650075	0.000659	20.778627
1706.447652	-3.003600	3.416300	-10.259000	25.669255	0.000662	20.798365
1707.445774	-3.002600	3.416400	-10.256000	25.665353	0.000660	20.790178
1708.445424	-3.022700	3.412900	-10.315000	25.684684	0.000659	20.799164
1709.445697	-2.958500	3.416500	-10.106000	25.691169	0.000662	20.769641
1710.446517	-2.994500	3.414500	-10.224000	25.739444	0.000658	20.777352
1711.445662	-2.989900	3.412700	-10.204000	25.733504	0.000660	20.751945
1712.446015	-2.995400	3.412500	-10.221000	25.742698	0.000658	20.789155
1713.445457	-2.979600	3.413500	-10.170000	25.785579	0.000657	20.783864
1714.445191	-2.989700	3.413000	-10.203000	25.802968	0.000659	20.789004
1715.447784	-3.002300	3.412800	-10.246000	25.836556	0.000658	20.793820
1716.446352	-2.996500	3.412800	-10.226000	25.818620	0.000656	20.778647
1717.448580	-3.000300	3.412300	-10.237000	25.799565	0.000654	20.775628
1718.448845	-2.996300	3.409600	-10.215000	25.778546	0.000656	20.794817
1719.448566	-2.991100	3.411200	-10.202000	25.762348	0.000657	20.788979
1720.458259	-2.997600	3.411000	-10.224000	25.734745	0.000658	20.797288
1721.449927	-2.995500	3.410100	-10.213000	25.732657	0.000654	20.776699
1722.452702	-3.002300	3.409900	-10.237000	25.723440	0.000657	20.802055
1723.459713	-2.995500	3.410300	-10.214000	25.732559	0.000654	20.789877
1724.450799	-3.012600	3.407600	-10.265000	25.739590	0.000655	20.799784
1725.454437	-2.988800	3.407900	-10.185000	25.775615	0.000652	20.796615
1726.453047	-3.015900	3.407300	-10.274000	25.758795	0.000652	20.781142
1727.453795	-2.972000	3.409200	-10.131000	25.783317	0.000654	20.775428
1728.454235	-2.981600	3.408400	-10.162000	25.796310	0.000652	20.800333
1729.452133	-2.992300	3.407600	-10.195000	25.782373	0.000652	20.770212
1730.455462	-2.995400	3.407000	-10.204000	25.752312	0.000651	20.786010
1731.456822	-2.953900	3.407000	-10.062000	25.786075	0.000652	20.778672
1732.460861	-2.988200	3.406700	-10.179000	25.797006	0.000650	20.774480
1733.454319	-2.996000	3.406400	-10.205000	25.780236	0.000652	20.779445
1734.457495	-3.015400	3.405900	-10.269000	25.788957	0.000648	20.772558
1735.461480	-3.005600	3.404300	-10.231000	25.776459	0.000649	20.800783
1736.460495	-2.982100	3.406300	-10.156000	25.780388	0.000646	20.785288
1737.459043	-2.992700	3.405500	-10.190000	25.796112	0.000650	20.765995
1738.457335	-2.995400	3.404800	-10.197000	25.804459	0.000647	20.790501
1739.460338	-3.013300	3.402700	-10.252000	25.801578	0.000646	20.774805
1740.457950	-2.970600	3.404900	-10.114000	25.772113	0.000646	20.784562
1741.456632	-2.993600	3.403600	-10.188000	25.775814	0.000645	20.788755
1742.464756	-3.021700	3.401300	-10.277000	25.775889	0.000645	20.792149
1743.458210	-3.003200	3.403500	-10.220000	25.801875	0.000645	20.802130
1744.458332	-2.991400	3.403200	-10.179000	25.801254	0.000642	20.796291
1745.460208	-3.018500	3.401600	-10.266000	25.789404	0.000644	20.777749
1746.460336	-3.030400	3.399900	-10.302000	25.783092	0.000645	20.776150
1747.458359	-3.003000	3.400700	-10.212000	25.835511	0.000644	20.775227
1748.462294	-3.012300	3.400400	-10.242000	25.837945	0.000643	20.790948
1749.460203	-3.003200	3.399400	-10.208000	25.841548	0.000641	20.796938
1750.458962	-2.975400	3.399400	-10.113000	25.807164	0.000640	20.805072
1751.463383	-2.990300	3.399500	-10.165000	25.780008	0.000640	20.781587
1752.460701	-2.995000	3.399500	-10.181000	25.756208	0.000640	20.808415
1753.465223	-3.023500	3.398400	-10.274000	25.733128	0.000637	20.810363
1754.460437	-3.015600	3.398100	-10.247000	25.743363	0.000638	20.787452
1755.462955	-2.980200	3.399300	-10.129000	25.747214	0.000640	20.796062
1756.463507	-2.999600	3.397400	-10.190000	25.727263	0.000641	20.791670
1757.465939	-3.012100	3.397700	-10.233000	25.678192	0.000636	20.790747
1758.463644	-3.004500	3.397000	-10.205000	25.682937	0.000637	20.804047
1759.464043	-2.985700	3.398000	-10.143000	25.690911	0.000638	20.774124
1760.464794	-2.990800	3.396900	-10.158000	25.710439	0.000639	20.771927
1761.466136	-2.997200	3.398000	-10.183000	25.735235	0.000635	20.790194
1762.468852	-2.991400	3.396000	-10.158000	25.753098	0.000635	20.790593
1763.466338	-3.000800	3.396900	-10.192000	25.784476	0.000632	20.777066
1764.468617	-3.038400	3.394700	-10.314000	25.800425	0.000633	20.795458
1765.467042	-2.999000	3.395800	-10.183000	25.801070	0.000634	20.788994
1766.467799	-3.013300	3.394800	-10.229000	25.796746	0.000633	20.789392
1767.471677	-3.000200	3.394700	-10.184000	25.778088	0.000633	20.787245
1768.467701	-2.993300	3.394500	-10.160000	25.742857	0.000634	20.798325
1769.468088	-2.987100	3.393800	-10.136000	25.720943	0.000633	20.811875
1770.467591	-3.008800	3.393700	-10.210000	25.717092	0.000632	20.789040
1771.466878	-2.984500	3.391700	-10.121000	25.696991	0.000632	20.793981
1772.469322	-3.024500	3.391500	-10.257000	25.701338	0.000630	20.787442
1773.472130	-2.951800	3.393600	-10.016000	25.702927	0.000630	20.781450
1774.471309	-3.027400	3.392200	-10.269000	25.728022	0.000627	20.792906
1775.471076	-3.011300	3.391700	-10.212000	25.727052	0.000627	20.802837
1776.471751	-2.989900	3.391000	-10.138000	25.691149	0.000629	20.793328
1777.471951	-2.989700	3.390600	-10.135000	25.698402	0.000630	20.814364
1778.475300	-3.002100	3.391900	-10.182000	25.701159	0.000627	20.793900
1779.474044	-2.977200	3.392600	-10.100000	25.708314	0.000626	20.804405
1780.476234	-3.018300	3.389700	-10.230000	25.725731	0.000629	20.792027
1781.472643	-2.991500	3.389000	-10.136000	25.734773	0.000626	20.784041
1782.473819	-3.024900	3.390000	-10.253000	25.768883	0.000626	20.790327
1783.476855	-2.990400	3.390000	-10.137000	25.767790	0.000624	20.783539
1784.476708	-2.995300	3.390200	-10.153000	25.755839	0.000624	20.796665
1785.476559	-3.014300	3.388700	-10.214000	25.778323	0.000626	20.799335
1786.477227	-2.992100	3.390200	-10.142000	25.747217	0.000624	20.798910
1787.478115	-3.016200	3.387200	-10.215000	25.754494	0.000622	20.813332
1788.478958	-2.999700	3.386200	-10.156000	25.797623	0.000623	20.799282
1789.479275	-2.991000	3.387500	-10.131000	25.827560	0.000623	20.805646
1790.478437	-3.005600	3.386600	-10.178000	25.851085	0.000622	20.805570
1791.479836	-2.994800	3.387400	-10.144000	25.863753	0.000620	20.785105
1792.479096	-3.003900	3.386000	-10.170000	25.899250	0.000621	20.775245
1793.480198	-3.012400	3.386800	-10.202000	25.920613	0.000620	20.811406
1794.482337	-3.006200	3.386600	-10.179000	25.941976	0.000620	20.808685
1795.481489	-2.997200	3.385500	-10.146000	25.958219	0.000621	20.813151
1796.482954	-2.989900	3.384500	-10.118000	25.961895	0.000620	20.813051
1797.481993	-3.021000	3.384900	-10.224000	25.957771	0.000619	20.802743
1798.480178	-2.991200	3.385400	-10.126000	25.935637	0.000620	20.780981
1799.484814	-2.988300	3.384400	-10.112000	25.903344	0.000620	20.783152
1800.481819	-2.997700	3.385000	-10.146000	25.861958	0.000620	20.803690
1801.483573	-2.997000	3.383900	-10.140000	25.801142	0.000617	20.794755
1802.481154	-2.995700	3.383600	-10.135000	25.782111	0.000619	20.792709
1803.482153	-2.991200	3.383400	-10.119000	25.760372	0.000615	20.804063
1804.484605	-2.997400	3.383100	-10.139000	25.744321	0.000615	20.807856
1805.483803	-2.991900	3.383100	-10.121000	25.763601	0.000617	20.808729
1806.482462	-3.009100	3.382900	-10.178000	25.741240	0.000617	20.793855
1807.481132	-2.994500	3.382400	-10.127000	25.742756	0.000617	20.811025
1808.481001	-3.000900	3.383000	-10.150000	25.744096	0.000616	20.809526
1809.481692	-3.015600	3.379800	-10.191000	25.757264	0.000614	20.804260
1810.485131	-2.985500	3.381100	-10.093000	25.795946	0.000616	20.809451
1811.482895	-3.010400	3.380800	-10.175000	25.827298	0.000614	20.794477
1812.488127	-2.990300	3.381200	-10.108000	25.857233	0.000614	20.778081
1813.483397	-2.992900	3.380700	-10.117000	25.857879	0.000613	20.793429
1814.482428	-2.992300	3.380400	-10.114000	25.850749	0.000614	20.817086
1815.490213	-3.008200	3.379100	-10.163000	25.848190	0.000614	20.800291
1816.483389	-3.008700	3.377800	-10.161000	25.882522	0.000613	20.810598
1817.484928	-2.979000	3.378900	-10.065000	25.909897	0.000613	20.811546
1818.485994	-3.011600	3.378200	-10.173000	25.892284	0.000612	20.824197
1819.483974	-3.004100	3.378200	-10.147000	25.894669	0.000612	20.796722
1820.486104	-2.996100	3.379200	-10.123000	25.906766	0.000611	20.810297
1821.487210	-2.994100	3.377500	-10.111000	25.936128	0.000611	20.831259
1822.484619	-3.007000	3.377600	-10.155000	25.952673	0.000608	20.801889
1823.484877	-3.029300	3.375700	-10.224000	25.974184	0.000608	20.844361
1824.486487	-2.997800	3.376000	-10.120000	25.985063	0.000608	20.827792
1825.484711	-3.008600	3.376100	-10.156000	25.969240	0.000605	20.804308
1826.488717	-2.985300	3.376100	-10.078000	25.982058	0.000607	20.812919
1827.484352	-3.024400	3.375400	-10.207000	25.978358	0.000606	20.819632
1828.488648	-3.003600	3.374500	-10.135000	25.974805	0.000606	20.823175
1829.485952	-2.987600	3.374600	-10.081000	26.010947	0.000606	20.807329
1830.488827	-3.002600	3.374000	-10.129000	25.966682	0.000605	20.825446
1831.487756	-3.009600	3.372800	-10.150000	25.970385	0.000603	20.797398
1832.490023	-2.998000	3.372500	-10.110000	25.982630	0.000604	20.821080
1833.487729	-2.999500	3.373900	-10.118000	25.999348	0.000600	20.815591
1834.484660	-3.006800	3.374000	-10.144000	26.001310	0.000602	20.809975
1835.487425	-2.956000	3.374600	-9.973900	26.013929	0.000601	20.827869
1836.491488	-2.994300	3.372400	-10.097000	25.978284	0.000601	20.813868
1837.486018	-2.995900	3.371600	-10.100000	25.955556	0.000602	20.818536
1838.485897	-3.005800	3.372000	-10.134000	25.970907	0.000601	20.817362
1839.487454	-3.007800	3.371700	-10.141000	25.985090	0.000600	20.832086
1840.487697	-2.973500	3.371900	-10.026000	26.025057	0.000599	20.838101
1841.488865	-2.984700	3.371800	-10.063000	26.010278	0.000600	20.834158
1842.488648	-2.988400	3.372300	-10.076000	25.993884	0.000597	20.822429
1843.487435	-2.988000	3.371100	-10.072000	25.931312	0.000599	20.843490
1844.486896	-2.993500	3.370800	-10.089000	25.909924	0.000598	20.836228
1845.486610	-2.989200	3.370700	-10.075000	25.852688	0.000599	20.838474
1846.486294	-2.982000	3.371400	-10.052000	25.820691	0.000597	20.840944
1847.489031	-2.984800	3.370000	-10.058000	25.773040	0.000596	20.838599
1848.488417	-3.012600	3.368900	-10.147000	25.734729	0.000594	20.855591
1849.490006	-3.024200	3.368200	-10.185000	25.719648	0.000593	20.840444
1850.488823	-3.011300	3.368700	-10.143000	25.714976	0.000596	20.833855
1851.491682	-3.004500	3.368300	-10.119000	25.697807	0.000596	20.818508
1852.489054	-3.005500	3.367800	-10.121000	25.733684	0.000593	20.826568
1853.488656	-2.994300	3.367200	-10.082000	25.765609	0.000594	20.843462
1854.493062	-3.015200	3.367000	-10.151000	25.791794	0.000595	20.835152
1855.492053	-3.011700	3.366900	-10.140000	25.830599	0.000597	20.828138
1856.491718	-2.960400	3.366800	-9.966700	25.846498	0.000593	20.853118
1857.494676	-2.995400	3.365900	-10.080000	25.859789	0.000590	20.837546
1858.492235	-2.981800	3.366400	-10.037000	25.853726	0.000592	20.852318
1859.491884	-3.009000	3.367000	-10.130000	25.877599	0.000592	20.836946
1860.493134	-3.001400	3.366600	-10.104000	25.920399	0.000590	20.836321
1861.494072	-3.008500	3.365800	-10.125000	25.920101	0.000592	20.840762
1862.494191	-2.995300	3.364900	-10.077000	25.975593	0.000588	20.847200
1863.500885	-2.988700	3.364000	-10.052000	25.996035	0.000589	20.835021
1864.494679	-3.020800	3.363500	-10.159000	25.992036	0.000589	20.848072
1865.496438	-3.007000	3.363500	-10.113000	25.990792	0.000589	20.844926
1866.496114	-2.977900	3.364500	-10.017000	26.007036	0.000587	20.839910
1867.496687	-3.018300	3.362500	-10.148000	26.001448	0.000588	20.843778
1868.497144	-3.003900	3.363000	-10.101000	26.041611	0.000589	20.848094
1869.496103	-3.013700	3.362700	-10.133000	26.045063	0.000587	20.843503
1870.496869	-3.006200	3.362600	-10.108000	26.086218	0.000589	20.864464
1871.497004	-2.999100	3.361000	-10.078000	26.065380	0.000582	20.871500
1872.496937	-3.010200	3.361600	-10.118000	26.044987	0.000585	20.843900
1873.498746	-3.020500	3.359700	-10.147000	26.072159	0.000583	20.857450
1874.498348	-3.021300	3.359800	-10.151000	26.069923	0.000585	20.854255
1875.504380	-2.972200	3.361400	-9.988700	26.068009	0.000584	20.839057
1876.497822	-2.974800	3.361200	-9.997600	26.069971	0.000584	20.859045
1877.498559	-3.011500	3.360400	-10.119000	26.040439	0.000583	20.865408
1878.499261	-2.977300	3.361400	-10.006000	26.011129	0.000584	20.844022
1879.502356	-3.010500	3.358300	-10.109000	25.957301	0.000587	20.837832
1880.500070	-2.977000	3.359600	-10.000000	25.909335	0.000580	20.866455
1881.500757	-3.006200	3.358200	-10.095000	25.907793	0.000581	20.842148
1882.501331	-2.989300	3.358600	-10.039000	25.871152	0.000582	20.858444
1883.499586	-2.993500	3.357400	-10.050000	25.906526	0.000578	20.853203
1884.504006	-2.996700	3.356900	-10.059000	25.934223	0.000580	20.862535
1885.502970	-2.994000	3.356700	-10.049000	25.938097	0.000582	20.849833
1886.505958	-3.011300	3.355500	-10.104000	25.979530	0.000579	20.853052
1887.502814	-3.009100	3.356800	-10.100000	26.016663	0.000579	20.860487
1888.502853	-3.013400	3.355300	-10.109000	26.032610	0.000578	20.851503
1889.512793	-2.983500	3.356100	-10.012000	26.091375	0.000576	20.857791
1890.506690	-2.986800	3.356000	-10.023000	26.099447	0.000578	20.858315
1891.512975	-2.981100	3.356100	-10.004000	26.097732	0.000577	20.859911
1892.505859	-3.009800	3.356300	-10.101000	26.115365	0.000575	20.850602
1893.505440	-2.993700	3.355400	-10.044000	26.113204	0.000576	20.863604
1894.505857	-3.002600	3.355500	-10.073000	26.125125	0.000574	20.873684
1895.506682	-3.002300	3.354700	-10.070000	26.089285	0.000576	20.850950
1896.507990	-3.015600	3.354100	-10.113000	26.080964	0.000576	20.860133
1897.505332	-2.971700	3.356600	-9.973600	26.043882	0.000571	20.884513
1898.508229	-3.014900	3.353900	-10.111000	26.036206	0.000573	20.857362
1899.510008	-3.020200	3.351300	-10.120000	26.075723	0.000572	20.873357
1900.511664	-3.001600	3.352700	-10.062000	26.070605	0.000572	20.859682
1901.510790	-2.999900	3.352200	-10.054000	26.094374	0.000571	20.880243
1902.511926	-3.004100	3.352500	-10.070000	26.100756	0.000571	20.873381
1903.511518	-3.005900	3.352200	-10.076000	26.098794	0.000572	20.887055
1904.509773	-3.006500	3.352200	-10.078000	26.095243	0.000573	20.883013
1905.512206	-2.992900	3.351200	-10.028000	26.090125	0.000570	20.876448
1906.510651	-2.991900	3.351800	-10.027000	26.122487	0.000569	20.879093
1907.515253	-3.010900	3.350000	-10.086000	26.137662	0.000569	20.869687
1908.513038	-2.999200	3.351200	-10.050000	26.153035	0.000568	20.865694
1909.517642	-3.021500	3.349400	-10.120000	26.146280	0.000570	20.873604
1910.515147	-3.002600	3.350100	-10.058000	26.163963	0.000565	20.901328
1911.515679	-2.998500	3.349500	-10.043000	26.186612	0.000567	20.882362
1912.512931	-3.004200	3.348500	-10.059000	26.199426	0.000566	20.879118
1913.511129	-2.985200	3.348900	-9.995700	26.174045	0.000567	20.892019
1914.514778	-3.002500	3.348900	-10.054000	26.172728	0.000565	20.863671
1915.513830	-2.993400	3.348100	-10.021000	26.147794	0.000565	20.874177
1916.515321	-2.979600	3.348300	-9.975100	26.115382	0.000565	20.877171
1917.513065	-2.983600	3.347700	-9.986800	26.102815	0.000565	20.887301
1918.517905	-3.016000	3.347100	-10.094000	26.075916	0.000564	20.901051
1919.513608	-2.989100	3.347100	-10.004000	26.075370	0.000562	20.867787
1920.512737	-3.002900	3.346400	-10.047000	26.072264	0.000563	20.889322
1921.514843	-2.982500	3.346600	-9.980300	26.080857	0.000562	20.899377
1922.513036	-2.977000	3.348200	-9.967200	26.134056	0.000560	20.908260
1923.514135	-3.013300	3.345200	-10.079000	26.158271	0.000561	20.881859
1924.513731	-2.996300	3.345900	-10.024000	26.152634	0.000559	20.890893
1925.513458	-3.011700	3.343200	-10.067000	26.155588	0.000561	20.908559
1926.514208	-2.981700	3.346500	-9.978100	26.138799	0.000561	20.889793
1927.518176	-3.004400	3.343100	-10.043000	26.121240	0.000561	20.883056
1928.518670	-3.011300	3.344400	-10.070000	26.138203	0.000560	20.901521
1929.517066	-3.001600	3.343700	-10.036000	26.120444	0.000560	20.884627
1930.516050	-2.999100	3.342900	-10.024000	26.104499	0.000558	20.878563
1931.515763	-3.017700	3.343900	-10.090000	26.096749	0.000560	20.893535
1932.522362	-2.976600	3.343900	-9.953000	26.087906	0.000558	20.892236
1933.515840	-3.024000	3.342700	-10.108000	26.090118	0.000558	20.890665
1934.519250	-3.014000	3.341000	-10.069000	26.096599	0.000557	20.900021
1935.517530	-2.980400	3.343400	-9.963900	26.118480	0.000557	20.891187
1936.523139	-3.012800	3.341500	-10.066000	26.169095	0.000555	20.906010
1937.519563	-3.003000	3.342300	-10.036000	26.204931	0.000556	20.916415
1938.519316	-3.019800	3.341000	-10.089000	26.209152	0.000555	20.897425
1939.517398	-3.013800	3.340800	-10.067000	26.185013	0.000556	20.891661
1940.519885	-3.009200	3.340600	-10.052000	26.172098	0.000553	20.903812
1941.516710	-3.010100	3.340500	-10.054000	26.180145	0.000553	20.918061
1942.519619	-3.009400	3.340200	-10.051000	26.186130	0.000554	20.905110
1943.520356	-3.002300	3.338400	-10.021000	26.192886	0.000551	20.900994
1944.518145	-3.003500	3.338100	-10.025000	26.231453	0.000551	20.907980
1945.517879	-3.016600	3.338300	-10.069000	26.237364	0.000551	20.902541
1946.518143	-3.004100	3.339500	-10.030000	26.256560	0.000551	20.923252
1947.518692	-2.983400	3.338900	-9.960000	26.254722	0.000551	20.901493
1948.521136	-2.993600	3.339600	-9.995400	26.253903	0.000549	20.905411
1949.518097	-3.001900	3.336200	-10.014000	26.247074	0.000553	20.904237
1950.519704	-2.997400	3.337700	-10.004000	26.209650	0.000549	20.917363
1951.519466	-2.987300	3.337500	-9.969100	26.161445	0.000550	20.921081
1952.519858	-3.011800	3.336600	-10.048000	26.157025	0.000548	20.910951
1953.525535	-2.978100	3.337500	-9.937600	26.141553	0.000548	20.920059
1954.523967	-2.980600	3.335600	-9.941000	26.151389	0.000548	20.929941
1955.520994	-2.998600	3.335800	-10.002000	26.170214	0.000546	20.905237
1956.523030	-2.984600	3.335900	-9.955100	26.177044	0.000547	20.944339
1957.521991	-3.023800	3.334300	-10.081000	26.208906	0.000543	20.924676
1958.525137	-2.985400	3.335700	-9.957800	26.193137	0.000544	20.929218
1959.522759	-3.012100	3.334700	-10.044000	26.192143	0.000544	20.929168
1960.525863	-3.014300	3.333700	-10.048000	26.137954	0.000543	20.913124
1961.522452	-3.008000	3.333500	-10.027000	26.133433	0.000544	20.907160
1962.523187	-2.988000	3.334200	-9.961200	26.110261	0.000544	20.931763
1963.526526	-3.009800	3.333100	-10.030000	26.136017	0.000541	20.927297
1964.528566	-3.007500	3.331300	-10.017000	26.155611	0.000539	20.930865
1965.524710	-2.999500	3.330400	-9.988700	26.198949	0.000544	20.925576
1966.523993	-2.975000	3.333000	-9.913500	26.225347	0.000541	20.926972
1967.525342	-2.983200	3.331900	-9.937900	26.231630	0.000541	20.928070
1968.526316	-3.011100	3.330800	-10.028000	26.276305	0.000540	20.915594
1969.529666	-3.008100	3.330500	-10.018000	26.289069	0.000539	20.919886
1970.526331	-2.995700	3.331300	-9.978900	26.269725	0.000540	20.922731
1971.524852	-2.995500	3.331900	-9.978500	26.243525	0.000538	20.919162
1972.526083	-2.991600	3.330700	-9.962200	26.238956	0.000535	20.911253
1973.526803	-3.012500	3.328800	-10.027000	26.189039	0.000538	20.932212
1974.530942	-2.973100	3.330100	-9.899400	26.199470	0.000536	20.904764
1975.527170	-3.021600	3.328300	-10.056000	26.192789	0.000534	20.887621
1976.527974	-3.003000	3.329600	-9.998100	26.201681	0.000536	20.900348
1977.527479	-3.017300	3.328700	-10.042000	26.171555	0.000537	20.908008
1978.527523	-3.004200	3.327900	-9.997000	26.185389	0.000534	20.897253
1979.529053	-2.988100	3.328000	-9.942500	26.201109	0.000532	20.893610
1980.528831	-2.991000	3.327700	-9.952100	26.240422	0.000534	20.908458
1981.528082	-2.981700	3.328000	-9.920800	26.223236	0.000533	20.916792
1982.529693	-2.992100	3.326900	-9.952600	26.262672	0.000531	20.907585
1983.529263	-3.040800	3.325800	-10.112000	26.276876	0.000530	20.908582
1984.529808	-2.988800	3.326000	-9.938900	26.276753	0.000533	20.918889
1985.530011	-2.993900	3.326800	-9.958500	26.271439	0.000531	20.872301
1986.529678	-2.963400	3.327500	-9.859800	26.260834	0.000530	20.903841
1987.531689	-2.998300	3.326300	-9.972300	26.272233	0.000531	20.903917
1988.534868	-2.975600	3.326700	-9.898100	26.298059	0.000530	20.900473
1989.534367	-3.022000	3.325200	-10.047000	26.333221	0.000528	20.923480
1990.533493	-3.001400	3.325100	-9.978900	26.338037	0.000530	20.907934
1991.529135	-2.999500	3.324100	-9.970000	26.336175	0.000528	20.893735
1992.532234	-3.014400	3.323600	-10.018000	26.324131	0.000527	20.901545
1993.529606	-3.005300	3.324500	-9.990500	26.297611	0.000526	20.891015
1994.531255	-2.993200	3.323500	-9.947000	26.270916	0.000527	20.906386
1995.533244	-2.996900	3.322000	-9.954500	26.245861	0.000525	20.890218
1996.533323	-2.997300	3.323500	-9.960700	26.220654	0.000524	20.881009
1997.532250	-3.020000	3.320200	-10.026000	26.220853	0.000526	20.899700
1998.531883	-3.008900	3.322100	-9.994800	26.215960	0.000525	20.891464
1999.532727	-3.010000	3.322300	-9.999300	26.247401	0.000526	20.885127
2000.541006	-2.993500	3.322900	-9.945900	26.231408	0.000524	20.884229
2001.538073	-2.994000	3.321700	-9.943900	26.227583	0.000522	20.871852
2002.533753	-2.997000	3.320200	-9.949600	26.221474	0.000523	20.891790
2003.536268	-2.980600	3.319700	-9.892700	26.195474	0.000521	20.886051
2004.534222	-3.005700	3.320700	-9.979300	26.199297	0.000522	20.896057
2005.535303	-3.004600	3.319200	-9.972100	26.208933	0.000523	20.883929
2006.535354	-3.008600	3.318900	-9.984000	26.234066	0.000522	20.890218
2007.534811	-3.008700	3.319100	-9.985000	26.283035	0.000518	20.880161
2008.536590	-3.011200	3.318200	-9.990100	26.300790	0.000518	20.888046
2009.534486	-3.003700	3.318800	-9.967500	26.278840	0.000522	20.867885
2010.534497	-3.008300	3.318600	-9.982600	26.230191	0.000518	20.875421
2011.536920	-2.996500	3.318500	-9.942900	26.265728	0.000519	20.876993
2012.538533	-2.985300	3.317700	-9.903300	26.302580	0.000518	20.873250
2013.535495	-2.992900	3.317100	-9.926300	26.296745	0.000521	20.892989
2014.539437	-2.986300	3.317600	-9.904700	26.330962	0.000518	20.884230
2015.538696	-3.020400	3.315700	-10.014000	26.318622	0.000519	20.873725
2016.538590	-2.997400	3.316200	-9.938600	26.341442	0.000517	20.883857
2017.541504	-2.996900	3.315000	-9.932800	26.324979	0.000518	20.879165
2018.539009	-3.014700	3.314000	-9.989000	26.320038	0.000516	20.865192
2019.541593	-2.986300	3.316000	-9.900300	26.274000	0.000516	20.888150
2020.539542	-3.003400	3.313800	-9.952100	26.276980	0.000514	20.880240
2021.541589	-2.991300	3.314600	-9.913800	26.285150	0.000513	20.884657
2022.542933	-2.988200	3.314500	-9.903600	26.275516	0.000515	20.860277
2023.544288	-3.016400	3.314800	-9.997900	26.321679	0.000512	20.862574
2024.540642	-3.021600	3.313900	-10.012000	26.353017	0.000512	20.857558
2025.541209	-3.017000	3.313600	-9.996000	26.386438	0.000512	20.884034
2026.542142	-3.028900	3.312000	-10.030000	26.380380	0.000512	20.870360
2027.542067	-2.981300	3.313200	-9.876300	26.351081	0.000512	20.874104
2028.544593	-3.010300	3.312000	-9.967900	26.322823	0.000511	20.878421
2029.542095	-2.975500	3.312000	-9.854100	26.349839	0.000512	20.875701
2030.545659	-2.993000	3.312000	-9.911500	26.337846	0.000510	20.878346
2031.542618	-2.993600	3.312300	-9.914700	26.322500	0.000510	20.863399
2032.542044	-3.016700	3.311500	-9.988500	26.318230	0.000510	20.866694
2033.546135	-2.995200	3.310000	-9.913000	26.317857	0.000508	20.872008
2034.544426	-2.977300	3.311200	-9.857800	26.371318	0.000506	20.893968
2035.541421	-3.006100	3.309700	-9.948400	26.350411	0.000506	20.880542
2036.542018	-3.006500	3.308900	-9.946700	26.343458	0.000505	20.868340
2037.543685	-3.002800	3.309800	-9.936800	26.357289	0.000509	20.868964
2038.541961	-3.010100	3.309700	-9.960300	26.353366	0.000503	20.879245
2039.545295	-2.993400	3.308600	-9.902800	26.387160	0.000504	20.869588
2040.542966	-3.017900	3.307500	-9.980500	26.379462	0.000505	20.868015
2041.542185	-2.980000	3.308400	-9.858700	26.342266	0.000505	20.880891
2042.544860	-3.011200	3.308000	-9.960000	26.320785	0.000501	20.848400
2043.544050	-2.994900	3.307600	-9.904900	26.272488	0.000502	20.866718
2044.545255	-3.018700	3.307100	-9.981100	26.229178	0.000501	20.858283
2045.544633	-2.995000	3.308200	-9.906600	26.221902	0.000499	20.876573
2046.545891	-2.987700	3.308100	-9.881000	26.208665	0.000504	20.849997
2047.545204	-3.017700	3.305600	-9.973200	26.181794	0.000499	20.858557
2048.547729	-2.976800	3.307400	-9.843100	26.219990	0.000500	20.845256
2049.550273	-2.992600	3.304300	-9.887900	26.237075	0.000500	20.859580
2050.547687	-2.998700	3.304300	-9.907800	26.272537	0.000497	20.839267
2051.552968	-3.008700	3.304400	-9.941000	26.272909	0.000498	20.853865
2052.547315	-3.016500	3.303400	-9.962400	26.227291	0.000498	20.862550
2053.546036	-2.973300	3.304900	-9.824800	26.194386	0.000496	20.865045
2054.547636	-2.986900	3.303400	-9.866400	26.214600	0.000499	20.862599
2055.554624	-2.997100	3.303800	-9.900600	26.230321	0.000497	20.865120
2056.549131	-3.015900	3.301400	-9.955700	26.230196	0.000495	20.870210
2057.553434	-2.990600	3.301700	-9.873300	26.256743	0.000493	20.847577
2058.548621	-2.986000	3.302300	-9.860100	26.256022	0.000495	20.863921
2059.549734	-3.005600	3.301100	-9.921300	26.265311	0.000493	20.858557
2060.552189	-3.029700	3.299600	-9.995500	26.329601	0.000494	20.860104
2061.549643	-3.007700	3.301300	-9.927400	26.297419	0.000492	20.849573
2062.549717	-3.003500	3.300800	-9.912100	26.293545	0.000491	20.856585
2063.551989	-2.999700	3.300500	-9.898900	26.287138	0.000491	20.853940
2064.550444	-3.020600	3.300600	-9.968600	26.289919	0.000494	20.868113
2065.550522	-3.017900	3.298500	-9.953900	26.322150	0.000490	20.833177
2066.553259	-3.008700	3.298100	-9.922000	26.364612	0.000492	20.840290
2067.550719	-3.018700	3.298800	-9.957200	26.383111	0.000489	20.854140
2068.551793	-2.994500	3.300100	-9.881000	26.366574	0.000491	20.844158
2069.553272	-2.985300	3.298900	-9.846400	26.330866	0.000490	20.834824
2070.555547	-2.985400	3.299000	-9.847000	26.321431	0.000489	20.835299
2071.556044	-2.994500	3.298900	-9.877800	26.284953	0.000489	20.854115
2072.556740	-2.984900	3.298200	-9.843700	26.278944	0.000489	20.858507
2073.555851	-2.975300	3.298100	-9.811900	26.225478	0.000486	20.844608
2074.555776	-2.985000	3.296200	-9.838100	26.217979	0.000487	20.830908
2075.557478	-2.999500	3.296900	-9.888300	26.249020	0.000486	20.852618
2076.556598	-3.001500	3.296200	-9.892600	26.337523	0.000486	20.849574
2077.557433	-3.009200	3.294400	-9.912100	26.360392	0.000485	20.855014
2078.556269	-2.999000	3.295200	-9.881100	26.381226	0.000484	20.846555
2079.557055	-3.001200	3.295400	-9.888700	26.408787	0.000484	20.843911
2080.559864	-2.990700	3.295600	-9.854900	26.379439	0.000482	20.833380
2081.558211	-2.985500	3.295800	-9.839000	26.391407	0.000483	20.863426
2082.555587	-2.993400	3.293900	-9.858700	26.420507	0.000482	20.840517
2083.556911	-2.988600	3.294900	-9.845400	26.421029	0.000480	20.840567
2084.558723	-3.005800	3.292500	-9.895300	26.454150	0.000483	20.836873
2085.556942	-3.005100	3.293800	-9.896900	26.479377	0.000482	20.867918
2086.558926	-3.006500	3.292900	-9.899500	26.489903	0.000478	20.836774
2087.556533	-3.019300	3.292100	-9.939000	26.464058	0.000481	20.857737
2088.556580	-3.003800	3.292400	-9.888900	26.427585	0.000478	20.831984
2089.556932	-2.993300	3.291000	-9.849000	26.424208	0.000478	20.840918
2090.556355	-3.001700	3.290500	-9.876300	26.403079	0.000477	20.836277
2091.561499	-3.001700	3.289400	-9.871700	26.412166	0.000476	20.846358
2092.559536	-3.003700	3.291600	-9.886300	26.447846	0.000478	20.842391
2093.558905	-2.980800	3.291700	-9.811300	26.460608	0.000476	20.845735
2094.559007	-3.020800	3.289000	-9.933700	26.488664	0.000474	20.843589
2095.561597	-3.009800	3.290300	-9.902300	26.479130	0.000475	20.847282
2096.569843	-3.008300	3.289300	-9.892900	26.499289	0.000474	20.843363
2097.560571	-2.970300	3.290300	-9.771300	26.491791	0.000476	20.843887
2098.560481	-2.985800	3.290500	-9.822700	26.484939	0.000474	20.837474
2099.564207	-2.980400	3.288800	-9.800300	26.460334	0.000475	20.841193
2100.559995	-3.028200	3.286700	-9.950200	26.430068	0.000471	20.855342
2101.564134	-3.019200	3.286900	-9.922400	26.441762	0.000469	20.841018
2102.564312	-3.004700	3.287600	-9.877700	26.426790	0.000470	20.848729
2103.565030	-2.986300	3.288400	-9.819200	26.378099	0.000471	20.828715
2104.563803	-3.012300	3.285500	-9.894900	26.370352	0.000468	20.836575
2105.564545	-3.002000	3.285900	-9.863600	26.360545	0.000468	20.839521
2106.565267	-3.022600	3.284600	-9.927300	26.339115	0.000467	20.845959
2107.566904	-3.015100	3.284500	-9.902300	26.342541	0.000468	20.821902
2108.566716	-3.026000	3.284500	-9.937800	26.353567	0.000467	20.852422
2109.566253	-2.971400	3.286600	-9.763300	26.338370	0.000466	20.816287
2110.565254	-2.999100	3.283700	-9.847000	26.334770	0.000468	20.832583
2111.564898	-2.996700	3.282500	-9.835800	26.335241	0.000461	20.843488
2112.566449	-2.989900	3.282900	-9.813600	26.363449	0.000465	20.851923
2113.568287	-2.997000	3.282700	-9.837500	26.383884	0.000462	20.827417
2114.567607	-3.021100	3.282600	-9.915800	26.394115	0.000461	20.838173
2115.569094	-3.002400	3.281800	-9.851300	26.462891	0.000463	20.807253
2116.569059	-2.972600	3.283000	-9.758500	26.464182	0.000459	20.806180
2117.568705	-2.996100	3.282200	-9.833100	26.426666	0.000461	20.809724
2118.570298	-3.016700	3.282800	-9.902800	26.470935	0.000461	20.838572
2119.569200	-3.015800	3.281400	-9.894900	26.497972	0.000462	20.808850
2120.574108	-3.032800	3.280500	-9.948100	26.512595	0.000458	20.814540
2121.569344	-2.980800	3.281300	-9.778400	26.523022	0.000460	20.808899
2122.568664	-3.001200	3.280700	-9.845300	26.463684	0.000457	20.812318
2123.575497	-3.005700	3.278400	-9.852600	26.491739	0.000454	20.822025
2124.569203	-2.967200	3.279500	-9.729800	26.504501	0.000457	20.796920
2125.569643	-2.999200	3.278500	-9.831500	26.516493	0.000456	20.822250
2126.570929	-3.035800	3.277700	-9.949500	26.515424	0.000457	20.825443
2127.568849	-3.008500	3.278300	-9.862100	26.525778	0.000454	20.815936
2128.569882	-3.001200	3.277400	-9.834900	26.512048	0.000453	20.806877
2129.571044	-2.996300	3.278400	-9.822100	26.530394	0.000452	20.812990
2130.569338	-3.002600	3.277300	-9.839200	26.561900	0.000456	20.824745
2131.568851	-2.993300	3.278100	-9.810500	26.587792	0.000455	20.833229
2132.569479	-2.974700	3.277000	-9.747300	26.586327	0.000452	20.820851
2133.569560	-2.995100	3.276700	-9.812700	26.587270	0.000451	20.814686
2134.571816	-3.041100	3.274700	-9.956500	26.546953	0.000448	20.814462
2135.570091	-3.007100	3.275100	-9.847700	26.492929	0.000450	20.798091
2136.572012	-2.997800	3.276000	-9.820100	26.502462	0.000447	20.811940
2137.571651	-2.992200	3.276500	-9.803000	26.483618	0.000448	20.795370
2138.570426	-3.016500	3.273300	-9.872500	26.465840	0.000446	20.807847
2139.573669	-3.017600	3.274200	-9.879900	26.500475	0.000449	20.806625
2140.572729	-2.984900	3.275300	-9.775000	26.459236	0.000447	20.807373
2141.572612	-3.001900	3.274100	-9.827800	26.426312	0.000445	20.799886
2142.572547	-2.985400	3.272200	-9.768200	26.427901	0.000444	20.801956
2143.572491	-2.992000	3.273500	-9.792700	26.402127	0.000447	20.794544
2144.572363	-3.009400	3.272500	-9.846700	26.390755	0.000443	20.803977
2145.574471	-2.987400	3.272200	-9.774600	26.388396	0.000445	20.808719
2146.573475	-3.010000	3.271200	-9.845700	26.404187	0.000442	20.793295
2147.577572	-3.010200	3.271400	-9.846500	26.433286	0.000443	20.790774
2148.573752	-2.980400	3.271200	-9.748200	26.454986	0.000442	20.790299
2149.574770	-2.985300	3.272400	-9.768200	26.449475	0.000439	20.786182
2150.576470	-2.990600	3.270700	-9.780800	26.449349	0.000438	20.796013
2151.576553	-3.016800	3.269800	-9.862900	26.482594	0.000439	20.795764
2152.578858	-3.000600	3.270500	-9.812200	26.502455	0.000438	20.786329
2153.576119	-2.990000	3.268900	-9.772700	26.519139	0.000437	20.808315
2154.575891	-3.001800	3.269100	-9.811800	26.533042	0.000434	20.776771
2155.577520	-3.010100	3.267700	-9.835100	26.594856	0.000436	20.791967
2156.578725	-2.999700	3.268700	-9.804100	26.612383	0.000434	20.778766
2157.577195	-2.980600	3.267000	-9.736900	26.606251	0.000434	20.804369
2158.576371	-2.992300	3.269100	-9.780900	26.575194	0.000435	20.811557
2159.578137	-2.994500	3.267600	-9.783600	26.592050	0.000433	20.789620
2160.582229	-3.004700	3.266900	-9.815100	26.623304	0.000434	20.799702
2161.582903	-2.989700	3.266300	-9.764400	26.647159	0.000431	20.789544
2162.576465	-3.033100	3.264600	-9.900300	26.597261	0.000433	20.809557
2163.578555	-3.000800	3.266300	-9.801400	26.602648	0.000431	20.772298
2164.578804	-2.987800	3.265600	-9.756000	26.615234	0.000430	20.791115
2165.579963	-2.978800	3.265100	-9.725100	26.632808	0.000428	20.787445
2166.581895	-3.011200	3.265200	-9.831500	26.671087	0.000431	20.776140
2167.581063	-2.999400	3.264500	-9.790900	26.681338	0.000430	20.775066
2168.580286	-3.001500	3.264700	-9.798300	26.677415	0.000427	20.772545
2169.581203	-3.031000	3.262800	-9.888200	26.691018	0.000426	20.789540
2170.581225	-3.038600	3.261800	-9.909900	26.730982	0.000425	20.784198
2171.580201	-3.032000	3.263300	-9.893100	26.695039	0.000427	20.764657
2172.582368	-3.008400	3.262200	-9.812500	26.670612	0.000424	20.795103
2173.580888	-3.002400	3.261800	-9.792000	26.679176	0.000425	20.783324
2174.580022	-3.015900	3.261700	-9.835500	26.704024	0.000423	20.793131
2175.579567	-3.012500	3.262100	-9.825200	26.722192	0.000421	20.769672
2176.583861	-2.996900	3.261200	-9.773300	26.744631	0.000421	20.763308
2177.584120	-3.010100	3.260400	-9.813300	26.744209	0.000424	20.783746
2178.582126	-2.988500	3.258900	-9.738700	26.744258	0.000424	20.777158
2179.581585	-2.993700	3.261000	-9.760000	26.729041	0.000420	20.770393
2180.581380	-2.998200	3.259000	-9.769100	26.719137	0.000423	20.754272
2181.583292	-3.013300	3.257900	-9.816400	26.729836	0.000418	20.779253
2182.584175	-3.025000	3.259300	-9.858200	26.724349	0.000416	20.750028
2183.581685	-2.998300	3.257300	-9.764500	26.665494	0.000417	20.778104
2184.582377	-3.013700	3.255800	-9.810200	26.657251	0.000418	20.757963
2185.582561	-3.012600	3.257900	-9.813100	26.642529	0.000417	20.767820
2186.585720	-3.028100	3.256000	-9.857800	26.657127	0.000415	20.757364
2187.584321	-3.003900	3.257800	-9.785200	26.619493	0.000413	20.762679
2188.584875	-2.981400	3.257400	-9.710200	26.662637	0.000415	20.766697
2189.586023	-3.004900	3.256700	-9.784900	26.674180	0.000415	20.781146
2190.581993	-3.013900	3.255000	-9.808100	26.694733	0.000414	20.741116
2191.584293	-2.982000	3.253500	-9.700400	26.715782	0.000413	20.747105
2192.587755	-2.980600	3.255000	-9.700300	26.764309	0.000411	20.749426
2193.587584	-2.992500	3.254400	-9.737400	26.804196	0.000410	20.780047
2194.583757	-2.997300	3.254200	-9.752900	26.822860	0.000410	20.758984
2195.587379	-3.005200	3.253300	-9.775600	26.853016	0.000410	20.762278
2196.584982	-2.994200	3.253400	-9.740400	26.783991	0.000412	20.757836
2197.587698	-2.997300	3.253700	-9.751200	26.749068	0.000410	20.755440
2198.589476	-2.989300	3.253700	-9.725600	26.683610	0.000407	20.754116
2199.586659	-3.010600	3.253800	-9.794900	26.712058	0.000405	20.749525
2200.587199	-2.996200	3.252300	-9.742700	26.734471	0.000408	20.759257
2201.586739	-3.017000	3.251900	-9.809500	26.719430	0.000408	20.770687
2202.587850	-3.004800	3.250900	-9.767200	26.759342	0.000405	20.774779
2203.590772	-2.990400	3.250600	-9.719700	26.785976	0.000404	20.757460
2204.588721	-3.002800	3.249500	-9.756700	26.829460	0.000405	20.760878
2205.589319	-3.000700	3.250300	-9.751900	26.838520	0.000403	20.736321
2206.589600	-3.013000	3.249800	-9.791300	26.862271	0.000405	20.763523
2207.588030	-3.000200	3.248500	-9.745500	26.883044	0.000403	20.757858
2208.591302	-3.002700	3.249000	-9.755000	26.879917	0.000401	20.752817
2209.591921	-2.995000	3.249100	-9.729100	26.853633	0.000404	20.759579
2210.589406	-3.010700	3.247600	-9.776300	26.827622	0.000402	20.746702
2211.589308	-3.012800	3.247000	-9.780300	26.798408	0.000400	20.744829
2212.589036	-2.992800	3.246600	-9.716200	26.790119	0.000399	20.758781
2213.589536	-3.012500	3.245500	-9.775200	26.785328	0.000399	20.750170
2214.592660	-3.016700	3.245200	-9.789000	26.788827	0.000400	20.744205
2215.592268	-2.982700	3.246800	-9.682400	26.790118	0.000399	20.755461
2216.592968	-2.991700	3.245000	-9.707500	26.801981	0.000397	20.748422
2217.591034	-3.011800	3.245500	-9.774000	26.823202	0.000397	20.742257
2218.592074	-2.995000	3.244800	-9.716700	26.804239	0.000397	20.782461
2219.593800	-3.014500	3.243500	-9.776200	26.773561	0.000395	20.742606
2220.590481	-3.001500	3.242800	-9.732400	26.775794	0.000394	20.755757
2221.593236	-3.010600	3.242000	-9.758800	26.771499	0.000395	20.750017
2222.590985	-2.989300	3.242400	-9.690700	26.793639	0.000392	20.739560
2223.592236	-2.993600	3.243000	-9.707200	26.814066	0.000394	20.752987
2224.594016	-2.988300	3.242400	-9.688400	26.784181	0.000394	20.751863
2225.594352	-3.002500	3.242400	-9.734200	26.765689	0.000390	20.765987
2226.592760	-2.986400	3.240700	-9.676000	26.777926	0.000392	20.748892
2227.592220	-3.010400	3.240500	-9.754100	26.791801	0.000392	20.749566
2228.595504	-2.993800	3.241900	-9.703400	26.810118	0.000391	20.732894
2229.595804	-3.023400	3.238900	-9.790800	26.813245	0.000386	20.755005
2230.593406	-2.987400	3.241800	-9.683300	26.836625	0.000391	20.751961
2231.598017	-3.006900	3.237500	-9.733300	26.865067	0.000390	20.724608
2232.600294	-2.980900	3.238700	-9.653200	26.905422	0.000390	20.734365
2233.595733	-3.004700	3.237100	-9.725500	26.904727	0.000387	20.769703
2234.595525	-2.995600	3.238200	-9.699200	26.920957	0.000386	20.750936
2235.596738	-3.015200	3.238100	-9.762600	26.880751	0.000385	20.740379
2236.597142	-3.000400	3.237700	-9.713600	26.858613	0.000384	20.734240
2237.599411	-3.001300	3.236400	-9.712300	26.784823	0.000385	20.761517
2238.600363	-3.004900	3.235800	-9.722000	26.747491	0.000384	20.764286
2239.598223	-2.992000	3.235200	-9.678300	26.724729	0.000383	20.754678
2240.600819	-2.997200	3.236800	-9.700400	26.694470	0.000382	20.746541
2241.598456	-3.015600	3.235400	-9.755600	26.674438	0.000380	20.750585
2242.601130	-2.993900	3.234700	-9.683000	26.675108	0.000383	20.746516
2243.598157	-3.003900	3.235100	-9.717100	26.644524	0.000381	20.755600
2244.605652	-3.024800	3.231000	-9.772100	26.641694	0.000380	20.757496
2245.601447	-2.995000	3.233100	-9.682400	26.642786	0.000378	20.733463
2246.602312	-2.985700	3.232700	-9.649600	26.669397	0.000376	20.740301
2247.598809	-2.994400	3.232100	-9.676900	26.676769	0.000378	20.764783
2248.598504	-2.994300	3.233400	-9.680500	26.639732	0.000378	20.757421
2249.598672	-3.020100	3.231700	-9.758500	26.649909	0.000376	20.757220
2250.610818	-3.001600	3.230300	-9.694600	26.706059	0.000376	20.733062
2251.604420	-2.983200	3.230400	-9.634800	26.716311	0.000376	20.746688
2252.605057	-2.994800	3.230000	-9.671400	26.727133	0.000378	20.758517
2253.605161	-2.989200	3.229900	-9.654100	26.723435	0.000374	20.756221
2254.602004	-2.988100	3.229300	-9.647600	26.719463	0.000373	20.736580
2255.601236	-2.996000	3.228800	-9.673100	26.765655	0.000372	20.748409
2256.604876	-3.028900	3.227200	-9.773100	26.826043	0.000374	20.751279
2257.602968	-2.996900	3.227800	-9.672400	26.850018	0.000370	20.746461
2258.604034	-2.995200	3.227800	-9.667000	26.878734	0.000369	20.753524
2259.606266	-3.004500	3.227100	-9.694700	26.898240	0.000371	20.758439
2260.607727	-2.991600	3.228600	-9.657700	26.881760	0.000369	20.755144
2261.606678	-3.004100	3.227100	-9.694000	26.824328	0.000368	20.744338
2262.609974	-2.983300	3.225900	-9.623400	26.800723	0.000367	20.755692
2263.607986	-2.970400	3.226500	-9.583500	26.870342	0.000370	20.738447
2264.609423	-3.001900	3.225900	-9.683300	26.909530	0.000368	20.734703
2265.608256	-3.006700	3.224800	-9.694500	26.982094	0.000365	20.734178
2266.609692	-3.005500	3.222900	-9.685700	27.034926	0.000362	20.745583
2267.613479	-2.991300	3.222900	-9.639900	27.025595	0.000364	20.743785
2268.610239	-3.012600	3.223500	-9.709800	27.024850	0.000365	20.762951
2269.610873	-3.006200	3.224600	-9.692700	27.026363	0.000364	20.743609
2270.610337	-2.994600	3.221800	-9.646800	26.981768	0.000362	20.752343
2271.611885	-2.995300	3.222800	-9.651700	26.969831	0.000360	20.758357
2272.613497	-3.000200	3.222700	-9.666800	26.959730	0.000357	20.759579
2273.613422	-3.001000	3.221400	-9.666400	26.978292	0.000358	20.759279
2274.613100	-2.998000	3.220600	-9.654300	26.952035	0.000359	20.750893
2275.614619	-3.007100	3.220700	-9.684100	26.950049	0.000359	20.764543
2276.612558	-3.008800	3.220000	-9.687300	26.994793	0.000359	20.765915
2277.612770	-2.973600	3.219900	-9.573600	27.026084	0.000359	20.754709
2278.614063	-2.980400	3.219500	-9.594100	27.037598	0.000360	20.745899
2279.612364	-3.000100	3.220000	-9.659400	27.063156	0.000359	20.746947
2280.618183	-2.996300	3.218400	-9.642600	27.064620	0.000358	20.774498
2281.614353	-3.002200	3.217800	-9.659600	27.089185	0.000357	20.753210
2282.615070	-3.011500	3.217200	-9.686300	27.088912	0.000353	20.725906
2283.620101	-2.992000	3.215700	-9.620300	27.112757	0.000357	20.746096
2284.615847	-2.972600	3.217000	-9.561200	27.111640	0.000356	20.762043
2285.615882	-3.017100	3.214700	-9.696100	27.101888	0.000357	20.744174
2286.616839	-3.003200	3.214300	-9.652400	27.128388	0.000353	20.764188
2287.616898	-3.003700	3.215400	-9.657400	27.149826	0.000354	20.761093
2288.617148	-2.992500	3.214900	-9.618900	27.191510	0.000354	20.757025
2289.617897	-2.994900	3.214000	-9.624500	27.191087	0.000352	20.751858
2290.617163	-2.986700	3.214400	-9.599100	27.226988	0.000351	20.755253
2291.617139	-2.990100	3.212800	-9.605700	27.210439	0.000351	20.746193
2292.616766	-3.001500	3.212400	-9.639600	27.254081	0.000349	20.744571
2293.617202	-2.984000	3.212300	-9.584600	27.243561	0.000348	20.761017
2294.618124	-3.005000	3.212300	-9.650800	27.263880	0.000350	20.753480
2295.617032	-2.988100	3.212800	-9.599500	27.308909	0.000348	20.757997
2296.617715	-2.986500	3.211000	-9.588600	27.253013	0.000348	20.747290
2297.616012	-3.008800	3.209700	-9.656700	27.262589	0.000348	20.773045
2298.617260	-3.009700	3.209100	-9.656900	27.261275	0.000346	20.768877
2299.620955	-3.001200	3.209700	-9.631900	27.274101	0.000346	20.754752
2300.618950	-2.978000	3.209100	-9.555000	27.264748	0.000346	20.763362
2301.618497	-3.008900	3.207600	-9.650500	27.197487	0.000345	20.762563
2302.620054	-2.975900	3.209600	-9.549700	27.160468	0.000344	20.759943
2303.620370	-3.014400	3.207100	-9.666600	27.152925	0.000345	20.758994
2304.618935	-2.990000	3.208200	-9.591300	27.137293	0.000344	20.757023
2305.620932	-3.006000	3.208300	-9.642800	27.106550	0.000343	20.753604
2306.621492	-3.012300	3.204500	-9.652400	27.121438	0.000343	20.756250
2307.622248	-2.985300	3.205900	-9.569400	27.108113	0.000340	20.759918
2308.622575	-3.001900	3.205400	-9.621600	27.067518	0.000342	20.777886
2309.622065	-3.010400	3.206800	-9.652900	27.005878	0.000340	20.761415
2310.625260	-2.995600	3.206100	-9.603000	26.969348	0.000339	20.773993
2311.623403	-3.005000	3.204800	-9.629500	26.945747	0.000339	20.761640
2312.625427	-2.976500	3.203800	-9.535200	26.915222	0.000339	20.751333
2313.625163	-3.030400	3.201700	-9.701000	26.918423	0.000338	20.776364
2314.626393	-3.006400	3.202100	-9.626100	26.915941	0.000338	20.776713
2315.631843	-2.993700	3.203100	-9.588200	26.901026	0.000336	20.761240
2316.626283	-3.010600	3.201700	-9.637200	26.928002	0.000334	20.758495
2317.624575	-3.010100	3.200600	-9.632600	26.931279	0.000334	20.788342
2318.626704	-2.988200	3.200600	-9.563100	26.943042	0.000335	20.774092
2319.626112	-2.974600	3.202400	-9.524600	26.904351	0.000333	20.785447
2320.630923	-2.995500	3.199600	-9.583300	26.957137	0.000336	20.758394
2321.626981	-3.003100	3.198800	-9.604600	26.967908	0.000334	20.750259
2322.628287	-3.005000	3.199700	-9.613900	27.004759	0.000333	20.765507
2323.628520	-2.993000	3.197600	-9.569700	27.039451	0.000331	20.786644
2324.626959	-2.990500	3.198200	-9.563700	27.091909	0.000329	20.794356
2325.628717	-2.993100	3.197700	-9.570200	27.120220	0.000334	20.783475
2326.629798	-2.989200	3.197500	-9.557700	27.150789	0.000331	20.770123
2327.628693	-3.004900	3.195700	-9.602100	27.180911	0.000331	20.782401
2328.631392	-3.000900	3.197400	-9.594000	27.199569	0.000329	20.781728
2329.628201	-3.000700	3.196100	-9.589000	27.208154	0.000330	20.780879
2330.628680	-2.982300	3.194000	-9.524300	27.226539	0.000330	20.775189
2331.630503	-2.993000	3.194700	-9.560200	27.253804	0.000328	20.785071
2332.629816	-3.011800	3.194300	-9.618800	27.274198	0.000328	20.772868
2333.635018	-3.013200	3.194400	-9.625100	27.260379	0.000325	20.788839
2334.631761	-2.981900	3.192400	-9.516800	27.279159	0.000325	20.790661
2335.631573	-2.984700	3.193200	-9.530000	27.254672	0.000326	20.775512
2336.635452	-3.000300	3.191300	-9.573900	27.243854	0.000326	20.803038
2337.635185	-2.998000	3.190800	-9.565600	27.247079	0.000324	20.801066
2338.631278	-2.963400	3.192200	-9.459300	27.275040	0.000324	20.784146
2339.631236	-2.992500	3.190400	-9.546900	27.308507	0.000322	20.793155
2340.633622	-2.993100	3.190400	-9.547700	27.296003	0.000321	20.787689
2341.633091	-2.997800	3.190200	-9.562200	27.336912	0.000321	20.783796
2342.634371	-3.012800	3.188900	-9.606300	27.320712	0.000321	20.795949
2343.632531	-3.013700	3.187100	-9.604000	27.322547	0.000321	20.793054
2344.637757	-3.013400	3.187200	-9.602800	27.337556	0.000318	20.799143
2345.634979	-3.003000	3.187000	-9.569300	27.339838	0.000318	20.800490
2346.634027	-2.992300	3.186500	-9.534500	27.322621	0.000318	20.798344
2347.639474	-2.990500	3.185800	-9.527200	27.311432	0.000318	20.779976
2348.634485	-2.998600	3.185300	-9.550100	27.259580	0.000318	20.807951
2349.635092	-2.983300	3.186100	-9.504600	27.245116	0.000319	20.784392
2350.634260	-2.977100	3.187300	-9.488200	27.207776	0.000316	20.793775
2351.635911	-2.992700	3.187300	-9.537700	27.208198	0.000317	20.795622
2352.636172	-2.977800	3.183000	-9.477200	27.233529	0.000315	20.788384
2353.638139	-3.013800	3.183600	-9.593600	27.245760	0.000315	20.809696
2354.637598	-2.997500	3.182500	-9.538600	27.297016	0.000317	20.780647
2355.636523	-2.989400	3.183800	-9.516200	27.317607	0.000317	20.799938
2356.636647	-2.994900	3.182500	-9.529700	27.321650	0.000315	20.785039
2357.636600	-3.003700	3.182900	-9.559700	27.267318	0.000314	20.798190
2358.638903	-3.022400	3.181000	-9.613700	27.207426	0.000313	20.818080
2359.638703	-3.035900	3.180900	-9.654600	27.156314	0.000313	20.790379
2360.639361	-3.008200	3.179600	-9.564100	27.145347	0.000314	20.803056
2361.637764	-3.007800	3.180100	-9.564200	27.186187	0.000312	20.792924
2362.638815	-3.034500	3.177500	-9.641100	27.208988	0.000315	20.798314
2363.639375	-3.015100	3.177600	-9.579900	27.242681	0.000312	20.799013
2364.639001	-2.991900	3.179000	-9.509900	27.234866	0.000311	20.795893
2365.642190	-2.993000	3.179700	-9.515400	27.189759	0.000309	20.794620
2366.639075	-3.020000	3.175600	-9.589400	27.168347	0.000311	20.811490
2367.640385	-3.004500	3.175900	-9.541200	27.145594	0.000308	20.809468
2368.641316	-2.988000	3.176000	-9.489400	27.129068	0.000308	20.795693
2369.644391	-2.998900	3.175400	-9.521900	27.131897	0.000309	20.807547
2370.641070	-2.991600	3.173500	-9.491600	27.144005	0.000310	20.821147
2371.648091	-3.004300	3.172700	-9.529100	27.124180	0.000309	20.796940
2372.641885	-3.020800	3.174500	-9.588900	27.164698	0.000307	20.802131
2373.641360	-3.022900	3.172000	-9.586700	27.176062	0.000308	20.820673
2374.649742	-2.980800	3.173500	-9.458900	27.216430	0.000305	20.802954
2375.643385	-2.998600	3.172000	-9.509700	27.238462	0.000306	20.806148
2376.645527	-2.998000	3.173200	-9.511400	27.234889	0.000304	20.819624
2377.645624	-2.987600	3.170600	-9.470400	27.218787	0.000304	20.804850
2378.646303	-2.977000	3.172200	-9.443100	27.218439	0.000305	20.802604
2379.645351	-2.998100	3.169800	-9.502300	27.230869	0.000303	20.807520
2380.649645	-2.997100	3.169100	-9.497200	27.290537	0.000304	20.797364
2381.647390	-3.012400	3.169600	-9.547400	27.317826	0.000303	20.819598
2382.647154	-3.000300	3.167200	-9.501500	27.382897	0.000303	20.793071
2383.647986	-2.995700	3.167500	-9.486800	27.400559	0.000302	20.837865
2384.649426	-3.018100	3.166700	-9.557100	27.428044	0.000301	20.806247
2385.651598	-3.017100	3.166300	-9.551500	27.421420	0.000302	20.821395
2386.649438	-3.007900	3.164700	-9.518100	27.454858	0.000297	20.825637
2387.651707	-2.974800	3.166000	-9.417100	27.518159	0.000298	20.806347
2388.649491	-2.971000	3.165100	-9.402000	27.521929	0.000301	20.805872
2389.648212	-2.995800	3.164100	-9.478100	27.551991	0.000298	20.801031
2390.651025	-2.982400	3.164700	-9.437300	27.532520	0.000298	20.820795
2391.650726	-3.021100	3.162400	-9.553600	27.528477	0.000298	20.830478
2392.649776	-3.017300	3.161200	-9.536300	27.504517	0.000296	20.822966
2393.650171	-2.984200	3.162500	-9.436300	27.506823	0.000297	20.833347
2394.649664	-3.011200	3.163600	-9.525900	27.536364	0.000296	20.827033
2395.649250	-3.020500	3.159800	-9.542300	27.506500	0.000297	20.829229
2396.650705	-3.030000	3.159500	-9.571900	27.512007	0.000296	20.806795
2397.649404	-3.003500	3.159100	-9.487500	27.495512	0.000295	20.810588
2398.649349	-2.995200	3.159500	-9.462200	27.457635	0.000295	20.841706
2399.652369	-3.017600	3.159100	-9.531600	27.414647	0.000294	20.816951
2400.650577	-3.029500	3.156100	-9.560300	27.371111	0.000295	20.817725
2401.652946	-2.998800	3.155700	-9.463000	27.334693	0.000294	20.816177
2402.652452	-3.026700	3.154300	-9.545300	27.281801	0.000293	20.821293
2403.651428	-2.991800	3.154700	-9.437200	27.296438	0.000293	20.821792
2404.653782	-3.003300	3.154900	-9.474400	27.286441	0.000293	20.835916
2405.652059	-3.010600	3.152600	-9.490400	27.310108	0.000294	20.825585
2406.650647	-3.035700	3.151200	-9.564800	27.359898	0.000291	20.832522
2407.650731	-3.005900	3.152600	-9.474100	27.386665	0.000292	20.821043
2408.651085	-2.999900	3.153300	-9.458300	27.386788	0.000292	20.842978
2409.651209	-3.005000	3.152200	-9.471200	27.386342	0.000292	20.825934
2410.650933	-2.983100	3.151900	-9.401600	27.360964	0.000290	20.836440
2411.655025	-3.000600	3.150200	-9.451300	27.328342	0.000290	20.833969
2412.653275	-3.032000	3.147900	-9.543500	27.371606	0.000289	20.829128
2413.655206	-3.030400	3.148100	-9.539000	27.391080	0.000293	20.843976
2414.652723	-3.019700	3.147900	-9.505000	27.441287	0.000290	20.823838
2415.653029	-2.992700	3.149000	-9.422800	27.476188	0.000292	20.840457
2416.659100	-3.014400	3.145200	-9.479800	27.488367	0.000289	20.850814
2417.654235	-2.960300	3.147900	-9.316600	27.471450	0.000291	20.844226
2418.655804	-3.001600	3.146500	-9.443400	27.504019	0.000287	20.833844
2419.653051	-3.002800	3.143100	-9.435800	27.495436	0.000288	20.850340
2420.653917	-3.009600	3.144800	-9.463800	27.527607	0.000287	20.824387
2421.654136	-3.017600	3.142800	-9.481800	27.517239	0.000286	20.835766
2422.656513	-2.993600	3.143500	-9.408800	27.494965	0.000288	20.831374
2423.654236	-2.989500	3.143100	-9.395400	27.500893	0.000287	20.845398
2424.654895	-3.030100	3.140000	-9.513900	27.514436	0.000286	20.839584
2425.654513	-3.024300	3.140600	-9.496200	27.504788	0.000287	20.852635
2426.654542	-3.012400	3.139500	-9.456000	27.515726	0.000284	20.837089
2427.659470	-2.978300	3.140200	-9.351400	27.521853	0.000286	20.841356
2428.655196	-2.990500	3.138900	-9.385800	27.512576	0.000286	20.857152
2429.656028	-3.003800	3.137100	-9.422600	27.500596	0.000286	20.840832
2430.654683	-2.995600	3.138900	-9.401900	27.537975	0.000284	20.858999
2431.655973	-2.991800	3.136500	-9.383000	27.543233	0.000284	20.858125
2432.657789	-2.993800	3.137300	-9.391000	27.561960	0.000285	20.862268
2433.654960	-2.984000	3.136900	-9.359100	27.572029	0.000285	20.865761
2434.656800	-3.005400	3.133800	-9.416800	27.613176	0.000282	20.845523
2435.657347	-2.997600	3.133700	-9.391600	27.626321	0.000284	20.883404
2436.658786	-3.003500	3.133800	-9.411600	27.653527	0.000280	20.858624
2437.657860	-3.007200	3.131800	-9.416500	27.653329	0.000283	20.866485
2438.659854	-2.995000	3.131100	-9.376500	27.685718	0.000280	20.863515
2439.658217	-2.997600	3.130700	-9.383000	27.682568	0.000280	20.875044
2440.658185	-3.013500	3.129800	-9.429500	27.672748	0.000282	20.847620
2441.658043	-3.009200	3.129700	-9.416800	27.662381	0.000281	20.855206
2442.661413	-2.988800	3.128600	-9.349400	27.626222	0.000279	20.879511
2443.664356	-2.975600	3.128400	-9.307000	27.575229	0.000279	20.851438
2444.660582	-2.998400	3.127100	-9.375900	27.606926	0.000278	20.864838
2445.660087	-3.013800	3.126600	-9.422100	27.629867	0.000277	20.840034
2446.659373	-3.013300	3.125500	-9.417300	27.648394	0.000277	20.849192
2447.661108	-2.974300	3.127100	-9.300000	27.683659	0.000278	20.851013
2448.662771	-3.006800	3.124400	-9.393500	27.684031	0.000276	20.864663
2449.660658	-3.008200	3.121800	-9.390200	27.753791	0.000276	20.865162
2450.664001	-3.004500	3.122500	-9.380900	27.766761	0.000278	20.887695
2451.660831	-3.021800	3.121300	-9.430400	27.792500	0.000276	20.875668
2452.662830	-3.010200	3.119400	-9.389000	27.747368	0.000276	20.878612
2453.665730	-2.986500	3.120200	-9.317800	27.727256	0.000278	20.856952
2454.662278	-3.015600	3.117600	-9.400100	27.706177	0.000277	20.871775
2455.663870	-2.995100	3.117700	-9.336300	27.715328	0.000274	20.869604
2456.663446	-2.996400	3.116800	-9.337500	27.669399	0.000274	20.891663
2457.662880	-3.006600	3.117300	-9.371100	27.678153	0.000275	20.875343
2458.662783	-2.990700	3.115900	-9.318100	27.688098	0.000273	20.887246
2459.665287	-3.011600	3.114300	-9.377700	27.677632	0.000274	20.861069
2460.663244	-3.014200	3.114200	-9.385900	27.660743	0.000271	20.890539
2461.664916	-2.994100	3.113400	-9.320600	27.706524	0.000271	20.889666
2462.665898	-2.985100	3.113800	-9.293700	27.719047	0.000273	20.863864
2463.665119	-3.018300	3.112000	-9.390900	27.759518	0.000274	20.869977
2464.667665	-2.969400	3.111100	-9.236900	27.777522	0.000274	20.873396
2465.665146	-3.002700	3.109900	-9.337700	27.770603	0.000272	20.894407
2466.667304	-2.986000	3.111100	-9.289000	27.814990	0.000271	20.887869
2467.665132	-2.976700	3.108500	-9.252100	27.836984	0.000271	20.878711
2468.665559	-3.002900	3.106900	-9.327600	27.861334	0.000271	20.901793
2469.665784	-3.022800	3.106300	-9.388500	27.858210	0.000271	20.898174
2470.666304	-3.009300	3.105800	-9.344400	27.864756	0.000273	20.881530
2471.667624	-2.994700	3.105000	-9.297300	27.879757	0.000270	20.880981
2472.665171	-3.013300	3.104700	-9.353800	27.904056	0.000272	20.883152
2473.665846	-2.991500	3.105700	-9.289800	27.866342	0.000271	20.885023
2474.665843	-2.986100	3.102700	-9.262900	27.876310	0.000270	20.894581
2475.668964	-3.014300	3.100200	-9.344000	27.823842	0.000271	20.890139
2476.667661	-3.024400	3.099700	-9.373100	27.803930	0.000272	20.888117
2477.667063	-3.008100	3.099900	-9.324200	27.790614	0.000271	20.873769
2478.666995	-2.999600	3.098300	-9.292400	27.745630	0.000270	20.891087
2479.666329	-3.020000	3.097100	-9.352700	27.747019	0.000270	20.867830
2480.669473	-3.012900	3.095600	-9.325400	27.709449	0.000269	20.901617
2481.667269	-3.000700	3.096600	-9.291100	27.751483	0.000268	20.886071
2482.670401	-2.990000	3.095200	-9.252600	27.753888	0.000271	20.892759
2483.668873	-2.985700	3.094500	-9.238300	27.803235	0.000267	20.876040
2484.668468	-2.988000	3.093700	-9.242800	27.826495	0.000270	20.866732
2485.677409	-3.011100	3.092500	-9.310500	27.804723	0.000268	20.870899
2486.670341	-3.029800	3.091100	-9.364000	27.809658	0.000267	20.874443
2487.670322	-3.002600	3.090200	-9.277400	27.799689	0.000268	20.878635
2488.670179	-2.990400	3.090800	-9.241800	27.792548	0.000267	20.867181
2489.670523	-3.020000	3.087100	-9.322400	27.755351	0.000268	20.872421
2490.670556	-2.986100	3.087500	-9.218600	27.694395	0.000267	20.893582
2491.676313	-3.001300	3.085200	-9.259100	27.661733	0.000265	20.887269
2492.670187	-2.993900	3.086000	-9.238400	27.608833	0.000268	20.857748
2493.670284	-2.984500	3.085400	-9.206800	27.548489	0.000267	20.851560
2494.671371	-3.008900	3.083700	-9.277300	27.550423	0.000267	20.875316
2495.672002	-3.010500	3.084000	-9.283600	27.576590	0.000266	20.849488
2496.675426	-3.021700	3.081400	-9.310100	27.622176	0.000268	20.876389
2497.671489	-2.995500	3.081400	-9.229300	27.657542	0.000265	20.862664
2498.681810	-3.021200	3.080900	-9.306100	27.678399	0.000266	20.856625
2499.674438	-3.034600	3.078100	-9.339700	27.713664	0.000268	20.861292
2500.671399	-3.002300	3.077900	-9.240200	27.760038	0.000265	20.866233
2501.682005	-3.010600	3.077200	-9.263400	27.793688	0.000265	20.849364
2502.671943	-2.988100	3.077500	-9.194000	27.806756	0.000265	20.847816
2503.675314	-2.973400	3.076300	-9.146400	27.749325	0.000264	20.875840
2504.673018	-2.978100	3.074900	-9.156700	27.772263	0.000264	20.846768
2505.673791	-3.006200	3.073900	-9.239600	27.771866	0.000264	20.857274
2506.673035	-2.962000	3.075200	-9.107400	27.763286	0.000265	20.843899
2507.674471	-2.991000	3.070700	-9.183300	27.723162	0.000264	20.830074
2508.674479	-3.001500	3.071300	-9.217200	27.766163	0.000264	20.856276
2509.676278	-3.003900	3.070100	-9.222100	27.766287	0.000263	20.857823
2510.674498	-3.006700	3.068100	-9.224100	27.800507	0.000263	20.849114
2511.673275	-3.006400	3.068000	-9.222500	27.849059	0.000264	20.839182
2512.676535	-2.982100	3.067600	-9.146100	27.873334	0.000265	20.833742
2513.675287	-2.992100	3.065300	-9.170400	27.896939	0.000263	20.820042
2514.682072	-3.005300	3.065000	-9.209200	27.884914	0.000266	20.841129
2515.676517	-2.981100	3.064400	-9.134700	27.872020	0.000262	20.821514
2516.676476	-3.008800	3.062600	-9.213500	27.891311	0.000263	20.868429
2517.677903	-3.002200	3.060800	-9.188700	27.878269	0.000263	20.856251
2518.679944	-2.988600	3.060000	-9.143800	27.839141	0.000263	20.831097
2519.676732	-3.009700	3.058900	-9.205000	27.854143	0.000263	20.824384
2520.681320	-3.037000	3.057200	-9.283700	27.848588	0.000262	20.847243
2521.676964	-2.980800	3.057900	-9.114200	27.834802	0.000265	20.838110
2522.683054	-3.005700	3.056900	-9.187600	27.773032	0.000261	20.836637
2523.681886	-3.012600	3.054900	-9.201900	27.743299	0.000262	20.837536
2524.678350	-3.003600	3.053400	-9.169800	27.709796	0.000262	20.828477
2525.680462	-2.997900	3.052800	-9.151100	27.699604	0.000260	20.814902
2526.679060	-3.000300	3.052100	-9.155300	27.686088	0.000262	20.830224
2527.681492	-2.979700	3.051700	-9.091300	27.739530	0.000261	20.826157
2528.682351	-2.982100	3.051300	-9.098100	27.746548	0.000262	20.838908
2529.680710	-2.968100	3.048700	-9.047600	27.770702	0.000259	20.812481
2530.680939	-2.992500	3.046800	-9.117100	27.790292	0.000261	20.836937
2531.679900	-3.009400	3.045600	-9.163500	27.806534	0.000260	20.822463
2532.681784	-3.008600	3.044700	-9.158900	27.837902	0.000261	20.831747
2533.681393	-3.000500	3.043400	-9.130800	27.856077	0.000263	20.855254
2534.683357	-2.999200	3.044000	-9.128800	27.908445	0.000262	20.832096
2535.684290	-3.003700	3.042100	-9.136700	27.923371	0.000262	20.822464
2536.682865	-3.009600	3.040600	-9.149900	27.899742	0.000261	20.823337
2537.682926	-3.000900	3.039900	-9.121200	27.843630	0.000260	20.809537
2538.687605	-2.986600	3.038700	-9.073400	27.802616	0.000259	20.823262
2539.687407	-2.988800	3.035900	-9.072400	27.813254	0.000261	20.808364
2540.683377	-3.002300	3.035000	-9.111400	27.810601	0.000260	20.834617
2541.684167	-3.015300	3.033500	-9.146100	27.858186	0.000258	20.813755
2542.685324	-3.012800	3.033200	-9.137400	27.874675	0.000261	20.818022
2543.686233	-2.996200	3.032900	-9.086600	27.918785	0.000260	20.818796
2544.688496	-3.032100	3.030400	-9.187100	27.950992	0.000259	20.816600
2545.685638	-2.968400	3.031400	-8.997400	27.947100	0.000261	20.822639
2546.697661	-2.993800	3.028900	-9.067000	27.961406	0.000262	20.819021
2547.686147	-2.995300	3.027000	-9.065200	27.936960	0.000261	20.826183
2548.687973	-2.995900	3.025800	-9.064800	27.948166	0.000261	20.804273
2549.686772	-3.006100	3.026000	-9.095500	27.937084	0.000260	20.795963
2550.686462	-2.999600	3.024500	-9.071200	27.970159	0.000258	20.801278
2551.689366	-2.980900	3.024600	-9.015300	27.995175	0.000261	20.800854
2552.688544	-3.060900	3.021000	-9.245500	28.025099	0.000260	20.804897
2553.689541	-2.998500	3.022300	-9.061300	28.057254	0.000259	20.809289
2554.688828	-2.966700	3.018800	-8.955400	28.047188	0.000260	20.794416
2555.694324	-2.981800	3.018700	-8.999400	28.045428	0.000260	20.805446
2556.689826	-3.008700	3.017100	-9.076400	28.029785	0.000260	20.796812
2557.690739	-3.008700	3.014300	-9.067700	27.991407	0.000260	20.800855
2558.691014	-2.995600	3.015000	-9.030800	28.019670	0.000260	20.803700
2559.691385	-3.006600	3.014300	-9.061700	28.019199	0.000260	20.794217
2560.692900	-3.017200	3.012400	-9.087400	27.989894	0.000260	20.822566
2561.689242	-3.009900	3.010300	-9.059200	27.969614	0.000260	20.801204
2562.693079	-2.981000	3.009800	-8.971300	27.979258	0.000260	20.790997
2563.691918	-3.011000	3.007400	-9.053400	27.960539	0.000258	20.813881
2564.692070	-3.004400	3.007800	-9.035600	27.948936	0.000261	20.816901
2565.693460	-3.020700	3.005700	-9.078500	28.001671	0.000262	20.809764
2566.695567	-2.994800	3.004800	-8.998000	28.014538	0.000259	20.795689
2567.693693	-2.999500	3.003300	-9.007500	28.007943	0.000258	20.784784
2568.692709	-3.012100	3.002500	-9.043500	28.009084	0.000258	20.796363
2569.693140	-3.007200	3.000700	-9.021500	28.023959	0.000260	20.790473
2570.694849	-3.014600	2.998400	-9.038400	28.056907	0.000261	20.811311
2571.696135	-2.984500	2.999500	-8.951000	28.044933	0.000260	20.787404
2572.695640	-2.993800	2.996900	-8.970900	28.033827	0.000260	20.789975
2573.701127	-3.035500	2.995800	-9.093000	28.067072	0.000259	20.790723
2574.696332	-3.011800	2.994400	-9.018000	28.080384	0.000259	20.787529
2575.695829	-3.008500	2.994600	-9.007900	28.100241	0.000258	20.792819
2576.701708	-3.015600	2.991000	-9.018400	28.098060	0.000258	20.805322
2577.696667	-2.974900	2.992300	-8.899900	28.096548	0.000257	20.791472
2578.696846	-3.023200	2.988100	-9.032400	28.110182	0.000260	20.791447
2579.698371	-3.019100	2.987300	-9.017600	28.097391	0.000258	20.793269
2580.697698	-2.992100	2.988400	-8.940800	28.101903	0.000258	20.804449
2581.698144	-2.995000	2.986600	-8.943200	28.138790	0.000257	20.788478
2582.701288	-3.001700	2.984200	-8.956400	28.102076	0.000256	20.787554
2583.699280	-3.008200	2.983400	-8.973500	28.054999	0.000258	20.790424
2584.699246	-2.983500	2.981500	-8.894200	27.969045	0.000257	20.780717
2585.701011	-2.986900	2.979400	-8.897600	27.897241	0.000258	20.792845
2586.699028	-2.979500	2.979400	-8.876200	27.875149	0.000259	20.790525
2587.702126	-2.995200	2.977700	-8.917400	27.849833	0.000256	20.785908
2588.700503	-3.014100	2.975900	-8.968800	27.886108	0.000257	20.784485
2589.701707	-3.009700	2.974400	-8.951200	27.942714	0.000256	20.770810
2590.702716	-2.971800	2.974400	-8.837400	27.920821	0.000257	20.790500
2591.701737	-2.988800	2.973100	-8.884900	27.873290	0.000258	20.783912
2592.703458	-2.991900	2.970800	-8.886300	27.872323	0.000257	20.779619
2593.701862	-3.013200	2.969700	-8.947200	27.853329	0.000256	20.785634
2594.703034	-2.993200	2.967700	-8.881900	27.858908	0.000257	20.791723
2595.703054	-2.983000	2.966100	-8.847100	27.911474	0.000256	20.783937
2596.703840	-3.007500	2.964100	-8.914000	27.976037	0.000256	20.773056
2597.702364	-3.002000	2.963100	-8.894300	28.008119	0.000257	20.802504
2598.707314	-2.981300	2.962000	-8.829400	28.008789	0.000256	20.799385
2599.704159	-2.983600	2.961700	-8.835800	27.962103	0.000257	20.786532
2600.705885	-2.994000	2.958000	-8.855700	27.942071	0.000256	20.763523
2601.704041	-3.007100	2.956400	-8.889900	27.997855	0.000257	20.784112
2602.704668	-3.029500	2.954600	-8.949500	27.992178	0.000258	20.765120
2603.706984	-2.981000	2.956400	-8.811700	28.039308	0.000257	20.768939
2604.704686	-3.025500	2.950500	-8.925500	28.051778	0.000256	20.766793
2605.705782	-2.987800	2.950800	-8.815600	28.025870	0.000254	20.769638
2606.705587	-3.007300	2.949700	-8.869600	28.061620	0.000260	20.786184
2607.709475	-2.992900	2.948100	-8.822500	28.082073	0.000256	20.764572
2608.705776	-3.003400	2.946700	-8.849400	28.081899	0.000260	20.768665
2609.708325	-2.998300	2.945900	-8.831900	28.020987	0.000257	20.773257
2610.705705	-2.999600	2.944600	-8.830300	27.997559	0.000257	20.764373
2611.706437	-2.998900	2.942600	-8.823400	27.979584	0.000257	20.789903
2612.709191	-2.998800	2.940500	-8.817300	27.998947	0.000259	20.768141
2613.708161	-3.014400	2.939400	-8.859600	27.985981	0.000256	20.780220
2614.709412	-2.978500	2.937900	-8.749400	27.963667	0.000255	20.774830
2615.704520	-3.028200	2.935300	-8.886300	27.947552	0.000257	20.783739
2616.705809	-3.030100	2.932200	-8.882800	27.956552	0.000256	20.784263
2617.707070	-3.024900	2.931200	-8.864900	27.987394	0.000257	20.760780
2618.705957	-3.015200	2.931700	-8.838000	28.013154	0.000258	20.744034
2619.707382	-3.028300	2.928300	-8.866700	27.997039	0.000257	20.768591
2620.705695	-3.006100	2.928100	-8.801300	28.054705	0.000255	20.771162
2621.704996	-3.015500	2.925700	-8.821500	28.081008	0.000257	20.757336
2622.705864	-2.966500	2.925000	-8.676900	28.120548	0.000258	20.764424
2623.705378	-3.013100	2.924000	-8.809100	28.148858	0.000256	20.770164
2624.710168	-2.991400	2.922100	-8.740600	28.202054	0.000256	20.772984
2625.706712	-2.999900	2.920500	-8.760500	28.229296	0.000255	20.790453
2626.707806	-3.028100	2.919100	-8.837900	28.243994	0.000256	20.759258
2627.708425	-3.011600	2.916500	-8.782500	28.222975	0.000254	20.759908
2628.710828	-3.022600	2.914700	-8.808900	28.198709	0.000255	20.760607
2629.712599	-3.019000	2.913600	-8.795300	28.208475	0.000254	20.793673
2630.713587	-2.982700	2.913200	-8.688500	28.208971	0.000257	20.761930
2631.709830	-2.976000	2.911500	-8.664100	28.205922	0.000254	20.764076
2632.711077	-3.004100	2.909000	-8.737800	28.210508	0.000256	20.748778
2633.710502	-2.994500	2.907400	-8.705300	28.231206	0.000256	20.759185
2634.711264	-2.968200	2.906100	-8.625300	28.272302	0.000255	20.749827
2635.712973	-2.998400	2.903800	-8.706000	28.298923	0.000257	20.763828
2636.716923	-2.985900	2.902400	-8.665600	28.273740	0.000255	20.768345
2637.711866	-3.023400	2.899800	-8.765900	28.214054	0.000252	20.753771
2638.712090	-2.999000	2.900200	-8.696400	28.174716	0.000255	20.766324
2639.713401	-3.028300	2.894300	-8.763900	28.210039	0.000252	20.758737
2640.714727	-3.008600	2.894600	-8.708100	28.238693	0.000256	20.770043
2641.713689	-2.990900	2.893700	-8.653600	28.223722	0.000253	20.737899
2642.714386	-2.962600	2.892500	-8.568700	28.246873	0.000256	20.748406
2643.713409	-2.976500	2.890200	-8.601700	28.263183	0.000252	20.752973
2644.713914	-3.008000	2.888900	-8.688400	28.320934	0.000252	20.768921
2645.712932	-2.993700	2.885100	-8.636000	28.316547	0.000252	20.763081
2646.715731	-3.029700	2.884000	-8.736400	28.286756	0.000254	20.771018
2647.715349	-2.986800	2.883600	-8.611400	28.251436	0.000252	20.744465
2648.715716	-2.962900	2.881500	-8.536600	28.266159	0.000253	20.749331
2649.714721	-3.002100	2.878200	-8.639900	28.300686	0.000252	20.739524
2650.713926	-3.007200	2.876300	-8.648400	28.286063	0.000254	20.752776
2651.717398	-3.008400	2.876000	-8.651300	28.261971	0.000254	20.746537
2652.715015	-2.973900	2.872600	-8.540500	28.230567	0.000254	20.739575
2653.716946	-2.996400	2.870400	-8.599900	28.202929	0.000253	20.724551
2654.715575	-3.002300	2.867300	-8.607500	28.150205	0.000254	20.753027
2655.716396	-3.002400	2.866300	-8.604500	28.149659	0.000255	20.741098
2656.715288	-3.002600	2.864200	-8.598600	28.151816	0.000256	20.735209
2657.719008	-3.018000	2.861800	-8.635800	28.107617	0.000254	20.751880
2658.717734	-2.977100	2.860900	-8.516400	28.106229	0.000255	20.729144
2659.716211	-2.990300	2.859000	-8.548600	28.124797	0.000253	20.748786
2660.717412	-3.007300	2.856000	-8.588400	28.143786	0.000252	20.734236
2661.715540	-2.994900	2.854600	-8.548200	28.179953	0.000253	20.718489
2662.719127	-2.986200	2.852700	-8.517200	28.194231	0.000254	20.740451
2663.717220	-3.000100	2.849800	-8.549000	28.211732	0.000252	20.727724
2664.721495	-2.986700	2.848500	-8.506100	28.275582	0.000251	20.738430
2665.719661	-2.981900	2.848100	-8.492000	28.292561	0.000253	20.742723
2666.717002	-3.006400	2.844800	-8.551000	28.262819	0.000253	20.736959
2667.719882	-2.993800	2.842900	-8.509900	28.252582	0.000251	20.736609
2668.716103	-2.979600	2.840500	-8.461900	28.247178	0.000253	20.737807
2669.717201	-2.986500	2.839600	-8.479700	28.240065	0.000256	20.737284
2670.716821	-3.001500	2.835600	-8.509900	28.240536	0.000254	20.706462
2671.717090	-2.994900	2.834300	-8.487700	28.193615	0.000254	20.744572
2672.716287	-2.988100	2.832200	-8.461900	28.207149	0.000254	20.718368
2673.718904	-3.019300	2.829300	-8.541800	28.225963	0.000254	20.711230
2674.718528	-3.013100	2.827700	-8.519000	28.262549	0.000251	20.729100
2675.719519	-3.006400	2.824400	-8.490800	28.346150	0.000253	20.710383
2676.720716	-2.958100	2.825400	-8.356800	28.352595	0.000252	20.730623
2677.721290	-3.014400	2.820000	-8.499400	28.348456	0.000254	20.701324
2678.725606	-3.024300	2.818700	-8.523300	28.272192	0.000255	20.716049
2679.722829	-2.993900	2.816400	-8.431600	28.299333	0.000254	20.710659
2680.723322	-2.968700	2.813900	-8.352800	28.313734	0.000255	20.718047
2681.723810	-3.030200	2.811300	-8.517200	28.347640	0.000253	20.710935
2682.724718	-3.015200	2.809200	-8.469300	28.416018	0.000253	20.733796
2683.726090	-2.994400	2.806700	-8.403600	28.436538	0.000255	20.713680
2684.726677	-2.988800	2.803900	-8.379400	28.492495	0.000253	20.701277
2685.740804	-3.009700	2.801900	-8.432600	28.537150	0.000254	20.709264
2686.726410	-2.990700	2.798200	-8.367100	28.558561	0.000255	20.710437
2687.726647	-3.001400	2.796600	-8.392500	28.583811	0.000254	20.712160
2688.730947	-2.964900	2.794900	-8.285300	28.615974	0.000253	20.713258
2689.728602	-3.000500	2.791200	-8.374000	28.660326	0.000255	20.723790
2690.726713	-3.016100	2.789700	-8.412600	28.652943	0.000254	20.708767
2691.727398	-2.997900	2.786800	-8.353800	28.669370	0.000255	20.701604
2692.727703	-3.012100	2.783000	-8.381000	28.643974	0.000254	20.713010
2693.728316	-3.028600	2.780700	-8.420600	28.570432	0.000255	20.724765
2694.730847	-2.999900	2.777900	-8.332200	28.537500	0.000254	20.721945
2695.727840	-2.982100	2.776100	-8.277600	28.517379	0.000253	20.693145
2696.730144	-2.986400	2.774600	-8.284700	28.521815	0.000251	20.709942
2697.727624	-3.007200	2.770100	-8.329000	28.520007	0.000255	20.705749
2698.729652	-3.030400	2.765300	-8.379300	28.526277	0.000254	20.688354
2699.731575	-3.014200	2.763300	-8.328200	28.522089	0.000253	20.714485
2700.729719	-2.995100	2.760700	-8.267300	28.512970	0.000253	20.699611
2701.731791	-3.003600	2.757100	-8.280300	28.497681	0.000255	20.705077
2702.728921	-3.024800	2.754100	-8.330300	28.479641	0.000255	20.700660
2703.728999	-3.000400	2.751200	-8.253000	28.432358	0.000252	20.685760
2704.732216	-3.000300	2.748600	-8.245700	28.429335	0.000253	20.687933
2705.730814	-2.987200	2.746200	-8.202800	28.390947	0.000253	20.706651
2706.730517	-2.988600	2.743300	-8.197400	28.317288	0.000255	20.710719
2707.730909	-3.006500	2.739600	-8.235500	28.300286	0.000254	20.726792
2708.732648	-3.004900	2.735400	-8.218000	28.273047	0.000252	20.702210
2709.731631	-3.011300	2.732300	-8.226500	28.274262	0.000254	20.707227
2710.735980	-2.982200	2.729700	-8.139600	28.275402	0.000253	20.697469
2711.733782	-2.973200	2.727800	-8.109400	28.241272	0.000255	20.719532
2712.738462	-2.996100	2.723200	-8.158100	28.229846	0.000256	20.695224
2713.734173	-2.997800	2.720700	-8.155100	28.247494	0.000255	20.719158
2714.733687	-2.989300	2.716600	-8.118300	28.295183	0.000253	20.712644
2715.739868	-3.003900	2.712500	-8.147200	28.288640	0.000252	20.708427
2716.735150	-3.017500	2.708900	-8.172100	28.290871	0.000253	20.684592
2717.733997	-3.006000	2.707100	-8.136500	28.258872	0.000254	20.704060
2718.735695	-2.983200	2.702300	-8.060900	28.237531	0.000253	20.701540
2719.735928	-3.017600	2.697700	-8.139200	28.214901	0.000254	20.693454
2720.738521	-2.994700	2.694800	-8.068200	28.203127	0.000253	20.696299
2721.739139	-3.003100	2.692200	-8.084400	28.223255	0.000254	20.693803
2722.737064	-2.970400	2.689300	-7.987200	28.289063	0.000252	20.698421
2723.736318	-3.016500	2.681000	-8.086400	28.313328	0.000254	20.707680
2724.737868	-2.979900	2.679100	-7.982200	28.338683	0.000254	20.716615
2725.736436	-3.003400	2.675600	-8.034900	28.401833	0.000254	20.704337
2726.739194	-3.021100	2.672100	-8.072400	28.443294	0.000254	20.717165
2727.736379	-2.991900	2.668000	-7.981600	28.494940	0.000253	20.726974
2728.737905	-3.027600	2.662800	-8.059800	28.548292	0.000252	20.707208
2729.737938	-3.004800	2.660200	-7.992600	28.565687	0.000255	20.697225
2730.739791	-2.975700	2.655700	-7.902200	28.589104	0.000253	20.706110
2731.740902	-3.015900	2.650900	-7.993700	28.611206	0.000253	20.691859
2732.739439	-2.991700	2.646000	-7.914600	28.651718	0.000253	20.707059
2733.738443	-3.005500	2.642900	-7.941200	28.672160	0.000253	20.713424
2734.740499	-2.994200	2.639300	-7.901500	28.666312	0.000252	20.707534
2735.739630	-2.998200	2.635100	-7.899200	28.660688	0.000253	20.723681
2736.739318	-3.026500	2.628700	-7.954300	28.649241	0.000252	20.724954
2737.741215	-2.983700	2.625300	-7.831400	28.634722	0.000253	20.716020
2738.739045	-3.001600	2.618800	-7.859400	28.621145	0.000253	20.725579
2739.742232	-2.993100	2.615200	-7.826400	28.643048	0.000254	20.703068
2740.740786	-2.993800	2.610600	-7.814700	28.669535	0.000254	20.718367
2741.738826	-2.986300	2.605400	-7.779400	28.701943	0.000253	20.724457
2742.743475	-2.970100	2.600800	-7.724100	28.718840	0.000254	20.713026
2743.740873	-3.009200	2.595400	-7.809100	28.784742	0.000252	20.712553
2744.743754	-2.995600	2.590200	-7.758200	28.791901	0.000253	20.695107
2745.740892	-3.027700	2.583800	-7.821700	28.805379	0.000252	20.706314
2746.739847	-2.993800	2.578800	-7.718800	28.849574	0.000253	20.717645
2747.740188	-3.026300	2.572700	-7.785000	28.883909	0.000252	20.699127
2748.744406	-3.024500	2.565900	-7.759000	28.921388	0.000253	20.695633
2749.741388	-3.006900	2.561700	-7.702100	28.953144	0.000253	20.714351
2750.742790	-3.001100	2.557600	-7.674200	28.959213	0.000253	20.692488
2751.747835	-2.987900	2.551100	-7.621100	28.963449	0.000254	20.705292
2752.742406	-2.977300	2.547000	-7.582100	28.981753	0.000253	20.701923
2753.745482	-2.969400	2.539500	-7.539700	29.016727	0.000256	20.700649
2754.741651	-3.005900	2.532900	-7.612800	29.021087	0.000254	20.734442
2755.746934	-3.008700	2.527200	-7.602300	29.022226	0.000254	20.716622
2756.741119	-3.005400	2.520400	-7.573100	29.005086	0.000253	20.714052
2757.741798	-2.998300	2.515100	-7.540100	29.006647	0.000254	20.717521
2758.743042	-3.015700	2.509900	-7.567200	29.024209	0.000253	20.706291
2759.742600	-2.993000	2.503300	-7.491200	29.000231	0.000254	20.721015
2760.743579	-2.980600	2.496900	-7.441000	28.965530	0.000254	20.691267
