LabVIEW Measurement	
Writer_Version	2
Reader_Version	2
Separator	Tab
Decimal_Separator	.
Multi_Headings	No
X_Columns	One
Time_Pref	Absolute
Operator	admin
Description	Clolumns are: time, Current, Voltage, Power, Battery Temp, and Chamber Temp
Date	2024/08/16
Time	13:06:06.104549407958984375
***End_of_Header***	
	
Channels	6						
Samples	1	1	1	1	1	1	
Date	2024/09/12	2024/09/12	2024/09/12	2024/09/12	2024/09/12	2024/09/12	
Time	15:30:17.9898991584777832032	15:30:17.995532989501953125	15:30:18.002422332763671875	15:30:17.9744305610656738282	15:30:17.9744305610656738282	15:30:17.9744305610656738282	
X_Dimension	Time	Time	Time	Time	Time	Time	
X0	0.0000000000000000E+0	0.0000000000000000E+0	0.0000000000000000E+0	0.0000000000000000E+0	0.0000000000000000E+0	0.0000000000000000E+0	
Delta_X	1.000000	1.000000	1.000000	1.000000	1.000000	1.000000	
***End_of_Header***							
X_Value	Untitled	Untitled 1	Untitled 2	Untitled 3	Untitled 4	Untitled 5	Comment
0.000000	-0.000911	4.092400	-0.003850	21.036000	0.000919	20.830242
1.000509	-3.013400	3.915400	-11.797000	21.014045	0.000921	20.861860
2.007573	-3.015200	3.908300	-11.783000	21.020406	0.000918	20.857317
3.000465	-2.997000	3.903600	-11.699000	21.028341	0.000920	20.860038
4.003091	-3.029700	3.898700	-11.810000	21.034450	0.000917	20.868045
5.005868	-2.999700	3.897600	-11.691000	21.032756	0.000918	20.820359
6.004269	-2.996400	3.893900	-11.665000	21.034249	0.000917	20.869739
7.004980	-3.013800	3.891300	-11.727000	21.030839	0.000916	20.838355
8.009484	-3.011700	3.888500	-11.710000	21.046129	0.000913	20.847010
9.005597	-2.997000	3.887600	-11.650000	21.031482	0.000913	20.867447
10.003737	-2.994500	3.884800	-11.631000	21.059649	0.000914	20.870964
11.002193	-3.011100	3.884000	-11.695000	21.053866	0.000912	20.851903
12.009799	-2.981200	3.882200	-11.572000	21.043086	0.000909	20.873363
13.002392	-2.994800	3.880300	-11.618000	21.067836	0.000910	20.851652
14.018490	-2.991800	3.881000	-11.609000	21.077119	0.000910	20.864255
15.003863	-2.990200	3.879600	-11.600000	21.066212	0.000910	20.871838
16.005493	-2.990000	3.877100	-11.591000	21.072173	0.000907	20.872584
17.002744	-2.992100	3.876000	-11.595000	21.093083	0.000909	20.869318
18.007533	-2.999300	3.874000	-11.618000	21.096228	0.000907	20.875783
19.006302	-3.012300	3.873800	-11.668000	21.082152	0.000906	20.867393
20.009295	-2.984200	3.873300	-11.557000	21.104506	0.000905	20.859882
21.008714	-2.995500	3.872400	-11.599000	21.081303	0.000906	20.878871
22.009487	-3.025200	3.870900	-11.709000	21.125214	0.000907	20.864474
23.009723	-2.993100	3.872200	-11.589000	21.129460	0.000904	20.887685
24.013113	-2.982100	3.872000	-11.546000	21.111167	0.000904	20.868441
25.015572	-3.008700	3.869500	-11.642000	21.120524	0.000903	20.852671
26.010353	-3.010100	3.870600	-11.649000	21.134921	0.000902	20.878925
27.010549	-3.008000	3.867600	-11.633000	21.160090	0.000904	20.849575
28.007810	-2.993200	3.867500	-11.575000	21.152707	0.000903	20.891499
29.012019	-2.982200	3.867100	-11.531000	21.153177	0.000904	20.879643
30.009188	-2.999900	3.866000	-11.597000	21.163337	0.000900	20.859935
31.014534	-2.995000	3.864800	-11.574000	21.169170	0.000902	20.885682
32.015388	-2.992400	3.864400	-11.562000	21.175661	0.000900	20.875107
33.015426	-3.013500	3.863900	-11.642000	21.187606	0.000900	20.882314
34.011463	-3.008000	3.863900	-11.622000	21.187907	0.000901	20.877874
35.020993	-3.003800	3.863100	-11.603000	21.191872	0.000899	20.870935
36.021171	-2.994700	3.861500	-11.562000	21.191724	0.000900	20.875054
37.011760	-3.017400	3.861100	-11.649000	21.221688	0.000901	20.883217
38.017727	-2.992200	3.860200	-11.549000	21.228575	0.000902	20.890580
39.012104	-2.977300	3.862800	-11.500000	21.237506	0.000897	20.894772
40.024989	-3.007000	3.861600	-11.611000	21.222013	0.000902	20.875482
41.015478	-3.011400	3.859500	-11.621000	21.247760	0.000898	20.875160
42.027250	-2.998700	3.860000	-11.574000	21.252525	0.000899	20.872340
43.015990	-3.008400	3.859300	-11.609000	21.251032	0.000898	20.879856
44.014011	-2.977200	3.860000	-11.490000	21.263677	0.000899	20.872592
45.023852	-3.017200	3.858000	-11.640000	21.266871	0.000898	20.880528
46.020851	-3.005000	3.857100	-11.590000	21.296405	0.000900	20.885418
47.016102	-2.990500	3.857300	-11.534000	21.265849	0.000898	20.870971
48.017242	-3.024800	3.855600	-11.660000	21.300324	0.000898	20.878908
49.014800	-3.024000	3.855100	-11.656000	21.310528	0.000898	20.855453
50.018418	-2.985400	3.856800	-11.513000	21.297134	0.000897	20.879983
51.019175	-2.990100	3.856300	-11.530000	21.314868	0.000898	20.890138
52.018027	-2.975200	3.856300	-11.472000	21.309732	0.000898	20.887845
53.018238	-2.988200	3.855400	-11.521000	21.315494	0.000899	20.899772
54.016576	-2.993300	3.855700	-11.539000	21.348447	0.000898	20.914247
55.016162	-3.008600	3.854400	-11.594000	21.350820	0.000898	20.889597
56.020819	-3.002600	3.852600	-11.566000	21.351595	0.000899	20.879942
57.022134	-3.014200	3.854300	-11.615000	21.360871	0.000898	20.903920
58.023574	-2.997700	3.853800	-11.552000	21.384893	0.000898	20.869635
59.028981	-3.014700	3.853200	-11.615000	21.393576	0.000896	20.887329
60.029993	-2.993000	3.852900	-11.530000	21.397791	0.000897	20.898659
61.026552	-2.998100	3.852800	-11.549000	21.399419	0.000898	20.893175
62.025086	-3.018200	3.853700	-11.630000	21.396674	0.000898	20.889007
63.028448	-3.006700	3.851400	-11.577000	21.382910	0.000898	20.885193
64.018609	-2.970100	3.853800	-11.445000	21.439205	0.000899	20.879405
65.020850	-3.018300	3.851200	-11.623000	21.446367	0.000897	20.899845
66.021646	-3.003900	3.850800	-11.566000	21.406011	0.000898	20.888392
67.026045	-2.978000	3.850800	-11.466000	21.452478	0.000897	20.896003
68.024796	-3.013500	3.850100	-11.601000	21.462532	0.000900	20.888045
69.026987	-3.001100	3.849800	-11.553000	21.467720	0.000897	20.904141
70.027222	-2.985700	3.851200	-11.497000	21.471140	0.000900	20.893813
71.022743	-3.012400	3.851500	-11.601000	21.474956	0.000898	20.900475
72.032285	-2.997300	3.849100	-11.535000	21.472739	0.000899	20.902524
73.020016	-2.994400	3.849200	-11.524000	21.485410	0.000899	20.901926
74.025383	-3.011900	3.848400	-11.589000	21.494191	0.000898	20.897911
75.023724	-2.990100	3.849000	-11.508000	21.512823	0.000897	20.888581
76.024856	-3.003300	3.847500	-11.554000	21.523846	0.000897	20.895816
77.018850	-3.001600	3.848200	-11.548000	21.530158	0.000899	20.920622
78.023202	-3.024100	3.846700	-11.632000	21.548564	0.000899	20.886412
79.031491	-2.996600	3.847400	-11.529000	21.545049	0.000899	20.915135
80.025007	-2.985000	3.847700	-11.484000	21.549038	0.000898	20.920074
81.032175	-2.998100	3.845700	-11.529000	21.544353	0.000898	20.922498
82.021757	-2.998100	3.846600	-11.530000	21.559739	0.000897	20.916557
83.028859	-3.020300	3.847100	-11.619000	21.568898	0.000899	20.904387
84.022388	-2.988700	3.846200	-11.494000	21.553360	0.000898	20.915390
85.025408	-3.003500	3.845300	-11.548000	21.597253	0.000899	20.897201
86.022362	-3.001400	3.845300	-11.541000	21.606606	0.000900	20.893758
87.027095	-2.993000	3.845300	-11.508000	21.613788	0.000899	20.907107
88.025381	-3.015500	3.844900	-11.594000	21.612147	0.000898	20.904044
89.026811	-2.991100	3.845100	-11.500000	21.621022	0.000898	20.899649
90.024564	-3.009000	3.843300	-11.563000	21.628035	0.000900	20.887701
91.026448	-3.026200	3.843300	-11.629000	21.653772	0.000900	20.910137
92.025783	-2.993600	3.843500	-11.504000	21.658865	0.000900	20.894371
93.025790	-2.982300	3.844000	-11.463000	21.667747	0.000900	20.893778
94.029839	-3.020700	3.842000	-11.604000	21.650937	0.000901	20.901611
95.024521	-3.007300	3.842500	-11.554000	21.654604	0.000901	20.890108
96.030174	-2.990200	3.843000	-11.490000	21.651963	0.000900	20.892207
97.029004	-2.995000	3.842600	-11.507000	21.649545	0.000900	20.886468
98.032787	-2.989100	3.842200	-11.483000	21.690373	0.000901	20.901247
99.028060	-2.993000	3.843100	-11.500000	21.688997	0.000901	20.875691
100.029181	-3.006500	3.842600	-11.552000	21.684539	0.000901	20.886875
101.031206	-3.001400	3.842000	-11.530000	21.693817	0.000902	20.899004
102.033375	-3.002200	3.841300	-11.532000	21.705319	0.000901	20.881594
103.029285	-2.982300	3.841200	-11.453000	21.716315	0.000902	20.904450
104.035903	-3.013400	3.841000	-11.573000	21.735493	0.000902	20.871015
105.037821	-2.992900	3.839700	-11.491000	21.721757	0.000902	20.877656
106.031297	-2.993500	3.840200	-11.495000	21.737272	0.000904	20.883700
107.030657	-3.007600	3.840100	-11.549000	21.731212	0.000901	20.899445
108.037877	-2.987700	3.841300	-11.476000	21.737502	0.000903	20.854535
109.033483	-2.988600	3.841300	-11.479000	21.772210	0.000903	20.890218
110.040765	-3.019300	3.838700	-11.589000	21.750442	0.000904	20.878390
111.033972	-2.980100	3.841000	-11.445000	21.779597	0.000905	20.877697
112.037379	-3.002700	3.839200	-11.526000	21.763443	0.000905	20.892823
113.037357	-3.016000	3.838800	-11.577000	21.780873	0.000905	20.857165
114.035145	-2.974700	3.841200	-11.424000	21.784816	0.000906	20.871067
115.035530	-3.005000	3.836800	-11.526000	21.785940	0.000904	20.867925
116.033674	-2.993500	3.838100	-11.488000	21.776267	0.000907	20.862986
117.035414	-2.996300	3.838300	-11.500000	21.802950	0.000906	20.876888
118.033469	-2.997700	3.836900	-11.500000	21.812350	0.000908	20.877762
119.034444	-2.966200	3.839700	-11.387000	21.824926	0.000906	20.856212
120.034704	-2.979400	3.836800	-11.430000	21.804852	0.000907	20.867888
121.035659	-3.002100	3.836600	-11.516000	21.820111	0.000908	20.848547
122.035438	-2.989500	3.838100	-11.473000	21.810290	0.000909	20.864796
123.038033	-3.005300	3.837000	-11.530000	21.835851	0.000908	20.884688
124.039510	-3.000100	3.835700	-11.506000	21.807007	0.000911	20.883793
125.033119	-2.990000	3.836400	-11.469000	21.817503	0.000911	20.871540
126.040860	-2.995500	3.835100	-11.486000	21.840868	0.000909	20.868374
127.034350	-2.981900	3.835300	-11.436000	21.837750	0.000913	20.869046
128.037424	-2.998100	3.834400	-11.494000	21.858420	0.000912	20.848485
129.034524	-2.991700	3.834500	-11.470000	21.856526	0.000911	20.865080
130.036844	-2.994300	3.836100	-11.486000	21.903522	0.000913	20.831515
131.037954	-3.004900	3.833800	-11.519000	21.892256	0.000914	20.867652
132.040795	-2.996000	3.834100	-11.485000	21.870589	0.000915	20.871569
133.036896	-3.011100	3.833500	-11.541000	21.898212	0.000914	20.839951
134.040982	-3.001200	3.834300	-11.506000	21.907863	0.000917	20.865257
135.035591	-2.990900	3.833600	-11.465000	21.910656	0.000916	20.859992
136.036891	-2.998900	3.833500	-11.495000	21.916019	0.000913	20.869153
137.041099	-2.994800	3.834300	-11.482000	21.916814	0.000916	20.850984
138.036291	-2.998500	3.832500	-11.491000	21.943114	0.000915	20.864507
139.041774	-2.994600	3.834000	-11.480000	21.981576	0.000915	20.852748
140.038184	-3.001600	3.833700	-11.505000	21.983075	0.000917	20.842870
141.037292	-3.001800	3.833000	-11.504000	21.996511	0.000917	20.861060
142.043122	-3.009400	3.832100	-11.532000	21.994711	0.000915	20.841716
143.039231	-3.014900	3.831700	-11.550000	22.008600	0.000915	20.834756
144.036846	-2.999100	3.831800	-11.490000	21.995362	0.000918	20.852324
145.040044	-2.997900	3.831100	-11.484000	22.013036	0.000916	20.866696
146.038738	-2.976400	3.832500	-11.406000	22.013859	0.000917	20.852348
147.039147	-3.003500	3.831000	-11.503000	22.030989	0.000917	20.837254
148.040461	-3.003700	3.829700	-11.501000	22.031409	0.000917	20.838623
149.038960	-2.990100	3.831300	-11.454000	22.048283	0.000918	20.848877
150.039765	-2.982400	3.830800	-11.424000	22.045618	0.000919	20.839572
151.041019	-2.998900	3.829800	-11.485000	22.049807	0.000919	20.843765
152.044065	-2.996100	3.828800	-11.470000	22.064292	0.000917	20.848308
153.043683	-3.016000	3.828500	-11.544000	22.046767	0.000918	20.837403
154.042925	-3.012900	3.827800	-11.532000	22.056265	0.000921	20.843117
155.043178	-2.998300	3.830000	-11.482000	22.079699	0.000920	20.831490
156.042318	-2.983100	3.829100	-11.420000	22.048542	0.000920	20.852455
157.040872	-3.001100	3.828200	-11.487000	22.072199	0.000920	20.835836
158.052838	-3.021300	3.827600	-11.564000	22.089402	0.000921	20.850687
159.043259	-3.010400	3.828300	-11.523000	22.079831	0.000922	20.836838
160.044467	-2.997300	3.827600	-11.472000	22.089155	0.000918	20.836215
161.044286	-3.010300	3.826600	-11.516000	22.101872	0.000921	20.838990
162.046925	-3.005300	3.826900	-11.501000	22.134629	0.000923	20.843809
163.043907	-2.997600	3.828000	-11.473000	22.146119	0.000922	20.839192
164.045958	-3.000600	3.827400	-11.483000	22.133509	0.000923	20.835576
165.043976	-3.018100	3.825800	-11.545000	22.148817	0.000924	20.831935
166.048524	-3.009900	3.826000	-11.515000	22.146350	0.000923	20.851276
167.045622	-3.003100	3.826000	-11.488000	22.129547	0.000923	20.828765
168.044816	-3.002500	3.826300	-11.487000	22.158865	0.000924	20.838676
169.050093	-3.017700	3.824900	-11.541000	22.138027	0.000925	20.833935
170.048344	-3.003900	3.825300	-11.489000	22.134913	0.000927	20.837456
171.046398	-3.000200	3.825000	-11.474000	22.151316	0.000927	20.821636
172.046893	-3.011800	3.825400	-11.521000	22.151193	0.000926	20.817245
173.045158	-3.000000	3.825100	-11.475000	22.170688	0.000929	20.832021
174.045314	-3.011800	3.823700	-11.514000	22.180090	0.000928	20.820572
175.047503	-2.970200	3.825500	-11.361000	22.190183	0.000928	20.824513
176.046930	-2.985700	3.825700	-11.421000	22.197439	0.000929	20.838416
177.047019	-3.000300	3.824100	-11.472000	22.227525	0.000929	20.814012
178.046590	-3.008100	3.822100	-11.497000	22.225083	0.000927	20.825317
179.048728	-2.989800	3.823300	-11.430000	22.230622	0.000930	20.823276
180.049595	-2.978100	3.823900	-11.387000	22.243313	0.000931	20.822233
181.053742	-2.979600	3.824200	-11.394000	22.252438	0.000931	20.818094
182.051049	-2.996700	3.823700	-11.457000	22.260736	0.000931	20.825927
183.052671	-2.999600	3.822800	-11.465000	22.259121	0.000931	20.837113
184.057587	-2.983700	3.823300	-11.406000	22.252788	0.000933	20.824134
185.058870	-2.992400	3.821900	-11.435000	22.262416	0.000931	20.815756
186.049539	-2.995800	3.821500	-11.448000	22.262691	0.000935	20.810342
187.053073	-3.007400	3.821600	-11.492000	22.260077	0.000936	20.811991
188.053525	-2.995700	3.822200	-11.449000	22.248415	0.000935	20.814065
189.052534	-2.993800	3.820200	-11.436000	22.269650	0.000934	20.809724
190.061427	-2.997000	3.821500	-11.451000	22.268279	0.000935	20.806928
191.057308	-2.982600	3.822700	-11.400000	22.285010	0.000933	20.818464
192.056448	-3.009500	3.821400	-11.500000	22.310634	0.000936	20.802397
193.059756	-3.030200	3.819800	-11.574000	22.306969	0.000936	20.828599
194.057299	-3.002800	3.820000	-11.469000	22.328080	0.000937	20.824608
195.057344	-2.993600	3.820400	-11.435000	22.312882	0.000937	20.819821
196.060400	-3.014000	3.820200	-11.512000	22.342290	0.000938	20.803749
197.057530	-3.007300	3.820100	-11.487000	22.338975	0.000938	20.816077
198.060179	-2.995900	3.819200	-11.440000	22.366842	0.000937	20.804627
199.056386	-3.015100	3.816800	-11.508000	22.331980	0.000939	20.808598
200.056102	-3.019400	3.817600	-11.525000	22.361864	0.000939	20.811496
201.065823	-2.992200	3.819100	-11.426000	22.376069	0.000940	20.806281
202.057492	-3.020900	3.818700	-11.533000	22.368094	0.000941	20.799717
203.059255	-3.009500	3.818200	-11.490000	22.354737	0.000942	20.801040
204.057740	-3.024700	3.817100	-11.545000	22.387565	0.000940	20.828223
205.058617	-3.003700	3.817200	-11.465000	22.395816	0.000942	20.814201
206.057278	-3.011700	3.817600	-11.497000	22.417251	0.000943	20.819544
207.060268	-2.998000	3.817400	-11.444000	22.396294	0.000942	20.805196
208.056432	-3.005200	3.817400	-11.472000	22.416304	0.000945	20.810061
209.056301	-3.007800	3.815400	-11.475000	22.411898	0.000944	20.807072
210.063155	-2.992900	3.817000	-11.423000	22.426305	0.000944	20.797317
211.057413	-2.991500	3.816900	-11.417000	22.421418	0.000944	20.807122
212.062348	-2.999100	3.814500	-11.438000	22.423390	0.000946	20.786337
213.055732	-3.001300	3.815400	-11.451000	22.407971	0.000944	20.797449
214.058118	-3.013900	3.814000	-11.493000	22.422925	0.000946	20.800096
215.057423	-2.978300	3.814500	-11.359000	22.451140	0.000946	20.793738
216.059927	-2.992300	3.815000	-11.414000	22.433543	0.000946	20.807410
217.059756	-2.989700	3.814400	-11.404000	22.455775	0.000945	20.797433
218.057832	-2.985000	3.813600	-11.382000	22.462202	0.000947	20.802920
219.056917	-3.009100	3.813100	-11.472000	22.455952	0.000949	20.807093
220.057423	-2.988100	3.814600	-11.397000	22.479601	0.000948	20.794740
221.058458	-2.994600	3.813900	-11.420000	22.493311	0.000948	20.811315
222.056704	-2.990900	3.814600	-11.408000	22.496703	0.000949	20.804755
223.058034	-3.007300	3.812600	-11.465000	22.517234	0.000947	20.812515
224.056043	-3.003800	3.813000	-11.452000	22.522071	0.000952	20.808351
225.061818	-2.998700	3.812700	-11.432000	22.536126	0.000952	20.757467
226.056708	-2.988500	3.812100	-11.392000	22.523224	0.000950	20.789116
227.057252	-2.990900	3.813100	-11.404000	22.540095	0.000950	20.765235
228.058406	-2.998900	3.810800	-11.427000	22.549518	0.000951	20.771828
229.057614	-2.978900	3.811400	-11.353000	22.573589	0.000953	20.785505
230.064433	-3.005200	3.812000	-11.454000	22.544862	0.000952	20.769536
231.059366	-3.021600	3.809900	-11.511000	22.572473	0.000953	20.806199
232.060082	-3.000600	3.811700	-11.436000	22.564853	0.000954	20.797144
233.058600	-3.018600	3.810500	-11.501000	22.566426	0.000954	20.784495
234.062062	-3.004100	3.810400	-11.446000	22.569567	0.000952	20.782899
235.059157	-3.016100	3.810600	-11.491000	22.604328	0.000955	20.794007
236.059071	-3.009000	3.810400	-11.464000	22.573087	0.000955	20.794959
237.060569	-3.002200	3.808800	-11.434000	22.591830	0.000954	20.770583
238.059190	-3.004300	3.810200	-11.446000	22.589833	0.000957	20.762420
239.063896	-2.984400	3.810000	-11.370000	22.595198	0.000957	20.782491
240.060890	-2.993200	3.808300	-11.398000	22.619070	0.000957	20.793125
241.065445	-3.016900	3.808700	-11.489000	22.609626	0.000956	20.759958
242.062131	-2.982500	3.808300	-11.357000	22.639652	0.000957	20.772963
243.061499	-2.998700	3.809000	-11.420000	22.620897	0.000958	20.769351
244.063072	-2.993300	3.808400	-11.399000	22.650400	0.000958	20.774245
245.062703	-3.014800	3.809100	-11.482000	22.632164	0.000960	20.755031
246.063351	-2.997700	3.806200	-11.408000	22.651174	0.000959	20.781659
247.060887	-3.009700	3.806900	-11.456000	22.647539	0.000958	20.774225
248.061350	-2.979600	3.809900	-11.350000	22.641567	0.000960	20.773932
249.062202	-2.990500	3.807600	-11.386000	22.654348	0.000961	20.765871
250.066747	-3.012600	3.806200	-11.464000	22.677169	0.000962	20.757435
251.066181	-3.005900	3.805600	-11.438000	22.686838	0.000963	20.776604
252.064037	-3.009700	3.806200	-11.453000	22.685122	0.000963	20.768721
253.063959	-3.017700	3.807700	-11.490000	22.706979	0.000963	20.777338
254.066645	-2.973900	3.807100	-11.321000	22.728754	0.000964	20.784451
255.068177	-2.986400	3.806600	-11.367000	22.718319	0.000966	20.780637
256.065356	-2.974400	3.805700	-11.319000	22.741411	0.000967	20.773895
257.064809	-2.991500	3.805700	-11.383000	22.734911	0.000964	20.769756
258.066015	-3.018200	3.803000	-11.477000	22.738204	0.000967	20.779219
259.065650	-2.998300	3.804700	-11.407000	22.738855	0.000967	20.768016
260.072773	-3.006700	3.804800	-11.439000	22.737838	0.000967	20.775533
261.067195	-3.020100	3.803600	-11.486000	22.768906	0.000967	20.764454
262.073143	-3.000400	3.803400	-11.411000	22.778426	0.000965	20.769723
263.068211	-3.018700	3.801700	-11.475000	22.776809	0.000969	20.744869
264.067551	-2.998500	3.805000	-11.409000	22.802871	0.000969	20.755804
265.071517	-2.985800	3.803400	-11.355000	22.771030	0.000969	20.762788
266.073246	-3.001500	3.802300	-11.410000	22.787857	0.000970	20.758781
267.069308	-2.991500	3.803100	-11.376000	22.797570	0.000969	20.756183
268.070443	-3.005900	3.800400	-11.423000	22.776995	0.000970	20.765444
269.069422	-3.005300	3.802500	-11.426000	22.786569	0.000971	20.777406
270.069416	-2.978900	3.801900	-11.324000	22.785252	0.000973	20.763758
271.071803	-3.000100	3.801700	-11.405000	22.789265	0.000972	20.755450
272.071125	-3.001300	3.800200	-11.404000	22.781893	0.000971	20.760868
273.074519	-3.003200	3.800100	-11.411000	22.771933	0.000972	20.748045
274.071103	-3.016800	3.801300	-11.467000	22.786157	0.000975	20.758976
275.072654	-3.008000	3.800900	-11.432000	22.810050	0.000974	20.757306
276.077245	-3.000200	3.799700	-11.399000	22.793760	0.000973	20.745254
277.074283	-3.018400	3.799500	-11.467000	22.791723	0.000974	20.752222
278.078432	-3.003700	3.799200	-11.411000	22.786590	0.000974	20.763676
279.072391	-3.010600	3.800500	-11.440000	22.820451	0.000976	20.754449
280.075200	-3.022700	3.798700	-11.481000	22.816739	0.000975	20.757842
281.072641	-3.015400	3.798100	-11.452000	22.835104	0.000976	20.752532
282.074179	-3.002000	3.798600	-11.403000	22.836799	0.000977	20.761817
283.073658	-3.018000	3.798900	-11.462000	22.858526	0.000977	20.742331
284.073504	-2.997700	3.797900	-11.384000	22.851229	0.000978	20.746401
285.074083	-3.031100	3.797300	-11.509000	22.866054	0.000978	20.751770
286.072550	-3.012100	3.796700	-11.435000	22.869564	0.000979	20.769038
287.081579	-3.006300	3.797400	-11.415000	22.877664	0.000979	20.744909
288.074911	-2.991200	3.796300	-11.355000	22.905292	0.000979	20.752199
289.077128	-3.019700	3.796200	-11.463000	22.905819	0.000980	20.753201
290.075650	-3.027300	3.794600	-11.486000	22.905345	0.000979	20.759365
291.080600	-2.995300	3.796600	-11.371000	22.913519	0.000980	20.745742
292.082508	-2.990200	3.796700	-11.352000	22.924256	0.000980	20.738007
293.079780	-2.992200	3.796600	-11.359000	22.925483	0.000980	20.750616
294.080667	-2.998500	3.794700	-11.377000	22.948944	0.000981	20.743301
295.079280	-2.998800	3.794500	-11.378000	22.975274	0.000980	20.766363
296.081990	-3.002300	3.795100	-11.393000	22.995278	0.000982	20.729979
297.076014	-2.987700	3.795800	-11.340000	22.981455	0.000983	20.752167
298.084937	-2.985900	3.795300	-11.332000	22.983303	0.000982	20.754967
299.078108	-3.010100	3.794800	-11.421000	22.981064	0.000984	20.722851
300.083242	-3.002900	3.793500	-11.391000	23.013565	0.000982	20.732656
301.079766	-2.990900	3.793900	-11.346000	22.989307	0.000984	20.730635
302.084263	-3.021000	3.792000	-11.454000	22.995784	0.000984	20.733332
303.082560	-3.003300	3.793100	-11.389000	22.963130	0.000983	20.721952
304.081817	-2.989800	3.792200	-11.337000	22.957978	0.000986	20.727696
305.081401	-2.996100	3.793800	-11.366000	22.982065	0.000985	20.734759
306.080358	-2.994100	3.791900	-11.352000	22.964382	0.000985	20.741699
307.080396	-2.988700	3.791900	-11.332000	22.977760	0.000986	20.720489
308.080227	-2.996000	3.791700	-11.359000	22.969715	0.000988	20.734714
309.082750	-2.992300	3.790500	-11.341000	23.013579	0.000988	20.749739
310.082553	-2.987200	3.792600	-11.329000	23.002270	0.000989	20.733667
311.085797	-3.010100	3.791100	-11.411000	23.008303	0.000988	20.749669
312.086124	-2.996400	3.791600	-11.359000	23.052017	0.000989	20.745105
313.087151	-3.007600	3.790000	-11.398000	23.048034	0.000989	20.733053
314.092259	-2.985200	3.791100	-11.316000	23.033586	0.000990	20.740388
315.091227	-3.012600	3.790600	-11.419000	23.044179	0.000991	20.738199
316.093534	-2.999600	3.790100	-11.366000	23.070481	0.000993	20.751278
317.086054	-2.971900	3.789100	-11.260000	23.048364	0.000993	20.738125
318.089809	-2.981200	3.789900	-11.297000	23.068469	0.000993	20.728873
319.094409	-3.001200	3.787800	-11.366000	23.068070	0.000994	20.720412
320.086334	-3.001300	3.789200	-11.371000	23.078757	0.000994	20.727327
321.086535	-3.010000	3.787300	-11.398000	23.109523	0.000994	20.747251
322.087257	-2.997300	3.789000	-11.355000	23.140902	0.000995	20.733174
323.086954	-3.003100	3.787500	-11.373000	23.119440	0.000997	20.749127
324.087208	-2.991500	3.788300	-11.331000	23.119465	0.000997	20.735875
325.091778	-2.997200	3.787500	-11.351000	23.113885	0.000995	20.740242
326.090601	-2.980800	3.787800	-11.289000	23.118473	0.000995	20.750055
327.089527	-3.001100	3.787500	-11.365000	23.101986	0.000995	20.736378
328.087183	-2.996000	3.787900	-11.346000	23.122490	0.000996	20.741752
329.089461	-3.006700	3.787300	-11.386000	23.121745	0.000998	20.728203
330.094403	-3.004500	3.786000	-11.374000	23.136517	0.000997	20.737315
331.087636	-3.000400	3.787000	-11.361000	23.151038	0.000998	20.720571
332.088419	-3.005400	3.784800	-11.373000	23.133608	0.000997	20.723969
333.090974	-3.001700	3.786200	-11.363000	23.157646	0.000999	20.730513
334.088456	-3.018700	3.783800	-11.420000	23.190019	0.001000	20.736875
335.089495	-2.994400	3.784700	-11.331000	23.181008	0.001001	20.735432
336.094570	-2.993100	3.784300	-11.325000	23.208007	0.001000	20.730245
337.087902	-3.007500	3.784100	-11.379000	23.213434	0.001002	20.729994
338.088347	-3.021400	3.782600	-11.426000	23.244670	0.001001	20.721467
339.090990	-3.017200	3.782100	-11.410000	23.244276	0.001001	20.735771
340.088419	-3.004400	3.783800	-11.366000	23.244847	0.001001	20.726861
341.092400	-2.982800	3.783800	-11.285000	23.237504	0.001002	20.734675
342.086745	-3.013800	3.781700	-11.396000	23.253792	0.001002	20.741515
343.092751	-3.007200	3.782500	-11.374000	23.265551	0.001001	20.727220
344.090457	-3.002400	3.782400	-11.355000	23.268912	0.001002	20.723476
345.091593	-3.014500	3.780600	-11.396000	23.267793	0.001004	20.743219
346.099142	-2.994100	3.781700	-11.322000	23.258557	0.001003	20.726375
347.092126	-3.004500	3.780300	-11.357000	23.302561	0.001003	20.734441
348.091443	-2.978600	3.780500	-11.259000	23.280330	0.001004	20.733497
349.089527	-2.989300	3.780300	-11.299000	23.270246	0.001004	20.723391
350.088807	-3.001600	3.779900	-11.344000	23.264997	0.001005	20.723346
351.095204	-3.012100	3.778300	-11.379000	23.289175	0.001007	20.730034
352.094187	-2.989700	3.778500	-11.295000	23.275711	0.001006	20.729816
353.091666	-3.007200	3.778600	-11.362000	23.270181	0.001005	20.712894
354.091190	-3.015100	3.779100	-11.394000	23.260122	0.001006	20.732212
355.091618	-3.013400	3.778600	-11.385000	23.304423	0.001006	20.726348
356.092528	-2.984500	3.778900	-11.277000	23.304600	0.001010	20.743596
357.095022	-2.979200	3.778400	-11.255000	23.305994	0.001009	20.753529
358.096970	-3.012900	3.778300	-11.382000	23.292628	0.001008	20.737288
359.098867	-3.009300	3.776700	-11.364000	23.296245	0.001007	20.717678
360.098938	-3.027100	3.776300	-11.430000	23.305181	0.001008	20.742756
361.106924	-2.989800	3.779000	-11.298000	23.293155	0.001007	20.739239
362.103299	-2.992900	3.777700	-11.305000	23.294082	0.001008	20.722148
363.101057	-2.991000	3.777000	-11.294000	23.282254	0.001010	20.744909
364.100389	-3.006600	3.775000	-11.349000	23.325405	0.001010	20.714660
365.100777	-3.014700	3.774400	-11.377000	23.301952	0.001011	20.742365
366.098700	-2.992600	3.775400	-11.298000	23.309443	0.001011	20.723319
367.099930	-2.988100	3.775900	-11.281000	23.329013	0.001012	20.726337
368.098215	-2.994700	3.775200	-11.304000	23.308028	0.001012	20.750826
369.096004	-3.005300	3.773800	-11.341000	23.318930	0.001015	20.741363
370.099850	-3.015200	3.774500	-11.380000	23.312602	0.001012	20.730753
371.100668	-2.992400	3.775500	-11.297000	23.290992	0.001015	20.734699
372.102220	-3.010800	3.772300	-11.357000	23.315865	0.001014	20.743032
373.103128	-2.985700	3.774500	-11.268000	23.303564	0.001012	20.753464
374.100800	-3.001400	3.772700	-11.322000	23.337351	0.001018	20.737540
375.100966	-2.997800	3.773900	-11.312000	23.345389	0.001012	20.744648
376.100401	-3.016600	3.772200	-11.378000	23.389238	0.001016	20.749716
377.098294	-3.016900	3.772100	-11.378000	23.414163	0.001014	20.738661
378.105404	-3.008300	3.771700	-11.344000	23.412670	0.001015	20.753287
379.101963	-2.997000	3.770900	-11.301000	23.406318	0.001014	20.745023
380.100467	-2.984800	3.771700	-11.257000	23.413838	0.001013	20.736913
381.099898	-2.991300	3.771700	-11.282000	23.398971	0.001016	20.743823
382.100180	-2.975100	3.770900	-11.218000	23.399074	0.001016	20.749143
383.102990	-3.008500	3.769000	-11.338000	23.426310	0.001017	20.753682
384.104098	-3.002500	3.769400	-11.317000	23.413739	0.001016	20.764316
385.101542	-3.001400	3.770500	-11.315000	23.410999	0.001018	20.752086
386.106550	-2.973400	3.770000	-11.208000	23.393772	0.001018	20.749044
387.104209	-2.985600	3.768900	-11.250000	23.414232	0.001021	20.747266
388.101929	-2.996300	3.768700	-11.290000	23.421781	0.001019	20.763842
389.103438	-2.999600	3.768800	-11.304000	23.416331	0.001018	20.756482
390.106589	-2.990100	3.768100	-11.265000	23.400148	0.001018	20.754487
391.103106	-3.017800	3.766600	-11.367000	23.407219	0.001018	20.771532
392.104370	-3.007300	3.768400	-11.332000	23.412896	0.001020	20.763945
393.105508	-2.979200	3.768200	-11.224000	23.438363	0.001019	20.768134
394.103202	-2.996600	3.767900	-11.289000	23.427635	0.001021	20.756433
395.110142	-2.993200	3.767600	-11.276000	23.441427	0.001021	20.744653
396.107965	-3.004500	3.766200	-11.314000	23.429675	0.001021	20.762271
397.111667	-2.998300	3.766900	-11.293000	23.410674	0.001022	20.767882
398.108373	-3.010500	3.766800	-11.338000	23.398576	0.001020	20.746747
399.119784	-3.013100	3.766400	-11.347000	23.423402	0.001024	20.758354
400.115178	-3.005500	3.766400	-11.319000	23.419342	0.001023	20.755707
401.118419	-3.000300	3.764600	-11.294000	23.450386	0.001023	20.765961
402.117542	-2.993400	3.764600	-11.267000	23.428424	0.001023	20.760543
403.116412	-2.990900	3.766500	-11.263000	23.438733	0.001026	20.760918
404.114496	-2.980400	3.765300	-11.221000	23.469205	0.001025	20.761116
405.115303	-2.991800	3.765200	-11.263000	23.436441	0.001026	20.785649
406.116254	-2.989200	3.763900	-11.249000	23.442290	0.001022	20.785822
407.120518	-3.003700	3.764000	-11.305000	23.454186	0.001025	20.780202
408.111025	-2.994000	3.764800	-11.270000	23.460134	0.001025	20.768619
409.115569	-3.000400	3.763300	-11.291000	23.432343	0.001026	20.765894
410.112765	-2.985400	3.762100	-11.230000	23.459085	0.001025	20.782741
411.117853	-3.002900	3.761300	-11.294000	23.440631	0.001026	20.773253
412.114475	-3.010400	3.762100	-11.323000	23.451408	0.001029	20.750864
413.118755	-3.010900	3.761700	-11.325000	23.432054	0.001028	20.761336
414.114066	-3.007700	3.762000	-11.313000	23.439623	0.001028	20.779354
415.115993	-3.003800	3.761000	-11.296000	23.437129	0.001028	20.765001
416.116919	-3.020900	3.759100	-11.355000	23.470814	0.001027	20.794972
417.122061	-2.995200	3.760800	-11.262000	23.530086	0.001029	20.750071
418.122263	-2.997700	3.760300	-11.271000	23.547381	0.001029	20.778314
419.117670	-2.980400	3.760900	-11.208000	23.565602	0.001031	20.759120
420.116477	-2.998200	3.760000	-11.272000	23.572313	0.001030	20.773910
421.123535	-3.000100	3.759300	-11.277000	23.552122	0.001030	20.783067
422.125239	-3.009900	3.758400	-11.311000	23.543653	0.001032	20.799233
423.120140	-3.004800	3.758800	-11.292000	23.526271	0.001029	20.778015
424.118247	-2.997500	3.758500	-11.265000	23.531942	0.001032	20.783701
425.120590	-3.011400	3.758000	-11.315000	23.530470	0.001031	20.787440
426.118421	-3.022500	3.757400	-11.355000	23.506637	0.001029	20.788681
427.124715	-3.003700	3.758600	-11.288000	23.502223	0.001032	20.791843
428.120535	-3.005600	3.757200	-11.292000	23.497365	0.001032	20.785551
429.123758	-3.007000	3.756600	-11.295000	23.531513	0.001033	20.789434
430.117726	-3.006500	3.755400	-11.290000	23.551950	0.001034	20.795697
431.121114	-3.012200	3.756400	-11.313000	23.546862	0.001034	20.786803
432.126166	-3.024300	3.755200	-11.356000	23.560279	0.001035	20.794562
433.123302	-2.991400	3.755000	-11.231000	23.609342	0.001035	20.782106
434.121523	-3.014400	3.755100	-11.318000	23.628104	0.001034	20.799019
435.121469	-3.012200	3.754700	-11.309000	23.642186	0.001034	20.796066
436.123372	-2.992300	3.753700	-11.231000	23.648758	0.001034	20.786059
437.123957	-3.010300	3.754600	-11.301000	23.630732	0.001033	20.792170
438.126933	-3.013700	3.753900	-11.312000	23.659923	0.001036	20.797727
439.124545	-2.996600	3.754400	-11.250000	23.674630	0.001034	20.807729
440.126340	-3.011000	3.754300	-11.303000	23.685252	0.001035	20.809370
441.122541	-2.997500	3.754300	-11.252000	23.710614	0.001035	20.808244
442.126269	-3.008600	3.754100	-11.292000	23.717955	0.001037	20.811811
443.128591	-3.014300	3.752200	-11.308000	23.744957	0.001036	20.786251
444.126583	-2.995500	3.753200	-11.241000	23.763470	0.001036	20.817141
445.123547	-3.008000	3.751400	-11.283000	23.763264	0.001036	20.794650
446.124152	-3.018400	3.751400	-11.323000	23.773417	0.001037	20.807200
447.126134	-2.996700	3.752100	-11.243000	23.778413	0.001036	20.820744
448.125829	-2.997600	3.751300	-11.244000	23.747472	0.001036	20.796834
449.129435	-2.987300	3.750300	-11.202000	23.733182	0.001037	20.819490
450.124326	-3.000700	3.751900	-11.256000	23.741932	0.001039	20.803134
451.130229	-3.010700	3.748800	-11.285000	23.745095	0.001037	20.811046
452.126024	-2.997000	3.750200	-11.238000	23.751107	0.001037	20.808065
453.127277	-3.007000	3.749000	-11.273000	23.759442	0.001039	20.823060
454.129365	-2.977000	3.749800	-11.162000	23.767551	0.001037	20.819337
455.125304	-3.011800	3.749000	-11.290000	23.786735	0.001039	20.836673
456.130829	-3.014600	3.747000	-11.295000	23.806539	0.001037	20.820020
457.130234	-3.035600	3.748100	-11.376000	23.816144	0.001039	20.816850
458.130222	-2.998500	3.748800	-11.239000	23.836820	0.001037	20.835683
459.131639	-2.980100	3.748700	-11.170000	23.862198	0.001039	20.829363
460.133061	-2.990300	3.747600	-11.205000	23.844599	0.001039	20.825466
461.128358	-3.005700	3.746800	-11.261000	23.847329	0.001038	20.829626
462.127578	-2.982200	3.747200	-11.174000	23.858974	0.001037	20.852207
463.128518	-2.985700	3.746500	-11.185000	23.811258	0.001038	20.822856
464.129790	-3.005600	3.746500	-11.259000	23.800324	0.001041	20.836548
465.133583	-3.005800	3.746600	-11.260000	23.779191	0.001038	20.839542
466.131699	-3.017400	3.744800	-11.296000	23.788020	0.001038	20.823264
467.136358	-3.014800	3.744100	-11.286000	23.815049	0.001037	20.824286
468.129919	-3.010000	3.745600	-11.273000	23.848241	0.001038	20.840498
469.128783	-3.025600	3.743400	-11.325000	23.853739	0.001037	20.842217
470.138364	-2.991700	3.744400	-11.200000	23.844997	0.001038	20.833452
471.129663	-2.987100	3.745300	-11.185000	23.867617	0.001040	20.861821
472.130403	-2.979900	3.744400	-11.157000	23.906880	0.001038	20.826277
473.130691	-2.960400	3.745000	-11.085000	23.913948	0.001038	20.841425
474.129816	-2.980300	3.744200	-11.158000	23.903644	0.001041	20.844369
475.129870	-2.998500	3.742400	-11.220000	23.896223	0.001037	20.846884
476.133316	-2.980400	3.742600	-11.153000	23.909907	0.001040	20.859182
477.130994	-2.997600	3.743000	-11.220000	23.924861	0.001038	20.853790
478.129777	-2.993900	3.741600	-11.201000	23.920260	0.001038	20.847280
479.132133	-2.983200	3.741900	-11.161000	23.930481	0.001040	20.866063
480.133285	-3.004500	3.741000	-11.237000	23.957499	0.001041	20.860914
481.140162	-3.006700	3.741200	-11.247000	23.983928	0.001040	20.846640
482.137070	-3.008200	3.741200	-11.252000	23.982205	0.001040	20.841594
483.137413	-2.995700	3.741200	-11.206000	24.000492	0.001039	20.835752
484.135094	-3.008900	3.739700	-11.251000	23.976498	0.001040	20.854837
485.132289	-3.003100	3.739200	-11.228000	23.968509	0.001040	20.850619
486.132781	-2.993900	3.741400	-11.200000	23.957005	0.001040	20.861841
487.137391	-3.023000	3.738000	-11.299000	24.002820	0.001040	20.853732
488.134106	-3.002000	3.738700	-11.222000	24.000875	0.001039	20.868850
489.137916	-2.993700	3.738400	-11.191000	24.021280	0.001040	20.864183
490.136842	-3.006200	3.738000	-11.236000	24.012115	0.001039	20.867795
491.133547	-2.975200	3.738600	-11.122000	24.007211	0.001040	20.855764
492.137543	-2.985500	3.738000	-11.159000	24.019199	0.001038	20.855933
493.133738	-2.990900	3.737600	-11.178000	24.026115	0.001039	20.864765
494.137168	-2.988800	3.736000	-11.165000	24.042634	0.001039	20.869003
495.133755	-2.981900	3.735800	-11.138000	24.023266	0.001040	20.874709
496.136987	-2.999400	3.735400	-11.203000	24.015429	0.001040	20.881075
497.141335	-3.010200	3.735600	-11.244000	24.035554	0.001039	20.876127
498.137187	-2.997300	3.735700	-11.196000	24.030522	0.001041	20.867762
499.141643	-3.004100	3.735900	-11.222000	24.007807	0.001038	20.860155
500.138890	-2.996100	3.735200	-11.190000	24.000637	0.001038	20.879042
501.139903	-2.994400	3.734200	-11.180000	24.009094	0.001039	20.869032
502.141092	-2.985300	3.734700	-11.147000	24.017029	0.001038	20.864188
503.144958	-2.998800	3.733600	-11.196000	24.043851	0.001038	20.895826
504.138379	-2.987700	3.733900	-11.154000	24.054228	0.001040	20.885371
505.142616	-3.012200	3.732500	-11.242000	24.071096	0.001039	20.882374
506.150307	-3.028000	3.732600	-11.302000	24.076169	0.001039	20.873237
507.139240	-2.987000	3.732600	-11.148000	24.077513	0.001038	20.883120
508.147130	-2.990700	3.732900	-11.163000	24.073554	0.001039	20.866348
509.140392	-3.001000	3.732200	-11.199000	24.063803	0.001037	20.888335
510.145649	-3.004900	3.732100	-11.214000	24.066787	0.001039	20.881846
511.146305	-2.980000	3.732900	-11.123000	24.098262	0.001039	20.867420
512.142071	-2.991700	3.731400	-11.162000	24.107915	0.001039	20.881842
513.139161	-3.020000	3.729900	-11.264000	24.118167	0.001037	20.869366
514.141845	-3.009700	3.730400	-11.226000	24.120581	0.001040	20.881743
515.141472	-3.018800	3.729100	-11.256000	24.096071	0.001039	20.890825
516.144578	-3.014700	3.729300	-11.242000	24.046524	0.001037	20.867688
517.144960	-2.995900	3.728800	-11.170000	24.064617	0.001038	20.883462
518.145106	-3.011400	3.728100	-11.225000	24.056629	0.001039	20.890149
519.146053	-3.014300	3.728500	-11.238000	24.053648	0.001037	20.899961
520.144128	-2.999400	3.728500	-11.183000	24.048892	0.001037	20.878597
521.143096	-2.984400	3.728000	-11.125000	24.067676	0.001035	20.890797
522.158560	-2.994600	3.728200	-11.163000	24.081291	0.001037	20.889279
523.146070	-2.994900	3.726700	-11.160000	24.089053	0.001038	20.897537
524.145774	-2.988300	3.727100	-11.137000	24.102714	0.001038	20.906496
525.145904	-2.995800	3.726600	-11.162000	24.113366	0.001038	20.887783
526.143432	-3.008200	3.726400	-11.209000	24.119388	0.001039	20.895245
527.148973	-2.998700	3.727100	-11.175000	24.113596	0.001035	20.884695
528.145241	-2.987200	3.727000	-11.133000	24.085501	0.001038	20.900138
529.150902	-3.018100	3.724400	-11.238000	24.112276	0.001037	20.893328
530.146169	-2.995300	3.725400	-11.158000	24.133649	0.001038	20.907176
531.152129	-3.005300	3.724900	-11.193000	24.125119	0.001039	20.896251
532.144551	-3.000800	3.725500	-11.178000	24.137040	0.001037	20.904888
533.147493	-3.004300	3.725500	-11.192000	24.146121	0.001041	20.868954
534.147515	-3.031100	3.722900	-11.283000	24.165060	0.001039	20.897430
535.147374	-3.018200	3.723300	-11.237000	24.167222	0.001038	20.911925
536.147915	-3.003500	3.722800	-11.180000	24.186136	0.001041	20.899602
537.147085	-3.003100	3.721600	-11.175000	24.196811	0.001038	20.896560
538.147335	-2.990100	3.723200	-11.132000	24.172780	0.001040	20.907543
539.147459	-2.996800	3.721800	-11.152000	24.158717	0.001039	20.902447
540.148836	-2.996500	3.723400	-11.155000	24.181186	0.001037	20.909336
541.146804	-2.997900	3.723200	-11.160000	24.196264	0.001038	20.891744
542.153382	-3.016300	3.721800	-11.223000	24.188327	0.001038	20.935935
543.148966	-3.007600	3.721900	-11.193000	24.173602	0.001036	20.904100
544.151310	-2.981000	3.722800	-11.097000	24.161734	0.001039	20.914481
545.155475	-2.995500	3.721000	-11.145000	24.170025	0.001035	20.886290
546.149363	-3.013600	3.720000	-11.209000	24.160768	0.001037	20.896918
547.152600	-3.009300	3.720100	-11.194000	24.161142	0.001037	20.908198
548.154928	-3.000100	3.720100	-11.159000	24.147856	0.001036	20.907200
549.154305	-2.992100	3.720100	-11.130000	24.179575	0.001037	20.927632
550.155815	-2.979900	3.718800	-11.080000	24.199557	0.001036	20.891254
551.154387	-3.002500	3.719000	-11.165000	24.186448	0.001036	20.918880
552.154923	-3.006600	3.717400	-11.176000	24.178465	0.001036	20.904710
553.153289	-3.032800	3.717600	-11.274000	24.169203	0.001035	20.896844
554.150586	-3.023100	3.717500	-11.238000	24.166996	0.001036	20.922128
555.152733	-3.013900	3.717400	-11.203000	24.149254	0.001034	20.921877
556.153939	-2.988700	3.718400	-11.111000	24.154881	0.001035	20.923254
557.151270	-3.021000	3.716900	-11.228000	24.159827	0.001035	20.910197
558.155478	-2.992700	3.717700	-11.123000	24.137464	0.001036	20.902467
559.153834	-3.003500	3.715300	-11.158000	24.137311	0.001035	20.910849
560.153430	-3.000400	3.717400	-11.153000	24.116786	0.001035	20.922978
561.161263	-2.994200	3.716900	-11.127000	24.155654	0.001034	20.913599
562.157955	-2.985000	3.716500	-11.092000	24.176701	0.001034	20.899149
563.161444	-2.992600	3.715000	-11.115000	24.190887	0.001035	20.915746
564.152277	-2.983100	3.714800	-11.080000	24.204699	0.001034	20.901626
565.155174	-3.005100	3.716200	-11.167000	24.206315	0.001033	20.913203
566.160210	-3.006000	3.714900	-11.166000	24.175612	0.001034	20.902797
567.161530	-3.017300	3.714800	-11.208000	24.175665	0.001034	20.909962
568.155278	-2.972700	3.715000	-11.042000	24.163600	0.001034	20.921568
569.159143	-3.004800	3.713600	-11.158000	24.166889	0.001034	20.899264
570.154968	-2.984400	3.714100	-11.084000	24.154499	0.001034	20.896320
571.155812	-3.004700	3.713500	-11.157000	24.196601	0.001034	20.911995
572.161551	-2.978300	3.713300	-11.059000	24.208016	0.001033	20.903057
573.154232	-3.005100	3.712700	-11.156000	24.228277	0.001034	20.902043
574.156159	-2.996800	3.712000	-11.123000	24.243975	0.001034	20.913994
575.159434	-3.009000	3.710600	-11.164000	24.254671	0.001035	20.880155
576.158255	-3.004400	3.711300	-11.149000	24.266320	0.001035	20.899899
577.160794	-3.002000	3.712200	-11.142000	24.301948	0.001034	20.879689
578.159084	-2.998900	3.710000	-11.125000	24.316626	0.001034	20.896782
579.154186	-3.000400	3.711300	-11.134000	24.335981	0.001033	20.901498
580.159779	-2.990900	3.710000	-11.095000	24.323794	0.001034	20.873629
581.160879	-2.996100	3.709700	-11.114000	24.344316	0.001034	20.867663
582.154683	-3.018400	3.707800	-11.191000	24.331180	0.001033	20.879615
583.161766	-3.017600	3.709900	-11.194000	24.297225	0.001034	20.908614
584.156938	-3.001300	3.708900	-11.129000	24.273443	0.001031	20.890924
585.159413	-3.029400	3.708100	-11.232000	24.250059	0.001033	20.875529
586.158154	-2.993800	3.707900	-11.100000	24.203437	0.001033	20.886611
587.162027	-2.986400	3.707300	-11.070000	24.228960	0.001030	20.888978
588.161169	-2.981500	3.707800	-11.053000	24.243618	0.001032	20.879025
589.162323	-3.022000	3.706100	-11.198000	24.239039	0.001033	20.886285
590.162740	-2.985000	3.708300	-11.068000	24.222843	0.001032	20.879524
591.163465	-3.007000	3.706600	-11.144000	24.220710	0.001031	20.879755
592.162567	-3.025000	3.705300	-11.208000	24.238447	0.001032	20.906079
593.168106	-3.002300	3.706100	-11.126000	24.223443	0.001030	20.868747
594.159102	-3.009300	3.706300	-11.152000	24.215382	0.001032	20.880101
595.166258	-3.040200	3.703900	-11.260000	24.215683	0.001033	20.877558
596.162666	-2.997800	3.705800	-11.109000	24.216554	0.001032	20.888862
597.158837	-3.007200	3.704200	-11.137000	24.240436	0.001032	20.885791
598.161690	-2.978900	3.705200	-11.036000	24.259028	0.001031	20.886422
599.169213	-3.018200	3.704200	-11.178000	24.242257	0.001032	20.857273
600.159141	-3.001400	3.703000	-11.113000	24.266788	0.001031	20.896576
601.159429	-3.021700	3.704100	-11.191000	24.282112	0.001030	20.865956
602.159381	-2.998500	3.704100	-11.106000	24.301792	0.001031	20.860093
603.160355	-2.992300	3.703500	-11.081000	24.330276	0.001028	20.873493
604.164958	-3.010500	3.702700	-11.146000	24.354731	0.001030	20.862464
605.166380	-3.016100	3.701400	-11.163000	24.354780	0.001030	20.853031
606.165606	-3.006800	3.702600	-11.131000	24.369457	0.001028	20.874865
607.166232	-3.021200	3.701100	-11.180000	24.358488	0.001028	20.883775
608.159583	-3.016900	3.700800	-11.164000	24.392321	0.001029	20.855604
609.168759	-2.998200	3.701000	-11.095000	24.393862	0.001030	20.873270
610.159453	-2.998100	3.701800	-11.097000	24.420355	0.001029	20.869028
611.164674	-3.033700	3.699300	-11.222000	24.433120	0.001029	20.864290
612.159911	-3.002000	3.699200	-11.103000	24.423347	0.001031	20.854012
613.164493	-3.006800	3.700300	-11.125000	24.427670	0.001028	20.865935
614.163936	-3.030100	3.698600	-11.207000	24.458690	0.001026	20.842530
615.170572	-2.994900	3.698800	-11.076000	24.417280	0.001028	20.882064
616.163995	-3.002600	3.699500	-11.105000	24.419442	0.001029	20.865268
617.163135	-3.002300	3.698800	-11.104000	24.438598	0.001027	20.861252
618.163698	-3.007500	3.698800	-11.123000	24.409476	0.001026	20.828244
619.162288	-2.982800	3.698800	-11.031000	24.416512	0.001027	20.867069
620.166358	-2.990200	3.699200	-11.060000	24.427259	0.001027	20.846558
621.165206	-3.003500	3.697300	-11.103000	24.423532	0.001027	20.857991
622.167152	-2.985000	3.697900	-11.037000	24.436790	0.001027	20.849007
623.163878	-2.953300	3.697600	-10.918000	24.421444	0.001025	20.842621
624.163597	-2.995300	3.696400	-11.069000	24.419779	0.001027	20.845218
625.166322	-2.989700	3.696300	-11.050000	24.432047	0.001028	20.847094
626.168324	-2.999000	3.696400	-11.084000	24.449185	0.001027	20.827778
627.165919	-3.014300	3.695200	-11.138000	24.462274	0.001028	20.848496
628.166243	-2.978700	3.696100	-11.008000	24.437176	0.001029	20.862670
629.168515	-3.022600	3.693700	-11.162000	24.434916	0.001027	20.858506
630.168197	-3.012800	3.694100	-11.128000	24.440115	0.001027	20.844282
631.164927	-3.003500	3.694800	-11.096000	24.413204	0.001025	20.818708
632.165077	-2.999100	3.694000	-11.077000	24.416216	0.001029	20.841644
633.165949	-3.005500	3.693400	-11.099000	24.428312	0.001026	20.832916
634.169215	-3.000700	3.693400	-11.081000	24.459278	0.001028	20.840275
635.172471	-2.976500	3.693600	-10.993000	24.496043	0.001029	20.867202
636.171454	-3.000300	3.693200	-11.080000	24.496520	0.001027	20.832594
637.166220	-2.963000	3.693600	-10.943000	24.505750	0.001026	20.818621
638.171352	-3.005700	3.691800	-11.094000	24.502023	0.001028	20.826736
639.169510	-2.992100	3.691700	-11.045000	24.493668	0.001025	20.830207
640.170676	-3.001500	3.690500	-11.076000	24.490787	0.001025	20.823050
641.168427	-2.979900	3.693100	-11.005000	24.478097	0.001025	20.834973
642.171785	-2.982600	3.691300	-11.008000	24.459423	0.001024	20.824299
643.169376	-3.015200	3.690200	-11.126000	24.457281	0.001024	20.836849
644.170018	-3.014000	3.689500	-11.118000	24.467983	0.001025	20.839051
645.169947	-3.008900	3.690900	-11.105000	24.444381	0.001023	20.825804
646.170546	-3.008200	3.689400	-11.097000	24.470527	0.001025	20.825008
647.174023	-2.987200	3.691000	-11.024000	24.447028	0.001024	20.820399
648.167315	-3.023600	3.688900	-11.152000	24.466578	0.001025	20.828633
649.176530	-3.042500	3.687600	-11.218000	24.489859	0.001024	20.832550
650.168679	-2.976700	3.689000	-10.980000	24.518765	0.001023	20.819826
651.172315	-3.007600	3.686700	-11.087000	24.478229	0.001022	20.827046
652.169385	-3.020100	3.688200	-11.138000	24.506092	0.001023	20.825129
653.172359	-3.003000	3.687200	-11.071000	24.531538	0.001022	20.827425
654.172637	-3.012800	3.687200	-11.107000	24.549401	0.001022	20.821167
655.174635	-3.001800	3.686600	-11.065000	24.571916	0.001023	20.836170
656.173020	-3.015100	3.686500	-11.113000	24.587437	0.001022	20.829932
657.169130	-2.993500	3.686800	-11.036000	24.560082	0.001022	20.813391
658.175825	-3.013600	3.685600	-11.106000	24.576971	0.001023	20.803310
659.177297	-2.971900	3.687700	-10.958000	24.584064	0.001021	20.806634
660.174973	-3.005700	3.685000	-11.075000	24.600011	0.001021	20.814575
661.176693	-2.998000	3.685200	-11.047000	24.616551	0.001020	20.827851
662.178492	-2.998000	3.685800	-11.049000	24.601931	0.001021	20.816500
663.176244	-3.001500	3.684300	-11.058000	24.589875	0.001020	20.822895
664.174165	-2.990200	3.685800	-11.020000	24.578464	0.001020	20.812394
665.180765	-2.987800	3.683800	-11.005000	24.617809	0.001019	20.815837
666.172297	-2.966800	3.685100	-10.932000	24.596150	0.001020	20.812122
667.178379	-3.016200	3.682400	-11.105000	24.573520	0.001017	20.804590
668.172820	-3.004600	3.681900	-11.060000	24.563108	0.001019	20.815479
669.177039	-3.024600	3.681800	-11.135000	24.559077	0.001021	20.815227
670.177661	-2.996100	3.684400	-11.038000	24.592481	0.001018	20.830726
671.176085	-3.021000	3.682700	-11.124000	24.604751	0.001019	20.832606
672.176040	-3.007800	3.682800	-11.076000	24.584978	0.001018	20.816085
673.177411	-3.006800	3.682300	-11.071000	24.551228	0.001018	20.790283
674.186074	-3.014900	3.681300	-11.098000	24.551878	0.001016	20.810849
675.180134	-2.999900	3.681200	-11.041000	24.573801	0.001018	20.799656
676.183081	-3.005200	3.680400	-11.059000	24.588146	0.001019	20.833015
677.182344	-3.001300	3.679300	-11.041000	24.600236	0.001018	20.808161
678.182149	-2.992000	3.680800	-11.011000	24.613348	0.001018	20.802352
679.178629	-3.006300	3.680200	-11.062000	24.613328	0.001018	20.797116
680.178561	-3.016800	3.679900	-11.100000	24.604370	0.001017	20.806620
681.181720	-2.985900	3.680800	-10.989000	24.606367	0.001018	20.796296
682.180129	-2.993400	3.678900	-11.012000	24.602985	0.001017	20.815188
683.181655	-2.993400	3.678700	-11.011000	24.602168	0.001016	20.786392
684.179553	-2.991500	3.679300	-11.005000	24.629354	0.001019	20.824576
685.183844	-3.014100	3.678300	-11.084000	24.641492	0.001016	20.788866
686.183356	-2.998700	3.677100	-11.025000	24.671610	0.001016	20.783053
687.184346	-2.977300	3.679100	-10.953000	24.691156	0.001016	20.801718
688.180319	-2.993500	3.677900	-11.009000	24.678205	0.001019	20.792516
689.184118	-2.983500	3.677800	-10.972000	24.725982	0.001016	20.807268
690.185559	-2.994600	3.677800	-11.012000	24.723969	0.001014	20.804774
691.186541	-3.003700	3.677100	-11.044000	24.736578	0.001015	20.799884
692.186801	-2.995300	3.677700	-11.015000	24.751649	0.001014	20.815956
693.181989	-2.994600	3.675500	-11.006000	24.756674	0.001014	20.782592
694.185722	-3.013000	3.675400	-11.072000	24.740515	0.001014	20.797670
695.187959	-3.002800	3.674900	-11.034000	24.756609	0.001015	20.800070
696.184227	-2.985500	3.675900	-10.973000	24.705682	0.001013	20.792587
697.187412	-2.996800	3.675600	-11.013000	24.675815	0.001013	20.793911
698.187258	-2.982900	3.675000	-10.961000	24.688199	0.001016	20.810605
699.184853	-2.990000	3.675200	-10.988000	24.689124	0.001013	20.799205
700.188698	-2.999000	3.673400	-11.015000	24.680569	0.001014	20.776870
701.189003	-2.994500	3.672900	-10.998000	24.670252	0.001013	20.798286
702.184455	-2.985300	3.674200	-10.966000	24.655534	0.001012	20.806751
703.190422	-3.015600	3.673000	-11.076000	24.650538	0.001011	20.804108
704.189906	-2.979200	3.673700	-10.944000	24.665959	0.001012	20.794452
705.191299	-2.986100	3.673300	-10.968000	24.684810	0.001011	20.791083
706.190776	-3.012700	3.672400	-11.063000	24.675118	0.001011	20.778512
707.191044	-2.996800	3.672200	-11.003000	24.728487	0.001012	20.774694
708.195239	-3.020300	3.670200	-11.084000	24.695338	0.001011	20.788371
709.189779	-3.000700	3.671000	-11.014000	24.750772	0.001012	20.783308
710.191103	-3.008500	3.670400	-11.041000	24.722801	0.001010	20.782739
711.191748	-2.991300	3.670800	-10.979000	24.715611	0.001009	20.792593
712.193475	-2.991300	3.670600	-10.979000	24.701214	0.001009	20.774827
713.190670	-2.982400	3.671400	-10.948000	24.711687	0.001009	20.791501
714.190593	-2.990900	3.670500	-10.976000	24.732309	0.001011	20.768573
715.188177	-3.008300	3.669900	-11.040000	24.730468	0.001009	20.782847
716.190565	-3.012300	3.668100	-11.049000	24.748649	0.001010	20.786867
717.195286	-2.993600	3.668800	-10.982000	24.766254	0.001010	20.776559
718.190661	-3.007200	3.670000	-11.035000	24.770910	0.001009	20.783128
719.187389	-3.007400	3.667800	-11.028000	24.785413	0.001006	20.784406
720.188815	-2.987600	3.668000	-10.958000	24.737889	0.001009	20.767060
721.186393	-2.996100	3.667600	-10.988000	24.722301	0.001008	20.782238
722.196946	-3.001200	3.669100	-11.010000	24.683280	0.001007	20.778642
723.188648	-3.000500	3.668100	-11.005000	24.645758	0.001008	20.765172
724.194313	-3.002500	3.666900	-11.009000	24.641456	0.001007	20.774132
725.191234	-2.997400	3.667200	-10.991000	24.668838	0.001008	20.770788
726.192070	-3.020100	3.665600	-11.069000	24.671181	0.001005	20.783570
727.189540	-3.009900	3.665700	-11.032000	24.709130	0.001006	20.763330
728.190401	-3.000400	3.666000	-10.998000	24.719677	0.001007	20.772017
729.193510	-3.011700	3.665700	-11.037000	24.731070	0.001006	20.768278
730.191292	-3.004300	3.664600	-11.008000	24.744773	0.001008	20.751682
731.195826	-2.966000	3.666000	-10.872000	24.714356	0.001007	20.745340
732.194516	-2.991100	3.665700	-10.963000	24.727989	0.001007	20.768979
733.198342	-2.983200	3.664900	-10.932000	24.737468	0.001006	20.769957
734.190914	-2.998500	3.663800	-10.985000	24.748109	0.001007	20.779213
735.195713	-3.017700	3.664000	-11.056000	24.743163	0.001004	20.773300
736.192687	-3.005900	3.663100	-11.010000	24.742769	0.001005	20.755361
737.195392	-2.995000	3.664500	-10.974000	24.695223	0.001007	20.760280
738.199281	-3.008000	3.662500	-11.015000	24.685394	0.001004	20.751365
739.197104	-3.004500	3.661900	-11.001000	24.684901	0.001004	20.762725
740.198697	-3.004600	3.661200	-10.999000	24.698777	0.001006	20.763372
741.195188	-3.024000	3.660800	-11.070000	24.713852	0.001004	20.762853
742.197230	-2.984200	3.662600	-10.929000	24.719867	0.001003	20.759406
743.196579	-3.018800	3.660000	-11.048000	24.765551	0.001005	20.774431
744.200286	-3.020300	3.659600	-11.052000	24.764463	0.001004	20.782348
745.196655	-3.012700	3.660100	-11.025000	24.783480	0.001004	20.767768
746.197802	-2.999900	3.660600	-10.981000	24.797601	0.001003	20.761075
747.200785	-2.986400	3.660900	-10.932000	24.814146	0.001001	20.756343
748.194508	-2.998800	3.659600	-10.973000	24.811459	0.001002	20.770242
749.209697	-2.989600	3.660400	-10.943000	24.817630	0.001002	20.761262
750.196511	-3.017700	3.659000	-11.040000	24.845431	0.001000	20.769723
751.198141	-3.007700	3.659200	-11.004000	24.827896	0.001003	20.798118
752.196686	-2.998200	3.658800	-10.968000	24.835859	0.001001	20.773392
753.208025	-2.999000	3.658200	-10.970000	24.835460	0.001001	20.763509
754.197429	-2.997000	3.659700	-10.967000	24.834864	0.000999	20.765282
755.195898	-3.009300	3.657500	-11.005000	24.831857	0.000999	20.751358
756.198708	-3.010000	3.657700	-11.008000	24.811862	0.001000	20.761637
757.200302	-2.996500	3.657200	-10.958000	24.802142	0.000998	20.753779
758.201144	-3.017100	3.656500	-11.031000	24.795502	0.000999	20.731942
759.199753	-3.001500	3.657500	-10.977000	24.820144	0.000998	20.756199
760.199036	-3.027200	3.654500	-11.062000	24.857792	0.000997	20.773121
761.200099	-3.013900	3.655600	-11.017000	24.883353	0.000998	20.784550
762.196548	-3.026700	3.656300	-11.064000	24.868088	0.000997	20.761168
763.200035	-3.003900	3.655100	-10.978000	24.866695	0.000997	20.751235
764.200821	-3.037100	3.654200	-11.097000	24.880075	0.000998	20.752810
765.198518	-3.020200	3.653300	-11.033000	24.905709	0.000995	20.768581
766.197675	-3.018900	3.654200	-11.031000	24.903524	0.000996	20.748844
767.206411	-2.998300	3.654600	-10.956000	24.909912	0.000995	20.761419
768.196333	-3.023100	3.652600	-11.040000	24.907771	0.000994	20.756426
769.204039	-2.977700	3.653600	-10.878000	24.909287	0.000995	20.759844
770.205166	-2.970100	3.654400	-10.852000	24.926122	0.000995	20.757300
771.203078	-2.992100	3.653800	-10.931000	24.903672	0.000996	20.751363
772.201927	-2.997100	3.653300	-10.949000	24.859539	0.000994	20.733146
773.202634	-2.994100	3.653900	-10.939000	24.845937	0.000995	20.764066
774.216354	-2.993700	3.652400	-10.933000	24.831940	0.000993	20.746226
775.202214	-2.982000	3.653900	-10.895000	24.834701	0.000993	20.767963
776.203744	-2.990500	3.651800	-10.920000	24.836123	0.000993	20.768442
777.201627	-3.002400	3.651600	-10.963000	24.846492	0.000993	20.753718
778.204370	-2.986100	3.652400	-10.904000	24.853357	0.000994	20.729312
779.198797	-2.975100	3.652700	-10.866000	24.879218	0.000990	20.728715
780.203413	-3.019100	3.650900	-11.022000	24.897519	0.000993	20.765577
781.204192	-2.981200	3.650500	-10.882000	24.917558	0.000990	20.747756
782.199851	-2.986300	3.650400	-10.900000	24.934742	0.000992	20.746985
783.203290	-3.017900	3.650200	-11.014000	24.931912	0.000994	20.742722
784.207735	-3.016400	3.650100	-11.009000	24.931518	0.000991	20.751810
785.200969	-2.994800	3.649000	-10.927000	24.919210	0.000991	20.756527
786.208713	-2.995900	3.650100	-10.934000	24.880324	0.000989	20.744999
787.205048	-2.998700	3.649300	-10.941000	24.886942	0.000988	20.726984
788.203284	-2.972100	3.650300	-10.847000	24.847956	0.000991	20.740963
789.204294	-3.016300	3.647700	-11.001000	24.813020	0.000988	20.740039
790.204955	-2.992400	3.649200	-10.918000	24.780916	0.000989	20.746702
791.206519	-2.979300	3.649400	-10.870000	24.769385	0.000990	20.748406
792.206650	-2.993200	3.648200	-10.918000	24.796586	0.000989	20.728288
793.206062	-3.007100	3.647700	-10.968000	24.805321	0.000988	20.721881
794.208141	-2.994500	3.646900	-10.920000	24.835780	0.000988	20.748183
795.204044	-3.001000	3.647700	-10.946000	24.840357	0.000989	20.749932
796.207806	-2.976100	3.647400	-10.853000	24.868408	0.000986	20.742522
797.208561	-3.003300	3.645800	-10.949000	24.858014	0.000988	20.728297
798.209616	-3.025300	3.645700	-11.029000	24.891060	0.000987	20.724479
799.210902	-3.003200	3.644800	-10.945000	24.888530	0.000990	20.758451
800.210191	-2.992500	3.646100	-10.910000	24.935649	0.000988	20.729403
801.211019	-3.041000	3.643700	-11.079000	24.956582	0.000990	20.719593
802.212668	-3.008200	3.644600	-10.963000	24.984655	0.000987	20.754410
803.210479	-2.976200	3.645800	-10.849000	24.993856	0.000988	20.744206
804.210699	-3.005300	3.644400	-10.951000	25.016550	0.000989	20.752287
805.206714	-2.990800	3.644300	-10.899000	25.025279	0.000987	20.743504
806.209756	-3.016000	3.643300	-10.987000	25.004992	0.000985	20.752064
807.207122	-2.996600	3.642600	-10.913000	25.000219	0.000986	20.743954
808.209587	-2.989900	3.642200	-10.888000	25.014390	0.000984	20.752015
809.207197	-3.004500	3.641600	-10.940000	25.007851	0.000984	20.758253
810.208160	-2.976800	3.642900	-10.842000	25.030298	0.000985	20.737637
811.210618	-3.008200	3.641200	-10.953000	25.047928	0.000984	20.747747
812.207015	-2.978400	3.641600	-10.845000	25.044247	0.000984	20.756381
813.208711	-2.988100	3.640300	-10.877000	25.084919	0.000983	20.731299
814.210189	-3.003800	3.640500	-10.934000	25.060854	0.000982	20.765939
815.217448	-2.992800	3.641900	-10.899000	25.070896	0.000983	20.745199
816.207778	-2.987000	3.640300	-10.872000	25.045935	0.000983	20.779887
817.207541	-2.991900	3.639900	-10.889000	25.055707	0.000982	20.751289
818.212611	-2.990100	3.638500	-10.877000	25.054039	0.000980	20.753408
819.215979	-2.993200	3.638900	-10.891000	25.067467	0.000981	20.762620
820.209607	-2.987200	3.638000	-10.867000	25.077981	0.000981	20.768433
821.210451	-2.992700	3.638600	-10.888000	25.078478	0.000981	20.751388
822.205620	-2.991100	3.639800	-10.886000	25.056903	0.000981	20.758653
823.207160	-2.996600	3.638300	-10.901000	25.024433	0.000980	20.760673
824.208790	-3.008700	3.637200	-10.942000	25.026647	0.000979	20.770483
825.208741	-3.002500	3.635800	-10.915000	25.015236	0.000980	20.745278
826.209815	-2.985400	3.638400	-10.862000	24.985747	0.000980	20.734643
827.210792	-3.006500	3.636900	-10.932000	24.976821	0.000979	20.761247
828.216314	-3.022800	3.636700	-10.992000	24.957659	0.000977	20.752444
829.215261	-3.016300	3.635300	-10.963000	24.983665	0.000976	20.737295
830.209962	-2.996400	3.636200	-10.894000	24.988040	0.000976	20.765869
831.216015	-2.995900	3.636200	-10.892000	25.005169	0.000979	20.762199
832.212842	-3.004900	3.636800	-10.925000	25.041019	0.000978	20.759779
833.213189	-2.987400	3.635800	-10.861000	25.029933	0.000975	20.754341
834.214187	-2.997500	3.636300	-10.899000	24.998781	0.000977	20.761478
835.215567	-2.971900	3.636200	-10.805000	25.051288	0.000977	20.748275
836.219157	-2.993500	3.635200	-10.881000	25.028073	0.000975	20.755793
837.214991	-3.004200	3.636200	-10.923000	25.054098	0.000975	20.781917
838.214871	-3.005900	3.634100	-10.922000	25.089700	0.000975	20.757438
839.210748	-2.992200	3.632900	-10.869000	25.066162	0.000974	20.744714
840.224178	-3.004600	3.634000	-10.918000	25.028496	0.000976	20.769968
841.216879	-2.978700	3.634500	-10.824000	25.026011	0.000973	20.750878
842.221022	-3.012400	3.633600	-10.945000	25.005276	0.000975	20.765627
843.219840	-3.021200	3.632700	-10.974000	24.991125	0.000973	20.751422
844.215552	-2.985400	3.632000	-10.842000	24.961369	0.000972	20.761858
845.216143	-2.978500	3.632600	-10.818000	24.950651	0.000972	20.770067
846.216233	-3.012800	3.630800	-10.937000	24.923901	0.000971	20.779728
847.216331	-3.006900	3.629500	-10.912000	24.942394	0.000972	20.754193
848.216170	-3.002900	3.631500	-10.903000	24.960646	0.000970	20.770615
849.217256	-2.973800	3.632900	-10.803000	24.949957	0.000971	20.764155
850.219271	-3.002600	3.631400	-10.902000	24.971186	0.000969	20.755116
851.222012	-3.001000	3.630300	-10.894000	24.992773	0.000969	20.763982
852.218328	-3.018600	3.629500	-10.955000	25.009671	0.000969	20.779047
853.221375	-2.996500	3.629800	-10.876000	25.024487	0.000969	20.794867
854.223310	-3.001800	3.629300	-10.894000	25.004351	0.000968	20.770388
855.221079	-2.992800	3.628800	-10.859000	25.035080	0.000967	20.782741
856.220905	-2.997200	3.630400	-10.879000	25.033511	0.000970	20.788278
857.222499	-2.990500	3.628600	-10.850000	25.061187	0.000968	20.787137
858.224235	-3.016200	3.627800	-10.941000	25.103275	0.000966	20.763952
859.224499	-2.985800	3.627800	-10.831000	25.128530	0.000968	20.776977
860.222513	-3.010400	3.626800	-10.917000	25.153686	0.000966	20.770937
861.220747	-2.991100	3.627300	-10.848000	25.160298	0.000967	20.778523
862.227078	-3.002500	3.627800	-10.892000	25.152397	0.000966	20.779600
863.219049	-2.999800	3.625800	-10.876000	25.130001	0.000966	20.779402
864.222424	-3.004300	3.625900	-10.892000	25.145657	0.000967	20.783739
865.219235	-2.993000	3.625900	-10.851000	25.138473	0.000967	20.784588
866.225325	-2.973800	3.627100	-10.785000	25.154035	0.000966	20.774132
867.228736	-2.995200	3.624700	-10.855000	25.148692	0.000965	20.779674
868.223325	-2.999000	3.624200	-10.868000	25.137036	0.000966	20.783620
869.222486	-3.011600	3.623900	-10.914000	25.119462	0.000966	20.776409
870.223454	-2.978300	3.625700	-10.797000	25.104968	0.000965	20.789359
871.224173	-2.992400	3.624200	-10.845000	25.135143	0.000966	20.763701
872.220754	-3.009800	3.623600	-10.905000	25.138823	0.000965	20.790629
873.227157	-2.989600	3.625100	-10.836000	25.150035	0.000964	20.792402
874.219801	-3.014700	3.623800	-10.924000	25.150158	0.000963	20.777353
875.222075	-3.000100	3.623700	-10.871000	25.156146	0.000966	20.787631
876.224677	-3.010000	3.623300	-10.905000	25.155723	0.000965	20.795267
877.220637	-3.019500	3.621700	-10.935000	25.159128	0.000963	20.778770
878.226315	-3.001100	3.623200	-10.872000	25.176106	0.000965	20.789177
879.228224	-3.011100	3.622400	-10.907000	25.158823	0.000964	20.787474
880.224786	-3.008800	3.621700	-10.896000	25.161834	0.000962	20.786703
881.227380	-3.014300	3.619800	-10.910000	25.190089	0.000962	20.783775
882.220346	-2.988700	3.622600	-10.826000	25.200706	0.000963	20.785424
883.226841	-2.999400	3.620600	-10.859000	25.232447	0.000963	20.799274
884.222151	-2.985400	3.622200	-10.812000	25.221728	0.000962	20.791831
885.222257	-2.985900	3.621800	-10.813000	25.247678	0.000961	20.799393
886.221274	-3.001200	3.620200	-10.863000	25.248988	0.000961	20.786008
887.226943	-2.985500	3.621200	-10.810000	25.250926	0.000963	20.791748
888.228986	-3.017400	3.619400	-10.919000	25.253234	0.000961	20.770831
889.226016	-2.988800	3.621800	-10.824000	25.243139	0.000962	20.792465
890.225610	-2.995100	3.619400	-10.838000	25.262522	0.000961	20.803390
891.223974	-2.993300	3.617900	-10.827000	25.261647	0.000959	20.817210
892.225782	-3.001200	3.619100	-10.861000	25.267757	0.000958	20.784464
893.223852	-3.019100	3.616900	-10.918000	25.290672	0.000960	20.806049
894.229657	-2.982900	3.618300	-10.791000	25.295558	0.000959	20.810480
895.223478	-3.003500	3.617700	-10.865000	25.311910	0.000958	20.809354
896.229119	-3.016500	3.616300	-10.907000	25.265054	0.000960	20.790285
897.223339	-2.998000	3.618200	-10.846000	25.234972	0.000958	20.791377
898.223346	-3.005700	3.616500	-10.868000	25.219131	0.000959	20.809138
899.227501	-2.982900	3.617200	-10.789000	25.187139	0.000957	20.811633
900.224617	-2.988500	3.616700	-10.807000	25.155662	0.000957	20.811327
901.223988	-2.994200	3.617000	-10.829000	25.154138	0.000957	20.812168
902.225205	-3.013300	3.615400	-10.892000	25.169896	0.000957	20.804754
903.226731	-3.020800	3.614300	-10.915000	25.204784	0.000957	20.810381
904.231638	-3.010700	3.615900	-10.885000	25.209654	0.000954	20.803892
905.228204	-3.021700	3.612900	-10.917000	25.248726	0.000957	20.810876
906.224452	-3.023900	3.613800	-10.925000	25.263933	0.000951	20.802436
907.224443	-3.013800	3.613400	-10.889000	25.270688	0.000954	20.842882
908.226713	-2.990400	3.615000	-10.809000	25.260417	0.000954	20.815027
909.226542	-2.995500	3.613800	-10.824000	25.284227	0.000952	20.823759
910.230317	-2.989400	3.612600	-10.798000	25.276617	0.000952	20.832240
911.225713	-3.014300	3.611800	-10.886000	25.271791	0.000950	20.825498
912.225735	-3.006600	3.612400	-10.860000	25.238276	0.000949	20.817928
913.230627	-3.004500	3.610900	-10.847000	25.227763	0.000949	20.835348
914.225724	-2.991700	3.611900	-10.805000	25.210880	0.000949	20.818398
915.226466	-2.996400	3.612600	-10.824000	25.244358	0.000947	20.824508
916.228649	-3.003400	3.610700	-10.842000	25.283728	0.000946	20.822784
917.227938	-3.023000	3.608800	-10.908000	25.286188	0.000948	20.823831
918.223577	-2.999700	3.610500	-10.828000	25.287596	0.000946	20.849426
919.227377	-2.999500	3.610400	-10.828000	25.283966	0.000945	20.817807
920.230172	-2.984700	3.609700	-10.772000	25.274993	0.000946	20.841988
921.231422	-3.009100	3.610400	-10.863000	25.312768	0.000945	20.834872
922.227284	-3.006100	3.608600	-10.847000	25.315429	0.000945	20.834225
923.230523	-2.995200	3.608300	-10.806000	25.281994	0.000944	20.832423
924.230931	-3.020200	3.607600	-10.894000	25.265986	0.000945	20.837688
925.229230	-2.990700	3.607300	-10.788000	25.273690	0.000942	20.837362
926.234338	-2.976600	3.609000	-10.740000	25.247740	0.000944	20.819369
927.235545	-2.987800	3.607500	-10.778000	25.215326	0.000942	20.832344
928.233771	-2.974500	3.608100	-10.731000	25.264816	0.000943	20.843624
929.230962	-2.985600	3.608200	-10.771000	25.234767	0.000943	20.833845
930.232722	-2.997800	3.607000	-10.812000	25.224373	0.000942	20.825306
931.233569	-2.995700	3.607000	-10.804000	25.222410	0.000941	20.855103
932.233730	-3.013600	3.606200	-10.867000	25.199391	0.000941	20.821088
933.235246	-3.029000	3.605000	-10.918000	25.165086	0.000943	20.857296
934.236627	-3.022400	3.605100	-10.894000	25.163590	0.000940	20.840623
935.234655	-3.014500	3.604800	-10.866000	25.186245	0.000940	20.845348
936.238578	-2.998900	3.605100	-10.810000	25.236578	0.000941	20.842301
937.236602	-2.980200	3.605400	-10.743000	25.250496	0.000940	20.829722
938.237414	-2.978500	3.605900	-10.739000	25.273908	0.000938	20.839477
939.238513	-2.990000	3.603500	-10.773000	25.245301	0.000937	20.852480
940.236744	-2.999400	3.603300	-10.807000	25.238861	0.000938	20.857869
941.237277	-3.012500	3.602800	-10.852000	25.279452	0.000938	20.845991
942.235817	-2.976800	3.603700	-10.726000	25.284519	0.000940	20.855345
943.238258	-2.988800	3.603800	-10.769000	25.322948	0.000939	20.832764
944.237975	-2.979400	3.602500	-10.733000	25.336219	0.000936	20.832340
945.240034	-2.990300	3.602900	-10.772000	25.382891	0.000939	20.850752
946.237162	-2.988700	3.601500	-10.762000	25.373270	0.000937	20.849153
947.238837	-2.997700	3.600500	-10.792000	25.421681	0.000937	20.846081
948.234868	-2.979600	3.601600	-10.730000	25.421603	0.000935	20.852640
949.237296	-2.987300	3.600700	-10.756000	25.415165	0.000937	20.845701
950.237460	-3.003300	3.600500	-10.812000	25.419386	0.000935	20.860370
951.237995	-2.981600	3.600500	-10.733000	25.431511	0.000937	20.850735
952.236930	-3.003600	3.599500	-10.811000	25.453128	0.000935	20.858218
953.237572	-2.991300	3.599900	-10.766000	25.448751	0.000934	20.855245
954.234738	-3.015100	3.598300	-10.848000	25.479767	0.000934	20.850830
955.244189	-2.965200	3.600000	-10.673000	25.488110	0.000934	20.856836
956.234669	-3.035100	3.597200	-10.918000	25.498001	0.000934	20.869613
957.235759	-3.011800	3.597300	-10.832000	25.517630	0.000932	20.873204
958.238315	-2.995400	3.598900	-10.778000	25.546574	0.000934	20.877141
959.236101	-2.984200	3.598100	-10.736000	25.526966	0.000932	20.873570
960.243745	-2.970500	3.598800	-10.689000	25.510859	0.000930	20.864508
961.241768	-2.997700	3.597200	-10.782000	25.492293	0.000931	20.883795
962.241378	-2.986700	3.597600	-10.743000	25.518906	0.000930	20.872115
963.241182	-2.986800	3.597200	-10.743000	25.499519	0.000928	20.866870
964.239462	-2.994600	3.597500	-10.773000	25.495520	0.000930	20.876604
965.243890	-2.994600	3.597000	-10.770000	25.495195	0.000925	20.870115
966.241530	-2.983900	3.594900	-10.725000	25.508042	0.000926	20.862628
967.243567	-2.994700	3.596700	-10.770000	25.513035	0.000926	20.880443
968.243609	-3.015600	3.592900	-10.832000	25.526481	0.000924	20.876402
969.245290	-2.997700	3.595000	-10.775000	25.517949	0.000925	20.868309
970.245807	-2.997900	3.594600	-10.775000	25.475828	0.000926	20.862520
971.245941	-2.991100	3.594800	-10.751000	25.449780	0.000924	20.879985
972.242795	-2.979700	3.594700	-10.710000	25.420706	0.000922	20.890143
973.248362	-2.985800	3.594700	-10.732000	25.451373	0.000921	20.873998
974.247376	-2.969300	3.593900	-10.670000	25.441925	0.000922	20.883951
975.243980	-2.988600	3.592400	-10.735000	25.451172	0.000920	20.881856
976.247862	-2.995800	3.591700	-10.758000	25.422241	0.000919	20.902115
977.248510	-2.997800	3.592100	-10.768000	25.431734	0.000921	20.877511
978.243830	-2.978400	3.591400	-10.696000	25.403953	0.000920	20.886123
979.247671	-2.990800	3.593800	-10.747000	25.412822	0.000920	20.910674
980.249203	-2.965700	3.593100	-10.655000	25.421371	0.000921	20.907405
981.244915	-2.997900	3.591100	-10.765000	25.437897	0.000921	20.885121
982.249035	-2.983900	3.591700	-10.717000	25.423284	0.000919	20.872345
983.247095	-2.988800	3.591800	-10.734000	25.395543	0.000920	20.891903
984.247561	-3.007100	3.590600	-10.796000	25.372508	0.000918	20.882050
985.256304	-2.995500	3.590100	-10.752000	25.357421	0.000917	20.910047
986.250093	-3.000100	3.590600	-10.771000	25.306617	0.000920	20.893651
987.248767	-2.978100	3.590200	-10.690000	25.280643	0.000919	20.884643
988.252190	-2.977100	3.590100	-10.687000	25.270180	0.000917	20.902111
989.251678	-2.964000	3.590400	-10.641000	25.264287	0.000916	20.893824
990.249201	-2.986200	3.590000	-10.720000	25.263543	0.000916	20.907776
991.257985	-3.005900	3.589000	-10.788000	25.261079	0.000915	20.888708
992.257289	-2.995400	3.589200	-10.750000	25.267724	0.000917	20.893956
993.254844	-2.992700	3.587200	-10.735000	25.275153	0.000915	20.900940
994.252938	-2.971800	3.589000	-10.664000	25.311266	0.000916	20.902585
995.251164	-2.996200	3.585500	-10.742000	25.347952	0.000914	20.891058
996.253410	-2.978400	3.587800	-10.684000	25.360431	0.000915	20.883200
997.255093	-3.001000	3.586700	-10.762000	25.386625	0.000915	20.892905
998.259005	-2.982500	3.586400	-10.695000	25.402035	0.000913	20.902214
999.252710	-2.982600	3.585300	-10.693000	25.415503	0.000915	20.891557
1000.255922	-2.978000	3.586600	-10.680000	25.437248	0.000913	20.900116
1001.257131	-2.989700	3.585000	-10.717000	25.441547	0.000913	20.900165
1002.252944	-2.997300	3.584700	-10.742000	25.399276	0.000911	20.885694
1003.255147	-2.991900	3.582800	-10.718000	25.428601	0.000911	20.917509
1004.255003	-2.992100	3.583900	-10.722000	25.450568	0.000911	20.919179
1005.255550	-2.990600	3.582700	-10.713000	25.483345	0.000911	20.900887
1006.260191	-2.979900	3.582600	-10.675000	25.514282	0.000909	20.917253
1007.259995	-2.984700	3.583400	-10.694000	25.532597	0.000911	20.898664
1008.260730	-2.991600	3.583900	-10.719000	25.541991	0.000909	20.890555
1009.261311	-2.985700	3.582800	-10.697000	25.574195	0.000909	20.905825
1010.265825	-2.967700	3.584900	-10.638000	25.579433	0.000911	20.904448
1011.260253	-2.990100	3.582800	-10.712000	25.568845	0.000909	20.918944
1012.263237	-2.988300	3.581300	-10.701000	25.502248	0.000910	20.906592
1013.258341	-2.989100	3.581700	-10.705000	25.444860	0.000911	20.892587
1014.263217	-2.974700	3.582200	-10.655000	25.424724	0.000910	20.896549
1015.258801	-2.986500	3.579900	-10.690000	25.359137	0.000907	20.892805
1016.258253	-2.983500	3.580600	-10.682000	25.389753	0.000908	20.906476
1017.262585	-2.983200	3.580000	-10.678000	25.413934	0.000906	20.908946
1018.267410	-2.997400	3.580600	-10.732000	25.425336	0.000907	20.890525
1019.258479	-2.995000	3.579600	-10.720000	25.440791	0.000908	20.905569
1020.260951	-2.989800	3.579100	-10.699000	25.479854	0.000905	20.892166
1021.259463	-2.994100	3.578000	-10.712000	25.483529	0.000904	20.901545
1022.259998	-3.018900	3.577600	-10.799000	25.512277	0.000904	20.885371
1023.267544	-2.989900	3.578100	-10.697000	25.503224	0.000903	20.894297
1024.264944	-2.981900	3.579200	-10.670000	25.544896	0.000905	20.883516
1025.264145	-2.997100	3.576500	-10.718000	25.551448	0.000901	20.890570
1026.265598	-2.991000	3.578700	-10.702000	25.534973	0.000900	20.892042
1027.260253	-2.998000	3.577400	-10.723000	25.533174	0.000902	20.883598
1028.270045	-2.992800	3.577000	-10.705000	25.528925	0.000904	20.873167
1029.260395	-3.004800	3.575900	-10.744000	25.530711	0.000902	20.887762
1030.267179	-3.038800	3.574600	-10.861000	25.563600	0.000901	20.896609
1031.261500	-3.013600	3.576200	-10.776000	25.573166	0.000901	20.891043
1032.262923	-3.012200	3.574900	-10.768000	25.619676	0.000899	20.894605
1033.262299	-3.021500	3.573900	-10.797000	25.579144	0.000899	20.896098
1034.263622	-3.001800	3.574800	-10.730000	25.584514	0.000898	20.884896
1035.264930	-3.013700	3.573300	-10.766000	25.600804	0.000898	20.882765
1036.263498	-2.973100	3.573900	-10.624000	25.603164	0.000899	20.893669
1037.262530	-2.965700	3.574500	-10.599000	25.564565	0.000897	20.886199
1038.267986	-2.998500	3.574200	-10.715000	25.580170	0.000897	20.912774
1039.264597	-2.990300	3.574300	-10.686000	25.594227	0.000897	20.878056
1040.264751	-2.955600	3.574900	-10.565000	25.603542	0.000896	20.860386
1041.266930	-3.003300	3.571600	-10.725000	25.633728	0.000896	20.885012
1042.267231	-3.018600	3.570500	-10.778000	25.629376	0.000894	20.885383
1043.272707	-2.977500	3.572300	-10.635000	25.656229	0.000894	20.890540
1044.269277	-2.984500	3.571800	-10.659000	25.660178	0.000893	20.881705
1045.268304	-2.966000	3.572400	-10.594000	25.680596	0.000892	20.873765
1046.267573	-3.011300	3.570400	-10.751000	25.671623	0.000890	20.875183
1047.269254	-2.994000	3.571300	-10.692000	25.694902	0.000891	20.873435
1048.268970	-3.018400	3.569000	-10.772000	25.699763	0.000889	20.877842
1049.270709	-2.987800	3.569200	-10.663000	25.728009	0.000890	20.878712
1050.273359	-2.989300	3.569300	-10.668000	25.735291	0.000889	20.870380
1051.268743	-2.992400	3.569400	-10.680000	25.694664	0.000887	20.884575
1052.268755	-3.017200	3.568100	-10.765000	25.672374	0.000888	20.882101
1053.271402	-2.995900	3.569200	-10.692000	25.669316	0.000888	20.882823
1054.277421	-2.991800	3.567400	-10.671000	25.685042	0.000887	20.868273
1055.273667	-3.011300	3.567100	-10.741000	25.660564	0.000886	20.863602
1056.272382	-3.020600	3.567200	-10.774000	25.664891	0.000885	20.878378
1057.271391	-3.014300	3.565900	-10.747000	25.667620	0.000884	20.874482
1058.271283	-3.005500	3.566200	-10.717000	25.694201	0.000884	20.869411
1059.269169	-3.014100	3.566000	-10.747000	25.686775	0.000883	20.865746
1060.275341	-2.979300	3.567300	-10.626000	25.705904	0.000882	20.876424
1061.269724	-2.975300	3.567000	-10.611000	25.685580	0.000882	20.869762
1062.270134	-2.969400	3.566700	-10.589000	25.661278	0.000880	20.858630
1063.272241	-2.996800	3.565800	-10.685000	25.624056	0.000881	20.846377
1064.278198	-2.987000	3.565900	-10.650000	25.593246	0.000882	20.875175
1065.274691	-3.000000	3.563700	-10.690000	25.609499	0.000879	20.858783
1066.281435	-2.989200	3.565000	-10.654000	25.608674	0.000878	20.861273
1067.275947	-2.990900	3.564500	-10.660000	25.575905	0.000878	20.854441
1068.277005	-3.006500	3.564300	-10.715000	25.586636	0.000878	20.837245
1069.276877	-2.994800	3.563100	-10.670000	25.599909	0.000876	20.866694
1070.275521	-3.010300	3.561800	-10.721000	25.589567	0.000876	20.863895
1071.276778	-3.009200	3.561100	-10.714000	25.538331	0.000875	20.856536
1072.273239	-2.971500	3.563500	-10.587000	25.533486	0.000876	20.857834
1073.282901	-3.007600	3.561700	-10.711000	25.543631	0.000875	20.854746
1074.278258	-3.001200	3.562000	-10.689000	25.568084	0.000874	20.861285
1075.277558	-2.996000	3.562500	-10.672000	25.574394	0.000876	20.859088
1076.276190	-2.995400	3.561300	-10.666000	25.587170	0.000872	20.854849
1077.281505	-2.977700	3.561600	-10.604000	25.593656	0.000873	20.837183
1078.278091	-2.996800	3.560500	-10.669000	25.569405	0.000873	20.877310
1079.278869	-3.016500	3.560600	-10.740000	25.548976	0.000870	20.844942
1080.278670	-2.986900	3.559900	-10.631000	25.530916	0.000871	20.845771
1081.277138	-3.000800	3.558800	-10.678000	25.546546	0.000872	20.825432
1082.282226	-2.988900	3.560800	-10.642000	25.539066	0.000869	20.861066
1083.279827	-2.979800	3.560400	-10.607000	25.580519	0.000869	20.843903
1084.281515	-3.000600	3.557400	-10.673000	25.578454	0.000869	20.829027
1085.280207	-2.997500	3.557900	-10.664000	25.594309	0.000868	20.844476
1086.279789	-2.987700	3.558900	-10.632000	25.581365	0.000866	20.835744
1087.282025	-2.976900	3.558000	-10.590000	25.602786	0.000866	20.833076
1088.280653	-2.992500	3.558000	-10.647000	25.617623	0.000869	20.864571
1089.278907	-3.004000	3.555500	-10.680000	25.605500	0.000867	20.847655
1090.282592	-2.985500	3.556300	-10.616000	25.568753	0.000865	20.845836
1091.279439	-3.013000	3.556000	-10.713000	25.573622	0.000865	20.847407
1092.278474	-3.010200	3.555800	-10.704000	25.535929	0.000864	20.838951
1093.284561	-2.990800	3.556200	-10.635000	25.540999	0.000863	20.834560
1094.277995	-3.000000	3.556200	-10.667000	25.537821	0.000863	20.843697
1095.281330	-3.019600	3.553200	-10.728000	25.535017	0.000863	20.851312
1096.280633	-3.000400	3.554600	-10.664000	25.551370	0.000862	20.833595
1097.281102	-3.004500	3.555200	-10.680000	25.539566	0.000862	20.834070
1098.285762	-2.995100	3.553300	-10.642000	25.521231	0.000861	20.834622
1099.281948	-3.011400	3.552800	-10.698000	25.571208	0.000860	20.830285
1100.280549	-3.015700	3.553000	-10.714000	25.550787	0.000861	20.835855
1101.282008	-3.015700	3.550800	-10.707000	25.561843	0.000861	20.840320
1102.283607	-3.015700	3.552400	-10.712000	25.533022	0.000859	20.831765
1103.285434	-3.011300	3.552200	-10.696000	25.557528	0.000859	20.819392
1104.285387	-2.986300	3.552300	-10.606000	25.545872	0.000858	20.819540
1105.288065	-3.002700	3.550800	-10.660000	25.558374	0.000858	20.831146
1106.286491	-3.019400	3.549800	-10.716000	25.567024	0.000857	20.824661
1107.286437	-3.003700	3.550800	-10.664000	25.575178	0.000858	20.828582
1108.287077	-3.001600	3.549100	-10.651000	25.581291	0.000857	20.803428
1109.290998	-3.009400	3.549000	-10.678000	25.568547	0.000857	20.817182
1110.285412	-2.984500	3.550400	-10.595000	25.545314	0.000857	20.814712
1111.289106	-3.010800	3.548800	-10.684000	25.567135	0.000857	20.820505
1112.285599	-2.987800	3.549800	-10.604000	25.581796	0.000857	20.813892
1113.289329	-2.992400	3.549300	-10.619000	25.576824	0.000857	20.825020
1114.292406	-3.002000	3.547900	-10.649000	25.543253	0.000857	20.818332
1115.286605	-3.026200	3.548600	-10.737000	25.512986	0.000856	20.837723
1116.290860	-3.009800	3.547300	-10.675000	25.489251	0.000854	20.806301
1117.289334	-3.016200	3.545500	-10.692000	25.466316	0.000854	20.817409
1118.285953	-2.983600	3.547700	-10.584000	25.456080	0.000855	20.828467
1119.285084	-2.997800	3.546400	-10.630000	25.457591	0.000854	20.803432
1120.291644	-2.970400	3.547900	-10.537000	25.497627	0.000853	20.817083
1121.287939	-3.008800	3.545200	-10.666000	25.492006	0.000853	20.804326
1122.289771	-2.971600	3.546300	-10.537000	25.495414	0.000853	20.821499
1123.288709	-3.024100	3.544700	-10.718000	25.473316	0.000851	20.798360
1124.288224	-3.012400	3.544000	-10.674000	25.454450	0.000850	20.804071
1125.289575	-3.027500	3.543600	-10.727000	25.409736	0.000851	20.797577
1126.294162	-3.009800	3.542400	-10.661000	25.407752	0.000852	20.805069
1127.292971	-2.992100	3.544300	-10.604000	25.443885	0.000851	20.819066
1128.294629	-2.994500	3.542700	-10.607000	25.476815	0.000851	20.824632
1129.291179	-2.990000	3.542900	-10.593000	25.499967	0.000849	20.805209
1130.292591	-2.989000	3.542000	-10.586000	25.561219	0.000850	20.823098
1131.296925	-2.979400	3.544300	-10.558000	25.588126	0.000849	20.801284
1132.296034	-2.999700	3.542300	-10.624000	25.635608	0.000847	20.813409
1133.292917	-3.010900	3.540700	-10.659000	25.662711	0.000846	20.811707
1134.291424	-3.010000	3.541000	-10.657000	25.680346	0.000847	20.814720
1135.296869	-2.996500	3.541400	-10.610000	25.701216	0.000846	20.812449
1136.298612	-2.991000	3.542400	-10.594000	25.725981	0.000844	20.826417
1137.295954	-3.008600	3.540600	-10.652000	25.722574	0.000846	20.815883
1138.299622	-2.988100	3.540900	-10.580000	25.723888	0.000844	20.807720
1139.296221	-3.019700	3.538100	-10.682000	25.755515	0.000844	20.817677
1140.295949	-2.995000	3.540100	-10.602000	25.765071	0.000842	20.808784
1141.292667	-2.973000	3.539900	-10.522000	25.764845	0.000842	20.813298
1142.292864	-3.001000	3.539600	-10.621000	25.761841	0.000843	20.828298
1143.292776	-2.988800	3.539200	-10.577000	25.782997	0.000841	20.809245
1144.291774	-2.994800	3.537600	-10.593000	25.801779	0.000840	20.818155
1145.294248	-2.987200	3.539400	-10.571000	25.795815	0.000841	20.796992
1146.296618	-2.993800	3.536800	-10.587000	25.796185	0.000839	20.811113
1147.294465	-3.007800	3.537300	-10.639000	25.798943	0.000840	20.799185
1148.295900	-3.008400	3.536700	-10.638000	25.803360	0.000839	20.810734
1149.294195	-2.983300	3.537600	-10.551000	25.838778	0.000839	20.801742
1150.295258	-3.001200	3.535600	-10.610000	25.857588	0.000838	20.797404
1151.297302	-3.001800	3.536200	-10.614000	25.823603	0.000838	20.782705
1152.297825	-3.003700	3.536500	-10.622000	25.785263	0.000837	20.811996
1153.296952	-2.993600	3.536200	-10.585000	25.758976	0.000838	20.793178
1154.299245	-3.008700	3.535200	-10.635000	25.764715	0.000836	20.800365
1155.300282	-3.034300	3.534600	-10.723000	25.784462	0.000834	20.800761
1156.294810	-3.015500	3.534000	-10.656000	25.822200	0.000835	20.795046
1157.299453	-3.008200	3.535500	-10.634000	25.821474	0.000835	20.805222
1158.303228	-3.010800	3.532000	-10.633000	25.815711	0.000835	20.799907
1159.296918	-2.999100	3.534600	-10.600000	25.750241	0.000833	20.810957
1160.297819	-3.005500	3.533300	-10.618000	25.721516	0.000833	20.806760
1161.298458	-3.022900	3.532900	-10.678000	25.721713	0.000833	20.803165
1162.299010	-2.998100	3.532700	-10.591000	25.707719	0.000834	20.769669
1163.303878	-2.997400	3.532900	-10.587000	25.710400	0.000834	20.780422
1164.300755	-2.985500	3.532800	-10.545000	25.678291	0.000832	20.804596
1165.302330	-2.998400	3.531900	-10.589000	25.677100	0.000831	20.796762
1166.299434	-3.004600	3.530900	-10.607000	25.623672	0.000831	20.802370
1167.298943	-3.025200	3.529300	-10.675000	25.597948	0.000829	20.793604
1168.302869	-3.021300	3.529900	-10.664000	25.574416	0.000830	20.782299
1169.300194	-3.000600	3.530200	-10.592000	25.618438	0.000830	20.787156
1170.301025	-2.994800	3.529800	-10.570000	25.621419	0.000830	20.805322
1171.301183	-2.985300	3.530100	-10.537000	25.626259	0.000829	20.801175
1172.302746	-2.990400	3.529200	-10.552000	25.669585	0.000829	20.796326
1173.301505	-3.011800	3.528400	-10.625000	25.646798	0.000827	20.806630
1174.304200	-3.005900	3.527900	-10.604000	25.661228	0.000826	20.796467
1175.303951	-2.978100	3.528600	-10.507000	25.680407	0.000827	20.777798
1176.304727	-3.016100	3.526100	-10.634000	25.668769	0.000827	20.773221
1177.305894	-3.003300	3.526500	-10.589000	25.658355	0.000826	20.797849
1178.307464	-3.000600	3.527600	-10.584000	25.662850	0.000823	20.794303
1179.308356	-2.984100	3.527500	-10.525000	25.621720	0.000825	20.802781
1180.311712	-3.006300	3.526500	-10.601000	25.623933	0.000824	20.798365
1181.310459	-3.002200	3.525500	-10.583000	25.611696	0.000823	20.778962
1182.306543	-2.985300	3.526700	-10.526000	25.601108	0.000821	20.796304
1183.310738	-2.995100	3.525400	-10.558000	25.576406	0.000819	20.809428
1184.317040	-2.982900	3.524000	-10.510000	25.532071	0.000820	20.792878
1185.310124	-2.990200	3.523600	-10.535000	25.543871	0.000820	20.775804
1186.313368	-2.972700	3.524100	-10.475000	25.590682	0.000820	20.809066
1187.312117	-2.985200	3.523600	-10.518000	25.581116	0.000819	20.776699
1188.311819	-2.997200	3.523200	-10.559000	25.595850	0.000815	20.783911
1189.313078	-3.011800	3.522200	-10.607000	25.606159	0.000816	20.785255
1190.316255	-3.001800	3.522300	-10.572000	25.614924	0.000815	20.791688
1191.312078	-3.004400	3.523400	-10.584000	25.680817	0.000814	20.791960
1192.313721	-2.983200	3.522400	-10.506000	25.695845	0.000814	20.774812
1193.315050	-2.990700	3.520900	-10.530000	25.726234	0.000815	20.777360
1194.311347	-3.010700	3.520700	-10.599000	25.712118	0.000814	20.779776
1195.319467	-2.984700	3.520400	-10.506000	25.718673	0.000813	20.789680
1196.313449	-3.011900	3.519500	-10.599000	25.714051	0.000812	20.787409
1197.320001	-2.995500	3.520000	-10.542000	25.753331	0.000812	20.763799
1198.316650	-2.986000	3.520900	-10.513000	25.773900	0.000812	20.789202
1199.317245	-3.001300	3.519500	-10.562000	25.808059	0.000814	20.784634
1200.321699	-3.010800	3.517700	-10.589000	25.829993	0.000810	20.782012
1201.319619	-3.016900	3.517800	-10.612000	25.835760	0.000809	20.805348
1202.321092	-2.986300	3.518400	-10.506000	25.854706	0.000812	20.775069
1203.321137	-3.028800	3.516300	-10.648000	25.828824	0.000812	20.773250
1204.318523	-3.011000	3.516600	-10.588000	25.839680	0.000811	20.794113
1205.319180	-3.015900	3.517300	-10.607000	25.845812	0.000809	20.795058
1206.320503	-3.019500	3.516000	-10.614000	25.846157	0.000810	20.768851
1207.319277	-3.002200	3.517600	-10.558000	25.834382	0.000808	20.772195
1208.317203	-2.992600	3.515300	-10.519000	25.843572	0.000808	20.774789
1209.323960	-2.974000	3.516400	-10.455000	25.832863	0.000807	20.765454
1210.319656	-2.989500	3.515900	-10.509000	25.857654	0.000806	20.791306
1211.322006	-2.995700	3.515000	-10.529000	25.847738	0.000807	20.775655
1212.323851	-2.987900	3.516300	-10.505000	25.783761	0.000805	20.777771
1213.320512	-3.003000	3.513200	-10.548000	25.761551	0.000807	20.785807
1214.322283	-2.995400	3.513400	-10.522000	25.736208	0.000804	20.785481
1215.321955	-3.010100	3.513300	-10.574000	25.756199	0.000804	20.801294
1216.324733	-3.019200	3.512800	-10.605000	25.779005	0.000805	20.771096
1217.321937	-2.995700	3.511400	-10.517000	25.792419	0.000803	20.788364
1218.325490	-3.024500	3.512000	-10.620000	25.813952	0.000803	20.761630
1219.326142	-3.002100	3.512800	-10.545000	25.814642	0.000801	20.782712
1220.325812	-2.987400	3.511200	-10.488000	25.812680	0.000801	20.785483
1221.322342	-3.009600	3.509600	-10.560000	25.827055	0.000801	20.753929
1222.325200	-2.994400	3.510600	-10.512000	25.864939	0.000801	20.783451
1223.327703	-3.017900	3.509900	-10.592000	25.868292	0.000800	20.767854
1224.325745	-3.004400	3.509200	-10.542000	25.879239	0.000799	20.762255
1225.327289	-2.988500	3.510500	-10.490000	25.848732	0.000799	20.794671
1226.326755	-3.002300	3.509200	-10.534000	25.779862	0.000799	20.773854
1227.328262	-2.993900	3.509500	-10.505000	25.738987	0.000797	20.770255
1228.330772	-2.981000	3.509500	-10.458000	25.724772	0.000797	20.782530
1229.326996	-3.027400	3.507300	-10.617000	25.731451	0.000796	20.782126
1230.326693	-2.979200	3.509000	-10.453000	25.709236	0.000795	20.782098
1231.323490	-2.999800	3.506900	-10.520000	25.690296	0.000795	20.802904
1232.328135	-3.003700	3.508000	-10.536000	25.701077	0.000795	20.783860
1233.327351	-3.006700	3.506500	-10.542000	25.691459	0.000794	20.801226
1234.325294	-2.996900	3.505800	-10.506000	25.662411	0.000793	20.788647
1235.329728	-3.021600	3.504800	-10.589000	25.666135	0.000794	20.777688
1236.328184	-3.005000	3.506000	-10.535000	25.651025	0.000792	20.781952
1237.330149	-3.021200	3.504900	-10.588000	25.689010	0.000791	20.807775
1238.334040	-2.996200	3.505500	-10.503000	25.713631	0.000791	20.790306
1239.329961	-2.998500	3.505200	-10.510000	25.734050	0.000790	20.790426
1240.329731	-2.998900	3.504100	-10.508000	25.753650	0.000788	20.796363
1241.331163	-3.000300	3.504400	-10.513000	25.748155	0.000789	20.792266
1242.328747	-3.007300	3.504200	-10.538000	25.744797	0.000788	20.770401
1243.335993	-2.992800	3.503900	-10.486000	25.765892	0.000788	20.779736
1244.330609	-2.990600	3.502600	-10.474000	25.804767	0.000789	20.777060
1245.327825	-2.989300	3.502200	-10.468000	25.834086	0.000786	20.789916
1246.335458	-2.986100	3.503000	-10.460000	25.841264	0.000785	20.767255
1247.331301	-2.976100	3.501400	-10.420000	25.852117	0.000785	20.787166
1248.332453	-2.979000	3.500900	-10.427000	25.859542	0.000784	20.775659
1249.336291	-3.011900	3.500000	-10.540000	25.861356	0.000784	20.805457
1250.334778	-2.984200	3.502400	-10.450000	25.866798	0.000783	20.772043
1251.335124	-2.978700	3.500600	-10.426000	25.866643	0.000783	20.775680
1252.333267	-2.995600	3.498600	-10.478000	25.894142	0.000782	20.804727
1253.334021	-2.996600	3.501000	-10.491000	25.913891	0.000781	20.797067
1254.336193	-3.019200	3.497800	-10.560000	25.929118	0.000780	20.771112
1255.339291	-2.982800	3.498700	-10.435000	25.881521	0.000778	20.801058
1256.337770	-3.011100	3.497100	-10.529000	25.842666	0.000779	20.786681
1257.339806	-2.988300	3.498200	-10.452000	25.795661	0.000778	20.790673
1258.341829	-2.998000	3.498400	-10.487000	25.781676	0.000777	20.756236
1259.340009	-3.029300	3.496100	-10.590000	25.748161	0.000778	20.771409
1260.342302	-3.004600	3.497400	-10.506000	25.742369	0.000776	20.772230
1261.344354	-2.980200	3.496200	-10.418000	25.732407	0.000776	20.792095
1262.338755	-2.995600	3.496600	-10.474000	25.750768	0.000777	20.782562
1263.339648	-2.996200	3.495300	-10.472000	25.782550	0.000777	20.791727
1264.341239	-2.994600	3.495400	-10.466000	25.789056	0.000774	20.802530
1265.345632	-2.987600	3.495600	-10.441000	25.808036	0.000775	20.790301
1266.343343	-3.006400	3.494300	-10.505000	25.808110	0.000773	20.772832
1267.342698	-3.012600	3.493400	-10.523000	25.840704	0.000774	20.785184
1268.342501	-3.015600	3.492900	-10.532000	25.877545	0.000773	20.770510
1269.344004	-3.000200	3.492300	-10.477000	25.852405	0.000773	20.786508
1270.343365	-3.012400	3.493000	-10.520000	25.903483	0.000773	20.796094
1271.344315	-2.999200	3.493000	-10.475000	25.901644	0.000773	20.788557
1272.343032	-2.998800	3.494000	-10.476000	25.931178	0.000772	20.789777
1273.340855	-3.028400	3.490900	-10.571000	25.931256	0.000770	20.787010
1274.342378	-2.986800	3.492000	-10.429000	25.957710	0.000772	20.793199
1275.342152	-2.984600	3.491800	-10.421000	25.914170	0.000770	20.798769
1276.343993	-2.975500	3.491400	-10.388000	25.879711	0.000770	20.794498
1277.342459	-2.999200	3.490100	-10.467000	25.844836	0.000771	20.790284
1278.345162	-2.985400	3.489700	-10.416000	25.843022	0.000769	20.793677
1279.345253	-2.997100	3.490100	-10.459000	25.830499	0.000769	20.777304
1280.341274	-2.991500	3.487900	-10.433000	25.865805	0.000767	20.789063
1281.345462	-2.992300	3.489000	-10.438000	25.870078	0.000766	20.786717
1282.343878	-3.005600	3.488200	-10.483000	25.885481	0.000767	20.787018
1283.344834	-2.995300	3.488300	-10.448000	25.876513	0.000766	20.788440
1284.341928	-3.018700	3.487300	-10.526000	25.864417	0.000767	20.766806
1285.344682	-3.008200	3.487900	-10.491000	25.847256	0.000766	20.797457
1286.343364	-2.987500	3.487500	-10.418000	25.848644	0.000767	20.795057
1287.349288	-2.980300	3.486500	-10.390000	25.815828	0.000764	20.790068
1288.347517	-3.000600	3.485400	-10.456000	25.799755	0.000764	20.800949
1289.350434	-2.996100	3.486300	-10.444000	25.828503	0.000764	20.777669
1290.346496	-2.993000	3.485900	-10.432000	25.852878	0.000764	20.794570
1291.348814	-2.963700	3.486100	-10.330000	25.855957	0.000762	20.791024
1292.349432	-2.984100	3.484900	-10.399000	25.862938	0.000762	20.788554
1293.346117	-3.003500	3.483900	-10.462000	25.901469	0.000760	20.802131
1294.348438	-2.965000	3.484900	-10.331000	25.889374	0.000762	20.769591
1295.346066	-2.999200	3.484500	-10.450000	25.842198	0.000759	20.790005
1296.351228	-3.010900	3.481200	-10.480000	25.787620	0.000760	20.801088
1297.348225	-2.990900	3.482500	-10.416000	25.770356	0.000761	20.795600
1298.352275	-2.992500	3.481300	-10.417000	25.761887	0.000760	20.781877
1299.349398	-2.979100	3.482100	-10.372000	25.777267	0.000758	20.789740
1300.349969	-2.989200	3.481400	-10.405000	25.796916	0.000758	20.798098
1301.353405	-3.017600	3.480500	-10.501000	25.784750	0.000758	20.789195
1302.347445	-3.003900	3.479900	-10.450000	25.863002	0.000759	20.783877
1303.353766	-3.009600	3.481000	-10.475000	25.891527	0.000756	20.814902
1304.347035	-3.014200	3.478800	-10.484000	25.889364	0.000757	20.784755
1305.353226	-3.014700	3.479300	-10.489000	25.887508	0.000755	20.791899
1306.349339	-2.982100	3.479800	-10.376000	25.931525	0.000755	20.792497
1307.351511	-3.005300	3.478000	-10.451000	25.957265	0.000754	20.777105
1308.352591	-3.012100	3.478300	-10.476000	25.994275	0.000753	20.781570
1309.352515	-3.026800	3.478000	-10.525000	25.994500	0.000756	20.802186
1310.354870	-2.992300	3.477700	-10.406000	25.989838	0.000753	20.802717
1311.354926	-2.992100	3.478300	-10.406000	25.972298	0.000752	20.811174
1312.356514	-2.992200	3.478200	-10.406000	25.946918	0.000751	20.802745
1313.350663	-2.993700	3.477900	-10.411000	25.916613	0.000751	20.780835
1314.353821	-3.020600	3.475900	-10.498000	25.878932	0.000752	20.793715
1315.354732	-3.004200	3.476300	-10.442000	25.857745	0.000751	20.803726
1316.354743	-2.990600	3.475400	-10.392000	25.850669	0.000748	20.793298
1317.353970	-2.975900	3.475100	-10.340000	25.832063	0.000747	20.787885
1318.355980	-3.025700	3.473500	-10.509000	25.826124	0.000748	20.787608
1319.358069	-2.997000	3.474300	-10.412000	25.823669	0.000749	20.793677
1320.355120	-2.984000	3.475500	-10.369000	25.829584	0.000747	20.782549
1321.356899	-3.009100	3.473000	-10.448000	25.838905	0.000748	20.790489
1322.354077	-2.978600	3.473000	-10.344000	25.884763	0.000747	20.791986
1323.355708	-2.982900	3.474700	-10.363000	25.943074	0.000747	20.800780
1324.356047	-3.011200	3.472400	-10.455000	25.971518	0.000744	20.797588
1325.359030	-2.993500	3.471100	-10.390000	25.983366	0.000745	20.786732
1326.353102	-3.014100	3.470800	-10.460000	26.003689	0.000745	20.785338
1327.353127	-3.017200	3.470900	-10.471000	26.034565	0.000743	20.801662
1328.355869	-2.974500	3.470700	-10.321000	26.033752	0.000743	20.798000
1329.355076	-3.007500	3.470900	-10.438000	26.004989	0.000740	20.790912
1330.359248	-3.006400	3.469000	-10.428000	25.999227	0.000745	20.802193
1331.352482	-3.012700	3.469800	-10.453000	26.017045	0.000741	20.800654
1332.357176	-2.995000	3.469600	-10.391000	26.022166	0.000744	20.803903
1333.353599	-3.023900	3.465700	-10.478000	26.019909	0.000740	20.806376
1334.354857	-3.027400	3.468000	-10.498000	26.048401	0.000743	20.780001
1335.356255	-3.023700	3.468000	-10.484000	26.031542	0.000741	20.801469
1336.359896	-2.994200	3.468200	-10.383000	26.093712	0.000742	20.806087
1337.353999	-3.013700	3.466600	-10.447000	26.063936	0.000740	20.789446
1338.356573	-3.048400	3.464500	-10.560000	26.063021	0.000738	20.790897
1339.354798	-3.006600	3.466700	-10.422000	26.075171	0.000737	20.792674
1340.355147	-3.019600	3.465700	-10.464000	26.046712	0.000737	20.805331
1341.362595	-2.994300	3.465000	-10.374000	26.048456	0.000737	20.790488
1342.358231	-3.007500	3.463400	-10.415000	26.089516	0.000737	20.808035
1343.355048	-2.988600	3.464800	-10.354000	26.093689	0.000736	20.808435
1344.358728	-2.996000	3.464200	-10.378000	26.096352	0.000736	20.801154
1345.357938	-3.009500	3.463500	-10.422000	26.093996	0.000733	20.796416
1346.362845	-2.992000	3.464800	-10.366000	26.094919	0.000736	20.797343
1347.358929	-2.966300	3.465200	-10.277000	26.107517	0.000733	20.791983
1348.356429	-3.009400	3.461500	-10.416000	26.090705	0.000733	20.819661
1349.355695	-3.024100	3.460300	-10.464000	26.054273	0.000731	20.806764
1350.355746	-3.028800	3.461400	-10.483000	25.995557	0.000733	20.800876
1351.358366	-2.982200	3.461600	-10.323000	25.953906	0.000731	20.804075
1352.359946	-3.024700	3.460500	-10.465000	25.965536	0.000730	20.807225
1353.358838	-2.998700	3.461300	-10.378000	25.971946	0.000731	20.799915
1354.357906	-2.979600	3.459800	-10.306000	26.005779	0.000730	20.813991
1355.356106	-3.008000	3.459000	-10.403000	26.008191	0.000729	20.787966
1356.356491	-2.987400	3.459200	-10.333000	26.008819	0.000729	20.811356
1357.357618	-3.005500	3.460100	-10.399000	25.987483	0.000729	20.801774
1358.356163	-3.004900	3.458200	-10.391000	26.005741	0.000730	20.801151
1359.358354	-3.012900	3.456900	-10.415000	25.961181	0.000729	20.810910
1360.358796	-2.985100	3.457300	-10.320000	25.958800	0.000727	20.814683
1361.358042	-3.012000	3.458000	-10.414000	25.934160	0.000727	20.810316
1362.361958	-2.992500	3.456300	-10.341000	25.971797	0.000727	20.824895
1363.360519	-3.021800	3.455600	-10.442000	25.993088	0.000726	20.824000
1364.364439	-2.998400	3.456600	-10.363000	25.976147	0.000727	20.788014
1365.365037	-3.013300	3.456500	-10.415000	25.966761	0.000726	20.809405
1366.365068	-2.989000	3.457000	-10.332000	26.012343	0.000723	20.811577
1367.364181	-2.983500	3.456500	-10.311000	26.039617	0.000721	20.816220
1368.367432	-2.991400	3.454500	-10.333000	26.058649	0.000723	20.804523
1369.368029	-3.005000	3.454400	-10.379000	26.089225	0.000722	20.819122
1370.363460	-3.014600	3.452700	-10.408000	26.094145	0.000723	20.798462
1371.366087	-2.998100	3.454100	-10.354000	26.102122	0.000720	20.811692
1372.363603	-3.000600	3.450900	-10.354000	26.078502	0.000721	20.814512
1373.369118	-2.994300	3.452800	-10.338000	26.069117	0.000718	20.796548
1374.373098	-3.019200	3.452100	-10.423000	26.032952	0.000719	20.802885
1375.372635	-3.023800	3.449200	-10.428000	26.068226	0.000717	20.816516
1376.367763	-2.983900	3.451000	-10.296000	26.089786	0.000722	20.798350
1377.366138	-2.992200	3.451600	-10.327000	26.140402	0.000719	20.814595
1378.367181	-2.990500	3.450100	-10.316000	26.131797	0.000718	20.830130
1379.369362	-3.002600	3.450200	-10.359000	26.164775	0.000718	20.827231
1380.367644	-3.002100	3.450500	-10.358000	26.155563	0.000717	20.817027
1381.369317	-3.000300	3.447900	-10.344000	26.140639	0.000717	20.806773
1382.364342	-3.006200	3.449500	-10.369000	26.152190	0.000714	20.810793
1383.364768	-2.998500	3.448900	-10.341000	26.134312	0.000717	20.840717
1384.367815	-2.987600	3.448500	-10.302000	26.125970	0.000715	20.810999
1385.366622	-3.007600	3.446100	-10.363000	26.094899	0.000714	20.820082
1386.370558	-3.017000	3.446400	-10.397000	26.086084	0.000714	20.822605
1387.369014	-3.006700	3.446500	-10.362000	26.098600	0.000714	20.811947
1388.367678	-2.990200	3.447500	-10.307000	26.105764	0.000715	20.806343
1389.371136	-3.008700	3.445900	-10.366000	26.130824	0.000712	20.803074
1390.368776	-2.993200	3.446200	-10.313000	26.137455	0.000713	20.836763
1391.366770	-3.001200	3.444500	-10.337000	26.109593	0.000713	20.818251
1392.367336	-2.999400	3.445300	-10.333000	26.083638	0.000710	20.823466
1393.368798	-2.995600	3.444900	-10.318000	26.054433	0.000710	20.814037
1394.367361	-2.998700	3.443500	-10.325000	26.058356	0.000711	20.813237
1395.371869	-2.995000	3.444200	-10.314000	26.059829	0.000711	20.816614
1396.368874	-2.997600	3.442500	-10.319000	26.080540	0.000709	20.842638
1397.371886	-3.018200	3.442300	-10.388000	26.051782	0.000712	20.838873
1398.372684	-2.978100	3.443300	-10.253000	26.060227	0.000711	20.839298
1399.369856	-2.989000	3.442900	-10.290000	26.083305	0.000708	20.829770
1400.377335	-3.012300	3.441400	-10.365000	26.106006	0.000709	20.822707
1401.373377	-2.999600	3.441600	-10.323000	26.092345	0.000711	20.823680
1402.375818	-3.015400	3.440700	-10.375000	26.100868	0.000709	20.832718
1403.372116	-3.012600	3.440200	-10.363000	26.110827	0.000707	20.828500
1404.369359	-2.994200	3.441100	-10.303000	26.129411	0.000707	20.835793
1405.376953	-2.984900	3.440900	-10.270000	26.095608	0.000708	20.841182
1406.374984	-3.012600	3.439300	-10.360000	26.117093	0.000708	20.816304
1407.376066	-3.001600	3.439300	-10.322000	26.121590	0.000706	20.830780
1408.374784	-2.985100	3.439100	-10.265000	26.136174	0.000704	20.851122
1409.372893	-3.007000	3.439400	-10.341000	26.146604	0.000704	20.833629
1410.390151	-3.010600	3.439000	-10.353000	26.149259	0.000703	20.837245
1411.372551	-3.009900	3.436700	-10.343000	26.122641	0.000703	20.829939
1412.376088	-3.016200	3.437700	-10.368000	26.112883	0.000703	20.839100
1413.377418	-2.996500	3.437400	-10.299000	26.142960	0.000701	20.831864
1414.375574	-2.992300	3.437500	-10.285000	26.182872	0.000702	20.845416
1415.378931	-2.982400	3.437000	-10.248000	26.168946	0.000702	20.842328
1416.378447	-2.986900	3.435900	-10.262000	26.169221	0.000701	20.842604
1417.383121	-2.998000	3.434700	-10.296000	26.152558	0.000700	20.835818
1418.374893	-3.014900	3.434100	-10.351000	26.128069	0.000702	20.837290
1419.375673	-3.031100	3.433200	-10.404000	26.135025	0.000701	20.848071
1420.376113	-3.005700	3.434000	-10.321000	26.113519	0.000702	20.852066
1421.377787	-3.017200	3.432400	-10.355000	26.111832	0.000700	20.855113
1422.376743	-3.016900	3.432500	-10.354000	26.083346	0.000701	20.844509
1423.379293	-2.988900	3.432700	-10.259000	26.063358	0.000700	20.832012
1424.378701	-2.999100	3.432300	-10.293000	26.067478	0.000701	20.862229
1425.378271	-3.015000	3.430400	-10.343000	26.080892	0.000700	20.839199
1426.383469	-3.002400	3.429800	-10.295000	26.095496	0.000700	20.842493
1427.385251	-2.992800	3.431800	-10.269000	26.085857	0.000699	20.848929
1428.376781	-2.999900	3.431400	-10.293000	26.055011	0.000698	20.854445
1429.375642	-2.990700	3.430800	-10.260000	26.043882	0.000699	20.845160
1430.380251	-2.974000	3.431200	-10.203000	26.013276	0.000697	20.852817
1431.379569	-3.011100	3.430200	-10.328000	25.998375	0.000698	20.873880
1432.383875	-3.002900	3.429900	-10.299000	26.024008	0.000697	20.869287
1433.383446	-3.017400	3.428200	-10.343000	26.080387	0.000699	20.868562
1434.381100	-2.999700	3.429500	-10.287000	26.049541	0.000697	20.877397
1435.382793	-3.008600	3.427600	-10.311000	26.103580	0.000698	20.873373
1436.382013	-3.015000	3.427900	-10.335000	26.103453	0.000697	20.858073
1437.383634	-3.019600	3.427900	-10.350000	26.110827	0.000696	20.845094
1438.379079	-2.997900	3.425500	-10.268000	26.091725	0.000696	20.854350
1439.384247	-3.006000	3.426400	-10.298000	26.095275	0.000697	20.849856
1440.380974	-3.004900	3.426100	-10.294000	26.118964	0.000695	20.864175
1441.383434	-2.988300	3.426200	-10.238000	26.112477	0.000693	20.850545
1442.384710	-2.982800	3.426900	-10.221000	26.116182	0.000693	20.859483
1443.386079	-2.993600	3.426400	-10.257000	26.154696	0.000692	20.878741
1444.385497	-3.013200	3.424300	-10.317000	26.142468	0.000693	20.856025
1445.388287	-2.975500	3.424700	-10.189000	26.181014	0.000691	20.872945
1446.385276	-3.018000	3.424700	-10.335000	26.178454	0.000692	20.855674
1447.386032	-2.998800	3.422600	-10.263000	26.173678	0.000693	20.880271
1448.390581	-2.989700	3.422400	-10.230000	26.142456	0.000692	20.883986
1449.386317	-3.023900	3.421400	-10.345000	26.139744	0.000691	20.889321
1450.392869	-3.028500	3.421000	-10.359000	26.135148	0.000692	20.879488
1451.386040	-2.993600	3.422300	-10.244000	26.117090	0.000691	20.881731
1452.384057	-3.001900	3.422700	-10.274000	26.112638	0.000689	20.869672
1453.387417	-3.002500	3.421900	-10.274000	26.111616	0.000691	20.886188
1454.389706	-3.012600	3.420300	-10.303000	26.116359	0.000688	20.868196
1455.389678	-3.016000	3.419800	-10.313000	26.138957	0.000690	20.894693
1456.391326	-3.002600	3.420700	-10.269000	26.177593	0.000686	20.876145
1457.387628	-2.995400	3.420500	-10.245000	26.144361	0.000686	20.909131
1458.388611	-2.996600	3.418700	-10.244000	26.140082	0.000685	20.885867
1459.392681	-2.997900	3.417900	-10.245000	26.130890	0.000687	20.886588
1460.386744	-3.034100	3.417000	-10.367000	26.137246	0.000685	20.903405
1461.385514	-2.985000	3.418900	-10.203000	26.160836	0.000683	20.888229
1462.389593	-2.999200	3.416400	-10.246000	26.200144	0.000684	20.886952
1463.389280	-2.988200	3.417300	-10.211000	26.228775	0.000682	20.883954
1464.387548	-3.004300	3.416400	-10.263000	26.251571	0.000682	20.911601
1465.385299	-3.003500	3.415700	-10.258000	26.265919	0.000681	20.902787
1466.392135	-3.001900	3.416100	-10.254000	26.273493	0.000679	20.893330
1467.389719	-3.007900	3.414600	-10.270000	26.298101	0.000677	20.901464
1468.391361	-2.988500	3.415400	-10.206000	26.324867	0.000677	20.897543
1469.395591	-2.980800	3.415800	-10.181000	26.326459	0.000677	20.909099
1470.398720	-2.998800	3.413600	-10.236000	26.311804	0.000679	20.890106
1471.388985	-2.984000	3.414000	-10.186000	26.320645	0.000677	20.903732
1472.390027	-3.005100	3.412100	-10.252000	26.311456	0.000675	20.881696
1473.388411	-2.947800	3.414500	-10.065000	26.334299	0.000676	20.898014
1474.391246	-2.990900	3.412600	-10.206000	26.335165	0.000676	20.891298
1475.394691	-2.994100	3.412800	-10.218000	26.318085	0.000677	20.885039
1476.394727	-2.989300	3.412100	-10.199000	26.270408	0.000675	20.883592
1477.390323	-3.009800	3.410900	-10.265000	26.246148	0.000673	20.880075
1478.396494	-2.989300	3.411700	-10.197000	26.186716	0.000672	20.882941
1479.392341	-3.019300	3.409800	-10.293000	26.172634	0.000672	20.888230
1480.392838	-3.006600	3.410000	-10.252000	26.128901	0.000672	20.863728
1481.395120	-3.027300	3.408500	-10.317000	26.126492	0.000672	20.859412
1482.396927	-3.028900	3.409700	-10.325000	26.087346	0.000670	20.883613
1483.395421	-3.037300	3.409300	-10.354000	26.051735	0.000671	20.874860
1484.392160	-3.003300	3.408200	-10.235000	26.060948	0.000671	20.885538
1485.392339	-3.003600	3.409100	-10.238000	26.034971	0.000670	20.872242
1486.394989	-2.985300	3.409800	-10.178000	26.033084	0.000671	20.871294
1487.393690	-3.013700	3.407400	-10.268000	26.024244	0.000669	20.877111
1488.398055	-3.010700	3.406200	-10.254000	26.050097	0.000670	20.881275
1489.394591	-3.012500	3.406500	-10.261000	26.087731	0.000669	20.900120
1490.394627	-3.022600	3.406100	-10.293000	26.135762	0.000667	20.864458
1491.401349	-3.025800	3.406200	-10.305000	26.163077	0.000669	20.874835
1492.397943	-2.970000	3.405700	-10.114000	26.215310	0.000668	20.884173
1493.394783	-2.989700	3.406300	-10.183000	26.232792	0.000668	20.862388
1494.406810	-3.010100	3.405200	-10.249000	26.248240	0.000665	20.877911
1495.399091	-2.986000	3.405200	-10.167000	26.265550	0.000667	20.879184
1496.396954	-3.015500	3.403600	-10.262000	26.276775	0.000666	20.887146
1497.397944	-2.983100	3.404300	-10.155000	26.314372	0.000666	20.866610
1498.397565	-2.986300	3.403700	-10.164000	26.310175	0.000667	20.866185
1499.397122	-2.985000	3.403400	-10.158000	26.322516	0.000665	20.845398
1500.397866	-2.998500	3.403100	-10.204000	26.345978	0.000663	20.862339
1501.398301	-2.985800	3.403100	-10.160000	26.352584	0.000665	20.871821
1502.398392	-3.002300	3.401700	-10.211000	26.350175	0.000666	20.866556
1503.398393	-2.992700	3.401300	-10.177000	26.304284	0.000664	20.863584
1504.401145	-3.001200	3.401300	-10.207000	26.219655	0.000664	20.868626
1505.398592	-2.991800	3.401300	-10.174000	26.203686	0.000663	20.860166
1506.398110	-2.998400	3.400100	-10.194000	26.193301	0.000663	20.849257
1507.403186	-2.998400	3.400800	-10.195000	26.173979	0.000665	20.846911
1508.405316	-3.008400	3.401200	-10.231000	26.185325	0.000661	20.866371
1509.404578	-2.992100	3.400800	-10.175000	26.189494	0.000661	20.849699
1510.402709	-2.992200	3.400100	-10.172000	26.202332	0.000661	20.870185
1511.407305	-2.998600	3.398800	-10.191000	26.206530	0.000661	20.863972
1512.401153	-3.011700	3.399200	-10.237000	26.208015	0.000659	20.869732
1513.406753	-2.999500	3.398700	-10.193000	26.257206	0.000662	20.864162
1514.409647	-2.992700	3.397200	-10.165000	26.228424	0.000660	20.857050
1515.404006	-3.013200	3.396800	-10.235000	26.234053	0.000658	20.864129
1516.401474	-2.999300	3.396900	-10.187000	26.233155	0.000656	20.863227
1517.405561	-3.002600	3.397100	-10.199000	26.280834	0.000658	20.854243
1518.403966	-2.986100	3.396400	-10.141000	26.301541	0.000657	20.848974
1519.404128	-2.977300	3.397000	-10.113000	26.310477	0.000657	20.852739
1520.406424	-2.987200	3.395700	-10.142000	26.299646	0.000655	20.875992
1521.406702	-2.984300	3.395800	-10.133000	26.333562	0.000655	20.847491
1522.408598	-3.018300	3.394400	-10.244000	26.362633	0.000656	20.844939
1523.409998	-3.030300	3.394500	-10.285000	26.338375	0.000655	20.854223
1524.406168	-2.989200	3.394200	-10.145000	26.323774	0.000655	20.837179
1525.405953	-3.024900	3.392600	-10.261000	26.309588	0.000652	20.844259
1526.407193	-3.014600	3.393100	-10.228000	26.303102	0.000653	20.844853
1527.407762	-3.009000	3.392400	-10.207000	26.254250	0.000652	20.837011
1528.405781	-3.019500	3.392200	-10.241000	26.210940	0.000652	20.849912
1529.411167	-2.985000	3.393200	-10.128000	26.177635	0.000653	20.864334
1530.413179	-3.000700	3.390800	-10.173000	26.176363	0.000651	20.847884
1531.406159	-2.996400	3.391700	-10.162000	26.227369	0.000651	20.840818
1532.412198	-3.002600	3.390200	-10.178000	26.237622	0.000650	20.849225
1533.410962	-2.982500	3.391100	-10.113000	26.291357	0.000650	20.852490
1534.411357	-2.989200	3.389400	-10.130000	26.320232	0.000650	20.849266
1535.412594	-2.988200	3.389600	-10.128000	26.322538	0.000650	20.857273
1536.407334	-2.990600	3.390200	-10.138000	26.315777	0.000649	20.865177
1537.412490	-3.022800	3.387200	-10.237000	26.357070	0.000647	20.849778
1538.411928	-3.011600	3.388400	-10.203000	26.367991	0.000649	20.850323
1539.415296	-2.999700	3.388300	-10.163000	26.385196	0.000645	20.871881
1540.408554	-3.004400	3.387400	-10.176000	26.398455	0.000645	20.840164
1541.416325	-2.999400	3.385900	-10.154000	26.356213	0.000645	20.842280
1542.418491	-2.975700	3.387500	-10.079000	26.376869	0.000645	20.863987
1543.413992	-3.005700	3.386400	-10.177000	26.389779	0.000642	20.843299
1544.422106	-2.984400	3.388200	-10.110000	26.384361	0.000643	20.849706
1545.413255	-3.025400	3.386100	-10.243000	26.357814	0.000644	20.839622
1546.416427	-2.978900	3.386000	-10.086000	26.347685	0.000643	20.847933
1547.410558	-3.003700	3.384600	-10.165000	26.303455	0.000641	20.826717
1548.416414	-2.996900	3.385200	-10.143000	26.250386	0.000640	20.833603
1549.418206	-3.013100	3.385500	-10.200000	26.207716	0.000640	20.846199
1550.416354	-2.991400	3.384500	-10.124000	26.232900	0.000639	20.844479
1551.417147	-3.000200	3.383600	-10.151000	26.254005	0.000638	20.843403
1552.411684	-3.020700	3.383100	-10.219000	26.287279	0.000639	20.854556
1553.411158	-3.001200	3.383200	-10.152000	26.273051	0.000638	20.827456
1554.410560	-2.987500	3.383100	-10.105000	26.313521	0.000638	20.859116
1555.416450	-3.008500	3.382500	-10.175000	26.313447	0.000635	20.852404
1556.415417	-3.003000	3.382300	-10.155000	26.310271	0.000637	20.837360
1557.416993	-2.997100	3.382000	-10.135000	26.324868	0.000636	20.851081
1558.416643	-3.004200	3.380900	-10.156000	26.354989	0.000635	20.841524
1559.417618	-2.990000	3.381100	-10.108000	26.365914	0.000634	20.829745
1560.418191	-2.998500	3.380500	-10.135000	26.357098	0.000635	20.835583
1561.417389	-2.991800	3.381600	-10.116000	26.353845	0.000633	20.842745
1562.417265	-2.985600	3.380900	-10.093000	26.342001	0.000632	20.837480
1563.417946	-3.020700	3.379500	-10.208000	26.324323	0.000635	20.847688
1564.418707	-2.987600	3.381000	-10.101000	26.319059	0.000630	20.847613
1565.418547	-2.990100	3.379000	-10.103000	26.343416	0.000632	20.844117
1566.416342	-2.982800	3.379200	-10.078000	26.366661	0.000631	20.829547
1567.422420	-3.019800	3.377500	-10.197000	26.373044	0.000631	20.826005
1568.419680	-2.997200	3.377400	-10.121000	26.395390	0.000630	20.834713
1569.416989	-3.009100	3.376600	-10.160000	26.386106	0.000631	20.864261
1570.421229	-2.987100	3.377500	-10.088000	26.340290	0.000631	20.844769
1571.422427	-3.013100	3.375900	-10.171000	26.304310	0.000629	20.839429
1572.416411	-3.013200	3.374800	-10.168000	26.320802	0.000628	20.840357
1573.417264	-2.998500	3.374600	-10.117000	26.306447	0.000625	20.836362
1574.420491	-3.000400	3.376300	-10.129000	26.334632	0.000627	20.821540
1575.420987	-2.985900	3.376400	-10.081000	26.336593	0.000627	20.821140
1576.420184	-3.000700	3.373500	-10.121000	26.335329	0.000627	20.842154
1577.418530	-3.000100	3.374800	-10.123000	26.358472	0.000627	20.839334
1578.420621	-2.990900	3.373300	-10.088000	26.364088	0.000624	20.832176
1579.420025	-3.014600	3.373100	-10.168000	26.412335	0.000621	20.834675
1580.419251	-2.982800	3.373500	-10.062000	26.430660	0.000622	20.819902
1581.421453	-3.012000	3.372300	-10.157000	26.450448	0.000622	20.842636
1582.421797	-3.000000	3.372500	-10.116000	26.460133	0.000621	20.821551
1583.420557	-3.005800	3.370800	-10.131000	26.476127	0.000622	20.821505
1584.425405	-3.003000	3.371100	-10.122000	26.465949	0.000619	20.823130
1585.427075	-3.006800	3.370900	-10.135000	26.451998	0.000618	20.827599
1586.423877	-2.984400	3.372000	-10.062000	26.440955	0.000617	20.845422
1587.423142	-3.001500	3.370300	-10.114000	26.464961	0.000616	20.807911
1588.434091	-2.992100	3.371000	-10.085000	26.441205	0.000617	20.848992
1589.425842	-2.997000	3.369700	-10.097000	26.437706	0.000618	20.816552
1590.427898	-2.996200	3.369100	-10.094000	26.395399	0.000616	20.814334
1591.431325	-2.981300	3.369400	-10.044000	26.387854	0.000615	20.818131
1592.426123	-3.013300	3.369800	-10.154000	26.423712	0.000615	20.822402
1593.427806	-3.024400	3.368100	-10.185000	26.385700	0.000616	20.817863
1594.429533	-3.015400	3.367700	-10.153000	26.358292	0.000613	20.822084
1595.429458	-3.019200	3.365900	-10.162000	26.295349	0.000613	20.818097
1596.428040	-3.010300	3.366600	-10.133000	26.320528	0.000613	20.814477
1597.431750	-3.011800	3.367200	-10.140000	26.297441	0.000613	20.804552
1598.424945	-3.042100	3.365800	-10.238000	26.305167	0.000614	20.818954
1599.435309	-2.994900	3.368300	-10.087000	26.336900	0.000612	20.814810
1600.430500	-3.002000	3.366100	-10.104000	26.341249	0.000611	20.805430
1601.430020	-3.003000	3.365800	-10.106000	26.369063	0.000612	20.813944
1602.430326	-2.977900	3.367300	-10.026000	26.376443	0.000610	20.808559
1603.434569	-3.022600	3.364800	-10.170000	26.417811	0.000610	20.789919
1604.431743	-2.978200	3.364900	-10.020000	26.435795	0.000610	20.826011
1605.431863	-3.001000	3.364200	-10.094000	26.466060	0.000607	20.818973
1606.433923	-3.038000	3.363500	-10.217000	26.465666	0.000610	20.829483
1607.433939	-2.986000	3.364700	-10.046000	26.463705	0.000609	20.800485
1608.434694	-3.023000	3.364700	-10.169000	26.469718	0.000607	20.806055
1609.431879	-3.001700	3.363900	-10.096000	26.500311	0.000607	20.809304
1610.438362	-3.000100	3.363300	-10.089000	26.514044	0.000605	20.779486
1611.431061	-3.010900	3.362800	-10.124000	26.485621	0.000607	20.793591
1612.434501	-2.997800	3.363400	-10.081000	26.496594	0.000604	20.795137
1613.434763	-3.011500	3.361900	-10.124000	26.438254	0.000603	20.802880
1614.438865	-2.982400	3.362800	-10.029000	26.467256	0.000606	20.817805
1615.435157	-3.006600	3.360400	-10.101000	26.457973	0.000604	20.789034
1616.436965	-2.993200	3.360700	-10.058000	26.435555	0.000603	20.808701
1617.438037	-2.972200	3.361000	-9.988100	26.491572	0.000602	20.813797
1618.437035	-2.977900	3.359800	-10.005000	26.494780	0.000600	20.821288
1619.438030	-3.000000	3.360600	-10.081000	26.481399	0.000600	20.797881
1620.434504	-2.996800	3.359100	-10.065000	26.505436	0.000601	20.795964
1621.440931	-3.014400	3.358900	-10.124000	26.489176	0.000601	20.788155
1622.439279	-2.995000	3.359200	-10.060000	26.454419	0.000600	20.771712
1623.434982	-2.981500	3.358000	-10.011000	26.481038	0.000600	20.800837
1624.437959	-2.984900	3.360100	-10.027000	26.469322	0.000597	20.791907
1625.436015	-3.013900	3.356300	-10.114000	26.507684	0.000598	20.811025
1626.434465	-3.009700	3.356900	-10.101000	26.529583	0.000597	20.781829
1627.435075	-2.968000	3.357900	-9.965200	26.571195	0.000597	20.789045
1628.433875	-3.022200	3.355300	-10.139000	26.524128	0.000597	20.789148
1629.437398	-2.987700	3.357500	-10.030000	26.526564	0.000596	20.779269
1630.439196	-3.002900	3.355500	-10.075000	26.495205	0.000595	20.787103
1631.438529	-2.978000	3.355200	-9.990000	26.494569	0.000595	20.793101
1632.436548	-3.004300	3.355500	-10.080000	26.511276	0.000595	20.765324
1633.442673	-2.988600	3.356300	-10.029000	26.499241	0.000591	20.785469
1634.438313	-2.998700	3.354000	-10.056000	26.468558	0.000592	20.780233
1635.444656	-3.008300	3.352400	-10.083000	26.409819	0.000593	20.781412
1636.444617	-3.027700	3.351800	-10.147000	26.372746	0.000593	20.786826
1637.437347	-2.993300	3.354100	-10.039000	26.346777	0.000589	20.783486
1638.438680	-3.011400	3.352000	-10.093000	26.369128	0.000591	20.788404
1639.439788	-3.002100	3.353100	-10.065000	26.365554	0.000593	20.786236
1640.438435	-3.004400	3.350600	-10.065000	26.371515	0.000590	20.786537
1641.438623	-3.001800	3.351800	-10.060000	26.340656	0.000590	20.774015
1642.442849	-3.015700	3.350400	-10.103000	26.281635	0.000588	20.770650
1643.437184	-3.005400	3.350900	-10.069000	26.258664	0.000586	20.805886
1644.443077	-3.004200	3.350000	-10.063000	26.254893	0.000587	20.774596
1645.440022	-2.995000	3.351700	-10.038000	26.276129	0.000587	20.760375
1646.442440	-3.015500	3.350200	-10.100000	26.286833	0.000586	20.763545
1647.442841	-2.988200	3.350600	-10.011000	26.326572	0.000585	20.745634
1648.438027	-2.992400	3.350700	-10.025000	26.335589	0.000584	20.779828
1649.441332	-3.030100	3.348100	-10.144000	26.335765	0.000584	20.764832
1650.438980	-3.004600	3.348500	-10.060000	26.337505	0.000583	20.774641
1651.445789	-2.998000	3.347900	-10.036000	26.385881	0.000583	20.768732
1652.440622	-3.008100	3.347200	-10.068000	26.422104	0.000584	20.756301
1653.442702	-3.010300	3.348300	-10.078000	26.449121	0.000580	20.772076
1654.450631	-3.010600	3.346800	-10.075000	26.459134	0.000582	20.769338
1655.445779	-3.017600	3.345000	-10.092000	26.465689	0.000582	20.768814
1656.441165	-2.999900	3.345100	-10.034000	26.461923	0.000581	20.780677
1657.455831	-3.031800	3.344400	-10.138000	26.498968	0.000583	20.764332
1658.463169	-2.999300	3.346200	-10.035000	26.524322	0.000580	20.760419
1659.445535	-2.989000	3.345800	-9.998000	26.516004	0.000580	20.739729
1660.445776	-2.980600	3.345300	-9.970600	26.464618	0.000577	20.764419
1661.441903	-3.016100	3.344600	-10.086000	26.448854	0.000579	20.767540
1662.447163	-3.020600	3.343200	-10.098000	26.413977	0.000579	20.767099
1663.442299	-2.973200	3.345700	-9.946300	26.420434	0.000576	20.781649
1664.445874	-2.983500	3.342400	-9.970700	26.370004	0.000575	20.761784
1665.449225	-2.999100	3.344300	-10.029000	26.356031	0.000577	20.763862
1666.448335	-2.993700	3.343700	-10.008000	26.322682	0.000575	20.755001
1667.445670	-2.997600	3.343200	-10.020000	26.295994	0.000576	20.763742
1668.450510	-2.994500	3.341700	-10.006000	26.233742	0.000575	20.764245
1669.451546	-2.996800	3.341000	-10.011000	26.247905	0.000575	20.757615
1670.451101	-2.974400	3.341500	-9.937100	26.262880	0.000573	20.778355
1671.448430	-3.028800	3.339300	-10.113000	26.249398	0.000572	20.749633
1672.448575	-2.988500	3.340700	-9.982000	26.275722	0.000574	20.731515
1673.449914	-2.970100	3.340100	-9.919600	26.330161	0.000571	20.742129
1674.451472	-2.995900	3.338900	-10.001000	26.334087	0.000570	20.750342
1675.451771	-3.013900	3.339500	-10.064000	26.346579	0.000569	20.765268
1676.453935	-2.994600	3.339600	-10.000000	26.373048	0.000570	20.751567
1677.455283	-3.040900	3.337100	-10.146000	26.398979	0.000570	20.734006
1678.451766	-3.011100	3.338200	-10.051000	26.432125	0.000571	20.752148
1679.457119	-2.987000	3.338200	-9.968800	26.466887	0.000570	20.746784
1680.452265	-3.013500	3.336400	-10.054000	26.465152	0.000570	20.754049
1681.456990	-3.017000	3.335800	-10.063000	26.456640	0.000569	20.743597
1682.452311	-3.000000	3.336600	-10.009000	26.471465	0.000568	20.754705
1683.451658	-3.013300	3.335800	-10.051000	26.465656	0.000567	20.746969
1684.456702	-3.007600	3.336500	-10.034000	26.488845	0.000566	20.748466
1685.456682	-2.985600	3.336900	-9.961400	26.458211	0.000563	20.756082
1686.452430	-2.980400	3.336500	-9.942500	26.462756	0.000564	20.754960
1687.458314	-2.988700	3.336800	-9.971600	26.472072	0.000563	20.734451
1688.451842	-2.994700	3.334500	-9.984200	26.489624	0.000566	20.758259
1689.456009	-2.990200	3.333700	-9.967600	26.523293	0.000564	20.747056
1690.452083	-2.991200	3.333700	-9.969700	26.553137	0.000563	20.752400
1691.454230	-2.987600	3.333900	-9.958900	26.595815	0.000561	20.758317
1692.453600	-2.976600	3.334800	-9.925600	26.605199	0.000565	20.750206
1693.458302	-2.994700	3.332800	-9.979900	26.576751	0.000563	20.755274
1694.458653	-2.994300	3.333300	-9.980200	26.576677	0.000562	20.742871
1695.454300	-2.990200	3.333300	-9.965900	26.551780	0.000561	20.758622
1696.455773	-2.990700	3.332800	-9.967100	26.509330	0.000561	20.750565
1697.457029	-2.990300	3.331700	-9.961600	26.491704	0.000560	20.753711
1698.457328	-2.983000	3.331900	-9.937600	26.495105	0.000559	20.754284
1699.453605	-2.976900	3.331100	-9.913300	26.519638	0.000560	20.738641
1700.463570	-2.982000	3.330000	-9.928800	26.551571	0.000557	20.755567
1701.456659	-3.000200	3.330200	-9.990400	26.559934	0.000558	20.758284
1702.459185	-3.005800	3.329800	-10.008000	26.607209	0.000558	20.738476
1703.461020	-3.010100	3.329900	-10.023000	26.615548	0.000557	20.767722
1704.456529	-2.994900	3.328100	-9.966100	26.590155	0.000556	20.741721
1705.462057	-3.020400	3.327500	-10.049000	26.565234	0.000555	20.725203
1706.459294	-3.003200	3.329600	-9.997200	26.589663	0.000555	20.752607
1707.459235	-2.987200	3.327700	-9.939700	26.615487	0.000556	20.736839
1708.456478	-2.976500	3.327900	-9.904600	26.630162	0.000556	20.758705
1709.455210	-2.995100	3.326800	-9.963700	26.665835	0.000554	20.772283
1710.456796	-3.003200	3.326300	-9.988400	26.662686	0.000552	20.732131
1711.458959	-2.977900	3.328000	-9.909200	26.678578	0.000553	20.745738
1712.461676	-3.008000	3.325900	-10.002000	26.658195	0.000551	20.757489
1713.463930	-3.010000	3.324300	-10.006000	26.634247	0.000552	20.744320
1714.462266	-2.989500	3.326300	-9.941900	26.607391	0.000551	20.758100
1715.460930	-3.031200	3.323900	-10.074000	26.611537	0.000550	20.774122
1716.462692	-2.997500	3.323900	-9.962800	26.601091	0.000548	20.748921
1717.459671	-2.985000	3.325600	-9.926300	26.569743	0.000549	20.747755
1718.467339	-2.996000	3.324200	-9.958600	26.567507	0.000550	20.759259
1719.463749	-2.997800	3.324200	-9.963900	26.549095	0.000546	20.726524
1720.464422	-3.014300	3.322600	-10.014000	26.562479	0.000545	20.761791
1721.464974	-3.021300	3.323600	-10.040000	26.578521	0.000546	20.750889
1722.466852	-2.999200	3.323000	-9.964400	26.584132	0.000548	20.773600
1723.465131	-3.008900	3.321900	-9.994000	26.613679	0.000544	20.762999
1724.468216	-3.012200	3.321900	-10.005000	26.636225	0.000544	20.751050
1725.468225	-2.968700	3.321400	-9.858400	26.679720	0.000543	20.759688
1726.463686	-3.006200	3.321900	-9.984500	26.698811	0.000544	20.767502
1727.470082	-3.000200	3.320800	-9.961800	26.737341	0.000543	20.760720
1728.465631	-2.985500	3.320000	-9.910700	26.742381	0.000542	20.769106
1729.471636	-3.022500	3.318600	-10.028000	26.705156	0.000541	20.744483
1730.470955	-3.022100	3.317800	-10.026000	26.686718	0.000541	20.761034
1731.466719	-3.027800	3.317900	-10.045000	26.672425	0.000542	20.768002
1732.468109	-2.993300	3.318700	-9.933000	26.688145	0.000541	20.758676
1733.466283	-3.011300	3.317200	-9.988400	26.676010	0.000540	20.764968
1734.466212	-3.017400	3.316700	-10.007000	26.678549	0.000540	20.774159
1735.470079	-2.992700	3.317200	-9.926300	26.656661	0.000539	20.773965
1736.470208	-3.013700	3.316400	-9.993300	26.632832	0.000538	20.759493
1737.469440	-2.991100	3.317000	-9.920200	26.649496	0.000536	20.752063
1738.469198	-3.004800	3.317300	-9.966100	26.652429	0.000538	20.761176
1739.475031	-3.010400	3.315700	-9.979200	26.640519	0.000537	20.749677
1740.470859	-2.998000	3.316800	-9.943000	26.648439	0.000536	20.769019
1741.466932	-2.999600	3.316100	-9.946100	26.632156	0.000537	20.734157
1742.474280	-3.005200	3.316100	-9.964200	26.603615	0.000535	20.763787
1743.471252	-3.018500	3.315000	-10.006000	26.640655	0.000534	20.772099
1744.470073	-2.992800	3.315000	-9.919600	26.622191	0.000532	20.765391
1745.475842	-3.017600	3.313500	-9.997500	26.670206	0.000532	20.747752
1746.467715	-3.018100	3.314300	-10.002000	26.679024	0.000532	20.739547
1747.470548	-3.013700	3.312900	-9.982900	26.688658	0.000532	20.756346
1748.469695	-3.028300	3.312300	-10.030000	26.720983	0.000532	20.760395
1749.470325	-3.012200	3.312600	-9.977500	26.760127	0.000531	20.746170
1750.467547	-3.011900	3.312500	-9.974900	26.759414	0.000530	20.748772
1751.472461	-3.011000	3.312100	-9.971200	26.742436	0.000528	20.762049
1752.469569	-3.002800	3.311500	-9.943200	26.745197	0.000529	20.755341
1753.472313	-3.018000	3.310500	-9.989400	26.755326	0.000530	20.762206
1754.472562	-3.003700	3.310700	-9.943600	26.737881	0.000528	20.771694
1755.471844	-3.019500	3.310700	-9.995200	26.738677	0.000528	20.768701
1756.471174	-3.030100	3.310200	-10.029000	26.694967	0.000529	20.770276
1757.469466	-3.020200	3.310100	-9.995800	26.697752	0.000525	20.765489
1758.473380	-3.028400	3.308300	-10.018000	26.664340	0.000527	20.762244
1759.473554	-3.001200	3.309100	-9.930500	26.665513	0.000526	20.777175
1760.473595	-2.993900	3.308300	-9.902900	26.677255	0.000525	20.775703
1761.469485	-3.013700	3.307000	-9.965100	26.706029	0.000525	20.776181
1762.476986	-3.008500	3.306600	-9.946800	26.708195	0.000523	20.770772
1763.476953	-2.954900	3.308800	-9.775700	26.680910	0.000520	20.774635
1764.477218	-2.988700	3.308400	-9.886300	26.693653	0.000523	20.777963
1765.472753	-2.992800	3.307300	-9.895200	26.709369	0.000520	20.775271
1766.472111	-2.987900	3.306700	-9.878200	26.679533	0.000521	20.767087
1767.481948	-3.005600	3.304700	-9.931800	26.693711	0.000520	20.769487
1768.478324	-3.020400	3.304500	-9.979900	26.722062	0.000520	20.770489
1769.477911	-2.994700	3.307400	-9.903200	26.743064	0.000519	20.772637
1770.476551	-3.007800	3.304500	-9.937700	26.782983	0.000521	20.737380
1771.479202	-2.981500	3.305800	-9.854200	26.774469	0.000518	20.751107
1772.474617	-3.011300	3.302600	-9.944400	26.805603	0.000517	20.754435
1773.480465	-3.004200	3.305000	-9.926500	26.786936	0.000517	20.773125
1774.477640	-3.010600	3.303300	-9.942800	26.788581	0.000516	20.759132
1775.475540	-2.991300	3.304500	-9.883300	26.742590	0.000518	20.770264
1776.478355	-3.009300	3.302100	-9.935400	26.739859	0.000515	20.769889
1777.477809	-3.018300	3.301800	-9.964200	26.711870	0.000515	20.769725
1778.480972	-2.991000	3.303600	-9.879900	26.708466	0.000514	20.773889
1779.492857	-3.008600	3.300600	-9.929300	26.725498	0.000515	20.781056
1780.481197	-2.979100	3.301000	-9.833500	26.762509	0.000515	20.777015
1781.478749	-2.999000	3.299600	-9.893600	26.785799	0.000515	20.778620
1782.480647	-3.023500	3.300100	-9.976500	26.794857	0.000514	20.781563
1783.482856	-2.996200	3.299700	-9.886100	26.780985	0.000512	20.769037
1784.481689	-3.025100	3.298900	-9.979100	26.793771	0.000512	20.787584
1785.482186	-2.996700	3.298100	-9.882900	26.826610	0.000511	20.768444
1786.480174	-2.993900	3.300100	-9.878500	26.851579	0.000511	20.792602
1787.483152	-3.004300	3.299900	-9.912800	26.853892	0.000512	20.769323
1788.483221	-3.016800	3.297300	-9.945400	26.866747	0.000512	20.774662
1789.481928	-3.017100	3.297400	-9.947500	26.865308	0.000509	20.787914
1790.481972	-3.001600	3.296200	-9.893000	26.862852	0.000508	20.794453
1791.483114	-3.001700	3.297400	-9.896500	26.889435	0.000510	20.788941
1792.483588	-3.001600	3.296700	-9.893600	26.886930	0.000507	20.770301
1793.487912	-2.978500	3.297600	-9.820200	26.885967	0.000507	20.789721
1794.483824	-2.994300	3.295500	-9.865400	26.862065	0.000509	20.792240
1795.484304	-2.989600	3.295600	-9.852200	26.827817	0.000507	20.781986
1796.490934	-2.981100	3.296400	-9.825900	26.855119	0.000507	20.771505
1797.487307	-2.991700	3.295400	-9.857100	26.886164	0.000506	20.779487
1798.483514	-3.010500	3.294700	-9.917300	26.870189	0.000506	20.766269
1799.483547	-3.004600	3.293600	-9.894300	26.865321	0.000507	20.782712
1800.493942	-3.022600	3.292300	-9.951000	26.876266	0.000502	20.784708
1801.486463	-3.002200	3.294500	-9.890100	26.907015	0.000503	20.795238
1802.486760	-2.994300	3.293000	-9.859400	26.917265	0.000503	20.780890
1803.484591	-2.990500	3.293200	-9.847100	26.907835	0.000502	20.811710
1804.488434	-3.006100	3.291900	-9.895400	26.941765	0.000502	20.801258
1805.487645	-2.996100	3.291800	-9.860900	26.945189	0.000501	20.796640
1806.484937	-3.012100	3.291500	-9.913100	26.939039	0.000501	20.793775
1807.488421	-2.983500	3.292500	-9.822300	26.915835	0.000500	20.779926
1808.486654	-2.998400	3.290300	-9.864500	26.892980	0.000498	20.796299
1809.495523	-3.001100	3.291200	-9.875900	26.886477	0.000498	20.788337
1810.491452	-2.980500	3.290800	-9.806700	26.878440	0.000497	20.805860
1811.491246	-2.979700	3.291300	-9.806200	26.912072	0.000497	20.791315
1812.487754	-2.985400	3.288900	-9.817400	26.937687	0.000499	20.803795
1813.491464	-2.996200	3.288800	-9.852900	26.916522	0.000497	20.792470
1814.490341	-2.992600	3.288800	-9.839600	26.924985	0.000496	20.809989
1815.488091	-2.981400	3.289500	-9.806000	26.925009	0.000497	20.798634
1816.493904	-2.998600	3.287200	-9.856100	26.938840	0.000493	20.793101
1817.490347	-3.009800	3.286800	-9.891400	26.906304	0.000495	20.812067
1818.496066	-3.013100	3.287400	-9.904400	26.944852	0.000494	20.813371
1819.497832	-3.015800	3.286200	-9.909900	26.914428	0.000493	20.796054
1820.493408	-3.017900	3.286700	-9.916600	26.899515	0.000490	20.797180
1821.498194	-3.020500	3.286700	-9.926700	26.877726	0.000491	20.810832
1822.496138	-2.990000	3.285800	-9.823000	26.834670	0.000490	20.805947
1823.490091	-3.009200	3.285100	-9.882400	26.823107	0.000490	20.801432
1824.493840	-3.027600	3.283700	-9.941000	26.835196	0.000488	20.810742
1825.495848	-3.011900	3.284800	-9.891100	26.875053	0.000489	20.831377
1826.492789	-2.998900	3.284900	-9.850400	26.899676	0.000490	20.810144
1827.495387	-2.988300	3.285200	-9.816300	26.884547	0.000489	20.816268
1828.496355	-2.990100	3.285500	-9.822600	26.890501	0.000488	20.806133
1829.497653	-2.995300	3.284100	-9.836600	26.953937	0.000488	20.834360
1830.491703	-2.982500	3.283200	-9.790200	26.987041	0.000487	20.819286
1831.494818	-2.992500	3.283200	-9.824200	26.980940	0.000487	20.809832
1832.496107	-3.001200	3.281800	-9.848300	26.983745	0.000488	20.806489
1833.497250	-3.005000	3.282100	-9.861600	26.997620	0.000486	20.830872
1834.494485	-3.005200	3.280900	-9.857100	26.973995	0.000487	20.820392
1835.497007	-2.994400	3.281100	-9.824000	26.947885	0.000486	20.815473
1836.498130	-2.989400	3.281100	-9.808000	26.944859	0.000486	20.805318
1837.497159	-3.003500	3.280400	-9.850900	26.967517	0.000484	20.833317
1838.498409	-3.008900	3.279600	-9.866800	26.973298	0.000483	20.834863
1839.496620	-2.993300	3.278700	-9.812800	27.018690	0.000484	20.825508
1840.499733	-3.002300	3.280500	-9.847600	27.051988	0.000484	20.831021
1841.500786	-3.000200	3.277600	-9.832400	27.051247	0.000483	20.823162
1842.498292	-2.994900	3.279000	-9.819300	27.031120	0.000482	20.814302
1843.498535	-3.003700	3.277900	-9.844600	26.985979	0.000482	20.824383
1844.505587	-2.993300	3.278300	-9.811900	26.953248	0.000479	20.824659
1845.500059	-3.000000	3.277300	-9.829700	26.911700	0.000481	20.829346
1846.499408	-3.008600	3.277400	-9.859600	26.915968	0.000479	20.830793
1847.501445	-2.992700	3.276900	-9.805400	26.888349	0.000478	20.831470
1848.500524	-2.991500	3.275900	-9.799000	26.862728	0.000478	20.809502
1849.503645	-2.985500	3.275400	-9.777600	26.838904	0.000477	20.841022
1850.501496	-2.999300	3.275200	-9.822900	26.798864	0.000476	20.841067
1851.504536	-3.010600	3.274100	-9.855200	26.793652	0.000476	20.825870
1852.510235	-3.003400	3.274800	-9.833800	26.825096	0.000475	20.853217
1853.506164	-3.019000	3.272900	-9.879600	26.865676	0.000476	20.841862
1854.505970	-2.990600	3.274200	-9.791600	26.900816	0.000473	20.827885
1855.506365	-3.025000	3.273700	-9.901400	26.941393	0.000474	20.841186
1856.506245	-2.974100	3.274200	-9.736400	26.993411	0.000473	20.834227
1857.508682	-2.995000	3.274100	-9.805100	27.030955	0.000473	20.863445
1858.511744	-3.006000	3.271000	-9.831200	27.066487	0.000473	20.830429
1859.505986	-2.951600	3.273700	-9.661400	27.040257	0.000469	20.849093
1860.507999	-2.995300	3.272000	-9.798300	27.015867	0.000470	20.839265
1861.513978	-3.000000	3.271300	-9.812100	27.061773	0.000470	20.834696
1862.508358	-2.986500	3.271800	-9.770600	27.074576	0.000469	20.841408
1863.511711	-2.995800	3.270600	-9.796800	27.067602	0.000471	20.849093
1864.513318	-2.996600	3.269300	-9.794800	27.034005	0.000467	20.867461
1865.507890	-2.999600	3.270400	-9.809400	27.043488	0.000465	20.853291
1866.507335	-3.023200	3.269400	-9.883200	27.004325	0.000466	20.851839
1867.511703	-3.020200	3.269500	-9.872500	27.034505	0.000466	20.867490
1868.514050	-2.994900	3.269900	-9.792300	27.046091	0.000464	20.866814
1869.509946	-2.992200	3.268000	-9.777300	27.011500	0.000463	20.854313
1870.515886	-2.990400	3.268600	-9.772800	26.998421	0.000463	20.855859
1871.514147	-3.000500	3.268300	-9.804300	26.982174	0.000464	20.861805
1872.511495	-3.012500	3.267800	-9.842500	26.998873	0.000463	20.864374
1873.515535	-3.019700	3.266800	-9.863200	26.986889	0.000460	20.841892
1874.510707	-3.008100	3.266800	-9.824700	27.030738	0.000460	20.854693
1875.509078	-2.998300	3.266300	-9.792000	27.051409	0.000462	20.861731
1876.513596	-3.002900	3.265200	-9.803700	27.090620	0.000461	20.860387
1877.509856	-3.007000	3.265800	-9.818900	27.119153	0.000459	20.879125
1878.515343	-3.016900	3.266000	-9.851400	27.129627	0.000457	20.867376
1879.513454	-3.020100	3.264900	-9.859700	27.140053	0.000459	20.876438
1880.513276	-3.011900	3.265800	-9.835000	27.166551	0.000457	20.858520
1881.515389	-3.022300	3.263700	-9.863300	27.156705	0.000457	20.851462
1882.515648	-3.008500	3.264500	-9.820200	27.195632	0.000456	20.858846
1883.513439	-3.003600	3.264500	-9.804100	27.173475	0.000455	20.863113
1884.514153	-3.001200	3.263600	-9.793600	27.201613	0.000456	20.881930
1885.511785	-2.988300	3.264600	-9.753900	27.188708	0.000455	20.868477
1886.510995	-2.996000	3.263800	-9.776800	27.175390	0.000455	20.863143
1887.515747	-2.998000	3.262600	-9.779900	27.221913	0.000453	20.851615
1888.511782	-3.015800	3.261400	-9.835000	27.201191	0.000455	20.868230
1889.519500	-2.971500	3.262100	-9.691100	27.228758	0.000455	20.858500
1890.516798	-3.010400	3.262500	-9.820300	27.259894	0.000454	20.886972
1891.512221	-3.014600	3.259300	-9.823900	27.257316	0.000451	20.881060
1892.516750	-2.996000	3.261100	-9.768700	27.281332	0.000451	20.879139
1893.514187	-3.012100	3.260200	-9.818500	27.318644	0.000450	20.876843
1894.513481	-3.014800	3.259500	-9.825700	27.282619	0.000450	20.874744
1895.516346	-2.999300	3.259900	-9.776300	27.253299	0.000449	20.882710
1896.517430	-3.017300	3.257800	-9.827500	27.217174	0.000449	20.898529
1897.514930	-2.994300	3.258900	-9.757200	27.192332	0.000448	20.877337
1898.522527	-3.011800	3.258700	-9.812900	27.189980	0.000447	20.869756
1899.530572	-3.021300	3.258200	-9.842900	27.163182	0.000446	20.870304
1900.520537	-3.011400	3.258100	-9.809300	27.153602	0.000446	20.884849
1901.517747	-3.000700	3.256800	-9.771500	27.162112	0.000446	20.870176
1902.522754	-3.006800	3.255200	-9.786100	27.168491	0.000444	20.896504
1903.522398	-3.016400	3.254900	-9.817000	27.138290	0.000443	20.885570
1904.518251	-2.999400	3.254500	-9.760200	27.098595	0.000443	20.881209
1905.520688	-3.018500	3.254000	-9.820700	27.100628	0.000442	20.893210
1906.521711	-3.005900	3.254300	-9.781600	27.128738	0.000441	20.889239
1907.518198	-2.985000	3.254400	-9.713700	27.160152	0.000440	20.877688
1908.518271	-2.981500	3.254100	-9.701300	27.137848	0.000439	20.892711
1909.524256	-2.977800	3.254000	-9.689600	27.167175	0.000439	20.872897
1910.519182	-3.017600	3.251500	-9.811000	27.177968	0.000437	20.886123
1911.525270	-3.006800	3.251300	-9.775100	27.222109	0.000436	20.859873
1912.525326	-2.966900	3.253800	-9.652300	27.226224	0.000436	20.882503
1913.519906	-2.995600	3.252700	-9.742100	27.262006	0.000434	20.878191
1914.522685	-2.983800	3.253200	-9.705700	27.290858	0.000433	20.874971
1915.526268	-3.029000	3.250700	-9.844400	27.286390	0.000432	20.875692
1916.519700	-2.990100	3.251600	-9.721300	27.299220	0.000433	20.876744
1917.519918	-3.017600	3.248400	-9.800500	27.294157	0.000431	20.866911
1918.525515	-2.971600	3.249500	-9.655400	27.312271	0.000431	20.863320
1919.524357	-2.978100	3.251600	-9.682800	27.291903	0.000431	20.866066
1920.523914	-3.012500	3.249500	-9.787500	27.344274	0.000430	20.849047
1921.523307	-2.997000	3.249400	-9.736300	27.372858	0.000430	20.874481
1922.520151	-3.005500	3.248600	-9.762000	27.404408	0.000427	20.869237
1923.522650	-2.991200	3.247800	-9.713700	27.388437	0.000427	20.851274
1924.523245	-3.013300	3.248900	-9.788600	27.391412	0.000428	20.861853
1925.523644	-3.006800	3.247500	-9.764000	27.410171	0.000426	20.845164
1926.527131	-2.998500	3.247300	-9.735300	27.421262	0.000426	20.846838
1927.521096	-3.013300	3.247100	-9.783700	27.442422	0.000423	20.879030
1928.521943	-2.998700	3.245600	-9.731900	27.438970	0.000423	20.858015
1929.525170	-3.009200	3.246400	-9.767300	27.435524	0.000422	20.866401
1930.523088	-3.005800	3.245700	-9.754400	27.368400	0.000422	20.845816
1931.522339	-3.015200	3.245600	-9.784600	27.336775	0.000422	20.853357
1932.521727	-2.998000	3.244000	-9.722800	27.276912	0.000420	20.866633
1933.523113	-3.010000	3.243900	-9.762600	27.251285	0.000421	20.861245
1934.524829	-2.989700	3.243800	-9.696800	27.208638	0.000419	20.833523
1935.522333	-2.997800	3.243100	-9.719600	27.192811	0.000417	20.854587
1936.523891	-3.006100	3.242600	-9.747200	27.239922	0.000417	20.862143
1937.525279	-2.993900	3.242600	-9.706700	27.247465	0.000417	20.828480
1938.528399	-2.994600	3.241200	-9.704200	27.284021	0.000418	20.843439
1939.526289	-2.998400	3.240900	-9.716400	27.284217	0.000414	20.835577
1940.525423	-3.003800	3.239800	-9.730500	27.285086	0.000415	20.852571
1941.531907	-3.020500	3.240700	-9.788400	27.317090	0.000412	20.858686
1942.531504	-3.001700	3.239500	-9.723000	27.332822	0.000412	20.852225
1943.527898	-3.017200	3.240200	-9.775100	27.369930	0.000412	20.857313
1944.530259	-3.003800	3.239800	-9.730600	27.361829	0.000414	20.838732
1945.528229	-2.992600	3.239100	-9.692000	27.358603	0.000411	20.844022
1946.524920	-3.024900	3.238200	-9.794000	27.317473	0.000410	20.858596
1947.524912	-3.027200	3.237600	-9.799500	27.297282	0.000410	20.861994
1948.526824	-3.029000	3.237200	-9.804600	27.260171	0.000407	20.822769
1949.525997	-3.012400	3.236400	-9.747700	27.198216	0.000408	20.841058
1950.529685	-2.992600	3.236900	-9.685700	27.151919	0.000406	20.862769
1951.530690	-3.003200	3.236700	-9.719300	27.157158	0.000408	20.847651
1952.527064	-2.955700	3.237500	-9.568100	27.142991	0.000410	20.838618
1953.534742	-2.969900	3.236900	-9.612100	27.162943	0.000405	20.836874
1954.534550	-3.022100	3.234700	-9.773100	27.178549	0.000405	20.837872
1955.531301	-2.993000	3.235900	-9.684100	27.208081	0.000405	20.845290
1956.534971	-2.996700	3.234600	-9.691000	27.235177	0.000404	20.837931
1957.535448	-3.004600	3.235700	-9.720900	27.276634	0.000403	20.831268
1958.533230	-3.000400	3.234400	-9.703200	27.270035	0.000401	20.817992
1959.533603	-2.989600	3.233900	-9.667300	27.310151	0.000400	20.841274
1960.531311	-3.004100	3.232800	-9.711400	27.339625	0.000402	20.832043
1961.534449	-3.010700	3.232400	-9.729800	27.332609	0.000400	20.813606
1962.530649	-3.028500	3.231700	-9.786400	27.383788	0.000398	20.824314
1963.533708	-2.998800	3.231400	-9.688500	27.431470	0.000399	20.825341
1964.537070	-3.014700	3.229000	-9.733200	27.423031	0.000396	20.827756
1965.535441	-2.989700	3.231900	-9.662100	27.391732	0.000398	20.811442
1966.534089	-2.999600	3.231100	-9.691000	27.403810	0.000396	20.837817
1967.535560	-2.993500	3.231600	-9.673500	27.383174	0.000394	20.817532
1968.531214	-2.988100	3.231400	-9.654200	27.368911	0.000395	20.819305
1969.531546	-2.993500	3.228900	-9.664200	27.397314	0.000393	20.833179
1970.536186	-3.022900	3.228500	-9.757900	27.426933	0.000393	20.814613
1971.538291	-2.992000	3.228100	-9.657400	27.426045	0.000393	20.834581
1972.535427	-3.003500	3.227900	-9.694300	27.444877	0.000390	20.819389
1973.537021	-3.013100	3.227600	-9.723600	27.480642	0.000389	20.832136
1974.536136	-2.975300	3.228400	-9.603700	27.489507	0.000390	20.814978
1975.538314	-2.985600	3.228200	-9.637400	27.512723	0.000390	20.836912
1976.539247	-3.002200	3.225500	-9.682900	27.497470	0.000387	20.807816
1977.536387	-2.993800	3.225800	-9.655800	27.468226	0.000388	20.822490
1978.540751	-3.020100	3.224900	-9.737700	27.446477	0.000388	20.805351
1979.539618	-3.009300	3.226500	-9.708300	27.434498	0.000386	20.818430
1980.537414	-3.001500	3.225000	-9.678800	27.450228	0.000386	20.818608
1981.542754	-2.992100	3.225100	-9.648500	27.461067	0.000387	20.812918
1982.536544	-3.007600	3.224300	-9.696100	27.476870	0.000385	20.826920
1983.541110	-2.982400	3.224000	-9.614400	27.499246	0.000382	20.820983
1984.538749	-2.973700	3.224100	-9.586200	27.489325	0.000384	20.822855
1985.539037	-2.994900	3.222300	-9.648500	27.498309	0.000385	20.802970
1986.537339	-2.986300	3.223400	-9.624500	27.536330	0.000385	20.808033
1987.550457	-3.015400	3.222500	-9.716300	27.543432	0.000383	20.826085
1988.536779	-3.006800	3.220600	-9.682700	27.562734	0.000381	20.832228
1989.537424	-3.002500	3.222300	-9.672400	27.608940	0.000380	20.815658
1990.544878	-3.016900	3.221600	-9.717000	27.616058	0.000380	20.832777
1991.540874	-3.021600	3.220800	-9.730500	27.621663	0.000378	20.821348
1992.544689	-2.978700	3.220000	-9.590400	27.624790	0.000379	20.817856
1993.550525	-3.023600	3.218900	-9.732100	27.658924	0.000380	20.802416
1994.544837	-2.994900	3.219200	-9.640100	27.672760	0.000376	20.810650
1995.540064	-2.998700	3.219600	-9.653300	27.665094	0.000376	20.831384
1996.541719	-3.014800	3.219000	-9.703900	27.667606	0.000377	20.787446
1997.539437	-2.977800	3.217800	-9.581500	27.699820	0.000373	20.812749
1998.538891	-2.981300	3.218900	-9.595500	27.706618	0.000374	20.815796
1999.538561	-2.998700	3.216200	-9.643300	27.719492	0.000373	20.805992
2000.537951	-3.009200	3.218000	-9.683400	27.727006	0.000371	20.813553
2001.544281	-3.009600	3.215100	-9.674100	27.707246	0.000370	20.801729
2002.539930	-3.009000	3.214300	-9.670400	27.724527	0.000370	20.806318
2003.542686	-3.016000	3.212800	-9.688900	27.747841	0.000371	20.801803
2004.541939	-3.005000	3.215600	-9.661700	27.756945	0.000369	20.787732
2005.541089	-2.986200	3.213500	-9.595200	27.744051	0.000370	20.829284
2006.545905	-3.003600	3.214800	-9.654800	27.696290	0.000366	20.787386
2007.544971	-3.021300	3.212400	-9.704900	27.657230	0.000367	20.812091
2008.539279	-3.008700	3.213000	-9.665400	27.679995	0.000367	20.806075
2009.541868	-3.004500	3.213700	-9.654400	27.664523	0.000363	20.797620
2010.540752	-3.019400	3.211200	-9.695100	27.619812	0.000363	20.808579
2011.538872	-2.997300	3.214000	-9.632400	27.583075	0.000363	20.793901
2012.544117	-2.997900	3.211600	-9.626200	27.596054	0.000364	20.800795
2013.538346	-2.989000	3.211500	-9.598800	27.642308	0.000363	20.808930
2014.544306	-3.020100	3.209200	-9.689900	27.627631	0.000362	20.796533
2015.544981	-3.004300	3.210300	-9.644000	27.595489	0.000361	20.786951
2016.543714	-2.981100	3.209500	-9.566700	27.592765	0.000362	20.796538
2017.544989	-3.024900	3.208700	-9.704400	27.532322	0.000358	20.790250
2018.544441	-3.002700	3.208400	-9.633200	27.496505	0.000358	20.813009
2019.541910	-3.004400	3.209500	-9.641400	27.452876	0.000360	20.798987
2020.541133	-3.018900	3.207300	-9.681500	27.431746	0.000359	20.772039
2021.544533	-3.000300	3.207200	-9.621300	27.440455	0.000356	20.798345
2022.540655	-3.014900	3.208300	-9.671300	27.475135	0.000354	20.801466
2023.544374	-2.976400	3.207800	-9.546900	27.478237	0.000353	20.787044
2024.544803	-2.973600	3.206300	-9.533300	27.499195	0.000355	20.800069
2025.548050	-3.001500	3.205300	-9.620200	27.502096	0.000352	20.794927
2026.547358	-2.992500	3.204300	-9.588200	27.545929	0.000351	20.793984
2027.544571	-3.010600	3.203800	-9.643700	27.548236	0.000351	20.781132
2028.545250	-3.010300	3.202800	-9.639700	27.543479	0.000352	20.778242
2029.548908	-3.008100	3.204800	-9.639300	27.508827	0.000351	20.801698
2030.547146	-2.992500	3.203800	-9.586000	27.481198	0.000349	20.797609
2031.546155	-2.991500	3.202500	-9.579300	27.443248	0.000349	20.799258
2032.551328	-2.979200	3.202700	-9.540600	27.456420	0.000348	20.787380
2033.547786	-3.012000	3.200600	-9.639600	27.475493	0.000346	20.787128
2034.549074	-2.994700	3.203600	-9.592300	27.474413	0.000346	20.797895
2035.553126	-3.019600	3.200600	-9.663500	27.453376	0.000345	20.780998
2036.544378	-3.006600	3.200600	-9.622500	27.474290	0.000345	20.790185
2037.549683	-2.994000	3.199800	-9.579600	27.481634	0.000344	20.799945
2038.550719	-2.981100	3.199200	-9.535300	27.498301	0.000342	20.769771
2039.548114	-3.006300	3.199400	-9.615200	27.529012	0.000343	20.796877
2040.549314	-3.006400	3.199200	-9.617400	27.535541	0.000342	20.777842
2041.553966	-3.013200	3.197900	-9.633900	27.551191	0.000342	20.804493
2042.550109	-3.001500	3.198200	-9.598600	27.573659	0.000341	20.809556
2043.555655	-3.004200	3.195800	-9.600500	27.582220	0.000340	20.809161
2044.553434	-3.011900	3.196800	-9.627100	27.613424	0.000336	20.800730
2045.553364	-2.995400	3.197300	-9.576300	27.655338	0.000338	20.776523
2046.551970	-3.008900	3.195200	-9.612600	27.649512	0.000336	20.778721
2047.555200	-3.014800	3.195800	-9.633800	27.631282	0.000337	20.794042
2048.550764	-2.986700	3.194200	-9.537900	27.591256	0.000336	20.743336
2049.555784	-3.011300	3.193500	-9.615300	27.591085	0.000334	20.781097
2050.554322	-2.989800	3.192900	-9.545200	27.592616	0.000336	20.785483
2051.552496	-2.999900	3.192800	-9.577600	27.617994	0.000334	20.782094
2052.553408	-3.010900	3.192400	-9.610100	27.628115	0.000332	20.775209
2053.554819	-2.989000	3.193900	-9.546100	27.608250	0.000331	20.766600
2054.553564	-2.989200	3.193400	-9.544200	27.569358	0.000332	20.776306
2055.551785	-2.995100	3.191700	-9.558600	27.586554	0.000329	20.764683
2056.554622	-2.999400	3.190600	-9.569200	27.571106	0.000329	20.768580
2057.553597	-2.998800	3.191200	-9.569400	27.576309	0.000329	20.784248
2058.554001	-3.021600	3.188700	-9.633700	27.616943	0.000328	20.769183
2059.559094	-2.997200	3.188800	-9.556400	27.656275	0.000327	20.785527
2060.554755	-2.986800	3.189600	-9.525900	27.669126	0.000327	20.772853
2061.556085	-2.990500	3.189500	-9.536800	27.700578	0.000326	20.773208
2062.556193	-3.006900	3.188000	-9.584800	27.735269	0.000325	20.769237
2063.555592	-3.007200	3.187900	-9.585500	27.753551	0.000324	20.773885
2064.556743	-3.024100	3.187200	-9.638000	27.775225	0.000322	20.743064
2065.556161	-3.004700	3.184800	-9.568700	27.757698	0.000323	20.754350
2066.557933	-3.018200	3.185700	-9.613900	27.754621	0.000321	20.760263
2067.559531	-2.993600	3.185300	-9.534300	27.748275	0.000323	20.754824
2068.556717	-2.985800	3.187300	-9.516000	27.756187	0.000321	20.758993
2069.557685	-3.025200	3.183000	-9.626700	27.797079	0.000319	20.778335
2070.559215	-3.008900	3.183100	-9.576400	27.815409	0.000319	20.754108
2071.565585	-2.980100	3.183900	-9.487300	27.872416	0.000317	20.761695
2072.563306	-3.001800	3.185400	-9.560900	27.889503	0.000317	20.776996
2073.556980	-2.994200	3.184200	-9.532500	27.904309	0.000316	20.767716
2074.557033	-3.001600	3.182400	-9.551500	27.925979	0.000316	20.767716
2075.566485	-3.018900	3.181100	-9.602300	27.895014	0.000315	20.765947
2076.561754	-3.007400	3.183200	-9.571900	27.859705	0.000315	20.750799
2077.558584	-3.006500	3.180400	-9.561100	27.840163	0.000314	20.768116
2078.565835	-2.979900	3.182000	-9.481000	27.839722	0.000315	20.763878
2079.561677	-3.007100	3.180300	-9.562300	27.827428	0.000314	20.753876
2080.563919	-3.017900	3.179100	-9.592700	27.819223	0.000315	20.772645
2081.562263	-2.992800	3.178700	-9.512600	27.829460	0.000310	20.747386
2082.568789	-2.991400	3.178900	-9.508700	27.846106	0.000312	20.765088
2083.568260	-3.014800	3.177200	-9.577400	27.849601	0.000312	20.760544
2084.563110	-2.975200	3.178800	-9.457000	27.792819	0.000309	20.745123
2085.567473	-2.983100	3.178100	-9.478800	27.792102	0.000309	20.771430
2086.563922	-3.006300	3.175800	-9.546600	27.793840	0.000305	20.761324
2087.567270	-2.998000	3.177500	-9.524600	27.727759	0.000308	20.746032
2088.566950	-3.016000	3.177300	-9.581000	27.738370	0.000307	20.755288
2089.569598	-2.999100	3.175000	-9.520900	27.767264	0.000306	20.737423
2090.568335	-2.999400	3.174400	-9.519900	27.826530	0.000305	20.734479
2091.573070	-3.008500	3.173100	-9.545500	27.863926	0.000306	20.763581
2092.569720	-3.002400	3.174300	-9.529700	27.926357	0.000305	20.769993
2093.573267	-3.022800	3.172300	-9.588500	27.948552	0.000304	20.758193
2094.570375	-2.978000	3.173000	-9.448100	28.002327	0.000305	20.748783
2095.569174	-2.985500	3.173300	-9.472700	28.020678	0.000304	20.763937
2096.577343	-3.017700	3.170600	-9.566700	27.991130	0.000302	20.740357
2097.570140	-2.999300	3.169500	-9.505300	27.949106	0.000301	20.743103
2098.580454	-2.999000	3.170500	-9.507000	27.911223	0.000301	20.752389
2099.575727	-2.986800	3.170200	-9.467300	27.898974	0.000301	20.764717
2100.574131	-3.005400	3.169500	-9.525100	27.864436	0.000300	20.746551
2101.574739	-3.020700	3.168400	-9.569600	27.880930	0.000300	20.749401
2102.575458	-3.017700	3.167400	-9.557800	27.861114	0.000299	20.779244
2103.573899	-3.013000	3.167500	-9.542600	27.806737	0.000297	20.743009
2104.571931	-3.014500	3.166300	-9.543400	27.816361	0.000297	20.728038
2105.575136	-2.999800	3.168100	-9.502800	27.809338	0.000296	20.754636
2106.570803	-2.997400	3.165800	-9.488100	27.778866	0.000297	20.743884
2107.574099	-2.982000	3.165700	-9.439100	27.767656	0.000296	20.756311
2108.576919	-2.971300	3.165700	-9.405600	27.789501	0.000295	20.724240
2109.576425	-3.001900	3.165600	-9.501900	27.782218	0.000293	20.727816
2110.576971	-2.999300	3.165300	-9.492400	27.772270	0.000292	20.759057
2111.580292	-2.995300	3.165000	-9.479600	27.807434	0.000291	20.752720
2112.577651	-3.002700	3.163100	-9.497600	27.837513	0.000292	20.750749
2113.576436	-2.990400	3.163000	-9.457700	27.855568	0.000291	20.739996
2114.579631	-2.998200	3.161700	-9.478100	27.882495	0.000290	20.743390
2115.577377	-2.997300	3.160800	-9.473000	27.896604	0.000288	20.738149
2116.578104	-2.991100	3.162900	-9.459000	27.867670	0.000287	20.766402
2117.574906	-3.029200	3.159100	-9.568600	27.829406	0.000287	20.736899
2118.578657	-3.012100	3.161500	-9.522300	27.786336	0.000287	20.745711
2119.579759	-3.016400	3.159500	-9.528200	27.802355	0.000285	20.728641
2120.579806	-2.996600	3.158500	-9.463500	27.812573	0.000285	20.757417
2121.582279	-3.017500	3.159400	-9.533000	27.840723	0.000283	20.733590
2122.580199	-3.004800	3.157100	-9.485500	27.881460	0.000283	20.736657
2123.578291	-2.993200	3.156700	-9.447500	27.900451	0.000284	20.737754
2124.583333	-2.980200	3.157000	-9.407600	27.918456	0.000280	20.748764
2125.582330	-3.005300	3.155400	-9.482600	27.938046	0.000281	20.748092
2126.579947	-3.022200	3.153600	-9.529700	27.926965	0.000283	20.734094
2127.585623	-2.985500	3.154900	-9.417500	27.924389	0.000280	20.747149
2128.583619	-2.992300	3.152500	-9.432500	27.908769	0.000278	20.728107
2129.583292	-3.013800	3.153300	-9.502300	27.906517	0.000278	20.722995
2130.584687	-2.986800	3.153600	-9.418700	27.932599	0.000278	20.747351
2131.581410	-3.018600	3.151600	-9.512800	27.964505	0.000276	20.747697
2132.588037	-3.009500	3.152300	-9.486100	27.986576	0.000276	20.736722
2133.586787	-2.997500	3.152400	-9.448400	28.012018	0.000275	20.742891
2134.585814	-3.009500	3.151000	-9.481000	27.996105	0.000275	20.752478
2135.582322	-3.009600	3.149200	-9.477200	27.975300	0.000276	20.735329
2136.587268	-3.008200	3.149200	-9.472300	27.945480	0.000275	20.740876
2137.586177	-2.983200	3.149000	-9.393000	27.863381	0.000270	20.738851
2138.583931	-3.017700	3.147600	-9.497800	27.802065	0.000273	20.754903
2139.589522	-2.972500	3.148700	-9.358300	27.768245	0.000272	20.751688
2140.590878	-2.991700	3.147600	-9.414600	27.789246	0.000270	20.744847
2141.588454	-2.999000	3.145700	-9.432600	27.841719	0.000271	20.737438
2142.587961	-2.993700	3.146400	-9.418100	27.884468	0.000270	20.752962
2143.591173	-3.029700	3.142800	-9.520700	27.906439	0.000268	20.745203
2144.586350	-3.015100	3.144700	-9.480600	27.948719	0.000268	20.733230
2145.586784	-3.022100	3.143200	-9.498200	27.971134	0.000270	20.751999
2146.592539	-2.995400	3.143100	-9.413700	27.965084	0.000266	20.762031
2147.587116	-3.006500	3.142400	-9.446000	27.948797	0.000267	20.729041
2148.594099	-3.015900	3.144200	-9.481900	27.968828	0.000266	20.744936
2149.589074	-2.993300	3.142100	-9.403600	27.985021	0.000264	20.756968
2150.589735	-3.007700	3.141400	-9.447900	27.996577	0.000265	20.743469
2151.594596	-3.006500	3.140400	-9.440800	27.981262	0.000264	20.749866
2152.591110	-2.997200	3.140200	-9.410600	28.021076	0.000266	20.743000
2153.591685	-2.978100	3.138900	-9.346800	28.048250	0.000263	20.730997
2154.596123	-2.990100	3.139400	-9.386300	28.103482	0.000262	20.746295
2155.592001	-3.001800	3.136600	-9.414100	28.109316	0.000261	20.729881
2156.593135	-3.023500	3.135000	-9.477700	28.082247	0.000260	20.739617
2157.594946	-2.995600	3.137100	-9.395600	28.051979	0.000262	20.756563
2158.592358	-2.980500	3.137000	-9.349300	28.037156	0.000259	20.738323
2159.592341	-2.990500	3.135500	-9.375800	27.983426	0.000257	20.746828
2160.592491	-2.996200	3.134200	-9.389700	27.986238	0.000257	20.736382
2161.592880	-2.971800	3.133900	-9.312200	27.985031	0.000257	20.743702
2162.589462	-3.008800	3.132800	-9.424700	27.986616	0.000258	20.757152
2163.589175	-2.998800	3.133500	-9.395900	27.970227	0.000256	20.754879
2164.593627	-3.009800	3.131100	-9.423100	28.030449	0.000255	20.761444
2165.593394	-3.010600	3.131700	-9.427600	28.024080	0.000255	20.741756
2166.593362	-3.036900	3.129700	-9.503100	28.049452	0.000256	20.738373
2167.594879	-2.982700	3.130400	-9.336300	28.077488	0.000255	20.756638
2168.593019	-2.969100	3.130500	-9.293000	28.112324	0.000253	20.739074
2169.596005	-2.979900	3.129800	-9.325800	28.150009	0.000253	20.763736
2170.591499	-2.986200	3.129200	-9.342800	28.151348	0.000255	20.738057
2171.595296	-2.996400	3.128800	-9.374600	28.151378	0.000253	20.747096
2172.594365	-3.022200	3.126100	-9.446400	28.177851	0.000253	20.740556
2173.596705	-3.003100	3.125100	-9.382100	28.205693	0.000249	20.764319
2174.598856	-2.998600	3.125800	-9.371800	28.196131	0.000249	20.746632
2175.597569	-3.003100	3.125600	-9.385400	28.191127	0.000250	20.737326
2176.598721	-3.002500	3.124800	-9.381200	28.150103	0.000251	20.739173
2177.598269	-2.990500	3.123500	-9.339200	28.118992	0.000249	20.759538
2178.598764	-2.992200	3.123700	-9.346200	28.138357	0.000247	20.760067
2179.603345	-2.982000	3.121500	-9.307400	28.165160	0.000246	20.776618
2180.598478	-2.996400	3.120700	-9.349700	28.151251	0.000245	20.732743
2181.596074	-3.007600	3.119500	-9.380900	28.160308	0.000246	20.753241
2182.599975	-3.014000	3.118500	-9.397200	28.182738	0.000245	20.745951
2183.598054	-3.001500	3.118800	-9.360200	28.176248	0.000246	20.759805
2184.599634	-2.989600	3.117800	-9.319900	28.243498	0.000246	20.758758
2185.604459	-2.988400	3.117200	-9.313900	28.251759	0.000244	20.747161
2186.601370	-2.990400	3.117900	-9.322600	28.310056	0.000245	20.762236
2187.598614	-3.016400	3.115600	-9.396700	28.340671	0.000243	20.758447
2188.600300	-3.015200	3.114400	-9.388400	28.348627	0.000243	20.742750
2189.599516	-2.998200	3.114100	-9.335100	28.347685	0.000243	20.767407
2190.598526	-2.988400	3.114500	-9.306300	28.334603	0.000241	20.744751
2191.605319	-3.007200	3.112900	-9.360100	28.328854	0.000242	20.756507
2192.604766	-3.013000	3.111700	-9.373900	28.290734	0.000241	20.766489
2193.602950	-3.008400	3.110200	-9.356000	28.280850	0.000243	20.759381
2194.603582	-2.987200	3.112200	-9.296200	28.279638	0.000240	20.765748
2195.603872	-3.005300	3.109300	-9.343700	28.274438	0.000238	20.756719
2196.599231	-3.014100	3.109300	-9.370700	28.305593	0.000237	20.763906
2197.602551	-3.007400	3.107500	-9.344000	28.314070	0.000238	20.736404
2198.599837	-3.011800	3.107500	-9.358700	28.352483	0.000239	20.745685
2199.600522	-3.003000	3.105300	-9.324200	28.355686	0.000236	20.759342
2200.603102	-2.997700	3.106500	-9.311900	28.383156	0.000237	20.771829
2201.606993	-3.024000	3.105700	-9.390000	28.413311	0.000236	20.759994
2202.602010	-3.019700	3.103700	-9.370300	28.442657	0.000237	20.769631
2203.603184	-3.022200	3.103800	-9.379100	28.375842	0.000237	20.765887
2204.609465	-3.027700	3.101400	-9.389200	28.330371	0.000236	20.780320
2205.605775	-2.974100	3.103100	-9.228300	28.342315	0.000237	20.781915
2206.609931	-3.010000	3.102300	-9.335100	28.360882	0.000234	20.789704
2207.604751	-3.005300	3.101900	-9.321700	28.387796	0.000234	20.775079
2208.605858	-2.984100	3.100500	-9.251700	28.398313	0.000233	20.782350
2209.605481	-3.009500	3.098800	-9.323900	28.363168	0.000233	20.789635
2210.604599	-3.003800	3.098500	-9.306100	28.349174	0.000232	20.784079
2211.607285	-2.986700	3.097400	-9.249700	28.294297	0.000231	20.778611
2212.607859	-2.993300	3.096600	-9.267900	28.269382	0.000231	20.797622
2213.610143	-2.994300	3.095900	-9.269400	28.278855	0.000232	20.761166
2214.609498	-2.992200	3.095600	-9.262000	28.250005	0.000228	20.783802
2215.614295	-3.010100	3.094300	-9.312800	28.268940	0.000229	20.774892
2216.610035	-3.029500	3.092900	-9.368400	28.277692	0.000231	20.778488
2217.607840	-2.981900	3.093100	-9.222000	28.228665	0.000227	20.762791
2218.609879	-3.021700	3.091300	-9.340100	28.215935	0.000229	20.789804
2219.612299	-3.006100	3.091100	-9.291300	28.233061	0.000229	20.764372
2220.610803	-3.016700	3.088900	-9.317000	28.229293	0.000229	20.782390
2221.614324	-3.013600	3.090700	-9.311700	28.249525	0.000227	20.764352
2222.616062	-3.024300	3.088100	-9.338900	28.296496	0.000226	20.792679
2223.610880	-3.017700	3.086100	-9.311200	28.251389	0.000229	20.785670
2224.612337	-3.012000	3.087100	-9.296300	28.293449	0.000229	20.794353
2225.613911	-2.985500	3.086900	-9.215700	28.326095	0.000228	20.776962
2226.607187	-3.003100	3.085100	-9.263900	28.361982	0.000227	20.786070
2227.611287	-3.001300	3.085900	-9.260800	28.323500	0.000227	20.798532
2228.610914	-2.983600	3.084800	-9.203100	28.339678	0.000226	20.787320
2229.612652	-3.004700	3.082700	-9.261800	28.329995	0.000227	20.797011
2230.616251	-2.970700	3.082600	-9.156400	28.357852	0.000226	20.786179
2231.613895	-3.006900	3.080200	-9.260300	28.348782	0.000227	20.791746
2232.611106	-3.036500	3.079300	-9.348500	28.363282	0.000226	20.774103
2233.612837	-3.020000	3.078100	-9.294800	28.362591	0.000229	20.780519
2234.612998	-2.992000	3.077700	-9.207400	28.353521	0.000227	20.795095
2235.608772	-3.037300	3.074600	-9.337200	28.361178	0.000226	20.785735
2236.609555	-3.024800	3.076000	-9.303300	28.390147	0.000227	20.790249
2237.610842	-3.010400	3.074900	-9.255700	28.392458	0.000226	20.779299
2238.614109	-3.027600	3.074700	-9.308100	28.445612	0.000224	20.790151
2239.623924	-2.993300	3.074400	-9.201200	28.453867	0.000224	20.778074
2240.611738	-3.007400	3.072300	-9.238400	28.482216	0.000225	20.782915
2241.614591	-2.964700	3.073300	-9.110500	28.532625	0.000225	20.792428
2242.619858	-3.009500	3.071200	-9.241000	28.577597	0.000226	20.801209
2243.614935	-2.997300	3.070100	-9.199800	28.591794	0.000225	20.791800
2244.615017	-2.989700	3.069700	-9.176400	28.630693	0.000225	20.799209
2245.612826	-2.993300	3.068200	-9.182000	28.641795	0.000225	20.800908
2246.611354	-3.009300	3.068000	-9.231600	28.652201	0.000225	20.797164
2247.618915	-3.031800	3.066100	-9.295300	28.638397	0.000224	20.803649
2248.613736	-3.006100	3.065300	-9.213600	28.624567	0.000225	20.823385
2249.616849	-2.993400	3.066000	-9.176400	28.606825	0.000225	20.794610
2250.616915	-3.008500	3.063200	-9.214500	28.556719	0.000224	20.794882
2251.618721	-2.988000	3.062600	-9.148400	28.548445	0.000222	20.809783
2252.617922	-3.013800	3.061300	-9.224900	28.540584	0.000224	20.798072
2253.618234	-3.022200	3.060100	-9.246700	28.571186	0.000224	20.796650
2254.615726	-3.015600	3.060700	-9.229100	28.533884	0.000220	20.817877
2255.614412	-3.004600	3.059100	-9.190600	28.508533	0.000221	20.803253
2256.620634	-2.993200	3.058000	-9.151900	28.541834	0.000222	20.817349
2257.614541	-2.991700	3.058500	-9.148300	28.582342	0.000222	20.808834
2258.617995	-3.011400	3.054700	-9.198100	28.589517	0.000223	20.806576
2259.617409	-2.987900	3.055600	-9.128500	28.610256	0.000222	20.839317
2260.618821	-2.998100	3.053300	-9.152600	28.641244	0.000221	20.812206
2261.620542	-2.998100	3.053100	-9.152500	28.619436	0.000222	20.815846
2262.620275	-3.013600	3.051000	-9.192600	28.591581	0.000222	20.827146
2263.622837	-2.982800	3.050900	-9.099100	28.587240	0.000220	20.799542
2264.617092	-2.988800	3.049300	-9.111900	28.585023	0.000223	20.818646
2265.619431	-3.001900	3.047600	-9.146800	28.602168	0.000221	20.823111
2266.617602	-3.017800	3.047000	-9.193700	28.624957	0.000223	20.814768
2267.619971	-2.992900	3.047600	-9.120200	28.637510	0.000222	20.816033
2268.620240	-3.012000	3.044000	-9.168500	28.610200	0.000220	20.811286
2269.618999	-3.037300	3.042600	-9.240000	28.597283	0.000222	20.835734
2270.621252	-2.976600	3.043400	-9.057100	28.571310	0.000222	20.830913
2271.620646	-2.997800	3.042800	-9.120400	28.592540	0.000220	20.849923
2272.626189	-2.982600	3.040500	-9.067100	28.589333	0.000220	20.835788
2273.622646	-2.993900	3.040600	-9.102400	28.620105	0.000218	20.835960
2274.620341	-3.010200	3.039100	-9.147500	28.625470	0.000218	20.828087
2275.619093	-3.005000	3.037900	-9.126200	28.625882	0.000218	20.828502
2276.622854	-3.007600	3.035600	-9.129100	28.629025	0.000218	20.840676
2277.620067	-2.975900	3.035500	-9.032100	28.623591	0.000218	20.840419
2278.619472	-3.009500	3.033700	-9.127300	28.643531	0.000219	20.841061
2279.622030	-3.006400	3.032200	-9.115800	28.670359	0.000215	20.838686
2280.620294	-3.008100	3.032400	-9.121400	28.702385	0.000215	20.821631
2281.619631	-2.992700	3.031000	-9.069900	28.714124	0.000217	20.832507
2282.620967	-2.990800	3.029500	-9.059600	28.714119	0.000216	20.866639
2283.620511	-2.999300	3.029400	-9.085400	28.730119	0.000217	20.850514
2284.620683	-3.007300	3.026200	-9.099700	28.752067	0.000215	20.854603
2285.623158	-3.004100	3.025800	-9.089000	28.765438	0.000214	20.840572
2286.619091	-3.030300	3.024300	-9.163500	28.789758	0.000216	20.844681
2287.619558	-3.003900	3.023300	-9.080300	28.764781	0.000216	20.853660
2288.625406	-2.994700	3.022900	-9.051500	28.787522	0.000212	20.854756
2289.620767	-2.995500	3.020800	-9.046900	28.771018	0.000214	20.864683
2290.618371	-2.992800	3.019700	-9.036200	28.740813	0.000214	20.855596
2291.629601	-2.975100	3.019400	-8.982200	28.691356	0.000213	20.846084
2292.621704	-3.002500	3.016900	-9.056400	28.686796	0.000215	20.867093
2293.620062	-3.005800	3.016400	-9.065600	28.663748	0.000212	20.863320
2294.624564	-3.005800	3.016200	-9.064400	28.635674	0.000211	20.865390
2295.621754	-3.010400	3.014100	-9.073000	28.574123	0.000210	20.851289
2296.620516	-3.006900	3.012600	-9.058000	28.571965	0.000211	20.865711
2297.623135	-3.000300	3.012000	-9.034900	28.620202	0.000213	20.864505
2298.622457	-2.971500	3.011500	-8.947700	28.617451	0.000215	20.859364
2299.623385	-3.007300	3.008500	-9.046400	28.658604	0.000212	20.854820
2300.629479	-3.006800	3.008700	-9.045400	28.679318	0.000212	20.881371
2301.624499	-2.999500	3.007900	-9.020800	28.707754	0.000209	20.865918
2302.627051	-3.008800	3.005900	-9.043200	28.739710	0.000210	20.877717
2303.626100	-2.997600	3.003900	-9.003700	28.736018	0.000210	20.868308
2304.624195	-3.005600	3.002300	-9.022900	28.759971	0.000212	20.874892
2305.625294	-3.023600	3.002200	-9.076400	28.767350	0.000212	20.874265
2306.627472	-3.007300	3.000100	-9.021300	28.750007	0.000210	20.873390
2307.626324	-2.992400	2.998600	-8.972300	28.785973	0.000211	20.861256
2308.628326	-2.977100	2.998300	-8.925200	28.743059	0.000212	20.863547
2309.626004	-3.009300	2.995900	-9.015100	28.730443	0.000212	20.883554
2310.629586	-3.002000	2.994200	-8.987300	28.720626	0.000211	20.882201
2311.626097	-3.002000	2.993800	-8.986500	28.722582	0.000210	20.875164
2312.628498	-2.968000	2.992800	-8.881200	28.721337	0.000212	20.883392
2313.626859	-3.006400	2.990500	-8.989800	28.752900	0.000212	20.859710
2314.630688	-3.023600	2.988200	-9.034100	28.742584	0.000210	20.880137
2315.631956	-2.982000	2.987700	-8.908300	28.757152	0.000212	20.882483
2316.628092	-2.996100	2.989300	-8.954800	28.809842	0.000213	20.858273
2317.632628	-2.958500	2.988100	-8.839400	28.803693	0.000213	20.862037
2318.626955	-3.014500	2.983800	-8.992900	28.778496	0.000213	20.887861
2319.631197	-2.967400	2.983900	-8.853000	28.772151	0.000212	20.899961
2320.630666	-3.008700	2.981300	-8.969300	28.770538	0.000212	20.891225
2321.633215	-3.022200	2.979500	-9.004400	28.757500	0.000213	20.881886
2322.630359	-3.009000	2.978900	-8.963000	28.722490	0.000212	20.876967
2323.632445	-2.980400	2.977800	-8.874500	28.697310	0.000211	20.891907
2324.633761	-2.970800	2.975600	-8.838400	28.686753	0.000212	20.890282
2325.633770	-2.996600	2.974900	-8.913400	28.688111	0.000213	20.889753
2326.632669	-2.970800	2.973900	-8.833700	28.713502	0.000211	20.891146
2327.634002	-2.988800	2.973600	-8.887000	28.760050	0.000212	20.913375
2328.634658	-3.015500	2.969500	-8.952800	28.778698	0.000210	20.892332
2329.631819	-2.981900	2.969000	-8.852000	28.793903	0.000212	20.901957
2330.634588	-3.011800	2.968200	-8.938600	28.760154	0.000210	20.905894
2331.634011	-2.997900	2.965500	-8.889300	28.728193	0.000209	20.893142
2332.634596	-2.997200	2.964400	-8.883200	28.657625	0.000209	20.904091
2333.635366	-2.994700	2.962900	-8.871800	28.608415	0.000209	20.905736
2334.634388	-2.980600	2.961600	-8.826100	28.609077	0.000210	20.904506
2335.632712	-3.009500	2.958900	-8.904000	28.651643	0.000209	20.899489
2336.635811	-3.003200	2.960200	-8.888200	28.709365	0.000209	20.911633
2337.640442	-2.992300	2.957600	-8.849600	28.761214	0.000210	20.919762
2338.636783	-3.025100	2.954900	-8.937500	28.758860	0.000211	20.927822
2339.634674	-3.029300	2.953200	-8.945100	28.752515	0.000209	20.931388
2340.638472	-2.990500	2.953200	-8.830600	28.801833	0.000210	20.902359
2341.639015	-3.011700	2.950800	-8.886200	28.823406	0.000209	20.926459
2342.636759	-2.999800	2.949600	-8.847200	28.790134	0.000209	20.894843
2343.638103	-3.004800	2.946100	-8.851200	28.793748	0.000210	20.914128
2344.636416	-2.997600	2.946100	-8.829900	28.810835	0.000210	20.903841
2345.639437	-2.998500	2.943900	-8.826100	28.829609	0.000212	20.917062
2346.635214	-2.990400	2.942200	-8.797000	28.863126	0.000209	20.918109
2347.636047	-3.007800	2.940200	-8.843100	28.840278	0.000211	20.902681
2348.635584	-3.001800	2.938900	-8.820900	28.828703	0.000211	20.922312
2349.638625	-2.998500	2.938000	-8.808200	28.820848	0.000212	20.923409
2350.635337	-2.995400	2.937600	-8.797800	28.829635	0.000212	20.913295
2351.640996	-3.003400	2.933600	-8.809800	28.876722	0.000210	20.925167
2352.639547	-3.009700	2.934000	-8.828900	28.883876	0.000213	20.918150
2353.636773	-2.991700	2.932900	-8.772800	28.844310	0.000211	20.923810
2354.635883	-3.022700	2.929100	-8.852400	28.843732	0.000212	20.944562
2355.637715	-3.005300	2.928100	-8.798200	28.881008	0.000211	20.928537
2356.640505	-3.023300	2.925800	-8.844300	28.907680	0.000213	20.938809
2357.641769	-3.015200	2.925500	-8.820400	28.930737	0.000212	20.939279
2358.650569	-2.987500	2.923800	-8.734300	28.958627	0.000211	20.919016
2359.638546	-2.993400	2.922200	-8.747200	28.922628	0.000211	20.933481
2360.641564	-2.990600	2.919500	-8.730100	28.861977	0.000212	20.946347
2361.641548	-2.991300	2.919500	-8.732300	28.828829	0.000210	20.914854
2362.643035	-3.000900	2.916300	-8.750700	28.833826	0.000210	20.919413
2363.643558	-3.007900	2.915900	-8.769500	28.849942	0.000212	20.927587
2364.639562	-2.967200	2.914100	-8.645700	28.883335	0.000211	20.965015
2365.642230	-2.973700	2.913000	-8.661400	28.849364	0.000209	20.949287
2366.643222	-2.998600	2.909700	-8.723400	28.887013	0.000212	20.924155
2367.644010	-3.020700	2.906900	-8.779700	28.865849	0.000210	20.933178
2368.642812	-3.013600	2.906600	-8.758400	28.883558	0.000209	20.942957
2369.647912	-2.977500	2.904900	-8.648800	28.835343	0.000210	20.919519
2370.647312	-2.981600	2.903200	-8.654200	28.879185	0.000210	20.942819
2371.645573	-2.988700	2.901900	-8.671800	28.874405	0.000210	20.928522
2372.645019	-2.987600	2.900100	-8.663300	28.902435	0.000210	20.930207
2373.642829	-2.986900	2.897500	-8.653500	28.938797	0.000210	20.928435
2374.650262	-2.992400	2.896500	-8.666600	28.974512	0.000210	20.922217
2375.644425	-2.987400	2.895200	-8.647500	28.960634	0.000208	20.927201
2376.645202	-3.002500	2.892500	-8.684200	28.898828	0.000209	20.920885
2377.643962	-2.993100	2.891600	-8.654300	28.893641	0.000210	20.940313
2378.643688	-2.990300	2.888600	-8.636600	28.907957	0.000208	20.939563
2379.644943	-2.988300	2.886600	-8.624400	28.916871	0.000209	20.912036
2380.643306	-2.982300	2.885500	-8.603900	28.940050	0.000208	20.921637
2381.646137	-3.043200	2.880200	-8.763900	28.943369	0.000208	20.925929
2382.645405	-2.976600	2.881000	-8.574400	29.012664	0.000207	20.929362
2383.647077	-2.998000	2.879000	-8.630600	29.031263	0.000209	20.923446
2384.650315	-3.006600	2.875600	-8.644300	29.002331	0.000207	20.907099
2385.648149	-2.991200	2.874100	-8.595800	28.997469	0.000209	20.913105
2386.645765	-2.958700	2.874000	-8.501800	29.038583	0.000207	20.928923
2387.649127	-3.015100	2.870500	-8.653000	29.038358	0.000208	20.914948
2388.649684	-2.997800	2.867900	-8.597000	29.055990	0.000206	20.916592
2389.647408	-3.023700	2.866300	-8.664100	29.014774	0.000206	20.904937
2390.652979	-2.998000	2.866200	-8.592300	28.976106	0.000205	20.908652
2391.652935	-2.981300	2.863200	-8.535100	28.938872	0.000206	20.919502
2392.648984	-2.991900	2.861800	-8.561500	28.923415	0.000204	20.914835
2393.650180	-2.981800	2.859900	-8.526700	28.879565	0.000206	20.903852
2394.650733	-2.987500	2.857200	-8.534400	28.831753	0.000205	20.912584
2395.649937	-2.988400	2.855900	-8.533200	28.780197	0.000206	20.911384
2396.647276	-3.008600	2.852800	-8.582700	28.735106	0.000206	20.900578
2397.646168	-2.985100	2.851800	-8.511000	28.738323	0.000204	20.914249
2398.646162	-3.013500	2.848700	-8.583300	28.779104	0.000205	20.889896
2399.649345	-3.003700	2.846700	-8.549800	28.781506	0.000204	20.907962
2400.650415	-3.033600	2.844100	-8.626100	28.808606	0.000203	20.909656
2401.650640	-2.989500	2.842700	-8.496700	28.845443	0.000205	20.909779
2402.650406	-3.001700	2.841700	-8.529100	28.886543	0.000204	20.899502
2403.651766	-3.020300	2.838300	-8.571600	28.893353	0.000204	20.906362
2404.651084	-3.008200	2.835800	-8.529600	28.948022	0.000203	20.895531
2405.647878	-2.997200	2.834400	-8.493100	28.939427	0.000205	20.897778
2406.647688	-2.991700	2.831600	-8.470600	28.938065	0.000204	20.905888
2407.648114	-2.993600	2.829700	-8.469700	28.951885	0.000205	20.890889
2408.654660	-3.008800	2.826000	-8.500500	28.990275	0.000204	20.885946
2409.650634	-3.019100	2.823300	-8.522700	29.005904	0.000204	20.893630
2410.652453	-2.991200	2.824500	-8.447000	28.973906	0.000205	20.885101
2411.647781	-3.005400	2.822700	-8.482800	28.937021	0.000204	20.883975
2412.651431	-3.041700	2.816300	-8.564700	28.916881	0.000204	20.891186
2413.647614	-3.030500	2.814000	-8.526900	28.875909	0.000202	20.895902
2414.652329	-3.027500	2.813900	-8.517600	28.903683	0.000203	20.906811
2415.650331	-2.986000	2.811300	-8.393600	28.910341	0.000202	20.870848
2416.648854	-3.015400	2.808300	-8.466600	28.931148	0.000204	20.886593
2417.653788	-3.022500	2.805400	-8.477900	28.951954	0.000202	20.882899
2418.655271	-2.995700	2.803800	-8.399100	28.990005	0.000204	20.885200
2419.652749	-3.010500	2.801800	-8.434000	29.021585	0.000204	20.887146
2420.652882	-3.030200	2.798400	-8.478700	29.011080	0.000204	20.880829
2421.653046	-3.021200	2.796100	-8.447100	28.965288	0.000205	20.890168
2422.655356	-3.007800	2.793000	-8.399400	28.989658	0.000205	20.905710
2423.649508	-3.018700	2.790300	-8.421500	28.988029	0.000204	20.892217
2424.651958	-2.973100	2.788900	-8.291000	29.025105	0.000203	20.876942
2425.653363	-2.998700	2.786000	-8.353000	29.005859	0.000202	20.887422
2426.650776	-3.039700	2.782700	-8.456900	29.047395	0.000205	20.870951
2427.652672	-3.001500	2.780500	-8.344900	29.035855	0.000205	20.878764
2428.649987	-2.993700	2.777500	-8.314200	29.007496	0.000202	20.883382
2429.656364	-3.007300	2.774000	-8.341500	28.959272	0.000202	20.869884
2430.653596	-3.009000	2.772200	-8.339700	28.947335	0.000203	20.862125
2431.653731	-2.994500	2.769600	-8.292800	28.950752	0.000204	20.876946
2432.650827	-2.994300	2.766200	-8.281900	28.933044	0.000203	20.879020
2433.657098	-2.960200	2.764700	-8.182300	28.959007	0.000202	20.888107
2434.655861	-2.981500	2.760500	-8.229600	28.995838	0.000201	20.869266
2435.656525	-2.998100	2.758500	-8.269100	29.061746	0.000203	20.856489
2436.654304	-2.978000	2.756400	-8.205300	29.143139	0.000202	20.886343
2437.654558	-2.971000	2.753200	-8.178300	29.172607	0.000203	20.869572
2438.661362	-2.989500	2.749300	-8.217900	29.149727	0.000204	20.884921
2439.657076	-2.997400	2.746300	-8.230200	29.082118	0.000203	20.869428
2440.660335	-2.965600	2.743600	-8.136000	29.091157	0.000204	20.879009
2441.656948	-2.994400	2.739100	-8.201000	29.096661	0.000204	20.886451
2442.660500	-2.979800	2.737000	-8.155200	29.081627	0.000205	20.840012
2443.660254	-2.991900	2.733600	-8.178100	29.050250	0.000204	20.841113
2444.658253	-2.984400	2.729700	-8.145100	29.054505	0.000204	20.861521
2445.662805	-2.997000	2.725900	-8.168900	29.054853	0.000206	20.847173
2446.662639	-2.997600	2.724200	-8.165100	29.053171	0.000204	20.851643
2447.661010	-2.992000	2.720300	-8.138600	29.093518	0.000206	20.864321
2448.656398	-3.004700	2.714700	-8.155200	29.112812	0.000206	20.860053
2449.668079	-2.989300	2.714500	-8.111700	29.174527	0.000205	20.853016
2450.656982	-2.998500	2.709700	-8.123900	29.161274	0.000207	20.848196
2451.660920	-3.015000	2.704400	-8.152300	29.160063	0.000207	20.852665
2452.661082	-3.008800	2.701000	-8.125900	29.181777	0.000204	20.859847
2453.661336	-2.991600	2.698500	-8.071900	29.179179	0.000206	20.843953
2454.659255	-3.015800	2.695200	-8.127300	29.200054	0.000205	20.860247
2455.661953	-2.987200	2.692100	-8.041200	29.222364	0.000206	20.860918
2456.662351	-3.017000	2.686100	-8.102700	29.312973	0.000205	20.857876
2457.661060	-2.984800	2.684400	-8.011800	29.306853	0.000207	20.869250
2458.661108	-2.992200	2.679900	-8.017700	29.321879	0.000208	20.866376
2459.660931	-3.006500	2.675000	-8.041500	29.359932	0.000206	20.852573
2460.669186	-2.994900	2.671600	-8.000400	29.385533	0.000207	20.842814
2461.662480	-2.983400	2.668600	-7.960500	29.427201	0.000207	20.844508
2462.666727	-2.984900	2.664700	-7.952600	29.464261	0.000207	20.837767
2463.664938	-3.009900	2.660300	-8.006000	29.472576	0.000206	20.857053
2464.662029	-3.028200	2.654800	-8.037700	29.449002	0.000206	20.833293
2465.666818	-3.013000	2.651200	-7.986700	29.414976	0.000208	20.838825
2466.667193	-2.978800	2.647100	-7.884800	29.396105	0.000207	20.855840
2467.665005	-3.010500	2.641700	-7.951100	29.403329	0.000204	20.846052
2468.666666	-2.996000	2.639600	-7.907000	29.382307	0.000207	20.845252
2469.669202	-2.939900	2.635300	-7.746100	29.375020	0.000208	20.825107
2470.664437	-2.966700	2.630700	-7.803300	29.322697	0.000208	20.848710
2471.670462	-3.010800	2.623700	-7.898000	29.257541	0.000206	20.840893
2472.670006	-3.010900	2.618000	-7.881700	29.228512	0.000208	20.845304
2473.669399	-3.018300	2.614500	-7.890100	29.266344	0.000209	20.850238
2474.668817	-2.960100	2.611200	-7.727400	29.339264	0.000208	20.840751
2475.668579	-3.024300	2.603400	-7.872800	29.388064	0.000209	20.845365
2476.666938	-2.993100	2.599600	-7.780200	29.430345	0.000208	20.838668
2477.671514	-2.989000	2.595600	-7.757300	29.458884	0.000209	20.849890
2478.675252	-3.008100	2.589300	-7.787400	29.459252	0.000207	20.845046
2479.670124	-3.007900	2.583500	-7.768900	29.473801	0.000208	20.838848
2480.668588	-2.998400	2.577900	-7.728700	29.512168	0.000210	20.833900
2481.669040	-3.006800	2.572200	-7.733400	29.483347	0.000209	20.834247
2482.667415	-2.993900	2.567800	-7.686500	29.436670	0.000210	20.836984
2483.669847	-3.009500	2.559900	-7.703600	29.419084	0.000207	20.850078
2484.668731	-3.000100	2.555300	-7.664800	29.429478	0.000208	20.835425
2485.666929	-2.996300	2.550400	-7.640800	29.455588	0.000208	20.846568
2486.670403	-3.004400	2.543600	-7.641100	29.479300	0.000208	20.860986
2487.673750	-3.018900	2.536900	-7.657900	29.525467	0.000208	20.845883
2488.667987	-3.008100	2.532600	-7.617500	29.537022	0.000208	20.860375
2489.675644	-2.974200	2.527500	-7.516400	29.535651	0.000210	20.849036
2490.672567	-3.024700	2.519400	-7.619900	29.507591	0.000208	20.829761
2491.672422	-3.007500	2.513800	-7.559000	29.503202	0.000209	20.835294
2492.673245	-2.996300	2.508000	-7.513400	29.549520	0.000209	20.850689
2493.673651	-2.945100	2.503400	-7.371700	29.587312	0.000209	20.817664
2494.675761	-2.984500	2.495400	-7.445900	29.568915	0.000208	20.837998
