LabVIEW Measurement	
Writer_Version	2
Reader_Version	2
Separator	Tab
Decimal_Separator	.
Multi_Headings	No
X_Columns	One
Time_Pref	Absolute
Operator	admin
Description	Clolumns are: time, Current, Voltage, Power, Battery Temp, and Chamber Temp
Date	2024/08/16
Time	13:06:06.104549407958984375
***End_of_Header***	
	
Channels	6						
Samples	1	1	1	1	1	1	
Date	2024/09/03	2024/09/03	2024/09/03	2024/09/03	2024/09/03	2024/09/03	
Time	10:16:48.1885957717895507812	10:16:48.1939501762390136719	10:16:48.1998577117919921875	10:16:48.1707177162170410156	10:16:48.1707177162170410156	10:16:48.1707177162170410156	
X_Dimension	Time	Time	Time	Time	Time	Time	
X0	0.0000000000000000E+0	0.0000000000000000E+0	0.0000000000000000E+0	0.0000000000000000E+0	0.0000000000000000E+0	0.0000000000000000E+0	
Delta_X	1.000000	1.000000	1.000000	1.000000	1.000000	1.000000	
***End_of_Header***							
X_Value	Untitled	Untitled 1	Untitled 2	Untitled 3	Untitled 4	Untitled 5	Comment
0.000000	0.004683	4.101600	0.019223	21.034032	0.000940	20.921201
1.000281	-2.983300	3.933900	-11.734000	21.059633	0.000938	20.897972
1.999729	-2.995600	3.927300	-11.764000	21.056713	0.000937	20.922076
3.003378	-2.982800	3.922100	-11.698000	21.046708	0.000938	20.914440
4.001132	-3.014500	3.917200	-11.807000	21.064647	0.000936	20.930959
5.001559	-2.980100	3.914800	-11.665000	21.087650	0.000936	20.899443
6.003253	-2.985200	3.912400	-11.679000	21.074301	0.000936	20.925917
7.001581	-3.016700	3.908500	-11.790000	21.086974	0.000935	20.936221
8.000887	-2.991900	3.907500	-11.690000	21.067890	0.000933	20.923772
9.002612	-3.008200	3.905200	-11.746000	21.086125	0.000932	20.927313
10.002019	-2.987900	3.904800	-11.666000	21.095806	0.000933	20.920876
11.000688	-3.006300	3.902000	-11.730000	21.101493	0.000933	20.932253
12.000863	-2.987900	3.901100	-11.655000	21.093983	0.000932	20.935172
13.001634	-3.007200	3.898300	-11.720000	21.098250	0.000932	20.932327
14.002183	-2.993900	3.898700	-11.672000	21.087345	0.000930	20.943704
15.004057	-3.009300	3.896000	-11.723000	21.083028	0.000929	20.932274
16.001827	-3.006700	3.895100	-11.711000	21.089739	0.000929	20.929504
17.004680	-3.011900	3.894300	-11.728000	21.115734	0.000929	20.919946
18.005702	-2.985800	3.894000	-11.626000	21.119901	0.000929	20.926958
19.003684	-3.007300	3.891700	-11.703000	21.128758	0.000927	20.934869
20.001453	-3.018800	3.891400	-11.746000	21.110345	0.000928	20.929253
21.005777	-2.997500	3.891500	-11.663000	21.127310	0.000926	20.928205
22.004622	-2.989000	3.889600	-11.626000	21.146642	0.000927	20.933317
23.002664	-3.032500	3.888200	-11.790000	21.158416	0.000926	20.924233
24.005778	-3.014100	3.886900	-11.714000	21.131847	0.000925	20.940802
25.002480	-2.992700	3.887100	-11.631000	21.157317	0.000923	20.927401
26.003548	-3.008200	3.886800	-11.692000	21.155768	0.000923	20.967098
27.005704	-3.015200	3.885600	-11.715000	21.148683	0.000923	20.934410
28.003174	-3.003800	3.885900	-11.671000	21.126054	0.000922	20.923156
29.004038	-3.028200	3.883900	-11.760000	21.187026	0.000923	20.929618
30.007629	-3.000300	3.882000	-11.645000	21.179914	0.000920	20.918712
31.004959	-3.008600	3.883400	-11.682000	21.163323	0.000921	20.939097
32.005071	-3.019400	3.882400	-11.722000	21.205008	0.000923	20.920107
33.007599	-2.996400	3.882400	-11.631000	21.192335	0.000919	20.925920
34.006031	-2.996800	3.881300	-11.631000	21.201713	0.000921	20.926768
35.005864	-3.014300	3.882000	-11.701000	21.171701	0.000920	20.915238
36.007483	-3.010100	3.881000	-11.681000	21.207700	0.000920	20.929437
37.006812	-3.003400	3.880900	-11.655000	21.193278	0.000917	20.940139
38.006247	-3.007200	3.878200	-11.662000	21.214082	0.000918	20.924917
39.007447	-2.997300	3.879200	-11.626000	21.220894	0.000917	20.928411
40.007398	-2.989900	3.880100	-11.599000	21.221216	0.000919	20.938689
41.009163	-3.006000	3.878300	-11.657000	21.218920	0.000917	20.913636
42.006454	-3.003800	3.877400	-11.646000	21.245461	0.000917	20.902730
43.008198	-3.005000	3.876300	-11.648000	21.249302	0.000916	20.930751
44.009202	-2.999600	3.876700	-11.628000	21.235605	0.000917	20.923213
45.009436	-2.995100	3.877600	-11.613000	21.250896	0.000916	20.920019
46.006886	-2.996900	3.876300	-11.616000	21.256034	0.000918	20.915676
47.008874	-2.997100	3.876600	-11.618000	21.276038	0.000917	20.937109
48.007762	-2.995100	3.874400	-11.602000	21.257677	0.000918	20.927750
49.012412	-2.998700	3.875100	-11.618000	21.280027	0.000917	20.924980
50.007751	-3.014600	3.874200	-11.677000	21.285264	0.000916	20.916469
51.008543	-3.019600	3.872400	-11.690000	21.265109	0.000916	20.916695
52.011147	-2.984700	3.875400	-11.566000	21.299530	0.000916	20.906086
53.010811	-3.012100	3.874400	-11.668000	21.290324	0.000915	20.931961
54.009223	-2.993300	3.874700	-11.598000	21.305017	0.000916	20.902093
55.011635	-3.009900	3.871600	-11.652000	21.311825	0.000914	20.913644
56.010639	-2.987000	3.872700	-11.567000	21.301696	0.000913	20.929114
57.010470	-2.985700	3.871800	-11.558000	21.327238	0.000916	20.924322
58.014795	-2.986600	3.871900	-11.563000	21.342727	0.000913	20.905681
59.013956	-2.984100	3.870300	-11.548000	21.351581	0.000915	20.918331
60.012898	-2.985000	3.871200	-11.555000	21.354173	0.000915	20.911442
61.019228	-3.003400	3.869200	-11.620000	21.346937	0.000912	20.912263
62.011817	-2.990700	3.871100	-11.576000	21.363225	0.000914	20.912912
63.013440	-2.998900	3.869400	-11.603000	21.370209	0.000913	20.908520
64.014339	-3.020400	3.867800	-11.680000	21.377791	0.000914	20.912786
65.015185	-2.989300	3.869400	-11.566000	21.381231	0.000912	20.916702
66.011611	-2.995500	3.870300	-11.592000	21.384073	0.000912	20.911959
67.016033	-3.001600	3.866600	-11.605000	21.391979	0.000914	20.916076
68.013432	-2.995100	3.868600	-11.586000	21.380329	0.000914	20.927652
69.013220	-2.980100	3.870000	-11.531000	21.389932	0.000913	20.883210
70.016972	-3.003100	3.868400	-11.616000	21.415945	0.000914	20.901175
71.013521	-3.006400	3.866200	-11.622000	21.412377	0.000915	20.910880
72.012778	-2.999800	3.866700	-11.598000	21.415618	0.000912	20.933561
73.018060	-3.002200	3.865600	-11.603000	21.434448	0.000911	20.899774
74.015132	-2.992200	3.867300	-11.571000	21.434772	0.000915	20.928544
75.018267	-3.008700	3.866900	-11.633000	21.441279	0.000914	20.893807
76.018904	-3.007000	3.866300	-11.625000	21.457143	0.000916	20.915841
77.019937	-3.022500	3.864800	-11.680000	21.458662	0.000913	20.920680
78.015967	-2.999600	3.865500	-11.594000	21.460058	0.000912	20.921128
79.019904	-3.015600	3.864600	-11.653000	21.469360	0.000911	20.894403
80.017478	-2.980300	3.865000	-11.517000	21.470956	0.000913	20.904533
81.018705	-2.969300	3.865600	-11.476000	21.465840	0.000914	20.892303
82.022684	-3.000400	3.863300	-11.590000	21.460428	0.000912	20.904431
83.018017	-2.970000	3.865100	-11.478000	21.480330	0.000912	20.928135
84.019145	-3.013200	3.863100	-11.638000	21.480005	0.000914	20.896519
85.025508	-2.994700	3.863400	-11.569000	21.480727	0.000912	20.914783
86.020430	-3.003000	3.864000	-11.603000	21.481948	0.000912	20.894196
87.019270	-2.984800	3.863300	-11.530000	21.512050	0.000913	20.905823
88.023183	-2.995000	3.863300	-11.569000	21.506164	0.000913	20.892348
89.020571	-3.015700	3.861800	-11.643000	21.517535	0.000912	20.903725
90.021029	-2.984600	3.864100	-11.531000	21.517910	0.000914	20.900781
91.023897	-3.012300	3.863000	-11.635000	21.527261	0.000914	20.915353
92.021582	-3.018500	3.862200	-11.655000	21.560729	0.000914	20.897161
93.022180	-2.991700	3.862000	-11.554000	21.544743	0.000914	20.917198
94.025941	-2.991600	3.862100	-11.553000	21.551599	0.000916	20.904146
95.022992	-2.995900	3.860700	-11.565000	21.550178	0.000914	20.903672
96.022075	-3.015900	3.859800	-11.640000	21.580701	0.000914	20.904818
97.029936	-3.017500	3.861700	-11.652000	21.589130	0.000914	20.882909
98.024724	-3.023800	3.860200	-11.671000	21.589852	0.000916	20.907811
99.024521	-2.992800	3.860200	-11.550000	21.572842	0.000914	20.914497
100.026783	-3.031600	3.859600	-11.699000	21.610649	0.000916	20.883106
101.025910	-3.000600	3.860100	-11.582000	21.601022	0.000915	20.904290
102.028884	-3.014800	3.860100	-11.636000	21.607979	0.000913	20.886124
103.030157	-3.012300	3.858600	-11.622000	21.611368	0.000913	20.881929
104.026705	-2.996400	3.859600	-11.564000	21.635307	0.000914	20.885496
105.028759	-2.979800	3.859800	-11.500000	21.639646	0.000914	20.899320
106.027265	-3.020600	3.858600	-11.654000	21.645007	0.000914	20.900418
107.026690	-2.994100	3.858900	-11.553000	21.644183	0.000913	20.894378
108.029182	-3.022400	3.857800	-11.659000	21.618846	0.000916	20.901264
109.032588	-2.980700	3.859200	-11.502000	21.652634	0.000915	20.893827
110.028246	-3.010100	3.858100	-11.612000	21.649866	0.000917	20.884893
111.027578	-2.975700	3.859800	-11.485000	21.656798	0.000916	20.896571
112.032218	-2.999200	3.857900	-11.569000	21.701882	0.000917	20.896644
113.028930	-2.988300	3.857000	-11.524000	21.698713	0.000917	20.877828
114.029326	-2.977100	3.858700	-11.486000	21.713700	0.000915	20.886662
115.029209	-3.005000	3.857700	-11.591000	21.713974	0.000916	20.917278
116.028275	-3.012300	3.856300	-11.614000	21.722350	0.000916	20.896266
117.028229	-2.990100	3.857400	-11.532000	21.725915	0.000917	20.872809
118.033076	-3.001700	3.856600	-11.576000	21.732573	0.000915	20.914082
119.029483	-2.997200	3.855800	-11.555000	21.703696	0.000915	20.916002
120.029875	-3.000500	3.856400	-11.570000	21.719205	0.000914	20.896438
121.031808	-2.973700	3.856600	-11.467000	21.722896	0.000915	20.884960
122.031148	-2.988000	3.854900	-11.517000	21.743441	0.000917	20.864746
123.032792	-2.987100	3.854600	-11.513000	21.732269	0.000917	20.906666
124.033932	-2.989600	3.855800	-11.524000	21.758225	0.000916	20.913677
125.030955	-2.988300	3.854800	-11.518000	21.738577	0.000917	20.908712
126.037306	-2.999300	3.853900	-11.558000	21.754982	0.000916	20.892415
127.041670	-2.991800	3.854400	-11.531000	21.738899	0.000917	20.902871
128.031838	-2.999100	3.854500	-11.558000	21.785826	0.000916	20.889146
129.036706	-2.992100	3.854300	-11.531000	21.771862	0.000917	20.885602
130.035016	-3.014300	3.852700	-11.612000	21.754930	0.000918	20.896630
131.035151	-2.994600	3.854500	-11.542000	21.760315	0.000918	20.882106
132.032328	-3.008700	3.854300	-11.595000	21.753831	0.000917	20.889367
133.036116	-2.997600	3.854300	-11.552000	21.778990	0.000920	20.881831
134.035809	-2.991300	3.853800	-11.526000	21.785348	0.000918	20.887245
135.033258	-3.001100	3.852700	-11.561000	21.791531	0.000919	20.900071
136.044569	-2.985700	3.853600	-11.504000	21.794000	0.000918	20.894956
137.036368	-3.017300	3.853000	-11.623000	21.839078	0.000918	20.897874
138.034888	-3.011100	3.853200	-11.601000	21.832520	0.000920	20.898423
139.035936	-3.010500	3.852500	-11.597000	21.839053	0.000919	20.893582
140.033614	-3.005100	3.851400	-11.573000	21.817934	0.000919	20.889514
141.034322	-2.995100	3.851900	-11.536000	21.841197	0.000919	20.887667
142.036391	-3.018700	3.851600	-11.626000	21.852690	0.000919	20.893007
143.036542	-2.975500	3.852300	-11.461000	21.856530	0.000922	20.887842
144.035909	-3.006500	3.850800	-11.577000	21.879567	0.000921	20.900467
145.042243	-2.994700	3.851400	-11.533000	21.885451	0.000923	20.882651
146.034918	-2.995600	3.850300	-11.533000	21.887570	0.000922	20.887142
147.037021	-3.012900	3.850200	-11.599000	21.896395	0.000923	20.892182
148.037467	-2.988200	3.851300	-11.507000	21.887617	0.000922	20.875811
149.036363	-2.998900	3.849900	-11.545000	21.908535	0.000924	20.884894
150.037055	-3.001700	3.849800	-11.555000	21.930898	0.000923	20.893528
151.037150	-3.024600	3.847300	-11.635000	21.928804	0.000924	20.875786
152.038207	-3.007500	3.850200	-11.577000	21.923268	0.000924	20.880202
153.036718	-2.999900	3.849400	-11.546000	21.939224	0.000924	20.892854
154.040534	-2.981300	3.849100	-11.472000	21.951938	0.000925	20.888985
155.037422	-3.004600	3.849500	-11.564000	21.957422	0.000927	20.862234
156.036719	-3.036900	3.846900	-11.682000	21.952959	0.000926	20.860611
157.038152	-2.996100	3.849600	-11.534000	21.957471	0.000926	20.884566
158.036075	-2.977100	3.848300	-11.455000	21.975220	0.000927	20.879101
159.038846	-3.025600	3.847500	-11.639000	22.000698	0.000927	20.890853
160.039945	-2.987400	3.847900	-11.494000	21.994515	0.000926	20.889406
161.037575	-2.999100	3.846100	-11.533000	21.975318	0.000926	20.883465
162.037933	-3.002800	3.846900	-11.550000	22.004859	0.000927	20.879847
163.039169	-3.008600	3.847300	-11.573000	22.000346	0.000928	20.877700
164.038786	-2.986400	3.846900	-11.486000	21.998077	0.000927	20.857887
165.039874	-2.983200	3.846700	-11.474000	22.000246	0.000926	20.861479
166.043354	-2.996200	3.846300	-11.524000	22.006703	0.000928	20.876951
167.038728	-3.006500	3.846200	-11.563000	22.041502	0.000929	20.879071
168.039233	-3.005500	3.844400	-11.553000	22.050377	0.000930	20.887954
169.045576	-2.998900	3.845200	-11.530000	22.066954	0.000926	20.865197
170.045329	-2.987900	3.846600	-11.492000	22.049229	0.000927	20.882065
171.042940	-2.996400	3.845500	-11.520000	22.029162	0.000931	20.874779
172.045641	-2.977900	3.844800	-11.448000	22.076351	0.000930	20.864173
173.047395	-2.977200	3.846000	-11.450000	22.061493	0.000931	20.859256
174.042803	-2.993000	3.843800	-11.502000	22.072960	0.000931	20.854614
175.046970	-3.000200	3.845000	-11.535000	22.070418	0.000931	20.841165
176.048692	-3.010800	3.842000	-11.566000	22.081585	0.000929	20.860405
177.045817	-3.018800	3.845000	-11.606000	22.076400	0.000932	20.863274
178.050086	-2.998600	3.842700	-11.521000	22.103945	0.000932	20.863349
179.050222	-3.008700	3.844500	-11.566000	22.110825	0.000931	20.861228
180.047586	-2.979200	3.843100	-11.448000	22.104644	0.000931	20.855040
181.051532	-2.991500	3.843500	-11.496000	22.123490	0.000930	20.848778
182.050510	-2.994800	3.844000	-11.512000	22.118678	0.000932	20.857710
183.048539	-2.983000	3.843100	-11.463000	22.110204	0.000930	20.875778
184.053729	-2.997500	3.842200	-11.515000	22.120972	0.000930	20.875653
185.051183	-3.021900	3.841700	-11.608000	22.118978	0.000933	20.886458
186.049065	-3.023400	3.842800	-11.617000	22.129673	0.000933	20.858761
187.051399	-2.996200	3.843200	-11.515000	22.119403	0.000934	20.863178
188.051876	-2.998800	3.841600	-11.519000	22.148568	0.000932	20.849703
189.049375	-2.986200	3.842300	-11.471000	22.167536	0.000932	20.858736
190.052011	-2.990300	3.841100	-11.485000	22.137850	0.000935	20.849404
191.052011	-2.987100	3.841200	-11.473000	22.154727	0.000935	20.850179
192.049706	-2.988600	3.841000	-11.478000	22.147424	0.000933	20.839075
193.051936	-2.982600	3.841600	-11.457000	22.124841	0.000936	20.862458
194.054102	-2.980500	3.839900	-11.443000	22.150143	0.000935	20.853651
195.048826	-2.981500	3.841100	-11.452000	22.149595	0.000934	20.854050
196.057627	-3.016400	3.839100	-11.579000	22.165621	0.000935	20.847811
197.050832	-3.002600	3.839700	-11.528000	22.171058	0.000935	20.855624
198.049841	-2.981900	3.840800	-11.452000	22.176541	0.000936	20.846415
199.053393	-2.992600	3.840400	-11.492000	22.172304	0.000937	20.831269
200.056532	-2.997500	3.839200	-11.506000	22.169539	0.000936	20.857422
201.049308	-3.010200	3.838400	-11.553000	22.188135	0.000938	20.831471
202.053460	-3.008500	3.838800	-11.548000	22.186242	0.000937	20.834317
203.052517	-3.021500	3.838000	-11.595000	22.213634	0.000938	20.832346
204.049923	-2.981800	3.839300	-11.447000	22.235494	0.000942	20.866559
205.052081	-3.001600	3.837900	-11.519000	22.242973	0.000940	20.834220
206.055004	-3.014900	3.836200	-11.564000	22.246736	0.000942	20.831350
207.052666	-2.993900	3.837700	-11.489000	22.276945	0.000940	20.848321
208.057261	-3.012500	3.837000	-11.558000	22.266653	0.000943	20.826162
209.055531	-2.991100	3.836800	-11.475000	22.274529	0.000943	20.833574
210.052695	-2.997200	3.836000	-11.496000	22.276174	0.000942	20.830954
211.056000	-3.008300	3.835300	-11.536000	22.291652	0.000942	20.829382
212.054662	-2.995700	3.836400	-11.491000	22.319416	0.000943	20.837743
213.051940	-3.001400	3.835400	-11.511000	22.300900	0.000946	20.830582
214.058144	-3.043000	3.833800	-11.665000	22.309673	0.000946	20.829884
215.055155	-3.017600	3.835600	-11.574000	22.335194	0.000945	20.821774
216.053884	-2.987200	3.837300	-11.462000	22.344939	0.000946	20.820152
217.056334	-3.017000	3.835800	-11.572000	22.341026	0.000948	20.806277
218.058096	-3.028600	3.834900	-11.614000	22.344690	0.000948	20.828438
219.054520	-2.998900	3.835200	-11.501000	22.358995	0.000947	20.808149
220.058494	-3.014400	3.834000	-11.554000	22.358223	0.000950	20.813540
221.056634	-3.005300	3.834700	-11.524000	22.350946	0.000949	20.834702
222.053524	-2.996000	3.834400	-11.486000	22.349752	0.000950	20.809799
223.059740	-3.002100	3.835000	-11.513000	22.346037	0.000951	20.833105
224.058793	-2.988100	3.833700	-11.455000	22.329689	0.000949	20.806779
225.056127	-3.019100	3.833100	-11.572000	22.323533	0.000951	20.811046
226.059873	-2.997200	3.833300	-11.489000	22.310500	0.000950	20.807478
227.060198	-2.994200	3.833000	-11.476000	22.334398	0.000952	20.811020
228.059041	-2.972300	3.835300	-11.398000	22.320569	0.000949	20.795750
229.060575	-2.981800	3.832800	-11.428000	22.343447	0.000949	20.827193
230.060918	-3.004100	3.834400	-11.517000	22.355286	0.000950	20.797797
231.058208	-2.981600	3.834000	-11.431000	22.363061	0.000952	20.805108
232.060848	-2.996500	3.831500	-11.480000	22.363086	0.000952	20.798969
233.061329	-3.001100	3.831700	-11.498000	22.369691	0.000952	20.825024
234.060186	-2.987600	3.832700	-11.450000	22.365180	0.000952	20.788738
235.063467	-2.985900	3.832100	-11.440000	22.373330	0.000953	20.803538
236.059725	-2.998600	3.832400	-11.490000	22.384272	0.000954	20.814020
237.058701	-2.985100	3.831700	-11.437000	22.401393	0.000954	20.802716
238.063420	-2.963500	3.832100	-11.355000	22.417442	0.000955	20.813572
239.061175	-2.969800	3.832100	-11.379000	22.397184	0.000954	20.809881
240.059966	-2.994200	3.831400	-11.470000	22.393196	0.000956	20.785024
241.062561	-3.006200	3.830600	-11.514000	22.399403	0.000955	20.782231
242.060747	-3.001400	3.829900	-11.493000	22.422131	0.000958	20.790766
243.060449	-3.014700	3.829900	-11.545000	22.396812	0.000957	20.785327
244.062994	-3.021100	3.829900	-11.569000	22.421410	0.000957	20.788148
245.061415	-2.983100	3.829500	-11.422000	22.424302	0.000956	20.786302
246.059621	-2.978500	3.829600	-11.406000	22.427567	0.000958	20.798582
247.061198	-3.004700	3.829800	-11.507000	22.452587	0.000959	20.771006
248.061086	-2.993500	3.829100	-11.461000	22.478454	0.000958	20.783634
249.060635	-2.992100	3.830600	-11.460000	22.467964	0.000958	20.799682
250.061834	-3.014300	3.828000	-11.537000	22.449550	0.000958	20.801629
251.061684	-3.008400	3.827900	-11.515000	22.433178	0.000959	20.794717
252.060396	-3.004500	3.830100	-11.507000	22.443720	0.000959	20.764023
253.062315	-3.027600	3.826600	-11.585000	22.462835	0.000960	20.780321
254.063564	-3.015000	3.826300	-11.536000	22.469315	0.000961	20.783965
255.063352	-2.982100	3.828500	-11.416000	22.459248	0.000961	20.790479
256.064820	-2.991000	3.828900	-11.451000	22.473554	0.000961	20.785839
257.065035	-2.997100	3.827700	-11.471000	22.492840	0.000963	20.771014
258.066206	-2.981500	3.826900	-11.409000	22.517584	0.000962	20.763079
259.067626	-2.999100	3.826100	-11.474000	22.500318	0.000963	20.764279
260.067226	-3.014300	3.827100	-11.535000	22.497404	0.000964	20.772741
261.066423	-2.999800	3.825300	-11.474000	22.510862	0.000965	20.753975
262.067579	-3.002900	3.826500	-11.489000	22.540963	0.000965	20.774640
263.067410	-3.020900	3.824400	-11.552000	22.535333	0.000965	20.763311
264.066086	-2.993800	3.825800	-11.453000	22.540716	0.000964	20.763486
265.070494	-2.990800	3.826300	-11.443000	22.529503	0.000966	20.758420
266.066964	-2.993500	3.826500	-11.454000	22.533965	0.000966	20.781856
267.066944	-2.999000	3.825400	-11.471000	22.529406	0.000966	20.766384
268.067583	-2.994600	3.825100	-11.454000	22.524648	0.000967	20.767783
269.068880	-3.018000	3.823800	-11.538000	22.537930	0.000967	20.752161
270.067307	-3.010200	3.824200	-11.509000	22.540947	0.000968	20.765141
271.070854	-2.997600	3.824800	-11.464000	22.507035	0.000969	20.758204
272.068599	-3.001200	3.824800	-11.477000	22.536613	0.000968	20.747523
273.069841	-3.004000	3.823900	-11.485000	22.532802	0.000970	20.779269
274.073578	-2.996400	3.823300	-11.455000	22.534399	0.000971	20.760479
275.071911	-3.002900	3.823400	-11.481000	22.550298	0.000971	20.736572
276.070432	-3.008700	3.821300	-11.494000	22.569685	0.000973	20.759309
277.072135	-2.997100	3.822300	-11.454000	22.569710	0.000972	20.751273
278.073751	-3.003700	3.821800	-11.479000	22.592261	0.000973	20.742565
279.071588	-2.993100	3.821900	-11.439000	22.607188	0.000973	20.751826
280.076478	-3.018400	3.819500	-11.528000	22.602729	0.000974	20.759688
281.074214	-3.009800	3.820600	-11.498000	22.611400	0.000974	20.739449
282.070908	-3.020000	3.820700	-11.537000	22.591345	0.000975	20.743544
283.078507	-3.003600	3.821700	-11.478000	22.608637	0.000977	20.744742
284.075497	-2.998800	3.820900	-11.457000	22.605897	0.000977	20.749111
285.072968	-2.995300	3.821400	-11.445000	22.622168	0.000977	20.755451
286.075070	-3.017900	3.822300	-11.533000	22.620101	0.000977	20.733939
287.078920	-3.036200	3.818300	-11.591000	22.614346	0.000977	20.747615
288.073176	-2.984100	3.820300	-11.397000	22.606175	0.000979	20.746069
289.074977	-2.996700	3.818800	-11.442000	22.627327	0.000979	20.751609
290.075535	-3.012000	3.818200	-11.498000	22.640559	0.000980	20.724557
291.073593	-3.011900	3.817700	-11.498000	22.653267	0.000979	20.752935
292.079685	-3.000700	3.818900	-11.458000	22.660044	0.000982	20.751661
293.079174	-2.996300	3.819200	-11.442000	22.653067	0.000981	20.748467
294.075681	-2.994700	3.818900	-11.435000	22.652468	0.000982	20.720364
295.079528	-3.007900	3.817700	-11.481000	22.668915	0.000982	20.736365
296.077755	-3.028000	3.817100	-11.558000	22.656157	0.000983	20.747294
297.076095	-2.997400	3.817800	-11.441000	22.691760	0.000984	20.729375
298.078415	-3.014200	3.816300	-11.501000	22.705015	0.000984	20.747395
299.079747	-2.991100	3.819000	-11.422000	22.671830	0.000982	20.742604
300.078001	-2.991300	3.816800	-11.416000	22.699782	0.000986	20.745946
301.079704	-3.004200	3.817000	-11.466000	22.702996	0.000985	20.736363
302.077990	-2.989700	3.816200	-11.408000	22.708503	0.000986	20.719593
303.085458	-2.987100	3.816800	-11.401000	22.721234	0.000986	20.743252
304.082415	-2.985800	3.816700	-11.395000	22.710097	0.000985	20.738260
305.080449	-3.014700	3.814400	-11.498000	22.697116	0.000987	20.744224
306.080340	-3.008000	3.814000	-11.471000	22.737601	0.000987	20.737361
307.083303	-2.981200	3.814900	-11.372000	22.728806	0.000987	20.747044
308.080716	-2.999100	3.814100	-11.438000	22.739046	0.000987	20.731222
309.080225	-2.981300	3.816500	-11.377000	22.727485	0.000987	20.745721
310.083149	-3.001800	3.813300	-11.445000	22.741711	0.000987	20.727253
311.079374	-2.997500	3.815400	-11.435000	22.745423	0.000986	20.739981
312.078669	-3.021700	3.813400	-11.522000	22.779131	0.000988	20.752411
313.079700	-3.003200	3.814300	-11.453000	22.770136	0.000988	20.745297
314.083670	-3.007200	3.814600	-11.470000	22.804639	0.000990	20.737186
315.082411	-3.029200	3.812000	-11.546000	22.803270	0.000990	20.724434
316.082994	-3.005300	3.811900	-11.454000	22.829726	0.000990	20.758525
317.082509	-3.011900	3.812900	-11.482000	22.827310	0.000990	20.751837
318.080417	-3.015100	3.811900	-11.492000	22.824844	0.000989	20.732770
319.081109	-3.002900	3.811800	-11.445000	22.864676	0.000991	20.738535
320.083462	-2.992900	3.813100	-11.411000	22.843804	0.000991	20.737540
321.082386	-2.990200	3.812200	-11.398000	22.859397	0.000992	20.742255
322.082538	-2.988200	3.811900	-11.390000	22.844402	0.000992	20.747148
323.088464	-2.997100	3.811700	-11.423000	22.843681	0.000994	20.750694
324.082043	-3.006700	3.811700	-11.460000	22.822159	0.000994	20.744780
325.088953	-3.031900	3.810400	-11.550000	22.822857	0.000993	20.749747
326.085688	-3.014500	3.810600	-11.485000	22.811398	0.000993	20.757708
327.082843	-2.999800	3.810400	-11.429000	22.824653	0.000994	20.737794
328.084620	-3.011100	3.811300	-11.475000	22.815186	0.000997	20.735898
329.085338	-3.010600	3.810100	-11.470000	22.846825	0.000994	20.747205
330.083918	-2.992200	3.810600	-11.400000	22.835891	0.000995	20.745259
331.087127	-2.984000	3.808800	-11.364000	22.849765	0.000995	20.734029
332.086497	-3.015300	3.809800	-11.486000	22.852334	0.000996	20.744188
333.086229	-2.994000	3.808500	-11.402000	22.856595	0.000998	20.740870
334.090995	-2.985600	3.808900	-11.371000	22.873087	0.000998	20.728943
335.089447	-2.995700	3.807800	-11.406000	22.877919	0.000999	20.726197
336.088391	-3.004600	3.807400	-11.439000	22.887362	0.000999	20.743718
337.092124	-3.013100	3.807700	-11.472000	22.872690	0.001002	20.754624
338.089490	-3.011800	3.807600	-11.467000	22.871994	0.001000	20.758669
339.087460	-2.975900	3.807700	-11.331000	22.870051	0.001000	20.737282
340.090355	-3.003400	3.808800	-11.438000	22.868734	0.001001	20.749239
341.090241	-3.000900	3.807800	-11.425000	22.864449	0.001003	20.736411
342.090076	-2.994000	3.806900	-11.396000	22.893720	0.001005	20.722112
343.092701	-3.008300	3.807700	-11.454000	22.903757	0.001004	20.753980
344.090184	-2.990100	3.806100	-11.380000	22.902363	0.001003	20.744523
345.090147	-2.976400	3.807900	-11.333000	22.918580	0.001005	20.741804
346.093663	-2.994000	3.805900	-11.394000	22.903287	0.001007	20.755880
347.092587	-3.003700	3.805200	-11.429000	22.915069	0.001007	20.743502
348.090651	-2.991800	3.804800	-11.382000	22.883185	0.001007	20.769881
349.093350	-2.993500	3.806600	-11.393000	22.896312	0.001008	20.749840
350.094899	-3.007000	3.805300	-11.442000	22.879424	0.001006	20.744301
351.090822	-3.014200	3.804700	-11.466000	22.929118	0.001008	20.745723
352.096375	-3.007600	3.804300	-11.441000	22.931734	0.001008	20.758776
353.096139	-3.006500	3.804600	-11.438000	22.934572	0.001007	20.751188
354.092051	-3.010500	3.803700	-11.450000	22.940675	0.001008	20.759199
355.096150	-3.010000	3.803700	-11.448000	22.941797	0.001008	20.752736
356.102452	-3.002300	3.802900	-11.415000	22.966406	0.001009	20.749891
357.092790	-2.996000	3.804700	-11.396000	22.963118	0.001008	20.748494
358.094387	-2.977600	3.804200	-11.327000	22.988027	0.001010	20.748794
359.093221	-2.984200	3.804600	-11.352000	22.980453	0.001008	20.757801
360.092762	-2.995000	3.802700	-11.389000	23.001673	0.001010	20.750139
361.092980	-3.029700	3.801500	-11.515000	23.005534	0.001009	20.772499
362.093556	-2.999600	3.802900	-11.406000	23.020477	0.001008	20.768980
363.097919	-2.996800	3.800500	-11.388000	23.028672	0.001009	20.773872
364.095719	-2.985100	3.802400	-11.351000	23.056766	0.001010	20.762666
365.096298	-2.997500	3.802000	-11.395000	23.068547	0.001010	20.760720
366.096404	-3.012200	3.798800	-11.441000	23.092083	0.001010	20.766759
367.097327	-3.007700	3.800500	-11.430000	23.110612	0.001010	20.768257
368.096503	-2.999300	3.801800	-11.402000	23.116341	0.001011	20.775894
369.098019	-3.009000	3.798900	-11.429000	23.126002	0.001012	20.786998
370.098435	-2.995000	3.799800	-11.379000	23.126277	0.001012	20.764039
371.099303	-3.018400	3.799100	-11.467000	23.129116	0.001012	20.787747
372.102958	-3.002900	3.798600	-11.407000	23.141544	0.001012	20.777441
373.106142	-2.995400	3.798600	-11.377000	23.150236	0.001015	20.752960
374.098218	-3.023500	3.798500	-11.484000	23.148842	0.001014	20.782383
375.098263	-2.993500	3.798700	-11.370000	23.110764	0.001015	20.765090
376.099342	-3.024000	3.797900	-11.484000	23.109668	0.001013	20.759725
377.098743	-3.009300	3.797600	-11.426000	23.158383	0.001016	20.774874
378.101059	-2.992800	3.798100	-11.366000	23.145630	0.001015	20.779639
379.103256	-3.021300	3.796700	-11.469000	23.152953	0.001018	20.764692
380.102031	-2.998400	3.796500	-11.382000	23.155120	0.001015	20.783459
381.102909	-3.005500	3.796600	-11.409000	23.133453	0.001018	20.777394
382.106105	-3.002700	3.797100	-11.400000	23.126556	0.001018	20.758154
383.104284	-3.008700	3.794900	-11.416000	23.126109	0.001018	20.781889
384.102141	-3.022800	3.793800	-11.467000	23.100156	0.001019	20.786229
385.104471	-3.003000	3.796100	-11.399000	23.111365	0.001022	20.771857
386.104436	-2.999800	3.795800	-11.385000	23.097143	0.001019	20.764718
387.106416	-2.998400	3.794500	-11.376000	23.096647	0.001019	20.778919
388.108326	-3.012000	3.794900	-11.429000	23.120904	0.001023	20.789001
389.105214	-3.004800	3.794800	-11.402000	23.135049	0.001021	20.787055
390.105620	-2.999000	3.795000	-11.380000	23.150214	0.001022	20.788975
391.110010	-3.000400	3.794800	-11.384000	23.141699	0.001023	20.768113
392.107140	-3.003600	3.793600	-11.392000	23.143094	0.001023	20.773304
393.105154	-3.004700	3.793800	-11.398000	23.155644	0.001022	20.772605
394.106503	-3.029000	3.792800	-11.487000	23.130465	0.001024	20.778194
395.105983	-2.995400	3.792900	-11.361000	23.148097	0.001024	20.759825
396.105184	-2.987200	3.794300	-11.332000	23.149865	0.001024	20.788625
397.108167	-2.994900	3.791900	-11.355000	23.158682	0.001024	20.772329
398.105583	-2.969100	3.793300	-11.262000	23.186721	0.001026	20.784781
399.106188	-3.003400	3.791500	-11.387000	23.188341	0.001026	20.773127
400.108446	-2.996900	3.791700	-11.362000	23.192298	0.001025	20.790844
401.108686	-2.984400	3.793000	-11.318000	23.220114	0.001025	20.788846
402.111270	-3.001400	3.791200	-11.378000	23.240683	0.001026	20.782433
403.107375	-3.005500	3.790700	-11.392000	23.250022	0.001028	20.796059
404.111441	-3.023100	3.790900	-11.459000	23.252858	0.001029	20.785625
405.107547	-3.021400	3.789500	-11.448000	23.258112	0.001029	20.784726
406.107716	-2.986900	3.790700	-11.321000	23.232263	0.001029	20.800548
407.110415	-2.998100	3.790100	-11.361000	23.249545	0.001029	20.791788
408.108882	-3.002900	3.789900	-11.380000	23.265407	0.001027	20.790141
409.109881	-2.991500	3.790200	-11.338000	23.245260	0.001030	20.785597
410.110662	-2.993200	3.788300	-11.338000	23.266227	0.001030	20.788117
411.108216	-2.996500	3.788600	-11.351000	23.283756	0.001031	20.799520
412.111605	-3.009700	3.787900	-11.399000	23.294935	0.001031	20.803138
413.111567	-3.003400	3.787600	-11.375000	23.313036	0.001030	20.815589
414.108993	-3.015400	3.787200	-11.419000	23.292866	0.001031	20.778779
415.111544	-3.014300	3.787600	-11.417000	23.286764	0.001034	20.810121
416.113012	-2.980100	3.787000	-11.285000	23.273665	0.001033	20.795572
417.113561	-3.010700	3.785900	-11.398000	23.278968	0.001032	20.818429
418.112665	-3.003300	3.785400	-11.368000	23.281308	0.001033	20.792326
419.115475	-3.029500	3.785400	-11.467000	23.283472	0.001034	20.800185
420.111998	-2.998200	3.787100	-11.354000	23.267585	0.001033	20.816505
421.113259	-3.014500	3.784900	-11.408000	23.296967	0.001034	20.816079
422.115942	-3.027800	3.784300	-11.457000	23.252417	0.001032	20.798460
423.116186	-2.990200	3.785800	-11.320000	23.299205	0.001033	20.819271
424.114197	-2.990900	3.786600	-11.324000	23.307546	0.001035	20.803449
425.117953	-2.999400	3.785600	-11.354000	23.272958	0.001034	20.786328
426.117675	-2.996900	3.784500	-11.340000	23.314540	0.001034	20.814726
427.115861	-2.994000	3.783200	-11.325000	23.282194	0.001033	20.822137
428.119546	-2.997100	3.784200	-11.341000	23.278956	0.001035	20.798978
429.119851	-2.999200	3.783300	-11.345000	23.289313	0.001035	20.813150
430.116647	-3.014600	3.784400	-11.407000	23.316677	0.001037	20.836307
431.120461	-3.017000	3.783300	-11.413000	23.309281	0.001035	20.834110
432.117797	-3.011900	3.782000	-11.389000	23.318194	0.001035	20.817914
433.117090	-3.012300	3.782600	-11.393000	23.329026	0.001034	20.827347
434.119118	-2.999900	3.781400	-11.343000	23.337962	0.001033	20.835829
435.119569	-2.996700	3.783000	-11.336000	23.335398	0.001038	20.817612
436.120946	-2.998300	3.782900	-11.341000	23.334699	0.001034	20.827343
437.123005	-2.992500	3.782800	-11.320000	23.379144	0.001035	20.810723
438.122564	-2.993200	3.781700	-11.318000	23.391095	0.001035	20.840244
439.120639	-3.005800	3.780000	-11.360000	23.390197	0.001038	20.819430
440.122464	-3.001000	3.780600	-11.345000	23.412430	0.001036	20.837446
441.121422	-2.986200	3.781200	-11.290000	23.418084	0.001036	20.820828
442.119566	-2.986300	3.780600	-11.289000	23.428514	0.001037	20.838394
443.123302	-2.979200	3.779400	-11.259000	23.442681	0.001038	20.816559
444.120683	-2.974900	3.779900	-11.244000	23.434565	0.001037	20.838769
445.118948	-3.003700	3.778700	-11.349000	23.449800	0.001037	20.832703
446.123603	-2.982400	3.779000	-11.270000	23.446588	0.001039	20.823320
447.121890	-2.988400	3.779400	-11.292000	23.469121	0.001039	20.835474
448.119318	-2.990200	3.778400	-11.296000	23.472928	0.001042	20.834075
449.125107	-2.973300	3.777500	-11.230000	23.450744	0.001039	20.832701
450.120800	-2.988300	3.777600	-11.288000	23.467674	0.001040	20.822644
451.121130	-3.010300	3.776700	-11.366000	23.472054	0.001041	20.811388
452.120901	-2.970800	3.779200	-11.226000	23.495755	0.001040	20.827084
453.123011	-2.994400	3.775600	-11.305000	23.498169	0.001041	20.836616
454.119540	-2.995900	3.776600	-11.313000	23.477778	0.001041	20.831823
455.121762	-3.011400	3.775900	-11.369000	23.469610	0.001041	20.837387
456.121683	-3.024800	3.775800	-11.420000	23.486863	0.001043	20.839982
457.121476	-3.034800	3.776200	-11.458000	23.494381	0.001041	20.836138
458.122449	-2.997300	3.776300	-11.318000	23.475385	0.001043	20.847916
459.124936	-3.037100	3.773400	-11.459000	23.456512	0.001042	20.850810
460.123443	-3.021000	3.773400	-11.398000	23.449988	0.001042	20.848064
461.123579	-3.002400	3.773000	-11.327000	23.461289	0.001042	20.829995
462.123581	-2.992500	3.774200	-11.293000	23.478942	0.001041	20.838206
463.122651	-2.996200	3.772700	-11.303000	23.494824	0.001042	20.836108
464.122632	-3.013600	3.773000	-11.369000	23.511752	0.001042	20.839800
465.123547	-3.013000	3.773100	-11.367000	23.549840	0.001040	20.864228
466.123578	-3.006600	3.771400	-11.339000	23.570080	0.001043	20.858439
467.126425	-2.964600	3.774200	-11.188000	23.583695	0.001045	20.846958
468.126343	-2.995500	3.771800	-11.297000	23.593329	0.001043	20.832909
469.125485	-2.979300	3.773200	-11.241000	23.600049	0.001042	20.834904
470.126905	-2.984500	3.773800	-11.261000	23.599425	0.001045	20.844235
471.125150	-2.982700	3.771200	-11.248000	23.615257	0.001044	20.858683
472.127100	-2.998100	3.772000	-11.307000	23.617198	0.001042	20.848776
473.125171	-2.978100	3.771200	-11.229000	23.603156	0.001046	20.860303
474.126259	-3.006100	3.771000	-11.334000	23.592801	0.001045	20.865568
475.126541	-2.980200	3.770500	-11.234000	23.596385	0.001046	20.866790
476.126953	-3.002300	3.771100	-11.320000	23.624587	0.001046	20.859028
477.127981	-2.991700	3.768300	-11.273000	23.615377	0.001048	20.855485
478.128420	-2.988600	3.769700	-11.264000	23.634692	0.001046	20.859201
479.129022	-3.013000	3.769000	-11.355000	23.626352	0.001046	20.863168
480.129083	-3.008300	3.768800	-11.335000	23.616493	0.001046	20.873198
481.129763	-2.997200	3.767400	-11.289000	23.602104	0.001048	20.859722
482.128711	-2.989700	3.768400	-11.265000	23.605638	0.001048	20.857101
483.127878	-3.008800	3.768700	-11.338000	23.628962	0.001049	20.865310
484.129916	-3.010600	3.767300	-11.341000	23.614797	0.001045	20.857274
485.130514	-3.003700	3.768200	-11.318000	23.604713	0.001049	20.859019
486.133572	-2.979800	3.768500	-11.228000	23.613773	0.001047	20.855774
487.132060	-3.005600	3.766000	-11.318000	23.617010	0.001048	20.882250
488.131218	-3.015100	3.765700	-11.353000	23.637968	0.001048	20.863433
489.136367	-3.003400	3.766100	-11.310000	23.655890	0.001048	20.874761
490.133877	-3.004200	3.765900	-11.311000	23.661814	0.001051	20.873588
491.132363	-2.981800	3.767200	-11.232000	23.638315	0.001051	20.877056
492.135312	-2.992500	3.766800	-11.271000	23.633036	0.001049	20.867024
493.137074	-2.982800	3.766000	-11.233000	23.670399	0.001049	20.863229
494.146819	-2.996600	3.765000	-11.282000	23.650634	0.001046	20.861432
495.134455	-3.003900	3.763800	-11.306000	23.615160	0.001049	20.867595
496.134051	-2.981900	3.764100	-11.222000	23.636692	0.001049	20.883016
497.134928	-3.002300	3.765000	-11.302000	23.673482	0.001047	20.879121
498.135981	-3.002000	3.764000	-11.299000	23.656927	0.001049	20.876749
499.134049	-2.984100	3.763400	-11.228000	23.684732	0.001048	20.893244
500.135992	-3.004500	3.764400	-11.309000	23.665813	0.001047	20.875226
501.135598	-3.017500	3.762500	-11.352000	23.663099	0.001048	20.863497
502.133459	-2.991200	3.763800	-11.257000	23.662250	0.001050	20.872129
503.133297	-3.003100	3.762500	-11.299000	23.653712	0.001048	20.900077
504.139127	-2.989100	3.763800	-11.250000	23.675067	0.001048	20.889245
505.133315	-2.994700	3.762400	-11.266000	23.664340	0.001049	20.893188
506.132564	-3.000400	3.761300	-11.284000	23.690001	0.001049	20.899000
507.137338	-2.989300	3.760300	-11.240000	23.695901	0.001049	20.912974
508.134708	-3.001700	3.760500	-11.287000	23.717630	0.001049	20.883553
509.136505	-3.012900	3.760100	-11.327000	23.685444	0.001048	20.896328
510.135947	-3.003800	3.760400	-11.295000	23.738712	0.001049	20.904214
511.133911	-3.013600	3.759000	-11.327000	23.759867	0.001049	20.896027
512.135084	-2.991100	3.760800	-11.248000	23.739282	0.001049	20.876338
513.135110	-2.999900	3.758400	-11.274000	23.733058	0.001048	20.887642
514.137414	-3.007700	3.759500	-11.307000	23.742491	0.001048	20.903735
515.133668	-2.995200	3.759300	-11.258000	23.758047	0.001046	20.925019
516.135050	-3.010100	3.759200	-11.314000	23.757549	0.001047	20.898918
517.135446	-3.003400	3.758400	-11.285000	23.748264	0.001048	20.893403
518.136825	-3.004500	3.757100	-11.288000	23.757347	0.001047	20.895397
519.138886	-3.015700	3.757100	-11.327000	23.734822	0.001048	20.909796
520.137665	-3.038000	3.756200	-11.410000	23.729817	0.001049	20.903357
521.136438	-2.995100	3.756300	-11.249000	23.725412	0.001048	20.919801
522.138533	-2.999400	3.758300	-11.272000	23.752491	0.001049	20.911390
523.139387	-2.979900	3.757000	-11.194000	23.788483	0.001049	20.917605
524.138806	-3.002500	3.755800	-11.276000	23.790647	0.001049	20.907447
525.139100	-3.003700	3.755200	-11.278000	23.750724	0.001050	20.905826
526.138105	-3.016000	3.754100	-11.321000	23.761451	0.001049	20.919898
527.138052	-3.005000	3.754200	-11.280000	23.764836	0.001051	20.907646
528.139960	-2.989400	3.755500	-11.226000	23.742086	0.001050	20.911863
529.138472	-3.005600	3.754500	-11.284000	23.776358	0.001049	20.922991
530.140428	-2.987200	3.753600	-11.212000	23.772775	0.001048	20.918924
531.140577	-3.010300	3.754000	-11.300000	23.826859	0.001050	20.911039
532.139087	-3.000300	3.753400	-11.260000	23.814091	0.001048	20.918624
533.140475	-2.977800	3.754500	-11.179000	23.837262	0.001048	20.903927
534.143096	-3.006100	3.753100	-11.282000	23.859810	0.001050	20.932697
535.141795	-3.011900	3.751300	-11.298000	23.869965	0.001050	20.908743
536.140459	-2.999100	3.753700	-11.255000	23.889526	0.001048	20.915555
537.145233	-2.991300	3.753300	-11.225000	23.853888	0.001049	20.927707
538.141940	-2.997600	3.751000	-11.244000	23.861179	0.001049	20.915580
539.142934	-2.988100	3.750900	-11.207000	23.847939	0.001049	20.901830
540.146507	-3.003900	3.750400	-11.265000	23.817550	0.001048	20.920196
541.141881	-3.008400	3.751600	-11.283000	23.771480	0.001051	20.908618
542.142388	-3.011300	3.751200	-11.294000	23.782431	0.001051	20.907744
543.146172	-2.999500	3.749600	-11.246000	23.790147	0.001050	20.912635
544.142530	-3.017100	3.750300	-11.313000	23.819865	0.001051	20.922991
545.143193	-2.987100	3.750800	-11.203000	23.856152	0.001052	20.909116
546.145611	-2.999500	3.749700	-11.247000	23.851623	0.001051	20.917376
547.144267	-2.983700	3.749200	-11.185000	23.858491	0.001052	20.922840
548.144238	-2.985700	3.748000	-11.189000	23.887460	0.001054	20.940507
549.149620	-2.998700	3.749200	-11.241000	23.873124	0.001051	20.926607
550.144423	-2.997300	3.746900	-11.229000	23.897688	0.001052	20.938435
551.144558	-3.030700	3.745500	-11.351000	23.886166	0.001054	20.925460
552.149159	-2.996100	3.747600	-11.227000	23.886289	0.001054	20.915627
553.146576	-3.010800	3.747400	-11.281000	23.885543	0.001052	20.940955
554.145639	-3.008400	3.746200	-11.269000	23.902141	0.001053	20.911609
555.148213	-3.011000	3.747100	-11.281000	23.871231	0.001052	20.924709
556.144971	-3.004200	3.745900	-11.252000	23.855925	0.001053	20.921216
557.148562	-2.994700	3.745400	-11.215000	23.880688	0.001052	20.921390
558.148702	-2.985400	3.745000	-11.179000	23.933123	0.001053	20.927976
559.148828	-2.983500	3.746300	-11.176000	23.911297	0.001053	20.953976
560.149488	-3.006000	3.744200	-11.253000	23.891387	0.001052	20.937332
561.150000	-3.000700	3.744000	-11.233000	23.888898	0.001051	20.925829
562.150849	-2.989200	3.742900	-11.188000	23.912366	0.001053	20.949833
563.146426	-2.992000	3.745700	-11.206000	23.892979	0.001052	20.922335
564.152799	-2.985600	3.744300	-11.178000	23.926003	0.001051	20.925104
565.151623	-2.993400	3.743900	-11.206000	23.929411	0.001052	20.934685
566.145804	-3.022000	3.741600	-11.305000	23.956860	0.001052	20.934234
567.149365	-3.011800	3.742700	-11.272000	23.919157	0.001052	20.945737
568.148809	-3.015900	3.741400	-11.283000	23.947601	0.001051	20.917365
569.147785	-3.010500	3.743000	-11.266000	23.942325	0.001052	20.933884
570.150355	-2.992200	3.741500	-11.195000	23.921545	0.001055	20.929168
571.151636	-2.990400	3.741500	-11.187000	23.933290	0.001052	20.921506
572.149201	-2.997300	3.740700	-11.211000	23.945783	0.001052	20.920757
573.152333	-2.994500	3.740300	-11.199000	23.953124	0.001052	20.909154
574.151727	-2.987800	3.740900	-11.175000	23.958823	0.001052	20.920083
575.150276	-2.985000	3.740700	-11.163000	23.991672	0.001052	20.899448
576.152152	-3.003100	3.740700	-11.232000	23.989580	0.001051	20.920107
577.148180	-2.976200	3.742400	-11.137000	23.971139	0.001052	20.902564
578.149150	-2.975600	3.741000	-11.131000	23.963673	0.001052	20.911198
579.154500	-2.997500	3.739400	-11.208000	23.946899	0.001052	20.908128
580.150000	-3.021300	3.738400	-11.293000	23.950135	0.001051	20.916113
581.150675	-2.997900	3.739500	-11.210000	23.948143	0.001053	20.880454
582.151074	-3.014100	3.737800	-11.264000	23.961780	0.001053	20.874215
583.149966	-3.011900	3.737300	-11.255000	24.002965	0.001051	20.897496
584.151083	-2.989000	3.738300	-11.172000	23.995971	0.001052	20.899491
585.152486	-2.998200	3.738000	-11.205000	23.974694	0.001051	20.902336
586.150105	-3.010300	3.736300	-11.246000	23.972579	0.001051	20.895949
587.150149	-3.013700	3.735600	-11.257000	23.986514	0.001054	20.895698
588.150239	-2.999700	3.736600	-11.206000	23.943785	0.001051	20.901687
589.150023	-3.009800	3.736200	-11.245000	23.948662	0.001050	20.879552
590.151345	-3.006300	3.735500	-11.228000	23.935745	0.001053	20.894099
591.150155	-2.990200	3.735800	-11.170000	23.930171	0.001051	20.872863
592.152428	-2.985800	3.736400	-11.155000	23.929199	0.001053	20.901285
593.151867	-2.983700	3.734200	-11.141000	23.941543	0.001052	20.899912
594.151859	-2.964100	3.734900	-11.069000	23.924346	0.001051	20.888359
595.152039	-3.004300	3.734300	-11.218000	23.903018	0.001053	20.900161
596.155404	-2.973800	3.734600	-11.105000	23.897392	0.001052	20.875556
597.150523	-2.991900	3.733900	-11.170000	23.888930	0.001052	20.877028
598.151814	-2.998300	3.732400	-11.189000	23.912597	0.001053	20.903602
599.150772	-2.999700	3.732600	-11.196000	23.912398	0.001051	20.864051
600.151832	-2.983600	3.732200	-11.134000	23.881040	0.001052	20.887133
601.153839	-2.994900	3.731300	-11.174000	23.887361	0.001052	20.902953
602.155876	-3.012300	3.732800	-11.243000	23.904781	0.001050	20.887706
603.152915	-2.993700	3.731400	-11.170000	23.897763	0.001052	20.890625
604.153131	-3.001800	3.732000	-11.202000	23.900424	0.001052	20.872433
605.153547	-3.021100	3.731200	-11.271000	23.924939	0.001051	20.890849
606.154967	-2.997300	3.730800	-11.182000	23.945021	0.001051	20.873530
607.155017	-3.029300	3.730200	-11.299000	23.949973	0.001051	20.870910
608.152300	-3.024200	3.729500	-11.277000	23.965775	0.001051	20.873005
609.154897	-2.993800	3.729700	-11.166000	24.000090	0.001050	20.873278
610.155705	-2.981900	3.730800	-11.124000	24.010989	0.001052	20.882312
611.154646	-3.015300	3.729700	-11.245000	24.042716	0.001051	20.868137
612.155267	-2.978200	3.728900	-11.105000	24.022659	0.001050	20.891169
613.156560	-2.997800	3.728700	-11.177000	24.035350	0.001048	20.853638
614.156999	-2.991600	3.729200	-11.155000	24.084692	0.001050	20.873251
615.157784	-3.023800	3.728000	-11.272000	24.057171	0.001049	20.861771
616.158904	-3.005900	3.727600	-11.203000	24.086930	0.001050	20.860797
617.159285	-2.982600	3.729600	-11.123000	24.050376	0.001050	20.869181
618.160927	-2.987500	3.727600	-11.135000	24.033902	0.001050	20.865936
619.162399	-2.988300	3.728400	-11.141000	23.986770	0.001051	20.866086
620.160642	-3.016500	3.725900	-11.237000	23.966190	0.001050	20.851138
621.161207	-3.010900	3.725700	-11.216000	23.996126	0.001051	20.875467
622.162190	-2.984000	3.728300	-11.125000	23.990900	0.001051	20.837512
623.160787	-3.011100	3.726400	-11.220000	24.000579	0.001051	20.856700
624.164020	-3.004900	3.725300	-11.193000	24.034968	0.001052	20.863213
625.161008	-2.997900	3.725400	-11.168000	24.080704	0.001048	20.856449
626.162328	-3.011000	3.725600	-11.217000	24.077618	0.001049	20.866630
627.161367	-3.000600	3.724700	-11.175000	24.066743	0.001049	20.870422
628.161580	-3.028000	3.723600	-11.274000	24.077044	0.001047	20.855624
629.164839	-2.998500	3.723200	-11.162000	24.080975	0.001047	20.877583
630.163148	-2.988600	3.723500	-11.127000	24.092669	0.001047	20.846165
631.166442	-2.993400	3.722300	-11.141000	24.078162	0.001048	20.851056
632.168231	-3.000800	3.723300	-11.171000	24.085850	0.001048	20.866352
633.163487	-3.017800	3.721600	-11.229000	24.106154	0.001049	20.852577
634.170104	-3.007000	3.722800	-11.194000	24.121008	0.001048	20.857043
635.170463	-3.016000	3.721500	-11.223000	24.123595	0.001047	20.850155
636.163588	-3.010200	3.721900	-11.202000	24.084804	0.001048	20.843493
637.167161	-3.005000	3.722400	-11.185000	24.033394	0.001046	20.855944
638.169705	-3.018300	3.720900	-11.230000	24.053498	0.001047	20.857140
639.163587	-2.968700	3.723900	-11.055000	24.083955	0.001046	20.858762
640.168207	-3.016100	3.719800	-11.217000	24.093186	0.001046	20.853322
641.168853	-3.011700	3.719300	-11.200000	24.114784	0.001047	20.865974
642.163966	-3.003300	3.719300	-11.169000	24.136655	0.001046	20.838598
643.169005	-2.987400	3.720400	-11.114000	24.153324	0.001045	20.837299
644.170854	-2.994200	3.720800	-11.140000	24.147079	0.001046	20.840993
645.166129	-2.979400	3.720500	-11.083000	24.132200	0.001045	20.852147
646.168776	-2.999500	3.718900	-11.152000	24.129837	0.001044	20.858785
647.170886	-3.012600	3.717700	-11.198000	24.162829	0.001045	20.844935
648.166194	-3.003800	3.717600	-11.165000	24.183330	0.001044	20.860756
649.171214	-2.997200	3.719400	-11.147000	24.172557	0.001045	20.858959
650.168330	-3.006600	3.718200	-11.178000	24.147004	0.001043	20.844236
651.166715	-2.986800	3.718500	-11.105000	24.127620	0.001043	20.850399
652.168535	-3.001800	3.717100	-11.157000	24.121027	0.001044	20.846157
653.168925	-3.010600	3.716200	-11.187000	24.117095	0.001043	20.854067
654.167600	-3.011100	3.716900	-11.192000	24.140882	0.001044	20.832881
655.171009	-3.012700	3.717200	-11.197000	24.140385	0.001043	20.848976
656.170052	-3.004300	3.716100	-11.163000	24.144764	0.001042	20.829188
657.174187	-2.985800	3.716200	-11.095000	24.162678	0.001039	20.847155
658.170592	-3.008500	3.715100	-11.176000	24.148721	0.001042	20.828889
659.173577	-3.005700	3.714100	-11.162000	24.162679	0.001041	20.856638
660.170815	-3.004300	3.715700	-11.161000	24.165540	0.001042	20.834853
661.175239	-2.989900	3.714800	-11.105000	24.178353	0.001041	20.845807
662.172507	-3.009300	3.714100	-11.175000	24.177657	0.001039	20.830410
663.169473	-2.999900	3.716000	-11.147000	24.176736	0.001040	20.838496
664.171819	-3.006300	3.713100	-11.161000	24.158722	0.001041	20.832282
665.172236	-3.003700	3.714100	-11.154000	24.166087	0.001041	20.843461
666.168596	-2.995200	3.712500	-11.119000	24.196492	0.001041	20.834129
667.172415	-3.006700	3.712800	-11.163000	24.212116	0.001041	20.820878
668.170918	-2.998000	3.712700	-11.129000	24.220724	0.001042	20.822874
669.168796	-2.986300	3.713000	-11.087000	24.225351	0.001040	20.816609
670.170809	-2.993000	3.712100	-11.109000	24.220127	0.001041	20.828438
671.171702	-2.982200	3.713200	-11.072000	24.225974	0.001040	20.808225
672.170326	-2.999600	3.713100	-11.138000	24.216171	0.001040	20.822100
673.174907	-3.002600	3.711800	-11.144000	24.231224	0.001042	20.834353
674.171710	-2.975900	3.712100	-11.045000	24.256003	0.001042	20.831708
675.170953	-3.009100	3.711200	-11.166000	24.205100	0.001042	20.823797
676.173455	-2.999400	3.711100	-11.130000	24.241473	0.001040	20.825668
677.171621	-2.992900	3.711300	-11.106000	24.258143	0.001041	20.828638
678.172579	-2.992000	3.711500	-11.104000	24.250380	0.001040	20.814214
679.172914	-2.983500	3.710600	-11.069000	24.284712	0.001041	20.818780
680.171503	-2.968100	3.711300	-11.015000	24.314865	0.001042	20.812043
681.178181	-2.974200	3.711100	-11.036000	24.310835	0.001039	20.841190
682.177695	-3.009700	3.708300	-11.160000	24.319691	0.001040	20.810246
683.174660	-3.004700	3.707300	-11.139000	24.306107	0.001044	20.824595
684.173578	-3.013400	3.707000	-11.170000	24.292374	0.001041	20.832629
685.175687	-3.002600	3.708300	-11.134000	24.281552	0.001040	20.814662
686.172299	-2.989700	3.707900	-11.084000	24.273416	0.001039	20.804604
687.173367	-2.998700	3.707000	-11.116000	24.287995	0.001040	20.832030
688.175849	-3.020600	3.706700	-11.196000	24.292896	0.001040	20.828411
689.172781	-3.021400	3.706600	-11.199000	24.284262	0.001039	20.824967
690.173756	-2.998500	3.706100	-11.112000	24.274236	0.001041	20.809695
691.177518	-2.990300	3.708000	-11.086000	24.271598	0.001041	20.823169
692.179273	-2.968600	3.707200	-11.004000	24.225695	0.001038	20.816481
693.177330	-2.993800	3.705500	-11.092000	24.213404	0.001037	20.824066
694.177743	-2.999000	3.704800	-11.109000	24.214972	0.001038	20.824216
695.176641	-3.002500	3.704200	-11.121000	24.191459	0.001037	20.805849
696.174246	-3.015600	3.703900	-11.169000	24.195937	0.001037	20.821245
697.180436	-2.976500	3.706300	-11.031000	24.213427	0.001036	20.812710
698.176987	-3.000400	3.703900	-11.112000	24.245546	0.001036	20.817900
699.176163	-2.996200	3.704200	-11.097000	24.270126	0.001035	20.799408
700.179341	-3.007400	3.701800	-11.131000	24.317145	0.001035	20.830451
701.175987	-2.993900	3.702900	-11.085000	24.301323	0.001037	20.823589
702.177676	-3.001600	3.703200	-11.114000	24.320603	0.001037	20.812109
703.178418	-3.008200	3.703400	-11.140000	24.317692	0.001036	20.793542
704.175929	-3.025900	3.701900	-11.200000	24.324184	0.001034	20.810486
705.176900	-2.998600	3.702900	-11.102000	24.302192	0.001035	20.828728
706.179361	-3.022400	3.701300	-11.186000	24.283135	0.001035	20.818146
707.176617	-3.010300	3.700600	-11.138000	24.241263	0.001036	20.824983
708.175912	-3.013500	3.701600	-11.154000	24.245443	0.001034	20.802623
709.176157	-3.012200	3.699500	-11.142000	24.230615	0.001034	20.813354
710.177591	-3.007900	3.699700	-11.126000	24.192673	0.001033	20.814652
711.176379	-3.003800	3.698900	-11.109000	24.209591	0.001033	20.822138
712.175825	-3.008100	3.698500	-11.125000	24.233649	0.001032	20.812131
713.176669	-2.994800	3.700200	-11.080000	24.266939	0.001032	20.808064
714.176281	-2.995500	3.700100	-11.082000	24.251264	0.001031	20.813204
715.178540	-2.992400	3.700600	-11.072000	24.256265	0.001034	20.797831
716.179622	-3.003400	3.699000	-11.109000	24.269475	0.001033	20.796858
717.177963	-3.005600	3.698200	-11.114000	24.290796	0.001031	20.802598
718.181984	-3.009900	3.697800	-11.128000	24.276989	0.001031	20.783058
719.180067	-3.007600	3.697400	-11.119000	24.267784	0.001033	20.809386
720.179415	-3.010500	3.697000	-11.129000	24.252408	0.001030	20.800601
721.179151	-2.985100	3.698600	-11.040000	24.273455	0.001030	20.803696
722.180012	-3.009200	3.697800	-11.126000	24.285273	0.001030	20.807015
723.180515	-3.007000	3.697500	-11.118000	24.288209	0.001031	20.806641
724.180927	-2.997600	3.696500	-11.079000	24.263603	0.001030	20.786701
725.181022	-2.998400	3.697100	-11.084000	24.243104	0.001030	20.799329
726.184322	-2.996900	3.697100	-11.079000	24.202326	0.001030	20.797307
727.178724	-3.000500	3.695300	-11.086000	24.187174	0.001029	20.787325
728.179475	-3.018000	3.695300	-11.151000	24.201878	0.001032	20.779314
729.183580	-2.990300	3.695300	-11.049000	24.236510	0.001030	20.795560
730.180565	-2.993900	3.694500	-11.060000	24.204216	0.001030	20.787824
731.181152	-3.006800	3.696100	-11.113000	24.211182	0.001028	20.797182
732.182455	-3.003300	3.694900	-11.095000	24.203346	0.001027	20.804494
733.182672	-2.983800	3.695000	-11.024000	24.201578	0.001032	20.787549
734.186018	-2.999000	3.695000	-11.080000	24.221333	0.001028	20.781759
735.185616	-2.979700	3.693800	-11.005000	24.221930	0.001028	20.794686
736.182674	-3.003700	3.692700	-11.090000	24.219566	0.001028	20.777142
737.185827	-2.990700	3.693900	-11.046000	24.219168	0.001026	20.774845
738.188613	-3.010000	3.691700	-11.111000	24.229343	0.001026	20.786474
739.184911	-2.991900	3.693100	-11.048000	24.230339	0.001027	20.781783
740.188129	-2.980800	3.692800	-11.006000	24.276663	0.001027	20.775619
741.186396	-3.002900	3.691800	-11.085000	24.277833	0.001026	20.794336
742.184748	-3.009700	3.691200	-11.107000	24.282982	0.001027	20.787648
743.189835	-3.010900	3.691600	-11.113000	24.313010	0.001025	20.757550
744.186720	-2.997900	3.691500	-11.066000	24.319255	0.001026	20.766661
745.185276	-2.999600	3.690200	-11.068000	24.321493	0.001025	20.774121
746.189156	-3.009100	3.690400	-11.103000	24.293282	0.001025	20.767158
747.194890	-3.010300	3.690500	-11.107000	24.310323	0.001026	20.779986
748.187769	-3.004300	3.690100	-11.085000	24.306517	0.001026	20.767158
749.190818	-3.004100	3.689900	-11.083000	24.320672	0.001024	20.780884
750.189012	-3.011700	3.689200	-11.110000	24.366222	0.001024	20.775843
751.188196	-3.011500	3.688800	-11.108000	24.362391	0.001026	20.781009
752.195073	-2.997500	3.689400	-11.058000	24.350251	0.001026	20.772623
753.193515	-3.016700	3.688100	-11.125000	24.359230	0.001026	20.747492
754.188150	-2.984100	3.689200	-11.007000	24.347265	0.001026	20.769154
755.196959	-3.007200	3.687400	-11.088000	24.314103	0.001023	20.791364
756.193381	-2.988700	3.688200	-11.022000	24.294100	0.001023	20.795955
757.188852	-2.993600	3.688500	-11.041000	24.322909	0.001025	20.768903
758.192159	-2.988900	3.687700	-11.021000	24.314723	0.001026	20.759269
759.192889	-2.997800	3.687800	-11.054000	24.342586	0.001025	20.772995
760.189631	-2.974100	3.687600	-10.966000	24.349552	0.001022	20.781406
761.194234	-2.993900	3.687800	-11.040000	24.367985	0.001024	20.778086
762.191442	-3.002900	3.687000	-11.070000	24.405945	0.001024	20.760217
763.190873	-2.992300	3.686200	-11.029000	24.442959	0.001024	20.772695
764.197093	-2.997600	3.686100	-11.048000	24.435048	0.001022	20.769026
765.190946	-3.010200	3.685200	-11.092000	24.459126	0.001023	20.777535
766.191038	-3.002900	3.685000	-11.065000	24.462709	0.001021	20.767852
767.194753	-3.004900	3.684100	-11.069000	24.464499	0.001021	20.796202
768.191191	-3.006000	3.685300	-11.077000	24.493925	0.001023	20.778782
769.197015	-3.017700	3.683900	-11.115000	24.500342	0.001022	20.752977
770.192847	-3.003400	3.684500	-11.065000	24.485591	0.001020	20.780379
771.190971	-2.999100	3.684600	-11.050000	24.476313	0.001022	20.779605
772.189804	-3.011500	3.682800	-11.090000	24.466786	0.001020	20.768624
773.195306	-3.002700	3.682900	-11.057000	24.472457	0.001023	20.786168
774.192242	-3.020600	3.682900	-11.122000	24.426662	0.001020	20.769147
775.193130	-2.972600	3.683200	-10.948000	24.366637	0.001021	20.790010
776.193586	-2.985600	3.681500	-10.991000	24.366512	0.001019	20.782772
777.199821	-3.010300	3.682000	-11.083000	24.412930	0.001020	20.782398
778.193190	-2.955800	3.683600	-10.887000	24.401039	0.001019	20.779004
779.197844	-3.038300	3.681400	-11.184000	24.411661	0.001019	20.791556
780.194407	-3.015900	3.680700	-11.100000	24.425491	0.001017	20.770343
781.196027	-3.007000	3.680000	-11.065000	24.453674	0.001021	20.774436
782.194221	-2.999600	3.681600	-11.042000	24.473200	0.001016	20.776008
783.195130	-2.989500	3.680000	-11.001000	24.468200	0.001014	20.796596
784.196064	-3.005900	3.680000	-11.060000	24.468499	0.001016	20.780774
785.202528	-3.027500	3.679000	-11.137000	24.491308	0.001017	20.778054
786.195268	-3.009000	3.678500	-11.067000	24.514888	0.001016	20.792229
787.197011	-2.997500	3.679000	-11.026000	24.521952	0.001015	20.778928
788.196878	-2.953600	3.681500	-10.872000	24.522375	0.001012	20.787887
789.202446	-2.992800	3.679000	-11.009000	24.523444	0.001014	20.782321
790.197416	-3.008700	3.679600	-11.070000	24.517326	0.001014	20.790881
791.197248	-3.008700	3.679200	-11.068000	24.498497	0.001014	20.774835
792.201519	-3.005400	3.677800	-11.052000	24.509938	0.001014	20.775883
793.199694	-2.993700	3.678000	-11.009000	24.507775	0.001012	20.794101
794.198872	-2.993100	3.676800	-11.004000	24.502203	0.001014	20.778079
795.203705	-2.992700	3.677400	-11.004000	24.504665	0.001012	20.794774
796.210663	-3.017600	3.676800	-11.093000	24.513819	0.001014	20.779776
797.200573	-2.988900	3.677400	-10.991000	24.528145	0.001013	20.784667
798.206869	-3.021100	3.675500	-11.103000	24.536478	0.001013	20.777380
799.203283	-3.018600	3.675000	-11.092000	24.534140	0.001011	20.800164
800.202554	-3.007900	3.674700	-11.052000	24.524464	0.001012	20.784766
801.205513	-3.003000	3.674600	-11.034000	24.498521	0.001012	20.763005
802.202059	-3.003000	3.675200	-11.035000	24.482229	0.001013	20.795498
803.202312	-3.001300	3.674000	-11.026000	24.446509	0.001012	20.778153
804.205173	-2.981600	3.674600	-10.955000	24.436012	0.001011	20.776157
805.205266	-3.016000	3.673400	-11.078000	24.413873	0.001011	20.773861
806.207762	-2.997000	3.675200	-11.014000	24.398400	0.001011	20.776830
807.205656	-3.009300	3.673700	-11.055000	24.418947	0.001012	20.778477
808.203665	-2.997200	3.673400	-11.009000	24.407678	0.001010	20.773336
809.207190	-2.995400	3.672500	-10.999000	24.428772	0.001010	20.764625
810.207778	-3.018500	3.672400	-11.083000	24.421807	0.001009	20.787510
811.205780	-2.985100	3.673300	-10.964000	24.420439	0.001009	20.805578
812.208560	-3.015000	3.671000	-11.067000	24.404170	0.001008	20.803007
813.208940	-3.032400	3.671000	-11.130000	24.418125	0.001008	20.797093
814.209677	-2.989200	3.671100	-10.973000	24.439865	0.001009	20.790454
815.208937	-3.021100	3.672000	-11.091000	24.478371	0.001006	20.792575
816.210945	-3.014100	3.671100	-11.063000	24.506080	0.001006	20.794771
817.209078	-2.998200	3.671000	-11.006000	24.504165	0.001007	20.772461
818.210687	-2.994500	3.671200	-10.992000	24.508767	0.001009	20.789880
819.210953	-2.989200	3.671400	-10.972000	24.491032	0.001007	20.787259
820.214493	-2.985900	3.670000	-10.957000	24.454814	0.001009	20.782692
821.209403	-2.981500	3.670600	-10.943000	24.496727	0.001006	20.792500
822.213566	-2.983500	3.670000	-10.948000	24.520929	0.001005	20.803979
823.216101	-2.990400	3.668300	-10.968000	24.526327	0.001006	20.803231
824.210405	-2.994100	3.669900	-10.987000	24.525903	0.001008	20.795220
825.215043	-2.994500	3.670000	-10.989000	24.515606	0.001004	20.783466
826.213073	-2.980300	3.669300	-10.935000	24.490335	0.001007	20.783241
827.211872	-2.974700	3.669300	-10.913000	24.479614	0.001006	20.796667
828.213272	-2.955600	3.669100	-10.843000	24.506851	0.001005	20.803131
829.213357	-2.999100	3.668300	-11.001000	24.512049	0.001006	20.795544
830.212827	-3.001400	3.668300	-11.008000	24.567863	0.001005	20.799387
831.215100	-3.015500	3.666100	-11.054000	24.565474	0.001006	20.792723
832.216510	-3.000400	3.667500	-11.002000	24.559953	0.001006	20.806623
833.213062	-3.004100	3.666400	-11.013000	24.542467	0.001006	20.780071
834.217793	-3.025500	3.665700	-11.089000	24.566022	0.001005	20.777626
835.216846	-3.019000	3.665400	-11.064000	24.585396	0.001005	20.816979
836.213099	-3.018600	3.664400	-11.060000	24.614694	0.001002	20.791375
837.216024	-2.979700	3.666600	-10.924000	24.589922	0.001001	20.794968
838.216407	-3.001600	3.665400	-11.000000	24.631059	0.001003	20.799735
839.212766	-3.019000	3.665200	-11.064000	24.605292	0.001001	20.811813
840.217340	-3.017000	3.663400	-11.051000	24.631978	0.001001	20.793545
841.216855	-3.023800	3.664300	-11.079000	24.631655	0.001001	20.791324
842.213841	-2.986400	3.664700	-10.943000	24.614196	0.000999	20.802729
843.217524	-2.996600	3.665100	-10.983000	24.646800	0.001002	20.809366
844.215362	-2.985800	3.664300	-10.940000	24.675202	0.001001	20.800881
845.219169	-2.994400	3.664100	-10.971000	24.657693	0.001000	20.807020
846.215298	-3.015800	3.663600	-11.047000	24.671744	0.001002	20.801205
847.217855	-2.994700	3.663800	-10.970000	24.682886	0.000999	20.803850
848.215950	-2.982200	3.664000	-10.926000	24.688605	0.001000	20.796314
849.216164	-3.007900	3.663400	-11.018000	24.667665	0.001000	20.799483
850.217675	-3.004400	3.661300	-10.999000	24.650480	0.000999	20.786980
851.219225	-3.014100	3.662300	-11.037000	24.638915	0.000997	20.808092
852.218643	-2.996200	3.662000	-10.971000	24.596561	0.001000	20.807319
853.219738	-3.007300	3.661500	-11.009000	24.616955	0.000995	20.822567
854.222766	-3.001600	3.660600	-10.987000	24.613398	0.000999	20.817575
855.222511	-3.015100	3.658800	-11.031000	24.633394	0.000998	20.793069
856.222550	-3.017100	3.659700	-11.040000	24.662891	0.000997	20.816503
857.222281	-2.995000	3.660400	-10.961000	24.714543	0.000996	20.807643
858.221607	-2.985800	3.660000	-10.927000	24.702085	0.000998	20.813633
859.221647	-2.994300	3.658600	-10.952000	24.732747	0.000996	20.803151
860.224368	-3.011400	3.658100	-11.014000	24.735159	0.000996	20.830228
861.223204	-3.013200	3.658300	-11.021000	24.747096	0.000996	20.796214
862.224348	-3.009600	3.657800	-11.007000	24.732076	0.000998	20.797736
863.223818	-3.001700	3.658200	-10.980000	24.716185	0.000994	20.816877
864.224966	-2.989700	3.657900	-10.936000	24.745604	0.000994	20.817476
865.225211	-3.024300	3.657400	-11.060000	24.764131	0.000994	20.806197
866.226076	-3.023300	3.657400	-11.055000	24.734712	0.000995	20.816029
867.225276	-3.008800	3.657000	-11.002000	24.728221	0.000995	20.802403
868.226196	-3.012000	3.658500	-11.018000	24.678882	0.000993	20.814532
869.225520	-3.017300	3.656100	-11.030000	24.645955	0.000992	20.792871
870.226294	-3.001200	3.656500	-10.972000	24.621408	0.000993	20.807121
871.227556	-2.988100	3.657600	-10.927000	24.642274	0.000993	20.816204
872.225159	-2.995900	3.655400	-10.949000	24.646427	0.000994	20.811837
873.226746	-2.992200	3.655900	-10.939000	24.670004	0.000991	20.808468
874.233457	-2.995400	3.655500	-10.949000	24.668164	0.000995	20.823691
875.231398	-3.004400	3.653900	-10.976000	24.711934	0.000991	20.829206
876.226977	-2.998000	3.655000	-10.956000	24.717405	0.000993	20.829955
877.229076	-3.012100	3.653700	-11.003000	24.731630	0.000991	20.820996
878.231400	-2.999100	3.654800	-10.960000	24.735459	0.000990	20.811563
879.227490	-3.020000	3.652500	-11.030000	24.749635	0.000991	20.817253
880.231193	-3.020700	3.653600	-11.035000	24.761098	0.000990	20.801731
881.231154	-2.999800	3.653100	-10.958000	24.718549	0.000991	20.823043
882.228926	-3.014800	3.653600	-11.014000	24.691019	0.000990	20.821495
883.231990	-3.012800	3.653300	-11.006000	24.630760	0.000991	20.825039
884.230949	-3.007400	3.653600	-10.987000	24.603875	0.000988	20.809442
885.228309	-3.006500	3.654600	-10.987000	24.608451	0.000990	20.838215
886.232560	-3.009300	3.652400	-10.990000	24.604149	0.000991	20.831527
887.230268	-3.009900	3.651800	-10.991000	24.621433	0.000989	20.831328
888.228962	-2.997700	3.652500	-10.947000	24.625264	0.000989	20.833748
889.230971	-3.012400	3.651500	-10.999000	24.592433	0.000989	20.828307
890.230464	-3.005200	3.650700	-10.970000	24.590369	0.000988	20.824340
891.228210	-3.020800	3.651300	-11.028000	24.588678	0.000989	20.822643
892.231914	-3.006000	3.650400	-10.972000	24.572685	0.000988	20.813234
893.233160	-2.987800	3.652500	-10.912000	24.554404	0.000988	20.840410
894.230531	-3.007200	3.649300	-10.973000	24.531744	0.000989	20.820046
895.234627	-2.987000	3.650600	-10.903000	24.564352	0.000988	20.831426
896.233593	-2.991200	3.651600	-10.920000	24.605564	0.000987	20.826784
897.231584	-2.980100	3.650800	-10.879000	24.645009	0.000989	20.821793
898.231575	-3.001600	3.649700	-10.954000	24.630708	0.000988	20.844900
899.231487	-2.971300	3.649300	-10.842000	24.654359	0.000987	20.819796
900.236340	-3.006200	3.649600	-10.970000	24.638964	0.000987	20.836590
901.232810	-2.991000	3.648800	-10.913000	24.640605	0.000988	20.825909
902.232956	-3.006500	3.649400	-10.970000	24.693553	0.000984	20.827831
903.232704	-3.005300	3.647200	-10.959000	24.701336	0.000984	20.821417
904.233377	-2.985800	3.648600	-10.893000	24.712378	0.000985	20.837238
905.233841	-3.000800	3.647200	-10.943000	24.709493	0.000984	20.849041
906.235007	-2.981200	3.646700	-10.870000	24.698152	0.000987	20.835765
907.235215	-2.991800	3.647600	-10.913000	24.734783	0.000986	20.843126
908.234817	-3.005400	3.644800	-10.952000	24.725955	0.000984	20.848491
909.233470	-2.989500	3.646700	-10.900000	24.739309	0.000983	20.836288
910.235320	-2.978100	3.646500	-10.859000	24.759799	0.000981	20.854005
911.235816	-2.989200	3.646100	-10.897000	24.782627	0.000983	20.847043
912.236184	-3.007400	3.646000	-10.964000	24.798492	0.000982	20.855851
913.236513	-3.005800	3.645900	-10.957000	24.769173	0.000981	20.832119
914.237790	-3.020300	3.644500	-11.006000	24.767035	0.000980	20.845620
915.238456	-3.014900	3.643700	-10.985000	24.814256	0.000981	20.842275
916.236787	-3.016900	3.643800	-10.993000	24.811694	0.000981	20.837334
917.240567	-3.004400	3.643700	-10.946000	24.859262	0.000981	20.841925
918.241399	-2.998500	3.643400	-10.923000	24.842752	0.000981	20.854751
919.239990	-2.988100	3.643900	-10.888000	24.851081	0.000979	20.843197
920.240147	-3.004600	3.643000	-10.945000	24.856103	0.000977	20.858668
921.238168	-3.007400	3.643100	-10.954000	24.852000	0.000979	20.850758
922.240150	-3.009500	3.642500	-10.961000	24.838747	0.000977	20.858319
923.239902	-3.011300	3.641600	-10.964000	24.842551	0.000977	20.835111
924.238420	-3.021600	3.642600	-11.005000	24.831560	0.000978	20.842098
925.239355	-3.000000	3.641500	-10.923000	24.856823	0.000978	20.846589
926.240411	-2.997600	3.640800	-10.912000	24.845783	0.000977	20.844518
927.241302	-3.018700	3.640000	-10.988000	24.820718	0.000979	20.853501
928.241548	-3.020600	3.641300	-10.996000	24.847473	0.000977	20.854749
929.244438	-3.012100	3.640700	-10.964000	24.859085	0.000978	20.848859
930.242897	-3.005900	3.640200	-10.942000	24.881339	0.000976	20.874512
931.239964	-3.017800	3.640000	-10.984000	24.932708	0.000975	20.868697
932.240431	-3.020400	3.639300	-10.989000	24.920823	0.000976	20.850605
933.240222	-2.994200	3.640600	-10.899000	24.932807	0.000976	20.870219
934.241312	-3.015200	3.639800	-10.974000	24.958516	0.000976	20.862832
935.241145	-3.010800	3.638700	-10.954000	24.961599	0.000975	20.889633
936.239799	-3.028100	3.639100	-11.018000	24.916620	0.000976	20.869145
937.242761	-3.012000	3.638600	-10.959000	24.923905	0.000975	20.864129
938.244068	-2.983400	3.639700	-10.857000	24.930419	0.000973	20.869718
939.242328	-2.998800	3.639300	-10.912000	24.922264	0.000973	20.874335
940.241624	-2.998700	3.638500	-10.910000	24.931711	0.000972	20.850628
941.240477	-2.987300	3.636700	-10.863000	24.924824	0.000973	20.885438
942.242767	-2.997300	3.637600	-10.902000	24.917563	0.000971	20.867721
943.240818	-2.978500	3.637500	-10.831000	24.923804	0.000972	20.861657
944.242187	-2.972300	3.637800	-10.811000	24.921889	0.000970	20.855943
945.241028	-3.006900	3.635400	-10.930000	24.931710	0.000970	20.888556
946.241828	-2.973300	3.638100	-10.816000	24.933823	0.000969	20.866497
947.241594	-2.985500	3.636800	-10.857000	24.888471	0.000969	20.861756
948.242125	-2.983000	3.636300	-10.846000	24.855475	0.000969	20.879373
949.242821	-2.990600	3.636300	-10.874000	24.809945	0.000967	20.891051
950.242610	-2.969000	3.636100	-10.795000	24.770953	0.000968	20.878000
951.243097	-2.984700	3.635800	-10.851000	24.767572	0.000969	20.890252
952.249821	-2.985500	3.634500	-10.850000	24.789106	0.000965	20.892422
953.243295	-2.977800	3.633600	-10.819000	24.825311	0.000964	20.867593
954.243576	-3.005300	3.632800	-10.916000	24.810665	0.000965	20.866170
955.244802	-2.998300	3.633300	-10.893000	24.886828	0.000964	20.894244
956.245467	-2.995900	3.633000	-10.883000	24.866265	0.000964	20.874081
957.244676	-2.986900	3.633700	-10.851000	24.903686	0.000961	20.883189
958.245315	-3.005900	3.634100	-10.923000	24.911493	0.000962	20.891972
959.246815	-3.008800	3.633900	-10.933000	24.948440	0.000964	20.903451
960.248862	-3.002900	3.631800	-10.905000	24.950180	0.000961	20.884810
961.247131	-3.000000	3.632700	-10.897000	24.973054	0.000963	20.874580
962.249060	-2.987800	3.631900	-10.850000	24.961642	0.000959	20.890624
963.254992	-2.991600	3.632100	-10.865000	24.973477	0.000960	20.886857
964.247506	-3.006500	3.630700	-10.915000	24.961592	0.000960	20.903849
965.248879	-2.966800	3.631300	-10.773000	24.936008	0.000957	20.915627
966.250169	-3.008600	3.629300	-10.917000	24.981308	0.000959	20.889027
967.251557	-2.995900	3.631100	-10.878000	24.995157	0.000958	20.893918
968.252135	-2.990700	3.630200	-10.856000	24.989066	0.000957	20.902976
969.251391	-2.991800	3.631200	-10.862000	25.006121	0.000961	20.894018
970.250060	-3.012900	3.628800	-10.932000	24.969623	0.000957	20.906220
971.253274	-2.984100	3.629300	-10.829000	25.001820	0.000958	20.903925
972.253528	-3.006200	3.628100	-10.905000	24.982453	0.000958	20.901554
973.252644	-3.017800	3.627600	-10.947000	25.002566	0.000958	20.902303
974.255190	-2.990900	3.628400	-10.851000	24.971289	0.000956	20.891299
975.253607	-2.977200	3.628400	-10.802000	24.933846	0.000957	20.890226
976.253505	-2.977800	3.627800	-10.802000	24.890931	0.000958	20.911162
977.254084	-3.000500	3.627500	-10.883000	24.858905	0.000957	20.917425
978.257833	-2.990400	3.625500	-10.839000	24.857612	0.000958	20.893845
979.252410	-3.010800	3.627300	-10.920000	24.872581	0.000955	20.894169
980.255226	-3.001300	3.626700	-10.884000	24.888320	0.000955	20.907120
981.253252	-2.979900	3.626900	-10.807000	24.944811	0.000954	20.886534
982.255871	-2.990900	3.624300	-10.839000	24.976214	0.000955	20.915680
983.261699	-2.988100	3.625900	-10.833000	24.962515	0.000954	20.917102
984.254316	-3.002000	3.624100	-10.878000	24.970197	0.000955	20.887832
985.254808	-3.002200	3.625900	-10.884000	24.943096	0.000954	20.912785
986.256063	-3.012900	3.623700	-10.916000	24.926886	0.000952	20.913584
987.257849	-2.994900	3.625800	-10.858000	24.932804	0.000953	20.912412
988.259336	-3.026700	3.624800	-10.970000	24.916145	0.000953	20.921295
989.258739	-2.994900	3.625900	-10.858000	24.965300	0.000954	20.893822
990.257676	-3.007600	3.624100	-10.899000	24.996826	0.000954	20.918825
991.258215	-3.013200	3.622800	-10.915000	25.017139	0.000951	20.914559
992.259257	-2.989600	3.625000	-10.836000	25.045953	0.000949	20.910292
993.260667	-3.001500	3.622600	-10.872000	25.073797	0.000952	20.896518
994.259580	-2.999400	3.621100	-10.859000	25.090156	0.000950	20.917679
995.259456	-3.019100	3.620800	-10.930000	25.092219	0.000952	20.905053
996.262621	-2.990100	3.622600	-10.831000	25.102312	0.000951	20.900960
997.260163	-2.995500	3.622500	-10.850000	25.080634	0.000949	20.901010
998.260199	-2.957200	3.622300	-10.710000	25.096346	0.000949	20.924366
999.259776	-2.997400	3.620300	-10.851000	25.114544	0.000949	20.897118
1000.261721	-2.979800	3.621600	-10.791000	25.085582	0.000950	20.913562
1001.261517	-2.997800	3.620600	-10.851000	25.063904	0.000949	20.914086
1002.260895	-2.990200	3.621100	-10.826000	25.072456	0.000945	20.896594
1003.261398	-2.995000	3.619200	-10.838000	25.053487	0.000948	20.917854
1004.262594	-2.995700	3.619700	-10.841000	25.029845	0.000946	20.918778
1005.263106	-2.985100	3.619800	-10.804000	25.051648	0.000947	20.919801
1006.264572	-2.984200	3.620100	-10.802000	25.059703	0.000946	20.917930
1007.263402	-2.989600	3.618600	-10.816000	25.033724	0.000943	20.904181
1008.263976	-2.982700	3.618900	-10.793000	25.039044	0.000944	20.923269
1009.263577	-2.991100	3.617500	-10.818000	25.011672	0.000942	20.910020
1010.266036	-3.012600	3.617400	-10.896000	25.014207	0.000944	20.910668
1011.265166	-2.994700	3.617800	-10.833000	25.029150	0.000942	20.923769
1012.264324	-2.993800	3.616900	-10.828000	25.009136	0.000942	20.931654
1013.265844	-2.993700	3.617400	-10.828000	25.034918	0.000941	20.922447
1014.267454	-3.001800	3.617400	-10.858000	25.017168	0.000941	20.941611
1015.266232	-3.009000	3.615800	-10.878000	25.010157	0.000940	20.908974
1016.266078	-3.006700	3.616500	-10.873000	24.988229	0.000940	20.924894
1017.266947	-2.997800	3.614700	-10.835000	25.010779	0.000940	20.930458
1018.270323	-2.996200	3.617800	-10.838000	25.028132	0.000939	20.918007
1019.267225	-3.007900	3.615800	-10.874000	25.076736	0.000939	20.897571
1020.269095	-2.978800	3.616900	-10.772000	25.093119	0.000938	20.921601
1021.267436	-3.002500	3.614700	-10.852000	25.100229	0.000939	20.933953
1022.269231	-2.999700	3.613500	-10.839000	25.080018	0.000940	20.925045
1023.266601	-2.998100	3.614700	-10.837000	25.119720	0.000937	20.941664
1024.268243	-2.990900	3.614300	-10.808000	25.104804	0.000938	20.909625
1025.267524	-3.015800	3.613400	-10.895000	25.144852	0.000938	20.920904
1026.268335	-3.020300	3.613000	-10.911000	25.145524	0.000938	20.918259
1027.269035	-3.015900	3.612900	-10.895000	25.186690	0.000933	20.916912
1028.268892	-2.995300	3.613600	-10.823000	25.146345	0.000936	20.913394
1029.268115	-3.013500	3.611200	-10.881000	25.133767	0.000935	20.914043
1030.269041	-2.999800	3.612700	-10.837000	25.109604	0.000936	20.904486
1031.269226	-3.015100	3.611200	-10.887000	25.086882	0.000936	20.912497
1032.269261	-2.995600	3.612500	-10.821000	25.086609	0.000934	20.909377
1033.268851	-2.999400	3.613500	-10.837000	25.109207	0.000932	20.892235
1034.268033	-3.001400	3.610600	-10.836000	25.070749	0.000934	20.910052
1035.271128	-3.010200	3.610100	-10.867000	25.051830	0.000934	20.901493
1036.270729	-3.005100	3.610500	-10.848000	25.091606	0.000934	20.897326
1037.271532	-3.004700	3.609700	-10.845000	25.105926	0.000932	20.912647
1038.269322	-2.998200	3.610100	-10.822000	25.124397	0.000933	20.891363
1039.272130	-3.010200	3.608800	-10.862000	25.137075	0.000930	20.914519
1040.273706	-2.985700	3.610000	-10.777000	25.147491	0.000931	20.892735
1041.272839	-3.004600	3.609800	-10.845000	25.158503	0.000932	20.896203
1042.275237	-3.014700	3.607800	-10.876000	25.160641	0.000929	20.897401
1043.276613	-3.013000	3.608100	-10.871000	25.202178	0.000929	20.894532
1044.274462	-3.009000	3.608000	-10.855000	25.211053	0.000927	20.906759
1045.272788	-2.989400	3.607400	-10.782000	25.240657	0.000926	20.898075
1046.277983	-2.998300	3.607500	-10.815000	25.190918	0.000928	20.904089
1047.272856	-3.007000	3.607900	-10.848000	25.195864	0.000927	20.897676
1048.273937	-2.997500	3.608200	-10.815000	25.168944	0.000925	20.910477
1049.276663	-2.999100	3.606200	-10.814000	25.166906	0.000925	20.875717
1050.275084	-3.009900	3.606000	-10.852000	25.135161	0.000924	20.901694
1051.275461	-3.033400	3.605500	-10.935000	25.132302	0.000927	20.886023
1052.276631	-2.986000	3.604700	-10.762000	25.114007	0.000925	20.881881
1053.274604	-2.998600	3.605300	-10.810000	25.132179	0.000925	20.893485
1054.275126	-2.995000	3.604600	-10.794000	25.136479	0.000924	20.885949
1055.276526	-2.998200	3.606000	-10.809000	25.147740	0.000925	20.898675
1056.273898	-2.999000	3.604000	-10.807000	25.168522	0.000923	20.873073
1057.273914	-2.984300	3.604600	-10.757000	25.207574	0.000923	20.878613
1058.276512	-2.993000	3.602700	-10.782000	25.206506	0.000922	20.879911
1059.274434	-2.991500	3.603500	-10.778000	25.196140	0.000924	20.897004
1060.274758	-2.981100	3.603600	-10.741000	25.172699	0.000923	20.881059
1061.278185	-3.002600	3.602000	-10.814000	25.174389	0.000923	20.880385
1062.275429	-3.006900	3.602200	-10.830000	25.158182	0.000922	20.875494
1063.273941	-2.984600	3.603300	-10.754000	25.173719	0.000920	20.877816
1064.278858	-3.001300	3.601600	-10.808000	25.186247	0.000920	20.899874
1065.275184	-2.999800	3.600900	-10.801000	25.198428	0.000922	20.885077
1066.274597	-3.005700	3.601400	-10.824000	25.185427	0.000923	20.878664
1067.277480	-3.025100	3.601000	-10.893000	25.158481	0.000922	20.877217
1068.274530	-3.022000	3.598700	-10.872000	25.179412	0.000923	20.882582
1069.275742	-3.028100	3.599700	-10.897000	25.205811	0.000918	20.883007
1070.279787	-3.001800	3.600700	-10.807000	25.233999	0.000918	20.863418
1071.276995	-3.017400	3.599700	-10.860000	25.251896	0.000919	20.864790
1072.277173	-2.997800	3.600200	-10.792000	25.250926	0.000919	20.878989
1073.281560	-3.002300	3.601400	-10.810000	25.255997	0.000915	20.881235
1074.279669	-3.006800	3.598400	-10.819000	25.252766	0.000919	20.859500
1075.278750	-3.028600	3.599100	-10.899000	25.262136	0.000916	20.877442
1076.282868	-2.981100	3.599500	-10.729000	25.230793	0.000916	20.877742
1077.279287	-2.992100	3.597700	-10.762000	25.244191	0.000917	20.893563
1078.280003	-2.971400	3.598900	-10.693000	25.219086	0.000916	20.880213
1079.281163	-2.993000	3.597700	-10.767000	25.239244	0.000916	20.866787
1080.278107	-3.010800	3.598300	-10.832000	25.234099	0.000916	20.842656
1081.283532	-3.003200	3.597000	-10.801000	25.226791	0.000913	20.878940
1082.283603	-2.982300	3.597500	-10.728000	25.218190	0.000914	20.878366
1083.281923	-3.005000	3.597000	-10.806000	25.237256	0.000913	20.870955
1084.281628	-2.981400	3.597500	-10.724000	25.286023	0.000913	20.872976
1085.285664	-2.993600	3.597100	-10.767000	25.295394	0.000911	20.878590
1086.282499	-3.011300	3.594100	-10.821000	25.309387	0.000912	20.870356
1087.281628	-2.986400	3.595500	-10.736000	25.328624	0.000912	20.853636
1088.287403	-2.993200	3.594300	-10.756000	25.317962	0.000911	20.879439
1089.283044	-3.028100	3.594500	-10.883000	25.303969	0.000910	20.851166
1090.283586	-2.994200	3.593500	-10.759000	25.320522	0.000909	20.872527
1091.286594	-2.990200	3.593800	-10.744000	25.316943	0.000910	20.858976
1092.288051	-3.010600	3.593700	-10.818000	25.288111	0.000908	20.870331
1093.287821	-3.003100	3.592700	-10.788000	25.258334	0.000906	20.855134
1094.288427	-2.999500	3.593900	-10.778000	25.265418	0.000906	20.862246
1095.288903	-2.983300	3.594400	-10.722000	25.207825	0.000907	20.868434
1096.286085	-2.984800	3.592800	-10.722000	25.199946	0.000903	20.872378
1097.289417	-2.998600	3.592500	-10.771000	25.183639	0.000907	20.844154
1098.289182	-3.009800	3.592100	-10.810000	25.167705	0.000908	20.871779
1099.287689	-3.014600	3.591400	-10.826000	25.178942	0.000907	20.872154
1100.290152	-2.998000	3.591200	-10.765000	25.180408	0.000906	20.868884
1101.290786	-3.017500	3.590400	-10.833000	25.153388	0.000906	20.864992
1102.287556	-2.997800	3.591300	-10.764000	25.134072	0.000905	20.859827
1103.291096	-3.030000	3.590000	-10.876000	25.103024	0.000907	20.867064
1104.290339	-3.030300	3.588600	-10.874000	25.078238	0.000903	20.851667
1105.292003	-2.974400	3.589500	-10.676000	25.050295	0.000907	20.862971
1106.295912	-3.004700	3.590000	-10.785000	25.061233	0.000904	20.848822
1107.291980	-2.984600	3.591100	-10.717000	25.086466	0.000902	20.861349
1108.292116	-2.983500	3.589900	-10.709000	25.094746	0.000904	20.856384
1109.295024	-2.974400	3.589700	-10.677000	25.130841	0.000902	20.839040
1110.295283	-2.987500	3.589100	-10.721000	25.178644	0.000902	20.867588
1111.292714	-3.012500	3.587400	-10.806000	25.185977	0.000904	20.853139
1112.294580	-2.994800	3.586900	-10.741000	25.212774	0.000901	20.858230
1113.293376	-2.974900	3.588600	-10.675000	25.231665	0.000899	20.848748
1114.294073	-3.005000	3.586300	-10.776000	25.218789	0.000899	20.853838
1115.295970	-3.011600	3.586300	-10.800000	25.245362	0.000899	20.844955
1116.296225	-2.973100	3.588800	-10.669000	25.267359	0.000899	20.858980
1117.292979	-3.010100	3.585700	-10.792000	25.261841	0.000896	20.857233
1118.297350	-3.010900	3.586300	-10.796000	25.249563	0.000898	20.867190
1119.297235	-3.001200	3.587000	-10.764000	25.269945	0.000899	20.859205
1120.295833	-2.991800	3.585900	-10.728000	25.286449	0.000894	20.861550
1121.295826	-3.006400	3.584700	-10.775000	25.306582	0.000895	20.833402
1122.300684	-3.028300	3.584500	-10.853000	25.319308	0.000896	20.866092
1123.296566	-3.027100	3.584800	-10.850000	25.329225	0.000894	20.859455
1124.300271	-3.013500	3.584000	-10.799000	25.301438	0.000895	20.847677
1125.299485	-3.008100	3.584300	-10.780000	25.323782	0.000894	20.842137
1126.298597	-3.000600	3.583800	-10.752000	25.350178	0.000891	20.847303
1127.301311	-2.979600	3.583700	-10.676000	25.361338	0.000892	20.840017
1128.297775	-3.001200	3.582800	-10.752000	25.339144	0.000892	20.855190
1129.303101	-2.976600	3.583900	-10.666000	25.340113	0.000890	20.829137
1130.303252	-3.008600	3.581900	-10.776000	25.320329	0.000889	20.845782
1131.303559	-3.021100	3.581500	-10.818000	25.316503	0.000891	20.836250
1132.301934	-3.010300	3.582000	-10.782000	25.296146	0.000893	20.838097
1133.305952	-3.014700	3.580900	-10.794000	25.281333	0.000891	20.851672
1134.304913	-3.006000	3.580400	-10.762000	25.261573	0.000889	20.821403
1135.302868	-3.030300	3.579900	-10.847000	25.254241	0.000888	20.833481
1136.305649	-2.995900	3.580400	-10.726000	25.247207	0.000891	20.825472
1137.305060	-3.012200	3.579400	-10.780000	25.277357	0.000890	20.834880
1138.302067	-3.008700	3.580100	-10.770000	25.315685	0.000889	20.850127
1139.306302	-3.013900	3.580100	-10.789000	25.333605	0.000888	20.825921
1140.303238	-3.020600	3.577300	-10.805000	25.356596	0.000885	20.851376
1141.303936	-3.003600	3.579000	-10.749000	25.375808	0.000886	20.842692
1142.305292	-2.990300	3.578400	-10.699000	25.389377	0.000885	20.846834
1143.305947	-2.986300	3.578400	-10.684000	25.379710	0.000884	20.848507
1144.302936	-2.985100	3.578900	-10.683000	25.348717	0.000884	20.858638
1145.307862	-2.991100	3.576600	-10.697000	25.356050	0.000881	20.825225
1146.309060	-2.986600	3.576900	-10.682000	25.382818	0.000882	20.826973
1147.305193	-2.995100	3.577300	-10.713000	25.391865	0.000883	20.842694
1148.308432	-3.026200	3.576000	-10.821000	25.394127	0.000882	20.832638
1149.305171	-3.022300	3.576800	-10.808000	25.420471	0.000882	20.823530
1150.303129	-2.987600	3.575700	-10.682000	25.432947	0.000881	20.807135
1151.305439	-2.988900	3.575400	-10.686000	25.421268	0.000877	20.846614
1152.305781	-2.986900	3.575500	-10.679000	25.427432	0.000879	20.830045
1153.304986	-3.011600	3.574000	-10.762000	25.360901	0.000878	20.801173
1154.306496	-3.017700	3.573600	-10.783000	25.319470	0.000879	20.808410
1155.306275	-2.999500	3.574200	-10.719000	25.264913	0.000878	20.837558
1156.304939	-3.007700	3.573800	-10.748000	25.256188	0.000877	20.810782
1157.307463	-2.987300	3.574700	-10.678000	25.240356	0.000880	20.832344
1158.305667	-3.003500	3.572500	-10.729000	25.271700	0.000878	20.817820
1159.306535	-2.988600	3.572900	-10.677000	25.292605	0.000876	20.826956
1160.306275	-2.990500	3.573800	-10.687000	25.325388	0.000876	20.817672
1161.306767	-3.023900	3.571700	-10.799000	25.367194	0.000875	20.825034
1162.305094	-3.024100	3.571600	-10.800000	25.374651	0.000876	20.823039
1163.306065	-3.018600	3.570500	-10.777000	25.425649	0.000875	20.805496
1164.306804	-3.005600	3.571500	-10.733000	25.422444	0.000874	20.813183
1165.305863	-3.020800	3.570700	-10.785000	25.411907	0.000873	20.817775
1166.313247	-2.990000	3.572000	-10.679000	25.421550	0.000874	20.802802
1167.307011	-3.002000	3.571100	-10.720000	25.428310	0.000874	20.823815
1168.307058	-2.992800	3.571000	-10.686000	25.438998	0.000876	20.826012
1169.311064	-3.008800	3.570500	-10.741000	25.434500	0.000872	20.797314
1170.310720	-2.985100	3.570700	-10.657000	25.426971	0.000872	20.821048
1171.304917	-3.009900	3.569000	-10.741000	25.419639	0.000873	20.800409
1172.308621	-2.982200	3.570800	-10.648000	25.433458	0.000871	20.797690
1173.307548	-2.994800	3.568200	-10.685000	25.413079	0.000870	20.791925
1174.306674	-2.978800	3.568700	-10.630000	25.390042	0.000868	20.814786
1175.308628	-2.982500	3.569300	-10.644000	25.357584	0.000867	20.795471
1176.307495	-3.022100	3.566400	-10.776000	25.321247	0.000869	20.808299
1177.308467	-2.988800	3.568500	-10.664000	25.332706	0.000867	20.813639
1178.310271	-2.993000	3.568600	-10.679000	25.344065	0.000868	20.799441
1179.309095	-3.028000	3.566700	-10.798000	25.328233	0.000866	20.793502
1180.308565	-2.999300	3.566400	-10.696000	25.340338	0.000865	20.793801
1181.308323	-2.984700	3.567200	-10.646000	25.332908	0.000865	20.804359
1182.308745	-3.001500	3.565900	-10.702000	25.356396	0.000867	20.798071
1183.309828	-2.996800	3.566000	-10.685000	25.372377	0.000865	20.806531
1184.309582	-2.984500	3.565200	-10.639000	25.393926	0.000866	20.824375
1185.311259	-3.024000	3.564700	-10.777000	25.365767	0.000864	20.812697
1186.310003	-2.997100	3.564900	-10.684000	25.352918	0.000868	20.819235
1187.309217	-3.017900	3.563200	-10.752000	25.364103	0.000864	20.803440
1188.311628	-3.015500	3.564200	-10.746000	25.373647	0.000866	20.778409
1189.311803	-3.011000	3.563300	-10.728000	25.391169	0.000863	20.803590
1190.312347	-2.992700	3.564400	-10.666000	25.386894	0.000864	20.804987
1191.310604	-2.993400	3.562200	-10.662000	25.371834	0.000860	20.786072
1192.313850	-2.984600	3.564300	-10.637000	25.381527	0.000862	20.792960
1193.312120	-3.005600	3.562000	-10.704000	25.388038	0.000863	20.795704
1194.312576	-2.990500	3.562500	-10.653000	25.395396	0.000862	20.793609
1195.313404	-2.968300	3.564000	-10.577000	25.393681	0.000860	20.795680
1196.313357	-2.995500	3.562200	-10.669000	25.421491	0.000861	20.783777
1197.317519	-3.000300	3.562300	-10.687000	25.395918	0.000860	20.787969
1198.314955	-3.006700	3.560400	-10.704000	25.348149	0.000861	20.793109
1199.318103	-2.987900	3.561700	-10.641000	25.341016	0.000860	20.809181
1200.315331	-2.994100	3.560300	-10.659000	25.345539	0.000859	20.794756
1201.315648	-3.003300	3.560000	-10.691000	25.347975	0.000857	20.787719
1202.314905	-2.982400	3.560100	-10.616000	25.363980	0.000859	20.801893
1203.316724	-2.988900	3.559600	-10.638000	25.385006	0.000857	20.784599
1204.314334	-3.033500	3.557400	-10.790000	25.327518	0.000856	20.765757
1205.315078	-2.997500	3.557800	-10.663000	25.287352	0.000855	20.782801
1206.315847	-2.981000	3.558700	-10.608000	25.285786	0.000855	20.786919
1207.315310	-2.991700	3.558600	-10.645000	25.297195	0.000856	20.789364
1208.314595	-2.980800	3.559300	-10.609000	25.300947	0.000852	20.793132
1209.316859	-3.000500	3.558500	-10.676000	25.333457	0.000854	20.787367
1210.315484	-2.995200	3.556800	-10.653000	25.360200	0.000856	20.782925
1211.315335	-2.984000	3.556300	-10.610000	25.356968	0.000856	20.797223
1212.320592	-2.996000	3.557900	-10.659000	25.356769	0.000853	20.799395
1213.315663	-2.990800	3.556600	-10.636000	25.371830	0.000851	20.770895
1214.316230	-3.017900	3.555400	-10.727000	25.389700	0.000850	20.789312
1215.319283	-3.000900	3.556400	-10.670000	25.406599	0.000852	20.798221
1216.317235	-2.987500	3.555900	-10.623000	25.419721	0.000852	20.779629
1217.317484	-2.991300	3.556300	-10.637000	25.444796	0.000851	20.789635
1218.322664	-2.978300	3.555100	-10.587000	25.465970	0.000850	20.771542
1219.316147	-3.011700	3.553200	-10.701000	25.484706	0.000852	20.788461
1220.319738	-3.007000	3.552800	-10.681000	25.483936	0.000850	20.773937
1221.322022	-2.986200	3.554100	-10.613000	25.490322	0.000848	20.769444
1222.320255	-2.956900	3.553700	-10.506000	25.540892	0.000849	20.778503
1223.318933	-2.989300	3.553600	-10.622000	25.502498	0.000847	20.778353
1224.321964	-2.981200	3.553300	-10.591000	25.474366	0.000846	20.794673
1225.319275	-2.988800	3.552300	-10.616000	25.432367	0.000845	20.775257
1226.319928	-2.986400	3.553100	-10.610000	25.414026	0.000846	20.780548
1227.324537	-3.014000	3.551200	-10.703000	25.428067	0.000844	20.773784
1228.324620	-3.013400	3.551600	-10.701000	25.430601	0.000845	20.778700
1229.322602	-3.024300	3.550500	-10.737000	25.416658	0.000845	20.790303
1230.330167	-2.997500	3.550900	-10.644000	25.403983	0.000842	20.771886
1231.324187	-2.984500	3.551100	-10.597000	25.386387	0.000841	20.774606
1232.324892	-2.964000	3.551700	-10.526000	25.398813	0.000842	20.767643
1233.333097	-3.009600	3.548300	-10.678000	25.418967	0.000840	20.787881
1234.324890	-2.989000	3.549200	-10.607000	25.422522	0.000841	20.785760
1235.326289	-2.989100	3.551000	-10.614000	25.448168	0.000841	20.764572
1236.327404	-2.996700	3.550100	-10.638000	25.459724	0.000841	20.767641
1237.324802	-2.998000	3.548200	-10.637000	25.424360	0.000840	20.783338
1238.324576	-2.988100	3.548100	-10.601000	25.405744	0.000838	20.781715
1239.330326	-2.999800	3.548200	-10.642000	25.408204	0.000839	20.772806
1240.325802	-3.011000	3.547600	-10.681000	25.448068	0.000837	20.784386
1241.326083	-3.012000	3.547700	-10.685000	25.435914	0.000838	20.788777
1242.328842	-3.025300	3.546000	-10.726000	25.452565	0.000837	20.773729
1243.326962	-3.023400	3.545400	-10.717000	25.463525	0.000835	20.799907
1244.325988	-3.023700	3.545300	-10.719000	25.476870	0.000832	20.770634
1245.326855	-2.999500	3.546900	-10.638000	25.490861	0.000834	20.762873
1246.325755	-3.007000	3.545600	-10.661000	25.513922	0.000834	20.763272
1247.325508	-2.997100	3.545200	-10.625000	25.515016	0.000832	20.758206
1248.327486	-3.014900	3.544200	-10.684000	25.508331	0.000832	20.791797
1249.325624	-2.985200	3.546000	-10.585000	25.525229	0.000831	20.771308
1250.328434	-3.016500	3.545200	-10.692000	25.510742	0.000832	20.786158
1251.330765	-3.015200	3.543700	-10.684000	25.513351	0.000830	20.789252
1252.325542	-3.004800	3.543800	-10.648000	25.524335	0.000830	20.772307
1253.325336	-3.011800	3.543000	-10.670000	25.489595	0.000830	20.781042
1254.327589	-3.002900	3.543900	-10.641000	25.481320	0.000828	20.786483
1255.325800	-3.022700	3.541900	-10.705000	25.489894	0.000830	20.777549
1256.325151	-2.981400	3.543800	-10.565000	25.515912	0.000829	20.768115
1257.328946	-3.016700	3.542300	-10.684000	25.520957	0.000827	20.766544
1258.325495	-3.002800	3.541700	-10.633000	25.543968	0.000829	20.774480
1259.326097	-3.009300	3.542700	-10.660000	25.533458	0.000827	20.787159
1260.326982	-3.007600	3.542500	-10.653000	25.540962	0.000827	20.751546
1261.326558	-2.994300	3.541100	-10.602000	25.543374	0.000825	20.765822
1262.326921	-2.997700	3.539700	-10.609000	25.495910	0.000827	20.761305
1263.328951	-3.021400	3.540200	-10.695000	25.443822	0.000825	20.768268
1264.329212	-2.992400	3.540100	-10.592000	25.437237	0.000826	20.788682
1265.329078	-3.021200	3.538700	-10.689000	25.448272	0.000824	20.758512
1266.333385	-2.985800	3.539300	-10.567000	25.509754	0.000824	20.786588
1267.328959	-2.995000	3.538900	-10.598000	25.503194	0.000824	20.772413
1268.328982	-2.980100	3.538500	-10.544000	25.499219	0.000822	20.785965
1269.333428	-2.986800	3.537800	-10.565000	25.502325	0.000823	20.764903
1270.329317	-3.001700	3.537800	-10.618000	25.472131	0.000823	20.770143
1271.333817	-3.002800	3.537900	-10.622000	25.445317	0.000824	20.781624
1272.331192	-2.996900	3.538200	-10.603000	25.441838	0.000824	20.778130
1273.329677	-2.996700	3.537700	-10.601000	25.463683	0.000822	20.763556
1274.330775	-2.997100	3.535700	-10.596000	25.484508	0.000824	20.763605
1275.332877	-3.023800	3.535900	-10.691000	25.447902	0.000822	20.768571
1276.330616	-3.018200	3.535000	-10.668000	25.419745	0.000823	20.766376
1277.329895	-3.012400	3.534600	-10.646000	25.434309	0.000820	20.778630
1278.335313	-3.002700	3.535900	-10.617000	25.432519	0.000821	20.776832
1279.331044	-3.005100	3.535600	-10.624000	25.464751	0.000819	20.773163
1280.332657	-2.991800	3.535900	-10.577000	25.475338	0.000821	20.777631
1281.334492	-3.008100	3.534100	-10.630000	25.501581	0.000821	20.766526
1282.332508	-2.995500	3.533700	-10.584000	25.477004	0.000817	20.779778
1283.333150	-2.987900	3.534700	-10.560000	25.459309	0.000816	20.765802
1284.341189	-2.986300	3.533900	-10.552000	25.460924	0.000817	20.755095
1285.333327	-3.017800	3.532600	-10.659000	25.461247	0.000813	20.768222
1286.334110	-2.999100	3.532300	-10.591000	25.520490	0.000814	20.753747
1287.337795	-2.982400	3.533600	-10.536000	25.538084	0.000815	20.775683
1288.349277	-2.998500	3.532000	-10.590000	25.534655	0.000815	20.765601
1289.334671	-2.995300	3.529500	-10.571000	25.517011	0.000815	20.774435
1290.336787	-2.989600	3.532800	-10.561000	25.500710	0.000815	20.792204
1291.334758	-2.983400	3.531300	-10.534000	25.503989	0.000815	20.767048
1292.333412	-2.980400	3.532300	-10.526000	25.503989	0.000813	20.793601
1293.337348	-2.983900	3.531900	-10.537000	25.524665	0.000815	20.772638
1294.334005	-3.003900	3.530000	-10.602000	25.494695	0.000811	20.790905
1295.336102	-2.999100	3.530200	-10.585000	25.498347	0.000813	20.794573
1296.338492	-3.015600	3.529700	-10.642000	25.494695	0.000807	20.786638
1297.335729	-3.009600	3.529700	-10.622000	25.464077	0.000811	20.777703
1298.333615	-3.011300	3.527700	-10.621000	25.460673	0.000807	20.784715
1299.337747	-3.002100	3.527500	-10.588000	25.416362	0.000809	20.795696
1300.336371	-2.997900	3.527800	-10.575000	25.391062	0.000808	20.797792
1301.337539	-3.018100	3.526500	-10.641000	25.343492	0.000807	20.760932
1302.338898	-3.004300	3.527900	-10.597000	25.296840	0.000807	20.779525
1303.340459	-2.991300	3.528400	-10.553000	25.309218	0.000806	20.783892
1304.338502	-3.013600	3.526100	-10.624000	25.344163	0.000807	20.770141
1305.348347	-2.998900	3.525800	-10.572000	25.380375	0.000804	20.779001
1306.345143	-3.028300	3.524300	-10.672000	25.360020	0.000803	20.787960
1307.349519	-3.002300	3.524900	-10.582000	25.363624	0.000804	20.762181
1308.348044	-2.997100	3.525800	-10.566000	25.394616	0.000806	20.781447
1309.340666	-3.022800	3.523600	-10.650000	25.407267	0.000805	20.804107
1310.339956	-3.031000	3.523300	-10.678000	25.386614	0.000804	20.775308
1311.342211	-2.982600	3.524100	-10.510000	25.371131	0.000803	20.776357
1312.347043	-3.016200	3.524000	-10.628000	25.344239	0.000801	20.817159
1313.340034	-2.989700	3.524100	-10.535000	25.318092	0.000803	20.769095
1314.344964	-3.008300	3.524900	-10.602000	25.300967	0.000801	20.776557
1315.338949	-2.989200	3.524500	-10.534000	25.289335	0.000800	20.785266
1316.340779	-2.996800	3.523600	-10.559000	25.265920	0.000799	20.800164
1317.353270	-3.040300	3.520700	-10.703000	25.274521	0.000799	20.809747
1318.339627	-3.005400	3.521900	-10.584000	25.292219	0.000798	20.792903
1319.340315	-2.994200	3.522700	-10.547000	25.292641	0.000797	20.799017
1320.340750	-3.018000	3.520600	-10.624000	25.299451	0.000798	20.795897
1321.341092	-2.997900	3.521400	-10.554000	25.292168	0.000798	20.798542
1322.341446	-3.014200	3.520600	-10.611000	25.301689	0.000794	20.786290
1323.340539	-2.986000	3.520600	-10.511000	25.288391	0.000797	20.788112
1324.342769	-2.997800	3.520500	-10.553000	25.281208	0.000795	20.784219
1325.342101	-3.000700	3.519200	-10.559000	25.302956	0.000796	20.759586
1326.340238	-2.999000	3.520000	-10.556000	25.350378	0.000797	20.786813
1327.340124	-2.997200	3.519600	-10.548000	25.364247	0.000796	20.790307
1328.341213	-3.012800	3.518400	-10.598000	25.409081	0.000796	20.784592
1329.342224	-2.986800	3.519000	-10.507000	25.437140	0.000793	20.798068
1330.343493	-2.998300	3.518600	-10.548000	25.433934	0.000795	20.810970
1331.344505	-2.986700	3.519000	-10.509000	25.398792	0.000795	20.788485
1332.343522	-3.029200	3.516500	-10.651000	25.373441	0.000793	20.781522
1333.345413	-3.014700	3.517600	-10.603000	25.393870	0.000793	20.787336
1334.344180	-2.981900	3.517800	-10.489000	25.355920	0.000791	20.791429
1335.345704	-3.032400	3.514800	-10.656000	25.346972	0.000794	20.790506
1336.344737	-3.009600	3.514500	-10.576000	25.355123	0.000791	20.808172
1337.345495	-3.016600	3.515000	-10.602000	25.373688	0.000790	20.785563
1338.347387	-2.987800	3.515300	-10.502000	25.417627	0.000791	20.799811
1339.346862	-3.026700	3.513400	-10.633000	25.446829	0.000793	20.817754
1340.347240	-2.993900	3.514200	-10.521000	25.466759	0.000789	20.814535
1341.346422	-2.999700	3.515700	-10.545000	25.443174	0.000790	20.800809
1342.347342	-3.004900	3.514900	-10.560000	25.420136	0.000788	20.819399
1343.356779	-3.004300	3.513200	-10.554000	25.426473	0.000791	20.813909
1344.347707	-2.995500	3.512900	-10.523000	25.434425	0.000787	20.808619
1345.345816	-2.990400	3.512700	-10.503000	25.416108	0.000787	20.797812
1346.346220	-3.005600	3.511900	-10.555000	25.438375	0.000787	20.817800
1347.347300	-3.018800	3.511600	-10.601000	25.440538	0.000787	20.808118
1348.347147	-3.010300	3.512100	-10.571000	25.476174	0.000788	20.816403
1349.348108	-2.951400	3.513100	-10.368000	25.459796	0.000787	20.821767
1350.347419	-2.966000	3.513400	-10.419000	25.440660	0.000787	20.817724
1351.349662	-2.995100	3.510500	-10.513000	25.440635	0.000785	20.820070
1352.347880	-2.995500	3.511100	-10.516000	25.454253	0.000783	20.806718
1353.350224	-3.009900	3.510400	-10.565000	25.434819	0.000783	20.803324
1354.350409	-3.005600	3.511800	-10.553000	25.461633	0.000784	20.805120
1355.350852	-2.987900	3.511600	-10.490000	25.466205	0.000785	20.817297
1356.350133	-2.985800	3.510400	-10.481000	25.444136	0.000784	20.827853
1357.350857	-3.017200	3.508900	-10.585000	25.473311	0.000784	20.830597
1358.351206	-2.999900	3.508900	-10.525000	25.493043	0.000782	20.824333
1359.348716	-3.001600	3.507700	-10.527000	25.489190	0.000781	20.825680
1360.351155	-2.999400	3.508300	-10.521000	25.517296	0.000780	20.836360
1361.351730	-3.004700	3.508500	-10.541000	25.504771	0.000779	20.824257
1362.350956	-2.986900	3.508600	-10.479000	25.513642	0.000781	20.827001
1363.351484	-2.987400	3.507000	-10.475000	25.547213	0.000782	20.827051
1364.350553	-3.012000	3.504800	-10.556000	25.558520	0.000779	20.820388
1365.351016	-2.977500	3.507100	-10.442000	25.567862	0.000779	20.843994
1366.350931	-3.007300	3.505300	-10.540000	25.616092	0.000779	20.809456
1367.350814	-3.001300	3.505600	-10.520000	25.613110	0.000778	20.827323
1368.350683	-3.004900	3.504000	-10.528000	25.626105	0.000777	20.827098
1369.351058	-2.978300	3.505300	-10.438000	25.644765	0.000775	20.818812
1370.351090	-2.999200	3.504900	-10.511000	25.619320	0.000775	20.831663
1371.351929	-2.998600	3.503100	-10.504000	25.592335	0.000775	20.844865
1372.355820	-2.992300	3.504000	-10.484000	25.555334	0.000775	20.856068
1373.352555	-3.003700	3.503900	-10.524000	25.548003	0.000772	20.821680
1374.352627	-3.001900	3.502700	-10.513000	25.561099	0.000774	20.837676
1375.355882	-3.024500	3.500700	-10.586000	25.564999	0.000774	20.848705
1376.353461	-2.969200	3.504100	-10.404000	25.547032	0.000774	20.842041
1377.354795	-3.011900	3.501100	-10.544000	25.539851	0.000771	20.839097
1378.353327	-3.001100	3.500700	-10.504000	25.517486	0.000773	20.861206
1379.353219	-2.993600	3.501200	-10.478000	25.481924	0.000772	20.838772
1380.354530	-3.001500	3.499500	-10.502000	25.459607	0.000770	20.847655
1381.354473	-2.983900	3.501500	-10.447000	25.460278	0.000769	20.824622
1382.354660	-2.994900	3.499000	-10.478000	25.448150	0.000773	20.840891
1383.354004	-2.985800	3.499500	-10.448000	25.442906	0.000768	20.831359
1384.356318	-2.999000	3.499300	-10.494000	25.456946	0.000769	20.864422
1385.354452	-2.992900	3.498700	-10.470000	25.455654	0.000769	20.829462
1386.354672	-3.040400	3.497100	-10.632000	25.471981	0.000768	20.855338
1387.355993	-2.997600	3.499600	-10.489000	25.484655	0.000766	20.831557
1388.355432	-3.029700	3.498600	-10.598000	25.443525	0.000766	20.850472
1389.355720	-3.015100	3.495800	-10.540000	25.454808	0.000766	20.892619
1390.358150	-2.996500	3.499000	-10.483000	25.468053	0.000762	20.856136
1391.356343	-2.981400	3.498100	-10.428000	25.496110	0.000764	20.870085
1392.356106	-2.996800	3.497200	-10.478000	25.512834	0.000764	20.840888
1393.357633	-3.016100	3.494700	-10.540000	25.533260	0.000760	20.844332
1394.357449	-3.000300	3.496600	-10.489000	25.535869	0.000763	20.838891
1395.357552	-2.987000	3.497200	-10.445000	25.519120	0.000763	20.835822
1396.358183	-2.991400	3.494200	-10.451000	25.576273	0.000764	20.856708
1397.359820	-3.000700	3.494900	-10.486000	25.558581	0.000763	20.858380
1398.360474	-3.010200	3.493300	-10.514000	25.603905	0.000761	20.873078
1399.360752	-2.988300	3.496100	-10.446000	25.584697	0.000762	20.849995
1400.363807	-2.993500	3.493600	-10.457000	25.559649	0.000761	20.844755
1401.359777	-2.995300	3.495500	-10.469000	25.591306	0.000758	20.874649
1402.360999	-2.997800	3.493600	-10.472000	25.618912	0.000759	20.859701
1403.372517	-3.001000	3.491800	-10.477000	25.653301	0.000759	20.853463
1404.362388	-3.001400	3.491700	-10.479000	25.672209	0.000761	20.880987
1405.361820	-3.000600	3.491200	-10.475000	25.671638	0.000758	20.871879
1406.362986	-2.989500	3.491500	-10.436000	25.689651	0.000758	20.875273
1407.365622	-2.993300	3.491400	-10.450000	25.704260	0.000758	20.867187
1408.364142	-3.001700	3.491300	-10.478000	25.694223	0.000758	20.874174
1409.363532	-3.014800	3.489400	-10.518000	25.679166	0.000756	20.875172
1410.366649	-3.006500	3.489100	-10.489000	25.634739	0.000756	20.862321
1411.363733	-2.993300	3.490300	-10.445000	25.644529	0.000755	20.863144
1412.363511	-3.017900	3.488400	-10.527000	25.610512	0.000752	20.877817
1413.364617	-2.981400	3.490200	-10.403000	25.591578	0.000756	20.843630
1414.364580	-3.002300	3.488600	-10.472000	25.575053	0.000754	20.878715
1415.365677	-3.021300	3.487900	-10.537000	25.577712	0.000753	20.862420
1416.364801	-3.025800	3.487400	-10.551000	25.560467	0.000754	20.853162
1417.365205	-3.020300	3.487400	-10.532000	25.551745	0.000755	20.860050
1418.365167	-3.018400	3.486700	-10.523000	25.550527	0.000754	20.883481
1419.365920	-3.003400	3.486800	-10.472000	25.598385	0.000755	20.882707
1420.363952	-3.014900	3.484900	-10.506000	25.618562	0.000750	20.876893
1421.365012	-2.992700	3.486100	-10.432000	25.618388	0.000752	20.903743
1422.364681	-3.016000	3.485600	-10.511000	25.648329	0.000751	20.872651
1423.375472	-3.007400	3.485400	-10.480000	25.665101	0.000749	20.856780
1424.366591	-2.992400	3.484900	-10.427000	25.706072	0.000749	20.878964
1425.365453	-2.989300	3.485400	-10.417000	25.734917	0.000750	20.872375
1426.366313	-3.004700	3.484300	-10.467000	25.750719	0.000750	20.890616
1427.366718	-2.990100	3.484500	-10.418000	25.758420	0.000751	20.860896
1428.367563	-2.998000	3.483600	-10.442000	25.742917	0.000751	20.879462
1429.367265	-2.978600	3.484000	-10.377000	25.753575	0.000748	20.888744
1430.368643	-2.993100	3.483600	-10.426000	25.743661	0.000749	20.885425
1431.366406	-2.998800	3.480100	-10.434000	25.762990	0.000748	20.906260
1432.368506	-3.000600	3.481900	-10.446000	25.749475	0.000748	20.877988
1433.369010	-3.010000	3.481700	-10.478000	25.730543	0.000746	20.885524
1434.365672	-3.015400	3.481200	-10.496000	25.726965	0.000746	20.907059
1435.367309	-3.013000	3.480600	-10.486000	25.689199	0.000745	20.880508
1436.366592	-2.987400	3.483700	-10.406000	25.657643	0.000746	20.883427
1437.367128	-3.027400	3.479900	-10.535000	25.671880	0.000744	20.888717
1438.371602	-2.992500	3.480400	-10.414000	25.655133	0.000743	20.908879
1439.368192	-3.010400	3.480000	-10.474000	25.666265	0.000742	20.888767
1440.367592	-3.003700	3.477800	-10.444000	25.658264	0.000743	20.895903
1441.372001	-3.017500	3.478800	-10.495000	25.671432	0.000742	20.889215
1442.369969	-2.994900	3.479000	-10.418000	25.643828	0.000743	20.912222
1443.367164	-2.989400	3.477700	-10.395000	25.606009	0.000739	20.892733
1444.368598	-3.000600	3.477200	-10.433000	25.603673	0.000741	20.913619
1445.367888	-2.971100	3.478000	-10.333000	25.569979	0.000739	20.890213
1446.370970	-3.013500	3.476900	-10.477000	25.555591	0.000740	20.920806
1447.369074	-2.972300	3.478600	-10.338000	25.528480	0.000738	20.908753
1448.374084	-3.001800	3.475700	-10.432000	25.526890	0.000738	20.894829
1449.371719	-3.003300	3.477400	-10.443000	25.519583	0.000735	20.896027
1450.375052	-2.993400	3.475700	-10.404000	25.522416	0.000736	20.896027
1451.373296	-3.010900	3.474500	-10.460000	25.513968	0.000736	20.914567
1452.370560	-2.977300	3.476400	-10.349000	25.565928	0.000736	20.891835
1453.375876	-2.995700	3.475300	-10.409000	25.592417	0.000735	20.911798
1454.374168	-2.983600	3.475300	-10.368000	25.625589	0.000734	20.908129
1455.372134	-3.006600	3.473300	-10.441000	25.614830	0.000734	20.903488
1456.377691	-2.977500	3.474100	-10.342000	25.633466	0.000734	20.907032
1457.379586	-2.987200	3.473200	-10.375000	25.665619	0.000734	20.912298
1458.374061	-3.013400	3.473300	-10.465000	25.703882	0.000730	20.906159
1459.376649	-3.025000	3.471800	-10.501000	25.701969	0.000733	20.897126
1460.377606	-3.022100	3.469800	-10.485000	25.718665	0.000731	20.914843
1461.378886	-3.013100	3.471900	-10.461000	25.734417	0.000731	20.929715
1462.379898	-3.023000	3.468700	-10.484000	25.745275	0.000729	20.922603
1463.379468	-3.020600	3.470600	-10.480000	25.767411	0.000730	20.900270
1464.376199	-3.019900	3.469800	-10.478000	25.774020	0.000729	20.913546
1465.377664	-3.006100	3.469000	-10.426000	25.775213	0.000730	20.910003
1466.379503	-3.014000	3.467800	-10.451000	25.746418	0.000727	20.918537
1467.376461	-2.987900	3.471200	-10.371000	25.733027	0.000725	20.913147
1468.378863	-2.984700	3.468800	-10.352000	25.739910	0.000725	20.918638
1469.381153	-3.013400	3.468700	-10.451000	25.743314	0.000724	20.908781
1470.377247	-2.998600	3.468800	-10.401000	25.746941	0.000723	20.916691
1471.376808	-3.012400	3.466700	-10.442000	25.761898	0.000723	20.918912
1472.382538	-2.993300	3.467200	-10.378000	25.778023	0.000722	20.922781
1473.377618	-2.989800	3.466800	-10.364000	25.765327	0.000721	20.925201
1474.378576	-3.025600	3.464900	-10.481000	25.754793	0.000722	20.901820
1475.381735	-2.985100	3.465900	-10.345000	25.698916	0.000723	20.922033
1476.379924	-2.984100	3.466200	-10.342000	25.700259	0.000722	20.944715
1477.382020	-3.017900	3.463800	-10.452000	25.693700	0.000720	20.917742
1478.380273	-2.980800	3.464800	-10.327000	25.710372	0.000719	20.920262
1479.380946	-3.026600	3.462700	-10.478000	25.693129	0.000719	20.924755
1480.379196	-2.996900	3.463100	-10.378000	25.708534	0.000719	20.934536
1481.380128	-2.988600	3.466100	-10.357000	25.718721	0.000720	20.929122
1482.380892	-2.987600	3.462000	-10.342000	25.708759	0.000719	20.918169
1483.378340	-2.990600	3.463300	-10.357000	25.732537	0.000718	20.921663
1484.381430	-3.021800	3.460700	-10.456000	25.700238	0.000719	20.926204
1485.378384	-2.991100	3.461700	-10.353000	25.698723	0.000720	20.915675
1486.378094	-3.015000	3.460400	-10.432000	25.724960	0.000719	20.917846
1487.378310	-2.996100	3.461700	-10.371000	25.737557	0.000719	20.912481
1488.382195	-3.021500	3.459900	-10.451000	25.799693	0.000717	20.904247
1489.379179	-3.013000	3.460100	-10.424000	25.789234	0.000718	20.916500
1490.377693	-3.008200	3.459700	-10.406000	25.781657	0.000716	20.906045
1491.380486	-3.010200	3.459000	-10.411000	25.779794	0.000717	20.903699
1492.379053	-2.999300	3.459800	-10.376000	25.775695	0.000717	20.914754
1493.381263	-3.003000	3.459900	-10.389000	25.754404	0.000717	20.897162
1494.379918	-3.003700	3.457900	-10.385000	25.767049	0.000717	20.930250
1495.377135	-2.993200	3.458100	-10.350000	25.742205	0.000716	20.917149
1496.377775	-3.007900	3.457400	-10.398000	25.717136	0.000715	20.901455
1497.382219	-2.982500	3.457200	-10.309000	25.675097	0.000715	20.907119
1498.377015	-3.005200	3.456500	-10.385000	25.694452	0.000713	20.912334
1499.379878	-2.986500	3.456500	-10.321000	25.668686	0.000714	20.929127
1500.378745	-2.989000	3.456400	-10.330000	25.679048	0.000714	20.888330
1501.378788	-2.993800	3.456700	-10.347000	25.690825	0.000713	20.910588
1502.382107	-3.019200	3.454300	-10.428000	25.697608	0.000714	20.892746
1503.381703	-3.018600	3.453500	-10.423000	25.699049	0.000714	20.902728
1504.382152	-3.007100	3.455200	-10.390000	25.732913	0.000712	20.899757
1505.382051	-3.009700	3.454900	-10.396000	25.742777	0.000710	20.904923
1506.383028	-3.003700	3.453400	-10.371000	25.761957	0.000711	20.899060
1507.386418	-3.007700	3.454400	-10.389000	25.787298	0.000709	20.907444
1508.382943	-3.021600	3.452300	-10.431000	25.736616	0.000709	20.891623
1509.385995	-2.988600	3.453000	-10.318000	25.713212	0.000709	20.901306
1510.387341	-3.002000	3.452700	-10.364000	25.723149	0.000708	20.905123
1511.384345	-2.996900	3.452500	-10.345000	25.724689	0.000707	20.882016
1512.385716	-3.011400	3.452700	-10.396000	25.737585	0.000707	20.876951
1513.387868	-3.005000	3.452300	-10.374000	25.715448	0.000708	20.884587
1514.385691	-3.022000	3.450800	-10.427000	25.681906	0.000704	20.893096
1515.385114	-3.012800	3.451600	-10.398000	25.673732	0.000705	20.888206
1516.387968	-3.004600	3.449500	-10.363000	25.694802	0.000703	20.916478
1517.387068	-3.028800	3.447600	-10.441000	25.646276	0.000702	20.881494
1518.386208	-3.025900	3.448700	-10.434000	25.625877	0.000702	20.871912
1519.386846	-3.005500	3.448900	-10.364000	25.606123	0.000705	20.890952
1520.386397	-2.976700	3.449400	-10.266000	25.664738	0.000703	20.906672
1521.388722	-3.037200	3.447000	-10.468000	25.684243	0.000706	20.887384
1522.386385	-3.008200	3.447700	-10.370000	25.732892	0.000705	20.886935
1523.387948	-3.001700	3.449100	-10.352000	25.750407	0.000704	20.866598
1524.386367	-2.997300	3.447400	-10.332000	25.764222	0.000703	20.889956
1525.387462	-3.006400	3.446300	-10.360000	25.775974	0.000705	20.871889
1526.387179	-2.999800	3.447100	-10.339000	25.768346	0.000701	20.880823
1527.390470	-3.000500	3.446200	-10.340000	25.783625	0.000702	20.876256
1528.390731	-3.016900	3.445400	-10.394000	25.794159	0.000702	20.877828
1529.386967	-3.013900	3.446200	-10.385000	25.792272	0.000702	20.886363
1530.389189	-3.009400	3.445300	-10.367000	25.788173	0.000701	20.876082
1531.388512	-3.005500	3.444400	-10.350000	25.815650	0.000700	20.875708
1532.393583	-2.985100	3.444400	-10.280000	25.847002	0.000700	20.868797
1533.389846	-3.020700	3.443000	-10.399000	25.858727	0.000701	20.865876
1534.390004	-3.016500	3.444200	-10.389000	25.893233	0.000698	20.865926
1535.401198	-2.984900	3.443600	-10.279000	25.881284	0.000701	20.875259
1536.392303	-2.997100	3.442600	-10.317000	25.879074	0.000700	20.876358
1537.390748	-3.000400	3.442500	-10.328000	25.848592	0.000699	20.880824
1538.394544	-2.998000	3.442200	-10.319000	25.856790	0.000697	20.874835
1539.393145	-3.002800	3.441700	-10.334000	25.800621	0.000696	20.882421
1540.392935	-3.016800	3.440300	-10.378000	25.766808	0.000697	20.854623
1541.394385	-3.019700	3.440900	-10.389000	25.718807	0.000697	20.862358
1542.391131	-3.006600	3.439600	-10.340000	25.685539	0.000694	20.845540
1543.394866	-2.999100	3.439400	-10.314000	25.641834	0.000695	20.862808
1544.394268	-2.980900	3.440200	-10.253000	25.629410	0.000696	20.839426
1545.395048	-3.001100	3.440100	-10.323000	25.623571	0.000694	20.849683
1546.397219	-3.007300	3.440200	-10.345000	25.606029	0.000693	20.851504
1547.393574	-3.007500	3.438400	-10.340000	25.597853	0.000696	20.864156
1548.394094	-3.012200	3.439700	-10.360000	25.596486	0.000694	20.864205
1549.394735	-3.024700	3.437500	-10.396000	25.642107	0.000696	20.855023
1550.397546	-3.031200	3.435900	-10.414000	25.654257	0.000694	20.850630
1551.397649	-3.032300	3.436000	-10.418000	25.695055	0.000693	20.853201
1552.395445	-3.004300	3.437400	-10.326000	25.732796	0.000694	20.874512
1553.396003	-2.958400	3.439200	-10.173000	25.728223	0.000690	20.846213
1554.397352	-2.985600	3.437100	-10.261000	25.695403	0.000692	20.840275
1555.396351	-3.003200	3.436900	-10.320000	25.680545	0.000692	20.841472
1556.396858	-2.991800	3.435700	-10.278000	25.696918	0.000691	20.837055
1557.397978	-2.981200	3.436700	-10.244000	25.693440	0.000691	20.843044
1558.398391	-2.970600	3.435000	-10.203000	25.753417	0.000691	20.848284
1559.398524	-2.984400	3.435600	-10.252000	25.704868	0.000692	20.831764
1560.400723	-2.990100	3.434600	-10.269000	25.687874	0.000690	20.858315
1561.402197	-3.008800	3.432300	-10.326000	25.662530	0.000688	20.841870
1562.403518	-2.986600	3.434700	-10.257000	25.637384	0.000688	20.837003
1563.398790	-3.010000	3.433300	-10.332000	25.631272	0.000689	20.826123
1564.400563	-3.007000	3.432500	-10.320000	25.626078	0.000689	20.835605
1565.400295	-3.000400	3.432500	-10.298000	25.674182	0.000688	20.841245
1566.399529	-2.991600	3.432400	-10.267000	25.714010	0.000684	20.848058
1567.405754	-3.005700	3.431400	-10.313000	25.718457	0.000686	20.851102
1568.403359	-3.007300	3.431300	-10.318000	25.750606	0.000687	20.836927
1569.403190	-3.010200	3.432700	-10.332000	25.742457	0.000686	20.823052
1570.402991	-2.990200	3.432200	-10.262000	25.763401	0.000687	20.832710
1571.404259	-3.018800	3.430300	-10.354000	25.799101	0.000685	20.864775
1572.403016	-3.012500	3.430200	-10.331000	25.782108	0.000685	20.850077
1573.402757	-3.023200	3.429300	-10.366000	25.748542	0.000684	20.846707
1574.403586	-2.987400	3.428300	-10.240000	25.765635	0.000684	20.839220
1575.404480	-2.996300	3.428800	-10.273000	25.787373	0.000683	20.851573
1576.403658	-2.998500	3.430200	-10.284000	25.820217	0.000684	20.825770
1577.402515	-3.005900	3.428200	-10.303000	25.832960	0.000683	20.832882
1578.403526	-2.964600	3.429200	-10.165000	25.844089	0.000683	20.823198
1579.403807	-3.018500	3.426300	-10.340000	25.853305	0.000682	20.837671
1580.406126	-2.990700	3.427400	-10.249000	25.854473	0.000685	20.836948
1581.406665	-2.984100	3.428200	-10.229000	25.849454	0.000680	20.872681
1582.405057	-3.002700	3.426700	-10.288000	25.840286	0.000679	20.843085
1583.412617	-2.983100	3.427600	-10.223000	25.823790	0.000680	20.832204
1584.404741	-2.991500	3.426500	-10.249000	25.856707	0.000680	20.834925
1585.406379	-3.006200	3.424500	-10.294000	25.878268	0.000679	20.824816
1586.406329	-3.021900	3.424000	-10.347000	25.876481	0.000679	20.832504
1587.407959	-3.013500	3.424200	-10.318000	25.882790	0.000677	20.809444
1588.406084	-2.995900	3.424700	-10.259000	25.859835	0.000678	20.830955
1589.406922	-3.009100	3.423100	-10.299000	25.840110	0.000676	20.838167
1590.406819	-2.987300	3.423000	-10.223000	25.855662	0.000673	20.852366
1591.408446	-2.990300	3.423500	-10.236000	25.858816	0.000678	20.845578
1592.406084	-3.016800	3.422300	-10.323000	25.847612	0.000675	20.820099
1593.408414	-2.996900	3.423100	-10.258000	25.841078	0.000677	20.833450
1594.410056	-3.016800	3.421000	-10.319000	25.800608	0.000674	20.829306
1595.405660	-3.003000	3.421300	-10.273000	25.809900	0.000674	20.830579
1596.415039	-3.011300	3.419600	-10.295000	25.815166	0.000674	20.825913
1597.407072	-2.992400	3.419300	-10.231000	25.827438	0.000673	20.843455
1598.407545	-2.987100	3.420300	-10.216000	25.853324	0.000674	20.838165
1599.408641	-3.017300	3.419000	-10.315000	25.853275	0.000674	20.836693
1600.409047	-2.998000	3.420200	-10.252000	25.802619	0.000671	20.830378
1601.407408	-2.998800	3.420100	-10.255000	25.811861	0.000672	20.835394
1602.410959	-3.009000	3.418100	-10.284000	25.815885	0.000670	20.815255
1603.408617	-2.999600	3.418000	-10.251000	25.843635	0.000670	20.830802
1604.411016	-3.009200	3.419600	-10.289000	25.872700	0.000673	20.832973
1605.411788	-3.012800	3.417900	-10.296000	25.872700	0.000672	20.831550
1606.411168	-3.008700	3.416700	-10.280000	25.848851	0.000669	20.835568
1607.410516	-2.990600	3.417800	-10.219000	25.866712	0.000670	20.827432
1608.413297	-3.007500	3.416000	-10.272000	25.841223	0.000668	20.842129
1609.412201	-3.004300	3.417500	-10.266000	25.844800	0.000666	20.837188
1610.413666	-3.002600	3.415600	-10.254000	25.803610	0.000667	20.824262
1611.413866	-2.984300	3.417100	-10.196000	25.767487	0.000668	20.834917
1612.418494	-3.002200	3.414800	-10.251000	25.748604	0.000668	20.833020
1613.415042	-3.001100	3.416300	-10.252000	25.776729	0.000667	20.825234
1614.415026	-2.992800	3.413700	-10.215000	25.777150	0.000666	20.836563
1615.416128	-3.011000	3.413700	-10.277000	25.800404	0.000666	20.844274
1616.420599	-3.000800	3.415000	-10.246000	25.811807	0.000664	20.825383
1617.414204	-3.017600	3.413600	-10.300000	25.788180	0.000665	20.828676
1618.416590	-2.989200	3.412600	-10.200000	25.777398	0.000664	20.837286
1619.414171	-2.978500	3.413600	-10.167000	25.791608	0.000663	20.819792
1620.414623	-2.994100	3.412700	-10.217000	25.786813	0.000663	20.833941
1621.419071	-2.984700	3.413100	-10.185000	25.784825	0.000661	20.831945
1622.415967	-2.987900	3.412900	-10.196000	25.790092	0.000662	20.823485
1623.417330	-2.998400	3.411200	-10.226000	25.770763	0.000661	20.814500
1624.420996	-2.999900	3.411200	-10.232000	25.739433	0.000659	20.827127
1625.417231	-2.992200	3.411600	-10.206000	25.685195	0.000659	20.826703
1626.417341	-3.015800	3.409700	-10.283000	25.640222	0.000659	20.831794
1627.422259	-2.987400	3.409000	-10.183000	25.646955	0.000657	20.827650
1628.417963	-2.989800	3.409500	-10.193000	25.601409	0.000657	20.829796
1629.417774	-2.984800	3.410300	-10.178000	25.626655	0.000656	20.830969
1630.417762	-3.000300	3.409600	-10.229000	25.621412	0.000656	20.828074
1631.420331	-2.982300	3.410300	-10.170000	25.619995	0.000658	20.816695
1632.420621	-3.002900	3.410100	-10.239000	25.609584	0.000656	20.808135
1633.419808	-3.012700	3.408000	-10.265000	25.606428	0.000657	20.819190
1634.426366	-2.997700	3.407100	-10.213000	25.623921	0.000655	20.806413
1635.421923	-2.998000	3.408800	-10.218000	25.631573	0.000653	20.804615
1636.421522	-2.988300	3.407700	-10.183000	25.660992	0.000655	20.808558
1637.420720	-3.004900	3.407300	-10.239000	25.704920	0.000654	20.816169
1638.421405	-2.999000	3.406500	-10.215000	25.730213	0.000656	20.811228
1639.422332	-3.012100	3.406000	-10.258000	25.763629	0.000653	20.813499
1640.422746	-3.004900	3.405300	-10.231000	25.779106	0.000656	20.820037
1641.423622	-2.992500	3.407000	-10.194000	25.794957	0.000652	20.816992
1642.424310	-3.002600	3.405800	-10.224000	25.823775	0.000651	20.808482
1643.422618	-3.000000	3.404700	-10.213000	25.827427	0.000653	20.808831
1644.423743	-2.994700	3.404900	-10.195000	25.827600	0.000652	20.812798
1645.424748	-3.006100	3.403800	-10.232000	25.829463	0.000651	20.810877
1646.422817	-3.006300	3.403800	-10.232000	25.832692	0.000651	20.813172
1647.424674	-3.001500	3.404100	-10.216000	25.825811	0.000650	20.809579
1648.426221	-3.015100	3.402000	-10.257000	25.834058	0.000651	20.806009
1649.423862	-3.008300	3.402200	-10.234000	25.811574	0.000650	20.838425
1650.424401	-3.010400	3.400700	-10.237000	25.811699	0.000648	20.798248
1651.428048	-3.014000	3.401500	-10.251000	25.794854	0.000648	20.800768
1652.423851	-3.001700	3.401700	-10.211000	25.819897	0.000649	20.819759
1653.423604	-3.010800	3.400700	-10.236000	25.825560	0.000647	20.808379
1654.423089	-3.012700	3.400200	-10.243000	25.862898	0.000647	20.816015
1655.423638	-3.007400	3.400600	-10.226000	25.899639	0.000646	20.814991
1656.425262	-2.980700	3.399600	-10.132000	25.918890	0.000645	20.814891
1657.425799	-3.002700	3.398900	-10.204000	25.875964	0.000648	20.807803
1658.423970	-2.991000	3.400300	-10.168000	25.859842	0.000644	20.806780
1659.426616	-3.013600	3.398600	-10.241000	25.828142	0.000644	20.819507
1660.430046	-3.022800	3.398800	-10.273000	25.822080	0.000644	20.801564
1661.424779	-2.986100	3.398900	-10.149000	25.815770	0.000643	20.817510
1662.431841	-2.999400	3.398200	-10.191000	25.820911	0.000643	20.800390
1663.428437	-2.998500	3.399000	-10.190000	25.852536	0.000642	20.807976
1664.428847	-2.979500	3.397100	-10.121000	25.843543	0.000641	20.810796
1665.426568	-3.029900	3.396600	-10.290000	25.838226	0.000643	20.794550
1666.427871	-3.003600	3.395800	-10.198000	25.850002	0.000640	20.791206
1667.433414	-2.994200	3.395800	-10.167000	25.854076	0.000642	20.785815
1668.427988	-3.031400	3.394900	-10.290000	25.864658	0.000640	20.815412
1669.427798	-3.016700	3.395600	-10.241000	25.920526	0.000640	20.801836
1670.431054	-2.985600	3.396800	-10.140000	25.926687	0.000641	20.791903
1671.431920	-3.001100	3.394300	-10.186000	25.975025	0.000639	20.807275
1672.428634	-2.993700	3.394100	-10.159000	25.980539	0.000641	20.796220
1673.432196	-2.992600	3.394100	-10.156000	25.971150	0.000637	20.825667
1674.429520	-2.989300	3.393500	-10.143000	25.947378	0.000636	20.801785
1675.429102	-2.987700	3.393100	-10.136000	25.892330	0.000636	20.777303
1676.430931	-2.999100	3.392700	-10.174000	25.910091	0.000637	20.804629
1677.429432	-3.006300	3.393600	-10.201000	25.893448	0.000637	20.797392
1678.430667	-3.020800	3.391700	-10.244000	25.892777	0.000637	20.811891
1679.429755	-2.997500	3.391600	-10.165000	25.907209	0.000635	20.785138
1680.434213	-2.971800	3.391900	-10.079000	25.928721	0.000635	20.795370
1681.431124	-3.017600	3.390000	-10.229000	25.950382	0.000633	20.799587
1682.433566	-3.012700	3.390700	-10.214000	25.957064	0.000636	20.820999
1683.437927	-3.009000	3.391800	-10.205000	25.938682	0.000636	20.796842
1684.433411	-3.002800	3.391300	-10.182000	25.949189	0.000634	20.782267
1685.433747	-3.018200	3.390200	-10.231000	25.969259	0.000634	20.786784
1686.438883	-3.021500	3.387400	-10.235000	26.005301	0.000635	20.822994
1687.434823	-3.032900	3.388000	-10.273000	26.028004	0.000633	20.799811
1688.434608	-3.016700	3.389000	-10.222000	25.994347	0.000632	20.812937
1689.435226	-3.001800	3.389000	-10.172000	25.952318	0.000631	20.791575
1690.435599	-2.993800	3.387600	-10.141000	25.913094	0.000630	20.780145
1691.435112	-2.994800	3.388000	-10.146000	25.880304	0.000629	20.789877
1692.435426	-3.002300	3.386600	-10.167000	25.874341	0.000630	20.803328
1693.439213	-2.991200	3.389000	-10.136000	25.882589	0.000630	20.793121
1694.436328	-2.973400	3.389000	-10.075000	25.901866	0.000628	20.797788
1695.436018	-2.989800	3.386300	-10.123000	25.937760	0.000629	20.796390
1696.435591	-2.999200	3.386000	-10.155000	25.971542	0.000626	20.799509
1697.437054	-2.974000	3.387400	-10.073000	26.003237	0.000628	20.780143
1698.437767	-2.988900	3.386700	-10.121000	26.030833	0.000627	20.789851
1699.435703	-2.990400	3.385700	-10.123000	26.052541	0.000626	20.800282
1700.440072	-3.005400	3.384500	-10.170000	26.078148	0.000625	20.795191
1701.441066	-2.983700	3.386100	-10.101000	26.080905	0.000625	20.784211
1702.437479	-2.991800	3.384600	-10.125000	26.107207	0.000623	20.793569
1703.436629	-2.969500	3.383600	-10.047000	26.071864	0.000621	20.781290
1704.434571	-3.000100	3.383100	-10.148000	26.048566	0.000623	20.793918
1705.437453	-2.996300	3.383200	-10.137000	26.009992	0.000623	20.790723
1706.438636	-2.997200	3.384200	-10.142000	25.994816	0.000622	20.794916
1707.441423	-3.005800	3.381400	-10.163000	25.993052	0.000621	20.797886
1708.442243	-2.994900	3.381200	-10.126000	25.974199	0.000622	20.798385
1709.440555	-2.978600	3.383300	-10.076000	25.955619	0.000621	20.785882
1710.440861	-3.012700	3.380800	-10.184000	25.982098	0.000621	20.801105
1711.441402	-3.033400	3.380500	-10.254000	25.973677	0.000620	20.800231
1712.439166	-2.980300	3.381400	-10.077000	25.965579	0.000619	20.786406
1713.441124	-3.012300	3.380700	-10.183000	25.971839	0.000619	20.810238
1714.441722	-2.997900	3.380800	-10.134000	25.983489	0.000620	20.794441
1715.441539	-2.965600	3.380200	-10.023000	25.985973	0.000618	20.795515
1716.442135	-2.991200	3.380800	-10.111000	26.038705	0.000617	20.810088
1717.447311	-2.995800	3.379100	-10.121000	26.046306	0.000618	20.812035
1718.446086	-3.026000	3.378900	-10.224000	26.025044	0.000616	20.794941
1719.443560	-3.019500	3.379400	-10.202000	26.039624	0.000618	20.794417
1720.445336	-3.003800	3.378000	-10.146000	26.045188	0.000615	20.789101
1721.442979	-2.988000	3.378200	-10.092000	26.071938	0.000615	20.782787
1722.444823	-2.990400	3.377200	-10.099000	26.075291	0.000614	20.805122
1723.444617	-2.996400	3.377200	-10.119000	26.054353	0.000615	20.792145
1724.444627	-2.970800	3.378200	-10.035000	26.009619	0.000613	20.791771
1725.443474	-3.005600	3.376900	-10.150000	25.984258	0.000613	20.794741
1726.443049	-3.006300	3.375800	-10.148000	25.966523	0.000613	20.799682
1727.447746	-3.016700	3.374500	-10.179000	25.956736	0.000613	20.796013
1728.444188	-3.011300	3.374200	-10.159000	25.951843	0.000613	20.805796
1729.447989	-2.969100	3.375200	-10.020000	25.957978	0.000615	20.806744
1730.446238	-2.994000	3.374000	-10.100000	25.971217	0.000612	20.794441
1731.446263	-2.999500	3.374300	-10.119000	26.009420	0.000611	20.803425
1732.444283	-2.981800	3.375000	-10.063000	26.034507	0.000611	20.799707
1733.447495	-3.008500	3.374400	-10.151000	26.039748	0.000611	20.790273
1734.445333	-2.987900	3.373200	-10.078000	26.034159	0.000610	20.808840
1735.445740	-3.011600	3.372800	-10.157000	26.034805	0.000609	20.789101
1736.446846	-2.992700	3.373700	-10.096000	26.024398	0.000609	20.796662
1737.444036	-3.017000	3.373800	-10.176000	26.016052	0.000608	20.802027
1738.446253	-3.020200	3.372900	-10.186000	26.009917	0.000607	20.799182
1739.445058	-2.976100	3.372600	-10.036000	26.011556	0.000607	20.805571
1740.449032	-2.971400	3.371500	-10.017000	25.959940	0.000606	20.791646
1741.446142	-2.972200	3.372100	-10.022000	25.916171	0.000605	20.814056
1742.447216	-2.973400	3.372300	-10.026000	25.904446	0.000608	20.798483
1743.450778	-2.980700	3.371200	-10.048000	25.910308	0.000606	20.796786
1744.451433	-3.034200	3.369300	-10.222000	25.917065	0.000604	20.790772
1745.447018	-2.993800	3.371600	-10.093000	25.936863	0.000605	20.794066
1746.447139	-3.012800	3.369400	-10.150000	25.950301	0.000602	20.814679
1747.448480	-3.016900	3.370400	-10.168000	25.998440	0.000600	20.817524
1748.449778	-2.984400	3.370300	-10.057000	26.015157	0.000602	20.812508
1749.450699	-3.000700	3.368300	-10.106000	26.028371	0.000602	20.810137
1750.451320	-2.991700	3.369200	-10.079000	26.038977	0.000602	20.802301
1751.450398	-2.994200	3.368300	-10.085000	26.053880	0.000600	20.808740
1752.449422	-2.996600	3.367800	-10.090000	26.090614	0.000600	20.791595
1753.451970	-3.025600	3.366800	-10.185000	26.067987	0.000598	20.817698
1754.451597	-3.004200	3.367300	-10.115000	26.059369	0.000599	20.807617
1755.451344	-3.005200	3.365500	-10.113000	26.031029	0.000596	20.801428
1756.452294	-3.004100	3.366100	-10.111000	25.994342	0.000599	20.825260
1757.451857	-3.001200	3.365600	-10.100000	26.024397	0.000598	20.804722
1758.453874	-2.992100	3.365200	-10.068000	26.014014	0.000598	20.801877
1759.452933	-2.993700	3.366500	-10.078000	26.016523	0.000596	20.799656
1760.453146	-3.002200	3.364900	-10.101000	25.998689	0.000595	20.789799
1761.456586	-3.018200	3.363900	-10.151000	25.941731	0.000594	20.811759
1762.456409	-3.029100	3.363700	-10.188000	25.900943	0.000594	20.802551
1763.456342	-3.033800	3.362000	-10.198000	25.847682	0.000594	20.804048
1764.453524	-3.021900	3.362800	-10.161000	25.843707	0.000596	20.803374
1765.453045	-3.016300	3.363100	-10.143000	25.819882	0.000594	20.807417
1766.455646	-3.000100	3.364300	-10.093000	25.815212	0.000593	20.800355
1767.452509	-2.989200	3.363100	-10.052000	25.820926	0.000594	20.789499
1768.458220	-2.986400	3.362700	-10.042000	25.834689	0.000594	20.818023
1769.452706	-3.013000	3.361500	-10.127000	25.838316	0.000591	20.814080
1770.454187	-2.983900	3.361100	-10.028000	25.856103	0.000591	20.806344
1771.456391	-2.993900	3.363200	-10.067000	25.859234	0.000592	20.796686
1772.460002	-2.974000	3.362300	-9.998500	25.897117	0.000591	20.814355
1773.456482	-3.004300	3.360800	-10.096000	25.946054	0.000590	20.814679
1774.455498	-3.007700	3.360600	-10.107000	25.954052	0.000590	20.814654
1775.456820	-2.983300	3.360300	-10.023000	26.007184	0.000589	20.812558
1776.456593	-2.998000	3.360300	-10.072000	26.030954	0.000588	20.817948
1777.456368	-2.986200	3.358800	-10.028000	26.097842	0.000588	20.837263
1778.460383	-3.002200	3.358900	-10.082000	26.106386	0.000589	20.820718
1779.456050	-3.018200	3.358000	-10.134000	26.153375	0.000590	20.809613
1780.460044	-2.997700	3.358200	-10.066000	26.157299	0.000589	20.826832
1781.456590	-3.014900	3.357300	-10.122000	26.153574	0.000585	20.831623
1782.456903	-2.966600	3.359200	-9.963700	26.117711	0.000585	20.836365
1783.458878	-3.002300	3.358400	-10.082000	26.112247	0.000586	20.824236
1784.460012	-2.981800	3.357500	-10.011000	26.121436	0.000585	20.817823
1785.462125	-2.999400	3.356300	-10.066000	26.126627	0.000585	20.803599
1786.467742	-3.030700	3.355800	-10.169000	26.122206	0.000582	20.809588
1787.461159	-2.992700	3.355400	-10.041000	26.078618	0.000582	20.813681
1788.461993	-3.019200	3.354500	-10.126000	26.035822	0.000583	20.801502
1789.466347	-3.012000	3.356300	-10.108000	26.010959	0.000580	20.808290
1790.462218	-2.999900	3.355400	-10.065000	26.049682	0.000580	20.810686
1791.461237	-3.014800	3.354600	-10.113000	26.053234	0.000580	20.804772
1792.465648	-2.984000	3.355400	-10.012000	26.066001	0.000580	20.808116
1793.464836	-2.972000	3.354800	-9.969300	26.094662	0.000578	20.817474
1794.461453	-2.983500	3.355200	-10.009000	26.119226	0.000580	20.824137
1795.463024	-2.976700	3.354100	-9.983700	26.144906	0.000578	20.826707
1796.464586	-2.992900	3.353000	-10.035000	26.151388	0.000576	20.817100
1797.462146	-2.990300	3.353100	-10.026000	26.145552	0.000575	20.830201
1798.460826	-2.990000	3.352300	-10.022000	26.144286	0.000576	20.826558
1799.463607	-2.984600	3.354000	-10.009000	26.155164	0.000575	20.785806
1800.461972	-2.981400	3.352100	-9.993200	26.157225	0.000574	20.828180
1801.462098	-3.005800	3.350200	-10.069000	26.114209	0.000576	20.831424
1802.466337	-2.998100	3.351700	-10.047000	26.082071	0.000574	20.832322
1803.463914	-3.008500	3.351900	-10.083000	26.029564	0.000575	20.837413
1804.462934	-2.993900	3.352000	-10.035000	26.023379	0.000574	20.828355
1805.464026	-3.013100	3.350700	-10.094000	26.017344	0.000573	20.831300
1806.468254	-3.011400	3.349900	-10.086000	26.027130	0.000573	20.843502
1807.465396	-3.002500	3.349600	-10.056000	26.061804	0.000572	20.822391
1808.464687	-3.023700	3.349100	-10.125000	26.066672	0.000574	20.841980
1809.466720	-3.001200	3.348800	-10.048000	26.078718	0.000570	20.826109
1810.467371	-3.007000	3.347400	-10.064000	26.093645	0.000573	20.842529
1811.467543	-2.983700	3.348900	-9.990400	26.100947	0.000571	20.829952
1812.464907	-3.013400	3.348500	-10.090000	26.136041	0.000571	20.834394
1813.465832	-2.995500	3.347900	-10.027000	26.065207	0.000571	20.835767
1814.465423	-2.997900	3.348200	-10.037000	26.036892	0.000572	20.814905
1815.467625	-3.015700	3.347000	-10.092000	26.035103	0.000571	20.824961
1816.466910	-3.011600	3.346100	-10.077000	26.044964	0.000570	20.826808
1817.472548	-3.006400	3.346400	-10.060000	26.044865	0.000571	20.818648
1818.468579	-2.989800	3.345700	-10.002000	26.055818	0.000570	20.828231
1819.470056	-3.021700	3.345200	-10.107000	26.051373	0.000567	20.835143
1820.470857	-3.023400	3.344900	-10.112000	26.010712	0.000568	20.830801
1821.471094	-3.000400	3.344900	-10.035000	25.999758	0.000566	20.830227
1822.472602	-3.016100	3.343300	-10.082000	25.994244	0.000567	20.836067
1823.472190	-2.991400	3.342900	-9.999000	26.024150	0.000567	20.859948
1824.475839	-2.999200	3.343700	-10.028000	26.054278	0.000568	20.833321
1825.471496	-3.007000	3.343200	-10.052000	26.067119	0.000565	20.823938
1826.471985	-3.002400	3.343800	-10.039000	26.082469	0.000565	20.855481
1827.472965	-3.016900	3.342800	-10.083000	26.080929	0.000564	20.856304
1828.472223	-3.004200	3.340400	-10.033000	26.083562	0.000566	20.837613
1829.473576	-2.987100	3.342000	-9.982000	26.085499	0.000564	20.840983
1830.477566	-3.038600	3.341500	-10.152000	26.107628	0.000561	20.847570
1831.472327	-3.014900	3.340800	-10.072000	26.133011	0.000563	20.829927
1832.475994	-2.977400	3.341700	-9.949000	26.147341	0.000562	20.851913
1833.476062	-3.001400	3.340400	-10.026000	26.154072	0.000562	20.849192
1834.474361	-2.995700	3.341100	-10.008000	26.171432	0.000560	20.840084
1835.474829	-2.985600	3.340000	-9.970500	26.221150	0.000560	20.834569
1836.474639	-2.990700	3.340000	-9.988100	26.228725	0.000560	20.847870
1837.476351	-2.971900	3.339800	-9.923800	26.230836	0.000559	20.841457
1838.476457	-2.983100	3.338800	-9.958500	26.219462	0.000559	20.849941
1839.474635	-3.012100	3.339400	-10.058000	26.241762	0.000559	20.830626
1840.474890	-3.000400	3.338500	-10.016000	26.243600	0.000558	20.866137
1841.477419	-3.017700	3.338400	-10.073000	26.244047	0.000557	20.852836
1842.473934	-3.008000	3.337800	-10.039000	26.284376	0.000554	20.836466
1843.476483	-3.022900	3.336100	-10.084000	26.247897	0.000556	20.854334
1844.478585	-2.981700	3.337300	-9.949900	26.263367	0.000555	20.836691
1845.476116	-2.975600	3.337600	-9.930000	26.262474	0.000553	20.856180
1846.476950	-2.978200	3.337600	-9.938200	26.273028	0.000553	20.847821
1847.475775	-2.991400	3.336400	-9.979600	26.233618	0.000553	20.850416
1848.477659	-3.023200	3.334800	-10.080000	26.216358	0.000553	20.846348
1849.476711	-3.003800	3.335200	-10.018000	26.203891	0.000553	20.862269
1850.477119	-2.975900	3.335500	-9.924800	26.166565	0.000551	20.845625
1851.477602	-2.992300	3.334900	-9.977600	26.167509	0.000551	20.838987
1852.482587	-3.023000	3.334400	-10.077000	26.177468	0.000551	20.862270
1853.478916	-3.014300	3.334400	-10.050000	26.187079	0.000548	20.874772
1854.480222	-3.000400	3.335000	-10.005000	26.168974	0.000550	20.843779
1855.484712	-2.980500	3.334400	-9.936600	26.198106	0.000547	20.854559
1856.480691	-3.000000	3.333100	-9.998800	26.213056	0.000549	20.846350
1857.480283	-2.996200	3.332900	-9.984700	26.226045	0.000547	20.852289
1858.483220	-2.989000	3.333000	-9.961300	26.241218	0.000547	20.871329
1859.485508	-3.007500	3.330500	-10.014000	26.231359	0.000549	20.846724
1860.481899	-2.986200	3.331700	-9.948800	26.197833	0.000548	20.858553
1861.486572	-3.014200	3.330700	-10.038000	26.143519	0.000546	20.860400
1862.485084	-3.006000	3.332000	-10.015000	26.101124	0.000546	20.854785
1863.483879	-3.007700	3.330300	-10.015000	26.095164	0.000544	20.839788
1864.482779	-2.990200	3.329900	-9.956300	26.095164	0.000544	20.846900
1865.484484	-3.000500	3.330000	-9.989700	26.117020	0.000544	20.873127
1866.485360	-3.013800	3.329200	-10.033000	26.168604	0.000545	20.861898
1867.486669	-3.015200	3.328600	-10.036000	26.228083	0.000543	20.847225
1868.486274	-2.996000	3.329100	-9.972300	26.259869	0.000542	20.864942
1869.484817	-3.014500	3.327900	-10.031000	26.285348	0.000544	20.861624
1870.485670	-3.013800	3.328000	-10.029000	26.309385	0.000542	20.874400
1871.483825	-2.994400	3.329600	-9.969500	26.314675	0.000542	20.882086
1872.486833	-3.015500	3.326300	-10.030000	26.341418	0.000540	20.828834
1873.485531	-3.016300	3.326700	-10.033000	26.364809	0.000541	20.851392
1874.484811	-3.012600	3.327100	-10.022000	26.368037	0.000540	20.875024
1875.486334	-2.977800	3.328400	-9.909900	26.365380	0.000540	20.850544
1876.487358	-2.980800	3.326000	-9.912500	26.379037	0.000540	20.858105
1877.489036	-2.989200	3.325900	-9.941100	26.399397	0.000540	20.864344
1878.488118	-2.996600	3.325200	-9.963200	26.404016	0.000540	20.875149
1879.486740	-2.981100	3.326100	-9.914700	26.378789	0.000541	20.876347
1880.493051	-2.970600	3.326000	-9.877200	26.389813	0.000541	20.877470
1881.489672	-2.985700	3.324800	-9.925300	26.327761	0.000537	20.861574
1882.485713	-3.002800	3.324500	-9.982000	26.353660	0.000541	20.880963
1883.487207	-2.959700	3.325000	-9.840300	26.383382	0.000539	20.886179
1884.487043	-2.983800	3.324600	-9.918700	26.404314	0.000540	20.877819
1885.488043	-2.991400	3.322500	-9.938500	26.419112	0.000536	20.873727
1886.487998	-3.007700	3.322400	-9.991300	26.403942	0.000537	20.885031
1887.486234	-3.016700	3.323400	-10.025000	26.412110	0.000538	20.870008
1888.486740	-3.003900	3.322000	-9.978200	26.400416	0.000538	20.865841
1889.488847	-3.015800	3.320900	-10.014000	26.401781	0.000535	20.859627
1890.486141	-2.992500	3.323800	-9.944900	26.394754	0.000538	20.877694
1891.487584	-2.986300	3.322600	-9.921000	26.372109	0.000535	20.876272
1892.489664	-3.005800	3.320600	-9.980000	26.345764	0.000533	20.885355
1893.486153	-3.001600	3.320300	-9.964900	26.367267	0.000533	20.875673
1894.488099	-3.011700	3.322300	-10.004000	26.350481	0.000534	20.902897
1895.489411	-2.999700	3.320100	-9.957500	26.357782	0.000534	20.882735
1896.488854	-3.013000	3.318900	-9.997500	26.399447	0.000531	20.890944
1897.488481	-3.015700	3.320300	-10.012000	26.364411	0.000532	20.881811
1898.490366	-2.988700	3.319100	-9.919400	26.333646	0.000529	20.899253
1899.489567	-3.014400	3.318700	-10.001000	26.282045	0.000529	20.872054
1900.491048	-3.020400	3.318000	-10.021000	26.300967	0.000528	20.906715
1901.490492	-3.001000	3.318900	-9.959100	26.358849	0.000530	20.888075
1902.493425	-3.008400	3.318100	-9.981600	26.384921	0.000527	20.881088
1903.491908	-3.004300	3.317400	-9.966000	26.396517	0.000525	20.889422
1904.491351	-3.027000	3.315600	-10.035000	26.428398	0.000525	20.907239
1905.491945	-2.995200	3.316100	-9.931400	26.417647	0.000525	20.896434
1906.493043	-3.002200	3.316500	-9.956000	26.447516	0.000526	20.869085
1907.492811	-3.019900	3.313600	-10.006000	26.464002	0.000524	20.903671
1908.491728	-3.007400	3.315900	-9.971100	26.489724	0.000523	20.913402
1909.493092	-3.007300	3.314900	-9.968400	26.489029	0.000523	20.910333
1910.503088	-3.036100	3.314200	-10.060000	26.485603	0.000524	20.887451
1911.494845	-2.983900	3.314200	-9.888400	26.490842	0.000522	20.905518
1912.506722	-2.977900	3.315400	-9.871500	26.467901	0.000524	20.902373
1913.493323	-2.982800	3.315200	-9.887200	26.452979	0.000520	20.892591
1914.494359	-2.985500	3.314200	-9.893400	26.436368	0.000522	20.915249
1915.497324	-2.981000	3.312800	-9.874000	26.401359	0.000523	20.902348
1916.494524	-2.973900	3.313200	-9.851300	26.378689	0.000521	20.893789
1917.494162	-2.967600	3.312600	-9.828800	26.356268	0.000521	20.898755
1918.497345	-3.007700	3.312600	-9.963100	26.335831	0.000519	20.915673
1919.500017	-3.034200	3.310400	-10.042000	26.331586	0.000521	20.901924
1920.494096	-3.002100	3.312100	-9.942900	26.332951	0.000520	20.899030
1921.498260	-2.998300	3.311400	-9.926500	26.354406	0.000516	20.896410
1922.498986	-2.995800	3.311800	-9.919400	26.391353	0.000518	20.921213
1923.495787	-2.990300	3.311400	-9.901000	26.403371	0.000518	20.916222
1924.495587	-3.001500	3.310400	-9.935000	26.415016	0.000516	20.915125
1925.496249	-3.001900	3.309000	-9.932100	26.413576	0.000515	20.907988
1926.502104	-3.022200	3.309400	-10.000000	26.367889	0.000514	20.916123
1927.496727	-2.996700	3.309800	-9.917300	26.344250	0.000513	20.910384
1928.499561	-2.996200	3.309100	-9.912500	26.365058	0.000512	20.891943
1929.499953	-3.009700	3.309200	-9.958600	26.400441	0.000513	20.924183
1930.498005	-3.016700	3.307700	-9.977000	26.414197	0.000511	20.920465
1931.503202	-2.985600	3.308200	-9.876100	26.438431	0.000511	20.919218
1932.496555	-2.989300	3.307400	-9.885800	26.478454	0.000510	20.913928
1933.497788	-2.996200	3.306800	-9.906900	26.497323	0.000510	20.911558
1934.500112	-2.995400	3.307700	-9.906400	26.539777	0.000508	20.917247
1935.500679	-2.989900	3.306900	-9.885900	26.522052	0.000509	20.902276
1936.497177	-3.017400	3.305600	-9.973000	26.515423	0.000507	20.913155
1937.499320	-3.009900	3.305900	-9.947700	26.488982	0.000507	20.931621
1938.502397	-3.002700	3.305000	-9.922900	26.481559	0.000509	20.915626
1939.500360	-2.998500	3.305900	-9.911400	26.486053	0.000506	20.940529
1940.504238	-3.013100	3.304600	-9.955800	26.472298	0.000506	20.915327
1941.500868	-3.000800	3.305100	-9.916500	26.495091	0.000506	20.909314
1942.500640	-3.013200	3.304700	-9.956400	26.483397	0.000505	20.917948
1943.499430	-2.985400	3.305900	-9.868200	26.511452	0.000505	20.915328
1944.501086	-3.003600	3.303300	-9.920800	26.547352	0.000504	20.934342
1945.500197	-2.994200	3.304400	-9.892100	26.526051	0.000505	20.932371
1946.499947	-3.001100	3.303000	-9.911300	26.473417	0.000506	20.907444
1947.502632	-2.990000	3.304500	-9.879400	26.427485	0.000503	20.927656
1948.500722	-2.988900	3.302200	-9.869100	26.461178	0.000502	20.915529
1949.501232	-2.983000	3.302000	-9.848700	26.474163	0.000502	20.937113
1950.502431	-2.987200	3.302400	-9.863700	26.504702	0.000503	20.919447
1951.505976	-2.980000	3.301800	-9.837400	26.578064	0.000502	20.912111
1952.503033	-2.992500	3.300000	-9.874400	26.583997	0.000501	20.922342
1953.503163	-3.025200	3.300100	-9.982800	26.598048	0.000500	20.935517
1954.506439	-3.005600	3.300000	-9.917700	26.618901	0.000503	20.948417
1955.507512	-3.001200	3.299200	-9.900400	26.645315	0.000499	20.936091
1956.505625	-3.001700	3.299700	-9.903400	26.653134	0.000500	20.912186
1957.509108	-2.991200	3.299500	-9.869000	26.670238	0.000498	20.948343
1958.510629	-2.995400	3.299500	-9.882200	26.640549	0.000498	20.933671
1959.507351	-2.986400	3.298900	-9.851200	26.600929	0.000499	20.953583
1960.508282	-2.994500	3.297600	-9.873800	26.615650	0.000497	20.940409
1961.513070	-2.986700	3.298300	-9.849800	26.586605	0.000498	20.918325
1962.506787	-3.016000	3.295800	-9.938800	26.593531	0.000496	20.951363
1963.510130	-3.012800	3.297900	-9.934800	26.564212	0.000497	20.920471
1964.512085	-3.003200	3.297400	-9.901500	26.533774	0.000496	20.939185
1965.508705	-3.024900	3.295600	-9.966400	26.488341	0.000494	20.903004
1966.509450	-2.983000	3.297300	-9.834400	26.470688	0.000494	20.947844
1967.510833	-2.995900	3.295600	-9.872800	26.467609	0.000494	20.915356
1968.508022	-3.002200	3.295700	-9.892900	26.493505	0.000494	20.918150
1969.509351	-2.988300	3.295300	-9.846400	26.498495	0.000493	20.924588
1970.510634	-2.982600	3.295000	-9.826700	26.504677	0.000492	20.915630
1971.508872	-2.998500	3.295300	-9.879600	26.547280	0.000494	20.929529
1972.507388	-2.976100	3.293300	-9.800500	26.524489	0.000492	20.930327
1973.509025	-2.991600	3.293700	-9.852800	26.483077	0.000490	20.922842
1974.508539	-2.995100	3.293000	-9.861300	26.490203	0.000489	20.931899
1975.510386	-2.996500	3.294200	-9.870300	26.469049	0.000491	20.916803
1976.510111	-2.999100	3.292200	-9.872400	26.486504	0.000488	20.923440
1977.508224	-3.001900	3.292100	-9.879600	26.490178	0.000488	20.926659
1978.511280	-3.005300	3.291200	-9.890000	26.499687	0.000489	20.916778
1979.512837	-2.986900	3.292700	-9.833400	26.483077	0.000486	20.938961
1980.513305	-2.996700	3.290800	-9.860600	26.504279	0.000486	20.913334
1981.510287	-3.015900	3.290500	-9.922300	26.524861	0.000486	20.928805
1982.508934	-3.008100	3.290400	-9.896700	26.560090	0.000484	20.913957
1983.511963	-3.002900	3.290100	-9.877500	26.570839	0.000485	20.910065
1984.511168	-2.999100	3.290600	-9.868100	26.594995	0.000484	20.920595
1985.511598	-2.997100	3.289300	-9.855700	26.629327	0.000483	20.907220
1986.511399	-3.009500	3.289600	-9.899000	26.664552	0.000482	20.914656
1987.513440	-3.007800	3.288300	-9.890000	26.667904	0.000483	20.910439
1988.511838	-2.989800	3.288300	-9.830400	26.659414	0.000482	20.905698
1989.512804	-3.005300	3.287900	-9.880400	26.686223	0.000481	20.899934
1990.513468	-3.004400	3.288600	-9.878900	26.655318	0.000480	20.916752
1991.513001	-3.007300	3.286700	-9.882400	26.634292	0.000480	20.887557
1992.515063	-3.020500	3.287200	-9.927300	26.650999	0.000480	20.912884
1993.513719	-3.001000	3.287900	-9.865400	26.659886	0.000480	20.923714
1994.516064	-2.993000	3.286900	-9.836900	26.655591	0.000479	20.917027
1995.517379	-2.977600	3.286300	-9.784200	26.655119	0.000479	20.895218
1996.516182	-3.004800	3.285300	-9.870200	26.656981	0.000475	20.915105
1997.517333	-3.010600	3.285600	-9.890100	26.619596	0.000476	20.906920
1998.515069	-3.007800	3.284800	-9.878200	26.618404	0.000476	20.903826
1999.518816	-2.996300	3.286300	-9.845900	26.611205	0.000475	20.924562
2000.517660	-3.004800	3.284300	-9.867600	26.604229	0.000475	20.911961
2001.518079	-2.992300	3.283800	-9.824300	26.621830	0.000473	20.912485
2002.520134	-3.005800	3.284800	-9.871300	26.650923	0.000474	20.915179
2003.518652	-3.005000	3.283100	-9.864100	26.664850	0.000472	20.902154
2004.521921	-2.977200	3.284500	-9.776900	26.694240	0.000472	20.896140
2005.518903	-2.991800	3.282800	-9.820900	26.661399	0.000470	20.902478
2006.525208	-2.981500	3.283900	-9.789700	26.674878	0.000468	20.905123
2007.523332	-3.028500	3.281400	-9.936000	26.675350	0.000468	20.901804
2008.522895	-2.994100	3.281300	-9.823800	26.725268	0.000470	20.909315
2009.527744	-2.984100	3.283100	-9.795900	26.710921	0.000466	20.896314
2010.527831	-3.009300	3.280600	-9.870800	26.680786	0.000467	20.891149
2011.523340	-3.004000	3.281300	-9.856300	26.658469	0.000467	20.905223
2012.522353	-3.003000	3.280800	-9.851000	26.671998	0.000466	20.919296
2013.527416	-3.002900	3.280300	-9.849600	26.691907	0.000464	20.892372
2014.524863	-2.996000	3.279500	-9.823800	26.666935	0.000463	20.898086
2015.524004	-2.993500	3.278700	-9.813100	26.650898	0.000462	20.873906
2016.526908	-2.972300	3.279400	-9.746300	26.678304	0.000463	20.899084
2017.524826	-2.995600	3.278200	-9.818400	26.701414	0.000459	20.882965
2018.525589	-3.012400	3.277500	-9.871300	26.737233	0.000461	20.891474
2019.527739	-2.980600	3.277400	-9.767500	26.723929	0.000461	20.913184
2020.527294	-2.991900	3.278900	-9.808700	26.743315	0.000458	20.899959
2021.526695	-3.007700	3.276200	-9.852400	26.756272	0.000459	20.889279
2022.528860	-3.001000	3.277200	-9.833700	26.768385	0.000459	20.882492
2023.527566	-3.009800	3.277100	-9.862400	26.780597	0.000458	20.890502
2024.525733	-3.008700	3.275300	-9.852200	26.813113	0.000456	20.882892
2025.527402	-3.032200	3.275700	-9.930800	26.818673	0.000456	20.889904
2026.527820	-3.018700	3.274700	-9.884900	26.812791	0.000456	20.882094
2027.528127	-3.009700	3.273600	-9.851500	26.785017	0.000455	20.871239
2028.528214	-2.984700	3.275100	-9.774300	26.800406	0.000455	20.877703
2029.532942	-2.987000	3.273400	-9.776000	26.805519	0.000453	20.902282
2030.530010	-3.001700	3.274300	-9.826700	26.780476	0.000454	20.880897
2031.529257	-2.981600	3.274400	-9.761000	26.812519	0.000452	20.900786
2032.532749	-3.033400	3.272500	-9.926300	26.825079	0.000452	20.879277
2033.529599	-3.011800	3.273800	-9.858000	26.845555	0.000451	20.879476
2034.529258	-3.000900	3.274000	-9.822400	26.866106	0.000450	20.888285
2035.539301	-2.990700	3.272500	-9.785800	26.860324	0.000448	20.868722
2036.531426	-3.013700	3.272100	-9.859600	26.863824	0.000449	20.887413
2037.531419	-3.018000	3.272400	-9.874100	26.826248	0.000448	20.875710
2038.530766	-2.977800	3.272700	-9.744900	26.767647	0.000446	20.897396
2039.532035	-3.001800	3.271300	-9.818500	26.764942	0.000446	20.890409
2040.531700	-2.966800	3.272900	-9.708800	26.741685	0.000446	20.873666
2041.529935	-2.987200	3.271200	-9.769700	26.753649	0.000445	20.872419
2042.532903	-2.984300	3.270100	-9.758100	26.779787	0.000443	20.868826
2043.532072	-3.010900	3.270200	-9.845200	26.787879	0.000443	20.857997
2044.533010	-2.998300	3.268500	-9.798200	26.836503	0.000444	20.867530
2045.535638	-3.008400	3.267500	-9.828900	26.841815	0.000445	20.871448
2046.532866	-2.996400	3.270400	-9.797600	26.865692	0.000442	20.851835
2047.534914	-2.993200	3.268700	-9.781800	26.878822	0.000441	20.864563
2048.535502	-2.974700	3.267900	-9.720300	26.918383	0.000440	20.869729
2049.539654	-3.013700	3.266500	-9.843000	26.929973	0.000440	20.866211
2050.535396	-3.012800	3.265900	-9.838100	26.920319	0.000439	20.874995
2051.536491	-2.991900	3.266800	-9.773300	26.846833	0.000439	20.855158
2052.541351	-2.990100	3.265700	-9.764000	26.795407	0.000438	20.871254
2053.541886	-3.021200	3.264300	-9.861500	26.787241	0.000437	20.866363
2054.535959	-3.001000	3.266400	-9.801400	26.737376	0.000439	20.870756
2055.542324	-2.967600	3.265600	-9.689900	26.754304	0.000437	20.881137
2056.538487	-3.019800	3.264000	-9.856000	26.765252	0.000436	20.844257
2057.544008	-2.986100	3.264200	-9.746600	26.784538	0.000436	20.866017
2058.541585	-3.002800	3.264100	-9.800800	26.859743	0.000436	20.868612
2059.544590	-3.000200	3.263600	-9.790300	26.827007	0.000435	20.849923
2060.541434	-2.984700	3.263300	-9.738900	26.744454	0.000434	20.843261
2061.542737	-3.000700	3.263100	-9.789800	26.718664	0.000434	20.843411
2062.543521	-3.008700	3.262500	-9.814400	26.715537	0.000434	20.840741
2063.543518	-2.995900	3.263300	-9.775400	26.757338	0.000435	20.859059
2064.542867	-3.027000	3.261900	-9.872900	26.777865	0.000433	20.841766
2065.543872	-2.997200	3.263000	-9.778800	26.817256	0.000434	20.856713
2066.541575	-3.008600	3.260900	-9.809300	26.871115	0.000431	20.833107
2067.542948	-3.004200	3.261200	-9.795400	26.906952	0.000431	20.864874
2068.544398	-2.975900	3.261100	-9.703300	26.909261	0.000431	20.844437
2069.542243	-2.991500	3.260000	-9.751800	26.926484	0.000432	20.843738
2070.547880	-3.016900	3.260000	-9.833700	26.948746	0.000430	20.850003
2071.545280	-3.006700	3.258100	-9.795400	26.925319	0.000429	20.840670
2072.546808	-3.008100	3.258400	-9.800600	26.871315	0.000429	20.835205
2073.547263	-2.989100	3.258500	-9.739400	26.840167	0.000429	20.835654
2074.546461	-3.003100	3.256300	-9.777200	26.844237	0.000427	20.835954
2075.545804	-3.004600	3.258600	-9.789900	26.835973	0.000427	20.854670
2076.548398	-2.981400	3.259200	-9.715700	26.834012	0.000426	20.833733
2077.547163	-3.016800	3.255300	-9.820100	26.851857	0.000426	20.836503
2078.552959	-2.989000	3.256200	-9.731500	26.873202	0.000427	20.846111
2079.549019	-2.979900	3.255500	-9.699700	26.897946	0.000423	20.828792
2080.546963	-3.004800	3.253300	-9.774600	26.886059	0.000423	20.826323
2081.552599	-3.012800	3.253700	-9.801800	26.878092	0.000422	20.829217
2082.549907	-3.025300	3.254000	-9.841900	26.901893	0.000423	20.846985
2083.549128	-3.004500	3.254900	-9.778000	26.910951	0.000423	20.837602
2084.550912	-3.013700	3.253300	-9.803400	26.959172	0.000423	20.832512
2085.558744	-2.977900	3.254600	-9.691300	26.955102	0.000421	20.825574
2086.551594	-3.022900	3.253200	-9.832100	26.975799	0.000422	20.824576
2087.553358	-2.985200	3.252700	-9.708700	26.944828	0.000418	20.847011
2088.557371	-3.027600	3.251100	-9.840900	26.938152	0.000419	20.836979
2089.550782	-2.986500	3.253300	-9.714400	26.888070	0.000418	20.833561
2090.552414	-3.035100	3.250400	-9.864000	26.853274	0.000418	20.818962
2091.553363	-3.020800	3.251700	-9.822100	26.871615	0.000418	20.817490
2092.557038	-2.984600	3.249900	-9.699200	26.838804	0.000418	20.830965
2093.557542	-3.002700	3.249700	-9.756500	26.851214	0.000418	20.851503
2094.554946	-3.017500	3.247800	-9.797500	26.855880	0.000416	20.832014
2095.554353	-3.015600	3.248300	-9.794400	26.834983	0.000416	20.837080
2096.555786	-2.991200	3.249700	-9.719500	26.835553	0.000414	20.845713
2097.553631	-2.987500	3.249700	-9.707200	26.833071	0.000414	20.819985
2098.554765	-3.018500	3.249000	-9.806600	26.853497	0.000412	20.811600
2099.559566	-3.032300	3.246300	-9.842600	26.883652	0.000413	20.822954
2100.554446	-2.982000	3.248200	-9.684800	26.921152	0.000414	20.826049
2101.554342	-2.993300	3.247800	-9.720300	26.898741	0.000415	20.825325
2102.553274	-3.020800	3.245700	-9.804000	26.884147	0.000411	20.846685
2103.557332	-2.988200	3.247300	-9.702200	26.947805	0.000412	20.810650
2104.554426	-3.005000	3.246300	-9.753100	26.936562	0.000412	20.822578
2105.554909	-2.998600	3.246900	-9.735300	26.944726	0.000409	20.827469
2106.559220	-3.003400	3.247600	-9.753300	26.948077	0.000409	20.833683
2107.557993	-2.993700	3.246000	-9.716200	26.994631	0.000410	20.828815
2108.554090	-3.014400	3.244700	-9.779900	26.990537	0.000405	20.821379
2109.555137	-3.000900	3.243800	-9.733400	26.979543	0.000405	20.831186
2110.557388	-2.980300	3.245400	-9.671100	26.959143	0.000405	20.831061
2111.555986	-3.012500	3.244000	-9.771100	26.980981	0.000406	20.829313
2112.558731	-3.020300	3.242700	-9.791300	26.986441	0.000404	20.843338
2113.558366	-3.021000	3.242600	-9.793900	27.031803	0.000401	20.830635
2114.558144	-3.018700	3.240800	-9.782300	27.055054	0.000403	20.815612
2115.565086	-3.005000	3.243100	-9.743900	26.984206	0.000402	20.829237
2116.558707	-3.013300	3.242000	-9.768000	26.972914	0.000400	20.830210
2117.557991	-3.014300	3.241200	-9.768900	26.948817	0.000400	20.818306
2118.559883	-3.011300	3.240600	-9.758000	26.950802	0.000397	20.815561
2119.558663	-3.001800	3.239100	-9.722100	26.992592	0.000397	20.819179
2120.557555	-2.999900	3.240500	-9.720900	27.021825	0.000397	20.825816
2121.559511	-3.006800	3.241000	-9.744200	27.052893	0.000395	20.823870
2122.558404	-3.012600	3.238900	-9.755200	27.020162	0.000397	20.806127
2123.557336	-3.024200	3.237700	-9.789800	27.037235	0.000394	20.823296
2124.558306	-3.023400	3.237800	-9.787900	27.047979	0.000394	20.808497
2125.559910	-3.022700	3.237100	-9.783500	27.062446	0.000394	20.820675
2126.559671	-3.013600	3.237500	-9.754700	27.008796	0.000392	20.842111
2127.558784	-3.012900	3.237100	-9.751100	26.966087	0.000391	20.825241
2128.559484	-3.006000	3.235600	-9.725000	26.940997	0.000391	20.819452
2129.560129	-3.006000	3.237800	-9.731900	26.922756	0.000389	20.838093
2130.560258	-3.004500	3.234900	-9.718900	26.919629	0.000390	20.818353
2131.565108	-3.003100	3.235600	-9.715900	26.936009	0.000388	20.814910
2132.561540	-2.983400	3.236400	-9.654700	26.948715	0.000386	20.785487
2133.559669	-3.011600	3.233300	-9.736100	26.968022	0.000386	20.824342
2134.563506	-2.982500	3.234900	-9.647100	26.990357	0.000384	20.822621
2135.562121	-3.016300	3.233200	-9.751000	27.025620	0.000386	20.818728
2136.563927	-3.005700	3.233100	-9.717300	27.011054	0.000384	20.824942
2137.563365	-3.000200	3.233300	-9.700400	27.042966	0.000386	20.831430
2138.565334	-3.011000	3.231900	-9.729800	27.037160	0.000384	20.818005
2139.565226	-3.001200	3.233900	-9.705000	27.047383	0.000382	20.811691
2140.563953	-3.000900	3.233500	-9.702300	27.086242	0.000382	20.802407
2141.563724	-3.008400	3.231200	-9.718400	27.068997	0.000381	20.808771
2142.565023	-3.005000	3.230600	-9.707300	27.053761	0.000381	20.810044
2143.561767	-3.006100	3.230800	-9.710600	27.050535	0.000381	20.800636
2144.563982	-2.995800	3.230700	-9.677200	27.057533	0.000381	20.794397
2145.563617	-2.997400	3.229700	-9.679000	27.057112	0.000380	20.808198
2146.566750	-3.011200	3.228200	-9.720000	27.054134	0.000381	20.798566
2147.563810	-3.003800	3.228600	-9.697500	27.047385	0.000379	20.823546
2148.564528	-2.996300	3.229100	-9.674700	27.056268	0.000379	20.798815
2149.565228	-3.004500	3.229700	-9.702600	27.032421	0.000378	20.808972
2150.563823	-3.003000	3.227800	-9.692100	27.011303	0.000377	20.787261
2151.564544	-3.003000	3.226800	-9.689800	27.034332	0.000376	20.805678
2152.565054	-3.011700	3.226400	-9.716000	27.073389	0.000376	20.800387
2153.565159	-3.004000	3.225800	-9.689500	27.074432	0.000376	20.797642
2154.565747	-3.005200	3.225900	-9.692700	27.060586	0.000374	20.797468
2155.565178	-2.993000	3.225800	-9.653200	27.087286	0.000373	20.795396
2156.565238	-2.983400	3.225100	-9.620500	27.118823	0.000373	20.791553
2157.565887	-2.984000	3.225900	-9.624700	27.140312	0.000372	20.794673
2158.569005	-2.984200	3.225300	-9.623600	27.146143	0.000370	20.796270
2159.566710	-2.989300	3.225300	-9.640500	27.136292	0.000372	20.807225
2160.569684	-3.032100	3.223200	-9.772200	27.169615	0.000368	20.783842
2161.566472	-3.017800	3.223500	-9.727300	27.173535	0.000370	20.798217
2162.567552	-3.010700	3.221000	-9.696600	27.176488	0.000369	20.777004
2163.569146	-2.989200	3.222500	-9.632100	27.159715	0.000366	20.790006
2164.570745	-3.039600	3.221200	-9.788600	27.143687	0.000365	20.801860
2165.567698	-3.006500	3.221500	-9.684500	27.127385	0.000366	20.808698
2166.568574	-2.995300	3.222400	-9.651100	27.128675	0.000363	20.802410
2167.567380	-3.013000	3.219700	-9.699400	27.090314	0.000364	20.787062
2168.571801	-3.014700	3.219900	-9.706200	27.107138	0.000361	20.795448
2169.568245	-3.011300	3.219800	-9.694600	27.157087	0.000362	20.794001
2170.568730	-3.003900	3.218000	-9.665800	27.162149	0.000361	20.791031
2171.569817	-2.998900	3.218400	-9.649500	27.197158	0.000360	20.808700
2172.569373	-2.970700	3.219400	-9.562200	27.225021	0.000360	20.792629
2173.572219	-3.014100	3.216600	-9.693200	27.247723	0.000359	20.800765
2174.570766	-3.004600	3.216800	-9.664000	27.215395	0.000361	20.804284
2175.569197	-2.995500	3.217300	-9.635700	27.172993	0.000358	20.778704
2176.570709	-3.025900	3.215900	-9.729900	27.163366	0.000355	20.777557
2177.569217	-2.998600	3.216100	-9.642200	27.173589	0.000355	20.779304
2178.572586	-2.994300	3.217300	-9.632500	27.163342	0.000355	20.780852
2179.572521	-2.995400	3.215800	-9.631800	27.192298	0.000354	20.782000
2180.568763	-3.025600	3.215700	-9.727700	27.218574	0.000356	20.781877
2181.570506	-2.996200	3.215600	-9.633100	27.242441	0.000353	20.772219
2182.570196	-3.020900	3.214800	-9.710100	27.260876	0.000354	20.776063
2183.570148	-3.032600	3.212200	-9.739400	27.303796	0.000351	20.783200
2184.572234	-3.004200	3.213400	-9.652800	27.328381	0.000353	20.782327
2185.579195	-2.995000	3.212400	-9.620800	27.305087	0.000351	20.777386
2186.570905	-2.999100	3.210900	-9.629300	27.317591	0.000350	20.778111
2187.571924	-2.992200	3.212000	-9.609700	27.296107	0.000351	20.769302
2188.569542	-3.015000	3.210100	-9.676600	27.304070	0.000349	20.766880
2189.571172	-3.027100	3.210600	-9.717200	27.280751	0.000349	20.792261
2190.575540	-2.977400	3.210600	-9.557400	27.315582	0.000350	20.757598
2191.571162	-2.961300	3.211800	-9.510300	27.316030	0.000346	20.785550
2192.573847	-3.019000	3.207900	-9.682800	27.363066	0.000347	20.770277
2193.572111	-3.006200	3.207800	-9.642200	27.315360	0.000346	20.790565
2194.571842	-2.997800	3.207700	-9.615500	27.302039	0.000346	20.778588
2195.575290	-2.989400	3.208200	-9.590200	27.239867	0.000345	20.791914
2196.573591	-3.011900	3.207800	-9.658800	27.223095	0.000347	20.768880
2197.576896	-2.985400	3.207400	-9.574600	27.223566	0.000345	20.762242
2198.577508	-2.987500	3.207900	-9.582900	27.281721	0.000345	20.767633
2199.572688	-3.005500	3.206400	-9.635200	27.235897	0.000343	20.754730
2200.575342	-3.002900	3.206000	-9.627200	27.209226	0.000344	20.760146
2201.578655	-2.976700	3.206600	-9.543800	27.173598	0.000345	20.771252
2202.575788	-2.963800	3.206900	-9.504300	27.154740	0.000341	20.760821
2203.575998	-2.984700	3.205900	-9.567600	27.154467	0.000342	20.786625
2204.576047	-3.020900	3.203500	-9.676500	27.169826	0.000341	20.765088
2205.578873	-2.985800	3.204500	-9.567500	27.191511	0.000341	20.775520
2206.579953	-2.979100	3.202400	-9.539200	27.256714	0.000340	20.762393
2207.576546	-2.995700	3.203100	-9.594900	27.270036	0.000340	20.762043
2208.580260	-3.005300	3.203800	-9.626700	27.264232	0.000339	20.769955
2209.579316	-2.997200	3.201600	-9.594800	27.266340	0.000336	20.778240
2210.579383	-2.980100	3.201000	-9.539000	27.255473	0.000337	20.770628
2211.580932	-2.992600	3.201100	-9.578300	27.259567	0.000336	20.784704
2212.578851	-2.993900	3.200300	-9.580300	27.220070	0.000334	20.757303
2213.581985	-3.000700	3.199900	-9.600900	27.231805	0.000333	20.766735
2214.579642	-2.986800	3.200000	-9.556400	27.259543	0.000332	20.749116
2215.588013	-2.988100	3.199000	-9.558000	27.261329	0.000330	20.770354
2216.583528	-2.986100	3.197700	-9.546500	27.281450	0.000333	20.778740
2217.582411	-2.994400	3.199800	-9.580700	27.313379	0.000331	20.768184
2218.583572	-2.986200	3.198500	-9.551100	27.331663	0.000329	20.773300
2219.583477	-2.992900	3.196700	-9.565800	27.349178	0.000329	20.760099
2220.579944	-3.019700	3.194700	-9.646700	27.295294	0.000330	20.784131
2221.582771	-2.988600	3.197300	-9.552500	27.295939	0.000327	20.766762
2222.583407	-3.003200	3.194700	-9.592200	27.304623	0.000326	20.754634
2223.583140	-2.982700	3.194400	-9.526700	27.334815	0.000326	20.754185
2224.587065	-2.963000	3.195400	-9.466200	27.297181	0.000326	20.759950
2225.586832	-3.011300	3.196000	-9.623600	27.265053	0.000323	20.775049
2226.584574	-3.007400	3.195200	-9.608200	27.321196	0.000324	20.756606
2227.584934	-3.001900	3.192700	-9.583400	27.349975	0.000323	20.760900
2228.585310	-2.994500	3.194700	-9.565900	27.366843	0.000323	20.783560
2229.584387	-2.980200	3.192500	-9.513800	27.346278	0.000323	20.748646
2230.584959	-2.984600	3.193500	-9.530000	27.301673	0.000322	20.751667
2231.585577	-3.013100	3.192600	-9.617900	27.283489	0.000321	20.751393
2232.584692	-3.013200	3.190300	-9.611400	27.265900	0.000323	20.774952
2233.586486	-3.026300	3.189600	-9.651900	27.254909	0.000321	20.778596
2234.586120	-3.009000	3.191500	-9.601600	27.273467	0.000317	20.765495
2235.587144	-2.988900	3.190700	-9.536200	27.275279	0.000318	20.765895
2236.585571	-2.995000	3.190000	-9.553000	27.324847	0.000318	20.766918
2237.587248	-3.028400	3.187300	-9.650700	27.349705	0.000316	20.746404
2238.588409	-2.988200	3.188000	-9.525600	27.415890	0.000316	20.758458
2239.585579	-3.014900	3.186100	-9.605500	27.443079	0.000316	20.754517
2240.593852	-3.037600	3.186400	-9.677100	27.429311	0.000315	20.757736
2241.588600	-3.002900	3.186300	-9.567200	27.431074	0.000313	20.749551
2242.586434	-3.003300	3.187200	-9.571400	27.416735	0.000315	20.748402
2243.587220	-3.009700	3.185700	-9.587700	27.416166	0.000314	20.760632
2244.589358	-2.994800	3.187000	-9.543600	27.387365	0.000313	20.755840
2245.587212	-3.007500	3.183500	-9.573400	27.401630	0.000313	20.743163
2246.586852	-2.999900	3.184200	-9.551400	27.427503	0.000313	20.772986
2247.586690	-2.997300	3.185100	-9.545600	27.478925	0.000311	20.773511
2248.586095	-3.017800	3.182900	-9.604500	27.499661	0.000312	20.780623
2249.600406	-2.979100	3.184500	-9.484600	27.481603	0.000311	20.750600
2250.588259	-2.979300	3.182000	-9.479100	27.507649	0.000311	20.763055
2251.588580	-2.998600	3.181900	-9.540500	27.508243	0.000309	20.758437
2252.590426	-2.998500	3.181700	-9.538500	27.523175	0.000312	20.766348
2253.589737	-2.986400	3.179900	-9.494300	27.503506	0.000310	20.783069
2254.588358	-3.007300	3.179300	-9.560100	27.485523	0.000308	20.766399
2255.589189	-3.012600	3.179600	-9.577800	27.477362	0.000308	20.764352
2256.588475	-3.014900	3.179000	-9.582700	27.510527	0.000306	20.788236
2257.588778	-2.999700	3.178500	-9.533900	27.530121	0.000307	20.759112
2258.589952	-2.977900	3.180200	-9.469400	27.537015	0.000306	20.765575
2259.591579	-3.031500	3.181400	-9.643500	27.571542	0.000305	20.780399
2260.590124	-3.022100	3.178400	-9.604000	27.563034	0.000304	20.759985
2261.589849	-2.980800	3.177300	-9.470700	27.569309	0.000306	20.767721
2262.590755	-3.031300	3.176100	-9.627100	27.599221	0.000304	20.779800
2263.595969	-3.002000	3.176000	-9.532300	27.628190	0.000304	20.772913
2264.591662	-3.011200	3.173500	-9.556000	27.675832	0.000302	20.776282
2265.594521	-2.984900	3.174300	-9.474100	27.639275	0.000303	20.774110
2266.594723	-3.026900	3.172100	-9.600600	27.627916	0.000301	20.766474
2267.591941	-3.003000	3.174100	-9.530600	27.629256	0.000303	20.780624
2268.595933	-3.002900	3.172300	-9.525100	27.662910	0.000300	20.765650
2269.596741	-2.999900	3.172200	-9.515000	27.636894	0.000301	20.768870
2270.592291	-3.003400	3.171000	-9.523200	27.639969	0.000299	20.781447
2271.593796	-2.980700	3.172900	-9.456900	27.605645	0.000299	20.790531
2272.598677	-2.998400	3.171100	-9.506600	27.650956	0.000297	20.783967
2273.591331	-2.987600	3.169900	-9.469900	27.664745	0.000299	20.794049
2274.597290	-2.995500	3.168500	-9.490300	27.665265	0.000300	20.781297
2275.601558	-2.997300	3.169100	-9.498300	27.706284	0.000298	20.779898
2276.596152	-2.981400	3.169100	-9.447700	27.739316	0.000298	20.773784
2277.599715	-2.988700	3.167200	-9.465100	27.769371	0.000298	20.798341
2278.603550	-2.985500	3.167700	-9.455900	27.757591	0.000297	20.783641
2279.599152	-2.996100	3.166800	-9.486100	27.702140	0.000296	20.786161
2280.602197	-3.017200	3.164600	-9.547100	27.610875	0.000297	20.786785
2281.599472	-2.991200	3.166100	-9.469300	27.577912	0.000294	20.797715
2282.599840	-3.028400	3.164500	-9.580700	27.519229	0.000293	20.787034
2283.601152	-3.008500	3.163500	-9.515300	27.441069	0.000292	20.778573
2284.602456	-3.000100	3.165200	-9.495000	27.421868	0.000292	20.780120
2285.600586	-2.990400	3.163000	-9.457700	27.407109	0.000292	20.791824
2286.601027	-2.991400	3.161800	-9.457300	27.436305	0.000292	20.794643
2287.603752	-2.997200	3.161100	-9.473500	27.399790	0.000292	20.788254
2288.601977	-2.999800	3.160000	-9.478300	27.425885	0.000290	20.778946
2289.601111	-2.997800	3.160400	-9.473100	27.458033	0.000291	20.798486
2290.604177	-2.974200	3.160000	-9.397300	27.461754	0.000289	20.802703
2291.603374	-3.026100	3.158700	-9.556700	27.445953	0.000289	20.779220
2292.603089	-2.993800	3.159700	-9.458900	27.426926	0.000290	20.787579
2293.605227	-2.994700	3.159700	-9.462300	27.414969	0.000288	20.789775
2294.604149	-3.016000	3.158400	-9.524600	27.398274	0.000287	20.776298
2295.602257	-2.980600	3.158100	-9.412500	27.375899	0.000287	20.803575
2296.607625	-3.015600	3.157100	-9.519200	27.362527	0.000286	20.783960
2297.603138	-3.006500	3.155300	-9.485300	27.407675	0.000287	20.813257
2298.601363	-2.994800	3.155700	-9.450200	27.388375	0.000287	20.809488
2299.604570	-2.979300	3.155300	-9.399600	27.362005	0.000285	20.817099
2300.603420	-2.993300	3.154100	-9.440400	27.326281	0.000285	20.796810
2301.601931	-2.984600	3.154600	-9.414200	27.327844	0.000283	20.805494
2302.601767	-3.004500	3.153200	-9.473200	27.378823	0.000282	20.795137
2303.603820	-2.988900	3.152800	-9.421800	27.421738	0.000283	20.824085
2304.602662	-3.010100	3.151400	-9.484400	27.439896	0.000281	20.796360
2305.605074	-2.998200	3.150600	-9.445000	27.496624	0.000282	20.812655
2306.607694	-3.004900	3.150400	-9.465300	27.512250	0.000282	20.793289
2307.606032	-3.013900	3.150600	-9.494000	27.534524	0.000279	20.813328
2308.606804	-3.015300	3.147700	-9.490300	27.555606	0.000279	20.820789
2309.608422	-2.996000	3.147800	-9.429700	27.599482	0.000278	20.808986
2310.605975	-3.003300	3.148300	-9.454100	27.581177	0.000277	20.817595
2311.606892	-3.018800	3.146900	-9.499200	27.624779	0.000277	20.799353
2312.615600	-2.967000	3.147600	-9.337900	27.647372	0.000277	20.814974
2313.605783	-2.999800	3.145300	-9.434400	27.685986	0.000276	20.823958
2314.606544	-2.976000	3.144800	-9.358000	27.721796	0.000276	20.807362
2315.606355	-2.991900	3.146500	-9.411800	27.730525	0.000275	20.829897
2316.608664	-2.998000	3.144300	-9.425400	27.722540	0.000274	20.802895
2317.609347	-2.993800	3.143400	-9.409900	27.715547	0.000272	20.806289
2318.607644	-2.986700	3.143500	-9.387100	27.686135	0.000273	20.818418
2319.609395	-2.996800	3.143400	-9.418200	27.671652	0.000274	20.814750
2320.607990	-3.013500	3.141000	-9.462700	27.650596	0.000270	20.814425
2321.609619	-2.996100	3.141200	-9.409800	27.659500	0.000273	20.827651
2322.610435	-3.002900	3.141100	-9.431500	27.647745	0.000270	20.815823
2323.609338	-3.017200	3.138100	-9.467900	27.656648	0.000272	20.822886
2324.608037	-3.006700	3.139300	-9.438100	27.659525	0.000269	20.831470
2325.610620	-2.987100	3.138100	-9.371900	27.677877	0.000270	20.816273
2326.612649	-2.990000	3.138000	-9.381300	27.616223	0.000269	20.824408
2327.611124	-2.962500	3.137500	-9.292900	27.573341	0.000271	20.828676
2328.613463	-3.007800	3.135800	-9.431400	27.570191	0.000271	20.841627
2329.611551	-3.001700	3.135500	-9.411200	27.571208	0.000270	20.822263
2330.612809	-3.016000	3.133600	-9.449900	27.584998	0.000268	20.821439
2331.615136	-3.018000	3.132500	-9.452600	27.582369	0.000270	20.836337
2332.614552	-3.003500	3.133700	-9.411100	27.615033	0.000269	20.819892
2333.612279	-2.984700	3.133600	-9.352000	27.661708	0.000266	20.826081
2334.611166	-3.003400	3.130400	-9.401000	27.688815	0.000269	20.811157
2335.612076	-2.972500	3.132400	-9.310100	27.684450	0.000268	20.826680
2336.612543	-3.009800	3.129600	-9.418800	27.732808	0.000267	20.836461
2337.613576	-2.995600	3.130700	-9.377700	27.791679	0.000271	20.824583
2338.612375	-3.007400	3.130100	-9.412000	27.800680	0.000269	20.842176
2339.612683	-3.014700	3.127700	-9.427700	27.807623	0.000265	20.844896
2340.612749	-2.987900	3.126800	-9.340800	27.810375	0.000268	20.820165
2341.615460	-3.003400	3.124800	-9.383300	27.762417	0.000267	20.832593
2342.613944	-2.994300	3.126400	-9.360700	27.755523	0.000265	20.833241
2343.614602	-2.996200	3.125400	-9.363700	27.749174	0.000267	20.817370
2344.617232	-2.992700	3.125400	-9.352500	27.750810	0.000265	20.831818
2345.614260	-2.981700	3.124700	-9.316100	27.769830	0.000266	20.842423
2346.614329	-2.987700	3.123600	-9.330700	27.793115	0.000265	20.846890
2347.617575	-3.003700	3.123000	-9.379500	27.788279	0.000265	20.834912
2348.615618	-2.980300	3.123700	-9.308300	27.820887	0.000263	20.851606
2349.614264	-2.992900	3.121100	-9.340400	27.783914	0.000265	20.848062
2350.616189	-3.014700	3.120400	-9.406000	27.759289	0.000263	20.838454
2351.617612	-3.002800	3.118200	-9.362600	27.728217	0.000262	20.853177
2352.617131	-2.996400	3.119000	-9.344400	27.669541	0.000260	20.842022
2353.615322	-3.017300	3.117100	-9.404000	27.623411	0.000261	20.845865
2354.622947	-2.996300	3.118300	-9.342700	27.610390	0.000262	20.864056
2355.619126	-2.984400	3.117400	-9.303100	27.648758	0.000261	20.841972
2356.617541	-2.981600	3.116600	-9.290800	27.675045	0.000259	20.856570
2357.616834	-2.999500	3.114200	-9.340100	27.687916	0.000258	20.825426
2358.618195	-3.033300	3.113000	-9.441900	27.666340	0.000260	20.852551
2359.617991	-3.005600	3.113000	-9.355300	27.677474	0.000258	20.855221
2360.618779	-3.006300	3.113200	-9.357500	27.708995	0.000257	20.851378
2361.623891	-3.025500	3.111300	-9.411500	27.749566	0.000258	20.862333
2362.621515	-2.983300	3.112700	-9.284900	27.797970	0.000259	20.854621
2363.619231	-3.005600	3.110200	-9.346400	27.796012	0.000258	20.851228
2364.620894	-2.987800	3.109700	-9.290300	27.839058	0.000258	20.843342
2365.620547	-2.995000	3.109400	-9.311300	27.874070	0.000255	20.850603
2366.621286	-2.995400	3.109900	-9.314400	27.881756	0.000256	20.863554
2367.620550	-3.015200	3.106700	-9.366600	27.930899	0.000255	20.842841
2368.619516	-3.000100	3.106800	-9.319800	27.939701	0.000256	20.867347
2369.623124	-3.012300	3.104200	-9.350000	27.867325	0.000253	20.886960
2370.620633	-3.022200	3.104500	-9.381300	27.828271	0.000253	20.865674
2371.626006	-3.008800	3.103500	-9.337400	27.814657	0.000254	20.860035
2372.623621	-3.014400	3.102300	-9.351100	27.841363	0.000254	20.852773
2373.620534	-3.013700	3.101800	-9.345800	27.845826	0.000252	20.872911
2374.623740	-3.000400	3.102300	-9.307800	27.855720	0.000251	20.865325
2375.626068	-2.954600	3.102300	-9.164700	27.854481	0.000252	20.861707
2376.627122	-2.986200	3.099400	-9.254100	27.854232	0.000251	20.871414
2377.628006	-3.018800	3.098900	-9.353700	27.893558	0.000251	20.879224
2378.629510	-3.014100	3.097100	-9.332800	27.854703	0.000252	20.863828
2379.636773	-2.996200	3.098300	-9.282300	27.815822	0.000249	20.877802
2380.630011	-3.011400	3.095700	-9.321000	27.754226	0.000248	20.878875
2381.629425	-2.997100	3.095400	-9.276100	27.680151	0.000248	20.879250
2382.628416	-2.990100	3.095400	-9.254500	27.649845	0.000249	20.869144
2383.633286	-2.967900	3.095700	-9.185900	27.674174	0.000248	20.847633
2384.628516	-2.991800	3.092700	-9.252200	27.712515	0.000249	20.881945
2385.628351	-2.967600	3.092100	-9.175000	27.768560	0.000250	20.852050
2386.631122	-3.009500	3.090900	-9.301700	27.807913	0.000248	20.877903
2387.628164	-3.018700	3.088700	-9.322200	27.886194	0.000247	20.864702
2388.627717	-3.014500	3.089400	-9.310800	27.891302	0.000247	20.864627
2389.628054	-3.023400	3.087200	-9.333300	27.915924	0.000247	20.858589
2390.633680	-3.003500	3.087900	-9.272700	27.918081	0.000249	20.865027
2391.632270	-2.987900	3.087400	-9.224200	27.934049	0.000247	20.902433
2392.630702	-2.992300	3.086900	-9.233800	27.968289	0.000247	20.881422
2393.633860	-3.001800	3.084200	-9.256100	27.970446	0.000247	20.867947
2394.638983	-3.010700	3.083900	-9.284500	28.000223	0.000247	20.851927
2395.628929	-3.000500	3.083500	-9.250900	28.009496	0.000248	20.867424
2396.635362	-3.010800	3.081900	-9.277600	28.007240	0.000247	20.885067
2397.633579	-3.011600	3.079300	-9.271900	27.945902	0.000248	20.881648
2398.634003	-3.012500	3.078300	-9.272500	27.913546	0.000247	20.874212
2399.632607	-3.004500	3.079300	-9.250600	27.920587	0.000246	20.887462
2400.634317	-2.995700	3.077400	-9.217000	27.920761	0.000247	20.876732
2401.632533	-3.025300	3.075500	-9.303400	27.943621	0.000248	20.894998
2402.631295	-2.998700	3.075800	-9.222700	27.947663	0.000246	20.885791
2403.633981	-2.977400	3.076700	-9.159700	27.940075	0.000245	20.883844
2404.634681	-3.003700	3.074000	-9.232000	27.927505	0.000245	20.883520
2405.634254	-2.995900	3.074100	-9.207900	27.922919	0.000245	20.882697
2406.632009	-3.000700	3.072400	-9.217200	27.989638	0.000245	20.880151
2407.633895	-2.997000	3.071300	-9.203600	27.976076	0.000247	20.878354
2408.635315	-3.002500	3.071100	-9.220400	27.992067	0.000245	20.895872
2409.636201	-3.011700	3.069000	-9.241700	27.969184	0.000247	20.884693
2410.637315	-2.994000	3.068400	-9.186200	27.948655	0.000246	20.894375
2411.636240	-3.017100	3.068100	-9.255600	27.973572	0.000244	20.877731
2412.637351	-3.020400	3.066200	-9.259300	28.000720	0.000245	20.887987
2413.638095	-3.018700	3.065200	-9.251400	28.006770	0.000246	20.903084
2414.637978	-2.996200	3.065400	-9.184300	28.036049	0.000245	20.890832
2415.639668	-3.004100	3.063700	-9.201600	28.025661	0.000244	20.886540
2416.639159	-3.010400	3.062700	-9.219300	28.080202	0.000244	20.899715
2417.638229	-2.989800	3.062600	-9.155700	28.099389	0.000243	20.897219
2418.638194	-3.014700	3.059400	-9.222700	28.109430	0.000242	20.882673
2419.638383	-3.008000	3.058200	-9.198300	28.090417	0.000240	20.913790
2420.639108	-3.015000	3.057700	-9.218000	28.111711	0.000243	20.910571
2421.637184	-3.002700	3.057900	-9.181100	28.121503	0.000240	20.918057
2422.639798	-3.042700	3.054500	-9.292900	28.148871	0.000242	20.886815
2423.640475	-2.998300	3.056800	-9.163900	28.113942	0.000242	20.918032
2424.637887	-3.011600	3.053600	-9.195200	28.088385	0.000241	20.899418
2425.639127	-3.016800	3.053500	-9.209500	28.098374	0.000240	20.903784
2426.636899	-3.008300	3.051700	-9.179600	28.146789	0.000242	20.901787
2427.639638	-3.007600	3.049400	-9.169900	28.185335	0.000245	20.893653
2428.639560	-3.030700	3.049100	-9.240600	28.205809	0.000242	20.891981
2429.639151	-3.037800	3.048000	-9.258100	28.266216	0.000239	20.903010
2430.644866	-2.994500	3.048400	-9.127700	28.207619	0.000241	20.915611
2431.639894	-3.015200	3.046000	-9.183300	28.169917	0.000241	20.894726
2432.641044	-2.998200	3.045300	-9.130000	28.149367	0.000242	20.907228
2433.643675	-2.994300	3.043400	-9.112100	28.117438	0.000244	20.894052
2434.638330	-3.047900	3.039900	-9.262900	28.116248	0.000242	20.918456
2435.639095	-3.013900	3.042300	-9.167300	28.115455	0.000243	20.922399
2436.641685	-2.997800	3.042100	-9.118700	28.101821	0.000242	20.901563
2437.642363	-2.988100	3.040500	-9.084600	28.084864	0.000244	20.916260
2438.638959	-3.036900	3.037400	-9.222700	28.097680	0.000241	20.913515
2439.641121	-3.024200	3.037400	-9.184700	28.126957	0.000244	20.900315
2440.643083	-2.997300	3.037000	-9.101400	28.168131	0.000244	20.923271
2441.639625	-3.019200	3.034400	-9.160300	28.183351	0.000242	20.929584
2442.646297	-2.991400	3.036100	-9.080700	28.214855	0.000242	20.904880
2443.643059	-3.016600	3.032300	-9.145600	28.257315	0.000241	20.930556
2444.639977	-3.002200	3.031900	-9.101200	28.263412	0.000242	20.925316
2445.641948	-2.999600	3.031700	-9.092500	28.216194	0.000241	20.906702
2446.640478	-2.996400	3.029400	-9.076000	28.174327	0.000242	20.930456
2447.642293	-2.986300	3.030100	-9.047100	28.140935	0.000242	20.905378
2448.642125	-2.982000	3.027900	-9.027300	28.141976	0.000241	20.922071
2449.644145	-3.011600	3.026900	-9.114300	28.135357	0.000242	20.914460
2450.642255	-2.989500	3.025500	-9.043900	28.132704	0.000240	20.905152
2451.643487	-3.017100	3.023600	-9.121700	28.081116	0.000240	20.919125
2452.642545	-3.014000	3.023100	-9.110300	28.053027	0.000241	20.921196
2453.643628	-2.981600	3.021500	-9.008200	28.044870	0.000239	20.927683
2454.643201	-3.000700	3.020400	-9.061900	28.089791	0.000239	20.916005
2455.642842	-2.961100	3.021300	-8.944700	28.112424	0.000237	20.907495
2456.642950	-3.033700	3.017100	-9.151500	28.139072	0.000237	20.899709
2457.644501	-3.000400	3.016100	-9.048400	28.154392	0.000238	20.934094
2458.647247	-3.021100	3.014000	-9.104600	28.180742	0.000238	20.910838
2459.650000	-3.016700	3.012500	-9.086100	28.168992	0.000239	20.907070
2460.646838	-3.009700	3.011300	-9.062800	28.197696	0.000242	20.903251
2461.649264	-3.030600	3.010700	-9.123200	28.179650	0.000238	20.918747
2462.647009	-2.983000	3.010900	-8.981000	28.185574	0.000239	20.886307
2463.646377	-2.995600	3.009800	-9.015100	28.201661	0.000239	20.917199
2464.646442	-3.022000	3.007200	-9.086200	28.235495	0.000237	20.895789
2465.648931	-3.003100	3.005600	-9.024300	28.266701	0.000236	20.902077
2466.646372	-2.993200	3.006700	-8.999100	28.283927	0.000236	20.890024
2467.647367	-3.028900	3.003600	-9.095900	28.270915	0.000234	20.917224
2468.652120	-3.002400	3.003500	-9.016600	28.256415	0.000234	20.909738
2469.647569	-3.038300	3.000400	-9.115400	28.229818	0.000239	20.891971
2470.646234	-2.986600	3.000400	-8.960000	28.220325	0.000239	20.891422
2471.649975	-3.055700	2.997700	-9.159000	28.211674	0.000236	20.900255
2472.648523	-2.984900	2.998400	-8.949100	28.190629	0.000236	20.886181
2473.646292	-2.980700	2.997300	-8.932600	28.183787	0.000235	20.888776
2474.650593	-2.997000	2.995900	-8.978100	28.132945	0.000238	20.891171
2475.649858	-2.997500	2.993500	-8.972400	28.122906	0.000238	20.896711
2476.650802	-2.993200	2.993100	-8.957300	28.091298	0.000236	20.884334
2477.651882	-2.985600	2.991400	-8.929800	28.096802	0.000238	20.894141
2478.650052	-3.003700	2.990000	-8.980200	28.130714	0.000237	20.895089
2479.647854	-3.000900	2.988400	-8.966700	28.156148	0.000239	20.891770
2480.651544	-3.005200	2.988200	-8.979200	28.207509	0.000237	20.903174
2481.649691	-2.992900	2.986400	-8.936600	28.240748	0.000237	20.878794
2482.648994	-3.019600	2.984400	-9.010700	28.237575	0.000237	20.877495
2483.651151	-3.005700	2.982800	-8.964700	28.221091	0.000235	20.889823
2484.654023	-3.022900	2.981000	-9.009300	28.233485	0.000238	20.883334
2485.649808	-3.027400	2.980500	-9.021300	28.270020	0.000234	20.867488
2486.653291	-2.979200	2.980100	-8.877000	28.299961	0.000239	20.883409
2487.654470	-3.018400	2.976700	-8.983700	28.329356	0.000235	20.870807
2488.653312	-3.016900	2.975400	-8.975500	28.347821	0.000234	20.892716
2489.658608	-2.982100	2.975700	-8.873000	28.389829	0.000238	20.880015
2490.652423	-3.017700	2.972900	-8.970000	28.405864	0.000236	20.873876
2491.655193	-2.973600	2.973500	-8.840800	28.456568	0.000237	20.881312
2492.653572	-2.990600	2.970200	-8.881500	28.482836	0.000238	20.866988
2493.656238	-3.000900	2.967700	-8.905100	28.491658	0.000237	20.872078
2494.653792	-2.984800	2.969300	-8.862200	28.496787	0.000235	20.862071
2495.654628	-2.998900	2.967200	-8.896800	28.506972	0.000236	20.861896
2496.656437	-2.984500	2.966500	-8.852900	28.516908	0.000235	20.873799
2497.656577	-3.024300	2.962100	-8.957400	28.526424	0.000236	20.875796
2498.653347	-3.022400	2.961400	-8.949900	28.494505	0.000231	20.869256
2499.656315	-3.020100	2.960200	-8.938200	28.456738	0.000233	20.879113
2500.653087	-3.001100	2.958800	-8.878200	28.429949	0.000236	20.871103
2501.656910	-2.996800	2.958100	-8.864000	28.396096	0.000233	20.853610
2502.657851	-3.001200	2.954600	-8.865400	28.370767	0.000234	20.864140
2503.654655	-3.001200	2.954800	-8.867100	28.358127	0.000233	20.863741
2504.655105	-2.986500	2.952300	-8.816300	28.393220	0.000234	20.862094
2505.652596	-3.023900	2.952700	-8.927100	28.421447	0.000234	20.858749
2506.654949	-2.985600	2.952100	-8.812900	28.442017	0.000232	20.877091
2507.658226	-2.990800	2.947700	-8.814900	28.435202	0.000231	20.876866
2508.655203	-3.009100	2.945800	-8.863000	28.401671	0.000233	20.851164
2509.653251	-2.993300	2.945600	-8.814800	28.328509	0.000232	20.886074
2510.654859	-2.984800	2.944900	-8.788700	28.273286	0.000233	20.874096
2511.653670	-3.025900	2.941900	-8.900400	28.255540	0.000233	20.866660
2512.659953	-3.004000	2.941000	-8.834000	28.228199	0.000232	20.866634
2513.660060	-3.026200	2.937700	-8.888300	28.204552	0.000232	20.852311
2514.656127	-3.029000	2.936700	-8.894000	28.175848	0.000234	20.869405
2515.661679	-2.967900	2.937300	-8.715500	28.150018	0.000234	20.863316
2516.666199	-3.008700	2.934100	-8.827300	28.172229	0.000232	20.838736
2517.656352	-2.995800	2.933300	-8.787000	28.228547	0.000231	20.845649
2518.661045	-3.025300	2.931200	-8.866500	28.255838	0.000232	20.855581
2519.659797	-2.999400	2.930200	-8.787900	28.300080	0.000233	20.854133
2520.659188	-3.030600	2.927000	-8.869300	28.344891	0.000235	20.848993
2521.661567	-3.000000	2.926900	-8.779700	28.373419	0.000232	20.856854
2522.659035	-3.009900	2.923500	-8.798500	28.366379	0.000235	20.856404
2523.658847	-3.005300	2.922400	-8.781300	28.352451	0.000233	20.844277
2524.659961	-3.006300	2.921500	-8.782200	28.341298	0.000232	20.837789
2525.667785	-3.004600	2.920500	-8.774000	28.322363	0.000233	20.835318
2526.659348	-2.999200	2.918200	-8.751300	28.328733	0.000233	20.838413
2527.658854	-3.008000	2.917300	-8.774600	28.353071	0.000234	20.826884
2528.661903	-2.983500	2.915400	-8.697000	28.369231	0.000232	20.830353
2529.660991	-3.012300	2.913200	-8.774300	28.375426	0.000232	20.850341
2530.660731	-3.008400	2.913000	-8.762200	28.410321	0.000233	20.852762
2531.663049	-3.016000	2.910200	-8.776600	28.418871	0.000231	20.817750
2532.663611	-2.989400	2.908600	-8.693200	28.362737	0.000233	20.852263
2533.662281	-2.993100	2.907900	-8.702300	28.319364	0.000230	20.855532
2534.666815	-3.016100	2.905800	-8.763000	28.330468	0.000232	20.850117
2535.664678	-3.013900	2.903200	-8.748400	28.338721	0.000231	20.823814
2536.662223	-3.002800	2.902900	-8.715200	28.304890	0.000232	20.839062
2537.665637	-3.013400	2.898600	-8.733600	28.303997	0.000233	20.835793
2538.665790	-3.039200	2.897200	-8.803500	28.349899	0.000233	20.830802
2539.663738	-3.002800	2.897100	-8.697300	28.369826	0.000233	20.822892
2540.668478	-2.981200	2.896200	-8.633400	28.414559	0.000234	20.848020
2541.666788	-3.024300	2.892200	-8.745500	28.426133	0.000232	20.821743
2542.664748	-2.992800	2.893300	-8.657900	28.424820	0.000231	20.816154
2543.665954	-3.000100	2.889200	-8.666300	28.441275	0.000231	20.831776
2544.673763	-2.990300	2.887300	-8.632600	28.409182	0.000232	20.823640
2545.664052	-3.018000	2.885100	-8.706200	28.434163	0.000232	20.837416
2546.666942	-2.993100	2.883200	-8.629200	28.445712	0.000231	20.841459
2547.667970	-3.002900	2.882000	-8.653400	28.481522	0.000232	20.818251
2548.669407	-2.981800	2.880100	-8.586700	28.494284	0.000233	20.811189
2549.666606	-2.985100	2.878900	-8.592000	28.453742	0.000230	20.827734
2550.673521	-2.990600	2.877800	-8.605900	28.435849	0.000232	20.823467
2551.674058	-2.988700	2.875300	-8.591600	28.474633	0.000232	20.830280
2552.667572	-2.987600	2.872900	-8.582000	28.515844	0.000230	20.815831
2553.667967	-3.010200	2.869900	-8.637500	28.518818	0.000232	20.835421
2554.667963	-2.994100	2.868300	-8.587400	28.540699	0.000231	20.814784
2555.668594	-3.014000	2.865900	-8.637100	28.562826	0.000233	20.833275
2556.668890	-3.024100	2.864000	-8.660700	28.584385	0.000231	20.838391
2557.673889	-2.986400	2.862900	-8.548800	28.590331	0.000232	20.842009
2558.669770	-2.983600	2.861500	-8.535800	28.570533	0.000231	20.837243
2559.672246	-2.985800	2.859400	-8.535900	28.550165	0.000233	20.822894
2560.671546	-3.031700	2.855400	-8.655600	28.500951	0.000233	20.821222
2561.674121	-3.008300	2.852900	-8.581000	28.503602	0.000231	20.820098
2562.672798	-3.001300	2.853600	-8.563400	28.480829	0.000233	20.816605
2563.673070	-3.021400	2.850400	-8.610400	28.495450	0.000230	20.816156
2564.673518	-3.002000	2.849700	-8.552700	28.486281	0.000232	20.806922
2565.673431	-3.005700	2.847500	-8.557600	28.446010	0.000231	20.808095
2566.673690	-2.998500	2.845000	-8.529700	28.383012	0.000231	20.814833
2567.674073	-3.008400	2.841500	-8.547500	28.319615	0.000232	20.828758
2568.673872	-2.972200	2.841800	-8.445400	28.308089	0.000232	20.816680
2569.674756	-3.011400	2.838600	-8.547100	28.375280	0.000233	20.818427
2570.675192	-2.993600	2.836900	-8.491600	28.407127	0.000229	20.802131
2571.674164	-2.998000	2.835100	-8.497000	28.449430	0.000231	20.829082
2572.675956	-2.981900	2.831200	-8.440900	28.508336	0.000233	20.813486
2573.677976	-3.029400	2.830300	-8.572800	28.531034	0.000230	20.815956
2574.674828	-3.008800	2.827300	-8.506000	28.574176	0.000229	20.805825
2575.674610	-3.000800	2.825700	-8.478400	28.645537	0.000229	20.815582
2576.676228	-2.947500	2.825200	-8.326300	28.651905	0.000231	20.826263
2577.675215	-3.006800	2.820300	-8.479600	28.683595	0.000231	20.810292
2578.675151	-3.011600	2.817300	-8.483200	28.640582	0.000230	20.809643
2579.674833	-3.021800	2.816700	-8.510200	28.608371	0.000230	20.806599
2580.674574	-3.021600	2.812900	-8.498600	28.620116	0.000227	20.796143
2581.675072	-3.016400	2.811200	-8.477700	28.634611	0.000231	20.813112
2582.674959	-3.001200	2.809200	-8.428600	28.605076	0.000231	20.801857
2583.678092	-2.996200	2.806500	-8.407700	28.590828	0.000229	20.797465
2584.676066	-2.993600	2.803900	-8.392400	28.582404	0.000232	20.789455
2585.678126	-2.999900	2.801900	-8.403800	28.590259	0.000230	20.793573
2586.676558	-2.998300	2.799100	-8.391000	28.597073	0.000229	20.794272
2587.678616	-2.994100	2.795800	-8.369500	28.617713	0.000230	20.816008
2588.677833	-2.985100	2.793500	-8.338300	28.670713	0.000229	20.799688
2589.679009	-2.992200	2.791100	-8.349600	28.659018	0.000229	20.812091
2590.678473	-2.989200	2.789900	-8.337200	28.679360	0.000230	20.797966
2591.680124	-2.986800	2.787100	-8.323400	28.645341	0.000231	20.794997
2592.678148	-2.994200	2.785500	-8.337900	28.606465	0.000230	20.807525
2593.678723	-3.003000	2.780100	-8.346700	28.539389	0.000232	20.791179
2594.678050	-3.014000	2.777300	-8.368800	28.503879	0.000230	20.787186
2595.679185	-3.018300	2.775000	-8.374700	28.461726	0.000231	20.795946
2596.683163	-3.053100	2.771700	-8.460700	28.465369	0.000230	20.792028
2597.678264	-2.998900	2.770200	-8.306900	28.520209	0.000230	20.791304
2598.685207	-2.976400	2.768000	-8.236300	28.571479	0.000229	20.794574
2599.679943	-2.999700	2.764600	-8.291700	28.577303	0.000230	20.803284
2600.682635	-2.974400	2.762700	-8.216900	28.619178	0.000228	20.778603
2601.679123	-3.014300	2.759200	-8.316400	28.654189	0.000231	20.794899
2602.678952	-2.997800	2.755000	-8.258000	28.685854	0.000230	20.779377
2603.682516	-2.985900	2.753500	-8.220200	28.682880	0.000232	20.773537
2604.680522	-2.981200	2.749700	-8.195800	28.720516	0.000231	20.782996
2605.680210	-2.999900	2.746600	-8.238700	28.726140	0.000231	20.781074
2606.680251	-2.978500	2.742700	-8.167600	28.764046	0.000229	20.787962
2607.683738	-2.960200	2.742400	-8.116700	28.786195	0.000230	20.802686
2608.680513	-3.002500	2.736600	-8.215900	28.823851	0.000230	20.800316
2609.683239	-2.979400	2.734200	-8.144600	28.842430	0.000230	20.788212
2610.684388	-3.002300	2.729900	-8.195500	28.848129	0.000231	20.787788
2611.682855	-3.012500	2.727700	-8.216200	28.828187	0.000229	20.792829
2612.683401	-2.988700	2.724100	-8.139600	28.832596	0.000229	20.792530
2613.687188	-3.028400	2.720400	-8.237800	28.782951	0.000228	20.769546
2614.687723	-3.003700	2.717400	-8.162000	28.689548	0.000227	20.774563
2615.683826	-3.005600	2.714100	-8.156000	28.706223	0.000229	20.781875
2616.685386	-3.008500	2.711900	-8.157400	28.695594	0.000227	20.798670
2617.684633	-3.003200	2.707000	-8.128400	28.732263	0.000227	20.781078
2618.685956	-2.996000	2.702000	-8.094300	28.700005	0.000228	20.769922
2619.685627	-2.983900	2.701300	-8.059000	28.740488	0.000228	20.764232
2620.683301	-3.028400	2.696000	-8.163300	28.779360	0.000227	20.773516
2621.684880	-2.997000	2.693400	-8.071300	28.807429	0.000229	20.764332
2622.685697	-2.960700	2.690200	-7.963400	28.853780	0.000229	20.763609
2623.686071	-3.011500	2.685300	-8.085800	28.845308	0.000229	20.757446
2624.685198	-3.021000	2.680900	-8.098800	28.792393	0.000227	20.786645
2625.686641	-2.987000	2.679100	-8.001100	28.806490	0.000227	20.763860
2626.685195	-3.027400	2.672600	-8.089900	28.826185	0.000227	20.748138
2627.686311	-3.029200	2.669600	-8.085600	28.877811	0.000228	20.794456
2628.685483	-2.996500	2.666000	-7.987900	28.894210	0.000230	20.749336
2629.685311	-3.029000	2.661400	-8.061000	28.903029	0.000228	20.769601
2630.686491	-2.979500	2.657600	-7.917600	28.881950	0.000229	20.764961
2631.690521	-3.025100	2.654300	-8.028700	28.925621	0.000226	20.758222
2632.691164	-3.028300	2.649600	-8.022600	28.930551	0.000228	20.784052
2633.686473	-3.017100	2.644500	-7.977100	28.942764	0.000228	20.742776
2634.688318	-2.984500	2.640700	-7.879400	28.986829	0.000228	20.764412
2635.687284	-2.999200	2.635800	-7.904500	28.986012	0.000229	20.768805
2636.689909	-3.001600	2.631000	-7.895200	29.022126	0.000229	20.755878
2637.688282	-2.988500	2.626300	-7.847900	29.048777	0.000229	20.750962
2638.687976	-3.000300	2.622600	-7.868000	29.057223	0.000229	20.748567
2639.688276	-2.991900	2.618500	-7.833100	29.057223	0.000230	20.752360
2640.688301	-2.978900	2.612800	-7.782800	29.013607	0.000229	20.746346
2641.688759	-2.977600	2.607600	-7.763400	29.033942	0.000230	20.755930
2642.688530	-3.064000	2.601200	-7.968200	29.044245	0.000231	20.754931
2643.689528	-3.031700	2.597200	-7.872900	29.031317	0.000232	20.755656
2644.687735	-3.032100	2.589900	-7.852000	29.042810	0.000232	20.751588
2645.688940	-3.001600	2.587200	-7.764800	29.077286	0.000231	20.741281
2646.689775	-3.008400	2.581300	-7.764100	29.107824	0.000232	20.744076
2647.691095	-2.992700	2.575800	-7.708000	29.143884	0.000232	20.737263
2648.693326	-3.001900	2.570400	-7.715100	29.173156	0.000232	20.735941
2649.690144	-3.011500	2.565700	-7.726300	29.200075	0.000232	20.746472
2650.692847	-2.968900	2.560900	-7.601200	29.166197	0.000230	20.748843
2651.692474	-3.026500	2.553500	-7.727100	29.117929	0.000232	20.764217
2652.691756	-2.995700	2.548200	-7.633000	29.065101	0.000232	20.736116
2653.694683	-2.975800	2.542900	-7.564600	29.059182	0.000231	20.745799
2654.693128	-3.012100	2.536000	-7.637700	29.073200	0.000234	20.748069
2655.691944	-2.968500	2.529500	-7.506900	29.059999	0.000232	20.726706
2656.700922	-2.996600	2.523900	-7.561400	29.046253	0.000231	20.764066
2657.694818	-3.028900	2.516600	-7.620800	29.013756	0.000234	20.747920
2658.696585	-2.996000	2.511700	-7.524200	29.022252	0.000234	20.759325
2659.699310	-3.026200	2.503300	-7.574800	29.073150	0.000232	20.749442
2660.695420	-2.971300	2.502100	-7.433500	29.100542	0.000233	20.743377
2661.694662	-3.011400	2.492300	-7.503800	29.142842	0.000233	20.727679
