LabVIEW Measurement	
Writer_Version	2
Reader_Version	2
Separator	Tab
Decimal_Separator	.
Multi_Headings	No
X_Columns	One
Time_Pref	Absolute
Operator	admin
Description	Clolumns are: time, Current, Voltage, Power, Battery Temp, and Chamber Temp
Date	2024/08/16
Time	13:06:06.104549407958984375
***End_of_Header***	
	
Channels	6						
Samples	1	1	1	1	1	1	
Date	2024/09/09	2024/09/09	2024/09/09	2024/09/09	2024/09/09	2024/09/09	
Time	03:58:54.0753831863403320313	03:58:54.0824351310729980469	03:58:54.0873775482177734375	03:58:54.0604367256164550781	03:58:54.0604367256164550781	03:58:54.0604367256164550781	
X_Dimension	Time	Time	Time	Time	Time	Time	
X0	0.0000000000000000E+0	0.0000000000000000E+0	0.0000000000000000E+0	0.0000000000000000E+0	0.0000000000000000E+0	0.0000000000000000E+0	
Delta_X	1.000000	1.000000	1.000000	1.000000	1.000000	1.000000	
***End_of_Header***							
X_Value	Untitled	Untitled 1	Untitled 2	Untitled 3	Untitled 4	Untitled 5	Comment
0.000000	-0.004469	4.097200	-0.018397	21.004344	0.000897	20.708013
1.005894	-3.003500	3.924600	-11.786000	21.016548	0.000897	20.701727
2.004489	-3.014200	3.916900	-11.804000	21.013376	0.000895	20.670576
3.002243	-2.987400	3.912900	-11.689000	21.011079	0.000894	20.696256
4.005436	-3.022500	3.907900	-11.810000	21.017374	0.000893	20.677895
5.005050	-3.014500	3.904700	-11.770000	21.034950	0.000892	20.672714
6.001082	-3.013300	3.901300	-11.755000	21.017179	0.000891	20.684813
7.008060	-3.002600	3.900100	-11.709000	21.027511	0.000891	20.674757
8.002182	-2.990800	3.898500	-11.659000	21.039763	0.000891	20.693178
9.005410	-3.029300	3.895900	-11.801000	21.046947	0.000890	20.675706
10.009567	-3.004100	3.893800	-11.697000	21.012011	0.000889	20.686756
11.003094	-2.998100	3.892400	-11.669000	21.033235	0.000889	20.684751
12.004265	-2.995700	3.890600	-11.654000	21.040468	0.000888	20.685347
13.003710	-3.004400	3.889200	-11.683000	21.039227	0.000887	20.674622
14.003982	-3.001600	3.887900	-11.668000	21.056426	0.000886	20.682816
15.004856	-2.978900	3.887400	-11.578000	21.047042	0.000887	20.695717
16.007988	-2.995700	3.886200	-11.641000	21.058273	0.000884	20.675180
17.006999	-2.995700	3.884800	-11.636000	21.056412	0.000884	20.701770
18.006613	-3.000400	3.884600	-11.655000	21.062989	0.000884	20.685114
19.008686	-2.989600	3.882800	-11.607000	21.086350	0.000883	20.698524
20.007404	-2.991900	3.881700	-11.612000	21.072202	0.000884	20.680104
21.005131	-3.007600	3.880700	-11.671000	21.068542	0.000882	20.680237
22.009526	-2.989100	3.880100	-11.597000	21.083687	0.000882	20.690170
23.009228	-2.992100	3.878900	-11.605000	21.103158	0.000882	20.668867
24.006228	-3.001600	3.878700	-11.641000	21.100157	0.000881	20.673926
25.011400	-3.019800	3.876500	-11.704000	21.107546	0.000880	20.687008
26.007319	-2.975100	3.878800	-11.538000	21.106257	0.000881	20.668647
27.008110	-3.004600	3.875800	-11.643000	21.130651	0.000880	20.678825
28.010591	-2.990300	3.875300	-11.587000	21.124635	0.000881	20.678023
29.013602	-2.969300	3.875200	-11.506000	21.115604	0.000878	20.679421
30.010833	-2.995700	3.875100	-11.608000	21.118692	0.000877	20.698633
31.007551	-3.022000	3.873400	-11.705000	21.133701	0.000881	20.679979
32.007965	-3.015500	3.872000	-11.675000	21.147740	0.000877	20.656562
33.007754	-2.995900	3.872400	-11.600000	21.138284	0.000878	20.662751
34.013101	-3.004700	3.871300	-11.631000	21.167028	0.000877	20.689135
35.008707	-3.018900	3.869000	-11.679000	21.153843	0.000877	20.674996
36.012943	-3.006700	3.869300	-11.632000	21.151131	0.000876	20.677500
37.011975	-3.006500	3.869400	-11.632000	21.159663	0.000878	20.680345
38.009013	-3.003300	3.869400	-11.621000	21.160563	0.000877	20.676028
39.018700	-3.011300	3.869000	-11.650000	21.173713	0.000877	20.667845
40.013163	-2.998600	3.869200	-11.601000	21.191348	0.000876	20.674581
41.013426	-2.996400	3.868600	-11.590000	21.200026	0.000875	20.671408
42.013287	-2.983800	3.868300	-11.542000	21.210904	0.000874	20.661426
43.013005	-2.993400	3.867800	-11.577000	21.219205	0.000878	20.668783
44.016192	-3.000500	3.866100	-11.599000	21.215424	0.000876	20.675432
45.018631	-2.988500	3.867900	-11.558000	21.218682	0.000875	20.650714
46.012447	-2.989500	3.867600	-11.561000	21.227894	0.000874	20.658507
47.022370	-2.992800	3.865700	-11.568000	21.241566	0.000874	20.688309
48.014469	-3.008600	3.866800	-11.633000	21.255750	0.000874	20.665986
49.013980	-2.974500	3.865500	-11.497000	21.224795	0.000874	20.665366
50.015071	-2.979800	3.865200	-11.516000	21.239987	0.000876	20.675348
51.016278	-2.988500	3.864600	-11.549000	21.256224	0.000874	20.675470
52.017023	-3.001200	3.862700	-11.592000	21.261486	0.000874	20.661767
53.016690	-2.992900	3.862900	-11.560000	21.274562	0.000874	20.674375
54.028696	-3.020300	3.862000	-11.663000	21.286156	0.000873	20.684553
55.018724	-3.005500	3.863000	-11.609000	21.302211	0.000875	20.661732
56.017325	-2.996700	3.863600	-11.576000	21.293826	0.000871	20.696020
57.015616	-2.981800	3.863000	-11.518000	21.318471	0.000871	20.664723
58.021617	-2.994300	3.861500	-11.562000	21.324110	0.000873	20.665623
59.017959	-3.022700	3.860400	-11.668000	21.319785	0.000874	20.667934
60.015847	-2.997400	3.861300	-11.573000	21.321328	0.000874	20.683231
61.018503	-2.989300	3.860400	-11.539000	21.334672	0.000874	20.676191
62.017973	-3.013600	3.859500	-11.630000	21.349280	0.000873	20.676581
63.022654	-3.000800	3.858900	-11.579000	21.349401	0.000876	20.687135
64.020681	-2.983800	3.861300	-11.520000	21.348770	0.000874	20.678917
65.035526	-3.015300	3.859900	-11.637000	21.363500	0.000874	20.682748
66.022017	-3.006400	3.860000	-11.603000	21.381279	0.000874	20.673034
67.023660	-3.006800	3.858800	-11.601000	21.395545	0.000871	20.657908
68.026534	-2.994200	3.859100	-11.553000	21.407113	0.000874	20.677071
69.024168	-3.007500	3.858800	-11.604000	21.401900	0.000872	20.669010
70.019996	-2.993200	3.858900	-11.549000	21.407322	0.000875	20.681074
71.025439	-3.018400	3.855600	-11.636000	21.402242	0.000873	20.663661
72.024586	-2.994200	3.858200	-11.552000	21.421187	0.000873	20.679299
73.020875	-2.999800	3.857200	-11.569000	21.442293	0.000875	20.671018
74.023421	-2.994500	3.856700	-11.547000	21.452791	0.000872	20.662081
75.026067	-2.991500	3.856400	-11.535000	21.427020	0.000874	20.678971
76.022575	-3.017500	3.854400	-11.629000	21.450435	0.000874	20.684382
77.026661	-3.009900	3.854500	-11.600000	21.460642	0.000874	20.668988
78.027006	-3.000200	3.855400	-11.566000	21.461578	0.000874	20.691739
79.030250	-3.014300	3.855000	-11.619000	21.460850	0.000874	20.656867
80.027775	-3.013800	3.855300	-11.617000	21.478432	0.000874	20.649803
81.024981	-3.001200	3.855500	-11.569000	21.457898	0.000875	20.675253
82.028301	-3.005200	3.852900	-11.578000	21.501896	0.000875	20.670438
83.026192	-2.993500	3.854200	-11.536000	21.502965	0.000875	20.702331
84.028803	-3.024200	3.853600	-11.652000	21.511240	0.000874	20.664615
85.026320	-3.001600	3.853500	-11.565000	21.505662	0.000872	20.674681
86.028035	-2.990700	3.855000	-11.529000	21.521094	0.000874	20.689650
87.025657	-2.978900	3.854300	-11.480000	21.535334	0.000875	20.677819
88.028910	-2.994200	3.853900	-11.538000	21.556597	0.000873	20.670646
89.026742	-3.010400	3.852900	-11.599000	21.537874	0.000873	20.665186
90.029383	-2.996100	3.852800	-11.543000	21.570496	0.000875	20.678391
91.029710	-2.997200	3.851800	-11.542000	21.583982	0.000874	20.688568
92.026887	-2.989600	3.853700	-11.520000	21.547849	0.000875	20.696034
93.029302	-3.026200	3.851600	-11.655000	21.590421	0.000875	20.689796
94.030324	-2.994500	3.852700	-11.536000	21.577045	0.000874	20.683523
95.030049	-2.983300	3.853800	-11.496000	21.570921	0.000874	20.693516
96.032036	-3.014300	3.850300	-11.604000	21.590786	0.000874	20.676884
97.028559	-3.011200	3.852200	-11.598000	21.589777	0.000875	20.694841
98.031837	-2.989200	3.851600	-11.512000	21.598657	0.000875	20.685236
99.034430	-3.006800	3.849600	-11.574000	21.597991	0.000875	20.693105
100.030380	-2.993400	3.850400	-11.523000	21.617052	0.000874	20.680410
101.033900	-3.007900	3.850500	-11.581000	21.637876	0.000874	20.678488
102.034304	-2.994300	3.849200	-11.525000	21.629992	0.000874	20.683401
103.031806	-3.006500	3.849700	-11.573000	21.647680	0.000874	20.708216
104.038378	-2.981900	3.851100	-11.483000	21.643914	0.000877	20.686428
105.033365	-3.011600	3.849600	-11.592000	21.670398	0.000877	20.683534
106.035327	-3.004900	3.849200	-11.566000	21.678208	0.000875	20.671909
107.036617	-2.988500	3.848700	-11.500000	21.672328	0.000878	20.678353
108.034866	-3.001500	3.847700	-11.548000	21.678731	0.000876	20.697090
109.037097	-2.970200	3.849000	-11.432000	21.696286	0.000877	20.680992
110.037829	-2.984200	3.849000	-11.484000	21.700550	0.000878	20.687631
111.032149	-2.982400	3.848000	-11.475000	21.698909	0.000877	20.697370
112.033487	-2.978400	3.847600	-11.459000	21.710339	0.000877	20.700274
113.038180	-3.004100	3.846700	-11.555000	21.711517	0.000877	20.688176
114.039280	-2.983800	3.845600	-11.474000	21.716025	0.000879	20.714026
115.036308	-3.035900	3.845100	-11.672000	21.744632	0.000879	20.705672
116.034633	-2.998600	3.847400	-11.535000	21.743831	0.000880	20.677367
117.037673	-2.985900	3.845700	-11.481000	21.727685	0.000879	20.696771
118.035442	-3.006300	3.845700	-11.561000	21.750488	0.000880	20.678339
119.039055	-3.016000	3.844400	-11.592000	21.751666	0.000879	20.691847
120.034210	-3.018300	3.844200	-11.602000	21.753791	0.000878	20.693026
121.038677	-3.011100	3.843800	-11.573000	21.769498	0.000879	20.691202
122.041162	-2.991800	3.844600	-11.501000	21.791667	0.000881	20.686837
123.039054	-3.016400	3.844100	-11.595000	21.791423	0.000879	20.691335
124.041230	-3.003900	3.843900	-11.546000	21.790378	0.000880	20.690763
125.036658	-2.980200	3.845500	-11.458000	21.832784	0.000879	20.709501
126.035059	-3.005200	3.843300	-11.548000	21.809095	0.000879	20.673459
127.040312	-3.019700	3.843900	-11.607000	21.826842	0.000882	20.675576
128.041188	-3.005100	3.844700	-11.551000	21.821704	0.000882	20.697462
129.036846	-3.006200	3.843600	-11.552000	21.834714	0.000881	20.697207
130.040525	-2.997800	3.842600	-11.518000	21.840118	0.000881	20.696925
131.038931	-3.009300	3.842100	-11.562000	21.839414	0.000882	20.689582
132.042834	-3.016300	3.842200	-11.588000	21.866050	0.000883	20.679732
133.042778	-3.006900	3.843500	-11.556000	21.857440	0.000883	20.699565
134.037673	-3.002700	3.843300	-11.539000	21.859175	0.000882	20.702724
135.041128	-3.013700	3.841800	-11.577000	21.879801	0.000883	20.706775
136.041520	-2.999600	3.842000	-11.524000	21.879801	0.000884	20.683065
137.040821	-2.998900	3.842200	-11.521000	21.888436	0.000883	20.683648
138.044385	-2.996600	3.841000	-11.508000	21.898057	0.000886	20.689485
139.044047	-3.005900	3.841400	-11.546000	21.902829	0.000884	20.688571
140.042575	-3.003000	3.839900	-11.531000	21.898893	0.000884	20.690322
141.043977	-2.998600	3.840500	-11.515000	21.919433	0.000886	20.718470
142.041549	-3.010300	3.840800	-11.561000	21.895030	0.000885	20.694042
143.044544	-2.997100	3.840400	-11.508000	21.908148	0.000887	20.712389
144.041147	-2.988000	3.840100	-11.473000	21.922299	0.000887	20.699052
145.041285	-2.992800	3.839300	-11.490000	21.929913	0.000888	20.694346
146.043755	-3.011600	3.839800	-11.563000	21.931529	0.000887	20.697386
147.043482	-2.992500	3.840600	-11.491000	21.936266	0.000887	20.701180
148.045757	-2.998800	3.838400	-11.510000	21.937384	0.000887	20.690444
149.042070	-2.993100	3.839500	-11.491000	21.950937	0.000888	20.703063
150.042231	-3.003300	3.838000	-11.525000	21.956015	0.000888	20.706724
151.049289	-3.001500	3.838400	-11.519000	21.977828	0.000889	20.699161
152.043740	-2.983100	3.838700	-11.450000	21.970769	0.000888	20.714855
153.044058	-3.004000	3.837600	-11.527000	21.964091	0.000889	20.703903
154.042418	-2.994000	3.837400	-11.487000	21.978616	0.000889	20.702320
155.045556	-3.008100	3.836900	-11.541000	21.974109	0.000890	20.710612
156.049119	-2.998000	3.838300	-11.505000	21.999906	0.000893	20.710831
157.049665	-2.991400	3.838200	-11.480000	22.012343	0.000891	20.719963
158.049213	-3.005900	3.837700	-11.535000	22.006039	0.000893	20.712230
159.045346	-2.996700	3.837100	-11.495000	22.035782	0.000891	20.713555
160.045549	-2.983700	3.837300	-11.449000	22.026552	0.000893	20.727550
161.052638	-2.991200	3.837600	-11.478000	22.049044	0.000894	20.709761
162.050821	-2.997700	3.836200	-11.498000	22.034604	0.000894	20.696253
163.053147	-2.983500	3.834700	-11.439000	22.059537	0.000895	20.693712
164.048825	-2.995900	3.837500	-11.495000	22.050186	0.000893	20.701895
165.045758	-2.984500	3.835700	-11.446000	22.071632	0.000894	20.708666
166.051077	-3.005800	3.834900	-11.525000	22.106085	0.000895	20.704751
167.051425	-3.000300	3.834200	-11.502000	22.080850	0.000894	20.705567
168.045404	-2.990000	3.834100	-11.463000	22.086460	0.000895	20.699803
169.049814	-3.002500	3.834600	-11.511000	22.087760	0.000896	20.723865
170.047858	-3.001500	3.835400	-11.511000	22.116006	0.000897	20.696191
171.046660	-2.978400	3.835800	-11.423000	22.108453	0.000897	20.709019
172.048504	-2.985000	3.835100	-11.447000	22.117963	0.000895	20.744620
173.050821	-2.987000	3.834100	-11.451000	22.130677	0.000898	20.732219
174.050827	-2.980100	3.834300	-11.426000	22.145759	0.000898	20.726929
175.049623	-2.982500	3.833700	-11.433000	22.141667	0.000899	20.723781
176.051732	-2.993700	3.834300	-11.477000	22.157491	0.000897	20.711647
177.047760	-2.971600	3.835300	-11.396000	22.174624	0.000899	20.719318
178.052797	-2.991800	3.832300	-11.464000	22.173812	0.000899	20.712341
179.048522	-3.011500	3.831200	-11.537000	22.164473	0.000899	20.729070
180.048211	-3.002200	3.831500	-11.502000	22.188322	0.000900	20.717386
181.052738	-2.990900	3.830600	-11.457000	22.204205	0.000903	20.719063
182.049857	-3.001600	3.831400	-11.499000	22.185213	0.000903	20.734663
183.055401	-2.999600	3.830800	-11.490000	22.200381	0.000902	20.726141
184.057204	-3.024500	3.830900	-11.584000	22.207509	0.000902	20.716682
185.053915	-2.986700	3.832500	-11.445000	22.226403	0.000906	20.734177
186.066145	-2.992100	3.831600	-11.464000	22.221716	0.000904	20.729959
187.059403	-3.001000	3.831200	-11.497000	22.238789	0.000903	20.709593
188.066665	-2.979700	3.831200	-11.415000	22.236191	0.000902	20.713156
189.059120	-3.018700	3.829600	-11.559000	22.215646	0.000904	20.721984
190.055585	-2.995300	3.830000	-11.471000	22.248503	0.000903	20.726433
191.058573	-2.997300	3.829700	-11.477000	22.215221	0.000906	20.728197
192.056956	-3.003400	3.831000	-11.504000	22.235985	0.000906	20.739030
193.060989	-2.988500	3.830200	-11.444000	22.241838	0.000906	20.716914
194.059637	-3.005400	3.830100	-11.510000	22.242591	0.000906	20.740428
195.061761	-2.997200	3.828800	-11.475000	22.237587	0.000906	20.739212
196.060708	-3.008700	3.828600	-11.517000	22.275060	0.000907	20.719359
197.058730	-2.968700	3.830100	-11.369000	22.267508	0.000907	20.743566
198.059451	-2.987800	3.829200	-11.439000	22.278448	0.000906	20.744563
199.067702	-3.006400	3.827300	-11.506000	22.291840	0.000907	20.726203
200.062325	-2.971500	3.829100	-11.377000	22.303605	0.000910	20.741778
201.060414	-3.012500	3.827300	-11.529000	22.326188	0.000910	20.762969
202.061958	-2.994800	3.827500	-11.462000	22.325861	0.000910	20.715224
203.066967	-2.988500	3.828100	-11.440000	22.313852	0.000911	20.708414
204.062679	-2.990400	3.827300	-11.444000	22.316585	0.000910	20.732015
205.064563	-2.985100	3.826500	-11.420000	22.328179	0.000912	20.745048
206.063220	-2.984700	3.827000	-11.421000	22.353203	0.000915	20.733595
207.065380	-3.006200	3.827100	-11.504000	22.345323	0.000912	20.743249
208.062572	-3.017800	3.824700	-11.541000	22.363596	0.000913	20.749692
209.066054	-3.009300	3.824800	-11.509000	22.389395	0.000916	20.747552
210.067446	-2.992800	3.826500	-11.450000	22.394506	0.000914	20.737497
211.068417	-2.982900	3.825600	-11.410000	22.407520	0.000915	20.732985
212.075418	-2.973000	3.826600	-11.376000	22.405869	0.000915	20.752670
213.065230	-3.014800	3.823200	-11.525000	22.407617	0.000915	20.753472
214.066086	-2.991800	3.825300	-11.443000	22.409195	0.000919	20.752681
215.067412	-2.981600	3.824400	-11.402000	22.403597	0.000915	20.756559
216.073473	-2.986300	3.824400	-11.420000	22.417436	0.000918	20.719207
217.067992	-3.014000	3.822300	-11.520000	22.404544	0.000918	20.768413
218.070010	-2.984400	3.824400	-11.413000	22.395485	0.000916	20.764083
219.066399	-3.003500	3.822700	-11.481000	22.390326	0.000919	20.742320
220.073339	-2.992700	3.824500	-11.444000	22.401616	0.000920	20.751256
221.068704	-2.982300	3.824100	-11.403000	22.405209	0.000917	20.748216
222.070669	-2.994000	3.822400	-11.444000	22.422558	0.000920	20.746149
223.075587	-3.009600	3.822400	-11.503000	22.418673	0.000921	20.754586
224.072257	-2.992200	3.822800	-11.436000	22.442431	0.000921	20.768421
225.071272	-2.987200	3.822400	-11.416000	22.436676	0.000920	20.753649
226.076798	-3.004600	3.821700	-11.481000	22.444021	0.000922	20.760531
227.073833	-3.010800	3.821700	-11.505000	22.462462	0.000921	20.761455
228.072550	-3.020600	3.819600	-11.537000	22.436032	0.000925	20.729295
229.073760	-3.001600	3.820900	-11.468000	22.450431	0.000925	20.757466
230.073132	-3.003900	3.821000	-11.477000	22.465861	0.000924	20.768651
231.076342	-2.996300	3.820800	-11.448000	22.475354	0.000923	20.759667
232.076604	-3.006400	3.819600	-11.482000	22.508374	0.000925	20.765709
233.072083	-2.992300	3.821900	-11.434000	22.505617	0.000923	20.765319
234.074119	-2.985200	3.819600	-11.402000	22.525272	0.000926	20.758450
235.073799	-2.973400	3.821100	-11.360000	22.543785	0.000924	20.754706
236.074205	-3.003500	3.820100	-11.471000	22.536221	0.000929	20.762777
237.077350	-2.999300	3.819100	-11.453000	22.545410	0.000928	20.762498
238.077370	-3.007900	3.818300	-11.483000	22.534083	0.000927	20.754473
239.079549	-3.012000	3.819100	-11.501000	22.549282	0.000928	20.769221
240.077830	-2.993700	3.818700	-11.431000	22.570865	0.000928	20.759542
241.082909	-3.002500	3.818600	-11.463000	22.551649	0.000930	20.776333
242.082901	-2.989600	3.818200	-11.414000	22.587751	0.000930	20.764601
243.084894	-2.997200	3.818600	-11.445000	22.598528	0.000931	20.775870
244.079542	-2.999200	3.818000	-11.448000	22.603579	0.000931	20.771919
245.080830	-2.990400	3.818700	-11.418000	22.596161	0.000930	20.775870
246.077184	-3.018500	3.817700	-11.522000	22.584715	0.000932	20.753026
247.079738	-3.008800	3.816600	-11.482000	22.608567	0.000932	20.785925
248.090616	-3.016100	3.816100	-11.508000	22.634604	0.000933	20.777390
249.087852	-3.014400	3.816600	-11.504000	22.631593	0.000935	20.771529
250.081773	-2.996900	3.817400	-11.439000	22.640612	0.000932	20.759699
251.080587	-2.999100	3.817500	-11.448000	22.653916	0.000936	20.775870
252.082015	-3.008200	3.815800	-11.476000	22.635015	0.000934	20.767844
253.082767	-2.991200	3.816200	-11.414000	22.662812	0.000937	20.781936
254.086852	-2.979100	3.816000	-11.368000	22.673324	0.000936	20.793414
255.085328	-2.989000	3.816400	-11.407000	22.699917	0.000935	20.784015
256.088963	-2.990800	3.814200	-11.406000	22.725213	0.000939	20.789439
257.085017	-3.002900	3.814800	-11.454000	22.702297	0.000936	20.774071
258.087691	-2.999500	3.813300	-11.436000	22.707758	0.000937	20.783334
259.085658	-3.017000	3.814200	-11.507000	22.738418	0.000938	20.772320
260.090581	-2.982300	3.814000	-11.373000	22.720236	0.000938	20.789195
261.084765	-2.986300	3.816500	-11.395000	22.727252	0.000938	20.779154
262.091630	-2.969100	3.814400	-11.324000	22.720260	0.000939	20.791590
263.089926	-2.993200	3.812900	-11.412000	22.727507	0.000941	20.790788
264.088935	-3.015800	3.812000	-11.495000	22.732616	0.000942	20.773621
265.087145	-3.035400	3.812000	-11.570000	22.742678	0.000940	20.787968
266.087342	-2.997900	3.812500	-11.429000	22.764804	0.000942	20.787372
267.089283	-3.008800	3.811900	-11.468000	22.765047	0.000944	20.801840
268.089133	-2.999400	3.812600	-11.434000	22.782936	0.000945	20.780405
269.093379	-3.002900	3.811100	-11.443000	22.790534	0.000941	20.792758
270.089538	-3.008300	3.810900	-11.463000	22.790255	0.000943	20.802436
271.090268	-3.011500	3.810900	-11.476000	22.815401	0.000945	20.787323
272.090412	-3.031100	3.810200	-11.548000	22.811019	0.000944	20.786253
273.088754	-2.997800	3.812500	-11.428000	22.799016	0.000946	20.785608
274.092887	-3.011600	3.811300	-11.475000	22.804999	0.000945	20.783540
275.090160	-2.997200	3.810700	-11.421000	22.810995	0.000946	20.794289
276.090014	-3.000600	3.810100	-11.432000	22.816807	0.000946	20.811965
277.089832	-3.007300	3.809000	-11.455000	22.810619	0.000946	20.823784
278.089942	-3.007900	3.810400	-11.459000	22.814138	0.000946	20.798860
279.090250	-2.965000	3.811500	-11.300000	22.796576	0.000948	20.808768
280.089801	-2.999000	3.808700	-11.420000	22.809405	0.000946	20.799334
281.091249	-3.003200	3.809400	-11.439000	22.796333	0.000949	20.791455
282.092174	-2.995800	3.809600	-11.411000	22.816261	0.000949	20.806676
283.091879	-3.001800	3.807900	-11.429000	22.818092	0.000950	20.809459
284.093059	-2.981500	3.808700	-11.352000	22.821795	0.000949	20.791831
285.093332	-2.993400	3.809200	-11.401000	22.834769	0.000950	20.802458
286.093827	-3.007700	3.806600	-11.449000	22.855375	0.000949	20.810773
287.095294	-2.993800	3.808300	-11.401000	22.836322	0.000950	20.794056
288.091765	-3.014900	3.807500	-11.477000	22.856855	0.000952	20.792815
289.098694	-3.010000	3.807100	-11.458000	22.886624	0.000952	20.785654
290.098699	-2.975400	3.807800	-11.329000	22.929838	0.000952	20.799077
291.097240	-3.023700	3.806700	-11.509000	22.889014	0.000952	20.808438
292.095861	-2.992500	3.807800	-11.393000	22.875822	0.000956	20.823196
293.094057	-3.021500	3.806200	-11.498000	22.912386	0.000953	20.809568
294.093807	-2.993400	3.806700	-11.393000	22.898261	0.000954	20.813434
295.095238	-3.005600	3.806100	-11.438000	22.919193	0.000954	20.806904
296.099692	-3.004100	3.805700	-11.431000	22.905263	0.000956	20.812388
297.097294	-2.989100	3.806500	-11.378000	22.940139	0.000955	20.786163
298.097911	-2.989400	3.804600	-11.373000	22.920808	0.000957	20.833651
299.097645	-3.021600	3.803300	-11.491000	22.942616	0.000957	20.830370
300.098569	-2.993900	3.805000	-11.390000	22.957963	0.000956	20.806866
301.102596	-3.013000	3.803700	-11.458000	22.972380	0.000956	20.799974
302.099013	-2.985500	3.803100	-11.353000	22.986347	0.000957	20.822028
303.102749	-2.979600	3.803600	-11.332000	23.015239	0.000958	20.816837
304.103188	-3.004800	3.803000	-11.425000	23.040756	0.000959	20.815851
305.101424	-2.989800	3.802500	-11.366000	23.043146	0.000960	20.817772
306.104202	-3.000200	3.803000	-11.408000	23.066661	0.000959	20.827108
307.102013	-2.990000	3.803700	-11.372000	23.047210	0.000960	20.840336
308.102516	-3.010200	3.802700	-11.444000	23.018647	0.000960	20.813613
309.102144	-2.997900	3.803800	-11.402000	23.057427	0.000961	20.808373
310.102770	-2.976900	3.801900	-11.317000	23.063700	0.000961	20.817978
311.104485	-3.014700	3.802200	-11.462000	23.086936	0.000961	20.838415
312.109570	-3.000900	3.800500	-11.404000	23.079121	0.000963	20.830110
313.105195	-2.986400	3.802000	-11.353000	23.077047	0.000961	20.833722
314.107345	-3.001100	3.799800	-11.401000	23.054247	0.000963	20.828420
315.107773	-2.979200	3.800400	-11.321000	23.036629	0.000963	20.827837
316.108584	-3.008100	3.801200	-11.432000	23.056139	0.000962	20.816092
317.110727	-2.987200	3.800700	-11.352000	23.055750	0.000966	20.819021
318.108444	-2.997400	3.800300	-11.390000	23.041286	0.000964	20.814486
319.109144	-2.961400	3.800900	-11.255000	23.051370	0.000965	20.807520
320.108571	-2.994800	3.799300	-11.377000	23.073840	0.000965	20.824345
321.108634	-2.978100	3.800900	-11.319000	23.078124	0.000965	20.847128
322.109926	-2.995100	3.799400	-11.379000	23.096687	0.000968	20.832064
323.110503	-3.002700	3.798500	-11.405000	23.108335	0.000967	20.834253
324.108418	-2.969700	3.799900	-11.283000	23.132116	0.000965	20.829634
325.108660	-3.005000	3.798500	-11.414000	23.125029	0.000968	20.806886
326.108079	-3.008800	3.798400	-11.428000	23.124107	0.000968	20.815919
327.108425	-2.985800	3.798900	-11.341000	23.144235	0.000970	20.825657
328.110897	-2.988100	3.798000	-11.348000	23.139322	0.000970	20.805087
329.111689	-3.002500	3.798100	-11.402000	23.130889	0.000971	20.827456
330.114007	-2.989400	3.797400	-11.351000	23.152885	0.000972	20.814410
331.114072	-2.979800	3.797500	-11.314000	23.159266	0.000971	20.805632
332.112875	-2.986400	3.797700	-11.339000	23.176411	0.000971	20.804794
333.115394	-2.998700	3.795700	-11.381000	23.178679	0.000973	20.812757
334.113034	-3.002000	3.795400	-11.392000	23.170611	0.000973	20.799457
335.112404	-3.001000	3.795000	-11.388000	23.181943	0.000973	20.818398
336.113833	-2.997500	3.796500	-11.379000	23.169470	0.000974	20.806848
337.112772	-2.989200	3.795700	-11.346000	23.170198	0.000973	20.805206
338.113411	-3.011900	3.794800	-11.429000	23.199958	0.000976	20.819382
339.115668	-3.035300	3.793200	-11.512000	23.196622	0.000975	20.798021
340.117334	-3.012800	3.793200	-11.427000	23.225119	0.000975	20.809983
341.113344	-2.995900	3.793600	-11.364000	23.230810	0.000975	20.805729
342.113996	-3.000200	3.792900	-11.379000	23.251590	0.000976	20.806640
343.115730	-2.998900	3.792500	-11.373000	23.239616	0.000977	20.806019
344.123726	-3.026600	3.791000	-11.473000	23.256273	0.000978	20.787625
345.115147	-2.992700	3.793300	-11.350000	23.256722	0.000977	20.817472
346.116504	-2.994500	3.792700	-11.356000	23.282876	0.000977	20.774457
347.116870	-3.003500	3.791600	-11.388000	23.277296	0.000977	20.778822
348.114669	-3.011100	3.792400	-11.418000	23.277696	0.000978	20.785387
349.117396	-3.016800	3.790300	-11.434000	23.291538	0.000979	20.805423
350.117204	-3.010000	3.791800	-11.411000	23.298548	0.000978	20.768352
351.115039	-2.992100	3.792100	-11.344000	23.279867	0.000981	20.788037
352.115018	-2.999400	3.791200	-11.371000	23.272370	0.000978	20.792377
353.115212	-3.018100	3.790900	-11.441000	23.278848	0.000981	20.799817
354.119981	-2.997700	3.791900	-11.366000	23.283398	0.000980	20.780195
355.114527	-3.025500	3.787800	-11.459000	23.286720	0.000981	20.776887
356.116047	-2.988400	3.790100	-11.325000	23.289475	0.000982	20.772062
357.117222	-3.000800	3.789800	-11.371000	23.292579	0.000984	20.799828
358.117474	-3.007400	3.789200	-11.395000	23.270816	0.000981	20.782285
359.116691	-2.964200	3.790600	-11.235000	23.305499	0.000984	20.782431
360.118823	-2.972600	3.790300	-11.267000	23.300852	0.000982	20.782989
361.116671	-2.978400	3.788100	-11.281000	23.306226	0.000984	20.779367
362.119887	-2.981400	3.788100	-11.292000	23.297310	0.000983	20.780862
363.117612	-2.979500	3.788900	-11.287000	23.318514	0.000984	20.795000
364.119999	-3.012400	3.787700	-11.409000	23.298897	0.000985	20.782927
365.121116	-2.992600	3.787800	-11.334000	23.331833	0.000985	20.772788
366.116013	-3.004100	3.787000	-11.375000	23.322504	0.000985	20.779559
367.118373	-3.005500	3.787500	-11.383000	23.328303	0.000985	20.775414
368.117266	-2.982600	3.786400	-11.292000	23.329892	0.000986	20.796921
369.116737	-2.967400	3.786600	-11.235000	23.314194	0.000986	20.755583
370.118648	-3.009600	3.785600	-11.393000	23.323718	0.000986	20.787888
371.120107	-2.973600	3.787500	-11.261000	23.326119	0.000987	20.771802
372.116922	-2.982200	3.786000	-11.289000	23.331615	0.000989	20.779681
373.116132	-2.992600	3.784700	-11.325000	23.342131	0.000988	20.761771
374.117447	-2.975800	3.785400	-11.264000	23.358919	0.000987	20.783813
375.117209	-2.989400	3.784600	-11.312000	23.365615	0.000988	20.758756
376.123389	-2.994800	3.784600	-11.333000	23.356881	0.000987	20.779400
377.118632	-3.012800	3.783900	-11.398000	23.395273	0.000988	20.784688
378.121261	-2.986300	3.786200	-11.305000	23.384671	0.000989	20.765053
379.115796	-2.991900	3.783900	-11.320000	23.402550	0.000991	20.785818
380.119028	-2.991000	3.782200	-11.310000	23.356881	0.000990	20.764226
381.120274	-2.986800	3.783100	-11.298000	23.362241	0.000988	20.777660
382.117352	-2.994300	3.782800	-11.326000	23.388223	0.000990	20.778571
383.116504	-2.987800	3.781500	-11.297000	23.399055	0.000991	20.751495
384.116390	-3.002200	3.782100	-11.354000	23.403567	0.000991	20.748430
385.118438	-2.998500	3.782000	-11.340000	23.433734	0.000992	20.781039
386.121662	-3.003500	3.781700	-11.355000	23.432762	0.000991	20.754933
387.121426	-3.016600	3.781400	-11.405000	23.458320	0.000992	20.759214
388.119228	-3.005800	3.781600	-11.366000	23.470048	0.000994	20.775712
389.122229	-3.010900	3.780000	-11.381000	23.449646	0.000994	20.775176
390.122417	-2.991300	3.781500	-11.310000	23.432567	0.000994	20.753790
391.122694	-2.999300	3.781000	-11.339000	23.412904	0.000992	20.768695
392.128633	-3.006600	3.779400	-11.362000	23.412455	0.000994	20.746908
393.121231	-2.977500	3.780700	-11.256000	23.371577	0.000994	20.755722
394.124098	-3.008400	3.778900	-11.368000	23.373688	0.000996	20.768270
395.123469	-3.004300	3.780100	-11.356000	23.373202	0.000996	20.755928
396.121249	-3.016700	3.779200	-11.400000	23.380419	0.000994	20.760317
397.125387	-2.999200	3.778000	-11.329000	23.406328	0.000996	20.776328
398.122313	-2.998900	3.779500	-11.333000	23.411023	0.000995	20.770129
399.128383	-3.001400	3.778600	-11.340000	23.401075	0.000996	20.738346
400.124218	-3.010000	3.778400	-11.369000	23.399851	0.000996	20.769836
401.121287	-2.998800	3.777600	-11.327000	23.415886	0.000995	20.759830
402.122071	-2.981500	3.777300	-11.260000	23.408328	0.000999	20.761738
403.124658	-3.006100	3.776900	-11.353000	23.431386	0.000996	20.756874
404.122121	-2.999700	3.776100	-11.326000	23.421174	0.000997	20.756595
405.124942	-2.994200	3.775900	-11.304000	23.403646	0.000998	20.752303
406.122446	-2.984300	3.775600	-11.267000	23.401584	0.000995	20.766357
407.126340	-3.010400	3.775200	-11.364000	23.441199	0.000998	20.733043
408.127362	-3.001500	3.775200	-11.328000	23.434309	0.000998	20.769761
409.122231	-3.009900	3.774100	-11.359000	23.450587	0.000997	20.756679
410.125687	-2.978800	3.776000	-11.247000	23.458215	0.000999	20.756265
411.125120	-2.998000	3.774700	-11.316000	23.449106	0.000998	20.739073
412.125791	-2.988400	3.774500	-11.279000	23.432149	0.000998	20.763803
413.127704	-3.005600	3.774600	-11.344000	23.448925	0.001001	20.765444
414.123403	-2.996800	3.773800	-11.308000	23.461854	0.000999	20.752799
415.123878	-2.993100	3.773200	-11.293000	23.467373	0.001001	20.755013
416.124619	-3.008400	3.771900	-11.345000	23.477099	0.000999	20.743898
417.123384	-2.972400	3.773300	-11.215000	23.446487	0.000999	20.760630
418.126981	-3.020900	3.770500	-11.389000	23.476869	0.000999	20.754100
419.126060	-2.998900	3.772000	-11.310000	23.480240	0.001001	20.749418
420.129514	-3.004900	3.772200	-11.334000	23.502219	0.001000	20.746792
421.125039	-2.981100	3.772400	-11.245000	23.519574	0.000999	20.753284
422.127709	-2.993300	3.772300	-11.290000	23.505857	0.000999	20.739059
423.129944	-2.989100	3.770800	-11.270000	23.533438	0.001000	20.768604
424.126734	-2.976700	3.771000	-11.224000	23.530938	0.001000	20.750925
425.129078	-2.985800	3.771600	-11.261000	23.545723	0.001001	20.733502
426.139375	-2.997600	3.770000	-11.299000	23.545382	0.001002	20.762559
427.128571	-2.986600	3.772100	-11.264000	23.528889	0.001003	20.759777
428.131344	-3.000400	3.768900	-11.307000	23.542144	0.001000	20.751253
429.130362	-3.001400	3.770700	-11.316000	23.534879	0.001001	20.744918
430.130903	-3.000600	3.769500	-11.310000	23.530973	0.001002	20.755702
431.131641	-3.001300	3.769300	-11.312000	23.536444	0.001002	20.733209
432.130543	-3.007600	3.768000	-11.331000	23.549907	0.001003	20.741490
433.130310	-2.982200	3.768600	-11.237000	23.530573	0.001004	20.738705
434.133861	-2.979000	3.768500	-11.225000	23.543842	0.001003	20.753903
435.129894	-3.001800	3.767200	-11.306000	23.551337	0.001003	20.732017
436.132897	-3.003700	3.766900	-11.312000	23.567722	0.001004	20.740856
437.131264	-2.980800	3.768500	-11.233000	23.547710	0.001005	20.746400
438.130633	-2.993400	3.766400	-11.274000	23.602274	0.001003	20.743726
439.130969	-3.000300	3.766900	-11.301000	23.617955	0.001005	20.737634
440.134371	-2.998200	3.765600	-11.289000	23.594439	0.001006	20.750096
441.132648	-2.997800	3.766300	-11.289000	23.605209	0.001004	20.735288
442.131305	-3.002000	3.765700	-11.303000	23.607198	0.001004	20.757197
443.132568	-2.994400	3.765500	-11.275000	23.646174	0.001006	20.763554
444.133156	-2.982800	3.766100	-11.232000	23.645617	0.001005	20.753513
445.136326	-3.016200	3.763400	-11.349000	23.664293	0.001006	20.708222
446.133920	-2.993700	3.764500	-11.269000	23.631828	0.001005	20.736843
447.138027	-3.009600	3.763600	-11.326000	23.628226	0.001006	20.758363
448.134521	-3.013000	3.763300	-11.337000	23.609296	0.001006	20.718047
449.134589	-2.985700	3.764400	-11.238000	23.610083	0.001007	20.727845
450.139671	-3.012800	3.763600	-11.337000	23.611429	0.001009	20.748161
451.133964	-3.009500	3.762400	-11.322000	23.572087	0.001008	20.737645
452.134931	-3.001800	3.761600	-11.290000	23.557981	0.001007	20.736307
453.141119	-3.000600	3.761800	-11.287000	23.591417	0.001007	20.726203
454.141546	-2.991700	3.763000	-11.256000	23.604734	0.001007	20.730070
455.141423	-2.993500	3.762500	-11.261000	23.621858	0.001008	20.727322
456.140910	-2.984900	3.761400	-11.226000	23.634313	0.001008	20.723212
457.139628	-3.036600	3.760900	-11.418000	23.647531	0.001007	20.736939
458.138325	-3.026700	3.758500	-11.373000	23.643177	0.001008	20.714080
459.138833	-3.007200	3.759300	-11.304000	23.647544	0.001008	20.735055
460.140354	-3.004400	3.759300	-11.292000	23.667990	0.001006	20.728999
461.141913	-2.983000	3.761300	-11.218000	23.656420	0.001008	20.732099
462.142694	-2.993500	3.759200	-11.252000	23.673544	0.001008	20.740732
463.143722	-3.031900	3.758100	-11.393000	23.674914	0.001007	20.725035
464.142337	-3.010700	3.757800	-11.312000	23.695505	0.001009	20.736670
465.143341	-2.991400	3.757700	-11.239000	23.679425	0.001009	20.731454
466.144319	-2.988600	3.758400	-11.232000	23.681522	0.001009	20.732609
467.146470	-3.020600	3.757400	-11.349000	23.678914	0.001009	20.720511
468.146617	-3.000800	3.758100	-11.276000	23.655788	0.001009	20.735733
469.146846	-2.990500	3.758400	-11.238000	23.669723	0.001010	20.723150
470.147434	-3.013900	3.756900	-11.321000	23.693248	0.001008	20.728718
471.148439	-2.998100	3.757500	-11.264000	23.687149	0.001009	20.731138
472.147620	-2.996000	3.756600	-11.253000	23.733459	0.001009	20.733471
473.148035	-3.013600	3.755800	-11.317000	23.775743	0.001008	20.733666
474.149856	-3.013500	3.756400	-11.319000	23.758464	0.001009	20.724876
475.147638	-3.018900	3.754100	-11.331000	23.771960	0.001008	20.734140
476.147366	-3.001300	3.755200	-11.268000	23.779018	0.001009	20.718457
477.151086	-2.998400	3.754300	-11.256000	23.772397	0.001010	20.726992
478.147769	-2.992700	3.754800	-11.236000	23.770711	0.001009	20.711076
479.149802	-3.021600	3.753900	-11.340000	23.765193	0.001008	20.724984
480.150715	-3.014900	3.752200	-11.311000	23.795156	0.001010	20.716145
481.151229	-2.988000	3.753500	-11.214000	23.770117	0.001009	20.707634
482.151690	-2.975000	3.753800	-11.167000	23.779853	0.001010	20.722139
483.157715	-3.019900	3.752100	-11.329000	23.791203	0.001011	20.719294
484.154290	-3.008300	3.750700	-11.283000	23.823457	0.001010	20.709434
485.154087	-3.002700	3.752700	-11.267000	23.818485	0.001009	20.720570
486.157267	-3.010200	3.751800	-11.292000	23.814121	0.001009	20.721884
487.157541	-3.009300	3.750800	-11.286000	23.821190	0.001012	20.708109
488.157799	-3.022900	3.750300	-11.335000	23.825505	0.001010	20.711962
489.153358	-2.999100	3.752300	-11.253000	23.814483	0.001012	20.704229
490.155559	-3.007100	3.749500	-11.274000	23.826124	0.001011	20.705944
491.155922	-2.987700	3.749800	-11.202000	23.823444	0.001011	20.704678
492.153934	-3.017300	3.749200	-11.310000	23.815405	0.001012	20.720801
493.155839	-3.009300	3.748200	-11.277000	23.851403	0.001012	20.722757
494.153025	-3.026900	3.749600	-11.348000	23.861371	0.001010	20.709518
495.154459	-3.007500	3.749300	-11.275000	23.853527	0.001012	20.698332
496.159429	-3.015900	3.748600	-11.305000	23.867616	0.001010	20.709615
497.155807	-3.007500	3.748600	-11.272000	23.846420	0.001013	20.721554
498.157690	-3.012200	3.747400	-11.286000	23.826475	0.001013	20.701554
499.155262	-2.982500	3.748100	-11.178000	23.857515	0.001012	20.703280
500.159075	-2.993100	3.747500	-11.216000	23.845669	0.001013	20.695195
501.154860	-3.015200	3.746000	-11.294000	23.862171	0.001013	20.712691
502.154159	-2.971500	3.747800	-11.136000	23.873798	0.001013	20.697796
503.155160	-2.992300	3.746000	-11.209000	23.881486	0.001013	20.714989
504.161869	-3.009000	3.747000	-11.274000	23.891405	0.001015	20.700278
505.156885	-3.013100	3.744500	-11.280000	23.901454	0.001015	20.700397
506.156652	-3.015100	3.745700	-11.293000	23.893974	0.001014	20.700010
507.157684	-2.962500	3.747500	-11.101000	23.901794	0.001013	20.708326
508.160938	-3.012900	3.744600	-11.281000	23.906401	0.001011	20.675959
509.159290	-3.023500	3.743600	-11.317000	23.913302	0.001013	20.724133
510.158740	-2.983000	3.745700	-11.173000	23.919957	0.001013	20.689079
511.159519	-2.982700	3.744500	-11.168000	23.931281	0.001013	20.702332
512.160687	-2.994600	3.743200	-11.207000	23.900000	0.001015	20.713639
513.158336	-2.980300	3.744100	-11.158000	23.886141	0.001014	20.688835
514.160315	-3.017800	3.743600	-11.295000	23.890216	0.001014	20.685808
515.159903	-3.002900	3.742400	-11.237000	23.911130	0.001015	20.691607
516.163010	-3.011700	3.742900	-11.271000	23.876890	0.001014	20.692835
517.160837	-2.977800	3.743900	-11.148000	23.868343	0.001014	20.690902
518.159698	-3.011100	3.741500	-11.265000	23.880891	0.001014	20.708702
519.163675	-3.020400	3.742000	-11.301000	23.893367	0.001013	20.689442
520.160909	-2.999200	3.743200	-11.226000	23.859091	0.001012	20.701067
521.163967	-2.974900	3.740900	-11.128000	23.854168	0.001013	20.699449
522.163157	-3.007900	3.739600	-11.246000	23.855865	0.001014	20.682657
523.162313	-2.986200	3.740500	-11.168000	23.859199	0.001015	20.685053
524.166473	-2.998800	3.739600	-11.213000	23.827213	0.001014	20.688068
525.166001	-3.002300	3.739900	-11.227000	23.826109	0.001013	20.696919
526.163825	-3.016600	3.740000	-11.280000	23.840684	0.001014	20.684505
527.163790	-2.980100	3.739600	-11.143000	23.859429	0.001014	20.715631
528.163679	-2.990200	3.738800	-11.178000	23.878344	0.001012	20.688602
529.167410	-2.988700	3.739600	-11.175000	23.870753	0.001016	20.702330
530.172977	-3.011600	3.737100	-11.254000	23.902678	0.001014	20.703522
531.166149	-2.995600	3.738300	-11.198000	23.899755	0.001014	20.681622
532.169864	-3.013300	3.736400	-11.257000	23.910582	0.001013	20.685367
533.169196	-3.003900	3.737900	-11.227000	23.965904	0.001013	20.683470
534.169946	-3.017500	3.736100	-11.272000	23.967965	0.001012	20.684115
535.171654	-2.993100	3.737200	-11.184000	23.990163	0.001013	20.692152
536.166877	-2.993900	3.737700	-11.190000	24.000892	0.001013	20.700067
537.174330	-2.979200	3.735900	-11.130000	23.974912	0.001014	20.695350
538.166947	-2.981200	3.735600	-11.135000	24.003281	0.001014	20.693927
539.167396	-2.988700	3.736000	-11.166000	24.001244	0.001013	20.699471
540.168879	-3.007600	3.733300	-11.227000	24.002868	0.001013	20.679287
541.172277	-2.984100	3.735900	-11.147000	24.008179	0.001013	20.672285
542.171787	-2.998900	3.734400	-11.199000	24.039808	0.001014	20.676504
543.171617	-3.023300	3.733700	-11.287000	24.066271	0.001013	20.695458
544.172193	-2.998400	3.734000	-11.195000	24.092190	0.001013	20.681148
545.174767	-3.029200	3.731600	-11.302000	24.081691	0.001013	20.696225
546.174689	-3.001500	3.732500	-11.201000	24.100481	0.001014	20.689939
547.174623	-2.991700	3.732500	-11.165000	24.083620	0.001014	20.685830
548.177798	-2.993500	3.732400	-11.172000	24.105160	0.001013	20.690364
549.178364	-2.990200	3.734300	-11.164000	24.124313	0.001014	20.678753
550.173254	-3.011300	3.731700	-11.237000	24.091874	0.001015	20.683202
551.176110	-2.987000	3.733000	-11.148000	24.104638	0.001012	20.678935
552.175144	-2.985400	3.732000	-11.140000	24.109826	0.001013	20.695992
553.174950	-2.988800	3.732500	-11.154000	24.129900	0.001013	20.692892
554.175390	-3.009900	3.731200	-11.228000	24.088030	0.001015	20.681244
555.176105	-3.016400	3.730400	-11.251000	24.101437	0.001013	20.685208
556.181166	-2.984100	3.730100	-11.129000	24.097207	0.001014	20.688551
557.177443	-3.004200	3.730300	-11.205000	24.128458	0.001015	20.680065
558.176652	-3.011700	3.729800	-11.232000	24.110820	0.001014	20.702206
559.179523	-3.001700	3.730300	-11.196000	24.097909	0.001013	20.686885
560.175601	-2.995200	3.729300	-11.169000	24.093303	0.001014	20.704552
561.175502	-3.001700	3.728100	-11.189000	24.107486	0.001013	20.696965
562.180161	-3.016900	3.728100	-11.246000	24.118360	0.001012	20.687955
563.176629	-3.003200	3.727700	-11.194000	24.129670	0.001014	20.700723
564.176357	-3.014200	3.728000	-11.235000	24.119051	0.001013	20.690546
565.176391	-3.009800	3.728100	-11.219000	24.140495	0.001013	20.717745
566.176579	-3.011500	3.727100	-11.223000	24.123973	0.001013	20.697379
567.178987	-3.015800	3.727100	-11.239000	24.112773	0.001014	20.712226
568.180019	-3.001600	3.725900	-11.183000	24.103609	0.001014	20.696870
569.177334	-2.995700	3.727100	-11.164000	24.072187	0.001014	20.691434
570.178245	-3.012700	3.725400	-11.223000	24.063653	0.001013	20.684771
571.178884	-2.995300	3.725300	-11.157000	24.054089	0.001011	20.715011
572.177396	-3.008900	3.725600	-11.209000	24.022144	0.001013	20.711424
573.184587	-3.003500	3.724900	-11.187000	24.021501	0.001013	20.685172
574.180673	-3.007200	3.724400	-11.198000	24.056307	0.001013	20.695423
575.179084	-3.003900	3.723400	-11.184000	24.083607	0.001011	20.705733
576.179570	-2.985200	3.724700	-11.118000	24.085752	0.001012	20.697453
577.179347	-2.990500	3.723100	-11.133000	24.111330	0.001012	20.686121
578.184254	-3.014400	3.722400	-11.220000	24.111365	0.001012	20.709392
579.184345	-2.976500	3.723700	-11.083000	24.088346	0.001011	20.694838
580.185071	-3.014000	3.722200	-11.217000	24.067325	0.001012	20.710267
581.182037	-3.009400	3.722900	-11.202000	24.082719	0.001011	20.702472
582.182030	-3.003000	3.721300	-11.174000	24.097485	0.001009	20.680769
583.187461	-3.005000	3.721100	-11.181000	24.082513	0.001011	20.696575
584.182959	-3.021600	3.720900	-11.242000	24.090718	0.001011	20.694373
585.184609	-3.019700	3.721500	-11.237000	24.111982	0.001012	20.688197
586.184217	-3.009200	3.721500	-11.197000	24.142322	0.001011	20.686859
587.185067	-3.011400	3.720600	-11.203000	24.150686	0.001011	20.680074
588.186047	-2.988200	3.721400	-11.117000	24.152067	0.001010	20.708962
589.187964	-3.005000	3.719800	-11.177000	24.167594	0.001010	20.708415
590.186617	-3.002700	3.719500	-11.167000	24.168648	0.001013	20.691926
591.187689	-2.973300	3.720100	-11.060000	24.187933	0.001013	20.681871
592.191096	-2.985400	3.718500	-11.100000	24.215229	0.001011	20.695026
593.185288	-2.989100	3.719500	-11.118000	24.216296	0.001012	20.717435
594.189469	-3.001900	3.718500	-11.161000	24.232004	0.001011	20.702844
595.187416	-2.981500	3.719100	-11.088000	24.244719	0.001013	20.708960
596.186218	-3.019700	3.717300	-11.224000	24.239579	0.001010	20.699062
597.186472	-3.009800	3.717600	-11.187000	24.217991	0.001014	20.694951
598.185450	-2.982400	3.717900	-11.088000	24.200986	0.001011	20.704448
599.186790	-2.971000	3.718400	-11.046000	24.233312	0.001010	20.709846
600.189321	-3.016100	3.715100	-11.203000	24.201116	0.001012	20.699837
601.185473	-3.022800	3.716200	-11.233000	24.157044	0.001011	20.698306
602.186706	-2.995100	3.715900	-11.129000	24.143964	0.001009	20.698938
603.188939	-3.002200	3.716600	-11.156000	24.147297	0.001010	20.718878
604.186847	-3.006000	3.715200	-11.167000	24.127102	0.001010	20.708105
605.192605	-3.022000	3.715100	-11.226000	24.163055	0.001011	20.690584
606.188848	-3.005300	3.715100	-11.164000	24.166108	0.001009	20.689378
607.190147	-2.990700	3.714300	-11.107000	24.175746	0.001010	20.693356
608.187190	-3.003900	3.714300	-11.157000	24.188799	0.001009	20.715933
609.188051	-3.002900	3.713100	-11.148000	24.183732	0.001009	20.675760
610.189688	-3.004700	3.713700	-11.158000	24.203078	0.001009	20.701331
611.188309	-2.984900	3.713300	-11.083000	24.213284	0.001009	20.709197
612.187961	-2.989000	3.713800	-11.100000	24.234810	0.001008	20.695226
613.187897	-2.995600	3.711500	-11.117000	24.232046	0.001008	20.702412
614.188377	-2.994900	3.713700	-11.121000	24.193635	0.001008	20.712248
615.188148	-3.026100	3.712100	-11.232000	24.220942	0.001010	20.696015
616.189785	-2.983000	3.712400	-11.074000	24.208992	0.001009	20.713427
617.189537	-3.020400	3.709600	-11.204000	24.232409	0.001007	20.715105
618.189938	-3.032200	3.710200	-11.249000	24.268794	0.001008	20.717462
619.190253	-2.983900	3.710500	-11.071000	24.266868	0.001008	20.710314
620.189350	-2.992400	3.711000	-11.104000	24.271508	0.001007	20.694105
621.191841	-2.993000	3.710400	-11.105000	24.296707	0.001008	20.703735
622.190602	-3.007700	3.709400	-11.155000	24.303433	0.001006	20.705741
623.193551	-2.992000	3.709900	-11.099000	24.313310	0.001009	20.709960
624.192407	-3.017500	3.708300	-11.189000	24.316595	0.001008	20.712306
625.191704	-3.022700	3.708000	-11.207000	24.329127	0.001006	20.717766
626.193947	-3.010000	3.709200	-11.163000	24.374695	0.001007	20.728391
627.196460	-2.988600	3.709400	-11.084000	24.359618	0.001008	20.720853
628.194057	-2.994800	3.709000	-11.106000	24.347886	0.001006	20.734214
629.194800	-3.011000	3.706200	-11.158000	24.348710	0.001005	20.695683
630.194924	-2.991000	3.708300	-11.091000	24.344032	0.001008	20.712329
631.199574	-2.976100	3.708100	-11.034000	24.354503	0.001006	20.728050
632.200785	-2.992300	3.707000	-11.091000	24.352213	0.001005	20.730020
633.195385	-2.971200	3.708500	-11.018000	24.330603	0.001004	20.732998
634.199185	-2.979100	3.707500	-11.044000	24.313295	0.001004	20.721799
635.197229	-2.991200	3.706600	-11.086000	24.276013	0.001007	20.728972
636.198881	-3.022800	3.706300	-11.203000	24.267771	0.001005	20.716911
637.201797	-2.982700	3.706100	-11.051000	24.277879	0.001006	20.701445
638.197681	-2.990900	3.704800	-11.080000	24.298896	0.001005	20.707354
639.199556	-3.009700	3.706300	-11.153000	24.330965	0.001004	20.712023
640.198826	-2.989000	3.705500	-11.075000	24.345847	0.001006	20.735014
641.198654	-3.002600	3.704000	-11.120000	24.365396	0.001004	20.731866
642.202435	-2.982800	3.704600	-11.049000	24.384205	0.001004	20.703791
643.199131	-2.987100	3.703900	-11.062000	24.408140	0.001006	20.715001
644.207087	-2.994100	3.702900	-11.086000	24.416188	0.001003	20.724972
645.198976	-2.991300	3.703700	-11.078000	24.437346	0.001004	20.732448
646.199748	-2.995800	3.703900	-11.095000	24.473761	0.001003	20.718247
647.201583	-2.999200	3.703700	-11.108000	24.476597	0.001004	20.715402
648.205537	-2.977600	3.704000	-11.028000	24.451913	0.001003	20.721932
649.200300	-2.982700	3.703700	-11.046000	24.476027	0.001005	20.716253
650.202092	-2.990100	3.701800	-11.068000	24.435552	0.001006	20.731597
651.200014	-3.004600	3.701900	-11.121000	24.422948	0.001004	20.728436
652.202642	-3.001700	3.701300	-11.109000	24.435588	0.001003	20.729736
653.203752	-3.003600	3.701900	-11.119000	24.437394	0.001002	20.725859
654.202730	-2.997000	3.699500	-11.087000	24.449258	0.001002	20.723062
655.205554	-3.011100	3.698200	-11.135000	24.477639	0.001002	20.722138
656.203859	-3.003000	3.698900	-11.107000	24.463702	0.001003	20.719535
657.202817	-3.006500	3.698000	-11.117000	24.446895	0.001002	20.736813
658.204988	-3.015000	3.699000	-11.151000	24.430208	0.001002	20.724339
659.205456	-3.004400	3.698700	-11.111000	24.434607	0.001003	20.724011
660.206877	-2.996400	3.699200	-11.084000	24.431941	0.001000	20.717068
661.208697	-2.996500	3.698000	-11.080000	24.428560	0.001002	20.733592
662.206182	-3.010600	3.696900	-11.128000	24.438631	0.001000	20.701019
663.210206	-3.007300	3.697200	-11.117000	24.444278	0.001003	20.715695
664.209386	-2.999600	3.697600	-11.089000	24.477107	0.001001	20.738200
665.208075	-3.005300	3.695600	-11.105000	24.453404	0.001002	20.730540
666.207495	-2.974500	3.697100	-10.996000	24.477434	0.001001	20.747064
667.215511	-2.997100	3.696300	-11.077000	24.480561	0.000999	20.734553
668.209947	-2.985400	3.698100	-11.039000	24.473448	0.001000	20.753970
669.209804	-3.002700	3.695800	-11.095000	24.462335	0.001001	20.747088
670.207834	-3.001900	3.694600	-11.089000	24.472781	0.001000	20.745240
671.211097	-3.002500	3.696600	-11.098000	24.510153	0.001000	20.749071
672.209899	-2.999600	3.694300	-11.080000	24.487456	0.001000	20.737678
673.211292	-2.985700	3.695800	-11.034000	24.517642	0.001000	20.738566
674.214459	-3.007100	3.694500	-11.108000	24.515085	0.001001	20.743113
675.213268	-3.020500	3.692700	-11.152000	24.494207	0.000998	20.727855
676.211723	-3.008400	3.693700	-11.111000	24.507669	0.000998	20.735198
677.214522	-2.995000	3.692600	-11.057000	24.533964	0.000997	20.736924
678.212623	-3.002300	3.694100	-11.089000	24.540156	0.000999	20.740292
679.212508	-2.982000	3.693500	-11.012000	24.521458	0.000999	20.740498
680.214838	-3.011300	3.692700	-11.118000	24.531528	0.000998	20.752973
681.219224	-2.994400	3.692400	-11.056000	24.534874	0.000997	20.737363
682.218016	-2.987400	3.692100	-11.029000	24.544833	0.000996	20.763952
683.213270	-2.964700	3.693000	-10.948000	24.518660	0.000997	20.763770
684.216722	-3.003600	3.691100	-11.086000	24.492970	0.000996	20.761703
685.217094	-2.973100	3.693400	-10.980000	24.506457	0.000996	20.747259
686.213927	-3.006900	3.689700	-11.092000	24.503729	0.000995	20.759696
687.215475	-2.987500	3.690900	-11.026000	24.511218	0.000996	20.748242
688.215033	-3.004200	3.690300	-11.085000	24.487491	0.000998	20.752412
689.215379	-2.997200	3.690400	-11.059000	24.489490	0.000995	20.759160
690.215189	-3.016900	3.690800	-11.133000	24.475784	0.000996	20.768169
691.218405	-3.021300	3.689100	-11.143000	24.491429	0.000997	20.762053
692.214820	-3.000000	3.689500	-11.068000	24.481796	0.000995	20.754285
693.214658	-2.990700	3.689400	-11.032000	24.456383	0.000995	20.762928
694.214962	-2.999300	3.689000	-11.064000	24.452335	0.000994	20.745116
695.218126	-3.003800	3.688600	-11.078000	24.463326	0.000997	20.782223
696.217561	-3.009800	3.687100	-11.097000	24.490992	0.000995	20.772520
697.213198	-2.983700	3.687300	-11.001000	24.522607	0.000995	20.762514
698.216695	-3.007800	3.687500	-11.089000	24.507532	0.000997	20.759718
699.215774	-2.992400	3.688000	-11.035000	24.498977	0.000995	20.757298
700.217659	-2.987900	3.687300	-11.016000	24.479903	0.000994	20.761870
701.218416	-3.013500	3.686600	-11.109000	24.479685	0.000995	20.770185
702.215951	-2.997900	3.685600	-11.048000	24.492809	0.000992	20.755377
703.216017	-3.024700	3.685200	-11.145000	24.529186	0.000992	20.761528
704.217778	-2.996600	3.685700	-11.042000	24.536639	0.000993	20.749091
705.216626	-2.991700	3.686300	-11.028000	24.537414	0.000993	20.754137
706.217833	-3.004300	3.684100	-11.067000	24.562811	0.000993	20.779146
707.217275	-2.982300	3.686700	-10.993000	24.538577	0.000994	20.765736
708.219486	-2.974500	3.685200	-10.960000	24.546465	0.000992	20.774599
709.219029	-3.013700	3.683700	-11.099000	24.563575	0.000993	20.768058
710.218479	-2.989200	3.683800	-11.010000	24.545315	0.000993	20.762064
711.222392	-2.994100	3.683500	-11.027000	24.537063	0.000992	20.765164
712.218825	-2.995000	3.683300	-11.031000	24.553640	0.000990	20.784643
713.224721	-2.999600	3.683100	-11.046000	24.553967	0.000991	20.774065
714.219081	-2.997800	3.682200	-11.037000	24.570604	0.000991	20.789335
715.220241	-2.996900	3.683500	-11.038000	24.591129	0.000990	20.767256
716.222702	-3.027600	3.681700	-11.146000	24.594148	0.000990	20.778820
717.222342	-3.015800	3.681900	-11.102000	24.593784	0.000991	20.762332
718.222237	-3.021400	3.680300	-11.119000	24.618259	0.000990	20.773141
719.221014	-3.028000	3.679600	-11.139000	24.617338	0.000991	20.792132
720.220447	-3.007300	3.680200	-11.066000	24.600448	0.000989	20.755269
721.223849	-2.998400	3.681000	-11.035000	24.621785	0.000988	20.790904
722.223825	-2.992300	3.681200	-11.014000	24.638057	0.000989	20.770721
723.222240	-2.999900	3.679800	-11.038000	24.622561	0.000989	20.789785
724.223742	-3.017600	3.680000	-11.105000	24.654172	0.000988	20.788314
725.223385	-3.010700	3.680300	-11.079000	24.641643	0.000987	20.791389
726.222907	-3.031200	3.678200	-11.147000	24.628631	0.000986	20.793031
727.226052	-2.984000	3.678600	-10.976000	24.641692	0.000988	20.781481
728.223026	-2.999300	3.679100	-11.034000	24.651469	0.000988	20.776119
729.224937	-2.990900	3.678600	-11.002000	24.639680	0.000990	20.783256
730.224145	-2.994800	3.678000	-11.012000	24.647230	0.000988	20.771865
731.226904	-2.995900	3.677300	-11.016000	24.611050	0.000988	20.789615
732.224797	-3.008800	3.678000	-11.065000	24.620004	0.000987	20.789116
733.228462	-2.996700	3.677800	-11.020000	24.631247	0.000986	20.803243
734.225524	-2.974300	3.678000	-10.937000	24.627721	0.000986	20.788325
735.230278	-3.004500	3.676500	-11.045000	24.649142	0.000987	20.788957
736.226175	-3.012400	3.676300	-11.073000	24.675884	0.000985	20.783548
737.227079	-3.015200	3.675600	-11.081000	24.679712	0.000985	20.780278
738.230535	-3.026200	3.674200	-11.118000	24.693669	0.000985	20.798550
739.227583	-3.000800	3.676700	-11.032000	24.692579	0.000986	20.799827
740.229547	-2.982900	3.676400	-10.963000	24.705312	0.000986	20.804070
741.233966	-3.002700	3.674000	-11.030000	24.731591	0.000985	20.778284
742.230740	-2.992200	3.675800	-10.998000	24.693367	0.000985	20.804411
743.233710	-3.010500	3.674900	-11.062000	24.707591	0.000986	20.792132
744.232333	-2.998800	3.674600	-11.018000	24.693380	0.000986	20.806795
745.232380	-3.010700	3.673400	-11.058000	24.691028	0.000987	20.787366
746.231030	-2.996500	3.673600	-11.007000	24.696747	0.000983	20.817760
747.231926	-3.001000	3.673500	-11.024000	24.685213	0.000984	20.810453
748.231450	-3.009200	3.672700	-11.051000	24.701691	0.000983	20.798539
749.233204	-3.013200	3.673400	-11.068000	24.681965	0.000983	20.803401
750.232670	-3.000000	3.672900	-11.017000	24.695838	0.000985	20.816373
751.232737	-2.993300	3.672100	-10.991000	24.691452	0.000982	20.810076
752.232027	-2.976400	3.673200	-10.932000	24.718021	0.000982	20.822513
753.232145	-3.019900	3.671000	-11.085000	24.710170	0.000981	20.797565
754.236852	-3.005200	3.670400	-11.029000	24.696310	0.000982	20.824434
755.234099	-3.011400	3.670200	-11.051000	24.731372	0.000982	20.810781
756.237540	-3.013900	3.670200	-11.060000	24.732922	0.000982	20.798112
757.233807	-2.999200	3.671800	-11.010000	24.685975	0.000982	20.813114
758.235670	-3.039800	3.670500	-11.155000	24.707032	0.000983	20.811485
759.238670	-2.992900	3.668500	-10.978000	24.699253	0.000982	20.820275
760.239553	-3.005100	3.668900	-11.024000	24.680002	0.000979	20.808069
761.235858	-2.984200	3.670800	-10.953000	24.732887	0.000983	20.817991
762.236288	-3.000400	3.669500	-11.009000	24.722976	0.000978	20.806622
763.236129	-2.994500	3.669200	-10.986000	24.746625	0.000982	20.817552
764.237541	-2.996800	3.668300	-10.991000	24.716215	0.000980	20.820226
765.239984	-3.002600	3.669100	-11.016000	24.723921	0.000979	20.808519
766.239543	-3.007400	3.667500	-11.029000	24.729701	0.000978	20.815742
767.242467	-3.011500	3.668100	-11.045000	24.741694	0.000980	20.820191
768.239546	-3.017900	3.666900	-11.065000	24.779528	0.000979	20.815485
769.240102	-3.000500	3.666100	-10.998000	24.759770	0.000976	20.822209
770.244286	-3.002600	3.667200	-11.010000	24.778559	0.000977	20.832530
771.240823	-2.983400	3.666900	-10.938000	24.787598	0.000980	20.815996
772.241758	-2.986700	3.666500	-10.950000	24.792371	0.000979	20.818890
773.240254	-2.980400	3.667100	-10.929000	24.813511	0.000977	20.837734
774.243050	-3.006400	3.666500	-11.022000	24.828133	0.000975	20.823011
775.241790	-3.021900	3.664000	-11.070000	24.846037	0.000977	20.830075
776.243010	-3.032500	3.664700	-11.111000	24.855645	0.000975	20.815061
777.242023	-2.988800	3.665300	-10.954000	24.857133	0.000979	20.833150
778.242078	-2.993400	3.665900	-10.972000	24.855861	0.000976	20.829503
779.242318	-3.007300	3.663600	-11.016000	24.869502	0.000976	20.833710
780.244397	-2.988000	3.663300	-10.945000	24.858998	0.000976	20.825539
781.246134	-3.003900	3.663700	-11.004000	24.833608	0.000974	20.816178
782.245619	-2.991500	3.664700	-10.961000	24.802353	0.000975	20.807570
783.247874	-3.028300	3.663300	-11.093000	24.746020	0.000973	20.815048
784.249200	-2.990700	3.663200	-10.955000	24.748139	0.000976	20.827132
785.245552	-3.017700	3.662000	-11.050000	24.726937	0.000975	20.839520
786.246285	-2.998800	3.661900	-10.981000	24.729699	0.000977	20.826645
787.247701	-3.002500	3.660700	-10.989000	24.743971	0.000973	20.830536
788.246370	-3.009000	3.660400	-11.012000	24.760605	0.000974	20.826840
789.247933	-2.970200	3.663000	-10.879000	24.747157	0.000973	20.810974
790.247125	-2.980800	3.661200	-10.912000	24.769752	0.000972	20.836493
791.246680	-2.978500	3.662600	-10.908000	24.765862	0.000973	20.826426
792.251038	-3.003300	3.660200	-10.992000	24.778122	0.000974	20.822608
793.247585	-3.009200	3.660900	-11.016000	24.804278	0.000972	20.809028
794.251053	-3.005200	3.659400	-10.996000	24.817845	0.000973	20.806049
795.247295	-3.013300	3.660200	-11.028000	24.820231	0.000971	20.789478
796.247983	-3.021400	3.659300	-11.055000	24.855473	0.000972	20.822001
797.254201	-3.011500	3.658300	-11.015000	24.874708	0.000971	20.820444
798.250707	-3.007100	3.659600	-11.004000	24.878488	0.000972	20.812383
799.256303	-3.013500	3.658800	-11.023000	24.875326	0.000970	20.807314
800.252851	-3.008900	3.657900	-11.005000	24.861032	0.000970	20.821890
801.253207	-3.006000	3.658200	-10.995000	24.827839	0.000969	20.819872
802.253964	-2.994100	3.658200	-10.952000	24.823455	0.000970	20.808359
803.256566	-3.010600	3.657700	-11.011000	24.799092	0.000970	20.795289
804.252928	-2.996200	3.656800	-10.955000	24.787777	0.000968	20.820444
805.253291	-3.009000	3.656100	-11.000000	24.805064	0.000969	20.802231
806.252682	-2.998800	3.657400	-10.966000	24.812455	0.000970	20.798743
807.253763	-2.995200	3.656400	-10.950000	24.833098	0.000969	20.812348
808.255986	-2.992500	3.655200	-10.938000	24.829148	0.000969	20.797004
809.255215	-3.007500	3.656500	-10.995000	24.859458	0.000967	20.809405
810.254218	-3.000500	3.654900	-10.965000	24.836186	0.000967	20.801697
811.254086	-2.982100	3.656500	-10.903000	24.829537	0.000967	20.808299
812.253555	-2.969700	3.656800	-10.858000	24.843346	0.000968	20.815046
813.255076	-3.023000	3.655000	-11.048000	24.836683	0.000965	20.787497
814.255351	-2.989900	3.655400	-10.928000	24.874770	0.000967	20.798220
815.253158	-3.006700	3.654000	-10.986000	24.890263	0.000965	20.792907
816.254400	-2.996400	3.653600	-10.947000	24.898669	0.000966	20.805612
817.256159	-2.999500	3.652400	-10.954000	24.919917	0.000965	20.796592
818.261012	-2.974800	3.654900	-10.871000	24.902727	0.000965	20.801150
819.257942	-2.994100	3.652900	-10.935000	24.920279	0.000963	20.785102
820.258746	-2.983600	3.653100	-10.898000	24.924023	0.000965	20.798816
821.258545	-2.986700	3.653300	-10.910000	24.892177	0.000964	20.804786
822.258267	-3.000400	3.653100	-10.959000	24.903213	0.000964	20.788835
823.260070	-3.001800	3.652700	-10.963000	24.901674	0.000965	20.780178
824.261537	-3.010700	3.650600	-10.990000	24.891535	0.000965	20.786123
825.259429	-2.998800	3.649800	-10.944000	24.884896	0.000963	20.790366
826.259424	-2.989700	3.651000	-10.915000	24.919153	0.000964	20.809576
827.260429	-2.990000	3.652600	-10.919000	24.889221	0.000964	20.788068
828.260643	-3.018200	3.649700	-11.015000	24.877313	0.000962	20.783229
829.266074	-2.985700	3.650400	-10.898000	24.860440	0.000961	20.794270
830.261758	-2.991000	3.650600	-10.918000	24.880088	0.000960	20.788385
831.263726	-3.008400	3.649400	-10.978000	24.874213	0.000960	20.769687
832.266872	-3.022400	3.648700	-11.027000	24.899603	0.000959	20.783316
833.262438	-3.003300	3.650000	-10.961000	24.909124	0.000960	20.782440
834.264028	-2.966900	3.649100	-10.825000	24.930019	0.000960	20.782549
835.265338	-2.980300	3.649600	-10.876000	24.938014	0.000959	20.764495
836.262605	-2.999900	3.648300	-10.944000	24.946953	0.000960	20.780579
837.265594	-2.994000	3.648900	-10.924000	24.926858	0.000959	20.776531
838.264616	-3.008400	3.647400	-10.972000	24.919941	0.000958	20.773857
839.265846	-2.991500	3.648200	-10.912000	24.875013	0.000957	20.772385
840.265547	-3.018200	3.647000	-11.007000	24.858210	0.000957	20.760263
841.264246	-3.003600	3.647800	-10.955000	24.867211	0.000957	20.763607
842.265290	-3.003000	3.646100	-10.948000	24.900705	0.000956	20.775412
843.265740	-2.990000	3.646200	-10.901000	24.965595	0.000959	20.760884
844.265343	-3.010700	3.645400	-10.975000	24.979707	0.000957	20.768410
845.269406	-3.001700	3.645800	-10.942000	24.977356	0.000956	20.783121
846.266933	-2.993900	3.645000	-10.912000	24.977985	0.000955	20.775691
847.268336	-3.013400	3.644700	-10.982000	25.001944	0.000957	20.786464
848.267755	-2.978900	3.644500	-10.855000	24.985327	0.000957	20.788276
849.266345	-2.981000	3.646200	-10.868000	24.980711	0.000956	20.788859
850.269483	-2.986600	3.645900	-10.888000	24.946142	0.000955	20.784033
851.272813	-3.003400	3.644000	-10.943000	24.940158	0.000954	20.780872
852.267610	-3.016100	3.642500	-10.985000	24.961537	0.000954	20.776252
853.267956	-2.997500	3.644000	-10.922000	24.920087	0.000954	20.757881
854.268544	-2.998000	3.645100	-10.926000	24.906290	0.000953	20.762051
855.268488	-3.006400	3.644300	-10.955000	24.896067	0.000954	20.759377
856.278853	-2.996500	3.642800	-10.914000	24.934902	0.000955	20.767061
857.268132	-3.005500	3.642100	-10.945000	24.956149	0.000952	20.758515
858.270217	-2.985900	3.642800	-10.876000	24.971822	0.000950	20.760496
859.267782	-3.019800	3.642200	-10.998000	24.986090	0.000952	20.745894
860.273202	-2.991900	3.641900	-10.894000	25.005628	0.000954	20.763609
861.270410	-2.997900	3.642100	-10.918000	25.037519	0.000953	20.761482
862.270635	-2.983600	3.642200	-10.866000	25.043720	0.000953	20.763438
863.270453	-2.986800	3.641000	-10.873000	25.023567	0.000951	20.761227
864.269689	-2.995100	3.640700	-10.904000	25.029090	0.000950	20.760606
865.272705	-2.997500	3.638900	-10.907000	25.008948	0.000950	20.768364
866.274025	-2.988800	3.640800	-10.881000	25.010146	0.000951	20.746333
867.276057	-2.989500	3.640300	-10.882000	25.024935	0.000950	20.744108
868.270347	-3.002900	3.639200	-10.927000	25.023046	0.000949	20.750272
869.270238	-2.998100	3.639600	-10.911000	25.032906	0.000950	20.759696
870.269602	-2.996600	3.639500	-10.905000	25.053581	0.000949	20.741094
871.272420	-2.996700	3.638300	-10.902000	25.040064	0.000950	20.759295
872.270159	-2.993100	3.639000	-10.890000	25.046944	0.000951	20.738225
873.271243	-2.986900	3.638500	-10.866000	25.037581	0.000950	20.770553
874.270751	-2.995500	3.639100	-10.900000	25.035753	0.000949	20.768244
875.270133	-2.993800	3.638100	-10.891000	25.002566	0.000947	20.776657
876.271271	-2.999500	3.637100	-10.909000	25.018095	0.000948	20.754785
877.271054	-2.988700	3.636800	-10.868000	25.039108	0.000949	20.767344
878.272788	-2.979900	3.637800	-10.840000	25.049368	0.000950	20.755357
879.271529	-2.986200	3.636200	-10.857000	25.070478	0.000948	20.750943
880.271359	-3.009200	3.635300	-10.939000	25.053268	0.000946	20.765911
881.271290	-2.980100	3.636300	-10.835000	25.090959	0.000945	20.766287
882.274498	-2.965100	3.635900	-10.778000	25.079234	0.000947	20.748353
883.273219	-3.006800	3.634300	-10.926000	25.067498	0.000945	20.765970
884.274981	-2.998400	3.636500	-10.902000	25.083242	0.000945	20.753799
885.274107	-2.999100	3.634100	-10.898000	25.064494	0.000944	20.758687
886.273309	-3.005800	3.634500	-10.924000	25.073058	0.000946	20.756378
887.280082	-2.991800	3.633900	-10.870000	25.063077	0.000944	20.750152
888.274578	-3.001100	3.633500	-10.903000	25.020468	0.000944	20.742468
889.277915	-2.996100	3.634000	-10.886000	25.026039	0.000943	20.761812
890.275882	-3.005000	3.633000	-10.916000	25.045891	0.000943	20.743332
891.275449	-3.002900	3.631800	-10.905000	25.078276	0.000944	20.744546
892.278241	-3.008000	3.631300	-10.922000	25.093936	0.000945	20.743671
893.281655	-2.986500	3.633300	-10.850000	25.096479	0.000944	20.750491
894.276923	-3.013000	3.631900	-10.942000	25.081691	0.000942	20.731852
895.282970	-3.016600	3.632100	-10.955000	25.084936	0.000941	20.737006
896.278337	-2.982600	3.631900	-10.831000	25.104374	0.000941	20.736605
897.277300	-3.000000	3.630300	-10.890000	25.089926	0.000943	20.751026
898.281430	-2.979200	3.632700	-10.822000	25.022269	0.000941	20.741906
899.276438	-3.012300	3.630300	-10.935000	24.997924	0.000942	20.747341
900.281451	-2.987900	3.630700	-10.848000	24.950564	0.000940	20.752435
901.278203	-2.988400	3.629900	-10.847000	24.941345	0.000940	20.730853
902.279964	-2.995800	3.629900	-10.873000	24.954621	0.000938	20.753662
903.281526	-2.969500	3.630300	-10.779000	24.961416	0.000940	20.745783
904.279074	-2.977900	3.629500	-10.808000	25.011901	0.000940	20.748568
905.280221	-3.022800	3.627800	-10.965000	25.024642	0.000940	20.741443
906.279495	-2.975500	3.629500	-10.797000	25.024267	0.000938	20.726841
907.278738	-2.983100	3.629100	-10.826000	25.019168	0.000939	20.731206
908.279128	-2.973800	3.629400	-10.792000	24.982042	0.000936	20.756056
909.282818	-2.995900	3.627800	-10.866000	24.985859	0.000937	20.739497
910.280674	-3.001400	3.627600	-10.888000	24.988620	0.000937	20.755546
911.282498	-2.968900	3.628900	-10.772000	25.011813	0.000937	20.726668
912.279407	-3.004300	3.626300	-10.893000	25.023380	0.000935	20.711250
913.281869	-3.010500	3.625800	-10.915000	25.052860	0.000935	20.747009
914.283433	-2.989800	3.628400	-10.847000	25.086929	0.000935	20.721937
915.281509	-2.995700	3.626600	-10.863000	25.109118	0.000934	20.721926
916.284936	-3.019000	3.626200	-10.947000	25.146224	0.000934	20.744004
917.282913	-3.000000	3.625400	-10.875000	25.137286	0.000935	20.728866
918.282979	-3.004400	3.625700	-10.892000	25.179539	0.000935	20.725292
919.283220	-3.000700	3.625700	-10.876000	25.192097	0.000934	20.723675
920.286755	-2.995700	3.624100	-10.855000	25.189784	0.000932	20.728939
921.282151	-3.003000	3.623700	-10.881000	25.193539	0.000933	20.732234
922.282553	-2.975700	3.625000	-10.785000	25.183475	0.000932	20.737304
923.283865	-2.966000	3.624000	-10.748000	25.167670	0.000931	20.746094
924.283682	-2.989400	3.623500	-10.830000	25.187785	0.000930	20.722190
925.285644	-2.979500	3.623800	-10.796000	25.183002	0.000929	20.715018
926.284307	-2.985600	3.623000	-10.816000	25.193005	0.000931	20.730276
927.284575	-2.984000	3.622900	-10.810000	25.202607	0.000929	20.756039
928.284326	-2.992700	3.622200	-10.840000	25.217672	0.000928	20.719952
929.286298	-2.972100	3.622200	-10.764000	25.190109	0.000928	20.726895
930.283524	-3.009300	3.620300	-10.893000	25.228219	0.000927	20.726748
931.285427	-3.012600	3.620800	-10.907000	25.230265	0.000926	20.719319
932.285607	-3.004900	3.620500	-10.877000	25.249423	0.000928	20.698248
933.285929	-2.973800	3.623100	-10.773000	25.252764	0.000927	20.723890
934.286438	-3.009200	3.620900	-10.895000	25.267561	0.000925	20.721677
935.288010	-3.014100	3.620800	-10.912000	25.245751	0.000924	20.702149
936.289655	-3.019800	3.619100	-10.927000	25.259592	0.000925	20.733591
937.288322	-3.021200	3.619800	-10.935000	25.252738	0.000924	20.711535
938.289770	-2.992700	3.618900	-10.829000	25.237007	0.000924	20.718028
939.289153	-2.992300	3.619500	-10.830000	25.255691	0.000922	20.735838
940.288117	-2.998900	3.619900	-10.855000	25.203135	0.000922	20.711996
941.292183	-3.015000	3.619700	-10.912000	25.184546	0.000922	20.724154
942.288843	-3.003500	3.618300	-10.867000	25.151860	0.000922	20.715996
943.291687	-2.991800	3.618700	-10.825000	25.157515	0.000923	20.715509
944.290694	-3.041100	3.616900	-10.998000	25.151677	0.000920	20.717709
945.291792	-3.014700	3.617500	-10.904000	25.154935	0.000922	20.693477
946.290994	-2.991700	3.617200	-10.819000	25.148285	0.000920	20.729952
947.291192	-2.985800	3.618200	-10.802000	25.131476	0.000920	20.701221
948.289060	-3.010400	3.616200	-10.885000	25.140401	0.000922	20.708759
949.289694	-2.995500	3.617300	-10.835000	25.166220	0.000920	20.710497
950.288887	-2.996200	3.615600	-10.832000	25.180219	0.000920	20.712223
951.290000	-3.014900	3.615800	-10.900000	25.200080	0.000920	20.707980
952.290639	-2.993900	3.615700	-10.824000	25.185898	0.000918	20.692318
953.288789	-2.993000	3.616700	-10.822000	25.204342	0.000918	20.692343
954.293697	-2.988700	3.615900	-10.806000	25.180157	0.000918	20.689874
955.288237	-3.005200	3.614800	-10.861000	25.195028	0.000917	20.699589
956.291068	-3.002000	3.614000	-10.846000	25.196094	0.000917	20.711565
957.291652	-2.976200	3.614000	-10.754000	25.225085	0.000916	20.702737
958.290782	-2.973200	3.614700	-10.746000	25.243757	0.000916	20.711054
959.290238	-2.993500	3.614300	-10.818000	25.243442	0.000915	20.694614
960.289985	-3.008400	3.611600	-10.864000	25.257683	0.000916	20.700852
961.289975	-3.000300	3.612400	-10.837000	25.245004	0.000914	20.697606
962.295489	-3.007900	3.612700	-10.865000	25.267697	0.000912	20.707114
963.292657	-3.016500	3.611600	-10.893000	25.252367	0.000914	20.710688
964.290735	-2.996000	3.613000	-10.823000	25.229589	0.000911	20.713425
965.290975	-3.005500	3.611800	-10.854000	25.221995	0.000913	20.699161
966.293490	-3.001800	3.612000	-10.841000	25.197944	0.000912	20.689713
967.292249	-3.002900	3.609600	-10.838000	25.206240	0.000911	20.712742
968.294606	-3.008200	3.610900	-10.861000	25.228389	0.000912	20.692303
969.296924	-3.015800	3.611400	-10.890000	25.224575	0.000910	20.715503
970.292218	-3.017700	3.609300	-10.892000	25.226826	0.000911	20.691209
971.293312	-3.009800	3.609200	-10.862000	25.199264	0.000910	20.704790
972.291610	-2.994300	3.609400	-10.807000	25.222358	0.000911	20.690990
973.296174	-3.018200	3.607900	-10.889000	25.201868	0.000910	20.708353
974.299041	-2.987700	3.610400	-10.785000	25.195631	0.000907	20.679329
975.294447	-2.986800	3.609100	-10.778000	25.204144	0.000909	20.687876
976.293129	-3.009400	3.606900	-10.853000	25.184113	0.000910	20.697165
977.295174	-2.976200	3.609000	-10.740000	25.160123	0.000906	20.692047
978.293911	-2.996900	3.607400	-10.809000	25.144100	0.000908	20.702040
979.295437	-2.997800	3.606200	-10.810000	25.149913	0.000908	20.699341
980.293929	-2.998600	3.606800	-10.814000	25.168962	0.000906	20.683850
981.301303	-3.002700	3.607100	-10.830000	25.180262	0.000908	20.709421
982.294035	-2.975300	3.608300	-10.734000	25.194564	0.000905	20.702442
983.293488	-2.983300	3.606800	-10.758000	25.202677	0.000906	20.694465
984.296869	-2.992700	3.605500	-10.789000	25.196912	0.000904	20.709067
985.293506	-2.994000	3.606200	-10.796000	25.228858	0.000905	20.686135
986.295765	-3.007400	3.606600	-10.845000	25.245533	0.000902	20.700507
987.295954	-3.019800	3.604200	-10.883000	25.252520	0.000905	20.678597
988.295072	-3.004700	3.604200	-10.829000	25.273432	0.000903	20.681575
989.295942	-3.018700	3.602700	-10.874000	25.263817	0.000903	20.690889
990.303186	-2.986700	3.603900	-10.762000	25.270248	0.000903	20.675058
991.297104	-3.000100	3.603600	-10.811000	25.322425	0.000901	20.690937
992.297121	-2.995400	3.602000	-10.788000	25.314904	0.000901	20.684808
993.298542	-3.019700	3.601600	-10.875000	25.293677	0.000899	20.664442
994.298839	-3.007600	3.601800	-10.831000	25.262981	0.000901	20.689575
995.302870	-3.012100	3.603100	-10.851000	25.262182	0.000901	20.699679
996.299769	-3.009100	3.602000	-10.838000	25.251574	0.000902	20.691873
997.300363	-3.006800	3.601100	-10.825000	25.253293	0.000900	20.693125
998.297750	-2.986700	3.601900	-10.756000	25.274726	0.000899	20.678606
999.298208	-2.990700	3.601300	-10.769000	25.272874	0.000898	20.673902
1000.299303	-2.985400	3.602600	-10.752000	25.258839	0.000898	20.701538
1001.300338	-3.001900	3.601000	-10.809000	25.257470	0.000898	20.694000
1002.299292	-3.009900	3.599900	-10.834000	25.281858	0.000898	20.681500
1003.301274	-2.981500	3.600700	-10.735000	25.276566	0.000896	20.685671
1004.301443	-2.977600	3.599900	-10.718000	25.293519	0.000896	20.697477
1005.302091	-2.997600	3.599600	-10.788000	25.296268	0.000898	20.701186
1006.301959	-3.005600	3.599200	-10.817000	25.285939	0.000895	20.692711
1007.302972	-3.019400	3.598200	-10.863000	25.270996	0.000895	20.670594
1008.303287	-2.990800	3.599000	-10.762000	25.217932	0.000895	20.674691
1009.303689	-3.005000	3.597600	-10.810000	25.215934	0.000893	20.691179
1010.303771	-2.995700	3.598800	-10.780000	25.244053	0.000894	20.691434
1011.306067	-3.007200	3.598100	-10.819000	25.263586	0.000893	20.700140
1012.302895	-3.012400	3.597100	-10.835000	25.294342	0.000893	20.693087
1013.303603	-3.014400	3.594900	-10.835000	25.314854	0.000892	20.674800
1014.302470	-2.988900	3.596800	-10.749000	25.329094	0.000895	20.701902
1015.302251	-2.988100	3.597500	-10.748000	25.303037	0.000892	20.699447
1016.306098	-3.013800	3.595300	-10.835000	25.283383	0.000893	20.706267
1017.304228	-3.000900	3.595200	-10.787000	25.262059	0.000892	20.695288
1018.304918	-3.001000	3.594500	-10.786000	25.276130	0.000891	20.692819
1019.305002	-3.007300	3.594600	-10.809000	25.288117	0.000891	20.693001
1020.305516	-2.971500	3.595500	-10.683000	25.315520	0.000890	20.701550
1021.308421	-3.010300	3.593600	-10.816000	25.299330	0.000887	20.682447
1022.306964	-2.986300	3.595400	-10.736000	25.292561	0.000886	20.678022
1023.306785	-3.006500	3.592900	-10.800000	25.308618	0.000887	20.699361
1024.307335	-3.021900	3.594000	-10.860000	25.303181	0.000889	20.690107
1025.306017	-3.016600	3.593400	-10.839000	25.260931	0.000886	20.695104
1026.308199	-2.979300	3.593300	-10.703000	25.228199	0.000889	20.688319
1027.308817	-3.003000	3.592500	-10.787000	25.241665	0.000886	20.696624
1028.308738	-2.993000	3.591400	-10.748000	25.227001	0.000886	20.686642
1029.311100	-3.000000	3.592400	-10.776000	25.223101	0.000885	20.667552
1030.307586	-3.007200	3.591400	-10.799000	25.218754	0.000886	20.697329
1031.308009	-2.993900	3.592200	-10.753000	25.264866	0.000885	20.689571
1032.320030	-3.007500	3.591700	-10.801000	25.302029	0.000885	20.688003
1033.307940	-2.970400	3.593400	-10.673000	25.295102	0.000882	20.676305
1034.310733	-2.989300	3.590100	-10.730000	25.306763	0.000882	20.700817
1035.309955	-3.010600	3.590600	-10.809000	25.321645	0.000884	20.688258
1036.309471	-2.993200	3.590200	-10.746000	25.329104	0.000882	20.685789
1037.312144	-3.009300	3.589700	-10.802000	25.350850	0.000884	20.691504
1038.313867	-3.002500	3.589200	-10.775000	25.375867	0.000884	20.693389
1039.310503	-3.001100	3.587800	-10.767000	25.352715	0.000880	20.669192
1040.310390	-3.014800	3.589100	-10.819000	25.361167	0.000882	20.672463
1041.310566	-3.002100	3.589100	-10.773000	25.360985	0.000881	20.714958
1042.311970	-3.024600	3.587400	-10.849000	25.337882	0.000880	20.691759
1043.311034	-3.002100	3.587200	-10.768000	25.341975	0.000880	20.693024
1044.310639	-3.004600	3.586400	-10.775000	25.323594	0.000879	20.705863
1045.311111	-2.987600	3.587000	-10.715000	25.309137	0.000881	20.705572
1046.311349	-3.016100	3.586300	-10.815000	25.293443	0.000878	20.698349
1047.312290	-2.991800	3.587800	-10.732000	25.259961	0.000877	20.697923
1048.314090	-3.026400	3.585600	-10.850000	25.253555	0.000878	20.719942
1049.313321	-2.991500	3.585700	-10.725000	25.283005	0.000878	20.722009
1050.314017	-3.006000	3.586700	-10.780000	25.284905	0.000877	20.696889
1051.313287	-2.995500	3.586400	-10.742000	25.287436	0.000878	20.713656
1052.313029	-2.981100	3.586000	-10.689000	25.301083	0.000876	20.711236
1053.315166	-2.982100	3.584300	-10.688000	25.290245	0.000875	20.699406
1054.313013	-2.985000	3.585700	-10.702000	25.281745	0.000874	20.708890
1055.314947	-3.023500	3.582400	-10.830000	25.263084	0.000873	20.709595
1056.312186	-2.992000	3.583800	-10.722000	25.287460	0.000875	20.720319
1057.318587	-2.992900	3.583400	-10.723000	25.339443	0.000872	20.700913
1058.315915	-2.997000	3.583900	-10.740000	25.380731	0.000871	20.713922
1059.318003	-3.000000	3.582900	-10.748000	25.370464	0.000869	20.706457
1060.313579	-2.998700	3.582200	-10.741000	25.400310	0.000873	20.711771
1061.312617	-2.997300	3.582300	-10.736000	25.411219	0.000870	20.709448
1062.311853	-3.000700	3.581100	-10.745000	25.452505	0.000869	20.699222
1063.314175	-3.015400	3.579900	-10.793000	25.467180	0.000873	20.696415
1064.319046	-2.994600	3.581000	-10.723000	25.447408	0.000871	20.707855
1065.311918	-3.004600	3.580600	-10.758000	25.455181	0.000870	20.724671
1066.319587	-2.999300	3.580900	-10.739000	25.469600	0.000872	20.714020
1067.313004	-2.999900	3.579400	-10.737000	25.490654	0.000868	20.708609
1068.315890	-3.006000	3.579200	-10.757000	25.469140	0.000868	20.715454
1069.323543	-2.995400	3.579700	-10.721000	25.479867	0.000870	20.706785
1070.314671	-3.000100	3.579500	-10.738000	25.497046	0.000866	20.733995
1071.314421	-3.035900	3.577600	-10.861000	25.491453	0.000866	20.711308
1072.317156	-3.006300	3.577800	-10.755000	25.494564	0.000865	20.722019
1073.315058	-3.005800	3.578600	-10.754000	25.504322	0.000864	20.728974
1074.314882	-2.991700	3.579300	-10.707000	25.516065	0.000864	20.707574
1075.316818	-2.995200	3.577300	-10.714000	25.498813	0.000865	20.735770
1076.314570	-3.025100	3.576700	-10.818000	25.473886	0.000865	20.705046
1077.316410	-3.018700	3.574300	-10.789000	25.471960	0.000864	20.689360
1078.316298	-3.009600	3.575800	-10.761000	25.455155	0.000861	20.711842
1079.315540	-3.013500	3.576000	-10.775000	25.471161	0.000862	20.705629
1080.318706	-2.993900	3.575300	-10.702000	25.468388	0.000860	20.724182
1081.317387	-3.004700	3.576200	-10.745000	25.488098	0.000861	20.711257
1082.319429	-2.992200	3.574700	-10.695000	25.483025	0.000861	20.715173
1083.317366	-2.964100	3.576500	-10.600000	25.486996	0.000861	20.729593
1084.318745	-2.990700	3.573700	-10.687000	25.486645	0.000862	20.712170
1085.318634	-2.994700	3.573700	-10.700000	25.475082	0.000857	20.724741
1086.317855	-3.014400	3.572400	-10.767000	25.493666	0.000858	20.724911
1087.323211	-3.015100	3.573500	-10.772000	25.528630	0.000859	20.729678
1088.316748	-3.008600	3.572900	-10.748000	25.536088	0.000856	20.735270
1089.318633	-2.983400	3.574200	-10.662000	25.555930	0.000859	20.723903
1090.320965	-3.000900	3.572600	-10.720000	25.538000	0.000857	20.726759
1091.322662	-2.980900	3.573700	-10.652000	25.530737	0.000857	20.724681
1092.319353	-3.014900	3.572500	-10.770000	25.510907	0.000857	20.735587
1093.318526	-2.987900	3.572700	-10.673000	25.451740	0.000856	20.728328
1094.318566	-2.980700	3.572700	-10.649000	25.433918	0.000857	20.713276
1095.320787	-2.999600	3.571700	-10.713000	25.427683	0.000855	20.728352
1096.320426	-2.990500	3.571100	-10.678000	25.388091	0.000855	20.716571
1097.318836	-2.984200	3.571600	-10.657000	25.397621	0.000854	20.729460
1098.324565	-3.001300	3.569600	-10.712000	25.396882	0.000852	20.717812
1099.318645	-3.021600	3.568800	-10.782000	25.381795	0.000852	20.742493
1100.322075	-2.995600	3.569600	-10.691000	25.400672	0.000851	20.721144
1101.325294	-3.017900	3.569400	-10.771000	25.407464	0.000853	20.737922
1102.323319	-3.010600	3.569300	-10.745000	25.394690	0.000851	20.719879
1103.320720	-3.021400	3.567800	-10.778000	25.377353	0.000852	20.728549
1104.322542	-2.999600	3.567600	-10.701000	25.385162	0.000849	20.732597
1105.321844	-2.995400	3.569000	-10.689000	25.377971	0.000850	20.735334
1106.322493	-2.998800	3.568700	-10.700000	25.381166	0.000851	20.742336
1107.325640	-2.995800	3.568900	-10.691000	25.432819	0.000849	20.742045
1108.322420	-2.993800	3.566800	-10.677000	25.420881	0.000850	20.746654
1109.324056	-2.991300	3.568100	-10.671000	25.431524	0.000850	20.726993
1110.321154	-2.990600	3.566900	-10.666000	25.442662	0.000846	20.742920
1111.322209	-3.032500	3.564200	-10.807000	25.455303	0.000847	20.743760
1112.325003	-3.012600	3.566300	-10.743000	25.477289	0.000845	20.746873
1113.322798	-3.010000	3.565700	-10.731000	25.499554	0.000848	20.725134
1114.324068	-3.027200	3.564800	-10.790000	25.533816	0.000845	20.738679
1115.323870	-2.977200	3.566500	-10.616000	25.536794	0.000846	20.743093
1116.324769	-2.988700	3.563400	-10.649000	25.499192	0.000844	20.738521
1117.327872	-3.001900	3.564400	-10.698000	25.497424	0.000843	20.752394
1118.325721	-3.007600	3.566200	-10.724000	25.504822	0.000843	20.739908
1119.326904	-3.012200	3.564900	-10.737000	25.492994	0.000841	20.765015
1120.326497	-3.014300	3.563000	-10.739000	25.531675	0.000842	20.769247
1121.326460	-2.987500	3.563000	-10.643000	25.535779	0.000842	20.755350
1122.326718	-3.014300	3.563100	-10.740000	25.533480	0.000840	20.769636
1123.328981	-2.978900	3.563700	-10.614000	25.534715	0.000841	20.758549
1124.328790	-2.997000	3.561700	-10.673000	25.563564	0.000841	20.742002
1125.328537	-2.982900	3.562700	-10.626000	25.517682	0.000840	20.757091
1126.328947	-3.010700	3.561000	-10.719000	25.493468	0.000840	20.763594
1127.329833	-3.006000	3.560400	-10.701000	25.486314	0.000839	20.732227
1128.332149	-3.006100	3.560400	-10.702000	25.458637	0.000838	20.758015
1129.332727	-2.997100	3.560300	-10.669000	25.456786	0.000839	20.758526
1130.333445	-2.996400	3.560400	-10.667000	25.421202	0.000839	20.739863
1131.329718	-2.988500	3.559900	-10.638000	25.406709	0.000837	20.750915
1132.329883	-2.985300	3.560200	-10.627000	25.428492	0.000838	20.770892
1133.332972	-2.999700	3.558900	-10.675000	25.465757	0.000835	20.768484
1134.334259	-2.988300	3.559100	-10.634000	25.498616	0.000837	20.765446
1135.330721	-2.997300	3.558500	-10.664000	25.490819	0.000835	20.750029
1136.331310	-2.982400	3.559200	-10.614000	25.488216	0.000836	20.744095
1137.331447	-3.019000	3.556600	-10.737000	25.477308	0.000834	20.749736
1138.329369	-2.975000	3.558400	-10.585000	25.501086	0.000834	20.755597
1139.336557	-3.025200	3.557200	-10.760000	25.455358	0.000832	20.770843
1140.330374	-2.996000	3.557300	-10.657000	25.442657	0.000833	20.739597
1141.336359	-3.009500	3.556000	-10.701000	25.426409	0.000833	20.759317
1142.333906	-3.008800	3.556700	-10.701000	25.455188	0.000831	20.777311
1143.332962	-3.000700	3.556000	-10.669000	25.467791	0.000829	20.762466
1144.337247	-3.013100	3.555600	-10.712000	25.475370	0.000829	20.758223
1145.335060	-3.003300	3.555800	-10.678000	25.466968	0.000829	20.768752
1146.332334	-3.002900	3.554000	-10.671000	25.437620	0.000829	20.764885
1147.331709	-2.979100	3.555600	-10.591000	25.449122	0.000829	20.781177
1148.332359	-3.000300	3.555000	-10.665000	25.452706	0.000829	20.782879
1149.334148	-2.990000	3.552300	-10.620000	25.457161	0.000828	20.766015
1150.335854	-3.013500	3.552900	-10.704000	25.463081	0.000828	20.780021
1151.335267	-2.985900	3.553000	-10.607000	25.470927	0.000825	20.770830
1152.334983	-3.009300	3.553100	-10.691000	25.510370	0.000824	20.751644
1153.335763	-3.007200	3.553600	-10.685000	25.514329	0.000826	20.785492
1154.336663	-2.997500	3.552100	-10.646000	25.533384	0.000824	20.771437
1155.338722	-3.006800	3.552200	-10.679000	25.550284	0.000824	20.777978
1156.338049	-2.982900	3.552000	-10.595000	25.549570	0.000823	20.772045
1157.337965	-2.976300	3.551900	-10.570000	25.580706	0.000823	20.761115
1158.337250	-2.981800	3.552500	-10.592000	25.566397	0.000823	20.778038
1159.335785	-2.991100	3.551300	-10.622000	25.560186	0.000822	20.776543
1160.339645	-2.984400	3.551700	-10.598000	25.543843	0.000821	20.785734
1161.340786	-2.998500	3.550700	-10.646000	25.571359	0.000819	20.760736
1162.336227	-2.990600	3.551100	-10.619000	25.569338	0.000819	20.758706
1163.336690	-2.985800	3.550900	-10.601000	25.600231	0.000819	20.780250
1164.337225	-2.982100	3.551000	-10.588000	25.611222	0.000819	20.782280
1165.336655	-3.007800	3.549000	-10.674000	25.641267	0.000819	20.777842
1166.340894	-2.993200	3.548200	-10.620000	25.626052	0.000819	20.780104
1167.339868	-3.004800	3.547200	-10.657000	25.623570	0.000819	20.783301
1168.342557	-3.006800	3.549200	-10.669000	25.610289	0.000816	20.769014
1169.342528	-3.004400	3.547800	-10.658000	25.608498	0.000816	20.777647
1170.338499	-2.996500	3.548000	-10.630000	25.608110	0.000815	20.776309
1171.342537	-3.009900	3.545200	-10.670000	25.619441	0.000816	20.776783
1172.338650	-2.987300	3.547200	-10.595000	25.629487	0.000815	20.791141
1173.338935	-2.996400	3.546300	-10.625000	25.637864	0.000813	20.799554
1174.343057	-3.010200	3.546000	-10.673000	25.628470	0.000812	20.788223
1175.339924	-3.015300	3.544800	-10.686000	25.644498	0.000815	20.781560
1176.344402	-3.017800	3.545900	-10.700000	25.647220	0.000814	20.791407
1177.340619	-3.033600	3.543500	-10.749000	25.658502	0.000813	20.791358
1178.341844	-2.989100	3.545400	-10.596000	25.684273	0.000815	20.786422
1179.342207	-2.990400	3.544500	-10.598000	25.700819	0.000814	20.801145
1180.343534	-2.986200	3.545000	-10.583000	25.713517	0.000812	20.781656
1181.344630	-3.001400	3.543600	-10.634000	25.713008	0.000813	20.774032
1182.343779	-2.985100	3.544400	-10.579000	25.656407	0.000811	20.804901
1183.343113	-2.999700	3.542000	-10.623000	25.650148	0.000810	20.796719
1184.343289	-2.995000	3.541500	-10.606000	25.680022	0.000810	20.769825
1185.342233	-2.994600	3.541400	-10.604000	25.689742	0.000811	20.782906
1186.342368	-2.986700	3.542600	-10.579000	25.693457	0.000810	20.811768
1187.342696	-2.983100	3.542800	-10.568000	25.702499	0.000809	20.794772
1188.342490	-3.011900	3.541200	-10.665000	25.723451	0.000808	20.798273
1189.347609	-2.950600	3.542600	-10.451000	25.722834	0.000808	20.788643
1190.343414	-3.009500	3.540500	-10.654000	25.689861	0.000807	20.802941
1191.344593	-2.998900	3.540500	-10.617000	25.669476	0.000806	20.804752
1192.347311	-2.985600	3.541200	-10.571000	25.662540	0.000806	20.808691
1193.344535	-2.983300	3.541100	-10.563000	25.669501	0.000805	20.771585
1194.343895	-2.989600	3.540300	-10.583000	25.682876	0.000807	20.799244
1195.344280	-2.989400	3.539000	-10.577000	25.656862	0.000805	20.810574
1196.343955	-3.010300	3.538700	-10.651000	25.661050	0.000804	20.795340
1197.345971	-3.037400	3.539000	-10.747000	25.692426	0.000803	20.785128
1198.347699	-3.013800	3.538200	-10.663000	25.674487	0.000802	20.801249
1199.344917	-3.012600	3.538500	-10.658000	25.648606	0.000802	20.807972
1200.349374	-2.976500	3.538500	-10.531000	25.658387	0.000803	20.812106
1201.346228	-3.005700	3.537800	-10.633000	25.669995	0.000799	20.802902
1202.344288	-3.013600	3.536100	-10.655000	25.694193	0.000799	20.796860
1203.348949	-3.010100	3.536700	-10.644000	25.712857	0.000799	20.820822
1204.347299	-2.996100	3.536000	-10.594000	25.754701	0.000800	20.803108
1205.346308	-2.988000	3.537300	-10.568000	25.790249	0.000799	20.811789
1206.348944	-2.991900	3.536100	-10.579000	25.788639	0.000797	20.806379
1207.346504	-2.983900	3.534500	-10.547000	25.795720	0.000799	20.793577
1208.347533	-3.004300	3.535500	-10.621000	25.822612	0.000796	20.796883
1209.346621	-3.010700	3.534400	-10.640000	25.832718	0.000796	20.804190
1210.346757	-2.997200	3.533400	-10.589000	25.834655	0.000797	20.824153
1211.347284	-3.012300	3.534500	-10.646000	25.836870	0.000796	20.834912
1212.346888	-3.020100	3.532400	-10.667000	25.832295	0.000797	20.799971
1213.346966	-3.012800	3.531700	-10.638000	25.832657	0.000796	20.803180
1214.350218	-3.005600	3.532400	-10.616000	25.815737	0.000796	20.823167
1215.348400	-3.015700	3.531700	-10.649000	25.831168	0.000794	20.811167
1216.348419	-2.965800	3.531500	-10.473000	25.868190	0.000795	20.810425
1217.347342	-3.008800	3.530500	-10.622000	25.845437	0.000792	20.816966
1218.352927	-2.985700	3.531400	-10.541000	25.836154	0.000794	20.802899
1219.353626	-3.009500	3.530800	-10.624000	25.838902	0.000790	20.817987
1220.350466	-3.011500	3.531100	-10.632000	25.818616	0.000792	20.832223
1221.354875	-3.020100	3.531400	-10.664000	25.790440	0.000790	20.807713
1222.350311	-3.001200	3.529700	-10.592000	25.817139	0.000792	20.800868
1223.354992	-2.981100	3.531400	-10.527000	25.807118	0.000791	20.825414
1224.356357	-2.983100	3.529600	-10.528000	25.837036	0.000790	20.820381
1225.355507	-2.992700	3.529300	-10.561000	25.831191	0.000790	20.828259
1226.351543	-3.004100	3.527700	-10.597000	25.834047	0.000789	20.822120
1227.350813	-2.999200	3.529000	-10.583000	25.846029	0.000787	20.827991
1228.350946	-2.975400	3.529700	-10.500000	25.875002	0.000786	20.825328
1229.355889	-2.997200	3.527000	-10.570000	25.895359	0.000786	20.821597
1230.351418	-3.009900	3.527000	-10.615000	25.886378	0.000785	20.834386
1231.356332	-2.985700	3.527800	-10.531000	25.884296	0.000786	20.832294
1232.355977	-2.993600	3.526800	-10.556000	25.890335	0.000786	20.838361
1233.352927	-3.000500	3.525400	-10.576000	25.906709	0.000785	20.837266
1234.357408	-2.995800	3.526200	-10.562000	25.884321	0.000783	20.823784
1235.354805	-2.989000	3.526300	-10.539000	25.862803	0.000784	20.810229
1236.355988	-2.984100	3.527200	-10.524000	25.861919	0.000785	20.823091
1237.355843	-3.013600	3.525700	-10.624000	25.822839	0.000782	20.803748
1238.354574	-2.995500	3.524900	-10.558000	25.810275	0.000782	20.791602
1239.355381	-3.004100	3.525100	-10.589000	25.787593	0.000782	20.814337
1240.362025	-3.007900	3.523800	-10.598000	25.828018	0.000782	20.820330
1241.359503	-3.033300	3.524000	-10.688000	25.801525	0.000781	20.816477
1242.355085	-2.999200	3.523500	-10.566000	25.804792	0.000782	20.804586
1243.355966	-2.998000	3.522800	-10.559000	25.821179	0.000780	20.821995
1244.357030	-2.979100	3.524300	-10.498000	25.801269	0.000778	20.825704
1245.358787	-3.012100	3.522300	-10.609000	25.820223	0.000778	20.817242
1246.357043	-3.029300	3.521500	-10.666000	25.837361	0.000780	20.818811
1247.357361	-3.002100	3.521000	-10.570000	25.850977	0.000776	20.820160
1248.357785	-2.981000	3.521400	-10.497000	25.837664	0.000779	20.824804
1249.363324	-2.995400	3.520400	-10.543000	25.854982	0.000777	20.790993
1250.358553	-3.004200	3.519700	-10.573000	25.869917	0.000777	20.834444
1251.357839	-2.979300	3.522100	-10.492000	25.881571	0.000775	20.798263
1252.357398	-2.983400	3.520100	-10.501000	25.876488	0.000777	20.802165
1253.358740	-2.979600	3.521100	-10.491000	25.897970	0.000775	20.805254
1254.357252	-2.975500	3.521100	-10.476000	25.875726	0.000775	20.814202
1255.358886	-2.998000	3.520300	-10.553000	25.909297	0.000775	20.790081
1256.359710	-2.998700	3.518300	-10.549000	25.912286	0.000773	20.812998
1257.359965	-3.004800	3.519300	-10.574000	25.905133	0.000774	20.808657
1258.361011	-3.007800	3.517200	-10.578000	25.885879	0.000773	20.806858
1259.362766	-3.006800	3.518000	-10.577000	25.892390	0.000774	20.801545
1260.360012	-3.007900	3.516700	-10.577000	25.891470	0.000772	20.808207
1261.372756	-3.019200	3.516200	-10.614000	25.874527	0.000771	20.792135
1262.362844	-2.993600	3.515900	-10.524000	25.909514	0.000771	20.805946
1263.367405	-2.974200	3.516400	-10.458000	25.898259	0.000771	20.792742
1264.362732	-2.992100	3.516000	-10.518000	25.889582	0.000770	20.811526
1265.362525	-3.001000	3.517300	-10.553000	25.888178	0.000768	20.806796
1266.363496	-3.012100	3.514700	-10.585000	25.894362	0.000769	20.794043
1267.368011	-2.984200	3.516200	-10.492000	25.867180	0.000767	20.794712
1268.362513	-2.989100	3.514200	-10.504000	25.840409	0.000767	20.796268
1269.369071	-2.985100	3.514100	-10.489000	25.764364	0.000768	20.787684
1270.365039	-2.981900	3.515100	-10.480000	25.714398	0.000766	20.782541
1271.363369	-2.991400	3.513500	-10.509000	25.718199	0.000765	20.800584
1272.369032	-3.005900	3.513200	-10.559000	25.676088	0.000765	20.788158
1273.364834	-2.972400	3.514200	-10.444000	25.704097	0.000766	20.780729
1274.364397	-3.004600	3.513300	-10.555000	25.730169	0.000765	20.811184
1275.366250	-3.029800	3.509900	-10.633000	25.736028	0.000764	20.785775
1276.364959	-2.998000	3.511900	-10.526000	25.715451	0.000764	20.806832
1277.366971	-2.992900	3.512200	-10.511000	25.696507	0.000764	20.786382
1278.365960	-2.994400	3.511600	-10.514000	25.688942	0.000761	20.783526
1279.365921	-3.014500	3.510300	-10.581000	25.690323	0.000764	20.783016
1280.365602	-2.998300	3.509400	-10.522000	25.722181	0.000762	20.806954
1281.366917	-2.994400	3.509500	-10.508000	25.742032	0.000762	20.786116
1282.367092	-2.985800	3.509700	-10.478000	25.752320	0.000761	20.785544
1283.368451	-2.997800	3.509300	-10.520000	25.769095	0.000760	20.773945
1284.367803	-2.977100	3.509900	-10.446000	25.778185	0.000760	20.789714
1285.370124	-3.006800	3.506400	-10.542000	25.793436	0.000759	20.778006
1286.368699	-3.028400	3.507200	-10.619000	25.815899	0.000759	20.793933
1287.368488	-2.971300	3.507400	-10.420000	25.826888	0.000759	20.781738
1288.372345	-2.997700	3.507000	-10.511000	25.844898	0.000758	20.798880
1289.370084	-3.011400	3.506000	-10.556000	25.858683	0.000760	20.765313
1290.372500	-3.007300	3.507200	-10.546000	25.892388	0.000758	20.765982
1291.372209	-3.000600	3.506200	-10.519000	25.874259	0.000756	20.798030
1292.371701	-3.000100	3.506000	-10.516000	25.869636	0.000758	20.775367
1293.373780	-3.015200	3.503600	-10.564000	25.866440	0.000756	20.777847
1294.375077	-3.019700	3.504200	-10.581000	25.861151	0.000755	20.768741
1295.373971	-2.986300	3.505400	-10.466000	25.849097	0.000754	20.780340
1296.373815	-2.993800	3.503900	-10.488000	25.836595	0.000755	20.772522
1297.374000	-2.991500	3.504500	-10.483000	25.812450	0.000756	20.776243
1298.377543	-3.004500	3.503700	-10.526000	25.777846	0.000753	20.779890
1299.374848	-3.013900	3.502600	-10.555000	25.730908	0.000754	20.791538
1300.377062	-2.983700	3.502800	-10.450000	25.725461	0.000754	20.765678
1301.375638	-2.985700	3.502400	-10.456000	25.692416	0.000753	20.787963
1302.375421	-2.995300	3.501500	-10.487000	25.710719	0.000751	20.765569
1303.375991	-2.974000	3.503300	-10.418000	25.694099	0.000750	20.780171
1304.381788	-3.008300	3.500800	-10.531000	25.690129	0.000753	20.758164
1305.375602	-3.001300	3.500500	-10.505000	25.744780	0.000750	20.771806
1306.376696	-3.001200	3.500100	-10.504000	25.754596	0.000751	20.767441
1307.375606	-2.976700	3.500200	-10.417000	25.795966	0.000750	20.779599
1308.376394	-2.982900	3.500300	-10.440000	25.812669	0.000749	20.771722
1309.379472	-2.981200	3.501100	-10.437000	25.828935	0.000748	20.780474
1310.377038	-2.992700	3.499800	-10.473000	25.862484	0.000749	20.765338
1311.377141	-3.002500	3.499200	-10.505000	25.835737	0.000748	20.756013
1312.376542	-3.010400	3.498600	-10.532000	25.816227	0.000748	20.771977
1313.380690	-3.009900	3.496700	-10.524000	25.831707	0.000746	20.763818
1314.378094	-2.978600	3.498800	-10.420000	25.832517	0.000746	20.762261
1315.376871	-2.981400	3.499000	-10.431000	25.818877	0.000747	20.744291
1316.379967	-2.993000	3.496700	-10.465000	25.791136	0.000744	20.767161
1317.377515	-2.994700	3.496400	-10.468000	25.781986	0.000745	20.778359
1318.378631	-3.005300	3.496400	-10.507000	25.780098	0.000744	20.762237
1319.379790	-3.000200	3.495700	-10.486000	25.798931	0.000743	20.772146
1320.375591	-2.987200	3.497000	-10.445000	25.819082	0.000743	20.765835
1321.378117	-3.010200	3.494600	-10.518000	25.859252	0.000741	20.776790
1322.380320	-2.992500	3.494700	-10.457000	25.867155	0.000742	20.770030
1323.378382	-3.006500	3.494700	-10.506000	25.877091	0.000741	20.743975
1324.379470	-2.990200	3.494000	-10.448000	25.871063	0.000742	20.759257
1325.381406	-3.013800	3.493700	-10.527000	25.864528	0.000741	20.748899
1326.381424	-3.000600	3.493300	-10.481000	25.858211	0.000740	20.756303
1327.379293	-2.997300	3.492100	-10.466000	25.846047	0.000738	20.761154
1328.382965	-3.010000	3.492000	-10.510000	25.884049	0.000738	20.772777
1329.381658	-3.009000	3.491500	-10.505000	25.857302	0.000739	20.757287
1330.378324	-3.007400	3.491000	-10.498000	25.861575	0.000736	20.762528
1331.386578	-2.985500	3.490800	-10.420000	25.900605	0.000738	20.759062
1332.382993	-3.002700	3.489900	-10.477000	25.879910	0.000735	20.763403
1333.382119	-3.019600	3.490000	-10.537000	25.858330	0.000735	20.763062
1334.383173	-2.991200	3.490000	-10.438000	25.832734	0.000735	20.761056
1335.384193	-2.995100	3.490000	-10.451000	25.797211	0.000736	20.741968
1336.381630	-2.994000	3.489700	-10.446000	25.827275	0.000732	20.745141
1337.383318	-3.008400	3.488100	-10.492000	25.799873	0.000734	20.736581
1338.383555	-3.013300	3.487300	-10.507000	25.812557	0.000735	20.769712
1339.381992	-2.990800	3.489600	-10.436000	25.804509	0.000733	20.744558
1340.383772	-2.995700	3.488400	-10.449000	25.789707	0.000732	20.750078
1341.383193	-3.006900	3.487600	-10.485000	25.786802	0.000734	20.744314
1342.380658	-3.006700	3.485500	-10.479000	25.755078	0.000733	20.748010
1343.387006	-2.986700	3.488100	-10.417000	25.746290	0.000732	20.753882
1344.384233	-3.011500	3.486800	-10.499000	25.677986	0.000730	20.736010
1345.380416	-3.008800	3.486200	-10.488000	25.684244	0.000730	20.757469
1346.385209	-3.011600	3.486700	-10.500000	25.702812	0.000731	20.766162
1347.385939	-2.985500	3.484600	-10.402000	25.734937	0.000729	20.760022
1348.382727	-2.999000	3.484100	-10.448000	25.734259	0.000729	20.739426
1349.386914	-3.011000	3.484400	-10.490000	25.727565	0.000728	20.761627
1350.385610	-2.979100	3.485300	-10.382000	25.779358	0.000729	20.732095
1351.382206	-3.016700	3.482800	-10.506000	25.796847	0.000728	20.740654
1352.383763	-2.996000	3.483400	-10.435000	25.764458	0.000724	20.750794
1353.382647	-2.995300	3.482500	-10.429000	25.749848	0.000726	20.744654
1354.381984	-3.000100	3.483900	-10.451000	25.754944	0.000725	20.754988
1355.380797	-3.007900	3.482600	-10.473000	25.784718	0.000723	20.746015
1356.382303	-3.009000	3.481300	-10.474000	25.809687	0.000723	20.738379
1357.383420	-3.003900	3.480500	-10.454000	25.817990	0.000726	20.741978
1358.386026	-3.000600	3.480400	-10.443000	25.846783	0.000722	20.731072
1359.387122	-3.000400	3.479600	-10.437000	25.855303	0.000721	20.722561
1360.384808	-2.998500	3.480900	-10.437000	25.826195	0.000722	20.731254
1361.385355	-2.976000	3.481000	-10.358000	25.831085	0.000721	20.752762
1362.389989	-3.002000	3.479300	-10.444000	25.809965	0.000722	20.728227
1363.388915	-3.017600	3.478900	-10.497000	25.847690	0.000720	20.728189
1364.385871	-3.010200	3.477900	-10.468000	25.832718	0.000720	20.750135
1365.389025	-2.996700	3.477500	-10.421000	25.813861	0.000720	20.742572
1366.386341	-2.999300	3.478000	-10.431000	25.825964	0.000719	20.746669
1367.388235	-3.016200	3.476800	-10.486000	25.859259	0.000720	20.734122
1368.390706	-2.988600	3.477100	-10.389000	25.864680	0.000719	20.726765
1369.387882	-3.013500	3.476200	-10.474000	25.868602	0.000716	20.716480
1370.390326	-2.995000	3.475600	-10.408000	25.906313	0.000719	20.734924
1371.393797	-2.968400	3.477100	-10.320000	25.917070	0.000718	20.708271
1372.390558	-2.991500	3.476600	-10.399000	25.930999	0.000718	20.728904
1373.390302	-3.014700	3.474500	-10.473000	25.912386	0.000716	20.730119
1374.392973	-3.006000	3.474100	-10.441000	25.863371	0.000716	20.728770
1375.390268	-2.993300	3.475000	-10.401000	25.858627	0.000715	20.726849
1376.389692	-3.003700	3.474600	-10.435000	25.864847	0.000716	20.738313
1377.393401	-3.004600	3.474500	-10.438000	25.896447	0.000717	20.728331
1378.391111	-2.988100	3.474300	-10.381000	25.904808	0.000714	20.719187
1379.390870	-3.000500	3.474100	-10.423000	25.925781	0.000712	20.730300
1380.394657	-2.975800	3.473800	-10.335000	25.936975	0.000713	20.712622
1381.390794	-3.006200	3.471800	-10.436000	25.905909	0.000711	20.725035
1382.390764	-2.980800	3.472800	-10.351000	25.883351	0.000712	20.729400
1383.393023	-2.998600	3.471900	-10.409000	25.885541	0.000710	20.737291
1384.390939	-3.001000	3.471100	-10.415000	25.929363	0.000711	20.707344
1385.392110	-2.991400	3.472300	-10.385000	25.903331	0.000710	20.720074
1386.399509	-3.002900	3.469800	-10.418000	25.940218	0.000709	20.732950
1387.394234	-3.014100	3.468400	-10.452000	25.950734	0.000710	20.747783
1388.392687	-2.997000	3.470000	-10.398000	25.922440	0.000710	20.725047
1389.397153	-2.998400	3.468600	-10.399000	25.896856	0.000709	20.706456
1390.391943	-3.033300	3.467700	-10.516000	25.893153	0.000709	20.737351
1391.393324	-2.986100	3.468300	-10.355000	25.870437	0.000706	20.723539
1392.395693	-3.002600	3.467500	-10.410000	25.878920	0.000707	20.731588
1393.395101	-2.997000	3.468700	-10.394000	25.889304	0.000706	20.713095
1394.397243	-3.032900	3.465300	-10.509000	25.919838	0.000706	20.735235
1395.398541	-3.017700	3.466500	-10.460000	25.925816	0.000705	20.715636
1396.393931	-3.012300	3.465700	-10.438000	25.942940	0.000704	20.707234
1397.397594	-2.987800	3.466700	-10.357000	25.971439	0.000703	20.725909
1398.398395	-3.000500	3.465100	-10.396000	25.940314	0.000703	20.719769
1399.398042	-3.004500	3.466700	-10.415000	25.929374	0.000702	20.698346
1400.397223	-3.009700	3.465000	-10.426000	25.921157	0.000702	20.719015
1401.400514	-2.982200	3.466000	-10.335000	25.932677	0.000700	20.711148
1402.399117	-2.998600	3.463400	-10.384000	25.977611	0.000701	20.689434
1403.407794	-3.006200	3.463500	-10.411000	25.982499	0.000701	20.704303
1404.400373	-3.005600	3.464400	-10.412000	25.966271	0.000698	20.706018
1405.400281	-3.006800	3.464600	-10.416000	25.952560	0.000699	20.704096
1406.399359	-2.999800	3.462600	-10.386000	25.923879	0.000699	20.723173
1407.400832	-3.013800	3.462500	-10.434000	25.893345	0.000698	20.718103
1408.399145	-3.005000	3.462300	-10.403000	25.887682	0.000698	20.685384
1409.399591	-3.023100	3.460000	-10.459000	25.877080	0.000696	20.701287
1410.401652	-3.012300	3.460400	-10.423000	25.914270	0.000697	20.697870
1411.398301	-2.992800	3.461400	-10.358000	25.938982	0.000696	20.711792
1412.398017	-2.991600	3.461000	-10.353000	25.965037	0.000695	20.703354
1413.400564	-2.978200	3.459900	-10.303000	25.956529	0.000694	20.698600
1414.398512	-2.992100	3.460100	-10.351000	25.928683	0.000693	20.713774
1415.399421	-3.004800	3.459500	-10.394000	25.929033	0.000695	20.688994
1416.402022	-2.992800	3.459200	-10.351000	25.928586	0.000693	20.699925
1417.398690	-2.992900	3.458700	-10.351000	25.957533	0.000693	20.691547
1418.400763	-3.019500	3.457200	-10.439000	25.966065	0.000693	20.684471
1419.402076	-3.016500	3.457500	-10.427000	25.968945	0.000691	20.684520
1420.404862	-3.017600	3.455300	-10.426000	25.963353	0.000691	20.700240
1421.401701	-3.006300	3.455800	-10.388000	25.979653	0.000692	20.703814
1422.405534	-2.996900	3.457300	-10.359000	25.988706	0.000690	20.698210
1423.401827	-2.996700	3.455900	-10.354000	25.980670	0.000691	20.698671
1424.401731	-2.983700	3.455800	-10.310000	25.969270	0.000688	20.678682
1425.403891	-2.992500	3.455600	-10.340000	25.930799	0.000690	20.704045
1426.401663	-2.985800	3.457100	-10.320000	25.937104	0.000690	20.697577
1427.402198	-3.004900	3.456700	-10.386000	25.921214	0.000689	20.698209
1428.403094	-2.994200	3.455100	-10.345000	25.937625	0.000687	20.690987
1429.403300	-2.990900	3.453900	-10.329000	25.936123	0.000688	20.692798
1430.403090	-3.007400	3.452300	-10.380000	25.895860	0.000688	20.681271
1431.403662	-2.997100	3.453400	-10.349000	25.844013	0.000686	20.685138
1432.404278	-2.982600	3.452700	-10.296000	25.837888	0.000687	20.672346
1433.403873	-2.977500	3.452500	-10.279000	25.850499	0.000686	20.696397
1434.405573	-3.014800	3.451400	-10.405000	25.905227	0.000685	20.679775
1435.406361	-2.978600	3.452800	-10.283000	25.941871	0.000684	20.670595
1436.406076	-3.005300	3.450700	-10.369000	25.987845	0.000684	20.695922
1437.407422	-2.958500	3.451200	-10.209000	26.003455	0.000684	20.697381
1438.408066	-2.975200	3.450500	-10.265000	26.038124	0.000684	20.686693
1439.407323	-3.000300	3.449600	-10.349000	26.019864	0.000683	20.716714
1440.407577	-2.994000	3.449200	-10.325000	26.003794	0.000683	20.698196
1441.407845	-2.991000	3.449900	-10.317000	25.998759	0.000683	20.694086
1442.409290	-3.019400	3.447800	-10.409000	25.960979	0.000681	20.694536
1443.408297	-3.001100	3.448900	-10.349000	25.973940	0.000681	20.672467
1444.407870	-3.000800	3.449000	-10.349000	25.964924	0.000680	20.697551
1445.409865	-2.988100	3.447800	-10.302000	25.921830	0.000681	20.668005
1446.407860	-3.003000	3.446300	-10.347000	25.931596	0.000681	20.677343
1447.407837	-3.014200	3.445900	-10.385000	25.975440	0.000679	20.673975
1448.409207	-3.009500	3.445700	-10.369000	25.943916	0.000680	20.678340
1449.407884	-3.007300	3.445200	-10.359000	25.933569	0.000678	20.689758
1450.407856	-3.016900	3.444800	-10.392000	25.888489	0.000679	20.672917
1451.407523	-2.984000	3.446500	-10.283000	25.871074	0.000678	20.681027
1452.411697	-3.005800	3.443800	-10.350000	25.873409	0.000678	20.689539
1453.408791	-2.999000	3.445200	-10.330000	25.854142	0.000675	20.675871
1454.409729	-3.004400	3.444400	-10.347000	25.845864	0.000678	20.679884
1455.408587	-3.024200	3.442500	-10.409000	25.835370	0.000674	20.670764
1456.411588	-3.021300	3.442500	-10.400000	25.858522	0.000674	20.679798
1457.411382	-3.002900	3.442000	-10.335000	25.842426	0.000675	20.667420
1458.410103	-3.017100	3.443000	-10.386000	25.871012	0.000675	20.656781
1459.424536	-2.992500	3.440600	-10.295000	25.900905	0.000674	20.688237
1460.410319	-3.001000	3.442100	-10.328000	25.924504	0.000672	20.671639
1461.412004	-2.999200	3.440700	-10.319000	25.936376	0.000674	20.666022
1462.411978	-3.022300	3.439900	-10.396000	25.902647	0.000674	20.671493
1463.412689	-3.015300	3.438300	-10.365000	25.894152	0.000674	20.675287
1464.412499	-3.000700	3.440300	-10.322000	25.876494	0.000671	20.694060
1465.413445	-2.991200	3.440700	-10.291000	25.868882	0.000672	20.679300
1466.414217	-3.004600	3.439100	-10.332000	25.874182	0.000672	20.661863
1467.413772	-2.995900	3.440100	-10.305000	25.854407	0.000671	20.684674
1468.414491	-2.996700	3.439400	-10.306000	25.800427	0.000669	20.650835
1469.419335	-2.989500	3.439300	-10.280000	25.804519	0.000670	20.661110
1470.411572	-3.023700	3.436000	-10.388000	25.810909	0.000668	20.672746
1471.417066	-2.987400	3.438400	-10.271000	25.867103	0.000671	20.676089
1472.418112	-2.980400	3.438800	-10.248000	25.875345	0.000666	20.675834
1473.413882	-3.029700	3.435400	-10.407000	25.862237	0.000667	20.652233
1474.415545	-3.021300	3.436500	-10.382000	25.860543	0.000667	20.660489
1475.426147	-2.979400	3.437000	-10.240000	25.873481	0.000667	20.671591
1476.416969	-2.959700	3.436800	-10.170000	25.894974	0.000666	20.674691
1477.417782	-2.991000	3.436200	-10.276000	25.932757	0.000667	20.676138
1478.418762	-2.989000	3.435000	-10.266000	25.931765	0.000665	20.673244
1479.415993	-2.984500	3.434100	-10.248000	25.934572	0.000666	20.676539
1480.418462	-2.975700	3.434400	-10.219000	25.907682	0.000665	20.672758
1481.424481	-2.999500	3.432700	-10.295000	25.894405	0.000663	20.675068
1482.418445	-2.979800	3.434200	-10.231000	25.950667	0.000663	20.667578
1483.421622	-2.988500	3.432200	-10.256000	25.964233	0.000663	20.678837
1484.418879	-2.973900	3.434300	-10.212000	26.004011	0.000663	20.683714
1485.418243	-3.002700	3.432900	-10.307000	26.036561	0.000664	20.671846
1486.419757	-2.993400	3.432600	-10.274000	26.075307	0.000664	20.658617
1487.419351	-2.974000	3.431600	-10.205000	26.047415	0.000661	20.668526
1488.420878	-2.978900	3.431700	-10.222000	26.074158	0.000662	20.688759
1489.421621	-3.015700	3.429500	-10.340000	26.061041	0.000661	20.657085
1490.424606	-2.997600	3.429600	-10.279000	26.059855	0.000660	20.674387
1491.422481	-3.012100	3.428800	-10.327000	26.046630	0.000661	20.662521
1492.424091	-3.014400	3.430500	-10.340000	26.018786	0.000659	20.681489
1493.423494	-2.999800	3.429300	-10.286000	25.983415	0.000657	20.678668
1494.423990	-2.999900	3.429100	-10.286000	25.924117	0.000660	20.675045
1495.422408	-2.990400	3.427800	-10.250000	25.913721	0.000658	20.672661
1496.424307	-3.008200	3.428100	-10.311000	25.944460	0.000658	20.699752
1497.423987	-2.994400	3.427600	-10.263000	25.943819	0.000657	20.684881
1498.423604	-2.989800	3.427500	-10.246000	25.971120	0.000656	20.680540
1499.424852	-2.988900	3.426800	-10.241000	25.963956	0.000655	20.674291
1500.423826	-3.004400	3.426300	-10.293000	26.013389	0.000656	20.678911
1501.425329	-2.991100	3.425900	-10.246000	26.017564	0.000656	20.668406
1502.430668	-2.979400	3.426900	-10.207000	26.019452	0.000655	20.678364
1503.426245	-3.006300	3.425900	-10.298000	26.053576	0.000654	20.673294
1504.429302	-3.015500	3.424900	-10.327000	26.068593	0.000655	20.665622
1505.426694	-2.997900	3.423900	-10.264000	26.074329	0.000654	20.682767
1506.426255	-3.015200	3.422800	-10.319000	26.068545	0.000653	20.685016
1507.428724	-2.979000	3.424300	-10.200000	26.047998	0.000651	20.687606
1508.426653	-3.010000	3.423600	-10.304000	26.033550	0.000651	20.699169
1509.427519	-3.004500	3.423100	-10.283000	26.050019	0.000653	20.672091
1510.431032	-3.033300	3.421000	-10.375000	26.058780	0.000651	20.696068
1511.429200	-2.989900	3.422500	-10.231000	26.061781	0.000652	20.688652
1512.427764	-3.017200	3.421300	-10.321000	26.046825	0.000651	20.683582
1513.432812	-3.004400	3.421700	-10.280000	26.016403	0.000648	20.697588
1514.434503	-3.019600	3.421400	-10.331000	26.010365	0.000649	20.673502
1515.430738	-3.009000	3.421400	-10.294000	26.025152	0.000649	20.688834
1516.434052	-2.986800	3.422400	-10.221000	26.005694	0.000649	20.692993
1517.430384	-3.010300	3.419800	-10.294000	26.038778	0.000647	20.696835
1518.431388	-2.999600	3.421700	-10.261000	26.029000	0.000647	20.668042
1519.429965	-2.999800	3.418600	-10.254000	26.041065	0.000646	20.674000
1520.434186	-2.996500	3.418900	-10.243000	26.051471	0.000646	20.686828
1521.430687	-3.007700	3.417600	-10.278000	26.082025	0.000646	20.686232
1522.431819	-3.000700	3.418600	-10.257000	26.093399	0.000645	20.678694
1523.433247	-3.007100	3.417300	-10.276000	26.138821	0.000645	20.700154
1524.432995	-2.986800	3.417000	-10.205000	26.130049	0.000644	20.687546
1525.431093	-3.022100	3.415600	-10.321000	26.163032	0.000642	20.673271
1526.437017	-2.997900	3.417800	-10.245000	26.130908	0.000643	20.704531
1527.432775	-3.019700	3.415700	-10.313000	26.128694	0.000642	20.684287
1528.434186	-2.995700	3.416500	-10.233000	26.124023	0.000641	20.695716
1529.437382	-2.992900	3.416400	-10.223000	26.129141	0.000641	20.685211
1530.435798	-3.001200	3.415300	-10.249000	26.088643	0.000641	20.694305
1531.435302	-2.984300	3.416300	-10.193000	26.079072	0.000641	20.695594
1532.438533	-2.997600	3.414300	-10.234000	26.049595	0.000641	20.678304
1533.434936	-2.979200	3.414800	-10.172000	26.041391	0.000639	20.690925
1534.436958	-3.011300	3.412800	-10.275000	26.038560	0.000640	20.682390
1535.438523	-3.014900	3.412600	-10.288000	26.066015	0.000640	20.691484
1536.435518	-3.009300	3.411300	-10.263000	26.070419	0.000639	20.694487
1537.436702	-2.994000	3.412200	-10.215000	26.091849	0.000639	20.711278
1538.437525	-2.990800	3.411200	-10.200000	26.132952	0.000638	20.686669
1539.437325	-2.999100	3.411100	-10.229000	26.155457	0.000637	20.689368
1540.439458	-2.979500	3.411700	-10.164000	26.132311	0.000637	20.689818
1541.437546	-3.009700	3.411300	-10.265000	26.101988	0.000637	20.698706
1542.438944	-3.022000	3.410200	-10.305000	26.095757	0.000638	20.685805
1543.442970	-2.991900	3.410600	-10.203000	26.117343	0.000637	20.709867
1544.440423	-3.000900	3.410300	-10.233000	26.081309	0.000637	20.708274
1545.441562	-3.004500	3.408200	-10.238000	26.037663	0.000635	20.706621
1546.441531	-3.001100	3.408700	-10.230000	25.994329	0.000634	20.702912
1547.442647	-3.007800	3.408300	-10.251000	26.016511	0.000634	20.710499
1548.448545	-3.001900	3.408000	-10.229000	26.015071	0.000634	20.687239
1549.442360	-3.002900	3.407800	-10.232000	26.028466	0.000632	20.722512
1550.442317	-2.984100	3.407700	-10.168000	26.024388	0.000632	20.704189
1551.442859	-2.984700	3.408100	-10.171000	26.026384	0.000632	20.702401
1552.443414	-2.997900	3.406500	-10.212000	25.969195	0.000631	20.709903
1553.443289	-3.007000	3.406700	-10.242000	25.963095	0.000631	20.699981
1554.444842	-3.008800	3.406200	-10.247000	25.930953	0.000630	20.703726
1555.446756	-2.982800	3.405300	-10.157000	25.958279	0.000630	20.686606
1556.448989	-2.991600	3.405000	-10.185000	25.949263	0.000631	20.700783
1557.447417	-2.993300	3.404300	-10.188000	25.958678	0.000629	20.695543
1558.446708	-2.985000	3.405900	-10.165000	25.959077	0.000628	20.701160
1559.449081	-2.999600	3.404500	-10.210000	25.938856	0.000628	20.713562
1560.447985	-2.994600	3.405300	-10.196000	25.966701	0.000626	20.706924
1561.447137	-2.999600	3.403900	-10.210000	26.013920	0.000628	20.707422
1562.450676	-2.999000	3.404700	-10.210000	26.005873	0.000628	20.709769
1563.449668	-2.998700	3.404000	-10.207000	25.977774	0.000625	20.707143
1564.447906	-2.998600	3.401900	-10.200000	25.997596	0.000626	20.706669
1565.455898	-2.991400	3.401400	-10.173000	26.036875	0.000625	20.724797
1566.448627	-2.994000	3.403800	-10.190000	26.069607	0.000627	20.717380
1567.448978	-2.996600	3.402000	-10.193000	26.090468	0.000627	20.726487
1568.451428	-3.021900	3.401100	-10.277000	26.103379	0.000625	20.721441
1569.449585	-3.007200	3.401200	-10.227000	26.124323	0.000624	20.727788
1570.449549	-2.997200	3.400500	-10.191000	26.142158	0.000623	20.701610
1571.450576	-2.998500	3.400200	-10.194000	26.163465	0.000624	20.723496
1572.449743	-2.989400	3.400600	-10.166000	26.190555	0.000622	20.716104
1573.449056	-2.980600	3.400600	-10.135000	26.202847	0.000619	20.728457
1574.452311	-2.977700	3.400300	-10.125000	26.175479	0.000620	20.717551
1575.452874	-2.978400	3.398400	-10.120000	26.189466	0.000619	20.696042
1576.450375	-2.989100	3.398600	-10.158000	26.163731	0.000621	20.710961
1577.452365	-2.982100	3.398800	-10.134000	26.201516	0.000618	20.719058
1578.452954	-3.017600	3.395900	-10.247000	26.201129	0.000621	20.710134
1579.449808	-3.009300	3.396400	-10.219000	26.187567	0.000619	20.720214
1580.454268	-2.971300	3.399000	-10.098000	26.176375	0.000619	20.722244
1581.455428	-3.006100	3.396600	-10.210000	26.177911	0.000617	20.731375
1582.452284	-3.013900	3.395500	-10.233000	26.193277	0.000617	20.717417
1583.453564	-3.005200	3.396200	-10.204000	26.167954	0.000619	20.733223
1584.449373	-2.996700	3.396200	-10.176000	26.152322	0.000617	20.732214
1585.450226	-3.010100	3.394500	-10.215000	26.168704	0.000615	20.711690
1586.450682	-2.989500	3.394800	-10.148000	26.174814	0.000614	20.734426
1587.450479	-2.987600	3.393500	-10.137000	26.214740	0.000613	20.721916
1588.450033	-3.028100	3.393500	-10.274000	26.227698	0.000614	20.694158
1589.452779	-2.993500	3.392800	-10.155000	26.253976	0.000615	20.710134
1590.450446	-3.010400	3.393000	-10.214000	26.235114	0.000613	20.722000
1591.451729	-2.999200	3.392800	-10.175000	26.211812	0.000611	20.734621
1592.456093	-3.007000	3.391800	-10.197000	26.229888	0.000613	20.737612
1593.453603	-2.979800	3.393500	-10.109000	26.148777	0.000612	20.740506
1594.453263	-3.010300	3.390600	-10.206000	26.161493	0.000611	20.719144
1595.454212	-2.980500	3.391000	-10.105000	26.146913	0.000612	20.714450
1596.453455	-2.989900	3.391400	-10.139000	26.137269	0.000611	20.750280
1597.453911	-3.012200	3.389200	-10.208000	26.128896	0.000609	20.749454
1598.452354	-3.021100	3.390200	-10.240000	26.112005	0.000610	20.727265
1599.452443	-2.991800	3.391400	-10.143000	26.090395	0.000608	20.730207
1600.452170	-2.989700	3.390200	-10.134000	26.125836	0.000610	20.730730
1601.454765	-2.985600	3.391200	-10.123000	26.140572	0.000606	20.721830
1602.456443	-2.997600	3.389300	-10.158000	26.138612	0.000606	20.725550
1603.455897	-2.999900	3.387400	-10.161000	26.169828	0.000608	20.737952
1604.456054	-3.014900	3.387900	-10.213000	26.214425	0.000606	20.747205
1605.456380	-3.004500	3.387500	-10.177000	26.277880	0.000604	20.719933
1606.455494	-2.998900	3.387500	-10.158000	26.264052	0.000607	20.736383
1607.458119	-2.992900	3.387700	-10.139000	26.279997	0.000605	20.743399
1608.458706	-3.004900	3.386100	-10.173000	26.269593	0.000604	20.742900
1609.460620	-2.982900	3.388000	-10.105000	26.289978	0.000603	20.748687
1610.459199	-2.981700	3.387000	-10.097000	26.288587	0.000602	20.733538
1611.459789	-2.993500	3.384800	-10.131000	26.272109	0.000603	20.729306
1612.460823	-2.989800	3.385300	-10.120000	26.285768	0.000601	20.740662
1613.461649	-3.009700	3.384800	-10.186000	26.302947	0.000599	20.724735
1614.460585	-2.978300	3.384800	-10.081000	26.290970	0.000601	20.734037
1615.461729	-3.009800	3.384200	-10.185000	26.304845	0.000598	20.747981
1616.461407	-3.014800	3.382600	-10.196000	26.302729	0.000600	20.736370
1617.466517	-3.005500	3.382600	-10.166000	26.336021	0.000598	20.738061
1618.462287	-2.986500	3.384000	-10.106000	26.363916	0.000599	20.748553
1619.461923	-2.998400	3.382300	-10.141000	26.343605	0.000598	20.749951
1620.462629	-3.003500	3.382300	-10.157000	26.336275	0.000599	20.745903
1621.463238	-2.986300	3.381400	-10.097000	26.321879	0.000597	20.737598
1622.462250	-2.976500	3.382700	-10.068000	26.324117	0.000598	20.737476
1623.463649	-2.986300	3.380900	-10.096000	26.327552	0.000597	20.737610
1624.461628	-3.004100	3.379900	-10.152000	26.302256	0.000595	20.734473
1625.464440	-2.985700	3.380300	-10.092000	26.279730	0.000595	20.738862
1626.464166	-3.016600	3.379200	-10.192000	26.271310	0.000594	20.753634
1627.464493	-2.975700	3.379700	-10.055000	26.277080	0.000595	20.739992
1628.465155	-2.993900	3.379800	-10.117000	26.293400	0.000594	20.749755
1629.465102	-2.996300	3.378400	-10.121000	26.315405	0.000593	20.766655
1630.464622	-2.988600	3.379600	-10.100000	26.346374	0.000595	20.749414
1631.466212	-3.011300	3.378400	-10.173000	26.360794	0.000592	20.751579
1632.466850	-3.017500	3.376900	-10.189000	26.370677	0.000593	20.738752
1633.469757	-3.013900	3.376400	-10.175000	26.386402	0.000591	20.747919
1634.475014	-2.990200	3.378500	-10.101000	26.384443	0.000592	20.749268
1635.468117	-2.993900	3.377700	-10.112000	26.368184	0.000592	20.755687
1636.465952	-3.003700	3.376500	-10.141000	26.378261	0.000592	20.762022
1637.470434	-2.980200	3.377800	-10.065000	26.369793	0.000590	20.769159
1638.467412	-2.973000	3.376300	-10.037000	26.369600	0.000591	20.744307
1639.465528	-2.997200	3.376000	-10.117000	26.373507	0.000590	20.748234
1640.468431	-2.972000	3.377400	-10.036000	26.338691	0.000591	20.748806
1641.465316	-2.985600	3.375100	-10.075000	26.338220	0.000588	20.753073
1642.468374	-3.012400	3.374500	-10.165000	26.327913	0.000588	20.763104
1643.476538	-3.009100	3.374100	-10.151000	26.315065	0.000587	20.790969
1644.467812	-3.017500	3.373200	-10.177000	26.315719	0.000587	20.749900
1645.470030	-2.985900	3.372900	-10.071000	26.315005	0.000587	20.741121
1646.470415	-2.997000	3.373500	-10.110000	26.261181	0.000587	20.768586
1647.469502	-2.995900	3.372400	-10.103000	26.225733	0.000587	20.767103
1648.469702	-2.975100	3.373600	-10.035000	26.157834	0.000585	20.759091
1649.472433	-2.980300	3.374100	-10.053000	26.157362	0.000586	20.757669
1650.470361	-3.013800	3.371000	-10.159000	26.130441	0.000584	20.759541
1651.470714	-2.996200	3.372300	-10.103000	26.137713	0.000584	20.772538
1652.474532	-3.002500	3.370600	-10.120000	26.160895	0.000585	20.781608
1653.471174	-3.011700	3.371200	-10.152000	26.150212	0.000584	20.765182
1654.471149	-3.006300	3.371600	-10.135000	26.119116	0.000584	20.778034
1655.474687	-2.985700	3.369300	-10.059000	26.078061	0.000583	20.752903
1656.471259	-3.007100	3.370100	-10.133000	26.067352	0.000583	20.764903
1657.471407	-3.023700	3.368300	-10.184000	26.107319	0.000580	20.776611
1658.472663	-3.000300	3.369100	-10.107000	26.167889	0.000580	20.756392
1659.475895	-2.989700	3.369600	-10.072000	26.199213	0.000581	20.773644
1660.471229	-2.993500	3.369000	-10.085000	26.216841	0.000580	20.778082
1661.472289	-3.002400	3.367300	-10.108000	26.242925	0.000581	20.773000
1662.472030	-2.995600	3.367500	-10.087000	26.285812	0.000578	20.759674
1663.472315	-3.012200	3.366800	-10.141000	26.314665	0.000578	20.761644
1664.475028	-2.995500	3.367900	-10.087000	26.320133	0.000577	20.760501
1665.474981	-2.985000	3.366800	-10.049000	26.271138	0.000578	20.768161
1666.473938	-3.009500	3.365400	-10.127000	26.260576	0.000575	20.760866
1667.475441	-3.027800	3.363800	-10.183000	26.295696	0.000575	20.777668
1668.475863	-2.991200	3.365700	-10.066000	26.334929	0.000576	20.778690
1669.477749	-2.991600	3.364700	-10.064000	26.324234	0.000575	20.779321
1670.479026	-3.003700	3.366600	-10.111000	26.296651	0.000574	20.779102
1671.480340	-2.991100	3.364800	-10.063000	26.286671	0.000574	20.775236
1672.483029	-3.017100	3.365300	-10.153000	26.297983	0.000575	20.770009
1673.479584	-2.992700	3.364900	-10.069000	26.284929	0.000574	20.781072
1674.479685	-2.999500	3.363400	-10.088000	26.331274	0.000573	20.773594
1675.481082	-3.014700	3.362700	-10.137000	26.390150	0.000573	20.772075
1676.480223	-2.980600	3.363800	-10.025000	26.371630	0.000572	20.795661
1677.481894	-2.974800	3.363500	-10.005000	26.394383	0.000572	20.790554
1678.484058	-2.987400	3.362700	-10.045000	26.414911	0.000571	20.770883
1679.481298	-2.981400	3.362200	-10.023000	26.374617	0.000569	20.773059
1680.481004	-2.997800	3.361700	-10.077000	26.324681	0.000571	20.793995
1681.479999	-3.003900	3.361900	-10.097000	26.288230	0.000570	20.790554
1682.480911	-3.011000	3.360600	-10.118000	26.245367	0.000569	20.792050
1683.482054	-2.988800	3.360100	-10.042000	26.216935	0.000569	20.783867
1684.480463	-3.001900	3.360000	-10.085000	26.199779	0.000567	20.793180
1685.480919	-3.021200	3.359000	-10.147000	26.138352	0.000568	20.777922
1686.481274	-3.007100	3.359100	-10.100000	26.142430	0.000565	20.762104
1687.484023	-3.011900	3.358300	-10.114000	26.135969	0.000567	20.787855
1688.481759	-2.979800	3.360200	-10.011000	26.142333	0.000567	20.789508
1689.484874	-2.986000	3.360000	-10.031000	26.109834	0.000564	20.793837
1690.482718	-3.006900	3.357900	-10.096000	26.109543	0.000564	20.781691
1691.482546	-3.010000	3.357100	-10.104000	26.098617	0.000564	20.796791
1692.481998	-3.021700	3.357500	-10.143000	26.134154	0.000563	20.777023
1693.482522	-3.020800	3.355900	-10.136000	26.159611	0.000563	20.794542
1694.484991	-2.985700	3.357300	-10.023000	26.175400	0.000562	20.794286
1695.482570	-2.984900	3.355600	-10.015000	26.213487	0.000563	20.801739
1696.483789	-3.004400	3.356000	-10.081000	26.228707	0.000561	20.778153
1697.484149	-2.993700	3.354800	-10.041000	26.262026	0.000562	20.785557
1698.485032	-2.980500	3.355800	-10.001000	26.245319	0.000561	20.799587
1699.485129	-2.995300	3.355400	-10.050000	26.249638	0.000560	20.779272
1700.486929	-2.990200	3.354500	-10.030000	26.240080	0.000559	20.808073
1701.483971	-3.007400	3.354800	-10.089000	26.279786	0.000561	20.810043
1702.485398	-3.013200	3.354700	-10.108000	26.300195	0.000560	20.807320
1703.483924	-3.006600	3.353300	-10.080000	26.327765	0.000561	20.796621
1704.489979	-2.986100	3.353300	-10.013000	26.337529	0.000559	20.810226
1705.486575	-2.969200	3.352700	-9.953800	26.391662	0.000559	20.786397
1706.486011	-2.983600	3.353300	-10.004000	26.388468	0.000557	20.791247
1707.489820	-2.994200	3.352800	-10.039000	26.373722	0.000557	20.799186
1708.485458	-2.979400	3.352900	-9.988300	26.382952	0.000556	20.801825
1709.488958	-3.000300	3.352200	-10.056000	26.393609	0.000556	20.802104
1710.488759	-2.999000	3.351800	-10.051000	26.363875	0.000554	20.794505
1711.487692	-3.012700	3.351700	-10.096000	26.330778	0.000553	20.809132
1712.487184	-2.976000	3.351900	-9.974000	26.329713	0.000553	20.792415
1713.492102	-3.012700	3.350600	-10.093000	26.350774	0.000555	20.813581
1714.488665	-3.003900	3.349500	-10.061000	26.357561	0.000554	20.811867
1715.491322	-2.974100	3.351600	-9.967000	26.411318	0.000553	20.799040
1716.494120	-3.003600	3.349300	-10.059000	26.431677	0.000550	20.802432
1717.490666	-3.029300	3.347800	-10.140000	26.449700	0.000552	20.811064
1718.491811	-3.027700	3.347900	-10.136000	26.486072	0.000550	20.811113
1719.495733	-3.030100	3.347500	-10.142000	26.511653	0.000550	20.816438
1720.493282	-3.000700	3.347800	-10.045000	26.553732	0.000549	20.832656
1721.491594	-3.002800	3.347600	-10.051000	26.554857	0.000550	20.836157
1722.495657	-3.013400	3.347500	-10.085000	26.546595	0.000548	20.834491
1723.490932	-3.008000	3.347100	-10.067000	26.558811	0.000548	20.807890
1724.493441	-3.008900	3.345700	-10.066000	26.555304	0.000548	20.828546
1725.496632	-2.999900	3.346100	-10.037000	26.575889	0.000548	20.818893
1726.496069	-3.002200	3.346200	-10.046000	26.563334	0.000546	20.829506
1727.494828	-3.008100	3.346300	-10.065000	26.535141	0.000546	20.804011
1728.494167	-3.008600	3.345000	-10.062000	26.526214	0.000547	20.842927
1729.494220	-3.009800	3.344400	-10.064000	26.540475	0.000546	20.807476
1730.493845	-3.038800	3.343500	-10.157000	26.594731	0.000545	20.812229
1731.495199	-3.005000	3.344500	-10.049000	26.592990	0.000545	20.823281
1732.495847	-2.985100	3.342900	-9.978300	26.594489	0.000543	20.833322
1733.494366	-3.012400	3.342100	-10.067000	26.588018	0.000543	20.830137
1734.498823	-2.990500	3.342800	-9.995100	26.594090	0.000543	20.822016
1735.497741	-2.996300	3.342500	-10.015000	26.554927	0.000544	20.827219
1736.496380	-3.010700	3.342100	-10.061000	26.530737	0.000543	20.830405
1737.499252	-2.989800	3.342200	-9.992000	26.525560	0.000542	20.819037
1738.497328	-2.985600	3.343000	-9.979600	26.535792	0.000542	20.814623
1739.496591	-2.988300	3.342100	-9.985500	26.552750	0.000539	20.806064
1740.502416	-2.992100	3.340200	-9.992800	26.572246	0.000540	20.792946
1741.498929	-3.006000	3.340500	-10.041000	26.575270	0.000538	20.817796
1742.497110	-3.000800	3.340600	-10.023000	26.615846	0.000540	20.804532
1743.502486	-2.998700	3.340000	-10.014000	26.649999	0.000539	20.818951
1744.497050	-2.987300	3.340600	-9.977900	26.658368	0.000540	20.822148
1745.498105	-3.001800	3.339500	-10.023000	26.674271	0.000539	20.797833
1746.502409	-3.002300	3.339000	-10.023000	26.694623	0.000536	20.797431
1747.497780	-3.000800	3.338500	-10.017000	26.705701	0.000537	20.795292
1748.499577	-3.000000	3.338800	-10.014000	26.706765	0.000538	20.791620
1749.503205	-2.984300	3.339800	-9.966000	26.701759	0.000536	20.799863
1750.501572	-2.999100	3.338500	-10.012000	26.619824	0.000536	20.793359
1751.498854	-3.019800	3.337100	-10.075000	26.572196	0.000535	20.797163
1752.500346	-2.998600	3.338300	-10.008000	26.577155	0.000534	20.806890
1753.507197	-3.011300	3.336800	-10.047000	26.575740	0.000535	20.777018
1754.501010	-3.011600	3.337000	-10.048000	26.540822	0.000535	20.800239
1755.499495	-3.028000	3.334600	-10.096000	26.564795	0.000534	20.790197
1756.499833	-2.987600	3.336000	-9.965500	26.539008	0.000533	20.793200
1757.500675	-2.994400	3.335900	-9.987600	26.544596	0.000532	20.786963
1758.501261	-3.011100	3.334800	-10.040000	26.521458	0.000530	20.775559
1759.500978	-2.985300	3.335900	-9.957700	26.541282	0.000529	20.769881
1760.501193	-2.993100	3.333800	-9.976100	26.514164	0.000528	20.780081
1761.501595	-3.004100	3.333400	-10.012000	26.522704	0.000529	20.790087
1762.502610	-3.005600	3.333600	-10.017000	26.535270	0.000527	20.781856
1763.501843	-3.007800	3.333900	-10.026000	26.571555	0.000528	20.783243
1764.501688	-2.999200	3.333500	-9.997600	26.578521	0.000528	20.799254
1765.505952	-3.006400	3.332200	-10.016000	26.585100	0.000526	20.794488
1766.511926	-3.008500	3.330900	-10.020000	26.626874	0.000529	20.814670
1767.502949	-3.012000	3.331800	-10.034000	26.647881	0.000527	20.802123
1768.505955	-3.007600	3.331400	-10.018000	26.652259	0.000526	20.777127
1769.502692	-3.016000	3.330600	-10.044000	26.637469	0.000527	20.783121
1770.504658	-3.037000	3.330000	-10.112000	26.653541	0.000525	20.780312
1771.503545	-3.003200	3.330400	-10.001000	26.672468	0.000523	20.772787
1772.504834	-2.982400	3.331100	-9.933700	26.622702	0.000524	20.768750
1773.504556	-3.004100	3.329100	-9.999600	26.599227	0.000524	20.785929
1774.503918	-2.998500	3.329700	-9.983100	26.600134	0.000523	20.780677
1775.503715	-3.008600	3.329500	-10.015000	26.593784	0.000523	20.775716
1776.505775	-2.995600	3.329100	-9.971700	26.598803	0.000521	20.793090
1777.503513	-2.988600	3.328700	-9.947100	26.575570	0.000520	20.793916
1778.504588	-2.991300	3.329200	-9.957400	26.489151	0.000522	20.783388
1779.508997	-2.992000	3.329100	-9.959200	26.502431	0.000520	20.765917
1780.504348	-2.983000	3.327800	-9.926500	26.530686	0.000518	20.778196
1781.503847	-2.997200	3.326500	-9.968900	26.549300	0.000519	20.773674
1782.503739	-2.987500	3.327500	-9.939300	26.560149	0.000519	20.759449
1783.506894	-2.995800	3.327000	-9.965400	26.493251	0.000519	20.768542
1784.503107	-2.984600	3.326100	-9.926300	26.470584	0.000519	20.760457
1785.505480	-3.000500	3.325500	-9.976800	26.473293	0.000517	20.768396
1786.507563	-2.997200	3.325200	-9.965800	26.473886	0.000515	20.766147
1787.506235	-2.992000	3.325300	-9.948100	26.491110	0.000515	20.763546
1788.506511	-3.008700	3.323800	-9.999400	26.529452	0.000516	20.752299
1789.506445	-2.962800	3.324600	-9.848500	26.544425	0.000515	20.768773
1790.508559	-2.994400	3.323100	-9.950400	26.577263	0.000512	20.737770
1791.507751	-2.978600	3.323700	-9.899000	26.572183	0.000514	20.750682
1792.508918	-2.988100	3.322500	-9.927200	26.586575	0.000511	20.762779
1793.509866	-3.007300	3.323300	-9.993100	26.566692	0.000514	20.746585
1794.509945	-2.982400	3.322700	-9.908600	26.554622	0.000512	20.753892
1795.511601	-2.985300	3.323000	-9.919200	26.554996	0.000512	20.759959
1796.511437	-2.988000	3.322300	-9.926400	26.486949	0.000509	20.767424
1797.509748	-2.987200	3.320800	-9.919200	26.469495	0.000511	20.767898
1798.511542	-3.000200	3.320900	-9.962100	26.401744	0.000508	20.764761
1799.510417	-3.008400	3.319600	-9.986800	26.372917	0.000509	20.732942
1800.510676	-3.016000	3.319500	-10.009000	26.335017	0.000508	20.732310
1801.515073	-2.986900	3.320200	-9.916500	26.378990	0.000506	20.745685
1802.514230	-3.025500	3.317800	-10.037000	26.433085	0.000507	20.751216
1803.514270	-2.998500	3.318700	-9.950400	26.474030	0.000507	20.761551
1804.516347	-3.011000	3.319200	-9.992900	26.519267	0.000507	20.752493
1805.517188	-2.986600	3.318700	-9.910300	26.543106	0.000507	20.738048
1806.513652	-2.989900	3.318300	-9.920200	26.567259	0.000505	20.750000
1807.517934	-3.003800	3.317700	-9.964900	26.558902	0.000506	20.729744
1808.518184	-2.974700	3.319100	-9.872100	26.587626	0.000502	20.740601
1809.514237	-2.997700	3.317500	-9.943800	26.620015	0.000504	20.755617
1810.520842	-2.962400	3.318600	-9.829200	26.634273	0.000503	20.751459
1811.517887	-2.996400	3.316500	-9.937100	26.646742	0.000503	20.758303
1812.513850	-2.997100	3.315700	-9.936100	26.614197	0.000501	20.732698
1813.516938	-3.009000	3.316300	-9.976900	26.569134	0.000502	20.758997
1814.516748	-2.988600	3.317300	-9.913700	26.563098	0.000499	20.743446
1815.521963	-2.985700	3.314600	-9.895400	26.595004	0.000501	20.730473
1816.518971	-2.974100	3.316200	-9.861200	26.581264	0.000499	20.724722
1817.515768	-3.004900	3.315100	-9.960700	26.608972	0.000498	20.720332
1818.518862	-3.001600	3.313900	-9.946100	26.642024	0.000496	20.731749
1819.518411	-2.998500	3.313700	-9.935200	26.669054	0.000497	20.743749
1820.514894	-3.018400	3.311800	-9.994900	26.630184	0.000497	20.736442
1821.516769	-3.008600	3.312400	-9.965000	26.584782	0.000495	20.721146
1822.519053	-2.989000	3.313100	-9.901800	26.581904	0.000496	20.725839
1823.517870	-3.002400	3.311900	-9.942600	26.587516	0.000495	20.758509
1824.516669	-2.975600	3.313300	-9.857500	26.571212	0.000492	20.739274
1825.519299	-2.992600	3.312800	-9.913300	26.608209	0.000493	20.733790
1826.516925	-2.974100	3.312800	-9.850200	26.630679	0.000493	20.714179
1827.517262	-3.028100	3.310100	-10.023000	26.646268	0.000492	20.739335
1828.520366	-3.003200	3.311600	-9.944100	26.662450	0.000491	20.733316
1829.520596	-2.993000	3.309900	-9.905700	26.683613	0.000491	20.741790
1830.518889	-3.000900	3.309100	-9.929000	26.699201	0.000491	20.732331
1831.520565	-3.039700	3.307800	-10.053000	26.738575	0.000490	20.747261
1832.520347	-2.991800	3.310000	-9.902200	26.732674	0.000488	20.734215
1833.521472	-2.992400	3.310000	-9.902900	26.745637	0.000487	20.739187
1834.522009	-2.995900	3.310000	-9.914500	26.733097	0.000489	20.734640
1835.522427	-3.020500	3.306600	-9.985900	26.736482	0.000486	20.729509
1836.521795	-2.996500	3.307500	-9.910000	26.742638	0.000486	20.731430
1837.523934	-3.007200	3.307000	-9.943600	26.756749	0.000487	20.763163
1838.521471	-3.005100	3.307700	-9.937700	26.796001	0.000486	20.723916
1839.521680	-3.031400	3.305500	-10.019000	26.781793	0.000487	20.746616
1840.523003	-3.020600	3.304600	-9.980900	26.783703	0.000487	20.711551
1841.521338	-3.011900	3.304500	-9.952100	26.821067	0.000485	20.719247
1842.522283	-3.033800	3.303700	-10.021000	26.796980	0.000483	20.729643
1843.523751	-3.011900	3.304300	-9.951600	26.801998	0.000483	20.715247
1844.519543	-3.000600	3.304900	-9.915900	26.806001	0.000483	20.722116
1845.520907	-3.028000	3.304000	-10.003000	26.810704	0.000483	20.725423
1846.523959	-2.996500	3.305000	-9.902700	26.828273	0.000483	20.719380
1847.522139	-3.018500	3.303100	-9.968600	26.789108	0.000484	20.727891
1848.522601	-3.019500	3.302400	-9.971600	26.768393	0.000481	20.731720
1849.521826	-2.980900	3.304700	-9.850200	26.756905	0.000481	20.720170
1850.523513	-3.011100	3.302100	-9.941400	26.727351	0.000481	20.733605
1851.523936	-3.010400	3.302600	-9.941400	26.719261	0.000481	20.733058
1852.525992	-2.994100	3.303100	-9.889000	26.679982	0.000479	20.713957
1853.523386	-3.004800	3.301200	-9.918800	26.677974	0.000479	20.711938
1854.523837	-3.013300	3.301100	-9.946300	26.681566	0.000478	20.719817
1855.525636	-2.998200	3.302100	-9.898900	26.674346	0.000480	20.741958
1856.524237	-3.007600	3.299800	-9.923600	26.641318	0.000478	20.722029
1857.523572	-2.989200	3.300700	-9.865000	26.611784	0.000477	20.706089
1858.526902	-3.014000	3.299500	-9.943600	26.606983	0.000476	20.716437
1859.526239	-3.018300	3.299900	-9.957900	26.604480	0.000476	20.728619
1860.524392	-3.025500	3.299100	-9.980200	26.570071	0.000474	20.698296
1861.528344	-2.991000	3.299600	-9.868300	26.533750	0.000477	20.705883
1862.525103	-3.006700	3.298500	-9.916900	26.545373	0.000473	20.708558
1863.526807	-3.004400	3.298200	-9.908400	26.565161	0.000472	20.697627
1864.529025	-3.032600	3.296500	-9.996000	26.532069	0.000472	20.710357
1865.528191	-3.004000	3.298200	-9.906800	26.521280	0.000470	20.713262
1866.527703	-3.010400	3.296000	-9.921200	26.527061	0.000471	20.720971
1867.532466	-2.998300	3.296100	-9.881900	26.516055	0.000469	20.711804
1868.529697	-3.006200	3.296700	-9.909600	26.538757	0.000470	20.711390
1869.529613	-3.015700	3.294300	-9.933500	26.601734	0.000469	20.699304
1870.532631	-2.999500	3.296400	-9.884700	26.651694	0.000468	20.728193
1871.528842	-3.004900	3.293900	-9.896100	26.691470	0.000467	20.718868
1872.529397	-2.994400	3.295200	-9.866400	26.724061	0.000468	20.711804
1873.533046	-3.010600	3.293600	-9.914100	26.740458	0.000467	20.706952
1874.536667	-3.019700	3.293200	-9.943200	26.756360	0.000467	20.714880
1875.529371	-3.018600	3.292800	-9.938500	26.808635	0.000466	20.702004
1876.532361	-3.019500	3.294300	-9.946500	26.843217	0.000465	20.715913
1877.530960	-3.010400	3.292200	-9.910300	26.791210	0.000465	20.706770
1878.532525	-3.019600	3.291000	-9.936500	26.775985	0.000463	20.699048
1879.533040	-2.986800	3.291600	-9.830500	26.773748	0.000461	20.702015
1880.532670	-3.028300	3.290100	-9.962800	26.777630	0.000462	20.704021
1881.533431	-2.996200	3.292000	-9.861900	26.810387	0.000462	20.707085
1882.534024	-2.976300	3.292600	-9.798400	26.834486	0.000462	20.702866
1883.534211	-2.996100	3.291500	-9.860200	26.868560	0.000462	20.700617
1884.537409	-3.017300	3.288500	-9.921600	26.868003	0.000460	20.701954
1885.537941	-3.012300	3.290500	-9.910300	26.839359	0.000458	20.711085
1886.537112	-2.998200	3.289700	-9.862100	26.857520	0.000461	20.703741
1887.535225	-2.974900	3.290100	-9.786600	26.833216	0.000459	20.715340
1888.538583	-3.009900	3.289600	-9.900700	26.796215	0.000459	20.690463
1889.538061	-2.987800	3.290100	-9.829600	26.769382	0.000457	20.681502
1890.540989	-3.025800	3.287500	-9.946300	26.779105	0.000456	20.698391
1891.537814	-3.002500	3.287800	-9.870400	26.718629	0.000457	20.705394
1892.539421	-2.996700	3.288100	-9.852200	26.704395	0.000455	20.701989
1893.538736	-3.001200	3.287400	-9.865100	26.664693	0.000455	20.671556
1894.540741	-3.011900	3.286400	-9.897100	26.668151	0.000454	20.670765
1895.539371	-3.001100	3.286400	-9.861600	26.685276	0.000453	20.698415
1896.540185	-2.998700	3.287300	-9.856600	26.760614	0.000453	20.683119
1897.540876	-3.025600	3.284900	-9.937300	26.762634	0.000453	20.700797
1898.540066	-2.994300	3.285100	-9.835700	26.749803	0.000453	20.689794
1899.540358	-3.013300	3.283600	-9.892800	26.699219	0.000452	20.692517
1900.541975	-2.986900	3.284700	-9.810500	26.691406	0.000451	20.690353
1901.542335	-2.955800	3.287200	-9.715100	26.659601	0.000449	20.698207
1902.541454	-2.999000	3.285100	-9.850500	26.625134	0.000451	20.679203
1903.542335	-3.011500	3.283900	-9.888200	26.620296	0.000449	20.690937
1904.541292	-2.995800	3.282700	-9.833600	26.623380	0.000447	20.683605
1905.540517	-2.996700	3.282300	-9.834000	26.667716	0.000447	20.686924
1906.541945	-3.007500	3.281600	-9.868400	26.717141	0.000447	20.665488
1907.542076	-3.006900	3.281700	-9.866200	26.709522	0.000446	20.669208
1908.543446	-2.983000	3.282700	-9.791400	26.724940	0.000447	20.694195
1909.547282	-2.995300	3.280600	-9.825200	26.748678	0.000446	20.685817
1910.542991	-3.001800	3.280400	-9.845400	26.802295	0.000445	20.692784
1911.543099	-2.998500	3.281300	-9.837900	26.828281	0.000444	20.685246
1912.546609	-2.986700	3.279400	-9.793000	26.804036	0.000444	20.685051
1913.543185	-3.012800	3.280000	-9.880200	26.786140	0.000442	20.682704
1914.544172	-3.015100	3.279600	-9.886500	26.756320	0.000443	20.671213
1915.546782	-3.006700	3.278700	-9.857100	26.747940	0.000441	20.691240
1916.545261	-3.039400	3.277600	-9.960700	26.699520	0.000445	20.691872
1917.547396	-3.016600	3.277800	-9.886700	26.727503	0.000440	20.686339
1918.549910	-3.021100	3.276900	-9.899200	26.708940	0.000441	20.676685
1919.546693	-3.011500	3.277700	-9.869000	26.721469	0.000440	20.673159
1920.546836	-2.990400	3.278400	-9.802700	26.730163	0.000442	20.682849
1921.549059	-3.029000	3.274700	-9.917300	26.748036	0.000438	20.678059
1922.548767	-3.002100	3.276100	-9.834300	26.754252	0.000439	20.666289
1923.551929	-3.013900	3.275700	-9.871400	26.796708	0.000439	20.685743
1924.549255	-3.020600	3.275100	-9.890900	26.806043	0.000438	20.678533
1925.549015	-3.010800	3.274700	-9.858500	26.790142	0.000437	20.679141
1926.557158	-3.009900	3.276700	-9.861000	26.776804	0.000437	20.689914
1927.551725	-2.987300	3.274400	-9.780700	26.734904	0.000435	20.667225
1928.550591	-2.985600	3.276000	-9.779400	26.743320	0.000435	20.672842
1929.550442	-2.994600	3.275000	-9.806200	26.766695	0.000435	20.666946
1930.552234	-3.002000	3.274500	-9.829200	26.793782	0.000433	20.674265
1931.549549	-2.984900	3.273700	-9.770100	26.823214	0.000432	20.675882
1932.551530	-3.014200	3.273300	-9.866300	26.835934	0.000432	20.678715
1933.549241	-2.993100	3.272500	-9.793900	26.776816	0.000432	20.664793
1934.552182	-2.997600	3.271000	-9.802600	26.765462	0.000431	20.687044
1935.550907	-2.984200	3.272400	-9.764600	26.791750	0.000429	20.678387
1936.552546	-3.018200	3.271500	-9.873100	26.801678	0.000430	20.668927
1937.553791	-3.020500	3.271600	-9.880500	26.821048	0.000431	20.678447
1938.552055	-2.993800	3.271200	-9.792500	26.829102	0.000429	20.681804
1939.549975	-2.999700	3.270800	-9.810100	26.836864	0.000428	20.677280
1940.553509	-2.999100	3.269400	-9.804900	26.854155	0.000427	20.660525
1941.552235	-2.979600	3.270700	-9.743600	26.863853	0.000428	20.682132
1942.553785	-2.975300	3.271500	-9.732300	26.898179	0.000425	20.687251
1943.553896	-2.969900	3.269500	-9.709100	26.905011	0.000425	20.666617
1944.554561	-2.967500	3.269700	-9.701600	26.919822	0.000422	20.682460
1945.554113	-3.023900	3.267300	-9.879100	26.920426	0.000424	20.659357
1946.554762	-3.004400	3.268700	-9.819600	26.939590	0.000422	20.668197
1947.554570	-2.989200	3.268700	-9.769600	26.968159	0.000422	20.706412
1948.555222	-2.978400	3.266800	-9.728800	26.945320	0.000420	20.680125
1949.554335	-2.992700	3.267000	-9.776500	26.945708	0.000420	20.685256
1950.555597	-3.004000	3.267100	-9.813200	26.941790	0.000420	20.693172
1951.554612	-3.008700	3.265100	-9.822800	26.917549	0.000419	20.689184
1952.555497	-2.980800	3.265700	-9.733600	26.862003	0.000418	20.681219
1953.555631	-3.018400	3.264800	-9.854100	26.911467	0.000419	20.671687
1954.556911	-2.995100	3.264700	-9.777000	26.931175	0.000417	20.702886
1955.558480	-3.004500	3.265000	-9.808700	26.971254	0.000418	20.676806
1956.558583	-3.019400	3.262700	-9.850300	26.973056	0.000415	20.668659
1957.558631	-3.009300	3.263300	-9.819200	26.978593	0.000417	20.687032
1958.559919	-2.998000	3.263300	-9.781700	26.987890	0.000415	20.685949
1959.560394	-3.012400	3.261200	-9.822900	27.020496	0.000413	20.695506
1960.557452	-3.025200	3.261700	-9.866700	27.021282	0.000414	20.679225
1961.562415	-2.986300	3.262600	-9.740900	27.024993	0.000414	20.684855
1962.561365	-2.994800	3.261100	-9.765200	27.016941	0.000412	20.688612
1963.559792	-2.987400	3.261600	-9.742600	27.039161	0.000413	20.710011
1964.558601	-3.004300	3.261100	-9.796100	27.053378	0.000413	20.683529
1965.560478	-2.998900	3.260300	-9.776100	27.073543	0.000411	20.673936
1966.559838	-2.991900	3.259800	-9.752100	27.083443	0.000412	20.681997
1967.560758	-2.996600	3.259700	-9.766500	27.101431	0.000411	20.687760
1968.561133	-2.987300	3.260400	-9.739100	27.048204	0.000410	20.687809
1969.561007	-2.997100	3.259000	-9.766200	27.029466	0.000408	20.688405
1970.561662	-2.980900	3.260100	-9.716500	27.033383	0.000407	20.691396
1971.561003	-2.995300	3.259600	-9.762700	27.022054	0.000407	20.678106
1972.559949	-2.993400	3.257000	-9.747500	27.038980	0.000406	20.668573
1973.561834	-3.000000	3.257300	-9.769600	27.035655	0.000406	20.652900
1974.560558	-2.962400	3.258100	-9.650700	27.069674	0.000404	20.681899
1975.561294	-2.998900	3.256300	-9.764200	27.087070	0.000403	20.679006
1976.563873	-3.007900	3.257300	-9.795700	27.111742	0.000405	20.689596
1977.563369	-2.986600	3.257200	-9.726600	27.124822	0.000402	20.680464
1978.562925	-3.006400	3.255800	-9.787400	27.128739	0.000402	20.692939
1979.563954	-3.037300	3.253900	-9.880900	27.066844	0.000403	20.672415
1980.562152	-2.982500	3.256600	-9.711000	27.001828	0.000401	20.679102
1981.563406	-3.006900	3.254900	-9.786400	26.996714	0.000403	20.690082
1982.564065	-3.011900	3.253500	-9.797300	27.019757	0.000399	20.685279
1983.562006	-3.016400	3.252300	-9.809400	27.061839	0.000401	20.691565
1984.566084	-3.006800	3.253100	-9.779200	27.072344	0.000398	20.682214
1985.564172	-2.988000	3.253100	-9.719000	27.091215	0.000399	20.679856
1986.564136	-2.994300	3.254400	-9.743800	27.114171	0.000395	20.667855
1987.563169	-3.031900	3.249700	-9.851000	27.109577	0.000397	20.681728
1988.566482	-3.013300	3.252400	-9.799800	27.089595	0.000398	20.707152
1989.566557	-2.976000	3.252500	-9.678000	27.101961	0.000394	20.690664
1990.563871	-3.005100	3.251800	-9.771000	27.079851	0.000394	20.678858
1991.569366	-3.003000	3.250600	-9.761100	27.076309	0.000393	20.676718
1992.567455	-3.011100	3.249200	-9.782400	27.077445	0.000392	20.691138
1993.566674	-2.982000	3.250000	-9.690400	27.084626	0.000391	20.706896
1994.568949	-3.012600	3.248500	-9.785200	27.106893	0.000392	20.682821
1995.566678	-3.009300	3.248700	-9.775300	27.145963	0.000391	20.683235
1996.568762	-2.995300	3.249300	-9.732100	27.148924	0.000391	20.667720
1997.569689	-3.000400	3.248100	-9.745000	27.166802	0.000389	20.676693
1998.568288	-3.003500	3.249300	-9.758400	27.151160	0.000390	20.688937
1999.568049	-2.992900	3.248000	-9.719700	27.140934	0.000386	20.696670
2000.569045	-3.021100	3.246000	-9.805000	27.144318	0.000389	20.686323
2001.571438	-3.012400	3.245900	-9.776500	27.145020	0.000385	20.679916
2002.570050	-3.005200	3.246700	-9.756100	27.131662	0.000388	20.687818
2003.575086	-3.006900	3.245900	-9.759000	27.165303	0.000383	20.703163
2004.570102	-2.983300	3.246200	-9.682900	27.182504	0.000383	20.724258
2005.569649	-3.020100	3.244100	-9.795300	27.194543	0.000387	20.703649
2006.571391	-3.014200	3.243900	-9.776400	27.170936	0.000383	20.686068
2007.570406	-2.994100	3.244300	-9.712300	27.173390	0.000383	20.716987
2008.571519	-2.991900	3.243100	-9.701600	27.202025	0.000380	20.696001
2009.571081	-2.979200	3.243400	-9.662000	27.246628	0.000381	20.696293
2010.571826	-2.982300	3.243200	-9.670500	27.257373	0.000380	20.690980
2011.572526	-2.974400	3.243700	-9.646400	27.260382	0.000378	20.703017
2012.570231	-2.974900	3.242300	-9.643400	27.214827	0.000378	20.709352
2013.571667	-2.988000	3.242000	-9.685700	27.215418	0.000377	20.695248
2014.570044	-2.987800	3.241600	-9.683700	27.215709	0.000377	20.711188
2015.574276	-2.992900	3.240500	-9.696800	27.189044	0.000376	20.708075
2016.572193	-2.982000	3.240700	-9.662400	27.152116	0.000376	20.719772
2017.571209	-3.013700	3.240300	-9.763700	27.154146	0.000374	20.714702
2018.570805	-2.996600	3.239400	-9.706100	27.111765	0.000374	20.707164
2019.573910	-2.997400	3.239700	-9.708500	27.098202	0.000372	20.701583
2020.571312	-2.998400	3.239600	-9.712100	27.077458	0.000373	20.707748
2021.571615	-3.000000	3.238400	-9.713900	27.060787	0.000370	20.713268
2022.576077	-3.002000	3.238000	-9.719100	27.077119	0.000372	20.696975
2023.572627	-2.996000	3.237800	-9.697400	27.080117	0.000371	20.712793
2024.572050	-2.994900	3.236900	-9.691900	27.068850	0.000370	20.695771
2025.577521	-2.973000	3.237700	-9.624900	27.059288	0.000367	20.708441
2026.575427	-3.016500	3.236300	-9.760900	27.009529	0.000368	20.735214
2027.572439	-3.005100	3.236900	-9.724600	26.976548	0.000368	20.701571
2028.576278	-2.999700	3.236200	-9.706200	26.945198	0.000367	20.733111
2029.572757	-2.979600	3.235100	-9.638400	26.929528	0.000366	20.702653
2030.571911	-3.010300	3.234400	-9.735800	26.956490	0.000364	20.728345
2031.577404	-2.987600	3.235400	-9.663900	26.964409	0.000363	20.700271
2032.574949	-2.996100	3.235700	-9.691900	26.972861	0.000364	20.715883
2033.574409	-3.008500	3.235300	-9.732000	26.990850	0.000365	20.705998
2034.577726	-2.999500	3.233500	-9.697900	26.993861	0.000365	20.719457
2035.575713	-2.985800	3.232200	-9.650100	26.962910	0.000364	20.715360
2036.579677	-3.004800	3.231600	-9.709300	26.949805	0.000363	20.699335
2037.577405	-2.992100	3.231300	-9.667700	26.948705	0.000361	20.720990
2038.577145	-3.016800	3.231800	-9.748700	26.933592	0.000361	20.715749
2039.578254	-2.991900	3.231700	-9.668000	26.968037	0.000360	20.712928
2040.580171	-3.005700	3.229900	-9.707200	26.979438	0.000360	20.722497
2041.579418	-2.968400	3.230800	-9.589100	27.018717	0.000360	20.711263
2042.579374	-2.990600	3.230700	-9.660900	27.035812	0.000357	20.708065
2043.581898	-2.991600	3.229800	-9.661100	27.090672	0.000356	20.730996
2044.579105	-2.969200	3.229800	-9.589300	27.133381	0.000356	20.711834
2045.580162	-2.985200	3.228600	-9.637100	27.146351	0.000357	20.739580
2046.583396	-2.994000	3.227800	-9.663100	27.207165	0.000355	20.713026
2047.582986	-3.010300	3.226000	-9.711000	27.227556	0.000355	20.742073
2048.581316	-3.010800	3.226800	-9.714200	27.230904	0.000353	20.714619
2049.584239	-3.027300	3.226300	-9.766000	27.231786	0.000353	20.723093
2050.582401	-3.002600	3.225900	-9.685600	27.201435	0.000352	20.729075
2051.582167	-3.014200	3.224900	-9.719700	27.211045	0.000350	20.712661
2052.584378	-3.028500	3.225100	-9.766200	27.218550	0.000351	20.700295
2053.582889	-3.004100	3.224400	-9.685900	27.285778	0.000351	20.717184
2054.583316	-3.001700	3.225400	-9.681500	27.311908	0.000346	20.729719
2055.592578	-3.014900	3.223300	-9.717100	27.329204	0.000349	20.720563
2056.585893	-3.007400	3.223100	-9.692200	27.290915	0.000348	20.732309
2057.585222	-2.990500	3.223700	-9.639100	27.244707	0.000348	20.743676
2058.586084	-2.992900	3.222800	-9.643700	27.194146	0.000345	20.727907
2059.586009	-3.006500	3.221600	-9.685000	27.173802	0.000345	20.727360
2060.585074	-3.005800	3.223000	-9.686600	27.157979	0.000343	20.744162
2061.587326	-2.983000	3.221900	-9.609900	27.144259	0.000344	20.723724
2062.586793	-2.993900	3.221100	-9.643100	27.201253	0.000343	20.719882
2063.585915	-2.985500	3.221300	-9.616100	27.224134	0.000341	20.735785
2064.587362	-2.988800	3.220600	-9.623400	27.261736	0.000343	20.737098
2065.587441	-2.990200	3.220600	-9.629200	27.268698	0.000342	20.739834
2066.586402	-2.972500	3.219900	-9.570300	27.307448	0.000340	20.735189
2067.589623	-3.014300	3.218100	-9.698800	27.348069	0.000341	20.748551
2068.586967	-3.002400	3.218000	-9.660100	27.375189	0.000338	20.734107
2069.586233	-3.013900	3.217600	-9.696500	27.433524	0.000338	20.729730
2070.588503	-2.970800	3.219200	-9.562600	27.436919	0.000338	20.731723
2071.589261	-2.999100	3.217800	-9.649800	27.415227	0.000337	20.735505
2072.586828	-2.992900	3.217000	-9.627100	27.455905	0.000337	20.724745
2073.589481	-3.014600	3.215400	-9.691700	27.444327	0.000335	20.734909
2074.587943	-2.972100	3.216700	-9.559200	27.445971	0.000334	20.733717
2075.586689	-2.998200	3.215300	-9.638700	27.466067	0.000334	20.723115
2076.588289	-3.013700	3.214300	-9.686100	27.472544	0.000335	20.724416
2077.590837	-3.003700	3.215800	-9.657700	27.534826	0.000332	20.751517
2078.600303	-2.992000	3.215800	-9.619400	27.532723	0.000332	20.733753
2079.592719	-3.004000	3.213900	-9.653800	27.571293	0.000332	20.738422
2080.592655	-3.002400	3.214100	-9.648900	27.550244	0.000332	20.745693
2081.594421	-2.999200	3.213900	-9.638100	27.566242	0.000329	20.726227
2082.594603	-2.995400	3.213400	-9.624500	27.517509	0.000329	20.761596
2083.592897	-2.985200	3.212700	-9.589700	27.490163	0.000329	20.716537
2084.591699	-3.016200	3.213200	-9.690900	27.516385	0.000328	20.746240
2085.594131	-2.992700	3.212400	-9.613100	27.504156	0.000328	20.746264
2086.592948	-3.009300	3.211200	-9.662600	27.518995	0.000325	20.731796
2087.591702	-3.002500	3.211800	-9.640800	27.514706	0.000326	20.749291
2088.593046	-3.021100	3.209600	-9.695300	27.468907	0.000325	20.762483
2089.591932	-3.021000	3.209500	-9.694800	27.439783	0.000324	20.734604
2090.592714	-2.995600	3.209400	-9.612300	27.400446	0.000323	20.739601
2091.596245	-2.991600	3.208800	-9.598500	27.398101	0.000323	20.744355
2092.592406	-2.992700	3.210100	-9.606200	27.410864	0.000323	20.747711
2093.590862	-2.997700	3.209400	-9.620400	27.403721	0.000320	20.747164
2094.593871	-3.008100	3.208000	-9.648400	27.406622	0.000318	20.761936
2095.592096	-2.992900	3.207300	-9.597800	27.421378	0.000319	20.760660
2096.591881	-2.996800	3.206700	-9.608600	27.427541	0.000319	20.760222
2097.594764	-2.998900	3.206700	-9.615600	27.419879	0.000318	20.770058
2098.595672	-3.024500	3.204200	-9.689300	27.381943	0.000317	20.753231
2099.592468	-3.013100	3.204600	-9.655400	27.368625	0.000317	20.755480
2100.598864	-2.988600	3.206200	-9.581100	27.412229	0.000315	20.762836
2101.595628	-2.992000	3.205500	-9.588700	27.424882	0.000313	20.738106
2102.594839	-3.010200	3.204000	-9.643900	27.474296	0.000315	20.767906
2103.601136	-2.999600	3.204700	-9.612100	27.505546	0.000314	20.751930
2104.600482	-3.003500	3.202400	-9.617300	27.561409	0.000314	20.762143
2105.597098	-2.986200	3.203300	-9.564700	27.559161	0.000312	20.774580
2106.597457	-3.009000	3.202000	-9.633400	27.580742	0.000311	20.746981
2107.599789	-3.007600	3.200400	-9.624800	27.612931	0.000313	20.758507
2108.596631	-2.967600	3.202900	-9.503400	27.610176	0.000311	20.766167
2109.600011	-2.992500	3.201100	-9.578100	27.657479	0.000310	20.733157
2110.600358	-2.989200	3.199800	-9.564300	27.666553	0.000310	20.758884
2111.596973	-3.014700	3.200200	-9.646600	27.682840	0.000307	20.759152
2112.601442	-2.963800	3.200600	-9.484900	27.713129	0.000308	20.778252
2113.603420	-3.000600	3.199400	-9.599300	27.695067	0.000305	20.765292
2114.597155	-2.958400	3.200100	-9.466300	27.692626	0.000306	20.776112
2115.599312	-3.014900	3.196900	-9.636800	27.638051	0.000304	20.752015
2116.599852	-3.014600	3.197700	-9.639100	27.601126	0.000305	20.784562
2117.597698	-2.992100	3.197700	-9.566900	27.523212	0.000304	20.773498
2118.600959	-3.002400	3.199100	-9.603700	27.465607	0.000303	20.770543
2119.598302	-3.041400	3.194200	-9.713500	27.439287	0.000302	20.757340
2120.599054	-2.987400	3.195600	-9.544700	27.419298	0.000301	20.755248
2121.600229	-3.005600	3.194400	-9.600000	27.426441	0.000301	20.770495
2122.599753	-2.998200	3.194300	-9.576000	27.474368	0.000300	20.774616
2123.598945	-2.984900	3.195300	-9.536100	27.513315	0.000300	20.765437
2124.602343	-2.993700	3.194600	-9.561400	27.541893	0.000299	20.786130
2125.600533	-3.002200	3.193600	-9.586400	27.569734	0.000300	20.773364
2126.598703	-2.979600	3.192100	-9.510900	27.622669	0.000297	20.772574
2127.600729	-2.988700	3.191800	-9.538700	27.632697	0.000296	20.785035
2128.610396	-2.987400	3.192700	-9.536800	27.630330	0.000296	20.776014
2129.599707	-3.014300	3.189200	-9.612100	27.595580	0.000296	20.771869
2130.601102	-2.984400	3.190600	-9.520300	27.593006	0.000295	20.774969
2131.603661	-2.996500	3.189700	-9.557000	27.626608	0.000293	20.789340
2132.598896	-2.998900	3.189700	-9.564500	27.621340	0.000292	20.756537
2133.605961	-3.004900	3.189200	-9.582500	27.651147	0.000292	20.783686
2134.603452	-3.006400	3.187500	-9.580600	27.722093	0.000292	20.773996
2135.600917	-3.026000	3.187000	-9.642500	27.720365	0.000291	20.787430
2136.600818	-2.998000	3.186900	-9.553500	27.769113	0.000291	20.783382
2137.603238	-2.998400	3.186700	-9.552800	27.745362	0.000291	20.767540
2138.599897	-2.970700	3.186700	-9.465500	27.708730	0.000292	20.793740
2139.600739	-3.001800	3.186000	-9.562600	27.707365	0.000289	20.771978
2140.602096	-3.027400	3.185500	-9.642800	27.748611	0.000288	20.787406
2141.599644	-3.024700	3.184300	-9.629300	27.762142	0.000288	20.786324
2142.605000	-3.003000	3.184600	-9.562400	27.778596	0.000287	20.804305
2143.601724	-3.009700	3.185600	-9.585100	27.778259	0.000286	20.798276
2144.599988	-3.025900	3.182800	-9.630400	27.732857	0.000287	20.770130
2145.602089	-2.984700	3.184400	-9.503500	27.715122	0.000284	20.803965
2146.600885	-2.983200	3.183800	-9.496900	27.697929	0.000284	20.785716
2147.602001	-2.976300	3.183100	-9.472400	27.698292	0.000284	20.790823
2148.605269	-2.968200	3.182900	-9.447200	27.723760	0.000282	20.803175
2149.604497	-3.014500	3.182000	-9.590800	27.750278	0.000279	20.797619
2150.605914	-3.009700	3.181100	-9.572700	27.738173	0.000279	20.791601
2151.607379	-2.997800	3.182300	-9.537900	27.719544	0.000280	20.779491
2152.607568	-3.006100	3.182200	-9.565300	27.721186	0.000281	20.792524
2153.605073	-3.026000	3.180700	-9.623600	27.725427	0.000279	20.807697
2154.608506	-2.964900	3.180500	-9.427500	27.708138	0.000278	20.797886
2155.609534	-2.988800	3.179900	-9.504000	27.732797	0.000279	20.812743
2156.605850	-2.987700	3.179300	-9.498000	27.764873	0.000278	20.816573
2157.608437	-2.984300	3.178200	-9.483100	27.773933	0.000277	20.791552
2158.608114	-2.987100	3.177200	-9.489700	27.782161	0.000277	20.803625
2159.606150	-2.983400	3.177200	-9.476700	27.807953	0.000278	20.816779
2160.607052	-2.991600	3.176600	-9.501500	27.808666	0.000276	20.798531
2161.607542	-3.017600	3.174600	-9.578800	27.826364	0.000277	20.796428
2162.607598	-3.014100	3.173500	-9.564200	27.799183	0.000272	20.809376
2163.610315	-3.004200	3.174100	-9.535400	27.738137	0.000274	20.812427
2164.607515	-3.006600	3.174300	-9.542700	27.693822	0.000273	20.813825
2165.607356	-2.991200	3.172100	-9.487000	27.638389	0.000272	20.803564
2166.612590	-2.998100	3.174500	-9.516100	27.612121	0.000271	20.820281
2167.609815	-2.991700	3.173100	-9.492100	27.608992	0.000272	20.795796
2168.610661	-3.001300	3.172500	-9.520500	27.620845	0.000270	20.822421
2169.611349	-2.993200	3.169700	-9.486100	27.619262	0.000271	20.819406
2170.609896	-3.017500	3.170300	-9.565000	27.647548	0.000268	20.816573
2171.609076	-3.008300	3.170800	-9.537900	27.659086	0.000268	20.821071
2172.611649	-2.970400	3.170000	-9.415200	27.686706	0.000268	20.807139
2173.609664	-3.025200	3.170200	-9.588200	27.720632	0.000267	20.825631
2174.609334	-2.986700	3.169000	-9.464000	27.717624	0.000266	20.814543
2175.610476	-2.981900	3.168200	-9.446300	27.734102	0.000266	20.814057
2176.613891	-2.998700	3.167300	-9.497100	27.770757	0.000265	20.812063
2177.607459	-2.979500	3.168100	-9.438700	27.780337	0.000265	20.813170
2178.610472	-3.003900	3.165800	-9.508500	27.790207	0.000266	20.810774
2179.614839	-2.987900	3.164900	-9.454700	27.760730	0.000263	20.825205
2180.611299	-2.994900	3.164000	-9.474000	27.695635	0.000262	20.827029
2181.616053	-2.983800	3.167100	-9.449800	27.648805	0.000261	20.829217
2182.614710	-3.014500	3.164700	-9.538300	27.618224	0.000261	20.819309
2183.614278	-3.009800	3.165900	-9.527600	27.566146	0.000261	20.828549
2184.613466	-3.016700	3.163700	-9.542700	27.583896	0.000259	20.824598
2185.613595	-3.001800	3.162700	-9.492500	27.604848	0.000259	20.835248
2186.611902	-3.001600	3.161400	-9.488100	27.604582	0.000258	20.816014
2187.618103	-3.004400	3.161100	-9.496200	27.650678	0.000257	20.814033
2188.616061	-2.984900	3.161800	-9.436700	27.684411	0.000256	20.832330
2189.611852	-3.013000	3.160500	-9.520900	27.731421	0.000257	20.843600
2190.612929	-3.011900	3.159500	-9.515400	27.685257	0.000254	20.844086
2191.619080	-2.987100	3.160000	-9.439100	27.710786	0.000254	20.826154
2192.611860	-3.029000	3.156400	-9.559400	27.678950	0.000254	20.842956
2193.617170	-3.006500	3.158400	-9.495400	27.717092	0.000252	20.827759
2194.614383	-2.996800	3.156800	-9.459000	27.699671	0.000252	20.837728
2195.610623	-3.007600	3.156600	-9.492800	27.707946	0.000252	20.818555
2196.617383	-3.030800	3.155500	-9.562400	27.692010	0.000251	20.829546
2197.615505	-2.991400	3.156200	-9.440400	27.710435	0.000251	20.851404
2198.611890	-3.000500	3.155500	-9.466600	27.756030	0.000251	20.816209
2199.614967	-2.987300	3.155700	-9.425200	27.813100	0.000249	20.825278
2200.617691	-3.016100	3.153600	-9.510600	27.831800	0.000248	20.828451
2201.612497	-3.009900	3.153900	-9.492100	27.875977	0.000248	20.820282
2202.614623	-3.012500	3.153900	-9.499600	27.946726	0.000248	20.818470
2203.617528	-2.992700	3.152500	-9.433300	27.959071	0.000246	20.819516
2204.612570	-3.006200	3.150600	-9.469700	27.962235	0.000246	20.822700
2205.615645	-2.964500	3.152600	-9.345200	27.966439	0.000247	20.803698
2206.617964	-2.981600	3.151900	-9.396700	27.991937	0.000248	20.815613
2207.613461	-3.015700	3.150400	-9.499500	27.965219	0.000245	20.837557
2208.618575	-3.001900	3.148100	-9.449100	27.934719	0.000244	20.795005
2209.614933	-3.029000	3.148100	-9.534300	27.897756	0.000244	20.817071
2210.615411	-2.985400	3.148200	-9.397700	27.824975	0.000243	20.817314
2211.616092	-3.007700	3.145900	-9.461300	27.756114	0.000242	20.814397
2212.616087	-3.000000	3.147700	-9.441000	27.794652	0.000242	20.799601
2213.621668	-2.981400	3.146200	-9.377900	27.788129	0.000243	20.799199
2214.620286	-3.029800	3.143500	-9.522900	27.818100	0.000242	20.802810
2215.619032	-2.993600	3.146700	-9.419000	27.818886	0.000241	20.809290
2216.617465	-3.009200	3.142900	-9.456400	27.817895	0.000241	20.786956
2217.621749	-2.989800	3.143700	-9.397600	27.833503	0.000241	20.792233
2218.619833	-3.020900	3.142600	-9.491900	27.863896	0.000240	20.806226
2219.618446	-3.013400	3.142100	-9.467100	27.875855	0.000239	20.793606
2220.621343	-3.001900	3.142400	-9.431300	27.879552	0.000239	20.796378
2221.617069	-2.994900	3.141700	-9.408300	27.894216	0.000239	20.800706
2222.616102	-3.012500	3.140600	-9.459100	27.872968	0.000237	20.806347
2223.616640	-2.985400	3.140500	-9.374000	27.866578	0.000236	20.801813
2224.616003	-3.011000	3.138500	-9.448900	27.897212	0.000237	20.798980
2225.616908	-3.002700	3.138200	-9.422200	27.879563	0.000235	20.787855
2226.622282	-3.015200	3.138400	-9.462100	27.945807	0.000236	20.795734
2227.617570	-3.007700	3.137700	-9.436700	27.944901	0.000233	20.796244
2228.619030	-3.009000	3.135300	-9.433800	27.982007	0.000233	20.793290
2229.621687	-3.005100	3.135900	-9.423100	27.980280	0.000234	20.814310
2230.618394	-3.023100	3.135000	-9.476300	28.039173	0.000231	20.800572
2231.617564	-3.035200	3.134300	-9.512700	28.068945	0.000231	20.779806
2232.621785	-3.015400	3.133400	-9.447600	28.087979	0.000231	20.789958
2233.619985	-3.001700	3.132500	-9.402600	28.112278	0.000232	20.794505
2234.621394	-2.994300	3.132600	-9.378600	28.161069	0.000231	20.809009
2235.623229	-2.984800	3.132500	-9.349300	28.178519	0.000229	20.780110
2236.620720	-2.987200	3.130800	-9.351000	28.206282	0.000228	20.793836
2237.621617	-3.019200	3.130800	-9.449600	28.190813	0.000231	20.772572
2238.622921	-2.994600	3.129900	-9.370700	28.126734	0.000227	20.776815
2239.620809	-2.991800	3.130100	-9.363200	28.042820	0.000228	20.776742
2240.623524	-2.997600	3.128500	-9.377400	27.967452	0.000226	20.769630
2241.624999	-3.011800	3.127700	-9.418400	27.924837	0.000227	20.778894
2242.622863	-3.033300	3.127400	-9.484600	27.865852	0.000226	20.780694
2243.623750	-2.998000	3.126800	-9.373100	27.869561	0.000225	20.780633
2244.622354	-3.016100	3.125700	-9.426200	27.891026	0.000224	20.789909
2245.623605	-3.005800	3.124600	-9.390700	27.952039	0.000224	20.789678
2246.628123	-2.989500	3.123700	-9.336800	27.977030	0.000223	20.776426
2247.625626	-3.001700	3.123300	-9.374300	27.983069	0.000224	20.786772
2248.624417	-2.989700	3.123300	-9.336300	27.956121	0.000224	20.777666
2249.631658	-2.995200	3.123700	-9.355500	27.919667	0.000221	20.784122
2250.626192	-3.013000	3.121300	-9.403900	27.900448	0.000221	20.781374
2251.625442	-3.005900	3.121000	-9.380200	27.901125	0.000222	20.770201
2252.624624	-3.004200	3.119900	-9.371500	27.948548	0.000220	20.765301
2253.630396	-2.991000	3.118700	-9.327800	27.957957	0.000219	20.795635
2254.628004	-3.021000	3.118300	-9.419300	28.010608	0.000219	20.788414
2255.628703	-2.970700	3.117900	-9.260900	28.002020	0.000218	20.792571
2256.629711	-3.001600	3.117100	-9.354800	27.994519	0.000219	20.772693
2257.628561	-2.999200	3.117500	-9.348900	28.029751	0.000217	20.806735
2258.628335	-3.013400	3.114500	-9.383300	28.010958	0.000219	20.771222
2259.631094	-2.991400	3.114100	-9.315200	28.019002	0.000217	20.773155
2260.630991	-3.019100	3.112900	-9.397000	28.068799	0.000218	20.779660
2261.629264	-2.983200	3.113800	-9.287900	28.046310	0.000218	20.776937
2262.633766	-3.002700	3.111900	-9.343200	28.052929	0.000217	20.767478
2263.630130	-3.009300	3.112600	-9.365600	28.120828	0.000215	20.777034
2264.631479	-3.015400	3.110000	-9.376300	28.127446	0.000216	20.776110
2265.633358	-3.007200	3.109500	-9.349300	28.102483	0.000217	20.783222
2266.630790	-2.997400	3.109800	-9.319700	28.102459	0.000216	20.776560
2267.630889	-3.002200	3.108900	-9.332300	28.115116	0.000215	20.776973
2268.633826	-2.969800	3.110000	-9.235200	28.139741	0.000213	20.769520
2269.630918	-2.993100	3.106600	-9.297200	28.176538	0.000216	20.792341
2270.631321	-2.993300	3.106400	-9.296000	28.172843	0.000214	20.756852
2271.633477	-2.990000	3.105500	-9.284600	28.174945	0.000213	20.769399
2272.633379	-2.953500	3.106400	-9.173100	28.187540	0.000213	20.773071
2273.633741	-3.002700	3.104200	-9.320400	28.205824	0.000213	20.773460
2274.633218	-3.028100	3.103300	-9.395500	28.183990	0.000211	20.752426
2275.631946	-3.014600	3.101800	-9.349800	28.187915	0.000211	20.783880
2276.630949	-3.001600	3.101300	-9.307300	28.230785	0.000213	20.780573
2277.634191	-3.002900	3.101100	-9.310800	28.216221	0.000210	20.772074
2278.634186	-3.021100	3.099200	-9.362500	28.256614	0.000210	20.773861
2279.632792	-3.003400	3.099300	-9.308200	28.264149	0.000211	20.776706
2280.634623	-2.992400	3.097900	-9.269400	28.288276	0.000210	20.791989
2281.633191	-3.009800	3.095400	-9.315600	28.311303	0.000209	20.773448
2282.633974	-2.988800	3.097500	-9.256900	28.327906	0.000210	20.773570
2283.637767	-3.001000	3.095600	-9.288600	28.299252	0.000208	20.752305
2284.636004	-3.005100	3.094400	-9.296300	28.256120	0.000209	20.772889
2285.637157	-2.994100	3.093200	-9.260600	28.223250	0.000209	20.765874
2286.637628	-2.986400	3.093400	-9.236600	28.195873	0.000210	20.759175
2287.635855	-3.008600	3.093100	-9.304900	28.204218	0.000208	20.760464
2288.635748	-3.005800	3.090000	-9.287400	28.205981	0.000208	20.750384
2289.637830	-3.000400	3.090200	-9.270400	28.229408	0.000208	20.768755
2290.635878	-2.965800	3.089800	-9.163000	28.234613	0.000206	20.757400
2291.636591	-2.997400	3.088400	-9.255100	28.198663	0.000208	20.754397
2292.637095	-3.001100	3.087600	-9.264900	28.208988	0.000206	20.774749
2293.638495	-3.019500	3.087500	-9.320700	28.209459	0.000206	20.782810
2294.636946	-3.006800	3.086600	-9.280300	28.228732	0.000207	20.746737
2295.637339	-2.995400	3.084400	-9.238000	28.243319	0.000206	20.758105
2296.638566	-2.996100	3.084600	-9.240600	28.272735	0.000207	20.752634
2297.638637	-3.015800	3.082200	-9.293800	28.298528	0.000204	20.750154
2298.640520	-2.996700	3.083300	-9.239200	28.344665	0.000205	20.751089
2299.638726	-3.007400	3.081700	-9.265500	28.329343	0.000203	20.761740
2300.636782	-3.008100	3.080100	-9.264000	28.284183	0.000205	20.753254
2301.639640	-3.011700	3.078600	-9.271000	28.290377	0.000203	20.743369
2302.637497	-3.010600	3.078700	-9.268100	28.289532	0.000205	20.769072
2303.637684	-2.987500	3.079200	-9.197300	28.248741	0.000203	20.754080
2304.639585	-3.000400	3.077900	-9.233800	28.201912	0.000204	20.751503
2305.637144	-3.001700	3.076400	-9.233100	28.175645	0.000204	20.755880
2306.638855	-2.993700	3.075500	-9.206000	28.199303	0.000202	20.747455
2307.639606	-3.001900	3.075000	-9.230000	28.215473	0.000204	20.764683
2308.638856	-2.986100	3.073000	-9.174400	28.227887	0.000201	20.758689
2309.636635	-3.001900	3.071800	-9.220500	28.265309	0.000202	20.763175
2310.641487	-2.991600	3.070700	-9.185400	28.314696	0.000204	20.760269
2311.637762	-3.005600	3.070700	-9.228000	28.363610	0.000202	20.758312
2312.638550	-2.985400	3.071200	-9.168200	28.354844	0.000203	20.742372
2313.642028	-3.004400	3.067300	-9.214500	28.371615	0.000202	20.733181
2314.639847	-2.992200	3.067600	-9.177900	28.371760	0.000204	20.739017
2315.641184	-2.991800	3.066900	-9.173700	28.353528	0.000202	20.741995
2316.640941	-2.991100	3.065900	-9.170100	28.323016	0.000202	20.752999
2317.642334	-3.037900	3.063500	-9.305600	28.327085	0.000200	20.769898
2318.640379	-3.023200	3.063600	-9.260600	28.269185	0.000202	20.737679
2319.643430	-3.024900	3.060600	-9.257300	28.218383	0.000201	20.735369
2320.643826	-2.971700	3.062000	-9.098400	28.170139	0.000200	20.754129
2321.644269	-2.963500	3.061400	-9.071900	28.157205	0.000198	20.723563
2322.645793	-2.975000	3.061200	-9.105600	28.131928	0.000200	20.741739
2323.644083	-3.006100	3.058600	-9.193300	28.114573	0.000200	20.740390
2324.644611	-3.003200	3.056800	-9.179000	28.157011	0.000200	20.759880
2325.645157	-2.999600	3.056100	-9.165600	28.180766	0.000201	20.748232
2326.643718	-3.019700	3.055500	-9.225700	28.226317	0.000199	20.735770
2327.646844	-2.995900	3.054300	-9.148800	28.207261	0.000200	20.738396
2328.646892	-3.004900	3.052100	-9.170500	28.199194	0.000200	20.744973
2329.644637	-2.994100	3.052900	-9.140200	28.180645	0.000200	20.740049
2330.645609	-2.932500	3.053700	-8.953500	28.190595	0.000199	20.717349
2331.647588	-2.998500	3.049900	-9.144400	28.219892	0.000200	20.734517
2332.647758	-3.027700	3.049000	-9.230700	28.269172	0.000198	20.727234
2333.648839	-2.999200	3.049300	-9.145300	28.288263	0.000198	20.734602
2334.649800	-2.996200	3.046800	-9.128000	28.268061	0.000199	20.731331
2335.651299	-2.974300	3.048300	-9.065500	28.250770	0.000197	20.719611
2336.657495	-2.996900	3.045200	-9.125000	28.231074	0.000197	20.732499
2337.651920	-3.015500	3.044300	-9.179900	28.232282	0.000199	20.738456
2338.649842	-2.999700	3.042500	-9.125700	28.257845	0.000198	20.740487
2339.650009	-2.984000	3.041600	-9.075000	28.266419	0.000198	20.734420
2340.650660	-3.008800	3.040900	-9.148700	28.318873	0.000197	20.753095
2341.650602	-2.988300	3.040700	-9.086000	28.329752	0.000195	20.726115
2342.649242	-3.037800	3.036400	-9.222700	28.373643	0.000197	20.731429
2343.651346	-2.986200	3.037400	-9.069800	28.373739	0.000195	20.732000
2344.654039	-2.973700	3.036100	-9.026600	28.356220	0.000196	20.716729
2345.650842	-3.002000	3.034700	-9.109600	28.369767	0.000195	20.732742
2346.652076	-2.985400	3.035100	-9.060100	28.366242	0.000196	20.739150
2347.650983	-2.979600	3.034000	-9.038900	28.398382	0.000195	20.735003
2348.654919	-3.026100	3.030900	-9.171000	28.410818	0.000193	20.731878
2349.650926	-2.984300	3.030000	-9.041800	28.487387	0.000195	20.724584
2350.651995	-2.997100	3.029800	-9.079700	28.485299	0.000196	20.726748
2351.649180	-3.003500	3.027800	-9.093500	28.460802	0.000195	20.715355
2352.655463	-2.991500	3.027400	-9.055500	28.458859	0.000193	20.727623
2353.650588	-3.010000	3.026200	-9.107600	28.433939	0.000191	20.729082
2354.650774	-2.977500	3.026500	-9.010500	28.453462	0.000192	20.732146
2355.655268	-3.003000	3.023600	-9.079000	28.457060	0.000192	20.744305
2356.650020	-3.005500	3.022200	-9.080200	28.398696	0.000193	20.718249
2357.652001	-3.025900	3.019900	-9.137200	28.340886	0.000191	20.737800
2358.651042	-2.993500	3.020900	-9.042200	28.296378	0.000193	20.700096
2359.650877	-3.005800	3.018400	-9.071700	28.227814	0.000193	20.734432
2360.652301	-3.033500	3.017200	-9.150900	28.173798	0.000195	20.736001
2361.656748	-2.989700	3.015600	-9.014300	28.183446	0.000190	20.719635
2362.651910	-2.989300	3.015900	-9.013400	28.143232	0.000190	20.726566
2363.652103	-3.005900	3.014600	-9.060000	28.143606	0.000191	20.710820
2364.655714	-3.015800	3.011700	-9.082000	28.186501	0.000191	20.700424
2365.654558	-3.020700	3.010200	-9.091300	28.203155	0.000191	20.722881
2366.652411	-3.015100	3.009700	-9.073500	28.213577	0.000191	20.720098
2367.655809	-3.011900	3.007800	-9.058700	28.217235	0.000191	20.706710
2368.651681	-3.011600	3.006700	-9.054500	28.223793	0.000190	20.703355
2369.655461	-3.009000	3.005500	-9.041900	28.270284	0.000189	20.744950
2370.658294	-3.013600	3.003200	-9.049700	28.308755	0.000189	20.705446
2371.651814	-3.008300	3.003400	-9.033800	28.345414	0.000189	20.712960
2372.653106	-2.993600	3.001800	-8.985400	28.377857	0.000191	20.701531
2373.653028	-3.018700	3.000700	-9.057300	28.429425	0.000189	20.728329
2374.653079	-2.999000	3.000300	-8.996900	28.465101	0.000188	20.723004
2375.654189	-2.981800	2.998800	-8.940100	28.493255	0.000189	20.719587
2376.653391	-3.007900	2.997400	-9.014800	28.533155	0.000191	20.716620
2377.653877	-2.996400	2.995100	-8.973600	28.533650	0.000190	20.722809
2378.653413	-3.007300	2.994100	-9.002100	28.516628	0.000189	20.716098
2379.659143	-2.984100	2.993800	-8.932700	28.549235	0.000189	20.701519
2380.653878	-3.009300	2.990400	-8.997600	28.532950	0.000190	20.715465
2381.653551	-3.027300	2.990000	-9.050500	28.560414	0.000191	20.708036
2382.657562	-3.016500	2.988000	-9.011800	28.570023	0.000190	20.720086
2383.656776	-3.000300	2.988700	-8.966200	28.508720	0.000189	20.706711
2384.656581	-3.011400	2.987000	-8.993600	28.472912	0.000188	20.712851
2385.661032	-3.004900	2.984600	-8.967300	28.503662	0.000189	20.708730
2386.656842	-3.008900	2.984200	-8.978400	28.529558	0.000190	20.692607
2387.663994	-3.018800	2.982600	-9.003200	28.501924	0.000191	20.700340
2388.662574	-3.011700	2.980800	-8.976100	28.458727	0.000187	20.692400
2389.658629	-2.986800	2.980700	-8.902000	28.444553	0.000189	20.698516
2390.658440	-3.004900	2.978100	-8.948000	28.472912	0.000188	20.719490
2391.665185	-2.995500	2.976800	-8.916300	28.479251	0.000188	20.701215
2392.659226	-3.010900	2.974700	-8.955800	28.516447	0.000189	20.707854
2393.658854	-3.011000	2.974300	-8.953900	28.562454	0.000187	20.710566
2394.664108	-3.002200	2.971200	-8.919500	28.574768	0.000186	20.715855
2395.658237	-3.010500	2.971500	-8.945500	28.529377	0.000189	20.677250
2396.661059	-3.000000	2.968500	-8.904900	28.534411	0.000188	20.706979
2397.663054	-2.987200	2.968200	-8.864600	28.534664	0.000187	20.711027
2398.660675	-2.995900	2.967300	-8.888800	28.529630	0.000188	20.708803
2399.659117	-2.980200	2.966200	-8.839200	28.510737	0.000188	20.701629
2400.662530	-2.998400	2.963600	-8.884400	28.493244	0.000187	20.698711
2401.661153	-3.025900	2.960800	-8.957400	28.480313	0.000186	20.695647
2402.659615	-2.980800	2.961000	-8.825400	28.491276	0.000188	20.691987
2403.663454	-3.015700	2.957700	-8.918700	28.491493	0.000186	20.698371
2404.661372	-3.000200	2.957300	-8.870600	28.555550	0.000187	20.697447
2405.661706	-3.012200	2.956700	-8.904200	28.608508	0.000187	20.702894
2406.663491	-2.983500	2.953700	-8.811500	28.624998	0.000184	20.680145
2407.662662	-3.002200	2.953300	-8.864400	28.628692	0.000187	20.691453
2408.661070	-3.025100	2.952900	-8.930500	28.658628	0.000185	20.687939
2409.665780	-3.001400	2.949500	-8.851800	28.647716	0.000184	20.686905
2410.662934	-2.995500	2.947400	-8.827700	28.584933	0.000186	20.692900
2411.664412	-2.980900	2.947200	-8.784400	28.557626	0.000187	20.678674
2412.664398	-3.003000	2.945500	-8.844800	28.521047	0.000186	20.691149
2413.664489	-2.998200	2.943700	-8.824100	28.453476	0.000187	20.696122
2414.663902	-2.983700	2.942200	-8.777700	28.394617	0.000187	20.707502
2415.663610	-2.977000	2.942000	-8.757200	28.380237	0.000186	20.670734
2416.665982	-3.023500	2.938300	-8.882900	28.379235	0.000186	20.692961
2417.666976	-3.005600	2.936500	-8.824500	28.424464	0.000187	20.694408
2418.664746	-3.002900	2.935900	-8.814600	28.446775	0.000185	20.690322
2419.666470	-2.990300	2.934500	-8.773800	28.493075	0.000186	20.701861
2420.665798	-2.998800	2.932500	-8.792600	28.561924	0.000186	20.711929
2421.668440	-2.991300	2.932500	-8.770900	28.578125	0.000185	20.703114
2422.673015	-2.972400	2.929700	-8.706400	28.595822	0.000185	20.687270
2423.669007	-3.018000	2.925900	-8.829100	28.596643	0.000185	20.690942
2424.669605	-3.007100	2.926100	-8.797600	28.629598	0.000187	20.705168
2425.670351	-2.995800	2.924300	-8.759500	28.635066	0.000184	20.693605
2426.670227	-3.006200	2.921600	-8.782100	28.640462	0.000184	20.689082
2427.673343	-2.997700	2.921200	-8.755700	28.620725	0.000186	20.687696
2428.673027	-3.011800	2.918100	-8.788200	28.596462	0.000184	20.679379
2429.672661	-2.988500	2.918400	-8.720700	28.576459	0.000185	20.682942
2430.674493	-2.996300	2.917300	-8.739700	28.533688	0.000188	20.700560
2431.674560	-3.010200	2.912600	-8.766100	28.507430	0.000184	20.692134
2432.675544	-3.019000	2.911600	-8.788100	28.523064	0.000185	20.679428
2433.675402	-3.009900	2.909100	-8.755900	28.563083	0.000185	20.702190
2434.676416	-2.997000	2.910300	-8.721500	28.548899	0.000184	20.700232
2435.676245	-2.985300	2.907400	-8.678900	28.554609	0.000184	20.713571
2436.678467	-2.990600	2.905500	-8.687100	28.551796	0.000185	20.709789
2437.676400	-2.966100	2.905600	-8.617400	28.541390	0.000184	20.702153
2438.677310	-3.002200	2.902400	-8.711800	28.550927	0.000185	20.707017
2439.676363	-3.007700	2.900500	-8.722400	28.620871	0.000183	20.698749
2440.680147	-3.004200	2.898200	-8.705900	28.607218	0.000182	20.693533
2441.678242	-3.026200	2.896500	-8.764300	28.643057	0.000185	20.693594
2442.679131	-3.009000	2.895800	-8.712800	28.645411	0.000183	20.699284
2443.678811	-2.996100	2.894600	-8.672100	28.661430	0.000183	20.691235
2444.678443	-3.030000	2.890700	-8.757600	28.685197	0.000185	20.703795
2445.678290	-2.987800	2.889000	-8.631200	28.709495	0.000183	20.686068
2446.677327	-3.004900	2.887800	-8.676300	28.738439	0.000185	20.691040
2447.679060	-3.004900	2.887100	-8.674300	28.788939	0.000184	20.686433
2448.677424	-2.997500	2.883400	-8.641800	28.773236	0.000183	20.698117
2449.678211	-2.995400	2.883300	-8.635600	28.730316	0.000183	20.719370
2450.677408	-3.001500	2.880800	-8.645200	28.715590	0.000181	20.698847
2451.681869	-2.986900	2.879200	-8.598900	28.699730	0.000182	20.698993
2452.680240	-3.021400	2.875300	-8.686400	28.674430	0.000184	20.698166
2453.680809	-2.970700	2.874800	-8.538400	28.662855	0.000183	20.698835
2454.680411	-2.993300	2.873700	-8.600700	28.652570	0.000184	20.723091
2455.680540	-2.991600	2.870700	-8.587500	28.640559	0.000183	20.720951
2456.681575	-2.985700	2.868900	-8.565100	28.629852	0.000181	20.680292
2457.680414	-2.982000	2.868400	-8.551600	28.645436	0.000184	20.696938
2458.681553	-3.030100	2.863500	-8.675200	28.713104	0.000184	20.719577
2459.681410	-3.008200	2.862300	-8.608800	28.739417	0.000183	20.699613
2460.681332	-3.017400	2.861200	-8.631900	28.758162	0.000183	20.698580
2461.680219	-2.997800	2.858000	-8.567200	28.779995	0.000184	20.722945
2462.686035	-2.978400	2.858300	-8.512600	28.799246	0.000182	20.665045
2463.682615	-3.011200	2.854300	-8.592600	28.748807	0.000183	20.694372
2464.682748	-3.003700	2.852300	-8.565400	28.763424	0.000184	20.696768
2465.682889	-3.002900	2.850400	-8.558200	28.726285	0.000184	20.697765
2466.682106	-2.994600	2.847100	-8.524200	28.703424	0.000183	20.701765
2467.685441	-2.976400	2.846400	-8.470900	28.707853	0.000184	20.682517
2468.683369	-2.995500	2.844200	-8.518900	28.711595	0.000184	20.687235
2469.685694	-2.979100	2.842500	-8.467000	28.759187	0.000182	20.685387
2470.685836	-3.009800	2.840500	-8.548000	28.760575	0.000183	20.709546
2471.685619	-3.019200	2.835600	-8.561000	28.831651	0.000183	20.690105
2472.687010	-3.009300	2.835700	-8.531500	28.848669	0.000183	20.706300
2473.689280	-3.019500	2.833100	-8.553200	28.889629	0.000183	20.693509
2474.686136	-2.990400	2.830800	-8.463700	28.870971	0.000182	20.699369
2475.687330	-2.997000	2.829200	-8.478100	28.825750	0.000181	20.726836
2476.688426	-3.004500	2.825400	-8.487600	28.810241	0.000183	20.719748
2477.687482	-3.035400	2.823700	-8.570000	28.812631	0.000181	20.723577
2478.687343	-2.994900	2.821900	-8.450200	28.849091	0.000183	20.692974
2479.690324	-3.024900	2.820000	-8.528600	28.865251	0.000184	20.710677
2480.686771	-3.012700	2.817500	-8.487200	28.885381	0.000183	20.696342
2481.687067	-3.019100	2.814800	-8.495900	28.875243	0.000182	20.691818
2482.688457	-3.011000	2.812000	-8.465500	28.870561	0.000182	20.710811
2483.690544	-2.958400	2.812400	-8.318900	28.801720	0.000182	20.703102
2484.689779	-3.032000	2.806700	-8.509000	28.763134	0.000182	20.694579
2485.692312	-2.995600	2.805800	-8.404100	28.720623	0.000182	20.698701
2486.689119	-2.998700	2.803400	-8.405300	28.715445	0.000182	20.708659
2487.688293	-3.027900	2.799300	-8.475000	28.746538	0.000181	20.699199
2488.694198	-2.980200	2.798600	-8.339000	28.791726	0.000181	20.712002
2489.690286	-3.029500	2.793900	-8.462700	28.835851	0.000183	20.700026
2490.691236	-2.980800	2.794000	-8.327300	28.854907	0.000182	20.706421
2491.692402	-3.014100	2.791500	-8.413400	28.858070	0.000181	20.723833
2492.689312	-2.978300	2.789000	-8.305000	28.867024	0.000183	20.716257
2493.697447	-3.028100	2.784800	-8.431800	28.886189	0.000183	20.710434
2494.695487	-3.011200	2.783100	-8.379600	28.888373	0.000182	20.724015
2495.692424	-3.024000	2.779100	-8.402100	28.824410	0.000183	20.700354
2496.693116	-3.000800	2.776400	-8.330400	28.818146	0.000183	20.708269
2497.696287	-3.000300	2.774200	-8.322300	28.783121	0.000182	20.709971
2498.694074	-3.013900	2.772000	-8.353000	28.812666	0.000182	20.711759
2499.695860	-3.029500	2.766300	-8.378300	28.782771	0.000181	20.715309
2500.696619	-3.018700	2.765600	-8.347400	28.737546	0.000183	20.698676
2501.693491	-3.006000	2.763900	-8.307800	28.740599	0.000182	20.718823
2502.695139	-2.984700	2.759800	-8.236700	28.728928	0.000181	20.724611
2503.695577	-3.000300	2.757800	-8.272900	28.748324	0.000183	20.707637
2504.692723	-3.017200	2.754000	-8.307900	28.760985	0.000180	20.729875
2505.693542	-3.019900	2.750800	-8.305300	28.803349	0.000182	20.734617
2506.695798	-3.030200	2.747500	-8.323800	28.848692	0.000181	20.727662
2507.693308	-3.015200	2.743300	-8.270700	28.914284	0.000181	20.715504
2508.695415	-2.947200	2.745000	-8.090100	28.946661	0.000184	20.722993
2509.700586	-2.978600	2.738400	-8.155600	28.990104	0.000183	20.718397
2510.698495	-2.959800	2.737100	-8.100000	28.995510	0.000183	20.734276
2511.697408	-2.983500	2.732700	-8.152100	28.985917	0.000183	20.729827
2512.701406	-2.967800	2.732200	-8.107000	28.985349	0.000182	20.722142
2513.696321	-2.999600	2.726200	-8.177200	28.998333	0.000183	20.711041
2514.696609	-3.008900	2.721600	-8.188500	29.035439	0.000183	20.707175
2515.700812	-2.980900	2.720400	-8.108500	29.027788	0.000182	20.725546
2516.697255	-3.022500	2.714900	-8.205300	28.977976	0.000182	20.749802
2517.697694	-2.981700	2.713000	-8.087900	28.973173	0.000181	20.714142
2518.700710	-3.008300	2.708900	-8.148900	28.965981	0.000182	20.730130
2519.698741	-3.007500	2.704700	-8.133800	28.952996	0.000182	20.716573
2520.698390	-3.027800	2.700300	-8.175500	28.955688	0.000181	20.721181
2521.701619	-3.030800	2.697000	-8.173400	28.979182	0.000183	20.725886
2522.697356	-3.005300	2.695400	-8.099500	29.029139	0.000181	20.729753
2523.699828	-3.014900	2.690800	-8.111600	29.057991	0.000180	20.721838
2524.700716	-2.975700	2.687900	-7.996700	29.046334	0.000182	20.722421
2525.702229	-3.023900	2.681900	-8.108500	29.110031	0.000182	20.718798
2526.703112	-2.972800	2.680000	-7.965300	29.161056	0.000181	20.725643
2527.703155	-3.032100	2.675400	-8.111700	29.171456	0.000183	20.734701
2528.701152	-2.947800	2.673500	-7.880000	29.218762	0.000182	20.727369
2529.703125	-2.989400	2.667200	-7.972100	29.237304	0.000182	20.742263
2530.705375	-2.966500	2.664900	-7.903200	29.251287	0.000183	20.730749
2531.703830	-2.970900	2.660600	-7.902800	29.182097	0.000179	20.735467
2532.703718	-2.992100	2.654400	-7.941300	29.149557	0.000183	20.734445
2533.706898	-2.989800	2.651500	-7.925900	29.097132	0.000180	20.745631
2534.703673	-3.031400	2.646000	-8.020100	29.057652	0.000181	20.750421
2535.706950	-3.011100	2.642300	-7.955200	29.027136	0.000181	20.738166
2536.716554	-2.988500	2.638400	-7.884000	29.045235	0.000181	20.742652
2537.704679	-2.987200	2.634300	-7.868800	29.009397	0.000181	20.736889
2538.705525	-2.984500	2.629000	-7.845300	29.012414	0.000182	20.740877
2539.706698	-3.007800	2.624200	-7.891600	29.061935	0.000183	20.727235
2540.703929	-3.005700	2.618300	-7.869300	29.047334	0.000182	20.744767
2541.705194	-3.011700	2.613100	-7.868300	29.112937	0.000183	20.739271
2542.708276	-2.990200	2.610100	-7.804000	29.136815	0.000183	20.744840
2543.708478	-3.036700	2.603900	-7.905700	29.175255	0.000183	20.732365
2544.705957	-3.004400	2.600800	-7.812600	29.223550	0.000183	20.735514
2545.709961	-3.028000	2.594000	-7.853800	29.237231	0.000184	20.751199
2546.706463	-3.013300	2.589100	-7.801200	29.236627	0.000181	20.746323
2547.705839	-3.001300	2.585000	-7.757500	29.228134	0.000182	20.748669
2548.707462	-2.998300	2.577800	-7.727900	29.294401	0.000182	20.754286
2549.708701	-2.995700	2.573300	-7.708100	29.304366	0.000183	20.736353
2550.708539	-2.994600	2.568200	-7.690000	29.346503	0.000182	20.740888
2551.713022	-2.986500	2.563900	-7.654200	29.364211	0.000185	20.744511
2552.712659	-2.963500	2.557200	-7.577400	29.396370	0.000183	20.738517
2553.710936	-2.997400	2.551400	-7.646800	29.398143	0.000184	20.736036
2554.723027	-3.001000	2.544000	-7.633000	29.371304	0.000183	20.736486
2555.711406	-2.989800	2.537400	-7.585100	29.349120	0.000184	20.759173
2556.716007	-3.004700	2.532400	-7.608400	29.349916	0.000184	20.738164
2557.714160	-2.991800	2.525700	-7.554900	29.383426	0.000183	20.754395
2558.721732	-3.004900	2.519400	-7.569300	29.433437	0.000184	20.757386
2559.711655	-2.971200	2.513900	-7.468400	29.467041	0.000183	20.756170
2560.715952	-3.026700	2.506000	-7.583900	29.435005	0.000182	20.723877
2561.713935	-3.023700	2.500000	-7.558300	29.374645	0.000183	20.755027
