LabVIEW Measurement	
Writer_Version	2
Reader_Version	2
Separator	Tab
Decimal_Separator	.
Multi_Headings	No
X_Columns	One
Time_Pref	Absolute
Operator	admin
Description	Clolumns are: time, Current, Voltage, Power, Battery Temp, and Chamber Temp
Date	2024/08/16
Time	13:06:06.104549407958984375
***End_of_Header***	
	
Channels	6						
Samples	1	1	1	1	1	1	
Date	2024/09/13	2024/09/13	2024/09/13	2024/09/13	2024/09/13	2024/09/13	
Time	14:06:23.1647129058837890625	14:06:23.1702399253845214844	14:06:23.1781029701232910156	14:06:23.1469216346740722656	14:06:23.1469216346740722656	14:06:23.1469216346740722656	
X_Dimension	Time	Time	Time	Time	Time	Time	
X0	0.0000000000000000E+0	0.0000000000000000E+0	0.0000000000000000E+0	0.0000000000000000E+0	0.0000000000000000E+0	0.0000000000000000E+0	
Delta_X	1.000000	1.000000	1.000000	1.000000	1.000000	1.000000	
***End_of_Header***							
X_Value	Untitled	Untitled 1	Untitled 2	Untitled 3	Untitled 4	Untitled 5	Comment
0.000000	0.032259	4.095500	0.132080	21.074236	0.000928	20.892190
1.000901	-2.993600	3.917300	-11.725000	21.065353	0.000928	20.871927
2.000170	-2.986100	3.910300	-11.676000	21.065400	0.000929	20.877189
3.006040	-2.991600	3.904400	-11.678000	21.066971	0.000928	20.886346
4.000395	-2.978800	3.900200	-11.616000	21.028226	0.000927	20.872250
5.000281	-3.019000	3.896700	-11.763000	21.074729	0.000922	20.872296
6.002917	-3.004000	3.893800	-11.696000	21.075079	0.000926	20.870276
7.002791	-2.990600	3.891200	-11.635000	21.066367	0.000924	20.879105
8.003896	-2.964300	3.890000	-11.530000	21.081564	0.000921	20.877236
9.001918	-3.006200	3.887100	-11.685000	21.074726	0.000923	20.878457
10.005099	-2.998800	3.885700	-11.651000	21.083758	0.000920	20.882749
11.004985	-3.005600	3.882600	-11.668000	21.086150	0.000921	20.870443
12.006227	-3.023700	3.881000	-11.735000	21.097849	0.000919	20.862232
13.002236	-2.989700	3.881300	-11.603000	21.068307	0.000919	20.859235
14.002725	-3.013700	3.879600	-11.691000	21.099541	0.000918	20.868191
15.003625	-3.017800	3.878600	-11.704000	21.091879	0.000916	20.869536
16.003721	-2.985300	3.877600	-11.575000	21.094249	0.000917	20.861950
17.005593	-3.006200	3.876700	-11.653000	21.113285	0.000914	20.861076
18.003560	-2.999800	3.875800	-11.626000	21.104427	0.000916	20.863596
19.003945	-3.005600	3.871900	-11.636000	21.122561	0.000913	20.852338
20.007954	-2.987500	3.872900	-11.568000	21.122134	0.000914	20.873720
21.004395	-2.998300	3.872200	-11.608000	21.122406	0.000912	20.872096
22.007939	-2.997800	3.871600	-11.605000	21.134632	0.000912	20.866308
23.005070	-3.005000	3.870900	-11.630000	21.136701	0.000912	20.864111
24.006221	-3.012100	3.868400	-11.651000	21.146829	0.000913	20.866655
25.006696	-3.021100	3.866800	-11.681000	21.165263	0.000912	20.861387
26.005618	-3.002100	3.869100	-11.615000	21.184570	0.000911	20.864579
27.017313	-3.012300	3.865600	-11.642000	21.153137	0.000912	20.873913
28.008393	-2.997100	3.866100	-11.586000	21.173569	0.000910	20.858790
29.007233	-3.016500	3.864900	-11.658000	21.189106	0.000911	20.851099
30.008873	-2.999700	3.865500	-11.594000	21.178306	0.000908	20.851675
31.020857	-2.982200	3.865700	-11.527000	21.178805	0.000912	20.852174
32.008905	-3.015200	3.863600	-11.648000	21.195642	0.000909	20.868543
33.014047	-2.995800	3.863900	-11.574000	21.181723	0.000907	20.878800
34.009341	-3.001400	3.863100	-11.593000	21.199784	0.000908	20.873634
35.014276	-3.013000	3.861100	-11.632000	21.206495	0.000909	20.862804
36.012489	-2.992500	3.861800	-11.555000	21.198561	0.000910	20.855816
37.009089	-2.985600	3.861300	-11.527000	21.222558	0.000910	20.856587
38.013266	-2.984900	3.861200	-11.524000	21.233112	0.000910	20.867145
39.013025	-3.004800	3.860200	-11.598000	21.242861	0.000909	20.842760
40.014881	-3.012400	3.859300	-11.625000	21.262969	0.000908	20.850548
41.014375	-2.991500	3.859100	-11.544000	21.263840	0.000909	20.843359
42.016943	-2.993400	3.858700	-11.550000	21.248326	0.000908	20.862925
43.013035	-2.989900	3.858900	-11.537000	21.260271	0.000907	20.857806
44.016718	-3.016200	3.856300	-11.630000	21.278508	0.000909	20.843808
45.014356	-3.011900	3.856400	-11.614000	21.279877	0.000907	20.868884
46.015476	-2.992500	3.857800	-11.543000	21.300803	0.000907	20.839560
47.016877	-2.999800	3.855900	-11.566000	21.298334	0.000908	20.851314
48.016744	-2.997500	3.856400	-11.557000	21.280246	0.000909	20.852659
49.020196	-3.000900	3.855300	-11.568000	21.322127	0.000908	20.841453
50.017567	-2.996400	3.855100	-11.550000	21.299802	0.000908	20.847093
51.019342	-2.987800	3.856000	-11.520000	21.308931	0.000908	20.852433
52.017116	-3.005200	3.854700	-11.582000	21.323518	0.000907	20.843794
53.016097	-3.005100	3.853400	-11.578000	21.333595	0.000906	20.862883
54.017171	-2.994100	3.854600	-11.540000	21.332347	0.000908	20.852151
55.016771	-2.997500	3.853400	-11.550000	21.331498	0.000908	20.839923
56.018410	-3.007700	3.852500	-11.585000	21.371581	0.000909	20.844463
57.019800	-3.010900	3.853400	-11.600000	21.361204	0.000907	20.860633
58.018474	-3.005800	3.851700	-11.576000	21.367136	0.000906	20.860404
59.020999	-3.028400	3.850800	-11.662000	21.402578	0.000907	20.834699
60.020955	-3.003500	3.851100	-11.565000	21.386189	0.000907	20.849122
61.019992	-3.010500	3.851800	-11.595000	21.386186	0.000907	20.833472
62.020936	-2.997700	3.851200	-11.542000	21.391399	0.000908	20.814033
63.019782	-3.007400	3.850500	-11.579000	21.407959	0.000907	20.838660
64.020091	-3.004100	3.850000	-11.564000	21.417211	0.000909	20.839857
65.024516	-3.004000	3.850300	-11.566000	21.412645	0.000907	20.836237
66.021964	-3.003000	3.849000	-11.558000	21.406159	0.000907	20.831645
67.021867	-3.008800	3.849800	-11.582000	21.431824	0.000907	20.852107
68.020517	-2.982600	3.850600	-11.483000	21.456141	0.000906	20.840877
69.020846	-2.995500	3.849500	-11.530000	21.467564	0.000907	20.841874
70.024748	-3.008500	3.846800	-11.571000	21.464173	0.000907	20.847015
71.025978	-2.994700	3.848900	-11.525000	21.464269	0.000907	20.849008
72.022576	-2.997800	3.848100	-11.535000	21.483797	0.000906	20.834409
73.022207	-2.989000	3.848000	-11.501000	21.499338	0.000907	20.853278
74.022110	-2.976200	3.847400	-11.450000	21.500212	0.000906	20.823808
75.023156	-2.988000	3.847700	-11.496000	21.509463	0.000906	20.842073
76.024282	-2.995400	3.846600	-11.522000	21.496644	0.000907	20.818341
77.022934	-3.020000	3.845500	-11.612000	21.482205	0.000904	20.847514
78.023698	-3.007000	3.844500	-11.558000	21.502631	0.000905	20.833340
79.024778	-2.985400	3.846200	-11.482000	21.518246	0.000905	20.858921
80.023426	-2.997500	3.845500	-11.526000	21.513232	0.000906	20.821663
81.027246	-3.006900	3.846200	-11.565000	21.512860	0.000906	20.826980
82.026278	-2.981400	3.845700	-11.465000	21.525583	0.000906	20.833073
83.025070	-2.992800	3.844900	-11.506000	21.515557	0.000907	20.833947
84.027349	-3.003900	3.845000	-11.549000	21.535236	0.000906	20.836568
85.026506	-2.995200	3.845600	-11.518000	21.563741	0.000906	20.845177
86.025830	-3.019200	3.844400	-11.606000	21.569102	0.000905	20.820196
87.027059	-3.009500	3.843900	-11.567000	21.585887	0.000908	20.855484
88.026455	-2.999600	3.843800	-11.529000	21.577262	0.000904	20.839741
89.025942	-3.004900	3.842900	-11.546000	21.613050	0.000906	20.820078
90.025065	-2.990800	3.844600	-11.497000	21.627113	0.000909	20.826564
91.025457	-2.993100	3.845000	-11.508000	21.619185	0.000907	20.820527
92.031437	-2.985900	3.843300	-11.474000	21.609163	0.000907	20.828990
93.029825	-2.992000	3.843700	-11.500000	21.625319	0.000908	20.833304
94.030167	-3.005800	3.841900	-11.546000	21.634325	0.000906	20.823350
95.026877	-2.999100	3.842500	-11.523000	21.633473	0.000908	20.824869
96.026961	-3.009800	3.841300	-11.561000	21.628014	0.000909	20.817035
97.034133	-2.986900	3.842400	-11.476000	21.649809	0.000909	20.829362
98.029653	-2.978000	3.841700	-11.440000	21.640481	0.000908	20.817184
99.026889	-2.995800	3.841100	-11.505000	21.643377	0.000907	20.817236
100.025984	-3.006900	3.840200	-11.546000	21.667612	0.000907	20.812092
101.026110	-3.000500	3.840300	-11.521000	21.680757	0.000909	20.834256
102.025923	-2.986000	3.840700	-11.468000	21.668339	0.000909	20.812346
103.029218	-2.979200	3.841000	-11.442000	21.706444	0.000911	20.815866
104.027497	-2.997600	3.839500	-11.507000	21.726593	0.000911	20.819910
105.027795	-2.991300	3.840400	-11.487000	21.737264	0.000910	20.828693
106.026759	-3.013500	3.839000	-11.568000	21.706843	0.000910	20.810576
107.026083	-3.017000	3.837300	-11.576000	21.711137	0.000909	20.824357
108.030818	-2.983500	3.839300	-11.452000	21.723877	0.000910	20.823830
109.036656	-2.990800	3.839100	-11.481000	21.733727	0.000909	20.815196
110.028900	-2.991900	3.838700	-11.484000	21.747816	0.000910	20.813176
111.029796	-2.984200	3.840000	-11.458000	21.778911	0.000909	20.808261
112.030342	-2.995800	3.838600	-11.499000	21.753380	0.000910	20.801201
113.032793	-2.999800	3.837800	-11.512000	21.773529	0.000909	20.812357
114.032447	-3.017600	3.835500	-11.573000	21.764580	0.000912	20.814306
115.031641	-3.008700	3.835200	-11.537000	21.763357	0.000911	20.804548
116.033978	-2.996400	3.835200	-11.491000	21.765502	0.000913	20.810014
117.031671	-2.973500	3.837000	-11.408000	21.800835	0.000913	20.804126
118.032469	-2.989100	3.835700	-11.464000	21.783009	0.000912	20.811415
119.034093	-2.997000	3.836700	-11.498000	21.811855	0.000912	20.811836
120.033051	-2.981100	3.836100	-11.435000	21.800064	0.000913	20.811415
121.033922	-2.994400	3.835300	-11.482000	21.836715	0.000913	20.789303
122.033796	-2.999200	3.834900	-11.501000	21.826720	0.000915	20.830981
123.033260	-3.008900	3.833400	-11.533000	21.823726	0.000916	20.802855
124.035378	-3.017800	3.834700	-11.570000	21.828117	0.000915	20.812939
125.035327	-2.989800	3.834600	-11.463000	21.832204	0.000916	20.813237
126.034558	-2.986400	3.834300	-11.450000	21.852224	0.000913	20.795343
127.038780	-2.996800	3.834600	-11.489000	21.867083	0.000917	20.806422
128.034980	-2.972200	3.834800	-11.397000	21.874439	0.000918	20.791974
129.040269	-2.983600	3.834200	-11.439000	21.874637	0.000916	20.784586
130.038129	-3.005300	3.832800	-11.518000	21.911115	0.000917	20.793124
131.036635	-3.001400	3.833100	-11.503000	21.923580	0.000918	20.789954
132.036449	-3.002200	3.832500	-11.505000	21.922880	0.000917	20.792573
133.036674	-3.019000	3.832200	-11.569000	21.930834	0.000918	20.813810
134.036466	-3.014700	3.831400	-11.549000	21.951277	0.000917	20.819574
135.037647	-2.998400	3.832300	-11.489000	21.956014	0.000917	20.802031
136.039800	-3.029400	3.830700	-11.601000	21.941230	0.000918	20.779172
137.036950	-2.992100	3.831900	-11.464000	21.969453	0.000918	20.820225
138.037130	-3.007400	3.830600	-11.519000	21.977131	0.000918	20.798513
139.038278	-3.016800	3.831100	-11.557000	21.983539	0.000919	20.786910
140.041102	-2.995400	3.831500	-11.476000	21.990619	0.000920	20.794472
141.042148	-3.009200	3.831300	-11.527000	21.999742	0.000919	20.803131
142.040152	-3.009800	3.831200	-11.531000	22.000715	0.000921	20.793673
143.039591	-3.003800	3.830100	-11.504000	21.994034	0.000920	20.812589
144.039739	-3.009300	3.829100	-11.522000	21.992665	0.000920	20.789408
145.040617	-3.017800	3.829300	-11.555000	22.015351	0.000920	20.794574
146.043461	-3.004800	3.829100	-11.504000	22.016125	0.000920	20.765951
147.041981	-3.012600	3.829000	-11.534000	22.017273	0.000922	20.774213
148.047125	-3.009500	3.828400	-11.520000	22.048088	0.000922	20.787991
149.043139	-2.999900	3.830100	-11.488000	22.018474	0.000922	20.764035
150.043749	-3.015000	3.827200	-11.537000	22.004766	0.000924	20.769753
151.044668	-3.014500	3.829000	-11.541000	22.016957	0.000923	20.796656
152.044254	-3.019400	3.827200	-11.555000	22.042460	0.000925	20.803694
153.044359	-2.980300	3.828700	-11.409000	22.055226	0.000923	20.779490
154.045092	-3.014200	3.827200	-11.535000	22.074323	0.000923	20.773003
155.045269	-3.012400	3.828600	-11.532000	22.065373	0.000925	20.781588
156.045252	-3.003300	3.826800	-11.491000	22.065726	0.000923	20.775303
157.053675	-2.994700	3.828000	-11.461000	22.083823	0.000923	20.772557
158.046068	-3.022700	3.826300	-11.563000	22.098359	0.000924	20.757238
159.046887	-3.035100	3.825200	-11.608000	22.097663	0.000924	20.788309
160.046332	-3.016400	3.826600	-11.542000	22.106216	0.000926	20.773164
161.046006	-3.006800	3.826600	-11.504000	22.103454	0.000925	20.750958
162.052408	-3.009000	3.825400	-11.510000	22.105649	0.000925	20.777812
163.047844	-3.025200	3.825100	-11.570000	22.123649	0.000925	20.760745
164.049172	-3.017600	3.826600	-11.544000	22.118839	0.000926	20.774421
165.049634	-3.013900	3.825000	-11.527000	22.114954	0.000926	20.770058
166.049189	-3.003100	3.824600	-11.484000	22.126199	0.000929	20.765669
167.050770	-2.997400	3.825900	-11.467000	22.132634	0.000926	20.776380
168.051728	-3.019100	3.823300	-11.542000	22.146722	0.000930	20.778155
169.049582	-3.015600	3.822800	-11.526000	22.144651	0.000929	20.751425
170.050560	-2.998300	3.824800	-11.466000	22.163774	0.000930	20.768675
171.050261	-3.013200	3.823000	-11.518000	22.164498	0.000931	20.766555
172.050673	-3.017300	3.822800	-11.534000	22.175743	0.000930	20.759796
173.051368	-3.014300	3.822100	-11.518000	22.180033	0.000930	20.765513
174.049116	-3.000200	3.823600	-11.471000	22.185967	0.000930	20.739685
175.052869	-3.002100	3.822200	-11.473000	22.191328	0.000930	20.775874
176.050127	-2.994600	3.822700	-11.446000	22.196788	0.000931	20.744355
177.051420	-2.997500	3.822900	-11.457000	22.209853	0.000930	20.762653
178.053688	-2.992000	3.822900	-11.437000	22.222667	0.000935	20.770741
179.055567	-3.000200	3.822900	-11.468000	22.221095	0.000932	20.746407
180.050760	-2.986800	3.821600	-11.414000	22.231566	0.000933	20.751675
181.050454	-2.998300	3.821100	-11.456000	22.249390	0.000932	20.735383
182.050393	-3.005200	3.820300	-11.480000	22.230429	0.000936	20.743899
183.054806	-2.975200	3.822900	-11.373000	22.238929	0.000935	20.749090
184.053458	-2.982100	3.821500	-11.395000	22.233051	0.000935	20.743205
185.052613	-2.980500	3.821900	-11.390000	22.210016	0.000936	20.735314
186.051620	-3.013900	3.820700	-11.513000	22.222982	0.000937	20.765367
187.052333	-2.988500	3.821100	-11.417000	22.247363	0.000935	20.737146
188.052868	-3.020300	3.819400	-11.534000	22.234400	0.000936	20.735547
189.055031	-3.010300	3.818200	-11.494000	22.264788	0.000936	20.747007
190.052375	-3.021000	3.818100	-11.533000	22.264915	0.000937	20.736702
191.052350	-3.000900	3.818100	-11.456000	22.259409	0.000939	20.763907
192.050980	-2.994800	3.818200	-11.433000	22.270080	0.000936	20.748513
193.052429	-2.989100	3.818500	-11.413000	22.283439	0.000941	20.752880
194.054607	-2.993100	3.818200	-11.427000	22.301461	0.000938	20.745321
195.052596	-2.988900	3.817800	-11.410000	22.326561	0.000941	20.764291
196.051161	-2.986700	3.817900	-11.402000	22.345229	0.000943	20.741732
197.055079	-2.999500	3.818300	-11.452000	22.348095	0.000943	20.734644
198.054191	-3.003500	3.818200	-11.468000	22.331051	0.000942	20.748398
199.053110	-2.998300	3.817400	-11.445000	22.328610	0.000943	20.760653
200.054865	-2.993700	3.817900	-11.430000	22.332552	0.000944	20.752272
201.054190	-2.987500	3.816900	-11.402000	22.323057	0.000944	20.745609
202.058179	-2.987600	3.816400	-11.401000	22.365373	0.000945	20.756689
203.054110	-2.983900	3.816600	-11.388000	22.350500	0.000945	20.751277
204.053839	-3.005300	3.816300	-11.467000	22.365126	0.000945	20.754070
205.058809	-3.011300	3.814600	-11.486000	22.385112	0.000948	20.744211
206.056017	-3.000500	3.815600	-11.448000	22.374893	0.000946	20.743461
207.056777	-2.977800	3.816700	-11.363000	22.397098	0.000946	20.755740
208.057517	-2.989700	3.815100	-11.405000	22.399441	0.000948	20.741016
209.060565	-3.021600	3.813900	-11.523000	22.421920	0.000950	20.746458
210.063223	-2.989600	3.815300	-11.405000	22.433157	0.000946	20.754392
211.062619	-3.011500	3.814200	-11.486000	22.445365	0.000949	20.736745
212.067858	-3.001400	3.813800	-11.446000	22.450425	0.000949	20.736123
213.060470	-2.999500	3.813800	-11.438000	22.452467	0.000951	20.729633
214.060555	-2.990800	3.815400	-11.409000	22.465501	0.000951	20.769240
215.062995	-3.008900	3.813400	-11.473000	22.471205	0.000953	20.736544
216.063893	-2.991900	3.813400	-11.408000	22.497768	0.000951	20.758880
217.062411	-2.990700	3.813800	-11.405000	22.489744	0.000951	20.740412
218.064921	-2.984700	3.813400	-11.381000	22.492136	0.000951	20.752291
219.062897	-3.009600	3.813200	-11.475000	22.498835	0.000955	20.756156
220.063653	-3.005900	3.812200	-11.458000	22.508803	0.000954	20.747171
221.066795	-3.010300	3.812700	-11.476000	22.503072	0.000952	20.746173
222.063532	-2.994300	3.813400	-11.417000	22.522560	0.000953	20.751941
223.065274	-2.981200	3.812600	-11.365000	22.520914	0.000955	20.770681
224.063709	-3.002900	3.812900	-11.448000	22.517724	0.000953	20.740458
225.065161	-2.998200	3.812200	-11.428000	22.531327	0.000957	20.766885
226.069283	-3.016700	3.810500	-11.494000	22.538852	0.000955	20.745024
227.064122	-2.995400	3.811300	-11.416000	22.568430	0.000956	20.749517
228.066527	-2.987900	3.812000	-11.388000	22.575835	0.000957	20.762624
229.065281	-3.009500	3.810900	-11.467000	22.568854	0.000956	20.760374
230.065100	-2.998900	3.809700	-11.424000	22.593546	0.000957	20.766138
231.068378	-3.011200	3.808400	-11.467000	22.610193	0.000957	20.760051
232.070049	-3.023100	3.808800	-11.514000	22.611740	0.000960	20.769662
233.067401	-2.990300	3.809700	-11.391000	22.620088	0.000960	20.752418
234.066867	-3.005800	3.809700	-11.450000	22.635162	0.000959	20.769888
235.072632	-3.005400	3.808200	-11.443000	22.624623	0.000958	20.741788
236.070299	-3.008700	3.808800	-11.458000	22.626047	0.000959	20.750326
237.069849	-3.007000	3.809200	-11.452000	22.601557	0.000959	20.758040
238.068487	-2.979400	3.808500	-11.345000	22.588478	0.000962	20.759639
239.069970	-3.003800	3.808200	-11.436000	22.621415	0.000961	20.768447
240.068083	-2.997600	3.808800	-11.416000	22.617631	0.000963	20.759441
241.069230	-3.003800	3.807400	-11.435000	22.634623	0.000963	20.762236
242.070142	-3.009000	3.806500	-11.453000	22.665694	0.000962	20.780081
243.071437	-2.991900	3.807700	-11.391000	22.645094	0.000963	20.766085
244.069905	-2.997700	3.806300	-11.410000	22.654660	0.000964	20.767607
245.070524	-3.014000	3.807100	-11.472000	22.667046	0.000964	20.768633
246.070239	-2.980600	3.807100	-11.346000	22.674248	0.000966	20.764942
247.071732	-3.018900	3.805200	-11.486000	22.708232	0.000966	20.754885
248.073145	-3.022100	3.805900	-11.501000	22.704597	0.000964	20.764520
249.071969	-2.983200	3.805900	-11.353000	22.708210	0.000966	20.773830
250.073171	-3.010900	3.804800	-11.454000	22.682478	0.000968	20.761805
251.074504	-2.966300	3.805500	-11.287000	22.690600	0.000966	20.777053
252.081719	-2.974800	3.804700	-11.317000	22.720051	0.000967	20.771939
253.078625	-3.004400	3.803800	-11.427000	22.748851	0.000969	20.769494
254.074718	-2.995300	3.803900	-11.393000	22.761479	0.000968	20.740418
255.076967	-3.003500	3.804000	-11.424000	22.756424	0.000970	20.758588
256.075638	-2.967900	3.804500	-11.290000	22.775209	0.000969	20.771716
257.074771	-2.962400	3.802600	-11.263000	22.769207	0.000971	20.754798
258.073666	-3.009600	3.803000	-11.443000	22.807946	0.000972	20.761362
259.077819	-2.968400	3.806200	-11.297000	22.785626	0.000973	20.757969
260.075866	-2.980700	3.804100	-11.338000	22.822248	0.000969	20.761464
261.076615	-2.987700	3.802700	-11.361000	22.831964	0.000971	20.780208
262.076612	-2.995900	3.802600	-11.391000	22.800231	0.000970	20.768806
263.080063	-2.998400	3.801600	-11.397000	22.826885	0.000973	20.762317
264.080321	-2.986000	3.803700	-11.357000	22.837202	0.000973	20.770756
265.077043	-2.974500	3.802200	-11.308000	22.845396	0.000972	20.776120
266.080422	-2.974000	3.803300	-11.309000	22.849133	0.000977	20.773226
267.077045	-3.012700	3.800800	-11.450000	22.870710	0.000975	20.766866
268.078906	-3.001600	3.802100	-11.412000	22.850878	0.000976	20.755059
269.078787	-2.970400	3.801900	-11.292000	22.843760	0.000977	20.772584
270.076826	-2.989300	3.802100	-11.365000	22.839176	0.000978	20.800234
271.079770	-2.978100	3.800300	-11.316000	22.817032	0.000976	20.786112
272.087576	-2.973300	3.800700	-11.300000	22.812051	0.000977	20.751724
273.080006	-2.985400	3.800500	-11.344000	22.839578	0.000978	20.776455
274.095844	-2.996900	3.801100	-11.390000	22.857916	0.000978	20.777283
275.081730	-2.993600	3.798800	-11.370000	22.864415	0.000979	20.779052
276.079283	-2.988200	3.799200	-11.351000	22.876275	0.000977	20.783822
277.092701	-2.996000	3.799000	-11.380000	22.860035	0.000981	20.785570
278.080161	-2.991200	3.800400	-11.366000	22.895507	0.000981	20.776536
279.079808	-2.990100	3.798800	-11.358000	22.874636	0.000980	20.772696
280.083459	-3.010400	3.798400	-11.434000	22.885002	0.000981	20.778814
281.079954	-2.995000	3.797700	-11.372000	22.890784	0.000981	20.784132
282.081378	-3.002200	3.797700	-11.400000	22.885803	0.000983	20.773452
283.079206	-2.998600	3.796700	-11.382000	22.895919	0.000981	20.770310
284.083505	-3.014500	3.796500	-11.442000	22.928977	0.000982	20.779722
285.080128	-3.038200	3.794600	-11.528000	22.900206	0.000983	20.794046
286.085935	-3.046100	3.795100	-11.560000	22.905715	0.000984	20.787237
287.081462	-3.021000	3.795700	-11.466000	22.909106	0.000983	20.776883
288.080755	-3.001400	3.796200	-11.393000	22.909332	0.000983	20.793705
289.081473	-3.003600	3.795200	-11.398000	22.950859	0.000986	20.780782
290.082702	-3.012500	3.794900	-11.430000	22.926425	0.000984	20.779536
291.085922	-3.004700	3.794800	-11.401000	22.964586	0.000984	20.790269
292.085936	-2.984100	3.795700	-11.325000	22.967605	0.000986	20.776698
293.089357	-2.993300	3.796300	-11.362000	23.014559	0.000986	20.793396
294.084905	-3.001600	3.794400	-11.388000	22.997423	0.000988	20.803254
295.088474	-3.000200	3.793700	-11.381000	23.019149	0.000987	20.779029
296.087985	-3.004200	3.793200	-11.394000	23.011429	0.000987	20.777458
297.088295	-2.982000	3.794700	-11.315000	23.017933	0.000987	20.789191
298.087530	-2.997300	3.793900	-11.370000	23.006480	0.000987	20.784828
299.088294	-2.998600	3.794400	-11.376000	23.042121	0.000990	20.803942
300.089190	-3.006000	3.792600	-11.399000	23.015627	0.000990	20.777870
301.088793	-3.012000	3.792000	-11.421000	23.025642	0.000989	20.817777
302.089036	-2.998400	3.791900	-11.368000	23.047240	0.000990	20.781097
303.089004	-3.015600	3.791200	-11.432000	23.081887	0.000991	20.789260
304.089932	-2.991500	3.791200	-11.340000	23.079196	0.000991	20.792254
305.092686	-2.996900	3.792200	-11.363000	23.083158	0.000992	20.794801
306.090386	-2.994100	3.791600	-11.351000	23.087847	0.000991	20.781956
307.099732	-3.004400	3.790500	-11.386000	23.107378	0.000992	20.803423
308.092746	-2.988900	3.791700	-11.332000	23.112311	0.000992	20.798883
309.091687	-3.005200	3.790100	-11.389000	23.113357	0.000992	20.810362
310.091497	-2.978800	3.791700	-11.294000	23.129476	0.000993	20.803281
311.091650	-2.996100	3.790600	-11.356000	23.151373	0.000994	20.802463
312.095841	-2.986900	3.791000	-11.323000	23.141588	0.000996	20.793132
313.095262	-2.985500	3.790400	-11.314000	23.175087	0.000996	20.802994
314.093923	-3.012100	3.789400	-11.413000	23.152029	0.000995	20.808337
315.092664	-2.988100	3.788700	-11.321000	23.158508	0.000997	20.805346
316.093820	-2.988700	3.790700	-11.327000	23.182318	0.000998	20.793645
317.098673	-2.972500	3.789300	-11.261000	23.167678	0.000998	20.805052
318.095703	-2.997800	3.788400	-11.356000	23.151912	0.000999	20.804426
319.094464	-2.986000	3.788200	-11.310000	23.160909	0.000998	20.777880
320.094124	-2.988100	3.788200	-11.318000	23.164549	0.001000	20.808081
321.092677	-2.978600	3.788700	-11.284000	23.161707	0.001001	20.801913
322.093060	-2.993100	3.788500	-11.338000	23.180640	0.001001	20.811403
323.097645	-3.005200	3.786500	-11.378000	23.199489	0.001001	20.786195
324.094769	-2.990800	3.787500	-11.326000	23.200086	0.001003	20.794380
325.096961	-2.995400	3.786100	-11.340000	23.204149	0.001001	20.796556
326.095309	-3.005400	3.785200	-11.375000	23.222553	0.001003	20.801248
327.094589	-3.010600	3.785400	-11.395000	23.204972	0.001004	20.805441
328.094872	-3.010800	3.785400	-11.396000	23.219862	0.001004	20.813250
329.098546	-3.011900	3.785100	-11.399000	23.193270	0.001004	20.809361
330.099024	-3.016900	3.783500	-11.414000	23.192296	0.001004	20.815023
331.095705	-2.997000	3.783800	-11.339000	23.187741	0.001008	20.812355
332.096551	-2.975300	3.785500	-11.262000	23.201855	0.001006	20.779083
333.097941	-3.001800	3.783400	-11.355000	23.215777	0.001005	20.807734
334.106234	-2.987600	3.785100	-11.307000	23.228527	0.001004	20.810554
335.098653	-3.006400	3.783300	-11.373000	23.225268	0.001006	20.803020
336.098057	-3.005400	3.782700	-11.368000	23.214237	0.001006	20.814725
337.097318	-3.006100	3.781900	-11.369000	23.245292	0.001007	20.826406
338.097102	-2.995100	3.782400	-11.327000	23.242326	0.001007	20.803045
339.101565	-3.001300	3.783000	-11.352000	23.250567	0.001009	20.831218
340.100984	-3.006300	3.782700	-11.370000	23.234032	0.001011	20.806113
341.101302	-3.013500	3.781800	-11.395000	23.254479	0.001009	20.810009
342.100429	-2.979100	3.783100	-11.269000	23.236945	0.001013	20.818041
343.101563	-2.981100	3.782800	-11.274000	23.248074	0.001010	20.824927
344.102526	-2.996600	3.782000	-11.332000	23.279826	0.001012	20.827825
345.101136	-2.982900	3.780800	-11.276000	23.277185	0.001012	20.823281
346.103614	-2.987300	3.780600	-11.293000	23.288812	0.001012	20.836356
347.100785	-2.995600	3.780800	-11.325000	23.261689	0.001012	20.807752
348.101635	-3.006900	3.780000	-11.365000	23.282358	0.001014	20.825147
349.107498	-2.991300	3.780200	-11.307000	23.278499	0.001014	20.812744
350.103499	-3.007700	3.779500	-11.366000	23.310244	0.001013	20.828912
351.102755	-2.963300	3.780400	-11.202000	23.307730	0.001015	20.824970
352.104007	-3.005700	3.777600	-11.352000	23.343630	0.001016	20.822543
353.103907	-2.992600	3.779100	-11.308000	23.365964	0.001014	20.814107
354.104069	-2.988000	3.779400	-11.292000	23.375623	0.001014	20.815254
355.107430	-2.992200	3.778300	-11.305000	23.381773	0.001016	20.840857
356.104598	-3.017700	3.777500	-11.399000	23.359609	0.001014	20.828127
357.104887	-3.002100	3.777300	-11.339000	23.347655	0.001017	20.831319
358.104901	-2.978600	3.776800	-11.248000	23.337321	0.001019	20.848462
359.105082	-2.989000	3.777400	-11.290000	23.352457	0.001017	20.829019
360.109007	-3.003800	3.776300	-11.342000	23.347380	0.001016	20.851430
361.107559	-3.005800	3.776700	-11.351000	23.401749	0.001018	20.828163
362.106726	-2.998800	3.777000	-11.326000	23.393333	0.001015	20.847702
363.104822	-3.005000	3.775700	-11.345000	23.421120	0.001019	20.816285
364.104978	-2.995100	3.776600	-11.309000	23.421163	0.001019	20.849043
365.104784	-3.005000	3.775700	-11.345000	23.419595	0.001018	20.834196
366.104675	-3.011000	3.775700	-11.369000	23.415359	0.001018	20.843701
367.107316	-3.022100	3.773500	-11.402000	23.386845	0.001020	20.850682
368.106930	-2.986300	3.774200	-11.270000	23.382389	0.001019	20.849536
369.107150	-2.988000	3.774500	-11.277000	23.381490	0.001019	20.850056
370.106203	-3.006900	3.773000	-11.344000	23.386143	0.001021	20.834806
371.109051	-2.994400	3.772800	-11.296000	23.397197	0.001023	20.840669
372.107006	-3.000000	3.772300	-11.316000	23.418753	0.001020	20.836197
373.107017	-2.983500	3.772200	-11.254000	23.434290	0.001021	20.839916
374.106408	-3.022200	3.770700	-11.394000	23.434114	0.001020	20.844955
375.107015	-2.984800	3.772000	-11.258000	23.433238	0.001019	20.865888
376.112425	-2.996000	3.770800	-11.296000	23.443346	0.001022	20.861320
377.106877	-3.015100	3.770400	-11.367000	23.469515	0.001022	20.881385
378.109591	-2.997600	3.769900	-11.300000	23.464107	0.001022	20.851784
379.110971	-3.014300	3.770500	-11.365000	23.449365	0.001025	20.882525
380.105635	-2.997900	3.770700	-11.303000	23.479940	0.001023	20.868602
381.107040	-3.008200	3.769800	-11.339000	23.479386	0.001024	20.841496
382.110278	-3.004500	3.770400	-11.327000	23.499352	0.001024	20.866250
383.107921	-3.008800	3.769800	-11.341000	23.494347	0.001024	20.861707
384.109120	-3.013300	3.767800	-11.352000	23.505297	0.001025	20.868890
385.108787	-3.004400	3.767500	-11.318000	23.525266	0.001026	20.871837
386.112833	-3.006600	3.767200	-11.326000	23.562034	0.001026	20.868391
387.113465	-2.987600	3.768100	-11.256000	23.550477	0.001026	20.885254
388.109329	-2.999900	3.767000	-11.300000	23.532853	0.001027	20.880863
389.115009	-3.020500	3.767400	-11.379000	23.518408	0.001028	20.867334
390.110281	-3.002000	3.766800	-11.307000	23.525500	0.001027	20.887243
391.112510	-2.987300	3.766700	-11.251000	23.506555	0.001028	20.885796
392.111181	-3.001700	3.766800	-11.306000	23.502965	0.001027	20.868449
393.110917	-2.985400	3.766400	-11.243000	23.513196	0.001027	20.873488
394.114549	-2.995200	3.766300	-11.280000	23.517601	0.001029	20.873162
395.112463	-3.002200	3.767200	-11.309000	23.515183	0.001029	20.901556
396.112848	-2.991500	3.766300	-11.265000	23.532008	0.001030	20.882861
397.113179	-3.020400	3.764400	-11.369000	23.531955	0.001029	20.891817
398.114719	-3.011400	3.764300	-11.335000	23.557173	0.001029	20.890543
399.114609	-3.008600	3.765100	-11.327000	23.547611	0.001029	20.867683
400.114659	-3.003200	3.764300	-11.305000	23.560580	0.001031	20.882105
401.114845	-2.997000	3.764200	-11.280000	23.564237	0.001030	20.891460
402.115460	-2.997600	3.763800	-11.282000	23.576012	0.001031	20.882402
403.119507	-2.998500	3.763500	-11.284000	23.546306	0.001030	20.892926
404.115752	-2.979300	3.764100	-11.214000	23.587555	0.001032	20.876905
405.115539	-2.976200	3.764800	-11.204000	23.576649	0.001032	20.894419
406.115911	-2.999000	3.762700	-11.282000	23.598403	0.001032	20.906269
407.118325	-2.995500	3.762000	-11.267000	23.619761	0.001032	20.904447
408.127018	-2.980800	3.763800	-11.217000	23.620778	0.001032	20.905466
409.116852	-3.009700	3.762100	-11.322000	23.629790	0.001035	20.878467
410.119381	-2.985400	3.762300	-11.230000	23.645165	0.001032	20.876338
411.118138	-2.996400	3.761800	-11.270000	23.663039	0.001033	20.893307
412.123332	-2.994000	3.760500	-11.257000	23.681583	0.001032	20.908577
413.121089	-3.022200	3.761400	-11.366000	23.647774	0.001034	20.907874
414.119673	-2.993400	3.761500	-11.258000	23.648890	0.001034	20.916104
415.119899	-3.010500	3.759600	-11.318000	23.661184	0.001031	20.912782
416.118883	-2.998800	3.760300	-11.275000	23.652173	0.001035	20.908491
417.120509	-3.003200	3.758800	-11.287000	23.653663	0.001033	20.911406
418.120666	-2.995900	3.759500	-11.262000	23.646442	0.001034	20.920287
419.122532	-3.000900	3.759100	-11.280000	23.691048	0.001036	20.924703
420.119723	-2.994000	3.758300	-11.251000	23.701351	0.001034	20.924601
421.119105	-3.002000	3.759100	-11.284000	23.713820	0.001034	20.906758
422.120514	-2.996000	3.757600	-11.257000	23.730895	0.001034	20.910601
423.120971	-2.986800	3.758200	-11.225000	23.730370	0.001036	20.908652
424.123216	-3.010500	3.756400	-11.307000	23.762602	0.001035	20.914889
425.120520	-3.013500	3.756700	-11.320000	23.747738	0.001037	20.905203
426.121762	-2.996400	3.758400	-11.260000	23.779776	0.001036	20.909823
427.122189	-2.990900	3.758100	-11.239000	23.792912	0.001035	20.915881
428.123649	-2.979600	3.756300	-11.191000	23.790071	0.001036	20.922989
429.124943	-2.980700	3.757100	-11.198000	23.772623	0.001037	20.914979
430.134224	-3.022400	3.755400	-11.349000	23.771551	0.001038	20.921964
431.122759	-3.007400	3.755700	-11.294000	23.782499	0.001037	20.913975
432.122268	-3.007800	3.754700	-11.292000	23.778987	0.001037	20.928471
433.124642	-3.006200	3.754300	-11.285000	23.765199	0.001037	20.922708
434.132050	-3.013400	3.753600	-11.310000	23.808054	0.001037	20.933432
435.127264	-3.011800	3.752800	-11.302000	23.829831	0.001036	20.910700
436.126194	-3.006300	3.753800	-11.284000	23.834659	0.001036	20.938771
437.127655	-3.006200	3.753600	-11.283000	23.810564	0.001039	20.956808
438.125471	-2.998900	3.753900	-11.256000	23.785179	0.001038	20.917136
439.126411	-3.004200	3.753700	-11.275000	23.780595	0.001037	20.934350
440.125972	-2.993600	3.752600	-11.234000	23.783503	0.001038	20.919250
441.126143	-2.972300	3.754700	-11.158000	23.765756	0.001036	20.910465
442.126356	-2.991200	3.752400	-11.223000	23.775761	0.001036	20.933296
443.126200	-3.011300	3.751000	-11.294000	23.792934	0.001039	20.927756
444.126101	-2.990500	3.751600	-11.218000	23.823570	0.001038	20.900629
445.126346	-2.990900	3.751600	-11.220000	23.811253	0.001036	20.926209
446.128765	-2.995700	3.751000	-11.236000	23.828197	0.001038	20.917595
447.127810	-3.001400	3.749500	-11.253000	23.814511	0.001038	20.932320
448.126634	-2.977100	3.750400	-11.164000	23.849699	0.001038	20.915922
449.126648	-2.985800	3.750600	-11.197000	23.846018	0.001038	20.935936
450.127514	-2.984200	3.751600	-11.194000	23.872548	0.001038	20.930297
451.130710	-2.984400	3.749400	-11.189000	23.882726	0.001041	20.935760
452.128449	-2.983700	3.749600	-11.186000	23.869612	0.001038	20.906018
453.146401	-2.997400	3.749000	-11.237000	23.877499	0.001039	20.919141
454.129374	-2.989300	3.748200	-11.203000	23.886731	0.001037	20.899477
455.128848	-3.015200	3.747200	-11.297000	23.866945	0.001038	20.903818
456.131206	-3.002700	3.747500	-11.251000	23.886036	0.001038	20.916796
457.130530	-2.997500	3.746800	-11.230000	23.903899	0.001039	20.907208
458.136058	-3.020400	3.746800	-11.315000	23.901587	0.001039	20.925751
459.128398	-3.019800	3.746100	-11.311000	23.907435	0.001039	20.914072
460.129309	-3.003000	3.746200	-11.248000	23.872644	0.001039	20.923281
461.133607	-3.005000	3.745800	-11.255000	23.864778	0.001038	20.897853
462.137318	-2.995000	3.746700	-11.220000	23.852283	0.001040	20.906660
463.129313	-3.018500	3.745000	-11.303000	23.815324	0.001040	20.896155
464.132250	-3.009900	3.745100	-11.270000	23.842133	0.001038	20.892690
465.130971	-3.005300	3.744000	-11.251000	23.856740	0.001040	20.917766
466.131529	-3.004900	3.746200	-11.255000	23.876776	0.001037	20.920313
467.135103	-3.002100	3.743600	-11.238000	23.918440	0.001040	20.895712
468.130010	-2.965300	3.744800	-11.103000	23.902508	0.001040	20.892539
469.132569	-2.993600	3.743600	-11.206000	23.921521	0.001041	20.907335
470.132024	-2.979800	3.744100	-11.156000	23.939464	0.001040	20.884079
471.131684	-3.025400	3.740600	-11.315000	23.938395	0.001041	20.892015
472.132963	-2.997400	3.741500	-11.214000	23.943173	0.001042	20.882582
473.133813	-2.998000	3.742700	-11.220000	23.961814	0.001038	20.898903
474.132461	-2.987200	3.742500	-11.178000	23.959348	0.001038	20.897379
475.132428	-2.989900	3.741800	-11.187000	23.979457	0.001041	20.895733
476.132641	-2.996800	3.742100	-11.213000	23.957237	0.001039	20.868712
477.132329	-3.005500	3.740900	-11.243000	23.974157	0.001039	20.889945
478.135742	-3.004600	3.740600	-11.237000	23.965699	0.001039	20.872455
479.132432	-3.004800	3.741100	-11.240000	23.986630	0.001039	20.878272
480.134356	-3.001300	3.740100	-11.224000	23.981781	0.001041	20.880047
481.133329	-2.998400	3.741400	-11.216000	24.006562	0.001040	20.897311
482.132043	-2.986500	3.740600	-11.170000	24.017016	0.001042	20.888355
483.133890	-3.004100	3.739500	-11.233000	24.015128	0.001038	20.871764
484.132825	-2.992000	3.738900	-11.186000	23.988749	0.001039	20.886087
485.136247	-2.994900	3.739000	-11.196000	23.987386	0.001039	20.888513
486.134703	-3.007400	3.738000	-11.241000	23.969296	0.001038	20.898345
487.133278	-3.022100	3.736600	-11.292000	23.983483	0.001037	20.867531
488.135781	-3.024500	3.737100	-11.302000	23.971168	0.001038	20.896430
489.135433	-2.999100	3.736800	-11.205000	23.947054	0.001036	20.863716
490.136925	-3.016900	3.737300	-11.273000	23.935014	0.001041	20.879616
491.146466	-3.000100	3.734600	-11.203000	23.939792	0.001041	20.868761
492.137915	-2.973900	3.736100	-11.109000	23.949276	0.001040	20.882538
493.140466	-2.998900	3.736200	-11.202000	23.979166	0.001041	20.872210
494.142250	-2.993300	3.736400	-11.184000	23.969017	0.001041	20.839275
495.137714	-2.987200	3.734900	-11.155000	23.995721	0.001040	20.867001
496.141952	-3.004200	3.734600	-11.219000	23.970389	0.001038	20.847763
497.139767	-2.981400	3.735000	-11.134000	23.949066	0.001040	20.880431
498.139520	-2.994800	3.733700	-11.181000	23.979951	0.001040	20.854032
499.142534	-3.004700	3.734100	-11.220000	24.009967	0.001039	20.863270
500.141853	-2.999600	3.733000	-11.196000	24.005288	0.001038	20.870905
501.140009	-3.010300	3.733000	-11.236000	23.985807	0.001040	20.856111
502.140324	-2.983300	3.733600	-11.136000	23.989244	0.001040	20.859557
503.139216	-2.992500	3.732100	-11.167000	23.989296	0.001039	20.869092
504.157998	-2.997500	3.733500	-11.190000	24.013786	0.001040	20.856669
505.143503	-2.991800	3.734400	-11.171000	24.025288	0.001038	20.867729
506.140332	-3.012100	3.731800	-11.239000	24.044623	0.001040	20.869576
507.146113	-3.000600	3.731700	-11.196000	24.069585	0.001038	20.861420
508.141826	-3.002700	3.730700	-11.202000	24.094000	0.001038	20.865517
509.142758	-3.011800	3.730400	-11.234000	24.092461	0.001043	20.850224
510.144213	-3.017400	3.730200	-11.255000	24.089303	0.001040	20.857487
511.143850	-2.988100	3.731000	-11.146000	24.048075	0.001040	20.848857
512.148166	-2.993500	3.730200	-11.165000	24.053502	0.001041	20.860462
513.142625	-3.030500	3.728400	-11.297000	24.056589	0.001041	20.848860
514.141997	-3.004400	3.728700	-11.200000	24.078989	0.001041	20.849040
515.142594	-2.992800	3.728800	-11.159000	24.078269	0.001041	20.848792
516.145905	-2.999000	3.728900	-11.182000	24.085089	0.001041	20.833347
517.142566	-3.003100	3.728100	-11.195000	24.105171	0.001042	20.853961
518.144343	-2.982800	3.729900	-11.125000	24.116644	0.001040	20.826114
519.142742	-3.004200	3.727700	-11.198000	24.119134	0.001042	20.866069
520.143375	-2.997300	3.727600	-11.171000	24.140754	0.001042	20.859778
521.145566	-2.998100	3.728100	-11.175000	24.151359	0.001041	20.849552
522.144961	-2.998700	3.726800	-11.174000	24.177557	0.001043	20.848328
523.149418	-2.989100	3.726900	-11.139000	24.185748	0.001042	20.854646
524.144581	-3.009600	3.725900	-11.212000	24.170716	0.001043	20.850001
525.144926	-2.977600	3.727200	-11.097000	24.187914	0.001042	20.847810
526.145976	-2.994500	3.727200	-11.161000	24.155224	0.001043	20.861489
527.151049	-3.008300	3.724400	-11.202000	24.150670	0.001041	20.850283
528.146170	-3.029700	3.725100	-11.284000	24.127879	0.001041	20.844969
529.147711	-2.994900	3.725500	-11.156000	24.089737	0.001040	20.850810
530.146838	-3.004100	3.724400	-11.187000	24.102678	0.001041	20.844823
531.147803	-3.011800	3.724800	-11.216000	24.083569	0.001042	20.838461
532.150807	-3.008800	3.725100	-11.207000	24.072698	0.001039	20.849370
533.148461	-3.004300	3.723300	-11.184000	24.068592	0.001042	20.855682
534.151764	-3.018800	3.723000	-11.236000	24.058768	0.001040	20.855788
535.149591	-3.029600	3.721700	-11.275000	24.064742	0.001044	20.855614
536.148908	-3.006800	3.722300	-11.192000	24.039835	0.001040	20.838223
537.150033	-3.011300	3.721700	-11.205000	24.071219	0.001043	20.828446
538.148892	-3.003500	3.723200	-11.182000	24.070972	0.001043	20.836259
539.147923	-3.009400	3.720600	-11.196000	24.119818	0.001042	20.825979
540.149696	-2.989000	3.721100	-11.121000	24.138608	0.001045	20.837712
541.150333	-3.008400	3.720800	-11.193000	24.115221	0.001041	20.834170
542.149673	-3.002500	3.721900	-11.173000	24.140203	0.001044	20.802328
543.152746	-3.000500	3.720200	-11.161000	24.165957	0.001042	20.844279
544.150945	-2.996100	3.721300	-11.149000	24.185191	0.001043	20.825639
545.151392	-3.015500	3.719500	-11.215000	24.172903	0.001044	20.814737
546.152923	-2.995300	3.720200	-11.143000	24.159394	0.001042	20.834852
547.151228	-2.982900	3.720300	-11.096000	24.173107	0.001042	20.829166
548.151803	-2.977600	3.719700	-11.074000	24.151432	0.001043	20.835401
549.161013	-2.998100	3.719200	-11.149000	24.176194	0.001043	20.825624
550.154975	-3.004900	3.718700	-11.173000	24.207990	0.001042	20.831438
551.154356	-2.989700	3.718500	-11.116000	24.213888	0.001042	20.821233
552.154362	-3.000600	3.718900	-11.158000	24.210301	0.001041	20.831385
553.155745	-2.981900	3.719300	-11.089000	24.248668	0.001043	20.811548
554.158313	-3.003200	3.718700	-11.167000	24.253846	0.001043	20.812001
555.155581	-2.989200	3.717100	-11.110000	24.252478	0.001042	20.840499
556.156313	-2.983300	3.718600	-11.092000	24.263569	0.001041	20.810848
557.158784	-2.997400	3.715500	-11.135000	24.288724	0.001041	20.822330
558.158254	-2.990300	3.716800	-11.114000	24.281633	0.001041	20.828019
559.167397	-2.995400	3.717400	-11.134000	24.304798	0.001043	20.827549
560.157073	-2.991600	3.715600	-11.114000	24.302283	0.001042	20.821707
561.158058	-2.998400	3.714500	-11.136000	24.320718	0.001046	20.824078
562.157810	-2.996500	3.714100	-11.128000	24.319522	0.001042	20.820508
563.159101	-2.998600	3.715200	-11.139000	24.315388	0.001043	20.805456
564.160868	-2.997500	3.715200	-11.135000	24.313995	0.001041	20.828239
565.164436	-3.007000	3.714200	-11.168000	24.336535	0.001042	20.819556
566.160612	-3.024900	3.712400	-11.229000	24.305836	0.001043	20.807253
567.161735	-3.022600	3.712300	-11.219000	24.313893	0.001042	20.839042
568.160211	-3.006300	3.710600	-11.154000	24.324443	0.001041	20.831608
569.161304	-3.018700	3.711000	-11.200000	24.345784	0.001041	20.825515
570.164085	-3.013000	3.711600	-11.181000	24.354369	0.001042	20.827489
571.163047	-3.017300	3.711600	-11.197000	24.350955	0.001039	20.806047
572.163385	-2.994800	3.711800	-11.115000	24.360758	0.001042	20.831527
573.162325	-2.999200	3.711200	-11.130000	24.313713	0.001042	20.818474
574.162352	-2.987200	3.710600	-11.083000	24.300253	0.001042	20.824412
575.167649	-2.998800	3.711900	-11.131000	24.305301	0.001044	20.808613
576.162618	-2.990700	3.710700	-11.096000	24.311795	0.001042	20.824610
577.166076	-2.995700	3.710500	-11.115000	24.323883	0.001040	20.818719
578.165093	-2.989700	3.710500	-11.091000	24.343012	0.001040	20.810407
579.164330	-3.004700	3.709100	-11.144000	24.372123	0.001041	20.797884
580.169848	-2.995400	3.708200	-11.107000	24.388937	0.001041	20.812381
581.167553	-2.983100	3.710400	-11.068000	24.401222	0.001038	20.804792
582.164254	-2.996500	3.707800	-11.109000	24.388835	0.001040	20.803744
583.165239	-2.983200	3.708100	-11.061000	24.391621	0.001039	20.838781
584.164390	-2.999600	3.708500	-11.123000	24.405825	0.001039	20.835487
585.167342	-2.997600	3.707800	-11.113000	24.390080	0.001039	20.797881
586.168595	-2.987400	3.708900	-11.079000	24.387195	0.001039	20.827228
587.166180	-3.007800	3.707700	-11.150000	24.364158	0.001040	20.812654
588.170572	-3.013300	3.705500	-11.165000	24.354208	0.001038	20.805517
589.168009	-3.003100	3.706400	-11.129000	24.339707	0.001038	20.803298
590.168569	-3.002200	3.706600	-11.127000	24.317272	0.001039	20.803078
591.171054	-3.002100	3.706200	-11.126000	24.328715	0.001037	20.810764
592.171889	-3.010500	3.704000	-11.150000	24.321400	0.001038	20.818598
593.171135	-2.990500	3.705700	-11.081000	24.350236	0.001038	20.804851
594.170348	-3.010900	3.705400	-11.156000	24.347922	0.001040	20.798737
595.171096	-3.012700	3.705200	-11.162000	24.355435	0.001039	20.815756
596.171336	-3.012700	3.705600	-11.162000	24.355364	0.001039	20.817582
597.171729	-3.014400	3.704000	-11.164000	24.381134	0.001039	20.810717
598.170529	-2.995100	3.703700	-11.092000	24.353399	0.001039	20.807076
599.172128	-3.019400	3.703800	-11.183000	24.322123	0.001038	20.826435
600.172465	-2.993700	3.703900	-11.086000	24.334916	0.001039	20.795173
601.172137	-2.986900	3.704100	-11.061000	24.349816	0.001039	20.799214
602.174238	-2.998500	3.703600	-11.104000	24.319537	0.001037	20.817204
603.172501	-2.993900	3.702000	-11.082000	24.352179	0.001039	20.793998
604.175463	-2.997900	3.702700	-11.100000	24.384168	0.001035	20.807597
605.172967	-2.986700	3.702400	-11.057000	24.401832	0.001037	20.798765
606.174020	-3.008300	3.702600	-11.137000	24.400685	0.001036	20.802830
607.176872	-3.001000	3.700500	-11.104000	24.441131	0.001036	20.804051
608.176862	-3.012300	3.700500	-11.145000	24.443719	0.001036	20.800484
609.174459	-2.995800	3.699800	-11.083000	24.451257	0.001037	20.806624
610.174082	-3.009000	3.700000	-11.132000	24.456477	0.001035	20.800481
611.175004	-2.988200	3.700800	-11.058000	24.427428	0.001037	20.808796
612.173736	-2.996600	3.700700	-11.089000	24.440161	0.001035	20.781741
613.179059	-2.988400	3.699500	-11.055000	24.430409	0.001038	20.793295
614.174604	-3.019400	3.697600	-11.162000	24.451429	0.001037	20.793995
615.181126	-3.002400	3.698800	-11.104000	24.435558	0.001037	20.787555
616.177186	-3.018600	3.697800	-11.161000	24.454089	0.001036	20.788128
617.177561	-2.977900	3.698900	-11.013000	24.459387	0.001035	20.791072
618.178802	-3.004600	3.697700	-11.109000	24.491224	0.001036	20.774176
619.177586	-2.998600	3.698500	-11.089000	24.498613	0.001035	20.785857
620.180084	-2.995000	3.696700	-11.071000	24.502069	0.001036	20.779841
621.178827	-2.989300	3.697000	-11.051000	24.547885	0.001034	20.808740
622.179100	-2.997700	3.696000	-11.077000	24.473015	0.001036	20.794314
623.179589	-2.993300	3.696400	-11.063000	24.475604	0.001033	20.791221
624.182037	-2.987700	3.695800	-11.040000	24.482813	0.001035	20.781859
625.180450	-2.985400	3.696000	-11.032000	24.451698	0.001034	20.785255
626.179890	-2.978300	3.695800	-11.006000	24.440877	0.001034	20.781986
627.179805	-2.988900	3.695100	-11.043000	24.463263	0.001035	20.802548
628.180602	-2.993300	3.695200	-11.060000	24.473935	0.001032	20.792867
629.188158	-3.008300	3.694800	-11.115000	24.489158	0.001034	20.789173
630.181918	-3.003900	3.692900	-11.091000	24.464730	0.001033	20.800701
631.183944	-2.987500	3.694100	-11.034000	24.474909	0.001033	20.776299
632.182347	-3.003200	3.692300	-11.085000	24.459986	0.001033	20.793096
633.182188	-2.978800	3.694500	-11.004000	24.449765	0.001031	20.784738
634.184937	-2.996300	3.691600	-11.060000	24.439589	0.001031	20.771685
635.184862	-2.997200	3.693700	-11.069000	24.473222	0.001032	20.777926
636.182423	-3.018200	3.691100	-11.139000	24.441434	0.001029	20.768793
637.184155	-3.007900	3.690800	-11.101000	24.444643	0.001030	20.791454
638.183676	-3.031500	3.689700	-11.185000	24.451513	0.001029	20.768000
639.183833	-2.979000	3.692000	-10.998000	24.436665	0.001029	20.785346
640.185614	-3.019200	3.690100	-11.140000	24.421124	0.001030	20.769755
641.183561	-3.012700	3.690600	-11.116000	24.435006	0.001029	20.795536
642.187316	-3.002200	3.689500	-11.075000	24.453639	0.001028	20.786255
643.186687	-2.983600	3.691000	-11.011000	24.469782	0.001028	20.786329
644.186996	-3.011200	3.688800	-11.106000	24.481978	0.001028	20.792400
645.192661	-3.012600	3.689500	-11.114000	24.484644	0.001028	20.789859
646.187615	-2.992500	3.688300	-11.036000	24.506859	0.001028	20.779431
647.190415	-2.987100	3.688400	-11.016000	24.473555	0.001027	20.781579
648.189099	-3.002600	3.687800	-11.071000	24.464681	0.001028	20.788797
649.187362	-3.003100	3.687800	-11.072000	24.472842	0.001027	20.776596
650.191729	-2.994900	3.688400	-11.046000	24.503515	0.001030	20.763273
651.189161	-3.010200	3.687300	-11.097000	24.498965	0.001028	20.766295
652.188972	-3.006000	3.687100	-11.083000	24.534712	0.001028	20.765177
653.190035	-3.000100	3.686600	-11.059000	24.548868	0.001026	20.772268
654.190115	-3.001100	3.687100	-11.064000	24.549714	0.001027	20.760315
655.193504	-2.992300	3.686900	-11.030000	24.562005	0.001028	20.747989
656.192608	-3.017300	3.684700	-11.117000	24.575215	0.001027	20.745597
657.194108	-3.012400	3.685500	-11.101000	24.571015	0.001029	20.763194
658.190452	-3.010600	3.685500	-11.095000	24.539254	0.001028	20.743654
659.191184	-3.011100	3.685200	-11.095000	24.553956	0.001028	20.767890
660.191821	-3.027600	3.684100	-11.151000	24.538040	0.001026	20.757610
661.189839	-3.013200	3.684400	-11.099000	24.571321	0.001025	20.757812
662.191554	-2.992200	3.684300	-11.023000	24.578187	0.001026	20.768969
663.193657	-2.984700	3.684500	-10.995000	24.599311	0.001023	20.759344
664.192801	-3.011300	3.682500	-11.088000	24.589733	0.001024	20.765380
665.192165	-2.995000	3.683000	-11.028000	24.586830	0.001025	20.762468
666.197130	-2.981500	3.685000	-10.984000	24.610606	0.001024	20.741753
667.195111	-2.996600	3.682900	-11.035000	24.606755	0.001025	20.758752
668.194146	-2.996700	3.680800	-11.030000	24.643370	0.001024	20.767043
669.192217	-2.974600	3.682600	-10.953000	24.659958	0.001023	20.769463
670.198046	-3.009600	3.680800	-11.077000	24.620617	0.001023	20.766498
671.201214	-2.986000	3.681300	-10.992000	24.642308	0.001025	20.763607
672.192927	-2.977700	3.682200	-10.963000	24.652806	0.001021	20.740949
673.196507	-2.991000	3.680700	-11.008000	24.630847	0.001022	20.758270
674.193403	-2.986600	3.680200	-10.991000	24.617348	0.001023	20.767959
675.194354	-2.986100	3.681700	-10.991000	24.607551	0.001023	20.744852
676.192534	-2.994600	3.680400	-11.020000	24.593776	0.001023	20.748100
677.197981	-2.996400	3.680000	-11.026000	24.585648	0.001021	20.739469
678.193388	-2.988400	3.680400	-10.998000	24.582911	0.001021	20.752845
679.195018	-3.023900	3.678200	-11.120000	24.597140	0.001019	20.752424
680.194500	-3.008900	3.678600	-11.068000	24.625648	0.001023	20.743570
681.195186	-3.000600	3.677700	-11.033000	24.620426	0.001021	20.748287
682.196540	-2.990300	3.679300	-11.001000	24.603220	0.001020	20.745247
683.194736	-2.995500	3.679200	-11.019000	24.600614	0.001022	20.741210
684.197216	-3.007800	3.677100	-11.058000	24.599147	0.001020	20.747799
685.194970	-3.007400	3.678200	-11.060000	24.585471	0.001019	20.747353
686.195706	-3.008600	3.677700	-11.064000	24.582163	0.001020	20.743085
687.196669	-3.023100	3.675000	-11.109000	24.572718	0.001022	20.758266
688.194777	-3.012900	3.676200	-11.076000	24.548720	0.001021	20.749833
689.195868	-2.974800	3.677300	-10.938000	24.528275	0.001021	20.749235
690.195919	-3.000600	3.677000	-11.033000	24.500022	0.001021	20.744596
691.194899	-2.994200	3.674800	-11.003000	24.523006	0.001020	20.759122
692.195070	-3.009500	3.676500	-11.062000	24.481270	0.001020	20.753283
693.197110	-2.977100	3.675800	-10.942000	24.482539	0.001022	20.764514
694.196714	-3.001700	3.673800	-11.026000	24.464058	0.001020	20.739808
695.197574	-2.988300	3.674200	-10.979000	24.472639	0.001020	20.753633
696.197132	-3.009100	3.673400	-11.052000	24.503309	0.001020	20.748368
697.198073	-3.005200	3.672300	-11.034000	24.529527	0.001017	20.729153
698.201777	-3.030200	3.672600	-11.127000	24.499384	0.001019	20.743481
699.198837	-3.015300	3.672800	-11.074000	24.531897	0.001017	20.735799
700.203324	-3.029700	3.671500	-11.122000	24.579549	0.001017	20.750420
701.199316	-2.993800	3.672300	-10.993000	24.613076	0.001020	20.742335
702.206178	-3.029700	3.671400	-11.122000	24.608505	0.001015	20.733007
703.202587	-3.010300	3.671300	-11.050000	24.603632	0.001018	20.746135
704.204223	-2.983700	3.672300	-10.957000	24.600550	0.001017	20.743042
705.201063	-3.009900	3.670700	-11.047000	24.615548	0.001017	20.736280
706.202508	-3.020000	3.669700	-11.081000	24.601502	0.001017	20.768180
707.204412	-2.998500	3.670100	-11.004000	24.642712	0.001016	20.756425
708.203136	-2.984700	3.670000	-10.951000	24.657635	0.001015	20.738683
709.206996	-3.004600	3.669900	-11.025000	24.656842	0.001016	20.731248
710.203344	-2.997900	3.669300	-10.999000	24.676367	0.001017	20.746099
711.209794	-2.997000	3.668900	-10.994000	24.704919	0.001017	20.732550
712.203356	-2.993900	3.668700	-10.982000	24.644535	0.001018	20.737391
713.203186	-2.983900	3.669200	-10.948000	24.641555	0.001014	20.747204
714.203167	-2.984300	3.669000	-10.948000	24.655833	0.001014	20.735452
715.204054	-2.989100	3.668100	-10.962000	24.636734	0.001014	20.718657
716.202717	-2.994700	3.667900	-10.982000	24.680803	0.001013	20.753870
717.203137	-3.006400	3.666900	-11.022000	24.713656	0.001014	20.754121
718.202678	-3.005500	3.666800	-11.020000	24.711844	0.001012	20.734758
719.202116	-3.007200	3.666100	-11.024000	24.740173	0.001013	20.751333
720.203966	-3.008800	3.666600	-11.031000	24.737613	0.001012	20.739755
721.202879	-3.007900	3.666100	-11.025000	24.727394	0.001011	20.739932
722.206429	-3.003200	3.666300	-11.010000	24.744728	0.001011	20.746422
723.205032	-2.977400	3.667100	-10.917000	24.746996	0.001010	20.728781
724.203839	-3.013900	3.663900	-11.040000	24.755151	0.001012	20.765891
725.205623	-2.994700	3.665100	-10.974000	24.774579	0.001010	20.735126
726.204770	-2.975800	3.665800	-10.908000	24.800890	0.001011	20.736874
727.208077	-2.990000	3.664400	-10.954000	24.797114	0.001010	20.762957
728.205569	-2.986500	3.665100	-10.945000	24.840488	0.001010	20.756701
729.205369	-3.031200	3.662200	-11.100000	24.848717	0.001011	20.744571
730.208425	-2.999000	3.663100	-10.983000	24.848178	0.001011	20.748297
731.208603	-2.968400	3.665100	-10.877000	24.812173	0.001011	20.736344
732.219668	-3.010700	3.663200	-11.028000	24.777788	0.001009	20.736924
733.213569	-3.012100	3.661700	-11.028000	24.778987	0.001008	20.742869
734.208975	-2.995700	3.663400	-10.972000	24.785327	0.001009	20.742119
735.208836	-2.995200	3.662700	-10.969000	24.778987	0.001011	20.760414
736.211798	-3.018000	3.661300	-11.049000	24.773124	0.001009	20.743623
737.209514	-2.993400	3.662100	-10.960000	24.785860	0.001009	20.756405
738.213015	-3.002400	3.661600	-10.993000	24.750797	0.001008	20.731648
739.211292	-3.029900	3.659600	-11.088000	24.731996	0.001008	20.734593
740.212125	-2.999000	3.659800	-10.974000	24.710590	0.001009	20.769536
741.213284	-3.007600	3.660400	-11.007000	24.739860	0.001011	20.743906
742.215488	-3.007700	3.659200	-11.005000	24.773360	0.001007	20.745283
743.218853	-2.987200	3.660600	-10.934000	24.779330	0.001007	20.756490
744.217156	-2.998900	3.660600	-10.977000	24.781791	0.001008	20.758486
745.216875	-2.999600	3.659200	-10.975000	24.780924	0.001009	20.737700
746.214362	-2.988500	3.660400	-10.938000	24.780776	0.001008	20.765053
747.218659	-3.013800	3.659700	-11.029000	24.803881	0.001008	20.777810
748.213249	-3.005300	3.658000	-10.993000	24.835035	0.001008	20.750280
749.212728	-2.998800	3.657500	-10.967000	24.838296	0.001008	20.747863
750.213137	-2.983700	3.657500	-10.912000	24.855054	0.001005	20.764208
751.213402	-2.992300	3.658700	-10.947000	24.852170	0.001007	20.769848
752.220181	-3.002100	3.657400	-10.979000	24.836036	0.001006	20.753656
753.216802	-2.960700	3.659100	-10.831000	24.871794	0.001004	20.767732
754.215776	-2.992000	3.657100	-10.940000	24.878030	0.001007	20.758818
755.215464	-3.004700	3.656800	-10.987000	24.859457	0.001005	20.761989
756.217694	-3.007900	3.656100	-10.995000	24.879525	0.001005	20.766483
757.219587	-2.999800	3.657200	-10.970000	24.884398	0.001004	20.769951
758.217257	-3.029700	3.656100	-11.076000	24.877410	0.001003	20.768153
759.217516	-3.014600	3.654900	-11.017000	24.864855	0.001001	20.758872
760.219519	-2.999100	3.655500	-10.962000	24.857342	0.001003	20.749434
761.219234	-2.995200	3.654300	-10.944000	24.861347	0.001002	20.752506
762.220572	-3.008200	3.654100	-10.991000	24.898246	0.001002	20.780057
763.218937	-3.000400	3.655400	-10.966000	24.926295	0.001000	20.781656
764.219332	-2.985500	3.653500	-10.906000	24.935792	0.001002	20.762739
765.219738	-2.994600	3.653300	-10.939000	24.913067	0.001003	20.753206
766.218547	-3.007300	3.652800	-10.984000	24.893000	0.001002	20.761515
767.224981	-3.007800	3.653700	-10.989000	24.898895	0.001003	20.772647
768.221121	-3.003300	3.652700	-10.969000	24.906030	0.001003	20.763213
769.219248	-2.996600	3.652400	-10.943000	24.913868	0.001001	20.787675
770.220284	-2.980500	3.653300	-10.886000	24.915782	0.001000	20.786278
771.221491	-3.005100	3.651200	-10.971000	24.942434	0.001000	20.774148
772.221443	-2.988900	3.652000	-10.914000	24.944997	0.001000	20.782884
773.224039	-2.984400	3.651500	-10.896000	24.945770	0.001001	20.772279
774.221997	-2.994100	3.651000	-10.930000	24.960167	0.000997	20.785308
775.223391	-2.971300	3.651300	-10.847000	24.950000	0.001000	20.789328
776.223970	-2.990900	3.649900	-10.915000	24.938490	0.001000	20.773033
777.227336	-3.005400	3.648000	-10.962000	24.955895	0.000997	20.780071
778.223566	-2.991300	3.650500	-10.917000	24.948911	0.000999	20.786338
779.225768	-3.011400	3.650100	-10.991000	24.961916	0.000997	20.798918
780.221350	-2.999100	3.649300	-10.943000	24.979197	0.000997	20.792555
781.223404	-3.021200	3.648400	-11.022000	24.969806	0.000996	20.757998
782.223185	-3.018400	3.648300	-11.011000	24.990439	0.000997	20.788193
783.223569	-2.988900	3.649900	-10.908000	24.973314	0.000995	20.773848
784.226740	-2.985900	3.649300	-10.895000	24.966905	0.000995	20.767415
785.223330	-2.984100	3.648500	-10.887000	24.972426	0.000998	20.784810
786.225708	-2.992300	3.648400	-10.916000	24.946670	0.000995	20.786459
787.223383	-3.017800	3.646600	-11.003000	24.933319	0.000994	20.797241
788.226106	-2.996000	3.647100	-10.925000	24.925447	0.000993	20.777960
789.227486	-2.992500	3.647300	-10.912000	24.932311	0.000995	20.785324
790.230382	-2.998900	3.647800	-10.938000	24.952875	0.000995	20.801223
791.225169	-3.014700	3.646300	-10.992000	24.982364	0.000993	20.775346
792.226305	-3.003900	3.646400	-10.952000	24.952829	0.000993	20.781736
793.225882	-3.007200	3.646900	-10.966000	24.928465	0.000991	20.801853
794.226195	-2.985100	3.646700	-10.885000	24.932992	0.000993	20.793120
795.233097	-2.984600	3.645100	-10.878000	24.912555	0.000991	20.790625
796.228083	-3.004000	3.644200	-10.945000	24.882821	0.000992	20.798714
797.228299	-3.001700	3.645600	-10.943000	24.906615	0.000992	20.789405
798.229975	-2.999100	3.642600	-10.923000	24.904503	0.000993	20.782544
799.230210	-2.992300	3.644800	-10.904000	24.912957	0.000992	20.789606
800.231474	-2.993800	3.643900	-10.908000	24.954113	0.000993	20.784448
801.231451	-3.004600	3.643000	-10.943000	24.929249	0.000991	20.794104
802.232391	-2.992400	3.643400	-10.901000	24.929249	0.000990	20.791259
803.230057	-3.004900	3.642300	-10.945000	24.935267	0.000992	20.814369
804.231227	-2.984900	3.643400	-10.874000	24.921895	0.000992	20.795258
805.232011	-3.003300	3.641500	-10.936000	24.923193	0.000990	20.793241
806.231805	-2.991600	3.641100	-10.892000	24.895070	0.000990	20.793464
807.230241	-2.987200	3.641400	-10.876000	24.891763	0.000989	20.792990
808.230081	-3.002200	3.640300	-10.927000	24.918768	0.000990	20.800654
809.230659	-2.984100	3.640800	-10.864000	24.939308	0.000989	20.797562
810.231074	-2.998100	3.639600	-10.910000	24.945917	0.000990	20.809412
811.233631	-3.006600	3.640100	-10.942000	24.975164	0.000989	20.814111
812.232512	-3.020100	3.637700	-10.985000	24.994134	0.000990	20.806599
813.233321	-2.996300	3.639300	-10.903000	25.017255	0.000989	20.803730
814.232297	-3.004400	3.638700	-10.930000	25.046916	0.000988	20.812165
815.232471	-3.005600	3.639000	-10.936000	25.039087	0.000989	20.801462
816.235642	-2.998700	3.639800	-10.913000	25.049507	0.000988	20.794378
817.233275	-3.009800	3.637900	-10.947000	25.015870	0.000987	20.803288
818.234771	-3.024600	3.637300	-11.000000	24.985264	0.000990	20.780627
819.235541	-3.028100	3.638000	-11.015000	24.982582	0.000987	20.796427
820.235895	-3.010900	3.637900	-10.952000	24.983724	0.000988	20.808953
821.240269	-2.985700	3.637900	-10.859000	24.985716	0.000987	20.801943
822.236499	-2.993100	3.636900	-10.885000	25.009384	0.000988	20.795355
823.238899	-2.991000	3.636400	-10.874000	25.017316	0.000986	20.807584
824.237794	-3.002300	3.637400	-10.918000	25.050427	0.000985	20.827069
825.238061	-2.989500	3.636600	-10.871000	25.059430	0.000987	20.824253
826.239315	-2.977700	3.635700	-10.825000	25.036905	0.000987	20.817764
827.238169	-2.985100	3.636600	-10.855000	25.045129	0.000985	20.796147
828.245599	-2.995100	3.635300	-10.886000	25.025712	0.000985	20.837348
829.238326	-2.991500	3.635900	-10.876000	25.014700	0.000984	20.822027
830.238283	-2.988500	3.634900	-10.862000	25.006662	0.000985	20.828183
831.244204	-2.991200	3.633000	-10.866000	25.033693	0.000985	20.818807
832.241313	-3.001600	3.634200	-10.907000	25.038840	0.000982	20.825870
833.241109	-2.996300	3.634600	-10.889000	25.077002	0.000983	20.806805
834.241035	-2.979400	3.635500	-10.830000	25.079089	0.000986	20.823598
835.240771	-3.030800	3.631900	-11.007000	25.091313	0.000982	20.819748
836.241700	-2.998800	3.635500	-10.902000	25.107154	0.000983	20.842762
837.244297	-3.010800	3.631400	-10.933000	25.140713	0.000982	20.812441
838.242861	-3.027300	3.632200	-10.994000	25.125024	0.000981	20.833675
839.247487	-2.994000	3.633000	-10.876000	25.137502	0.000982	20.822494
840.244157	-3.001600	3.631800	-10.901000	25.143470	0.000980	20.839389
841.244137	-3.003100	3.631300	-10.904000	25.155750	0.000979	20.852665
842.249129	-2.980900	3.631100	-10.823000	25.145930	0.000980	20.852290
843.244421	-2.981400	3.632900	-10.830000	25.151869	0.000981	20.838338
844.243933	-2.984600	3.631400	-10.838000	25.161192	0.000980	20.839163
845.243921	-2.982400	3.630600	-10.827000	25.178815	0.000980	20.813234
846.244243	-3.002800	3.630100	-10.899000	25.175608	0.000979	20.827557
847.243936	-2.983700	3.630300	-10.830000	25.179710	0.000978	20.828831
848.247027	-3.020400	3.629000	-10.961000	25.179115	0.000979	20.834397
849.243851	-3.015900	3.628100	-10.940000	25.141305	0.000977	20.821096
850.244369	-2.989500	3.630200	-10.852000	25.150304	0.000978	20.824914
851.243882	-3.010500	3.628800	-10.924000	25.151118	0.000976	20.821938
852.243583	-2.996200	3.629000	-10.872000	25.167311	0.000977	20.853840
853.252697	-3.021500	3.626900	-10.957000	25.183316	0.000978	20.833399
854.246036	-3.010600	3.628100	-10.922000	25.182519	0.000977	20.829280
855.246217	-2.977000	3.629200	-10.803000	25.186347	0.000978	20.850666
856.245694	-2.977400	3.628500	-10.802000	25.221469	0.000977	20.851313
857.246680	-3.004900	3.626100	-10.895000	25.218311	0.000974	20.847195
858.250264	-2.976700	3.627100	-10.795000	25.235387	0.000976	20.845847
859.249186	-2.984900	3.627000	-10.824000	25.232554	0.000976	20.829252
860.248250	-2.991900	3.625800	-10.847000	25.227161	0.000976	20.840433
861.250170	-3.013400	3.625000	-10.923000	25.228151	0.000976	20.863237
862.250154	-2.996100	3.625600	-10.862000	25.224472	0.000974	20.853854
863.249561	-3.004600	3.626200	-10.893000	25.177933	0.000974	20.841271
864.249380	-2.997400	3.624900	-10.864000	25.173682	0.000973	20.866400
865.249770	-2.993700	3.624900	-10.851000	25.152404	0.000973	20.853100
866.254231	-3.000800	3.625100	-10.877000	25.157074	0.000973	20.838348
867.250549	-3.023900	3.621800	-10.950000	25.167941	0.000971	20.848309
868.250849	-2.997200	3.623900	-10.860000	25.193885	0.000972	20.852544
869.255063	-3.002500	3.622400	-10.874000	25.161797	0.000971	20.845934
870.253269	-3.010000	3.623700	-10.906000	25.157419	0.000972	20.853393
871.252485	-2.995300	3.622100	-10.848000	25.168032	0.000974	20.864047
872.250525	-2.996000	3.623400	-10.854000	25.198583	0.000974	20.868165
873.250053	-3.000000	3.622500	-10.866000	25.231238	0.000971	20.859698
874.256601	-3.007500	3.621300	-10.889000	25.218268	0.000969	20.869435
875.255769	-2.990900	3.622600	-10.833000	25.233627	0.000970	20.872053
876.252076	-3.020500	3.621300	-10.937000	25.239217	0.000971	20.861071
877.252072	-3.014900	3.619700	-10.911000	25.236031	0.000971	20.873518
878.252040	-3.009100	3.620200	-10.892000	25.221965	0.000968	20.879310
879.252934	-2.968600	3.620500	-10.746000	25.186219	0.000969	20.868554
880.255463	-3.000600	3.620300	-10.862000	25.203422	0.000968	20.865911
881.254173	-2.972500	3.620700	-10.761000	25.197081	0.000964	20.848640
882.257394	-3.001000	3.619000	-10.859000	25.220918	0.000967	20.872570
883.254939	-2.970400	3.620800	-10.754000	25.229148	0.000966	20.886521
884.254297	-2.990000	3.618600	-10.819000	25.229870	0.000966	20.884876
885.255430	-2.980400	3.620400	-10.789000	25.216244	0.000967	20.869774
886.255883	-3.004400	3.619100	-10.871000	25.209587	0.000965	20.889642
887.256433	-2.997200	3.619500	-10.847000	25.198872	0.000964	20.876041
888.256372	-2.998900	3.617600	-10.848000	25.201907	0.000963	20.874820
889.254252	-3.009300	3.617200	-10.884000	25.267007	0.000963	20.888969
890.260423	-2.998100	3.618100	-10.846000	25.211504	0.000964	20.878291
891.257990	-3.015300	3.616900	-10.905000	25.220876	0.000964	20.876321
892.257617	-3.018300	3.616900	-10.916000	25.216403	0.000961	20.884632
893.257776	-3.018100	3.615500	-10.911000	25.222169	0.000960	20.876197
894.263602	-3.012300	3.616200	-10.892000	25.223960	0.000960	20.875149
895.258422	-3.012400	3.615800	-10.891000	25.247824	0.000960	20.903374
896.261807	-2.995400	3.615400	-10.828000	25.242305	0.000960	20.877920
897.258282	-3.005700	3.615800	-10.867000	25.231622	0.000958	20.893272
898.259485	-2.988300	3.615700	-10.804000	25.209725	0.000959	20.875083
899.259371	-3.021100	3.614200	-10.918000	25.192151	0.000957	20.893474
900.257801	-3.001400	3.614000	-10.846000	25.218205	0.000957	20.903983
901.262298	-2.987800	3.614000	-10.795000	25.212488	0.000957	20.893503
902.261632	-3.004900	3.614100	-10.859000	25.268199	0.000956	20.875943
903.262095	-3.014400	3.613800	-10.892000	25.277447	0.000956	20.879064
904.262816	-2.999600	3.611500	-10.832000	25.305955	0.000956	20.875918
905.263803	-3.009700	3.612400	-10.870000	25.295347	0.000956	20.894664
906.265043	-2.991300	3.613200	-10.807000	25.337180	0.000956	20.898733
907.263886	-2.999200	3.612300	-10.833000	25.333952	0.000956	20.881269
908.265458	-2.982600	3.613300	-10.775000	25.344957	0.000956	20.901800
909.266107	-3.000000	3.612400	-10.836000	25.376476	0.000955	20.905947
910.266339	-3.005700	3.610200	-10.850000	25.388758	0.000957	20.901210
911.267434	-3.004500	3.610200	-10.846000	25.387041	0.000956	20.893324
912.265717	-3.007400	3.610600	-10.857000	25.379338	0.000955	20.896968
913.267075	-2.987700	3.611300	-10.789000	25.363533	0.000952	20.902909
914.266073	-2.994100	3.610000	-10.806000	25.361747	0.000953	20.921502
915.265669	-3.009100	3.608200	-10.856000	25.346734	0.000954	20.893154
916.269098	-2.981400	3.610000	-10.761000	25.370567	0.000952	20.895747
917.269125	-2.979900	3.609700	-10.756000	25.389061	0.000951	20.885869
918.267997	-2.993300	3.609600	-10.804000	25.396821	0.000953	20.893186
919.268201	-2.991800	3.609700	-10.798000	25.395556	0.000950	20.918466
920.267717	-2.976300	3.610400	-10.744000	25.382408	0.000949	20.918541
921.267533	-3.001000	3.607300	-10.824000	25.379209	0.000949	20.914380
922.269114	-2.982100	3.609300	-10.762000	25.409381	0.000950	20.911960
923.267960	-3.004000	3.607200	-10.835000	25.436074	0.000949	20.889928
924.273964	-3.000200	3.606900	-10.820000	25.446515	0.000949	20.891878
925.268241	-2.992000	3.607500	-10.793000	25.455885	0.000947	20.907924
926.269866	-3.002300	3.606600	-10.826000	25.429323	0.000947	20.898796
927.273652	-2.985800	3.607400	-10.770000	25.445874	0.000948	20.915414
928.268365	-3.006000	3.605600	-10.837000	25.450653	0.000949	20.903619
929.269347	-3.004100	3.606300	-10.832000	25.469893	0.000947	20.905869
930.271223	-3.012500	3.604900	-10.859000	25.408008	0.000949	20.883083
931.271732	-2.992600	3.604700	-10.786000	25.428813	0.000948	20.907766
932.274660	-3.011000	3.604400	-10.852000	25.441221	0.000946	20.887984
933.275216	-2.992100	3.604100	-10.783000	25.477057	0.000945	20.922545
934.272461	-3.000100	3.604200	-10.811000	25.439829	0.000945	20.908396
935.272980	-2.991900	3.603400	-10.780000	25.431605	0.000945	20.893975
936.273128	-3.005300	3.601800	-10.823000	25.427975	0.000946	20.893649
937.273160	-3.006600	3.602800	-10.832000	25.445922	0.000942	20.879904
938.275260	-2.992200	3.604200	-10.784000	25.436031	0.000945	20.885144
939.272962	-3.000100	3.602000	-10.805000	25.445228	0.000945	20.893430
940.273550	-2.996100	3.602900	-10.793000	25.459196	0.000944	20.886595
941.274409	-3.004200	3.602800	-10.821000	25.457952	0.000943	20.893405
942.273407	-2.998300	3.601300	-10.797000	25.483721	0.000944	20.896522
943.274245	-2.986800	3.602800	-10.760000	25.485761	0.000943	20.877710
944.273781	-2.998900	3.600700	-10.796000	25.517692	0.000943	20.864732
945.276559	-3.002600	3.600900	-10.811000	25.523403	0.000943	20.891802
946.275287	-3.003600	3.600900	-10.815000	25.536151	0.000942	20.870467
947.277076	-2.986200	3.601100	-10.752000	25.538684	0.000942	20.878700
948.276347	-3.004500	3.599700	-10.814000	25.532821	0.000942	20.882295
949.273506	-2.987100	3.600500	-10.752000	25.499344	0.000941	20.881392
950.272888	-2.983500	3.600600	-10.741000	25.481948	0.000939	20.887156
951.273958	-2.993500	3.600200	-10.776000	25.458265	0.000941	20.864798
952.274035	-2.979900	3.599700	-10.724000	25.401475	0.000940	20.874153
953.275057	-3.008000	3.597300	-10.820000	25.390688	0.000940	20.873279
954.280445	-3.008300	3.597100	-10.821000	25.372543	0.000940	20.869284
955.275469	-2.997500	3.597900	-10.784000	25.402687	0.000938	20.884378
956.276596	-2.993800	3.598000	-10.770000	25.418220	0.000939	20.864415
957.276431	-2.981500	3.598400	-10.728000	25.453754	0.000937	20.882078
958.275433	-3.003300	3.597100	-10.802000	25.474402	0.000938	20.861089
959.279851	-2.994200	3.596600	-10.767000	25.493592	0.000935	20.886048
960.278780	-3.015200	3.596400	-10.842000	25.523113	0.000936	20.878710
961.279338	-3.028200	3.595000	-10.885000	25.498339	0.000937	20.868056
962.279658	-3.015700	3.594300	-10.838000	25.481090	0.000936	20.881554
963.278319	-2.996800	3.596100	-10.776000	25.471397	0.000933	20.867079
964.280526	-3.003300	3.596300	-10.799000	25.467447	0.000935	20.850786
965.281712	-3.021700	3.594000	-10.858000	25.462355	0.000934	20.871750
966.284281	-3.001200	3.594800	-10.788000	25.440286	0.000933	20.865710
967.282156	-3.006600	3.593400	-10.803000	25.443066	0.000933	20.859019
968.281590	-2.989100	3.593800	-10.741000	25.435560	0.000931	20.874715
969.291976	-3.015300	3.593600	-10.834000	25.429771	0.000931	20.862264
970.281782	-3.010600	3.592600	-10.813000	25.414985	0.000931	20.875865
971.281854	-2.993600	3.593500	-10.755000	25.390681	0.000929	20.883228
972.281960	-3.041100	3.590900	-10.919000	25.415831	0.000931	20.857275
973.281638	-2.993400	3.592600	-10.753000	25.444786	0.000930	20.868332
974.283316	-2.990900	3.592100	-10.742000	25.468617	0.000928	20.867133
975.285748	-2.977300	3.591300	-10.691000	25.494565	0.000926	20.859526
976.303908	-2.984400	3.591300	-10.716000	25.474808	0.000928	20.846324
977.283677	-2.978100	3.592300	-10.697000	25.489174	0.000927	20.866914
978.282861	-3.006200	3.589800	-10.790000	25.475781	0.000926	20.859628
979.284907	-3.007800	3.590900	-10.798000	25.496930	0.000928	20.860004
980.287841	-2.997200	3.589900	-10.757000	25.472176	0.000927	20.865491
981.284701	-3.002600	3.587500	-10.771000	25.503688	0.000927	20.861100
982.287791	-3.004200	3.587800	-10.776000	25.522381	0.000927	20.839096
983.287563	-2.981800	3.591100	-10.706000	25.544522	0.000925	20.841417
984.286948	-3.010400	3.588300	-10.800000	25.583139	0.000924	20.843689
985.289716	-3.010800	3.587500	-10.801000	25.550537	0.000925	20.867845
986.287269	-3.020700	3.588100	-10.838000	25.577691	0.000924	20.850072
987.286981	-2.974400	3.589900	-10.676000	25.589999	0.000924	20.851526
988.287916	-3.002400	3.587600	-10.770000	25.560328	0.000923	20.831213
989.288356	-3.018100	3.586600	-10.823000	25.547679	0.000921	20.859760
990.292833	-2.993100	3.587100	-10.736000	25.556728	0.000923	20.841821
991.290857	-3.014400	3.585400	-10.807000	25.549593	0.000923	20.860733
992.292446	-3.010800	3.585600	-10.795000	25.553990	0.000921	20.838123
993.292327	-3.025800	3.586100	-10.850000	25.560825	0.000921	20.835031
994.290950	-3.012100	3.586200	-10.800000	25.540774	0.000919	20.824851
995.291955	-2.999600	3.587300	-10.759000	25.543881	0.000920	20.827972
996.291350	-2.984600	3.585700	-10.700000	25.552228	0.000917	20.856268
997.292758	-3.005200	3.584700	-10.772000	25.564927	0.000920	20.853848
998.291913	-3.016000	3.584800	-10.810000	25.566445	0.000917	20.843520
999.293212	-3.010700	3.583400	-10.787000	25.568609	0.000919	20.821037
1000.293674	-3.017500	3.582700	-10.810000	25.543508	0.000918	20.815743
1001.292879	-2.990200	3.583800	-10.714000	25.512797	0.000917	20.826628
1002.296734	-2.987300	3.584400	-10.707000	25.496691	0.000917	20.844117
1003.294794	-2.987200	3.582900	-10.702000	25.485363	0.000914	20.834164
1004.293702	-2.998200	3.582600	-10.740000	25.486829	0.000915	20.831843
1005.298607	-2.993900	3.582700	-10.725000	25.516927	0.000915	20.837887
1006.298714	-3.009100	3.580500	-10.772000	25.509045	0.000915	20.849411
1007.294388	-2.993300	3.582600	-10.723000	25.521600	0.000915	20.846846
1008.296099	-3.014400	3.579200	-10.788000	25.545055	0.000915	20.834840
1009.295259	-2.986100	3.579000	-10.686000	25.543790	0.000913	20.835467
1010.295364	-3.008700	3.580600	-10.772000	25.513971	0.000910	20.822591
1011.304267	-2.995700	3.581000	-10.727000	25.541976	0.000913	20.827955
1012.295232	-3.006200	3.579600	-10.759000	25.511610	0.000911	20.832074
1013.296975	-3.003200	3.580200	-10.750000	25.511557	0.000910	20.844822
1014.295259	-3.012300	3.580100	-10.782000	25.514792	0.000908	20.822941
1015.296830	-2.988100	3.579900	-10.697000	25.502664	0.000908	20.844900
1016.302164	-3.010000	3.578300	-10.769000	25.485071	0.000909	20.828182
1017.299463	-3.022500	3.577100	-10.811000	25.473813	0.000907	20.826359
1018.297156	-2.988700	3.578200	-10.693000	25.467477	0.000908	20.823790
1019.296895	-3.026800	3.577600	-10.828000	25.479725	0.000906	20.855529
1020.296582	-3.013300	3.579200	-10.784000	25.496756	0.000909	20.829958
1021.297893	-3.001700	3.576900	-10.735000	25.505526	0.000906	20.817429
1022.297582	-3.031800	3.576400	-10.841000	25.482393	0.000907	20.802260
1023.297402	-3.007800	3.577200	-10.758000	25.499613	0.000904	20.827138
1024.296051	-3.005700	3.576100	-10.746000	25.500266	0.000903	20.815940
1025.295912	-3.024400	3.575700	-10.813000	25.532922	0.000905	20.807483
1026.296548	-2.994700	3.575800	-10.706000	25.557724	0.000904	20.825278
1027.298401	-2.996800	3.576000	-10.714000	25.561328	0.000902	20.823208
1028.298532	-2.957100	3.576800	-10.576000	25.599155	0.000902	20.805722
1029.299669	-2.996300	3.575100	-10.711000	25.609566	0.000902	20.836092
1030.302496	-3.000900	3.573900	-10.724000	25.617321	0.000903	20.829656
1031.300297	-3.032700	3.572600	-10.832000	25.638372	0.000901	20.805280
1032.302001	-3.012700	3.574600	-10.769000	25.650598	0.000901	20.814714
1033.299666	-3.000300	3.573500	-10.721000	25.604878	0.000903	20.825219
1034.304214	-2.989000	3.573500	-10.680000	25.562464	0.000899	20.827668
1035.300995	-2.998400	3.572400	-10.710000	25.537942	0.000900	20.821059
1036.301379	-2.999800	3.572600	-10.716000	25.562197	0.000900	20.812227
1037.302815	-2.995700	3.571900	-10.699000	25.582876	0.000898	20.818770
1038.304332	-3.000600	3.571800	-10.717000	25.606260	0.000900	20.811435
1039.301656	-2.986900	3.572900	-10.670000	25.601990	0.000898	20.804302
1040.303070	-3.003900	3.570900	-10.725000	25.603555	0.000897	20.824365
1041.302574	-2.999800	3.571400	-10.712000	25.588722	0.000897	20.795244
1042.307346	-3.005000	3.571200	-10.730000	25.554831	0.000897	20.804830
1043.306930	-3.009900	3.570800	-10.746000	25.507021	0.000897	20.823672
1044.302898	-2.998300	3.570600	-10.704000	25.508934	0.000895	20.823696
1045.303892	-3.008300	3.570400	-10.740000	25.502201	0.000896	20.810297
1046.304262	-3.019000	3.569800	-10.776000	25.490988	0.000895	20.806149
1047.304816	-3.019600	3.569000	-10.776000	25.526954	0.000897	20.803386
1048.308043	-2.998000	3.568000	-10.695000	25.566909	0.000895	20.816485
1049.306895	-3.015700	3.568500	-10.760000	25.594588	0.000894	20.794497
1050.307333	-2.986300	3.567900	-10.653000	25.591928	0.000892	20.795619
1051.306789	-2.980500	3.569400	-10.637000	25.593743	0.000893	20.816881
1052.306832	-2.979600	3.567100	-10.628000	25.602114	0.000892	20.812960
1053.308601	-2.991500	3.567700	-10.672000	25.613966	0.000892	20.812062
1054.307377	-2.994700	3.567200	-10.681000	25.610185	0.000890	20.799730
1055.307354	-2.993200	3.566900	-10.675000	25.609861	0.000890	20.808887
1056.306417	-2.999100	3.566200	-10.694000	25.642087	0.000891	20.792890
1057.306790	-2.992200	3.567100	-10.672000	25.598772	0.000890	20.797751
1058.308789	-2.995200	3.565700	-10.679000	25.647794	0.000891	20.809527
1059.306811	-3.000200	3.564400	-10.693000	25.650749	0.000888	20.809651
1060.307911	-2.985600	3.565200	-10.643000	25.680865	0.000888	20.806232
1061.307069	-3.018700	3.563800	-10.757000	25.696809	0.000888	20.805652
1062.310691	-2.994400	3.564800	-10.671000	25.718693	0.000887	20.793967
1063.307333	-3.004700	3.563200	-10.704000	25.726792	0.000888	20.803524
1064.306149	-3.005900	3.564200	-10.711000	25.714543	0.000889	20.786954
1065.306569	-2.987700	3.563700	-10.645000	25.746614	0.000887	20.814426
1066.307058	-2.982700	3.563400	-10.626000	25.746060	0.000885	20.809602
1067.307645	-2.980500	3.562700	-10.618000	25.721711	0.000885	20.803637
1068.308766	-3.014400	3.561600	-10.735000	25.666552	0.000885	20.804185
1069.308742	-3.002600	3.562700	-10.696000	25.714178	0.000885	20.795123
1070.309206	-2.980900	3.561800	-10.616000	25.709257	0.000884	20.802507
1071.311634	-3.002800	3.561900	-10.694000	25.725282	0.000882	20.790629
1072.309935	-2.994000	3.560700	-10.660000	25.743143	0.000883	20.774429
1073.309643	-2.973800	3.562000	-10.591000	25.770990	0.000883	20.800030
1074.313885	-2.983200	3.560400	-10.620000	25.742864	0.000882	20.786951
1075.309520	-2.986400	3.560000	-10.631000	25.751312	0.000881	20.811558
1076.309615	-3.012400	3.558900	-10.720000	25.700124	0.000881	20.790964
1077.310033	-2.988200	3.558700	-10.633000	25.684373	0.000880	20.798377
1078.310129	-2.997300	3.558900	-10.665000	25.695851	0.000879	20.792361
1079.312754	-3.002700	3.559000	-10.686000	25.705387	0.000880	20.789612
1080.312255	-2.987200	3.559700	-10.633000	25.711023	0.000879	20.786738
1081.311279	-2.986000	3.559400	-10.627000	25.719862	0.000878	20.781865
1082.312364	-2.978000	3.559200	-10.598000	25.719066	0.000878	20.775375
1083.312401	-2.987900	3.557500	-10.628000	25.748999	0.000877	20.788846
1084.313486	-3.004400	3.555800	-10.681000	25.774863	0.000875	20.799653
1085.316350	-3.003600	3.556400	-10.681000	25.784472	0.000876	20.792710
1086.313004	-3.005600	3.555300	-10.685000	25.777962	0.000872	20.798499
1087.314778	-3.012900	3.554900	-10.710000	25.774034	0.000873	20.798820
1088.314848	-2.988300	3.557200	-10.629000	25.770853	0.000871	20.792780
1089.313830	-3.000600	3.555200	-10.667000	25.737908	0.000872	20.788612
1090.316894	-3.018400	3.555700	-10.732000	25.752764	0.000873	20.787412
1091.314348	-3.011100	3.554300	-10.701000	25.769954	0.000872	20.795671
1092.313590	-2.992700	3.555400	-10.638000	25.778648	0.000871	20.785437
1093.313454	-2.996400	3.554300	-10.648000	25.748737	0.000869	20.795696
1094.314348	-2.971900	3.556100	-10.568000	25.688263	0.000871	20.799913
1095.319224	-2.996600	3.553900	-10.648000	25.673826	0.000868	20.791577
1096.314863	-2.979200	3.553500	-10.586000	25.636330	0.000868	20.798961
1097.313875	-2.990500	3.553000	-10.624000	25.652332	0.000868	20.773781
1098.315835	-3.008400	3.551400	-10.683000	25.679516	0.000868	20.773109
1099.320015	-3.012000	3.551300	-10.696000	25.669130	0.000865	20.791601
1100.315397	-3.007700	3.551000	-10.679000	25.649524	0.000865	20.781867
1101.317412	-2.990900	3.551700	-10.622000	25.610910	0.000864	20.790501
1102.316332	-3.014300	3.550600	-10.701000	25.624182	0.000866	20.791502
1103.318479	-3.018300	3.550000	-10.714000	25.629622	0.000865	20.765197
1104.316592	-3.018700	3.549600	-10.714000	25.585916	0.000865	20.772985
1105.316127	-2.986100	3.549400	-10.598000	25.582238	0.000863	20.783990
1106.318661	-2.991900	3.550400	-10.623000	25.567426	0.000862	20.782865
1107.316393	-2.991800	3.549400	-10.617000	25.556841	0.000864	20.780770
1108.321236	-3.000400	3.548200	-10.645000	25.571379	0.000862	20.779249
1109.317574	-2.984100	3.549000	-10.589000	25.612031	0.000863	20.772186
1110.317423	-2.980700	3.549700	-10.580000	25.627163	0.000861	20.782642
1111.322687	-3.002200	3.548800	-10.653000	25.675538	0.000860	20.776701
1112.316594	-2.983200	3.548600	-10.585000	25.704881	0.000859	20.763024
1113.317678	-3.001100	3.545800	-10.640000	25.704877	0.000860	20.779142
1114.316977	-2.974500	3.547100	-10.549000	25.738344	0.000860	20.758703
1115.319392	-2.986800	3.546800	-10.592000	25.749945	0.000859	20.768933
1116.318993	-3.012600	3.546200	-10.681000	25.792773	0.000858	20.792514
1117.323810	-3.009500	3.545500	-10.668000	25.766737	0.000857	20.757826
1118.318324	-3.007600	3.545100	-10.660000	25.739084	0.000857	20.787422
1119.319467	-2.988000	3.545900	-10.594000	25.750684	0.000856	20.791961
1120.318168	-2.974300	3.546200	-10.546000	25.765638	0.000854	20.779955
1121.318916	-2.988700	3.544500	-10.593000	25.800766	0.000854	20.756919
1122.321209	-2.980400	3.545200	-10.564000	25.758233	0.000854	20.758292
1123.319272	-2.992600	3.543500	-10.603000	25.781757	0.000854	20.781448
1124.320829	-2.998200	3.542700	-10.620000	25.795500	0.000854	20.787191
1125.318641	-2.982500	3.543500	-10.567000	25.793337	0.000853	20.783122
1126.318157	-2.999400	3.542600	-10.624000	25.784470	0.000854	20.758568
1127.323149	-3.009500	3.542700	-10.661000	25.823472	0.000850	20.763133
1128.323416	-3.001300	3.542200	-10.630000	25.775424	0.000851	20.770344
1129.321753	-3.004400	3.541100	-10.638000	25.734557	0.000851	20.760589
1130.322352	-3.007200	3.540600	-10.647000	25.702058	0.000851	20.774888
1131.323120	-2.997700	3.542300	-10.618000	25.705510	0.000851	20.783571
1132.326964	-2.993900	3.541200	-10.601000	25.706159	0.000849	20.758618
1133.325288	-3.004500	3.541600	-10.640000	25.715107	0.000850	20.762390
1134.324410	-3.022500	3.540000	-10.699000	25.749761	0.000849	20.772542
1135.328298	-2.990800	3.540500	-10.587000	25.786239	0.000849	20.780260
1136.324969	-3.005000	3.539600	-10.636000	25.821813	0.000848	20.758622
1137.324943	-2.984200	3.539700	-10.562000	25.816674	0.000847	20.759623
1138.325098	-2.979500	3.541300	-10.549000	25.813789	0.000846	20.773795
1139.325981	-3.001200	3.538200	-10.617000	25.834562	0.000846	20.751513
1140.326089	-3.001700	3.538300	-10.619000	25.856676	0.000845	20.769935
1141.326517	-3.014200	3.538200	-10.662000	25.850441	0.000845	20.757508
1142.327258	-2.998100	3.536700	-10.602000	25.879012	0.000843	20.764871
1143.327096	-2.991200	3.537000	-10.579000	25.897201	0.000843	20.773187
1144.330357	-2.994700	3.538000	-10.594000	25.914242	0.000842	20.765176
1145.326602	-2.980400	3.536300	-10.539000	25.890770	0.000842	20.764355
1146.326317	-2.986400	3.536800	-10.562000	25.868135	0.000843	20.777653
1147.327612	-2.991500	3.536000	-10.577000	25.817937	0.000842	20.751408
1148.327221	-3.000000	3.535200	-10.604000	25.756548	0.000840	20.746642
1149.332934	-3.008800	3.535600	-10.637000	25.735753	0.000840	20.771748
1150.337953	-2.999200	3.535200	-10.601000	25.701518	0.000839	20.775768
1151.331953	-2.994800	3.534300	-10.583000	25.713171	0.000837	20.773248
1152.329547	-3.005500	3.534500	-10.622000	25.726069	0.000838	20.751589
1153.333243	-3.003000	3.533500	-10.610000	25.748978	0.000836	20.748047
1154.331721	-2.999400	3.532800	-10.596000	25.749372	0.000835	20.745124
1155.330530	-2.982400	3.534200	-10.539000	25.738670	0.000836	20.737219
1156.330448	-3.008600	3.532300	-10.626000	25.786224	0.000838	20.748001
1157.331530	-2.997200	3.532800	-10.587000	25.815366	0.000837	20.756413
1158.332361	-2.999400	3.532000	-10.593000	25.811418	0.000837	20.753868
1159.334435	-3.011800	3.531900	-10.635000	25.827988	0.000834	20.759134
1160.334114	-2.984200	3.531900	-10.539000	25.846819	0.000835	20.768093
1161.332757	-3.012500	3.529700	-10.631000	25.882522	0.000836	20.746112
1162.335585	-2.973500	3.531100	-10.498000	25.882050	0.000832	20.770295
1163.333290	-2.996700	3.529700	-10.577000	25.881652	0.000835	20.769421
1164.334579	-3.015100	3.529200	-10.640000	25.900134	0.000834	20.778030
1165.336992	-2.986500	3.531100	-10.545000	25.877872	0.000834	20.775581
1166.334692	-2.987700	3.530000	-10.545000	25.866594	0.000832	20.776105
1167.334337	-3.002200	3.529400	-10.595000	25.880852	0.000830	20.749650
1168.334703	-2.985900	3.531300	-10.542000	25.912652	0.000832	20.774958
1169.334289	-3.018200	3.527800	-10.645000	25.903212	0.000832	20.762156
1170.336728	-3.004400	3.528700	-10.600000	25.885724	0.000831	20.748380
1171.334953	-2.999000	3.526900	-10.576000	25.892627	0.000831	20.768592
1172.335984	-3.010700	3.526700	-10.617000	25.911556	0.000829	20.767219
1173.334942	-2.992700	3.527100	-10.554000	25.900429	0.000828	20.753196
1174.334911	-3.000000	3.527000	-10.580000	25.895685	0.000829	20.759810
1175.336234	-2.998600	3.526100	-10.573000	25.915627	0.000828	20.757559
1176.334732	-3.007000	3.525200	-10.599000	25.874367	0.000829	20.765896
1177.334097	-2.995300	3.525600	-10.559000	25.862219	0.000826	20.764123
1178.334005	-3.011400	3.524300	-10.612000	25.841253	0.000827	20.767244
1179.334206	-3.013200	3.524700	-10.619000	25.861151	0.000826	20.771586
1180.335699	-3.006200	3.523500	-10.591000	25.834374	0.000827	20.768868
1181.336249	-3.001600	3.524000	-10.576000	25.810892	0.000826	20.772782
1182.335115	-3.021400	3.524400	-10.646000	25.767814	0.000826	20.762226
1183.336898	-3.016800	3.523200	-10.628000	25.759662	0.000824	20.769685
1184.335313	-2.988500	3.523700	-10.528000	25.720633	0.000825	20.772683
1185.337044	-3.002100	3.522700	-10.574000	25.709325	0.000823	20.760850
1186.340497	-3.004100	3.522700	-10.581000	25.734992	0.000821	20.747276
1187.337529	-2.989700	3.521800	-10.528000	25.755094	0.000821	20.777424
1188.338898	-2.992600	3.522400	-10.540000	25.796157	0.000821	20.755609
1189.336274	-2.988800	3.522100	-10.524000	25.833225	0.000822	20.775301
1190.340319	-2.987100	3.522100	-10.520000	25.861345	0.000821	20.767038
1191.336889	-2.989100	3.521500	-10.525000	25.891031	0.000821	20.777895
1192.340127	-3.021200	3.519200	-10.631000	25.901390	0.000821	20.786879
1193.336752	-3.026300	3.519000	-10.648000	25.923298	0.000819	20.785655
1194.337760	-3.030400	3.517800	-10.660000	25.935147	0.000818	20.785704
1195.337594	-3.038600	3.517600	-10.687000	25.919970	0.000819	20.764767
1196.338202	-2.997300	3.518700	-10.544000	25.884222	0.000819	20.787176
1197.341796	-2.986800	3.519900	-10.512000	25.897783	0.000817	20.764289
1198.337433	-3.007700	3.518200	-10.581000	25.910182	0.000816	20.785754
1199.339260	-3.002200	3.517600	-10.560000	25.894877	0.000817	20.775594
1200.340045	-2.991400	3.517200	-10.519000	25.905852	0.000816	20.770973
1201.339009	-2.974000	3.518100	-10.462000	25.914598	0.000816	20.775017
1202.340972	-2.973600	3.517300	-10.458000	25.913876	0.000815	20.769550
1203.339270	-2.993700	3.516200	-10.525000	25.899667	0.000816	20.769975
1204.339036	-3.004300	3.514900	-10.558000	25.900759	0.000816	20.771072
1205.339712	-2.998300	3.515200	-10.539000	25.876413	0.000815	20.781227
1206.340332	-3.008900	3.513800	-10.572000	25.894496	0.000812	20.778531
1207.340099	-2.991700	3.515300	-10.514000	25.838702	0.000814	20.781277
1208.343462	-3.017400	3.513200	-10.600000	25.825453	0.000813	20.786934
1209.339952	-3.015700	3.512600	-10.591000	25.787395	0.000811	20.790905
1210.340773	-3.028000	3.513400	-10.637000	25.819764	0.000814	20.766995
1211.341561	-3.000200	3.514100	-10.542000	25.819194	0.000811	20.782543
1212.340913	-2.999600	3.513400	-10.537000	25.857665	0.000809	20.757178
1213.348425	-2.999200	3.511600	-10.531000	25.877366	0.000809	20.774598
1214.340592	-3.019800	3.511500	-10.603000	25.912708	0.000808	20.780231
1215.341797	-2.987400	3.513400	-10.495000	25.946317	0.000807	20.774640
1216.341303	-2.998300	3.511500	-10.528000	25.951583	0.000808	20.781353
1217.344434	-2.991000	3.513200	-10.507000	25.991297	0.000807	20.792803
1218.342713	-3.011600	3.510600	-10.571000	25.984985	0.000807	20.779350
1219.346158	-2.977700	3.512500	-10.458000	25.947472	0.000805	20.795241
1220.343094	-3.006300	3.510800	-10.554000	25.939695	0.000807	20.798333
1221.342764	-2.990100	3.508800	-10.490000	25.928216	0.000806	20.797233
1222.346645	-3.019000	3.509500	-10.594000	25.905906	0.000804	20.781932
1223.345602	-2.991700	3.509000	-10.496000	25.922146	0.000803	20.785920
1224.349653	-2.978800	3.510400	-10.456000	25.919910	0.000803	20.784147
1225.345746	-3.001100	3.508200	-10.527000	25.954807	0.000803	20.803085
1226.346341	-3.013900	3.507600	-10.571000	25.947051	0.000803	20.795767
1227.345541	-2.999400	3.507800	-10.520000	25.969180	0.000802	20.811360
1228.345366	-2.997300	3.509000	-10.516000	26.010634	0.000800	20.804170
1229.343330	-3.001800	3.507600	-10.529000	25.994137	0.000801	20.784751
1230.344598	-3.000100	3.506600	-10.520000	25.993341	0.000800	20.802917
1231.345798	-2.999400	3.504900	-10.510000	25.982679	0.000799	20.804060
1232.345314	-2.982100	3.507400	-10.458000	25.983176	0.000798	20.803611
1233.344449	-2.979900	3.506500	-10.449000	25.981880	0.000799	20.819378
1234.344521	-2.976500	3.504900	-10.431000	25.953161	0.000799	20.814707
1235.346810	-2.995900	3.504500	-10.499000	25.967968	0.000797	20.812513
1236.346452	-2.994500	3.503700	-10.491000	25.950973	0.000797	20.813458
1237.346557	-3.008700	3.502700	-10.538000	25.957975	0.000795	20.805793
1238.344957	-2.981000	3.504000	-10.445000	25.933405	0.000797	20.815722
1239.346555	-3.007800	3.502500	-10.534000	25.918199	0.000795	20.807085
1240.350525	-2.992300	3.501900	-10.476000	25.938864	0.000796	20.815991
1241.348005	-3.002300	3.503000	-10.516000	25.980442	0.000794	20.790432
1242.351449	-3.003600	3.502100	-10.518000	25.968890	0.000794	20.814387
1243.348281	-2.977200	3.502800	-10.427000	25.989381	0.000793	20.831181
1244.347682	-3.015300	3.499800	-10.552000	26.021888	0.000792	20.802675
1245.350289	-3.011100	3.501400	-10.542000	26.050330	0.000790	20.811811
1246.350452	-2.987800	3.501000	-10.459000	26.048414	0.000791	20.819843
1247.347909	-2.982800	3.500200	-10.439000	26.066671	0.000790	20.828229
1248.348703	-3.008300	3.500400	-10.529000	26.067685	0.000789	20.816446
1249.349000	-2.981700	3.500300	-10.436000	26.057328	0.000789	20.815997
1250.349413	-3.003200	3.499700	-10.509000	26.042596	0.000789	20.818739
1251.352012	-2.981600	3.499700	-10.433000	26.060677	0.000787	20.819362
1252.348182	-2.995600	3.497800	-10.475000	26.069073	0.000787	20.819263
1253.352503	-2.997800	3.497700	-10.484000	26.085044	0.000786	20.823930
1254.348119	-2.993000	3.497700	-10.467000	26.062343	0.000785	20.829096
1255.349001	-2.992000	3.498200	-10.465000	26.064230	0.000785	20.821036
1256.349606	-2.973300	3.498200	-10.400000	26.063086	0.000786	20.819411
1257.348128	-2.995800	3.496200	-10.473000	26.037007	0.000784	20.822132
1258.349090	-3.016800	3.494800	-10.542000	25.973989	0.000782	20.826148
1259.349394	-3.018900	3.495800	-10.552000	25.945950	0.000782	20.821213
1260.349135	-2.994100	3.495500	-10.465000	25.918523	0.000783	20.847711
1261.350347	-2.992500	3.496300	-10.462000	25.901510	0.000783	20.817345
1262.353155	-3.021400	3.494100	-10.556000	25.920192	0.000780	20.840380
1263.351638	-3.025000	3.492100	-10.561000	25.909390	0.000782	20.822416
1264.351427	-2.999700	3.493800	-10.479000	25.898185	0.000781	20.823488
1265.351819	-3.003200	3.492700	-10.488000	25.928667	0.000781	20.834195
1266.352905	-2.977500	3.492500	-10.398000	25.966973	0.000780	20.822894
1267.356002	-3.012800	3.492500	-10.521000	25.974225	0.000778	20.835869
1268.353612	-2.995500	3.491900	-10.459000	26.012157	0.000778	20.825615
1269.355141	-2.989100	3.491200	-10.435000	25.964769	0.000779	20.832058
1270.354242	-2.992400	3.493000	-10.452000	25.905322	0.000777	20.837769
1271.355114	-3.018600	3.489100	-10.531000	25.862304	0.000776	20.852874
1272.355732	-2.994300	3.490600	-10.451000	25.827421	0.000775	20.835377
1273.355529	-2.999200	3.489500	-10.465000	25.810826	0.000778	20.837674
1274.356470	-3.002800	3.489400	-10.477000	25.764591	0.000775	20.864250
1275.357008	-2.972100	3.490600	-10.372000	25.800199	0.000775	20.827947
1276.357322	-2.983400	3.488800	-10.407000	25.822031	0.000773	20.824748
1277.355091	-2.996300	3.488000	-10.449000	25.849757	0.000775	20.825572
1278.357132	-2.979000	3.487700	-10.389000	25.873107	0.000775	20.847606
1279.361010	-3.023500	3.486600	-10.541000	25.872881	0.000774	20.821302
1280.357971	-2.995600	3.488000	-10.448000	25.873382	0.000774	20.845511
1281.358615	-3.010300	3.486400	-10.494000	25.888633	0.000774	20.834754
1282.361046	-3.006400	3.486900	-10.481000	25.911736	0.000775	20.839471
1283.361993	-2.988200	3.485000	-10.412000	25.938786	0.000773	20.837249
1284.358292	-2.997000	3.487100	-10.449000	25.931182	0.000769	20.839566
1285.357557	-3.015700	3.483900	-10.505000	25.936698	0.000772	20.840366
1286.358452	-2.997700	3.485200	-10.446000	25.942111	0.000769	20.853391
1287.357221	-3.025700	3.483700	-10.540000	25.925321	0.000768	20.833205
1288.360887	-2.987600	3.484600	-10.409000	25.943154	0.000771	20.847800
1289.358768	-2.998100	3.484200	-10.445000	25.937391	0.000770	20.846753
1290.360694	-2.981100	3.485500	-10.389000	25.941072	0.000768	20.844761
1291.360335	-2.988000	3.484300	-10.409000	25.884829	0.000768	20.828562
1292.359172	-3.007600	3.482600	-10.472000	25.906889	0.000768	20.839818
1293.363556	-2.998800	3.482400	-10.441000	25.933242	0.000766	20.852067
1294.361568	-2.997700	3.483100	-10.441000	25.954407	0.000766	20.840140
1295.364422	-2.995000	3.481400	-10.426000	25.991223	0.000768	20.851048
1296.362406	-2.987000	3.480600	-10.395000	26.006969	0.000765	20.832256
1297.362341	-2.991500	3.482100	-10.416000	26.031066	0.000765	20.850776
1298.366463	-2.997100	3.480900	-10.432000	26.062533	0.000765	20.858684
1299.363873	-3.007000	3.479900	-10.463000	26.064794	0.000764	20.848154
1300.363548	-3.008500	3.479000	-10.465000	26.068968	0.000762	20.859459
1301.364706	-3.010800	3.479900	-10.476000	26.112502	0.000763	20.854838
1302.364596	-3.002000	3.478900	-10.443000	26.119433	0.000763	20.846155
1303.364898	-2.988200	3.478800	-10.393000	26.143129	0.000761	20.848154
1304.367864	-2.998000	3.478000	-10.426000	26.109174	0.000760	20.861451
1305.366851	-3.024600	3.477100	-10.516000	26.082058	0.000760	20.858387
1306.367914	-3.017100	3.476400	-10.488000	26.047576	0.000760	20.843657
1307.366455	-2.999400	3.477000	-10.428000	26.012456	0.000760	20.859105
1308.367944	-3.036300	3.476100	-10.553000	25.974003	0.000758	20.858404
1309.370242	-2.989400	3.476700	-10.391000	25.997699	0.000758	20.871779
1310.368686	-3.003100	3.477000	-10.440000	26.005899	0.000762	20.868637
1311.369895	-2.986400	3.476000	-10.380000	25.985105	0.000757	20.862445
1312.368176	-2.994000	3.475700	-10.404000	25.960609	0.000759	20.873396
1313.369117	-3.007400	3.475700	-10.452000	25.971841	0.000756	20.858602
1314.369745	-2.976400	3.474700	-10.341000	25.980632	0.000756	20.880235
1315.369102	-2.986400	3.474200	-10.375000	26.027054	0.000758	20.869504
1316.368293	-2.990200	3.473900	-10.387000	26.047499	0.000756	20.876768
1317.370495	-3.024500	3.473900	-10.505000	26.052366	0.000755	20.875020
1318.370266	-2.997400	3.472900	-10.408000	26.045759	0.000755	20.841357
1319.369825	-2.990700	3.473300	-10.386000	26.007557	0.000755	20.859398
1320.375143	-3.009700	3.471400	-10.447000	26.019553	0.000754	20.868605
1321.370559	-2.990900	3.472000	-10.384000	25.977899	0.000754	20.877489
1322.373967	-2.992100	3.471300	-10.385000	25.978473	0.000752	20.877592
1323.370883	-2.985200	3.472400	-10.365000	25.972760	0.000753	20.863793
1324.371521	-3.016900	3.470600	-10.469000	25.969699	0.000752	20.880157
1325.374045	-2.991100	3.467500	-10.369000	25.980575	0.000752	20.890135
1326.373973	-3.013200	3.468900	-10.452000	25.969794	0.000751	20.875511
1327.382798	-3.011500	3.467800	-10.442000	25.974095	0.000754	20.882676
1328.374733	-3.009100	3.468600	-10.436000	25.969171	0.000749	20.873937
1329.374593	-2.986500	3.470000	-10.362000	25.998854	0.000748	20.872939
1330.375201	-2.999100	3.467300	-10.398000	26.011991	0.000748	20.885188
1331.378055	-3.003400	3.468300	-10.415000	26.026744	0.000750	20.866347
1332.374520	-2.988100	3.466900	-10.359000	26.049590	0.000750	20.889773
1333.374951	-2.989100	3.466500	-10.360000	26.052397	0.000749	20.873629
1334.375018	-2.987900	3.466100	-10.355000	26.063395	0.000748	20.882308
1335.376525	-3.007900	3.466500	-10.426000	26.019158	0.000747	20.888121
1336.379260	-3.006400	3.466700	-10.421000	26.053136	0.000747	20.890017
1337.376033	-3.006400	3.464900	-10.415000	26.069128	0.000746	20.878111
1338.376729	-2.999300	3.464900	-10.391000	26.052583	0.000747	20.887565
1339.376437	-3.014300	3.465200	-10.444000	26.061349	0.000746	20.881200
1340.379682	-3.022700	3.463400	-10.468000	26.090040	0.000745	20.889165
1341.376825	-3.014900	3.461500	-10.434000	26.094329	0.000744	20.888259
1342.375104	-3.019100	3.463800	-10.456000	26.083476	0.000745	20.905801
1343.376576	-2.995800	3.463700	-10.376000	26.106049	0.000743	20.876802
1344.376097	-3.010100	3.461100	-10.417000	26.060644	0.000743	20.888552
1345.380414	-3.000000	3.461300	-10.383000	26.017347	0.000745	20.891517
1346.376579	-3.006100	3.462500	-10.406000	25.994370	0.000742	20.875546
1347.378539	-3.004400	3.461300	-10.398000	25.977827	0.000741	20.892115
1348.377431	-3.013500	3.460600	-10.427000	26.032892	0.000740	20.905712
1349.378811	-2.993600	3.460600	-10.359000	26.041803	0.000740	20.893329
1350.377173	-2.965900	3.462300	-10.268000	26.034946	0.000740	20.895448
1351.376328	-3.023200	3.458000	-10.453000	26.030099	0.000739	20.886312
1352.381410	-3.008600	3.458400	-10.404000	26.064296	0.000739	20.906918
1353.377813	-3.007300	3.458100	-10.398000	26.087617	0.000736	20.907591
1354.380474	-3.001900	3.458600	-10.381000	26.065109	0.000738	20.920062
1355.379669	-2.983300	3.458400	-10.316000	26.030983	0.000738	20.900475
1356.379279	-3.003700	3.456900	-10.383000	26.027254	0.000738	20.907159
1357.378257	-3.003900	3.458700	-10.389000	26.053879	0.000737	20.912098
1358.380810	-3.000700	3.456600	-10.371000	26.068230	0.000736	20.887639
1359.378685	-2.959800	3.457200	-10.232000	26.063856	0.000737	20.915484
1360.378966	-2.995500	3.455300	-10.349000	26.090106	0.000736	20.899662
1361.379688	-3.002400	3.455700	-10.374000	26.038714	0.000738	20.910612
1362.379735	-2.986900	3.455100	-10.320000	26.084387	0.000734	20.913354
1363.382367	-3.013200	3.456300	-10.413000	26.067296	0.000733	20.921785
1364.383792	-3.003900	3.455500	-10.379000	26.141602	0.000734	20.904937
1365.380708	-2.994400	3.454500	-10.343000	26.154044	0.000733	20.917437
1366.380188	-3.016000	3.454100	-10.416000	26.161266	0.000734	20.895299
1367.378886	-3.013800	3.452700	-10.403000	26.172316	0.000732	20.900712
1368.383783	-3.017700	3.453600	-10.420000	26.175218	0.000731	20.912636
1369.380986	-3.014900	3.452300	-10.406000	26.143226	0.000730	20.933118
1370.382260	-2.983600	3.451800	-10.298000	26.133264	0.000730	20.911730
1371.382212	-2.976400	3.451800	-10.273000	26.133683	0.000731	20.902195
1372.384669	-2.987500	3.452700	-10.314000	26.131816	0.000729	20.903165
1373.387108	-2.991100	3.451400	-10.322000	26.125953	0.000729	20.915290
1374.384765	-3.009300	3.450100	-10.381000	26.141592	0.000729	20.912038
1375.384147	-3.003300	3.451700	-10.365000	26.139754	0.000727	20.898339
1376.387943	-3.005500	3.450700	-10.370000	26.084264	0.000727	20.908490
1377.385394	-3.017100	3.449200	-10.404000	26.087318	0.000728	20.909661
1378.386125	-2.984500	3.449000	-10.292000	26.039028	0.000726	20.902394
1379.389120	-3.000900	3.448700	-10.348000	26.022433	0.000724	20.892360
1380.386861	-3.021500	3.448800	-10.418000	26.045902	0.000726	20.902189
1381.387639	-2.979900	3.448900	-10.276000	26.061250	0.000725	20.896273
1382.388070	-3.022000	3.447600	-10.417000	26.101186	0.000724	20.894674
1383.387479	-3.033600	3.447100	-10.454000	26.075823	0.000723	20.895742
1384.391505	-2.956700	3.447200	-10.191000	26.034640	0.000723	20.906045
1385.390060	-2.998700	3.445900	-10.332000	26.035115	0.000723	20.894670
1386.391322	-2.997500	3.444700	-10.324000	26.037267	0.000722	20.888298
1387.391679	-2.991100	3.445000	-10.303000	26.058557	0.000721	20.891196
1388.391185	-3.007700	3.445000	-10.361000	26.078919	0.000721	20.914972
1389.393077	-3.014600	3.443300	-10.379000	26.101025	0.000723	20.887400
1390.393005	-3.009100	3.443600	-10.361000	26.098440	0.000718	20.903293
1391.391687	-3.003400	3.444200	-10.343000	26.117066	0.000719	20.898775
1392.392791	-3.013800	3.442100	-10.373000	26.121760	0.000717	20.890216
1393.392072	-3.017100	3.442400	-10.384000	26.135885	0.000717	20.889710
1394.392642	-3.028700	3.440300	-10.417000	26.167849	0.000718	20.908077
1395.392429	-3.028500	3.439700	-10.416000	26.149446	0.000718	20.908551
1396.391961	-3.014700	3.441500	-10.374000	26.174751	0.000715	20.878979
1397.394866	-2.999600	3.441200	-10.321000	26.188608	0.000715	20.889109
1398.392580	-3.017500	3.440700	-10.381000	26.171001	0.000714	20.884219
1399.395473	-2.981900	3.442600	-10.264000	26.158609	0.000715	20.891681
1400.396357	-3.000100	3.439300	-10.318000	26.138389	0.000713	20.875158
1401.391803	-3.008800	3.439500	-10.348000	26.167768	0.000713	20.887135
1402.391943	-2.982800	3.440300	-10.260000	26.169089	0.000712	20.886565
1403.391005	-3.017400	3.438800	-10.375000	26.177484	0.000712	20.883147
1404.391173	-2.989700	3.438600	-10.279000	26.150140	0.000711	20.872741
1405.391773	-3.005700	3.438300	-10.333000	26.116985	0.000712	20.887315
1406.393976	-2.987800	3.437900	-10.270000	26.170356	0.000710	20.870770
1407.392056	-2.987100	3.438400	-10.270000	26.176145	0.000709	20.871372
1408.391891	-3.008900	3.436800	-10.339000	26.175748	0.000710	20.870972
1409.392653	-3.004300	3.435800	-10.321000	26.183149	0.000710	20.863237
1410.391847	-2.995200	3.436800	-10.292000	26.184368	0.000707	20.879633
1411.394764	-3.007100	3.434800	-10.328000	26.204161	0.000706	20.890987
1412.391688	-2.984200	3.435100	-10.248000	26.218147	0.000708	20.872801
1413.394041	-3.025100	3.435600	-10.392000	26.244891	0.000705	20.892088
1414.391123	-3.018000	3.433700	-10.361000	26.269627	0.000707	20.881385
1415.392026	-2.993600	3.434200	-10.279000	26.282566	0.000706	20.884905
1416.394011	-3.002300	3.433200	-10.307000	26.295678	0.000706	20.845928
1417.393583	-3.004800	3.434900	-10.320000	26.311822	0.000705	20.868788
1418.393481	-3.010600	3.432500	-10.333000	26.320786	0.000705	20.874478
1419.394684	-2.999700	3.434000	-10.299000	26.294865	0.000705	20.854593
1420.394485	-2.978700	3.433300	-10.225000	26.234295	0.000705	20.857735
1421.393437	-3.016300	3.431700	-10.350000	26.230225	0.000701	20.864075
1422.396131	-2.999100	3.430600	-10.287000	26.256007	0.000704	20.867224
1423.394678	-3.010200	3.430200	-10.324000	26.240387	0.000701	20.862908
1424.395182	-3.005600	3.430600	-10.310000	26.220992	0.000704	20.848160
1425.396775	-3.005700	3.430700	-10.310000	26.248904	0.000701	20.852027
1426.400333	-3.011200	3.429900	-10.327000	26.266542	0.000699	20.881129
1427.398989	-2.988700	3.428900	-10.247000	26.285217	0.000700	20.872871
1428.397016	-2.997600	3.428500	-10.276000	26.273798	0.000700	20.851914
1429.395601	-3.018100	3.428100	-10.345000	26.285918	0.000700	20.852714
1430.397305	-2.972600	3.429300	-10.193000	26.305114	0.000699	20.860151
1431.396900	-3.005200	3.427900	-10.300000	26.301910	0.000698	20.864043
1432.398672	-3.017200	3.426900	-10.338000	26.281055	0.000699	20.844034
1433.396507	-3.013900	3.426900	-10.327000	26.287115	0.000697	20.861503
1434.398736	-3.020800	3.426600	-10.350000	26.310233	0.000696	20.865770
1435.397752	-3.012900	3.425300	-10.319000	26.313839	0.000697	20.856591
1436.398110	-3.002200	3.424900	-10.281000	26.311652	0.000696	20.845860
1437.399052	-2.981000	3.426500	-10.213000	26.348502	0.000695	20.843064
1438.405669	-2.996600	3.425500	-10.265000	26.330003	0.000697	20.847707
1439.400338	-3.020700	3.423100	-10.339000	26.370778	0.000695	20.835107
1440.398934	-2.997700	3.424100	-10.263000	26.370802	0.000695	20.840821
1441.400430	-2.991700	3.424300	-10.243000	26.400351	0.000691	20.844915
1442.399232	-3.008200	3.423500	-10.297000	26.388282	0.000693	20.834208
1443.402626	-2.962800	3.423800	-10.143000	26.378199	0.000694	20.842091
1444.401181	-2.954700	3.422900	-10.113000	26.366750	0.000692	20.849550
1445.403542	-3.005400	3.422000	-10.283000	26.357314	0.000693	20.843861
1446.403207	-2.994600	3.422400	-10.248000	26.337225	0.000690	20.847378
1447.403076	-3.003100	3.420600	-10.272000	26.373749	0.000693	20.841886
1448.406101	-3.010500	3.421200	-10.297000	26.390085	0.000692	20.851666
1449.402717	-3.018300	3.419900	-10.320000	26.368676	0.000692	20.842003
1450.406470	-3.008300	3.420800	-10.289000	26.336028	0.000692	20.833373
1451.401836	-2.998300	3.421200	-10.257000	26.301185	0.000691	20.822065
1452.406374	-2.999300	3.419200	-10.254000	26.270932	0.000688	20.848560
1453.405806	-3.021900	3.419400	-10.332000	26.263837	0.000689	20.840008
1454.405198	-2.997600	3.419800	-10.249000	26.269591	0.000689	20.860487
1455.402139	-2.995600	3.418700	-10.239000	26.258514	0.000688	20.854571
1456.402601	-2.992600	3.418500	-10.229000	26.280862	0.000688	20.840047
1457.403663	-3.011600	3.417900	-10.292000	26.297893	0.000686	20.836774
1458.403860	-2.987200	3.418700	-10.210000	26.307770	0.000686	20.822044
1459.406348	-2.987900	3.417100	-10.209000	26.333321	0.000688	20.842032
1460.404322	-2.977100	3.417400	-10.173000	26.395121	0.000687	20.851985
1461.406049	-2.996000	3.416600	-10.235000	26.433749	0.000685	20.819688
1462.404693	-3.010700	3.415700	-10.283000	26.424437	0.000685	20.838777
1463.405548	-3.020700	3.415200	-10.315000	26.390840	0.000684	20.847683
1464.409200	-2.997000	3.414000	-10.231000	26.392748	0.000684	20.842963
1465.406054	-3.006300	3.413400	-10.261000	26.405609	0.000684	20.832182
1466.406616	-2.977100	3.413800	-10.162000	26.428796	0.000684	20.831779
1467.407563	-3.001500	3.413700	-10.244000	26.428046	0.000683	20.843353
1468.407049	-3.014100	3.412000	-10.283000	26.456323	0.000683	20.838583
1469.406006	-2.976900	3.413100	-10.158000	26.435985	0.000683	20.833315
1470.409118	-3.025000	3.411200	-10.318000	26.431462	0.000683	20.844415
1471.409348	-3.002300	3.411100	-10.240000	26.424160	0.000683	20.836128
1472.406593	-3.008200	3.411000	-10.260000	26.396696	0.000684	20.853569
1473.407485	-2.986600	3.411200	-10.186000	26.378836	0.000679	20.825188
1474.407277	-2.999600	3.411100	-10.230000	26.358972	0.000680	20.829880
1475.408627	-2.997500	3.409300	-10.218000	26.302621	0.000678	20.834887
1476.407691	-2.998300	3.411200	-10.227000	26.284273	0.000679	20.843475
1477.408810	-2.998900	3.409800	-10.224000	26.293354	0.000679	20.822730
1478.408337	-3.000300	3.408800	-10.227000	26.289379	0.000678	20.832959
1479.408945	-2.996000	3.410300	-10.216000	26.324687	0.000678	20.840942
1480.411902	-3.014000	3.409100	-10.274000	26.319916	0.000678	20.839467
1481.410012	-3.004400	3.409900	-10.243000	26.362075	0.000675	20.837740
1482.411478	-3.020800	3.407100	-10.292000	26.431474	0.000677	20.834471
1483.409725	-3.004700	3.408100	-10.239000	26.425165	0.000674	20.843777
1484.411871	-3.005100	3.406800	-10.237000	26.443311	0.000673	20.850160
1485.410747	-2.994900	3.406200	-10.201000	26.463046	0.000674	20.825901
1486.411022	-3.001700	3.405800	-10.222000	26.457731	0.000673	20.837154
1487.410748	-2.998700	3.407600	-10.217000	26.460290	0.000673	20.825502
1488.411625	-2.996600	3.405300	-10.204000	26.421727	0.000672	20.835579
1489.411864	-3.008400	3.404500	-10.240000	26.416886	0.000671	20.832136
1490.413005	-3.018000	3.404500	-10.274000	26.410327	0.000670	20.823648
1491.414961	-2.980300	3.403800	-10.143000	26.384951	0.000670	20.835127
1492.412340	-2.998200	3.404100	-10.205000	26.372558	0.000669	20.839267
1493.413702	-3.015900	3.402500	-10.260000	26.394780	0.000667	20.826988
1494.414542	-2.996900	3.403200	-10.197000	26.419756	0.000668	20.838814
1495.414407	-2.998800	3.403700	-10.206000	26.431328	0.000667	20.820574
1496.418556	-3.009900	3.403300	-10.243000	26.433486	0.000668	20.841234
1497.417106	-2.984300	3.402600	-10.153000	26.447290	0.000667	20.834720
1498.416197	-2.993000	3.400900	-10.178000	26.429761	0.000667	20.818525
1499.417046	-2.982100	3.402200	-10.145000	26.415384	0.000666	20.849118
1500.416226	-2.990100	3.401900	-10.170000	26.456648	0.000666	20.832746
1501.418195	-2.990100	3.400700	-10.168000	26.448431	0.000668	20.829229
1502.418868	-3.015900	3.400500	-10.255000	26.471395	0.000665	20.808214
1503.418671	-2.999500	3.399400	-10.196000	26.421714	0.000664	20.821816
1504.421187	-2.989900	3.399300	-10.162000	26.413441	0.000667	20.826303
1505.423018	-3.007600	3.398900	-10.222000	26.397746	0.000664	20.832814
1506.421350	-3.002100	3.398200	-10.201000	26.409367	0.000663	20.817942
1507.424335	-3.005100	3.398000	-10.210000	26.415130	0.000664	20.826105
1508.421603	-3.004400	3.397800	-10.208000	26.446929	0.000662	20.808753
1509.425514	-3.010400	3.397200	-10.225000	26.442112	0.000663	20.821456
1510.425436	-2.978300	3.398600	-10.121000	26.446805	0.000661	20.820009
1511.422264	-3.019600	3.396000	-10.253000	26.475230	0.000662	20.806853
1512.427678	-2.993600	3.396100	-10.165000	26.469498	0.000661	20.836653
1513.422691	-3.008200	3.397600	-10.219000	26.467956	0.000661	20.814715
1514.423656	-2.996300	3.396100	-10.175000	26.466193	0.000660	20.806305
1515.424803	-2.993200	3.395900	-10.163000	26.448091	0.000657	20.814663
1516.424500	-3.006600	3.394600	-10.205000	26.459409	0.000656	20.807073
1517.425915	-3.005100	3.394600	-10.199000	26.409231	0.000658	20.807374
1518.427398	-3.014900	3.393700	-10.231000	26.375214	0.000657	20.816333
1519.426950	-3.032400	3.392700	-10.286000	26.323265	0.000654	20.811064
1520.427516	-2.995100	3.394100	-10.165000	26.285595	0.000655	20.815406
1521.430179	-2.981600	3.393600	-10.118000	26.234810	0.000654	20.815580
1522.426750	-2.988500	3.392300	-10.137000	26.243476	0.000655	20.806270
1523.432646	-2.977500	3.393700	-10.103000	26.251398	0.000654	20.804749
1524.429583	-3.004200	3.391500	-10.188000	26.260138	0.000651	20.806419
1525.431457	-2.996100	3.392700	-10.164000	26.257979	0.000654	20.820845
1526.429895	-2.998400	3.391100	-10.166000	26.249634	0.000652	20.799183
1527.430167	-3.015600	3.390500	-10.224000	26.252289	0.000654	20.817972
1528.432350	-3.004600	3.390400	-10.186000	26.299397	0.000651	20.818372
1529.433775	-3.020200	3.390300	-10.238000	26.323333	0.000652	20.813977
1530.434302	-3.023000	3.389100	-10.245000	26.326167	0.000649	20.805446
1531.431186	-3.011200	3.388100	-10.202000	26.342553	0.000650	20.794413
1532.430277	-3.026700	3.387000	-10.250000	26.324526	0.000651	20.813754
1533.430444	-2.992000	3.388900	-10.138000	26.307914	0.000649	20.798008
1534.432390	-3.014900	3.387700	-10.212000	26.314319	0.000650	20.806341
1535.431695	-2.998400	3.388100	-10.158000	26.289908	0.000648	20.821164
1536.434233	-2.998900	3.386700	-10.155000	26.279898	0.000649	20.787871
1537.431575	-2.996100	3.386300	-10.145000	26.271677	0.000648	20.812325
1538.431697	-3.004300	3.386500	-10.172000	26.245181	0.000647	20.806087
1539.436265	-2.975700	3.387900	-10.079000	26.262956	0.000647	20.792181
1540.430047	-2.995900	3.387000	-10.146000	26.281656	0.000647	20.784895
1541.430142	-2.997900	3.386100	-10.150000	26.292930	0.000649	20.815192
1542.431452	-3.014000	3.384100	-10.198000	26.296627	0.000646	20.794251
1543.430142	-3.000000	3.384800	-10.153000	26.290787	0.000646	20.803080
1544.430785	-3.001800	3.384200	-10.157000	26.292501	0.000644	20.804803
1545.434855	-3.013800	3.384700	-10.200000	26.259400	0.000644	20.796194
1546.431091	-3.008000	3.384300	-10.179000	26.213157	0.000643	20.815631
1547.432045	-2.993400	3.384000	-10.128000	26.201829	0.000643	20.799033
1548.431743	-3.004300	3.383500	-10.164000	26.189906	0.000643	20.797957
1549.434896	-2.991000	3.382100	-10.114000	26.158365	0.000641	20.797083
1550.437056	-3.007400	3.382700	-10.172000	26.149597	0.000641	20.799178
1551.433340	-3.000500	3.382100	-10.147000	26.150269	0.000643	20.788474
1552.434471	-2.998100	3.381500	-10.137000	26.159824	0.000642	20.805661
1553.432670	-2.963700	3.381900	-10.022000	26.221563	0.000638	20.803690
1554.432455	-2.996200	3.381600	-10.130000	26.247465	0.000640	20.784675
1555.434129	-3.008200	3.380200	-10.167000	26.274855	0.000637	20.793708
1556.432248	-2.998200	3.380400	-10.133000	26.339641	0.000638	20.776787
1557.432923	-3.000400	3.379600	-10.139000	26.337704	0.000635	20.786695
1558.435778	-3.002400	3.379400	-10.146000	26.338916	0.000638	20.794551
1559.433220	-2.993000	3.379600	-10.115000	26.288680	0.000634	20.790057
1560.432971	-2.988000	3.379000	-10.095000	26.282102	0.000635	20.788663
1561.434477	-2.981700	3.379700	-10.076000	26.276863	0.000634	20.773440
1562.432940	-2.985200	3.378200	-10.082000	26.327069	0.000634	20.805878
1563.434247	-2.989900	3.376900	-10.095000	26.338518	0.000633	20.776608
1564.432415	-3.002100	3.376700	-10.136000	26.359872	0.000633	20.787637
1565.432556	-2.984500	3.376300	-10.075000	26.357461	0.000634	20.793274
1566.437906	-2.998200	3.376800	-10.124000	26.322897	0.000632	20.783193
1567.434437	-3.010600	3.376100	-10.163000	26.287311	0.000632	20.768292
1568.435658	-3.015800	3.374500	-10.174000	26.302831	0.000630	20.794796
1569.432842	-2.979300	3.375900	-10.057000	26.327914	0.000631	20.772114
1570.434403	-3.003400	3.374800	-10.135000	26.358774	0.000629	20.792698
1571.437346	-3.012700	3.374200	-10.163000	26.339853	0.000629	20.774156
1572.439053	-3.005700	3.373900	-10.139000	26.393066	0.000628	20.793971
1573.436110	-2.989000	3.373100	-10.081000	26.372706	0.000627	20.770663
1574.438276	-2.995600	3.373500	-10.105000	26.313806	0.000629	20.775953
1575.436224	-3.004400	3.372800	-10.133000	26.285670	0.000627	20.787981
1576.435997	-3.002400	3.372400	-10.125000	26.289050	0.000628	20.800387
1577.437138	-2.982200	3.372700	-10.057000	26.269258	0.000626	20.783816
1578.435256	-2.983500	3.372500	-10.061000	26.264047	0.000627	20.792329
1579.439211	-2.987800	3.370600	-10.070000	26.263325	0.000626	20.775008
1580.437945	-3.011800	3.370400	-10.150000	26.288282	0.000625	20.783494
1581.437453	-3.013400	3.370700	-10.156000	26.256547	0.000623	20.815612
1582.440390	-3.002000	3.372400	-10.123000	26.286176	0.000624	20.780429
1583.437151	-3.020400	3.370600	-10.179000	26.301866	0.000623	20.774860
1584.437871	-2.998000	3.370100	-10.103000	26.319825	0.000622	20.762088
1585.437158	-3.009900	3.369000	-10.139000	26.340834	0.000621	20.781780
1586.437500	-3.011100	3.368100	-10.141000	26.341035	0.000622	20.783878
1587.436665	-2.994000	3.368300	-10.084000	26.370409	0.000622	20.782106
1588.438916	-3.018500	3.367900	-10.165000	26.384090	0.000621	20.783054
1589.437814	-2.986800	3.367600	-10.057000	26.370782	0.000621	20.776316
1590.438718	-2.990900	3.367300	-10.070000	26.341951	0.000620	20.790014
1591.438158	-3.012500	3.367200	-10.142000	26.349428	0.000623	20.785202
1592.438258	-2.997900	3.366700	-10.092000	26.343492	0.000620	20.774020
1593.442031	-3.004500	3.367100	-10.115000	26.366906	0.000619	20.788068
1594.439844	-3.007600	3.366800	-10.125000	26.351291	0.000618	20.784703
1595.440791	-2.982200	3.365800	-10.035000	26.323181	0.000620	20.780159
1596.440668	-2.988000	3.366400	-10.057000	26.330455	0.000617	20.788892
1597.441379	-3.023600	3.363700	-10.169000	26.348756	0.000618	20.788793
1598.440637	-2.996500	3.364200	-10.079000	26.362536	0.000616	20.765659
1599.443401	-2.995100	3.364600	-10.076000	26.377806	0.000617	20.784324
1600.442657	-2.992700	3.363900	-10.066000	26.352228	0.000615	20.786593
1601.444480	-2.984900	3.364900	-10.043000	26.310784	0.000614	20.798995
1602.444401	-3.003100	3.363300	-10.099000	26.318801	0.000615	20.759637
1603.443988	-2.999900	3.364100	-10.091000	26.306535	0.000616	20.768646
1604.444765	-3.019800	3.362000	-10.151000	26.348799	0.000613	20.777931
1605.445407	-3.019600	3.361500	-10.149000	26.361805	0.000613	20.785787
1606.447282	-2.991300	3.363400	-10.059000	26.394308	0.000614	20.787160
1607.445420	-3.003900	3.361700	-10.097000	26.384944	0.000612	20.799559
1608.446258	-3.017300	3.361100	-10.140000	26.394654	0.000612	20.786084
1609.448575	-3.009000	3.361300	-10.114000	26.373446	0.000612	20.775674
1610.446134	-2.998600	3.360400	-10.076000	26.340350	0.000612	20.787931
1611.446402	-2.985100	3.360100	-10.029000	26.293836	0.000613	20.756358
1612.446533	-3.013700	3.359900	-10.124000	26.264706	0.000610	20.784931
1613.444917	-2.995200	3.359200	-10.061000	26.274389	0.000607	20.773799
1614.447554	-3.004800	3.357900	-10.089000	26.288692	0.000606	20.774422
1615.445686	-3.008700	3.358500	-10.103000	26.294304	0.000608	20.792391
1616.449105	-3.010700	3.358300	-10.109000	26.329045	0.000606	20.780363
1617.444967	-2.974300	3.359600	-9.991900	26.348783	0.000605	20.794985
1618.445529	-2.980300	3.358100	-10.005000	26.375650	0.000605	20.783580
1619.449367	-2.980800	3.358100	-10.009000	26.406167	0.000607	20.799553
1620.448168	-3.005700	3.356000	-10.087000	26.413367	0.000604	20.807263
1621.448380	-2.990200	3.357200	-10.038000	26.423372	0.000605	20.797405
1622.447703	-3.002200	3.355600	-10.073000	26.389951	0.000605	20.797005
1623.448298	-2.981900	3.356600	-10.006000	26.385508	0.000603	20.793488
1624.447351	-2.979900	3.355900	-9.998600	26.366689	0.000603	20.797334
1625.449686	-3.005600	3.354700	-10.082000	26.330263	0.000602	20.796286
1626.448614	-3.000900	3.354700	-10.066000	26.339203	0.000602	20.785356
1627.452342	-3.002900	3.353900	-10.070000	26.332696	0.000602	20.799206
1628.449537	-2.981800	3.355100	-10.003000	26.312856	0.000602	20.796336
1629.449124	-2.995400	3.354200	-10.046000	26.300191	0.000599	20.797833
1630.455313	-3.002000	3.353400	-10.066000	26.293287	0.000599	20.801799
1631.450827	-2.987300	3.352700	-10.014000	26.300589	0.000598	20.787327
1632.450525	-3.002000	3.353400	-10.066000	26.339798	0.000601	20.791644
1633.451712	-3.006200	3.352800	-10.077000	26.374485	0.000599	20.798530
1634.451496	-3.009300	3.350400	-10.081000	26.410068	0.000598	20.793990
1635.451828	-3.000000	3.350900	-10.051000	26.443911	0.000598	20.806668
1636.453724	-2.989800	3.351400	-10.017000	26.434500	0.000598	20.795787
1637.452618	-2.998100	3.351100	-10.046000	26.432539	0.000595	20.783859
1638.463295	-2.983900	3.350300	-9.996300	26.392042	0.000595	20.773976
1639.453853	-3.000800	3.349900	-10.052000	26.348167	0.000595	20.792942
1640.459495	-2.972300	3.349200	-9.953100	26.369076	0.000593	20.797362
1641.457172	-2.981700	3.350000	-9.988000	26.368904	0.000593	20.801930
1642.454882	-2.980000	3.349100	-9.979500	26.352518	0.000593	20.817704
1643.455966	-2.974000	3.349000	-9.959200	26.351972	0.000593	20.811465
1644.455066	-3.017300	3.347900	-10.101000	26.351010	0.000592	20.779679
1645.454741	-3.015500	3.347500	-10.094000	26.357041	0.000592	20.807552
1646.460923	-2.993800	3.346500	-10.018000	26.413706	0.000592	20.785319
1647.454614	-3.017900	3.345400	-10.095000	26.441568	0.000590	20.799572
1648.454785	-3.008900	3.346200	-10.068000	26.471139	0.000590	20.802742
1649.455646	-3.007400	3.345200	-10.059000	26.476754	0.000590	20.792264
1650.454144	-2.991000	3.345400	-10.004000	26.507191	0.000588	20.801521
1651.455351	-2.997000	3.345700	-10.026000	26.520353	0.000589	20.788673
1652.457965	-2.989300	3.345200	-9.998400	26.507669	0.000586	20.824287
1653.457294	-2.988300	3.344200	-9.993400	26.463953	0.000587	20.807372
1654.459701	-2.991100	3.345300	-10.005000	26.423981	0.000588	20.795172
1655.457382	-3.018000	3.341700	-10.083000	26.456337	0.000586	20.795925
1656.458308	-3.004200	3.343200	-10.042000	26.497850	0.000586	20.789287
1657.462730	-2.990300	3.344200	-9.999500	26.486806	0.000589	20.792411
1658.459705	-3.019400	3.342500	-10.092000	26.525712	0.000585	20.809707
1659.462547	-2.995000	3.343100	-10.012000	26.551033	0.000586	20.816667
1660.460815	-3.002800	3.341500	-10.032000	26.595202	0.000585	20.798479
1661.460537	-2.986300	3.341700	-9.979200	26.615241	0.000583	20.802028
1662.460972	-3.019500	3.342300	-10.090000	26.630060	0.000585	20.810761
1663.464814	-2.971100	3.341300	-9.925600	26.667719	0.000585	20.812109
1664.462101	-3.009100	3.340600	-10.051000	26.663924	0.000584	20.811139
1665.461211	-2.997900	3.340600	-10.014000	26.677626	0.000582	20.810215
1666.462078	-3.022500	3.338200	-10.089000	26.660077	0.000581	20.808220
1667.464958	-3.006500	3.339300	-10.038000	26.649183	0.000581	20.796319
1668.463920	-3.010500	3.338700	-10.050000	26.652755	0.000581	20.805601
1669.461230	-2.985300	3.338800	-9.965500	26.681107	0.000580	20.804705
1670.464361	-3.006100	3.338100	-10.034000	26.664525	0.000580	20.801786
1671.462177	-2.991100	3.338400	-9.984900	26.678101	0.000578	20.824443
1672.462657	-2.991600	3.338400	-9.985900	26.700493	0.000578	20.811393
1673.465541	-3.004100	3.336300	-10.022000	26.669787	0.000579	20.814188
1674.463077	-3.005400	3.336500	-10.027000	26.652829	0.000577	20.799037
1675.467149	-3.013400	3.336000	-10.052000	26.633421	0.000576	20.812242
1676.463339	-3.001700	3.337100	-10.016000	26.618099	0.000577	20.805375
1677.463738	-3.004000	3.334100	-10.014000	26.662808	0.000576	20.824715
1678.466145	-3.020500	3.334800	-10.071000	26.661171	0.000577	20.811216
1679.463262	-3.003900	3.334300	-10.014000	26.671245	0.000575	20.822292
1680.467135	-3.023600	3.334600	-10.082000	26.693933	0.000575	20.817600
1681.464347	-3.012400	3.334900	-10.045000	26.701677	0.000576	20.833919
1682.463997	-3.018800	3.334500	-10.066000	26.703437	0.000573	20.806292
1683.468942	-3.000500	3.333200	-10.000000	26.706414	0.000573	20.826829
1684.464414	-2.998400	3.333200	-9.993200	26.703905	0.000573	20.820987
1685.465015	-3.003800	3.332100	-10.008000	26.709762	0.000573	20.828772
1686.465027	-3.009000	3.332500	-10.026000	26.688905	0.000573	20.823450
1687.466246	-2.995900	3.332500	-9.981700	26.715042	0.000572	20.813217
1688.466615	-2.993500	3.332600	-9.975600	26.735445	0.000570	20.802436
1689.465910	-3.006400	3.332000	-10.017000	26.741650	0.000571	20.803933
1690.469435	-3.002300	3.330900	-9.999800	26.720871	0.000568	20.810069
1691.466081	-2.975900	3.331300	-9.911700	26.686614	0.000568	20.805027
1692.466214	-2.991600	3.330400	-9.962700	26.689743	0.000568	20.825715
1693.466489	-2.982700	3.331400	-9.935400	26.669857	0.000568	20.802405
1694.467554	-2.999900	3.331000	-9.991300	26.650892	0.000568	20.817952
1695.467934	-3.012700	3.328700	-10.027000	26.613458	0.000566	20.825839
1696.468381	-2.989800	3.329700	-9.953500	26.586123	0.000566	20.832499
1697.469695	-3.006400	3.328900	-10.007000	26.589227	0.000564	20.824714
1698.480738	-3.022200	3.328000	-10.057000	26.617953	0.000564	20.841737
1699.471958	-3.007500	3.328400	-10.009000	26.639471	0.000564	20.808367
1700.470393	-2.983300	3.328700	-9.929100	26.655532	0.000562	20.820720
1701.471586	-3.003700	3.327700	-9.994300	26.673528	0.000563	20.837863
1702.469399	-2.978900	3.326600	-9.907800	26.671642	0.000561	20.842130
1703.469936	-3.017600	3.325300	-10.033000	26.697083	0.000562	20.838309
1704.471811	-3.006700	3.326600	-10.001000	26.725309	0.000562	20.850091
1705.472356	-2.992500	3.325200	-9.948800	26.726376	0.000564	20.825560
1706.469878	-3.006300	3.324700	-9.993100	26.705473	0.000561	20.829202
1707.469932	-2.986500	3.325300	-9.930000	26.729276	0.000560	20.834640
1708.471097	-3.007200	3.324600	-9.996200	26.733299	0.000560	20.837262
1709.471764	-3.011600	3.323200	-10.007000	26.753082	0.000559	20.833918
1710.473042	-2.991400	3.323800	-9.941900	26.738558	0.000560	20.836859
1711.471725	-3.011700	3.323200	-10.008000	26.742901	0.000557	20.845967
1712.473572	-2.996800	3.322800	-9.956900	26.727932	0.000558	20.840875
1713.470904	-3.007400	3.321800	-9.988700	26.725849	0.000557	20.847315
1714.470152	-2.990600	3.322800	-9.936000	26.722991	0.000558	20.839226
1715.473787	-2.977200	3.323100	-9.891500	26.719566	0.000554	20.839577
1716.470562	-3.003600	3.322700	-9.979600	26.720904	0.000554	20.831439
1717.471710	-3.010900	3.319200	-9.992000	26.695310	0.000555	20.847906
1718.471196	-3.014400	3.321300	-10.010000	26.659169	0.000555	20.822480
1719.472892	-2.992400	3.321200	-9.937400	26.646360	0.000553	20.866026
1720.473464	-2.997500	3.320700	-9.952600	26.641221	0.000552	20.829093
1721.474650	-3.011000	3.320100	-9.996900	26.656114	0.000551	20.844538
1722.472897	-3.017600	3.319300	-10.015000	26.680966	0.000550	20.839651
1723.471734	-2.979500	3.320300	-9.892000	26.675180	0.000550	20.843317
1724.473960	-2.993800	3.319900	-9.938400	26.655846	0.000550	20.852329
1725.474094	-2.999800	3.317700	-9.951500	26.676919	0.000548	20.851703
1726.474735	-3.006000	3.317100	-9.970300	26.674037	0.000548	20.836003
1727.474773	-3.017700	3.317400	-10.010000	26.656814	0.000546	20.840500
1728.475764	-2.981800	3.317600	-9.891100	26.691395	0.000547	20.858669
1729.474250	-2.993200	3.317300	-9.928500	26.677770	0.000548	20.852084
1730.475398	-3.009900	3.314000	-9.974100	26.700409	0.000548	20.837386
1731.477065	-2.999300	3.315600	-9.942900	26.687477	0.000547	20.850463
1732.479970	-2.990200	3.315300	-9.911800	26.711309	0.000549	20.869205
1733.476282	-2.990300	3.315300	-9.913600	26.742214	0.000544	20.848595
1734.476743	-2.988300	3.315900	-9.908000	26.696318	0.000545	20.860299
1735.477957	-2.996300	3.315000	-9.931400	26.692024	0.000547	20.851715
1736.478045	-3.012200	3.314500	-9.983000	26.653550	0.000543	20.854288
1737.478434	-3.010500	3.312800	-9.971400	26.626616	0.000542	20.846652
1738.477614	-2.998100	3.314000	-9.934800	26.618570	0.000543	20.858477
1739.481088	-2.995900	3.313700	-9.926400	26.629945	0.000543	20.858533
1740.477598	-3.017200	3.312700	-9.994300	26.599956	0.000540	20.857309
1741.478436	-2.987100	3.311700	-9.891500	26.603032	0.000542	20.863246
1742.480745	-2.985500	3.312900	-9.889300	26.626169	0.000540	20.870383
1743.478157	-3.031900	3.310500	-10.035000	26.632821	0.000539	20.839614
1744.480250	-2.985300	3.311200	-9.883600	26.692101	0.000538	20.854164
1745.480116	-3.006400	3.311100	-9.953300	26.727350	0.000539	20.860677
1746.479726	-3.016500	3.310600	-9.985100	26.753113	0.000540	20.840113
1747.483197	-2.992900	3.311600	-9.910300	26.743287	0.000539	20.866268
1748.479377	-2.990700	3.311700	-9.902300	26.754528	0.000538	20.867139
1749.483137	-3.013500	3.309000	-9.970800	26.759315	0.000539	20.837814
1750.479309	-3.009100	3.307500	-9.950000	26.777612	0.000536	20.869484
1751.480033	-3.014500	3.308700	-9.972700	26.820724	0.000536	20.871105
1752.482768	-3.003600	3.308100	-9.934900	26.829037	0.000534	20.876618
1753.481459	-2.991700	3.309400	-9.899800	26.786964	0.000538	20.875093
1754.479167	-2.997300	3.307400	-9.912200	26.755292	0.000535	20.869803
1755.481249	-3.018200	3.306300	-9.977900	26.771647	0.000533	20.863488
1756.480505	-2.999900	3.306900	-9.918700	26.754818	0.000534	20.872645
1757.481623	-3.001600	3.306500	-9.923000	26.713660	0.000532	20.859242
1758.481084	-2.996200	3.306400	-9.905800	26.696956	0.000533	20.887965
1759.480710	-2.990100	3.305900	-9.883400	26.656339	0.000531	20.886961
1760.482287	-3.011900	3.305000	-9.953000	26.645614	0.000532	20.871439
1761.480986	-3.013000	3.304400	-9.955900	26.618282	0.000529	20.874783
1762.482008	-2.991000	3.305300	-9.884500	26.666515	0.000528	20.874907
1763.481282	-2.996600	3.305000	-9.903200	26.709582	0.000526	20.887383
1764.480411	-2.988400	3.304500	-9.874400	26.707101	0.000527	20.874932
1765.480137	-2.993400	3.303200	-9.887000	26.696327	0.000527	20.859834
1766.481102	-2.985900	3.303800	-9.864000	26.721052	0.000526	20.867147
1767.481654	-2.997700	3.304000	-9.903100	26.674536	0.000526	20.892926
1768.489446	-2.996500	3.303400	-9.897100	26.688383	0.000525	20.871761
1769.481122	-3.000700	3.302500	-9.908700	26.710528	0.000524	20.885015
1770.484715	-2.979000	3.302400	-9.836700	26.684163	0.000523	20.900707
1771.481696	-2.993500	3.301600	-9.882300	26.688436	0.000524	20.905951
1772.480897	-3.001300	3.300400	-9.904200	26.701540	0.000522	20.884513
1773.484200	-2.986100	3.300100	-9.853800	26.747062	0.000520	20.877649
1774.481966	-2.994000	3.300500	-9.880500	26.793504	0.000519	20.879772
1775.484097	-2.986900	3.300600	-9.857400	26.826515	0.000520	20.880720
1776.484234	-3.002600	3.299500	-9.905700	26.826293	0.000520	20.875756
1777.483793	-3.003600	3.298900	-9.907600	26.826022	0.000520	20.901560
1778.484030	-2.979200	3.298200	-9.825000	26.861886	0.000519	20.877879
1779.483745	-3.022000	3.298200	-9.966500	26.873101	0.000520	20.879199
1780.483961	-3.006600	3.298700	-9.916800	26.902664	0.000517	20.880001
1781.486719	-2.995900	3.297600	-9.878100	26.885118	0.000518	20.909771
1782.483872	-2.974200	3.299100	-9.811200	26.875684	0.000517	20.884640
1783.483290	-3.010400	3.297600	-9.925600	26.934008	0.000518	20.896818
1784.487075	-3.014500	3.297400	-9.939000	26.968728	0.000516	20.896645
1785.484386	-3.000400	3.295700	-9.887200	26.933391	0.000515	20.899992
1786.483613	-3.010300	3.295600	-9.920200	26.920555	0.000515	20.916480
1787.483121	-2.982600	3.296400	-9.830500	26.908073	0.000514	20.908671
1788.483977	-2.997100	3.295100	-9.874900	26.848611	0.000514	20.922848
1789.484775	-2.968100	3.297100	-9.785200	26.838610	0.000514	20.904733
1790.487769	-2.980400	3.295900	-9.821900	26.849604	0.000513	20.903933
1791.484856	-2.995300	3.294900	-9.868600	26.851243	0.000512	20.897522
1792.485631	-3.019800	3.293800	-9.945600	26.877675	0.000511	20.890909
1793.486586	-3.001500	3.293400	-9.884800	26.889267	0.000513	20.899719
1794.487711	-3.005200	3.294200	-9.898900	26.890780	0.000512	20.886543
1795.493361	-3.003100	3.293900	-9.890000	26.900960	0.000511	20.911950
1796.486174	-2.984600	3.293700	-9.828100	26.930044	0.000512	20.898049
1797.488035	-3.003400	3.292500	-9.886800	26.968860	0.000510	20.900097
1798.485447	-2.996000	3.292100	-9.861200	26.961936	0.000508	20.919684
1799.485966	-2.996100	3.291300	-9.859300	26.975613	0.000509	20.897879
1800.487825	-2.991200	3.291500	-9.844400	26.937666	0.000509	20.907135
1801.485921	-2.989300	3.290000	-9.834000	26.897166	0.000509	20.900550
1802.487660	-3.017800	3.289400	-9.925500	26.880785	0.000508	20.890243
1803.488378	-2.983500	3.289900	-9.815000	26.891684	0.000507	20.912579
1804.489390	-2.986200	3.290300	-9.824500	26.909454	0.000505	20.905793
1805.491883	-3.021300	3.288600	-9.932800	26.928615	0.000505	20.916998
1806.489899	-2.992000	3.287900	-9.836200	26.957874	0.000506	20.926979
1807.491928	-2.991600	3.288200	-9.836100	26.967979	0.000505	20.909168
1808.489406	-2.994500	3.287600	-9.843400	27.006566	0.000501	20.900082
1809.490819	-3.030900	3.285700	-9.957200	27.016492	0.000506	20.895366
1810.493167	-3.015600	3.288000	-9.914300	27.053841	0.000504	20.915855
1811.491503	-2.989400	3.287400	-9.825800	27.098134	0.000503	20.901607
1812.494573	-2.992600	3.287100	-9.836700	27.099524	0.000501	20.923391
1813.493033	-2.996300	3.287000	-9.847000	27.119180	0.000502	20.926564
1814.495133	-3.001700	3.286400	-9.863700	27.148135	0.000500	20.915384
1815.497416	-2.978300	3.287300	-9.789800	27.162352	0.000499	20.914984
1816.496719	-3.015700	3.285200	-9.906300	27.195950	0.000500	20.903259
1817.493090	-2.982600	3.286000	-9.798300	27.208579	0.000499	20.906952
1818.494178	-2.995500	3.284900	-9.839000	27.199302	0.000495	20.923698
1819.493930	-3.008600	3.283400	-9.877300	27.171538	0.000499	20.901939
1820.498685	-2.983800	3.284600	-9.800100	27.138291	0.000496	20.917811
1821.498002	-2.999800	3.283800	-9.848400	27.071668	0.000496	20.898698
1822.493988	-3.002600	3.283600	-9.857900	27.056781	0.000493	20.905537
1823.495196	-3.001900	3.282200	-9.851600	27.061172	0.000496	20.891462
1824.493278	-3.008700	3.282400	-9.874500	27.038169	0.000494	20.909103
1825.495033	-3.015000	3.282800	-9.895000	26.999460	0.000496	20.914272
1826.493406	-3.001600	3.281300	-9.848700	26.978067	0.000496	20.913147
1827.494906	-3.012400	3.280100	-9.880200	26.972211	0.000491	20.915319
1828.494431	-3.000200	3.280300	-9.840000	27.020530	0.000495	20.892314
1829.494924	-2.985300	3.281900	-9.796600	27.047352	0.000492	20.901744
1830.494537	-2.995500	3.281000	-9.826600	27.057228	0.000491	20.904564
1831.495521	-2.972300	3.279900	-9.748000	27.067031	0.000492	20.888819
1832.498325	-2.995200	3.279600	-9.822900	27.090551	0.000491	20.893507
1833.495689	-2.985100	3.278400	-9.785300	27.133700	0.000489	20.877161
1834.496389	-2.998900	3.279800	-9.834600	27.125383	0.000489	20.886339
1835.497202	-3.005900	3.279000	-9.854700	27.126699	0.000486	20.902360
1836.499601	-2.993200	3.277800	-9.810500	27.090573	0.000488	20.888788
1837.498882	-2.992300	3.277300	-9.805200	27.074469	0.000489	20.886817
1838.498380	-2.996200	3.277100	-9.817600	27.060670	0.000486	20.898068
1839.498934	-3.003500	3.276600	-9.840600	27.092036	0.000486	20.897371
1840.498874	-3.000500	3.276200	-9.829200	27.111039	0.000486	20.915533
1841.499968	-2.977600	3.276500	-9.754900	27.104861	0.000484	20.885614
1842.501593	-3.015400	3.274900	-9.873200	27.096945	0.000484	20.890454
1843.501868	-2.971900	3.276400	-9.736600	27.099422	0.000483	20.872085
1844.503726	-3.016300	3.274600	-9.875800	27.068010	0.000483	20.901656
1845.502171	-2.993700	3.274000	-9.801200	27.016714	0.000484	20.876624
1846.501395	-2.990300	3.274400	-9.790400	26.948595	0.000481	20.873556
1847.507748	-2.997200	3.272000	-9.805100	26.906748	0.000481	20.877944
1848.503024	-2.978400	3.274700	-9.752200	26.904141	0.000483	20.855409
1849.503430	-3.003200	3.273700	-9.830900	26.867184	0.000481	20.859500
1850.503433	-2.994200	3.272700	-9.797700	26.898356	0.000479	20.877566
1851.504315	-2.985200	3.271900	-9.765800	26.889048	0.000479	20.878164
1852.503736	-2.980500	3.272200	-9.751900	26.912474	0.000479	20.873271
1853.506221	-2.991500	3.271100	-9.784500	26.931681	0.000477	20.863187
1854.505699	-2.992900	3.270900	-9.787900	26.983422	0.000477	20.879180
1855.507574	-3.020300	3.270300	-9.875500	26.993400	0.000478	20.873568
1856.504917	-3.027400	3.269500	-9.896500	27.044170	0.000476	20.874365
1857.504694	-2.992000	3.270100	-9.782100	27.022306	0.000475	20.856645
1858.510983	-2.998900	3.269800	-9.804800	27.005730	0.000476	20.877432
1859.504536	-3.000800	3.269400	-9.809600	26.998830	0.000473	20.869072
1860.504807	-3.013600	3.268600	-9.848900	26.990146	0.000474	20.871718
1861.505621	-3.002000	3.267300	-9.806900	26.953959	0.000475	20.873261
1862.504769	-3.005500	3.268400	-9.821900	26.917676	0.000473	20.885139
1863.504428	-3.013200	3.267300	-9.844400	26.943709	0.000472	20.861058
1864.508311	-2.995300	3.267900	-9.786500	26.962324	0.000472	20.848957
1865.504161	-3.005800	3.268000	-9.821800	26.990836	0.000470	20.867671
1866.506946	-3.016500	3.266000	-9.850400	26.978528	0.000467	20.867621
1867.507141	-3.004300	3.266100	-9.811500	26.994534	0.000470	20.858588
1868.506885	-3.031400	3.265600	-9.898400	27.048977	0.000470	20.863553
1869.511692	-2.977200	3.266200	-9.722800	27.095406	0.000469	20.861408
1870.507465	-3.018500	3.265700	-9.856300	27.138333	0.000468	20.863330
1871.510569	-2.995300	3.264400	-9.777000	27.132404	0.000466	20.855945
1872.508665	-2.988700	3.264400	-9.754100	27.157714	0.000464	20.862908
1873.507668	-3.001400	3.264700	-9.797800	27.159797	0.000463	20.875434
1874.508505	-2.990300	3.264000	-9.759900	27.213539	0.000465	20.855520
1875.508286	-3.021900	3.262600	-9.857600	27.236018	0.000466	20.870070
1876.508292	-2.976100	3.264400	-9.713800	27.220761	0.000461	20.857569
1877.507915	-2.984400	3.262400	-9.734200	27.258694	0.000460	20.862533
1878.507159	-2.997100	3.262800	-9.777700	27.218231	0.000461	20.852654
1879.507910	-3.013400	3.260600	-9.824100	27.191136	0.000460	20.866177
1880.509655	-3.012000	3.260900	-9.819900	27.174365	0.000460	20.861638
1881.508761	-3.014700	3.260600	-9.828600	27.176349	0.000459	20.853677
1882.511096	-2.984300	3.262000	-9.733600	27.148390	0.000455	20.856850
1883.508217	-2.990000	3.260500	-9.748600	27.143405	0.000459	20.849940
1884.508819	-2.993700	3.260100	-9.759200	27.196577	0.000456	20.842254
1885.512730	-3.004700	3.260900	-9.797000	27.191768	0.000456	20.853538
1886.508670	-3.004000	3.259200	-9.789800	27.192363	0.000455	20.840860
1887.509543	-3.005600	3.261000	-9.798900	27.167131	0.000454	20.857207
1888.510406	-3.003900	3.258500	-9.786800	27.151728	0.000454	20.852146
1889.508966	-3.009200	3.256900	-9.799100	27.137831	0.000452	20.862825
1890.510809	-3.005600	3.258800	-9.792800	27.155228	0.000454	20.836227
1891.511310	-3.023100	3.256800	-9.844600	27.173713	0.000452	20.842016
1892.507911	-2.991700	3.256700	-9.741900	27.189202	0.000451	20.832465
1893.509792	-2.981900	3.256300	-9.707800	27.227657	0.000450	20.865927
1894.510106	-3.013000	3.254000	-9.803000	27.259638	0.000450	20.829345
1895.511168	-2.980600	3.256900	-9.707000	27.292367	0.000451	20.833343
1896.510700	-3.011600	3.255100	-9.802200	27.293488	0.000450	20.836367
1897.511485	-2.979500	3.255200	-9.697700	27.274183	0.000448	20.846346
1898.510529	-2.989900	3.255100	-9.729700	27.238161	0.000447	20.840932
1899.512444	-3.013600	3.253000	-9.803100	27.242530	0.000447	20.853861
1900.512516	-3.009300	3.253400	-9.788900	27.211765	0.000446	20.826237
1901.511730	-3.010900	3.251600	-9.789400	27.177503	0.000445	20.842036
1902.513053	-2.997400	3.252300	-9.747500	27.190829	0.000446	20.826990
1903.511374	-3.001300	3.252600	-9.759400	27.184775	0.000445	20.816634
1904.512565	-2.999600	3.252500	-9.754600	27.136344	0.000441	20.851373
1905.517044	-3.010700	3.251400	-9.787900	27.124956	0.000443	20.842290
1906.512724	-2.997500	3.252400	-9.749100	27.107537	0.000443	20.829513
1907.515121	-3.001700	3.249800	-9.753200	27.084861	0.000440	20.830415
1908.513500	-3.041000	3.250500	-9.882600	27.055728	0.000440	20.830040
1909.514139	-3.014900	3.249700	-9.796700	27.118732	0.000440	20.824651
1910.517771	-3.003100	3.250100	-9.758900	27.136372	0.000440	20.830065
1911.517962	-2.984100	3.249200	-9.695300	27.157639	0.000438	20.846238
1912.515537	-2.996600	3.249700	-9.737400	27.170839	0.000440	20.843868
1913.515489	-2.986100	3.250700	-9.706000	27.196419	0.000439	20.815069
1914.516884	-2.992100	3.249700	-9.722300	27.195479	0.000437	20.840202
1915.516695	-2.994100	3.249200	-9.727800	27.236190	0.000436	20.834682
1916.518581	-2.983800	3.248600	-9.692600	27.243510	0.000435	20.832563
1917.517253	-3.011800	3.247100	-9.779000	27.236837	0.000433	20.829169
1918.528258	-2.998300	3.246700	-9.734200	27.223391	0.000433	20.822283
1919.516796	-2.996500	3.247100	-9.729000	27.228007	0.000434	20.830719
1920.521449	-2.985000	3.245000	-9.685600	27.232049	0.000434	20.832888
1921.522018	-3.012000	3.244600	-9.770900	27.300624	0.000432	20.809407
1922.517569	-3.008700	3.243600	-9.758100	27.303030	0.000432	20.833164
1923.518118	-2.996000	3.243800	-9.717300	27.358625	0.000430	20.821286
1924.516531	-2.997100	3.247700	-9.733000	27.371549	0.000430	20.842346
1925.518838	-2.998200	3.242900	-9.720800	27.394792	0.000430	20.830167
1926.521182	-2.988300	3.244500	-9.693600	27.395439	0.000429	20.815171
1927.522592	-2.978600	3.243900	-9.660300	27.392213	0.000429	20.831841
1928.521001	-2.994300	3.241600	-9.705600	27.407219	0.000428	20.819435
1929.523169	-3.025800	3.240200	-9.803400	27.458117	0.000427	20.826070
1930.527583	-3.020100	3.241400	-9.788200	27.465808	0.000429	20.829541
1931.524384	-3.018300	3.240400	-9.780200	27.476170	0.000427	20.830009
1932.524198	-2.973700	3.242800	-9.640900	27.482002	0.000424	20.808849
1933.522651	-3.005900	3.239500	-9.735800	27.490706	0.000423	20.808124
1934.524632	-2.994200	3.240900	-9.702200	27.518881	0.000424	20.844056
1935.523650	-2.989700	3.241100	-9.687900	27.495887	0.000424	20.814758
1936.523124	-2.982500	3.240700	-9.664300	27.454013	0.000423	20.816252
1937.531437	-3.015800	3.238600	-9.766000	27.380066	0.000424	20.829103
1938.524743	-2.993100	3.239500	-9.695600	27.348384	0.000421	20.829949
1939.527775	-3.015900	3.237200	-9.762300	27.329481	0.000422	20.825158
1940.529216	-2.989400	3.238100	-9.678700	27.321493	0.000419	20.812381
1941.526692	-3.018100	3.238200	-9.771200	27.336992	0.000419	20.828446
1942.540709	-3.011200	3.236900	-9.745900	27.361129	0.000418	20.811950
1943.528202	-2.968500	3.236700	-9.606800	27.338729	0.000417	20.800323
1944.528351	-2.995000	3.237000	-9.694000	27.337608	0.000417	20.833333
1945.530866	-3.008300	3.235300	-9.732000	27.329468	0.000414	20.821352
1946.529620	-2.999800	3.234200	-9.701000	27.330315	0.000415	20.811773
1947.537616	-2.999700	3.235100	-9.702300	27.330710	0.000412	20.810273
1948.533430	-2.982300	3.234300	-9.644900	27.353134	0.000411	20.815288
1949.532654	-2.996100	3.234300	-9.689200	27.307585	0.000413	20.827315
1950.532640	-3.007900	3.233600	-9.725400	27.341966	0.000409	20.815907
1951.531733	-3.033200	3.232500	-9.803000	27.350479	0.000409	20.817832
1952.534942	-2.973300	3.234100	-9.615300	27.406567	0.000407	20.796021
1953.538285	-2.990200	3.234600	-9.670900	27.369726	0.000410	20.808745
1954.537705	-3.001600	3.232000	-9.700200	27.352385	0.000409	20.810741
1955.533023	-3.007900	3.230000	-9.714400	27.363574	0.000408	20.821997
1956.534076	-2.991500	3.231800	-9.666500	27.348562	0.000407	20.830128
1957.535281	-2.987600	3.231900	-9.653600	27.362354	0.000406	20.817924
1958.535239	-2.994000	3.231800	-9.674800	27.389994	0.000405	20.813961
1959.538393	-2.989000	3.230200	-9.653900	27.420577	0.000405	20.801106
1960.537155	-3.020300	3.228500	-9.750100	27.481171	0.000406	20.809436
1961.536006	-2.980400	3.229600	-9.624400	27.512005	0.000406	20.813905
1962.541306	-2.997900	3.228600	-9.678100	27.525250	0.000401	20.819170
1963.540156	-2.980500	3.229500	-9.624700	27.542834	0.000403	20.812681
1964.538431	-2.973100	3.228700	-9.597600	27.556698	0.000401	20.809086
1965.536192	-2.978200	3.228400	-9.613000	27.551314	0.000402	20.803669
1966.538713	-3.004600	3.227300	-9.695600	27.529460	0.000400	20.807759
1967.538973	-3.006200	3.225900	-9.696500	27.516711	0.000398	20.787346
1968.539405	-3.003300	3.226800	-9.689400	27.501332	0.000399	20.818339
1969.541559	-3.015800	3.226500	-9.729700	27.464670	0.000397	20.780032
1970.540530	-3.004000	3.225500	-9.687900	27.418676	0.000397	20.801090
1971.540530	-3.036800	3.222800	-9.785100	27.391712	0.000394	20.789137
1972.542227	-2.974100	3.225500	-9.591600	27.399225	0.000396	20.814239
1973.543460	-3.005900	3.224500	-9.692000	27.401259	0.000394	20.800638
1974.542830	-2.993800	3.224600	-9.653100	27.389500	0.000394	20.792602
1975.540480	-2.991100	3.222800	-9.637900	27.362880	0.000394	20.825092
1976.542350	-3.011400	3.223300	-9.704800	27.360823	0.000392	20.789357
1977.542483	-3.018500	3.221400	-9.722400	27.377889	0.000389	20.789456
1978.542238	-2.996300	3.221600	-9.651400	27.404231	0.000390	20.799361
1979.543826	-3.002600	3.221000	-9.670400	27.423284	0.000389	20.799562
1980.543614	-3.020200	3.219500	-9.722000	27.401255	0.000387	20.817230
1981.542749	-3.000800	3.220900	-9.664800	27.361491	0.000388	20.808047
1982.542695	-3.007800	3.219700	-9.682500	27.394062	0.000387	20.805252
1983.543050	-2.967900	3.221400	-9.559000	27.397189	0.000387	20.798915
1984.544017	-2.965600	3.220100	-9.548200	27.439013	0.000384	20.794523
1985.544941	-2.998500	3.219200	-9.651900	27.483266	0.000384	20.794948
1986.544641	-2.998500	3.218700	-9.649500	27.518590	0.000385	20.802987
1987.548321	-3.007500	3.218300	-9.677700	27.546521	0.000382	20.805010
1988.544752	-3.009200	3.217700	-9.681200	27.547886	0.000384	20.811125
1989.545158	-3.002700	3.217500	-9.659500	27.538017	0.000383	20.789342
1990.550437	-2.992100	3.218800	-9.629800	27.550393	0.000380	20.791837
1991.545765	-2.986800	3.217100	-9.608400	27.553895	0.000380	20.775446
1992.545901	-3.013700	3.216100	-9.691500	27.538119	0.000379	20.798927
1993.547122	-3.002100	3.214800	-9.650200	27.498637	0.000379	20.789550
1994.546103	-2.996400	3.216000	-9.635200	27.469713	0.000378	20.791744
1995.546648	-2.966500	3.216700	-9.539900	27.412688	0.000378	20.775151
1996.549037	-3.019300	3.213900	-9.702400	27.377788	0.000376	20.804528
1997.545977	-3.006800	3.214800	-9.664900	27.323433	0.000377	20.799160
1998.547647	-2.985600	3.215400	-9.598400	27.353229	0.000376	20.789779
1999.547259	-2.992600	3.214000	-9.617700	27.350155	0.000374	20.790954
2000.547692	-3.004600	3.212600	-9.651900	27.352712	0.000374	20.790681
2001.550468	-3.021100	3.211400	-9.700700	27.378439	0.000372	20.772465
2002.548942	-3.008000	3.211500	-9.659000	27.386001	0.000372	20.806152
2003.551561	-3.023400	3.209800	-9.702900	27.435863	0.000372	20.792776
2004.548587	-2.988300	3.212200	-9.597300	27.473021	0.000369	20.793176
2005.549052	-3.023600	3.210800	-9.706500	27.471980	0.000371	20.776955
2006.549362	-2.986300	3.209600	-9.582100	27.523473	0.000370	20.803158
2007.550953	-3.027500	3.208700	-9.713400	27.549072	0.000369	20.783395
2008.548804	-2.994900	3.209800	-9.612700	27.571766	0.000368	20.785366
2009.548052	-2.998300	3.208600	-9.619300	27.625068	0.000367	20.802489
2010.557215	-3.012900	3.207300	-9.662200	27.649719	0.000368	20.774188
2011.548200	-2.997400	3.206700	-9.610300	27.681290	0.000366	20.781300
2012.551025	-2.969300	3.208700	-9.526700	27.681164	0.000364	20.756517
2013.549601	-2.992600	3.206400	-9.594600	27.720993	0.000363	20.775734
2014.554227	-3.011300	3.207500	-9.656900	27.761588	0.000363	20.774860
2015.550895	-2.988000	3.207000	-9.581100	27.776668	0.000362	20.771545
2016.551348	-3.002000	3.205500	-9.621300	27.732751	0.000360	20.774290
2017.552139	-2.989700	3.204900	-9.580800	27.744207	0.000360	20.766378
2018.551055	-2.985300	3.206100	-9.570400	27.736049	0.000359	20.761014
2019.555159	-2.998800	3.204100	-9.607700	27.745205	0.000359	20.765012
2020.550210	-3.014200	3.202900	-9.653500	27.759636	0.000358	20.744920
2021.551869	-3.032600	3.202100	-9.709300	27.769730	0.000357	20.772623
2022.553171	-2.997300	3.202400	-9.598000	27.736850	0.000355	20.781261
2023.554512	-2.958100	3.207000	-9.484500	27.756218	0.000353	20.744325
2024.553357	-2.974500	3.203000	-9.526300	27.747789	0.000354	20.742481
2025.552788	-3.001300	3.203600	-9.613800	27.691922	0.000353	20.761653
2026.553745	-3.007600	3.201300	-9.627900	27.647432	0.000352	20.755765
2027.553776	-3.015100	3.201100	-9.650700	27.620052	0.000352	20.767095
2028.552961	-3.012000	3.199900	-9.637600	27.622907	0.000351	20.777081
2029.552085	-3.015600	3.198900	-9.645400	27.627524	0.000351	20.749009
2030.553785	-3.020400	3.198300	-9.658700	27.602032	0.000347	20.753230
2031.555370	-3.002700	3.199700	-9.607300	27.550919	0.000348	20.772451
2032.555156	-2.999900	3.199100	-9.596400	27.520512	0.000346	20.776471
2033.558157	-3.009900	3.196900	-9.621200	27.524682	0.000347	20.725189
2034.556742	-2.988600	3.198200	-9.557200	27.548991	0.000347	20.749174
2035.558645	-3.026400	3.197100	-9.674800	27.549293	0.000343	20.753271
2036.557714	-3.023900	3.194500	-9.658900	27.551727	0.000346	20.743865
2037.558991	-2.991000	3.196400	-9.559400	27.570559	0.000343	20.743373
2038.563319	-2.995800	3.195900	-9.573100	27.607143	0.000343	20.743674
2039.564427	-3.004500	3.195300	-9.599300	27.605012	0.000341	20.745797
2040.562982	-2.983900	3.196700	-9.537100	27.619802	0.000340	20.745032
2041.560254	-3.005700	3.192700	-9.595800	27.658593	0.000340	20.747081
2042.559915	-2.998600	3.193300	-9.574800	27.679132	0.000339	20.758266
2043.567334	-3.024500	3.191800	-9.652000	27.703937	0.000339	20.734387
2044.563031	-2.987500	3.192700	-9.537700	27.736553	0.000341	20.730225
2045.560709	-2.997500	3.194000	-9.573900	27.726040	0.000338	20.742879
2046.558401	-2.964700	3.194100	-9.467400	27.728423	0.000336	20.723466
2047.559762	-2.992300	3.191600	-9.549400	27.723891	0.000338	20.728388
2048.561508	-2.992000	3.190200	-9.544000	27.773419	0.000337	20.750257
2049.561754	-3.004300	3.190400	-9.583900	27.752839	0.000336	20.748512
2050.561497	-3.014100	3.190400	-9.615000	27.753068	0.000336	20.760122
2051.561609	-3.013300	3.188800	-9.607100	27.764302	0.000334	20.745348
2052.560945	-2.988300	3.189200	-9.529200	27.767206	0.000333	20.729778
2053.561570	-2.993100	3.189900	-9.546400	27.778120	0.000331	20.742184
2054.567547	-2.991800	3.191100	-9.546100	27.750346	0.000331	20.758331
2055.561727	-2.980600	3.187500	-9.499900	27.760817	0.000331	20.750850
2056.561938	-2.991800	3.188800	-9.539500	27.770092	0.000331	20.745486
2057.561319	-3.006500	3.187800	-9.582300	27.805678	0.000330	20.744314
2058.566812	-2.980900	3.188300	-9.502900	27.775873	0.000329	20.735181
2059.564304	-2.987200	3.186700	-9.518800	27.764888	0.000329	20.737877
2060.562242	-2.990900	3.186300	-9.528800	27.772057	0.000329	20.739402
2061.565122	-3.011100	3.184900	-9.589100	27.815625	0.000327	20.745316
2062.561379	-3.008100	3.184100	-9.575400	27.821380	0.000327	20.757747
2063.567798	-2.988200	3.185200	-9.516500	27.855924	0.000326	20.725655
2064.566231	-3.005200	3.183000	-9.564000	27.843400	0.000326	20.752407
2065.565264	-3.001700	3.183900	-9.556200	27.852700	0.000326	20.745170
2066.564310	-3.006600	3.181500	-9.564300	27.826665	0.000325	20.752633
2067.562990	-3.027800	3.181100	-9.630600	27.791083	0.000325	20.736264
2068.563380	-2.982900	3.183900	-9.496300	27.773277	0.000324	20.742053
2069.564404	-2.990700	3.181800	-9.513900	27.788056	0.000324	20.752658
2070.570063	-3.008900	3.179800	-9.567000	27.798519	0.000321	20.760818
2071.566525	-2.985800	3.181600	-9.498500	27.807221	0.000320	20.713149
2072.568088	-3.003800	3.180600	-9.552800	27.815009	0.000321	20.730471
2073.566237	-3.010800	3.177700	-9.566700	27.790657	0.000319	20.726826
2074.567457	-2.985300	3.179300	-9.490300	27.835166	0.000318	20.749335
2075.571349	-2.992900	3.178500	-9.511500	27.872385	0.000319	20.745542
2076.566220	-2.991500	3.176700	-9.502600	27.877296	0.000318	20.754279
2077.565668	-3.001100	3.178400	-9.538000	27.889566	0.000318	20.737230
2078.567677	-3.008300	3.176600	-9.554800	27.935881	0.000316	20.755397
2079.568580	-3.007000	3.176100	-9.548700	27.950882	0.000316	20.759590
2080.567907	-3.029400	3.175500	-9.619600	27.987503	0.000314	20.752354
2081.570062	-3.016500	3.175000	-9.576100	27.989513	0.000313	20.732566
2082.568079	-3.013800	3.173800	-9.564200	27.970495	0.000313	20.732863
2083.574297	-3.000800	3.174200	-9.523900	27.890660	0.000312	20.752081
2084.567753	-2.995000	3.174200	-9.506000	27.837596	0.000312	20.748461
2085.567351	-2.991200	3.175700	-9.498600	27.765363	0.000311	20.731717
2086.570553	-2.980500	3.174000	-9.457900	27.711178	0.000310	20.733139
2087.569306	-3.001500	3.172500	-9.521300	27.712296	0.000309	20.743274
2088.570135	-3.018900	3.171800	-9.574200	27.687351	0.000309	20.730499
2089.584958	-3.025500	3.169600	-9.589000	27.664385	0.000307	20.760970
2090.569129	-3.023300	3.169200	-9.580300	27.697376	0.000307	20.746278
2091.570389	-3.003600	3.169500	-9.518700	27.742187	0.000306	20.735421
2092.569157	-3.007500	3.169000	-9.529000	27.781515	0.000306	20.743231
2093.569557	-3.002500	3.167700	-9.509900	27.744793	0.000305	20.741837
2094.571634	-2.978100	3.168900	-9.436800	27.777700	0.000305	20.742711
2095.571588	-2.990200	3.167600	-9.470500	27.822558	0.000305	20.743284
2096.573022	-2.986500	3.170300	-9.467400	27.863669	0.000305	20.750046
2097.575573	-2.977300	3.166700	-9.427200	27.853234	0.000302	20.767045
2098.571510	-3.007400	3.167800	-9.525800	27.861788	0.000302	20.722547
2099.571273	-2.996100	3.165600	-9.483300	27.867666	0.000300	20.751224
2100.570643	-2.979000	3.166900	-9.433000	27.860997	0.000301	20.758263
2101.570880	-2.995400	3.165700	-9.482200	27.846343	0.000300	20.746359
2102.573357	-2.983800	3.165300	-9.443400	27.823981	0.000299	20.771270
2103.572038	-3.000100	3.164500	-9.492900	27.807716	0.000296	20.758694
2104.572917	-3.020700	3.162200	-9.550400	27.799507	0.000297	20.748061
2105.572698	-3.022700	3.161600	-9.555400	27.825623	0.000295	20.756801
2106.571697	-2.994300	3.163800	-9.472100	27.805315	0.000293	20.746320
2107.571180	-2.990800	3.163100	-9.458500	27.833836	0.000293	20.775024
2108.573278	-3.017500	3.160900	-9.536100	27.867834	0.000296	20.766567
2109.572748	-2.960000	3.161200	-9.356100	27.875154	0.000294	20.767770
2110.573451	-2.986900	3.160700	-9.438100	27.927053	0.000292	20.746985
2111.572466	-3.009300	3.159700	-9.506900	27.954527	0.000292	20.745240
2112.573569	-3.007400	3.159100	-9.499800	27.919223	0.000288	20.764709
2113.576178	-2.977400	3.159400	-9.405000	27.841022	0.000290	20.774196
2114.573438	-2.988000	3.159100	-9.438000	27.839563	0.000291	20.757554
2115.576538	-3.009400	3.158800	-9.505700	27.851985	0.000288	20.767685
2116.575982	-3.022300	3.154600	-9.533100	27.881299	0.000289	20.736970
2117.572832	-3.030400	3.155000	-9.559600	27.893281	0.000286	20.755194
2118.575902	-2.992900	3.155200	-9.442500	27.924795	0.000287	20.747557
2119.577774	-2.996400	3.155600	-9.454700	27.961171	0.000286	20.760937
2120.574289	-2.995100	3.155700	-9.450400	27.993678	0.000286	20.755250
2121.578624	-2.990400	3.153400	-9.428800	28.031987	0.000286	20.764415
2122.575230	-2.994800	3.151700	-9.437000	28.048773	0.000283	20.773725
2123.575076	-3.016100	3.152600	-9.505900	28.026289	0.000284	20.751092
2124.579968	-2.989700	3.151400	-9.421300	28.038912	0.000284	20.747678
2125.576728	-3.009900	3.152300	-9.486700	28.062612	0.000282	20.743559
2126.580025	-2.991600	3.151100	-9.425200	28.075358	0.000281	20.750225
2127.576688	-3.005700	3.149800	-9.466500	28.060858	0.000280	20.743215
2128.576954	-2.997500	3.151900	-9.446600	28.051483	0.000280	20.763651
2129.580618	-3.011400	3.149200	-9.480800	28.067522	0.000280	20.753718
2130.578717	-3.024600	3.147600	-9.519300	28.067705	0.000279	20.742048
2131.578245	-3.012400	3.149000	-9.484300	27.999478	0.000277	20.761089
2132.578896	-2.997800	3.147900	-9.435800	27.976375	0.000278	20.761542
2133.578135	-3.004900	3.146100	-9.453000	27.939459	0.000277	20.776542
2134.577409	-3.008400	3.146600	-9.465300	27.945263	0.000275	20.778116
2135.580655	-3.003000	3.144900	-9.443400	27.987758	0.000274	20.774422
2136.578543	-2.987000	3.146100	-9.396200	28.004473	0.000275	20.757582
2137.579474	-2.998100	3.144200	-9.425800	28.022050	0.000274	20.752041
2138.578926	-2.996000	3.143400	-9.417200	28.083583	0.000274	20.757558
2139.578358	-2.988000	3.144500	-9.395000	28.102227	0.000275	20.774429
2140.581449	-3.016800	3.142200	-9.477900	28.114874	0.000274	20.765824
2141.578342	-3.001300	3.142600	-9.431300	28.149802	0.000272	20.779175
2142.581242	-3.004000	3.142400	-9.438100	28.206618	0.000272	20.756715
2143.583184	-2.996300	3.139700	-9.406300	28.179800	0.000270	20.769072
2144.580348	-2.997200	3.139900	-9.410400	28.199929	0.000270	20.789811
2145.581758	-2.992200	3.139100	-9.391300	28.205855	0.000270	20.753577
2146.582788	-3.030300	3.138100	-9.508400	28.206027	0.000267	20.784097
2147.582769	-3.036600	3.136800	-9.522900	28.166117	0.000271	20.760038
2148.583961	-3.027500	3.137000	-9.496500	28.131415	0.000269	20.748336
2149.581816	-3.008100	3.136900	-9.434600	28.134016	0.000269	20.777508
2150.581715	-2.994000	3.135900	-9.388100	28.153724	0.000266	20.781701
2151.582978	-2.982300	3.137000	-9.354800	28.148817	0.000266	20.766804
2152.581653	-2.990200	3.135000	-9.373500	28.194351	0.000265	20.786092
2153.584723	-3.017500	3.134400	-9.456900	28.243409	0.000264	20.796127
2154.581924	-2.996200	3.133800	-9.388700	28.290879	0.000264	20.772798
2155.583603	-2.993400	3.134200	-9.380100	28.305593	0.000262	20.773863
2156.587233	-3.039300	3.131600	-9.515800	28.272730	0.000261	20.786294
2157.582850	-2.997800	3.131700	-9.387700	28.280367	0.000262	20.763637
2158.587679	-3.008600	3.130400	-9.417200	28.264503	0.000262	20.777062
2159.582704	-2.993400	3.130300	-9.369100	28.250332	0.000261	20.774175
2160.587175	-3.016900	3.128400	-9.437200	28.233178	0.000258	20.788672
2161.586983	-3.001200	3.127900	-9.385300	28.254993	0.000258	20.787876
2162.584788	-3.006400	3.128100	-9.402700	28.245303	0.000256	20.772430
2163.586097	-3.003300	3.126500	-9.389000	28.210329	0.000256	20.792221
2164.585511	-2.992200	3.127200	-9.356000	28.150245	0.000257	20.783888
2165.584347	-2.993100	3.126600	-9.357200	28.060261	0.000257	20.777229
2166.587515	-2.980500	3.125600	-9.315800	28.043581	0.000255	20.767077
2167.589516	-3.011300	3.125600	-9.411600	27.994072	0.000256	20.791209
2168.585459	-2.987000	3.123900	-9.329000	27.994248	0.000256	20.786171
2169.585090	-3.014600	3.123600	-9.414800	27.991544	0.000254	20.785346
2170.587256	-3.013700	3.121500	-9.406600	27.996803	0.000254	20.792062
2171.588974	-2.974100	3.123700	-9.289300	28.015625	0.000255	20.783980
2172.588534	-2.959400	3.123600	-9.242700	28.072596	0.000253	20.788223
2173.588165	-2.982200	3.121600	-9.308100	28.096793	0.000253	20.788400
2174.593232	-3.023600	3.119200	-9.429100	28.092231	0.000251	20.774798
2175.590063	-3.013900	3.119700	-9.401300	28.034199	0.000251	20.783712
2176.589975	-3.009800	3.118800	-9.386500	28.035194	0.000251	20.777127
2177.594344	-2.995400	3.119000	-9.342100	28.045533	0.000249	20.775205
2178.591729	-3.002500	3.119800	-9.365500	28.066634	0.000250	20.792179
2179.590301	-3.008000	3.116800	-9.374200	28.054113	0.000250	20.797119
2180.589972	-2.987700	3.117000	-9.311600	28.038446	0.000247	20.773762
2181.591938	-2.995800	3.116400	-9.334900	28.074867	0.000248	20.788139
2182.590699	-2.989500	3.116000	-9.314100	28.104049	0.000248	20.797601
2183.594795	-2.994900	3.113700	-9.323700	28.132035	0.000246	20.805385
2184.592052	-3.004600	3.113300	-9.352500	28.162878	0.000245	20.786649
2185.592523	-2.992300	3.111700	-9.309100	28.214734	0.000246	20.785750
2186.592387	-2.998900	3.112700	-9.333400	28.217015	0.000244	20.808435
2187.594363	-3.012200	3.110400	-9.368200	28.239474	0.000243	20.801649
2188.605869	-3.009500	3.109300	-9.356600	28.267783	0.000242	20.796960
2189.594440	-3.009200	3.109800	-9.357300	28.253433	0.000242	20.786306
2190.598496	-3.015100	3.107800	-9.369800	28.235144	0.000243	20.799186
2191.594187	-2.971700	3.107400	-9.233400	28.246970	0.000240	20.788334
2192.594821	-2.995800	3.106600	-9.306300	28.257528	0.000241	20.797067
2193.596455	-3.001100	3.106400	-9.321900	28.251364	0.000240	20.806982
2194.598914	-3.003400	3.105600	-9.325500	28.260382	0.000239	20.775284
2195.595517	-2.986800	3.105500	-9.274200	28.286041	0.000237	20.800644
2196.595538	-2.990800	3.104800	-9.284500	28.310283	0.000239	20.793759
2197.594711	-2.977300	3.105400	-9.244300	28.300570	0.000236	20.792513
2198.595937	-2.975300	3.103100	-9.231200	28.314697	0.000236	20.789194
2199.597401	-3.033300	3.101900	-9.407900	28.304046	0.000238	20.792220
2200.595584	-3.001600	3.101300	-9.307200	28.336142	0.000236	20.792294
2201.600674	-3.004700	3.100500	-9.314800	28.357708	0.000238	20.794095
2202.596674	-3.002800	3.099600	-9.306800	28.333025	0.000235	20.807174
2203.597393	-2.988900	3.099200	-9.261600	28.279691	0.000236	20.793777
2204.602242	-2.965900	3.099200	-9.190900	28.235275	0.000235	20.795051
2205.598388	-3.006000	3.098000	-9.311000	28.238822	0.000235	20.815217
2206.606358	-3.004000	3.096300	-9.300000	28.219193	0.000234	20.810153
2207.599694	-3.009700	3.096700	-9.319000	28.186475	0.000236	20.819413
2208.599413	-3.051000	3.092100	-9.433500	28.193223	0.000234	20.812457
2209.602302	-3.013000	3.094500	-9.323000	28.238485	0.000233	20.807765
2210.605032	-3.000000	3.093700	-9.279200	28.253903	0.000234	20.802900
2211.600917	-2.985400	3.092700	-9.232200	28.263199	0.000234	20.820320
2212.600626	-2.979200	3.091700	-9.210500	28.292450	0.000232	20.831278
2213.600512	-3.001900	3.090900	-9.277000	28.272298	0.000233	20.811463
2214.600107	-3.009900	3.090900	-9.302800	28.242731	0.000231	20.816307
2215.602460	-2.997400	3.089800	-9.260300	28.185224	0.000231	20.819103
2216.602402	-2.998900	3.088400	-9.260900	28.191519	0.000232	20.821647
2217.604028	-3.022000	3.087400	-9.328400	28.204112	0.000231	20.818204
2218.600706	-2.976800	3.088100	-9.190700	28.240098	0.000231	20.815553
2219.602991	-3.008000	3.084700	-9.277300	28.268436	0.000231	20.822273
2220.606318	-3.013600	3.085400	-9.296900	28.302814	0.000231	20.802833
2221.601096	-2.996200	3.084400	-9.240700	28.356494	0.000231	20.813735
2222.601741	-2.985100	3.083200	-9.202000	28.386655	0.000230	20.809966
2223.602298	-3.022900	3.082400	-9.316400	28.395831	0.000229	20.814464
2224.602971	-2.999600	3.081600	-9.242500	28.357587	0.000229	20.829060
2225.602509	-2.996200	3.079200	-9.224400	28.338382	0.000229	20.820154
2226.604213	-2.990100	3.079400	-9.206400	28.273395	0.000229	20.812567
2227.608950	-2.994200	3.078100	-9.215500	28.258648	0.000227	20.834704
2228.602674	-3.015500	3.078500	-9.282400	28.282838	0.000225	20.823023
2229.603540	-3.027700	3.076100	-9.312400	28.323759	0.000227	20.822026
2230.605793	-3.015900	3.075000	-9.273200	28.352337	0.000226	20.828041
2231.607078	-3.021200	3.075300	-9.289900	28.334225	0.000224	20.824029
2232.603940	-2.999500	3.074000	-9.219900	28.316105	0.000226	20.821906
2233.604508	-2.995700	3.073800	-9.207000	28.318386	0.000224	20.843642
2234.604064	-2.987500	3.074700	-9.183900	28.360321	0.000225	20.845563
2235.603555	-2.963900	3.072400	-9.105500	28.316928	0.000223	20.832691
2236.607021	-3.000000	3.070400	-9.209100	28.290310	0.000224	20.826279
2237.610582	-2.993900	3.071300	-9.194000	28.278885	0.000223	20.825207
2238.608817	-3.018900	3.067500	-9.258200	28.283053	0.000222	20.833671
2239.605212	-3.014500	3.067300	-9.246000	28.329151	0.000223	20.835040
2240.604391	-2.980100	3.067700	-9.139400	28.356495	0.000222	20.834599
2241.607511	-3.005700	3.066500	-9.215500	28.379966	0.000224	20.832628
2242.607197	-3.006200	3.064800	-9.212100	28.436520	0.000221	20.825091
2243.605968	-2.972800	3.064700	-9.109400	28.431443	0.000220	20.837521
2244.607586	-3.036600	3.062300	-9.298000	28.417714	0.000221	20.835551
2245.608360	-2.984600	3.063300	-9.141500	28.352089	0.000222	20.851024
2246.612751	-3.000300	3.061300	-9.183400	28.293499	0.000220	20.838972
2247.608355	-2.992400	3.060500	-9.157100	28.281750	0.000219	20.816238
2248.612018	-3.004300	3.059100	-9.189900	28.249214	0.000222	20.852705
2249.609465	-2.998300	3.057300	-9.166100	28.225441	0.000221	20.849160
2250.609560	-3.023300	3.056500	-9.239800	28.263813	0.000219	20.835162
2251.612708	-3.039700	3.055300	-9.285300	28.305676	0.000220	20.837483
2252.609965	-2.997100	3.056300	-9.158900	28.355969	0.000219	20.855405
2253.609400	-2.990100	3.054300	-9.130800	28.351907	0.000219	20.859849
2254.609909	-3.003700	3.053900	-9.172000	28.385000	0.000218	20.878946
2255.610483	-2.977100	3.053400	-9.089100	28.410055	0.000219	20.856761
2256.612336	-2.976200	3.051600	-9.080400	28.464110	0.000219	20.834381
2257.612846	-2.991500	3.051400	-9.126700	28.462550	0.000216	20.841819
2258.611589	-3.009100	3.049100	-9.173700	28.505228	0.000220	20.853503
2259.614548	-3.003500	3.047500	-9.151100	28.540737	0.000217	20.849434
2260.613344	-2.982400	3.047400	-9.086800	28.523496	0.000215	20.847718
2261.613823	-3.014800	3.045300	-9.179400	28.527315	0.000216	20.854409
2262.617965	-3.006000	3.045400	-9.152500	28.562651	0.000218	20.855856
2263.613393	-3.012100	3.043000	-9.164500	28.609640	0.000215	20.827317
2264.613537	-2.989300	3.044000	-9.098000	28.598419	0.000215	20.834981
2265.613085	-3.001800	3.042300	-9.131500	28.604121	0.000215	20.843569
2266.614020	-3.012000	3.040000	-9.155400	28.637571	0.000215	20.863033
2267.614279	-3.021100	3.038900	-9.179600	28.633911	0.000215	20.859347
2268.618818	-2.993200	3.038200	-9.092700	28.594664	0.000213	20.857277
2269.615304	-2.994800	3.038000	-9.097400	28.580347	0.000215	20.842385
2270.616650	-3.005200	3.036000	-9.122900	28.592616	0.000213	20.863275
2271.618602	-2.996500	3.035600	-9.095500	28.603596	0.000213	20.866272
2272.624988	-3.013200	3.033800	-9.139300	28.647132	0.000212	20.861283
2273.618830	-2.997100	3.032300	-9.087400	28.675255	0.000213	20.869220
2274.620125	-2.980800	3.033100	-9.040400	28.700631	0.000213	20.859218
2275.618437	-2.991900	3.030800	-9.067100	28.668001	0.000214	20.858595
2276.618308	-3.012600	3.029100	-9.123400	28.573824	0.000214	20.839135
2277.618674	-3.019700	3.028800	-9.144700	28.495074	0.000214	20.871252
2278.620409	-2.998100	3.025900	-9.071500	28.449750	0.000213	20.876817
2279.621320	-2.982200	3.026300	-9.023700	28.391612	0.000211	20.853837
2280.620780	-2.979900	3.025000	-9.013800	28.375479	0.000212	20.859877
2281.621417	-2.992700	3.023500	-9.047900	28.370528	0.000212	20.845409
2282.621412	-2.976700	3.023100	-8.997900	28.399698	0.000211	20.863875
2283.623287	-3.002300	3.021300	-9.069100	28.460866	0.000213	20.858614
2284.622421	-3.019600	3.019900	-9.116800	28.522275	0.000211	20.869247
2285.628151	-3.011200	3.017900	-9.086600	28.549759	0.000211	20.868002
2286.623971	-2.969900	3.019300	-8.965900	28.583161	0.000211	20.888364
2287.624142	-2.985800	3.018300	-9.010900	28.593326	0.000211	20.870154
2288.624774	-2.993600	3.016000	-9.028200	28.573753	0.000209	20.875571
2289.626257	-3.006100	3.014000	-9.059000	28.593407	0.000211	20.872606
2290.624926	-3.002900	3.012700	-9.045900	28.612141	0.000212	20.855913
2291.626800	-2.997900	3.013100	-9.031800	28.640985	0.000210	20.877376
2292.633890	-2.992200	3.010800	-9.008600	28.664703	0.000212	20.887040
2293.625778	-2.997400	3.009700	-9.020100	28.681949	0.000211	20.876436
2294.627969	-2.977400	3.009700	-8.959600	28.666738	0.000209	20.873917
2295.627892	-3.014300	3.006900	-9.062600	28.677790	0.000211	20.885048
2296.627239	-2.980100	3.006800	-8.959500	28.691966	0.000210	20.888420
2297.628244	-2.995000	3.005000	-8.998300	28.649151	0.000211	20.881333
2298.629049	-3.030500	3.002800	-9.098700	28.588031	0.000210	20.895165
2299.631763	-2.979100	3.003200	-8.945500	28.532480	0.000208	20.879049
2300.629716	-2.995200	3.000900	-8.987400	28.496451	0.000208	20.884491
2301.629998	-2.983300	2.999600	-8.947500	28.475787	0.000208	20.875536
2302.631135	-2.981400	2.998300	-8.937600	28.458689	0.000210	20.888189
2303.630393	-3.029900	2.995400	-9.074500	28.423972	0.000210	20.876938
2304.630226	-2.996200	2.997100	-8.978400	28.431092	0.000211	20.890744
2305.635047	-3.008800	2.994300	-9.007400	28.395973	0.000209	20.887149
2306.631474	-2.981800	2.992900	-8.923200	28.410648	0.000209	20.875849
2307.631189	-2.979200	2.992100	-8.913000	28.426367	0.000211	20.876030
2308.633276	-2.986400	2.991600	-8.933200	28.407536	0.000210	20.870345
2309.633478	-2.992500	2.991200	-8.948700	28.386670	0.000207	20.888213
2310.634715	-2.978200	2.987900	-8.897300	28.370315	0.000209	20.864160
2311.633304	-2.999600	2.985400	-8.954100	28.328388	0.000207	20.859402
2312.634605	-3.002600	2.985300	-8.962500	28.302590	0.000210	20.879892
2313.634171	-2.999800	2.983600	-8.947400	28.301673	0.000209	20.880391
2314.634389	-2.997700	2.982400	-8.939000	28.310530	0.000209	20.862284
2315.635573	-3.022900	2.981500	-9.011000	28.302103	0.000211	20.874186
2316.635993	-3.014600	2.979700	-8.981600	28.295039	0.000206	20.879876
2317.634695	-2.960800	2.980000	-8.821000	28.351778	0.000210	20.866831
2318.634274	-2.999000	2.977200	-8.927700	28.380334	0.000208	20.870929
2319.634401	-3.018500	2.974900	-8.979200	28.425166	0.000208	20.866287
2320.638003	-3.016200	2.973900	-8.968600	28.461209	0.000209	20.862753
2321.635661	-3.004100	2.972300	-8.928200	28.467948	0.000208	20.858635
2322.641873	-3.014400	2.970700	-8.953900	28.489067	0.000208	20.860935
2323.636746	-2.986100	2.971400	-8.871000	28.530156	0.000207	20.845891
2324.634873	-2.973500	2.969500	-8.828400	28.579251	0.000207	20.843652
2325.637132	-3.013400	2.966400	-8.937900	28.571026	0.000210	20.860972
2326.637130	-2.991700	2.964100	-8.866700	28.567731	0.000209	20.874247
2327.635822	-2.996500	2.964800	-8.884100	28.619199	0.000208	20.858280
2328.636129	-2.981800	2.965400	-8.840900	28.644649	0.000207	20.837447
2329.636514	-3.004100	2.960700	-8.892500	28.613357	0.000209	20.857612
2330.636405	-2.999800	2.959000	-8.874800	28.640494	0.000207	20.840374
2331.640015	-3.019400	2.955600	-8.922400	28.628925	0.000208	20.841998
2332.637311	-3.016800	2.956400	-8.917200	28.626350	0.000207	20.862163
2333.636660	-2.980800	2.955600	-8.808200	28.661609	0.000211	20.847416
2334.637321	-3.012100	2.953200	-8.894400	28.643400	0.000208	20.832870
2335.639963	-3.015000	2.951200	-8.896500	28.604997	0.000208	20.856305
2336.637112	-3.007300	2.950100	-8.870800	28.547584	0.000206	20.840683
2337.637395	-2.994900	2.950500	-8.835100	28.554224	0.000207	20.839310
2338.637606	-2.995300	2.946800	-8.825400	28.555023	0.000208	20.853390
2339.640948	-3.035500	2.943400	-8.933900	28.563571	0.000207	20.828809
2340.637087	-3.010200	2.944000	-8.860500	28.618506	0.000207	20.829135
2341.639188	-3.010900	2.943400	-8.861700	28.673513	0.000207	20.831431
2342.639429	-2.985600	2.941500	-8.780700	28.659685	0.000207	20.850693
2343.643209	-3.005200	2.939400	-8.833700	28.662587	0.000207	20.815685
2344.640291	-3.013300	2.938400	-8.853600	28.659316	0.000206	20.839417
2345.640034	-2.992800	2.935700	-8.784900	28.715909	0.000208	20.832408
2346.642469	-3.027400	2.934200	-8.882400	28.747153	0.000207	20.846809
2347.640586	-3.015100	2.931900	-8.838100	28.753870	0.000208	20.823705
2348.642310	-2.980300	2.931400	-8.735200	28.756072	0.000205	20.839199
2349.641329	-2.999400	2.930100	-8.787600	28.730309	0.000207	20.833163
2350.641054	-3.042900	2.926000	-8.901600	28.665395	0.000208	20.830841
2351.643383	-2.983300	2.928000	-8.733400	28.643024	0.000206	20.826327
2352.644382	-3.008000	2.925100	-8.797900	28.684995	0.000208	20.805539
2353.640543	-3.010600	2.922000	-8.796200	28.737026	0.000208	20.823808
2354.640860	-2.985200	2.920900	-8.718800	28.744505	0.000209	20.825651
2355.641647	-2.999000	2.920300	-8.756800	28.736433	0.000209	20.825106
2356.641154	-2.970200	2.919300	-8.669100	28.691115	0.000207	20.829246
2357.644142	-2.997800	2.916700	-8.742800	28.705737	0.000208	20.818843
2358.641185	-3.011200	2.914000	-8.774100	28.711754	0.000206	20.828697
2359.641658	-3.018900	2.912100	-8.790300	28.722139	0.000208	20.806916
2360.641790	-2.985600	2.912100	-8.692300	28.692331	0.000209	20.816246
2361.641852	-2.994400	2.907900	-8.706800	28.622162	0.000208	20.824756
2362.642973	-3.008700	2.907700	-8.747700	28.574784	0.000208	20.810705
2363.642977	-3.011600	2.905500	-8.749100	28.541950	0.000208	20.812251
2364.641735	-3.013700	2.903800	-8.750500	28.567996	0.000208	20.825205
2365.643344	-3.006900	2.901500	-8.723300	28.571022	0.000209	20.796010
2366.642823	-3.006400	2.898800	-8.713200	28.574710	0.000208	20.819165
2367.642279	-2.990400	2.901000	-8.673700	28.555039	0.000207	20.830173
2368.644031	-3.002800	2.896500	-8.696500	28.523163	0.000206	20.814193
2369.643976	-3.001500	2.894600	-8.686100	28.490282	0.000207	20.838452
2370.642441	-2.980400	2.894000	-8.624500	28.518434	0.000206	20.829345
2371.642645	-2.982000	2.890900	-8.620400	28.550794	0.000207	20.829217
2372.643715	-3.013200	2.889000	-8.703200	28.622850	0.000206	20.826871
2373.644498	-2.991300	2.890300	-8.643300	28.663263	0.000206	20.817788
2374.643028	-3.019600	2.885800	-8.712100	28.752458	0.000208	20.809006
2375.647025	-2.966500	2.885300	-8.558400	28.780873	0.000204	20.833835
2376.643950	-2.987600	2.883600	-8.613500	28.844020	0.000207	20.816840
2377.644660	-3.013300	2.880600	-8.679400	28.888439	0.000205	20.813698
2378.647934	-2.990900	2.878300	-8.607800	28.895970	0.000204	20.819862
2379.644757	-3.005100	2.876100	-8.642200	28.933450	0.000205	20.807361
2380.646121	-3.006300	2.875700	-8.644200	28.924679	0.000205	20.836457
2381.643061	-2.985900	2.873600	-8.579400	28.845391	0.000203	20.835290
2382.645741	-3.008300	2.871100	-8.636500	28.856315	0.000203	20.818794
2383.644561	-2.996400	2.869000	-8.596100	28.887800	0.000203	20.823960
2384.642252	-2.988000	2.866800	-8.564500	28.922805	0.000203	20.805646
2385.648918	-2.971300	2.866400	-8.516700	28.967966	0.000206	20.817005
2386.643375	-2.975100	2.863300	-8.517700	29.015297	0.000204	20.800682
2387.644022	-3.019100	2.860200	-8.634700	29.056067	0.000204	20.802405
2388.646511	-3.009500	2.857800	-8.599100	29.056198	0.000205	20.821977
2389.644088	-3.031400	2.857700	-8.659400	29.045301	0.000203	20.815265
2390.643625	-3.021700	2.853100	-8.619200	29.038790	0.000202	20.805860
2391.643663	-2.994500	2.853300	-8.542800	29.064497	0.000204	20.805209
2392.644858	-3.030400	2.850600	-8.637300	29.056080	0.000204	20.807633
2393.645106	-3.015100	2.848600	-8.588000	29.052221	0.000205	20.775296
2394.648506	-2.994400	2.845800	-8.519400	29.072755	0.000205	20.798356
2395.644422	-2.991500	2.844500	-8.508800	29.040435	0.000203	20.805621
2396.643917	-3.019200	2.842100	-8.579800	29.061911	0.000204	20.805448
2397.644575	-3.036200	2.838400	-8.617000	29.097654	0.000205	20.792625
2398.644996	-2.993900	2.837500	-8.494000	29.085395	0.000204	20.803980
2399.649288	-2.992800	2.836700	-8.488700	29.067370	0.000205	20.808577
2400.646071	-3.016000	2.832100	-8.540800	29.064399	0.000204	20.778557
2401.646061	-3.019400	2.830400	-8.545500	29.046296	0.000206	20.797775
2402.646654	-3.015800	2.828900	-8.529100	29.094549	0.000204	20.802298
2403.647729	-3.003200	2.826900	-8.489000	29.120061	0.000203	20.808091
2404.649240	-2.988900	2.825100	-8.443700	29.168573	0.000203	20.797705
2405.647707	-2.991100	2.823000	-8.443400	29.204783	0.000203	20.798633
2406.654420	-2.994000	2.819100	-8.438900	29.225936	0.000204	20.799086
2407.648250	-3.018900	2.815600	-8.498700	29.226852	0.000203	20.786259
2408.648140	-2.967200	2.817200	-8.358400	29.158233	0.000203	20.781122
2409.654635	-3.033600	2.811100	-8.526300	29.095772	0.000205	20.789306
2410.650723	-2.994300	2.811500	-8.417400	29.072104	0.000204	20.802917
2411.657894	-3.001100	2.807600	-8.424400	29.065173	0.000204	20.798303
2412.650310	-3.025300	2.805300	-8.485700	29.086373	0.000204	20.795483
2413.649667	-3.024700	2.802600	-8.475100	29.128654	0.000204	20.801103
2414.650893	-3.011300	2.800900	-8.433800	29.138688	0.000205	20.802678
2415.654799	-2.999300	2.797100	-8.387300	29.136658	0.000205	20.803952
2416.650394	-2.992500	2.795400	-8.364600	29.123090	0.000202	20.795970
2417.651067	-2.986500	2.793600	-8.342200	29.122525	0.000203	20.786866
2418.651047	-3.004000	2.791400	-8.384400	29.117451	0.000205	20.784598
2419.650023	-2.984100	2.788800	-8.319600	29.122083	0.000204	20.784050
2420.655167	-3.004600	2.785900	-8.369100	29.053580	0.000204	20.802270
2421.651477	-3.012200	2.784100	-8.384800	29.034957	0.000205	20.783980
2422.652620	-3.006600	2.779700	-8.356800	29.018760	0.000204	20.810335
2423.652742	-2.978800	2.777000	-8.270200	29.037589	0.000204	20.768613
2424.653256	-2.998300	2.773600	-8.315400	28.984713	0.000202	20.767970
2425.653074	-2.974900	2.772100	-8.245400	28.999973	0.000205	20.787613
2426.652993	-2.976100	2.768000	-8.236800	29.068279	0.000204	20.793373
2427.653110	-3.022300	2.765200	-8.355800	29.123393	0.000204	20.786318
2428.653127	-3.012300	2.761900	-8.318500	29.183500	0.000204	20.797100
2429.653280	-3.040500	2.759000	-8.387500	29.248755	0.000205	20.785572
2430.654668	-3.015700	2.756100	-8.310500	29.246578	0.000203	20.785749
2431.653973	-3.019400	2.754000	-8.313600	29.245142	0.000206	20.775767
2432.655734	-3.024300	2.750600	-8.318100	29.234051	0.000205	20.775969
2433.655291	-2.998900	2.747600	-8.239100	29.222554	0.000204	20.771021
2434.656096	-2.993500	2.744500	-8.215000	29.237663	0.000206	20.776291
2435.655956	-3.014000	2.742100	-8.262700	29.258668	0.000203	20.762845
2436.659918	-2.987000	2.739500	-8.182600	29.228728	0.000205	20.761596
2437.657633	-3.012700	2.734900	-8.238800	29.175456	0.000206	20.798477
2438.661690	-3.019800	2.732700	-8.250900	29.175608	0.000205	20.783457
2439.658400	-3.036900	2.728000	-8.283800	29.139180	0.000205	20.782311
2440.660676	-3.048000	2.724400	-8.303000	29.070232	0.000203	20.781115
2441.660767	-2.998700	2.722400	-8.162700	29.008060	0.000205	20.787700
2442.661269	-3.015700	2.718200	-8.194900	28.995182	0.000204	20.785156
2443.660169	-3.020900	2.715300	-8.201500	29.056311	0.000204	20.760450
2444.661602	-3.007400	2.711300	-8.153300	29.055443	0.000203	20.760050
2445.663514	-3.003300	2.710300	-8.138800	29.073820	0.000203	20.776196
2446.661853	-2.994000	2.705700	-8.099600	29.056928	0.000203	20.779565
2447.663853	-2.994800	2.702700	-8.092300	29.090364	0.000203	20.779590
2448.663021	-2.991200	2.697800	-8.069000	29.176132	0.000204	20.768338
2449.662642	-2.994400	2.693400	-8.063800	29.220979	0.000203	20.763270
2450.664042	-3.009200	2.691000	-8.096100	29.285540	0.000204	20.762899
2451.663312	-2.999400	2.686400	-8.056400	29.373913	0.000201	20.777998
2452.664085	-2.985200	2.684200	-8.012400	29.405335	0.000203	20.761304
2453.664457	-2.996500	2.679800	-8.028100	29.437892	0.000205	20.778472
2454.665377	-2.999500	2.674700	-8.021200	29.479390	0.000204	20.776679
2455.662826	-3.045000	2.668900	-8.125300	29.553289	0.000205	20.758710
2456.663836	-3.033500	2.666500	-8.087800	29.565274	0.000203	20.766524
2457.668796	-3.001700	2.662400	-7.991100	29.556386	0.000202	20.751874
2458.664585	-3.030500	2.658300	-8.054700	29.516780	0.000202	20.756995
2459.664220	-3.019900	2.653300	-8.010800	29.534062	0.000205	20.769200
2460.663224	-3.008400	2.650000	-7.971200	29.550226	0.000203	20.771744
2461.664967	-3.007400	2.644300	-7.951400	29.570088	0.000204	20.757626
2462.663367	-2.994800	2.642400	-7.912300	29.581970	0.000203	20.771027
2463.666211	-3.007500	2.637800	-7.932200	29.545085	0.000204	20.765139
2464.663698	-3.014500	2.632600	-7.935300	29.526544	0.000203	20.782959
2465.664216	-2.982600	2.628700	-7.839400	29.508028	0.000203	20.762397
2466.664880	-2.972700	2.625300	-7.802800	29.469312	0.000202	20.766520
2467.667490	-2.988700	2.619000	-7.826300	29.406624	0.000204	20.773035
2468.665936	-2.981400	2.614500	-7.794000	29.386968	0.000203	20.756068
2469.664081	-2.980300	2.610200	-7.777900	29.395191	0.000202	20.763408
2470.664079	-3.002500	2.605300	-7.821100	29.387693	0.000204	20.753953
2471.663745	-2.989200	2.599500	-7.768800	29.407725	0.000204	20.748540
2472.663124	-2.996300	2.593100	-7.768200	29.377617	0.000203	20.764187
2473.665033	-3.010300	2.588500	-7.791100	29.362465	0.000203	20.744173
2474.663390	-2.979200	2.583500	-7.695700	29.339834	0.000203	20.769729
2475.666433	-2.966500	2.578600	-7.648600	29.358284	0.000203	20.741856
2476.664194	-2.975400	2.572900	-7.654400	29.394136	0.000203	20.760922
2477.664502	-3.009300	2.566000	-7.721300	29.446901	0.000205	20.749146
2478.668986	-3.034400	2.558700	-7.763100	29.541528	0.000202	20.750647
2479.664710	-3.047600	2.552800	-7.778300	29.599329	0.000203	20.751067
2480.664725	-3.008200	2.548600	-7.665800	29.618347	0.000202	20.744161
2481.665833	-2.987800	2.544400	-7.601100	29.602180	0.000201	20.736397
2482.664961	-2.989200	2.536800	-7.582300	29.607284	0.000202	20.737750
2483.664381	-3.012300	2.529700	-7.618300	29.600176	0.000203	20.757137
2484.684486	-3.035900	2.524000	-7.660900	29.615922	0.000203	20.760683
2485.665667	-2.987400	2.519000	-7.524700	29.660084	0.000205	20.734080
2486.666790	-2.998400	2.513500	-7.535700	29.694392	0.000203	20.723623
2487.666498	-2.982300	2.506600	-7.474900	29.728130	0.000205	20.734880
2488.667433	-3.026800	2.497300	-7.557200	29.765499	0.000205	20.740314
